trial_nr	onset	event_type	phase	response	nr_frames	trial_type	stim_name	task_probe	onset_abs	duration
0.0	0.05742420999740716	baseline	0.0		41.0		baseline	0.0	21.634460261204367	0.3497102664123304
0.0	0.40713447640973754	ISI	1.0		11.0		baseline	0.0	21.984170527616698	0.09999725313809904
1.0	0.5071317295478366	baseline	0.0		48.0		baseline	0.0	22.084167780754797	0.3999724106370195
1.0	0.7072234324841702	pulse	0.0	t			baseline	0.0	22.28425948369113	
1.0	0.9071041401848561	ISI	1.0		11.0		baseline	0.0	22.484140191391816	0.10000359205059794
2.0	1.007107732235454	baseline	0.0		48.0		baseline	0.0	22.584143783442414	0.39996365690058155
2.0	1.4070713891360356	ISI	1.0		11.0		baseline	0.0	22.984107440342996	0.10000600687453698
2.0	1.4116728360386332	pulse	1.0	t			baseline	0.0	22.988708887245593	
3.0	1.5070773960105726	baseline	0.0		48.0		baseline	0.0	23.084113447217533	0.3999814662265635
3.0	1.907058862237136	ISI	1.0		11.0		baseline	0.0	23.484094913444096	0.09999634757878084
4.0	2.007055209815917	baseline	0.0		48.0		baseline	0.0	23.584091261022877	0.3999823717858817
4.0	2.1071804486191468	pulse	0.0	t			baseline	0.0	23.684216499826107	
4.0	2.4070375816017986	ISI	1.0		11.0		baseline	0.0	23.98407363280876	0.10002109952347382
5.0	2.5070586811252724	baseline	0.0		48.0		baseline	0.0	24.084094732332233	0.39998720143375976
5.0	2.8071585039078855	pulse	0.0	t			baseline	0.0	24.384194555114846	
5.0	2.907045882559032	ISI	1.0		11.0		baseline	0.0	24.484081933765992	0.09998246234135877
6.0	3.007028344900391	baseline	0.0		48.0		baseline	0.0	24.58406439610735	0.3999932384931526
6.0	3.4070215833935436	ISI	1.0		11.0		baseline	0.0	24.984057634600504	0.09999634757878084
7.0	3.5070179309723244	baseline	0.0		47.0		baseline	0.0	25.084053982179285	0.4000031996420148
7.0	3.5111638817206767	pulse	0.0	t			baseline	0.0	25.088199932927637	
7.0	3.907021130614339	ISI	1.0		11.0		baseline	0.0	25.4840571818213	0.10000751613915781
8.0	4.007028646753497	baseline	0.0		48.0		baseline	0.0	25.584064697960457	0.3999552050172497
8.0	4.207112501512711	pulse	0.0	t			baseline	0.0	25.78414855271967	
8.0	4.406983851770747	ISI	1.0		11.0		baseline	0.0	25.984019902977707	0.10000902540377865
9.0	4.506992877174525	baseline	0.0		48.0		baseline	0.0	26.084028928381485	0.39998931440459273
9.0	4.906982191579118	ISI	1.0		11.0		baseline	0.0	26.484018242786078	0.09999453646105394
9.0	4.911549227241267	pulse	1.0	t			baseline	0.0	26.488585278448227	
10.0	5.006976728040172	baseline	0.0		48.0		baseline	0.0	26.584012779247132	0.39999021996300144
10.0	5.4069669480031735	ISI	1.0		11.0		baseline	0.0	26.984002999210134	0.10001053466930898
11.0	5.506977482672482	baseline	0.0		48.0		baseline	0.0	27.084013533879443	0.3999905218161075
11.0	5.60708491214973	pulse	0.0	t			baseline	0.0	27.18412096335669	
11.0	5.90696800448859	ISI	1.0		5.0		baseline	0.0	27.48400405569555	0.12530279627571872
12.0	6.032270800764309	adult	0.0		45.0	face	adult-87.jpg	0.0	27.60930685197127	0.3746234006694067
12.0	6.30700591722325	pulse	0.0	t		face	adult-87.jpg	0.0	27.88404196843021	
12.0	6.406894201433715	ISI	1.0		7.0	face	adult-87.jpg	0.0	27.983930252640675	0.11669576026361028
13.0	6.523589961697326	adult	0.0		46.0	face	adult-102.jpg	0.0	28.100626012904286	0.3832862794843095
13.0	6.906876241181635	ISI	1.0		7.0	face	adult-102.jpg	0.0	28.483912292388595	0.11669394914497389
14.0	7.023570190326609	adult	0.0		45.0	face	adult-128.jpg	0.0	28.60060624153357	0.38328929801446066
14.0	7.015452458003892	pulse	0.0	t		face	adult-128.jpg	0.0	28.592488509210852	
14.0	7.40685948834107	ISI	1.0		8.0	face	adult-128.jpg	0.0	28.98389553954803	0.11669485470429208
15.0	7.523554343045362	adult	0.0		46.0	face	adult-128.jpg	1.0	29.100590394252322	0.38331133328119904
15.0	7.706972894507089	pulse	0.0	t		face	adult-128.jpg	1.0	29.28400894571405	
15.0	7.906865676326561	ISI	1.0		6.0	face	adult-128.jpg	1.0	29.48390172753352	0.1166809694677795
16.0	8.02354664579434	adult	0.0		46.0	face	adult-3.jpg	0.0	29.6005826970013	0.38329292024900496
16.0	8.37363483214358	response	0.0	b		face	adult-3.jpg	0.0	29.95067088335054	
16.0	8.406839566043345	ISI	1.0		6.0	face	adult-3.jpg	0.0	29.983875617250305	0.11669515655830764
16.0	8.447476524138438	pulse	1.0	t		face	adult-3.jpg	0.0	30.024512575345398	
17.0	8.523534722601653	adult	0.0		46.0	face	adult-105.jpg	0.0	30.100570773808613	0.38330559807491227
17.0	8.906840320676565	ISI	1.0		6.0	face	adult-105.jpg	0.0	30.483876371883525	0.11668247873149085
18.0	9.023522799408056	adult	0.0		46.0	face	adult-14.jpg	0.0	30.600558850615016	0.38330227769256453
18.0	9.106936249554565	pulse	0.0	t		face	adult-14.jpg	0.0	30.683972300761525	
18.0	9.40682507710062	ISI	1.0		7.0	face	adult-14.jpg	0.0	30.98386112830758	0.11668308243770298
19.0	9.523508159538324	adult	0.0		46.0	face	adult-84.jpg	0.0	31.100544210745284	0.3832850720718852
19.0	9.806912795577773	pulse	0.0	t		face	adult-84.jpg	0.0	31.383948846784733	
19.0	9.906793231610209	ISI	1.0		8.0	face	adult-84.jpg	0.0	31.48382928281717	0.11669304358656518
20.0	10.023486275196774	adult	0.0		46.0	face	adult-5.jpg	0.0	31.600522326403734	0.3832805442771132
20.0	10.406766819473887	ISI	1.0		6.0	face	adult-5.jpg	0.0	31.983802870680847	0.11671055106035055
21.0	10.523477370534238	adult	0.0		45.0	face	adult-74.jpg	0.0	32.1005134217412	0.38328748689582426
21.0	10.515376240125079	pulse	0.0	t		face	adult-74.jpg	0.0	32.09241229133204	
21.0	10.906764857430062	ISI	1.0		7.0	face	adult-74.jpg	0.0	32.48380090863702	0.11669394914588338
22.0	11.023458806575945	adult	0.0		46.0	face	adult-1.jpg	0.0	32.600494857782905	0.383299862867716
22.0	11.206880074713808	pulse	0.0	t		face	adult-1.jpg	0.0	32.78391612592077	
22.0	11.406758669443661	ISI	1.0		7.0	face	adult-1.jpg	0.0	32.98379472065062	0.11668308243861247
23.0	11.523441751882274	adult	0.0		46.0	face	adult-103.jpg	0.0	33.100477803089234	0.38330559807491227
23.0	11.906747349957186	ISI	1.0		5.0	face	adult-103.jpg	0.0	33.483783401164146	0.11668036576065788
23.0	11.96324819167421	pulse	1.0	t		face	adult-103.jpg	0.0	33.54028424288117	
24.0	12.023427715717844	word	0.0		46.0	character	word-95.jpg	0.0	33.600463766924804	0.3833499704642236
24.0	12.406777686182068	ISI	1.0		6.0	character	word-95.jpg	0.0	33.98381373738903	0.11668640282096021
25.0	12.523464089003028	word	0.0		46.0	character	word-39.jpg	0.0	34.10050014020999	0.3832473404481789
25.0	12.6068437316153	pulse	0.0	t		character	word-39.jpg	0.0	34.18387978282226	
25.0	12.906711429451207	ISI	1.0		7.0	character	word-39.jpg	0.0	34.48374748065817	0.11670360844163952
26.0	13.023415037892846	word	0.0		46.0	character	word-37.jpg	0.0	34.600451089099806	0.3833119369874112
26.0	13.306876422293499	pulse	0.0	t		character	word-37.jpg	0.0	34.88391247350046	
26.0	13.406726974880257	ISI	1.0		8.0	character	word-37.jpg	0.0	34.98376302608722	0.11668096946687001
27.0	13.523407944347127	word	0.0		46.0	character	word-37.jpg	1.0	35.10044399555409	0.38330016472173156
27.0	13.906708109068859	ISI	1.0		6.0	character	word-37.jpg	1.0	35.48374416027582	0.11667583796679537
28.0	14.023383947035654	word	0.0		45.0	character	word-137.jpg	0.0	35.600419998242614	0.3832899017197633
28.0	14.015258064680893	pulse	0.0	t		character	word-137.jpg	0.0	35.59229411588785	
28.0	14.065148627881172	response	0.0	b		character	word-137.jpg	0.0	35.64218467908813	
28.0	14.406673848755418	ISI	1.0		7.0	character	word-137.jpg	0.0	35.98370989996238	0.11670632511777512
29.0	14.523380173873193	word	0.0		46.0	character	word-79.jpg	0.0	36.10041622508015	0.38330288139786717
29.0	14.706798121628708	pulse	0.0	t		character	word-79.jpg	0.0	36.28383417283567	
29.0	14.90668305527106	ISI	1.0		7.0	character	word-79.jpg	0.0	36.48371910647802	0.1166664805241453
30.0	15.023349535795205	word	0.0		46.0	character	word-38.jpg	0.0	36.600385587002165	0.38331586107597104
30.0	15.406665396871176	ISI	1.0		7.0	character	word-38.jpg	0.0	36.983701448078136	0.1166701027595991
30.0	15.443225830405026	pulse	1.0	t		character	word-38.jpg	0.0	37.02026188161199	
31.0	15.523335499630775	word	0.0		46.0	character	word-111.jpg	0.0	37.100371550837735	0.38329684433847433
31.0	15.90663234396925	ISI	1.0		6.0	character	word-111.jpg	0.0	37.48366839517621	0.11669274173436861
32.0	16.02332508570362	word	0.0		46.0	character	word-59.jpg	0.0	37.60036113691058	0.383315559222865
32.0	16.106755137763685	pulse	0.0	t		character	word-59.jpg	0.0	37.683791188970645	
32.0	16.406640644926483	ISI	1.0		7.0	character	word-59.jpg	0.0	37.98367669613344	0.11667946020224917
33.0	16.523320105128732	word	0.0		46.0	character	word-121.jpg	0.0	38.10035615633569	0.3832950332207474
33.0	16.80677333949916	pulse	0.0	t		character	word-121.jpg	0.0	38.38380939070612	
33.0	16.90661513834948	ISI	1.0		7.0	character	word-121.jpg	0.0	38.48365118955644	0.11669877879285195
34.0	17.02331391714233	word	0.0		46.0	character	word-19.jpg	0.0	38.60034996834929	0.38329110913218756
34.0	17.40660502627452	ISI	1.0		8.0	character	word-19.jpg	0.0	38.98364107748148	0.11668579911474808
35.0	17.523290825389267	word	0.0		45.0	character	word-63.jpg	0.0	39.10032687659623	0.38331042772279034
35.0	17.51525278225381	pulse	0.0	t		character	word-63.jpg	0.0	39.09228883346077	
35.0	17.906601253112058	ISI	1.0		5.0	character	word-63.jpg	0.0	39.48363730431902	0.11668217687929427
36.0	18.023283429991352	word	0.0		46.0	character	word-35.jpg	0.0	39.60031948119831	0.38328869430733903
36.0	18.206717375955122	pulse	0.0	t		character	word-35.jpg	0.0	39.78375342716208	
36.0	18.40657212429869	ISI	1.0		6.0	character	word-35.jpg	0.0	39.98360817550565	0.11668127132088557
37.0	18.523253395619577	word	0.0		46.0	character	word-93.jpg	0.0	40.10028944682654	0.38333306669665035
37.0	18.906586462316227	ISI	1.0		8.0	character	word-93.jpg	0.0	40.48362251352319	0.11670511770535086
37.0	18.938643551166933	pulse	1.0	t		character	word-93.jpg	0.0	40.51567960237389	
38.0	19.023291580021578	word	0.0		46.0	character	word-77.jpg	0.0	40.60032763122854	0.38324824600840657
38.0	19.406539826029984	ISI	1.0		7.0	character	word-77.jpg	0.0	40.983575877236945	0.11668881764489925
39.0	19.523228643674884	word	0.0		46.0	character	word-50.jpg	0.0	41.100264694881844	0.3833197851645309
39.0	19.606660506852677	pulse	0.0	t		character	word-50.jpg	0.0	41.18369655805964	
39.0	19.906548428839415	ISI	1.0		8.0	character	word-50.jpg	0.0	41.483584480046375	0.11668066761467344
40.0	20.023229096454088	word	0.0		46.0	character	word-50.jpg	1.0	41.60026514766105	0.3833071073395331
40.0	20.306646410318535	pulse	0.0	t		character	word-50.jpg	1.0	41.883682461525495	
40.0	20.40653620379362	ISI	1.0		7.0	character	word-50.jpg	1.0	41.98357225500058	0.11668428985012724
41.0	20.52322049364375	word	0.0		46.0	character	word-68.jpg	0.0	42.10025654485071	0.38328024242400716
41.0	20.573306355725435	response	0.0	b		character	word-68.jpg	0.0	42.150342406932396	
41.0	20.906500736067755	ISI	1.0		5.0	character	word-68.jpg	0.0	42.483536787274716	0.11668338429171854
42.0	21.023184120359474	word	0.0		45.0	character	word-87.jpg	0.0	42.600220171566434	0.38330740919263917
42.0	21.015175960669694	pulse	0.0	t		character	word-87.jpg	0.0	42.592212011876654	
42.0	21.406491529552113	ISI	1.0		7.0	character	word-87.jpg	0.0	42.98352758075907	0.11668911949800531
43.0	21.52318064905012	word	0.0		46.0	character	word-66.jpg	0.0	43.10021670025708	0.3833164647821832
43.0	21.706617311690934	pulse	0.0	t		character	word-66.jpg	0.0	43.283653362897894	
43.0	21.9064971138323	ISI	1.0		7.0	character	word-66.jpg	0.0	43.48353316503926	0.11665833049301
44.0	22.02315544432531	word	0.0		46.0	character	word-8.jpg	0.0	43.60019149553227	0.38331857775392564
44.0	22.406474022079237	ISI	1.0		6.0	character	word-8.jpg	0.0	43.9835100732862	0.11668217687929427
44.0	22.45241483897189	pulse	1.0	t		character	word-8.jpg	0.0	44.02945089017885	
45.0	22.52315619895853	word	0.0		46.0	character	word-4.jpg	0.0	44.10019225016549	0.38331404995824414
45.0	22.906470248916776	ISI	1.0		7.0	character	word-4.jpg	0.0	44.483506300123736	0.11668428985012724
46.0	23.023154538766903	word	0.0		46.0	character	word-106.jpg	0.0	44.60019058997386	0.38330046657392813
46.0	23.10657583709053	pulse	0.0	t		character	word-106.jpg	0.0	44.68361188829749	
46.0	23.40645500534083	ISI	1.0		8.0	character	word-106.jpg	0.0	44.98349105654779	0.1166809694677795
47.0	23.52313597480861	word	0.0		46.0	character	word-67.jpg	0.0	45.10017202601557	0.38330559807491227
47.0	23.80655389237836	pulse	0.0	t		character	word-67.jpg	0.0	45.38358994358532	
47.0	23.906441572883523	ISI	1.0		6.0	character	word-67.jpg	0.0	45.48347762409048	0.11668398799702118
48.0	24.023125560880544	adult	0.0		46.0	face	adult-48.jpg	0.0	45.600161612087504	0.3832826572479462
48.0	24.40640821812849	ISI	1.0		7.0	face	adult-48.jpg	0.0	45.98344426933545	0.11669515655739815
49.0	24.52310337468589	adult	0.0		45.0	face	adult-132.jpg	0.0	46.10013942589285	0.3833116351343051
49.0	24.51497085156643	pulse	0.0	t		face	adult-132.jpg	0.0	46.09200690277339	
49.0	24.906415009820194	ISI	1.0		7.0	face	adult-132.jpg	0.0	46.483451061027154	0.11666949905429647
50.0	25.02308450887449	adult	0.0		46.0	face	adult-138.jpg	0.0	46.60012056008145	0.3833342741081651
50.0	25.20654743272462	pulse	0.0	t		face	adult-138.jpg	0.0	46.78358348393158	
50.0	25.406418782982655	ISI	1.0		7.0	face	adult-138.jpg	0.0	46.983454834189615	0.11670481585315429
51.0	25.52312359883581	adult	0.0		46.0	face	adult-8.jpg	0.0	47.10015965004277	0.38326847015741805
51.0	25.906392068993227	ISI	1.0		8.0	face	adult-8.jpg	0.0	47.48342812020019	0.1166755361136893
51.0	25.937843037051607	pulse	1.0	t		face	adult-8.jpg	0.0	47.51487908825857	
52.0	26.023067605106917	adult	0.0		46.0	face	adult-114.jpg	0.0	47.60010365631388	0.38330771104574524
52.0	26.406375316152662	ISI	1.0		6.0	face	adult-114.jpg	0.0	47.98341136735962	0.11668428985012724
53.0	26.52305960600279	adult	0.0		46.0	face	adult-16.jpg	0.0	48.10009565720975	0.38330650363423047
53.0	26.60647909320869	pulse	0.0	t		face	adult-16.jpg	0.0	48.18351514441565	
53.0	26.90636610963702	ISI	1.0		7.0	face	adult-16.jpg	0.0	48.48340216084398	0.11667613981899194
54.0	27.02304224945601	adult	0.0		46.0	face	adult-95.jpg	0.0	48.60007830066297	0.3832859776312034
54.0	27.30646107258599	pulse	0.0	t		face	adult-95.jpg	0.0	48.88349712379295	
54.0	27.406328227087215	ISI	1.0		8.0	face	adult-95.jpg	0.0	48.983364278294175	0.11668942135111138
55.0	27.523017648438326	adult	0.0		46.0	face	adult-95.jpg	1.0	49.10005369964529	0.38330499436870014
55.0	27.873110362582338	response	0.0	b		face	adult-95.jpg	1.0	49.4501464137893	
55.0	27.906322642807027	ISI	1.0		6.0	face	adult-95.jpg	1.0	49.48335869401399	0.11668791208558105
56.0	28.023010554892608	adult	0.0		45.0	face	adult-34.jpg	0.0	49.60004660609957	0.38331133328210854
56.0	28.014830037148386	pulse	0.0	t		face	adult-34.jpg	0.0	49.591866088355346	
56.0	28.406321888174716	ISI	1.0		7.0	face	adult-34.jpg	0.0	49.983357939381676	0.11668278058459691
57.0	28.523004668759313	adult	0.0		46.0	face	adult-76.jpg	0.0	50.10004071996627	0.3832998628686255
57.0	28.70642865357513	pulse	0.0	t		face	adult-76.jpg	0.0	50.28346470478209	
57.0	28.90630453162794	ISI	1.0		6.0	face	adult-76.jpg	0.0	50.4833405828349	0.11669485470429208
58.0	29.02299938633223	adult	0.0		46.0	face	adult-101.jpg	0.0	50.60003543753919	0.3832832609541583
58.0	29.40628264728639	ISI	1.0		8.0	face	adult-101.jpg	0.0	50.98331869849335	0.11668428985012724
58.0	29.438522960899718	pulse	1.0	t		face	adult-101.jpg	0.0	51.01555901210668	
59.0	29.522966937136516	adult	0.0		46.0	face	adult-91.jpg	0.0	51.100002988343476	0.38330469251559407
59.0	29.90627162965211	ISI	1.0		7.0	face	adult-91.jpg	0.0	51.48330768085907	0.11669787323444325
60.0	30.022969502886554	house	0.0		46.0	place	house-123.jpg	0.0	51.600005554093514	0.3832998628686255
60.0	30.106395027152757	pulse	0.0	t		place	house-123.jpg	0.0	51.68343107835972	
60.0	30.40626936575518	ISI	1.0		6.0	place	house-123.jpg	0.0	51.98330541696214	0.1166800639084613
61.0	30.52294942966364	house	0.0		46.0	place	house-14.jpg	0.0	52.0999854808706	0.38328205354173406
61.0	30.80636825279271	pulse	0.0	t		place	house-14.jpg	0.0	52.38340430399967	
61.0	30.906231483205374	ISI	1.0		7.0	place	house-14.jpg	0.0	52.483267534412334	0.11670572141247249
62.0	31.022937204617847	house	0.0		46.0	place	house-121.jpg	0.0	52.59997325582481	0.38328295910105226
62.0	31.4062201637189	ISI	1.0		6.0	place	house-121.jpg	0.0	52.98325621492586	0.11669968435217015
63.0	31.52291984807107	house	0.0		45.0	place	house-72.jpg	0.0	53.09995589927803	0.38334031116846745
63.0	31.51471970988223	pulse	0.0	t		place	house-72.jpg	0.0	53.09175576108919	
63.0	31.906260159239537	ISI	1.0		6.0	place	house-72.jpg	0.0	53.4832962104465	0.11668700652626285
64.0	32.0229471657658	house	0.0		46.0	place	house-8.jpg	0.0	53.59998321697276	0.3832696775698423
64.0	32.206328287457836	pulse	0.0	t		place	house-8.jpg	0.0	53.783364338664796	
64.0	32.40621684333564	ISI	1.0		6.0	place	house-8.jpg	0.0	53.9832528945426	0.1166710083189173
65.0	32.52288785165456	house	0.0		46.0	place	house-81.jpg	0.0	54.09992390286152	0.3833146536644563
65.0	32.906202505319015	ISI	1.0		7.0	place	house-81.jpg	0.0	54.483238556525976	0.11667040461270517
65.0	32.93917722724473	pulse	1.0	t		place	house-81.jpg	0.0	54.51621327845169	
66.0	33.02287290993172	house	0.0		46.0	place	house-115.jpg	0.0	54.59990896113868	0.3833164647821832
66.0	33.406189374713904	ISI	1.0		6.0	place	house-115.jpg	0.0	54.983225425920864	0.11666949905429647
67.0	33.5228588737682	house	0.0		46.0	place	house-99.jpg	0.0	55.09989492497516	0.3833164647821832
67.0	33.60633239265826	pulse	0.0	t		place	house-99.jpg	0.0	55.18336844386522	
67.0	33.90617533855038	ISI	1.0		6.0	place	house-99.jpg	0.0	55.483211389757344	0.11668157317308214
68.0	34.022856911723466	house	0.0		46.0	place	house-28.jpg	0.0	55.599892962930426	0.38330378695718537
68.0	34.306272414470186	pulse	0.0	t		place	house-28.jpg	0.0	55.883308465677146	
68.0	34.40616069868065	ISI	1.0		7.0	place	house-28.jpg	0.0	55.98319674988761	0.11668368614391511
69.0	34.522844384824566	house	0.0		46.0	place	house-39.jpg	0.0	56.099880436031526	0.38329110913218756
69.0	34.906135493956754	ISI	1.0		6.0	place	house-39.jpg	0.0	56.483171545163714	0.11669425099807995
70.0	35.022829744954834	house	0.0		45.0	place	house-5.jpg	0.0	56.599865796161794	0.3832895998666572
70.0	35.01472197378007	pulse	0.0	t		place	house-5.jpg	0.0	56.59175802498703	
70.0	35.40611934482149	ISI	1.0		7.0	place	house-5.jpg	0.0	56.98315539602845	0.11669545841050422
71.0	35.522814803231995	house	0.0		46.0	place	house-37.jpg	0.0	57.099850854438955	0.3832871850427182
71.0	35.70626414369872	pulse	0.0	t		place	house-37.jpg	0.0	57.28330019490568	
71.0	35.90610198827471	ISI	1.0		6.0	place	house-37.jpg	0.0	57.48313803948167	0.11670662697088119
72.0	36.022808615245594	car	0.0		46.0	object	car-130.jpg	0.0	57.599844666452555	0.38328114798332535
72.0	36.40608976322892	ISI	1.0		7.0	object	car-130.jpg	0.0	57.98312581443588	0.11670662697088119
72.0	36.44402815563899	pulse	1.0	t		object	car-130.jpg	0.0	58.02106420684595	
73.0	36.5227963901998	car	0.0		46.0	object	car-74.jpg	0.0	58.09983244140676	0.3832989573093073
73.0	36.90609534750911	ISI	1.0		6.0	object	car-74.jpg	0.0	58.48313139871607	0.11668157317308214
74.0	37.02277692068219	car	0.0		46.0	object	car-38.jpg	0.0	58.59981297188915	0.3833052962227157
74.0	37.10622538577536	pulse	0.0	t		object	car-38.jpg	0.0	58.68326143698232	
74.0	37.406082216904906	ISI	1.0		6.0	object	car-38.jpg	0.0	58.983118268111866	0.11668157317308214
75.0	37.52276379007799	car	0.0		46.0	object	car-122.jpg	0.0	59.09979984128495	0.38330408880938194
75.0	37.80619015953198	pulse	0.0	t		object	car-122.jpg	0.0	59.38322621073894	
75.0	37.90606787888737	ISI	1.0		8.0	object	car-122.jpg	0.0	59.48310393009433	0.11668278058550641
76.0	38.02275065947288	car	0.0		46.0	object	car-73.jpg	0.0	59.59978671067984	0.38331676663528924
76.0	38.406067426108166	ISI	1.0		5.0	object	car-73.jpg	0.0	59.983103477315126	0.11671447514891042
77.0	38.522781901257076	car	0.0		45.0	object	car-99.jpg	0.0	60.099817952464036	0.38329201469059626
77.0	38.5155039239371	pulse	0.0	t		object	car-99.jpg	0.0	60.092539975144064	
77.0	38.90607391594767	ISI	1.0		6.0	object	car-99.jpg	0.0	60.48310996715463	0.116667386082554
78.0	39.02274130203023	car	0.0		46.0	object	car-10.jpg	0.0	60.59977735323719	0.3832754127761291
78.0	39.206148081226274	pulse	0.0	t		object	car-10.jpg	0.0	60.783184132433234	
78.0	39.406016714806356	ISI	1.0		5.0	object	car-10.jpg	0.0	60.983052766013316	0.11665923605323769
79.0	39.52267595085959	car	0.0		46.0	object	car-2.jpg	0.0	61.09971200206655	0.3833282370487723
79.0	39.906004187908366	ISI	1.0		7.0	object	car-2.jpg	0.0	61.483040239115326	0.11667764908361278
79.0	39.94217402367849	pulse	1.0	t		object	car-2.jpg	0.0	61.51921007488545	
80.0	40.02268183699198	car	0.0		46.0	object	car-35.jpg	0.0	61.59971788819894	0.38329925916241336
80.0	40.40598109615439	ISI	1.0		6.0	object	car-35.jpg	0.0	61.98301714736135	0.11670753253019939
81.0	40.52268862868459	car	0.0		46.0	object	car-98.jpg	0.0	62.09972467989155	0.38330288139786717
81.0	40.60611686962693	pulse	0.0	t		object	car-98.jpg	0.0	62.18315292083389	
81.0	40.90599151008246	ISI	1.0		6.0	object	car-98.jpg	0.0	62.48302756128942	0.11667040461270517
82.0	41.02266191469516	car	0.0		46.0	object	car-91.jpg	0.0	62.59969796590212	0.3832998628686255
82.0	41.30609039711999	pulse	0.0	t		object	car-91.jpg	0.0	62.88312644832695	
82.0	41.40596177756379	ISI	1.0		8.0	object	car-91.jpg	0.0	62.98299782877075	0.11668579911474808
83.0	41.52264757667854	car	0.0		46.0	object	car-64.jpg	0.0	63.0996836278855	0.38331495551756234
83.0	41.9059625321961	ISI	1.0		7.0	object	car-64.jpg	0.0	63.48299858340306	0.11668278058550641
84.0	42.022645312781606	car	0.0		45.0	object	car-118.jpg	0.0	63.599681363988566	0.38328386465946096
84.0	42.014488037716546	pulse	0.0	t		object	car-118.jpg	0.0	63.59152408892351	
84.0	42.40592917744107	ISI	1.0		6.0	object	car-118.jpg	0.0	63.98296522864803	0.11670270288232132
85.0	42.52263188032339	car	0.0		46.0	object	car-21.jpg	0.0	64.09966793153035	0.3833052962218062
85.0	42.70605254475595	pulse	0.0	t		object	car-21.jpg	0.0	64.28308859596291	
85.0	42.905937176545194	ISI	1.0		6.0	object	car-21.jpg	0.0	64.48297322775215	0.11667885649603704
86.0	43.02261603304123	car	0.0		46.0	object	car-143.jpg	0.0	64.59965208424819	0.3833089184581695
86.0	43.4059249514994	ISI	1.0		6.0	object	car-143.jpg	0.0	64.98296100270636	0.1166800639084613
86.0	43.44834495517625	pulse	1.0	t		object	car-143.jpg	0.0	65.02538100638321	
87.0	43.52260501540786	car	0.0		46.0	object	car-58.jpg	0.0	65.09964106661482	0.38329110913127806
87.0	43.90589612453914	ISI	1.0		6.0	object	car-58.jpg	0.0	65.4829321757461	0.11669515655739815
88.0	44.02259128109654	car	0.0		46.0	object	car-33.jpg	0.0	65.5996273323035	0.38330680548733653
88.0	44.10602163501062	pulse	0.0	t		object	car-33.jpg	0.0	65.68305768621758	
88.0	44.405898086583875	ISI	1.0		7.0	object	car-33.jpg	0.0	65.98293413779083	0.11668700652717234
89.0	44.52258509311105	car	0.0		46.0	object	car-23.jpg	0.0	66.09962114431801	0.38329201469059626
89.0	44.80597071241209	pulse	0.0	t		object	car-23.jpg	0.0	66.38300676361905	
89.0	44.90587710780164	ISI	1.0		5.0	object	car-23.jpg	0.0	66.4829131590086	0.11668791208558105
90.0	45.022565019887224	car	0.0		46.0	object	car-87.jpg	0.0	66.59960107109418	0.38332763334256015
90.0	45.405892653229785	ISI	1.0		6.0	object	car-87.jpg	0.0	66.98292870443674	0.11669364729277731
91.0	45.52258630052256	car	0.0		45.0	object	car-125.jpg	0.0	67.09962235172952	0.38330137213324633
91.0	45.51489629387925	pulse	0.0	t		object	car-125.jpg	0.0	67.0919323450862	
91.0	45.90588767265581	ISI	1.0		8.0	object	car-125.jpg	0.0	67.48292372386277	0.11668579911474808
92.0	46.022573471770556	car	0.0		46.0	object	car-125.jpg	1.0	67.59960952297752	0.38326847015832755
92.0	46.20595821569805	pulse	0.0	t		object	car-125.jpg	1.0	67.782994266905	
92.0	46.405841941928884	ISI	1.0		6.0	object	car-125.jpg	1.0	67.98287799313584	0.1166701027595991
92.0	46.456008700610255	response	1.0	b		object	car-125.jpg	1.0	68.03304475181722	
93.0	46.52251204468848	car	0.0		46.0	object	car-72.jpg	0.0	68.09954809589544	0.3833197851654404
93.0	46.90583182985392	ISI	1.0		6.0	object	car-72.jpg	0.0	68.48286788106088	0.11668549726164201
93.0	46.951897613881556	pulse	1.0	t		object	car-72.jpg	0.0	68.52893366508852	
94.0	47.022517327115565	car	0.0		46.0	object	car-138.jpg	0.0	68.59955337832253	0.38329774989688303
94.0	47.40581507701245	ISI	1.0		6.0	object	car-138.jpg	0.0	68.98285112821941	0.1166673860834635
95.0	47.52248246309591	car	0.0		46.0	object	car-121.jpg	0.0	69.09951851430287	0.3833062017811244
95.0	47.605919759627795	pulse	0.0	t		object	car-121.jpg	0.0	69.18295581083476	
95.0	47.905788664877036	ISI	1.0		4.0	object	car-121.jpg	0.0	69.482824716084	0.11668187502618821
96.0	48.022470539903225	body	0.0		46.0	body	body-57.jpg	0.0	69.59950659111018	0.38329774989688303
96.0	48.305908681623805	pulse	0.0	t		body	body-57.jpg	0.0	69.88294473283077	
96.0	48.40576828980011	ISI	1.0		6.0	body	body-57.jpg	0.0	69.98280434100707	0.11670541955936642
97.0	48.522473709359474	body	0.0		46.0	body	body-42.jpg	0.0	70.09950976056643	0.3832935239552171
97.0	48.90576723331469	ISI	1.0		8.0	body	body-42.jpg	0.0	70.48280328452165	0.11668761023338448
98.0	49.022454843548076	body	0.0		45.0	body	body-42.jpg	1.0	70.59949089475504	0.38330771104574524
98.0	49.016560862164624	pulse	0.0	t		body	body-42.jpg	1.0	70.59359691337158	
98.0	49.40576255459382	ISI	1.0		6.0	body	body-42.jpg	1.0	70.98279860580078	0.11666889534717484
98.0	49.450449474186826	response	1.0	b		body	body-42.jpg	1.0	71.02748552539379	
99.0	49.522431449940996	body	0.0		46.0	body	body-144.jpg	0.0	71.09946750114796	0.3833173703415014
99.0	49.7058605662578	pulse	0.0	t		body	body-144.jpg	0.0	71.28289661746476	
99.0	49.9057488202825	ISI	1.0		7.0	body	body-144.jpg	0.0	71.48278487148946	0.11666949905429647
100.0	50.02241831933679	body	0.0		46.0	body	body-126.jpg	0.0	71.59945437054375	0.3833197851645309
100.0	50.405738104501324	ISI	1.0		7.0	body	body-126.jpg	0.0	71.98277415570828	0.11668670467406628
100.0	50.44560805416131	pulse	1.0	t		body	body-126.jpg	0.0	72.02264410536827	
101.0	50.52242480917539	body	0.0		46.0	body	body-122.jpg	0.0	72.09946086038235	0.3832850720718852
101.0	50.905709881247276	ISI	1.0		6.0	body	body-122.jpg	0.0	72.48274593245424	0.11668428985012724
102.0	51.0223941710974	body	0.0		46.0	body	body-26.jpg	0.0	72.59943022230436	0.3833218981362734
102.0	51.10582241204065	pulse	0.0	t		body	body-26.jpg	0.0	72.68285846324761	
102.0	51.40571606923368	ISI	1.0		6.0	body	body-26.jpg	0.0	72.98275212044064	0.11667613981990144
103.0	51.52239220905358	body	0.0		46.0	body	body-51.jpg	0.0	73.09942826026054	0.38330650363332097
103.0	51.805811032182646	pulse	0.0	t		body	body-51.jpg	0.0	73.3828470833896	
103.0	51.9056987126869	ISI	1.0		6.0	body	body-51.jpg	0.0	73.48273476389386	0.11667976205535524
104.0	52.022378474742254	body	0.0		46.0	body	body-20.jpg	0.0	73.59941452594921	0.3833400093153614
104.0	52.405718484057616	ISI	1.0		6.0	body	body-20.jpg	0.0	73.98275453526458	0.1166701027595991
105.0	52.522388586817215	body	0.0		45.0	body	body-131.jpg	0.0	74.09942463802417	0.3833143518113502
105.0	52.51441755504493	pulse	0.0	t		body	body-131.jpg	0.0	74.09145360625189	
105.0	52.905702938628565	ISI	1.0		5.0	body	body-131.jpg	0.0	74.48273898983552	0.11668278058550641
106.0	53.02238571921407	body	0.0		46.0	body	body-27.jpg	0.0	74.59942177042103	0.3832717905406753
106.0	53.20580004473413	pulse	0.0	t		body	body-27.jpg	0.0	74.7828360959411	
106.0	53.40565750975475	ISI	1.0		7.0	body	body-27.jpg	0.0	74.9826935609617	0.11667795093762834
107.0	53.522335460692375	body	0.0		46.0	body	body-17.jpg	0.0	75.09937151189934	0.3833080128988513
107.0	53.905643473591226	ISI	1.0		8.0	body	body-17.jpg	0.0	75.48267952479819	0.11668187502618821
107.0	53.936759686688674	pulse	1.0	t		body	body-17.jpg	0.0	75.51379573789563	
108.0	54.022325348617414	adult	0.0		46.0	face	adult-44.jpg	0.0	75.59936139982437	0.3833052962218062
108.0	54.40563064483922	ISI	1.0		6.0	face	adult-44.jpg	0.0	75.98266669604618	0.11668157317308214
109.0	54.5223122180123	adult	0.0		46.0	face	adult-12.jpg	0.0	76.09934826921926	0.38330378695718537
109.0	54.605737138572294	pulse	0.0	t		face	adult-12.jpg	0.0	76.18277318977925	
109.0	54.90561600496949	ISI	1.0		8.0	face	adult-12.jpg	0.0	76.48265205617645	0.11668881764489925
110.0	55.02230482261439	adult	0.0		46.0	face	adult-27.jpg	0.0	76.59934087382135	0.38329774989688303
110.0	55.30570976050603	pulse	0.0	t		face	adult-27.jpg	0.0	76.882745811713	
110.0	55.40560257251127	ISI	1.0		5.0	face	adult-27.jpg	0.0	76.98263862371823	0.11666859349497827
111.0	55.52227116600625	adult	0.0		46.0	face	adult-47.jpg	0.0	77.09930721721321	0.3833225018424855
111.0	55.905593667848734	ISI	1.0		7.0	face	adult-47.jpg	0.0	77.4826297190557	0.11664293599096709
112.0	56.0222366038397	adult	0.0		45.0	face	adult-33.jpg	0.0	77.59927265504666	0.3833264259310454
112.0	56.014197655144926	pulse	0.0	t		face	adult-33.jpg	0.0	77.59123370635189	
112.0	56.40556302977075	ISI	1.0		7.0	face	adult-33.jpg	0.0	77.9825990809777	0.11668972320330795
113.0	56.522252752974055	adult	0.0		46.0	face	adult-116.jpg	0.0	78.09928880418101	0.3832989573093073
113.0	56.705677341496084	pulse	0.0	t		face	adult-116.jpg	0.0	78.28271339270304	
113.0	56.90555171028336	ISI	1.0		7.0	face	adult-116.jpg	0.0	78.48258776149032	0.11668066761467344
114.0	57.022232377898035	adult	0.0		46.0	face	adult-51.jpg	0.0	78.599268429105	0.38331857775301614
114.0	57.40555095565105	ISI	1.0		7.0	face	adult-51.jpg	0.0	78.98258700685801	0.11669606211671635
114.0	57.441862058618426	pulse	1.0	t		face	adult-51.jpg	0.0	79.01889810982539	
115.0	57.52224701776777	adult	0.0		46.0	face	adult-124.jpg	0.0	79.09928306897473	0.38329050542506593
115.0	57.905537523192834	ISI	1.0		4.0	face	adult-124.jpg	0.0	79.4825735743998	0.10835526043774735
116.0	58.01389278363058	adult	0.0		47.0	face	adult-42.jpg	0.0	79.59092883483754	0.3916304015456262
116.0	58.10564552619144	pulse	0.0	t		face	adult-42.jpg	0.0	79.6826815773984	
116.0	58.40552318517621	ISI	1.0		7.0	face	adult-42.jpg	0.0	79.98255923638317	0.11667523426058324
117.0	58.52219841943679	adult	0.0		46.0	face	adult-110.jpg	0.0	80.09923447064375	0.38331374810604757
117.0	58.805624487038585	pulse	0.0	t		face	adult-110.jpg	0.0	80.38266053824555	
117.0	58.90551216754284	ISI	1.0		5.0	face	adult-110.jpg	0.0	80.4825482187498	0.10834831781812682
118.0	59.013860485360965	adult	0.0		47.0	face	adult-129.jpg	0.0	80.59089653656793	0.39166752946312045
118.0	59.405528014824085	ISI	1.0		5.0	face	adult-129.jpg	0.0	80.98256406603105	0.11668247873240034
119.0	59.522210493556486	adult	0.0		45.0	face	adult-112.jpg	0.0	81.09924654476345	0.38330650363423047
119.0	59.50967031315122	pulse	0.0	t		face	adult-112.jpg	0.0	81.08670636435818	
119.0	59.905516997190716	ISI	1.0		11.0	face	adult-112.jpg	0.0	81.48255304839768	0.10003438105468376
120.0	60.0055513782454	baseline	0.0		48.0		baseline	0.0	81.58258742945236	0.39998750328595634
120.0	60.20565485344832	pulse	0.0	t			baseline	0.0	81.78269090465528	
120.0	60.405538881531356	ISI	1.0		11.0		baseline	0.0	81.98257493273832	0.09998608457772207
121.0	60.50552496610908	baseline	0.0		48.0		baseline	0.0	82.08256101731604	0.40000018111186364
121.0	60.90552514722094	ISI	1.0		11.0		baseline	0.0	82.4825611984279	0.09999664943188691
121.0	60.9101875684255	pulse	1.0	t			baseline	0.0	82.48722361963246	
122.0	61.00552179665283	baseline	0.0		48.0		baseline	0.0	82.58255784785979	0.39997633472557936
122.0	61.40549813137841	ISI	1.0		11.0		baseline	0.0	82.98253418258537	0.09999936610893201
123.0	61.50549749748734	baseline	0.0		48.0		baseline	0.0	83.0825335486943	0.39997090137239866
123.0	61.60560945475936	pulse	0.0	t			baseline	0.0	83.18264550596632	
123.0	61.90546839885974	ISI	1.0		11.0		baseline	0.0	83.4825044500667	0.10002140137657989
124.0	62.00548980023632	baseline	0.0		48.0		baseline	0.0	83.58252585144328	0.39998448475671466
124.0	62.30558600078257	pulse	0.0	t			baseline	0.0	83.88262205198953	
124.0	62.40547428499303	ISI	1.0		11.0		baseline	0.0	83.9825103362	0.10000208278506761
125.0	62.5054763677781	baseline	0.0		48.0		baseline	0.0	84.08251241898506	0.4000053126128478
125.0	62.90548168039095	ISI	1.0		11.0		baseline	0.0	84.48251773159791	0.09997884010590496
126.0	63.005460520496854	baseline	0.0		47.0		baseline	0.0	84.58249657170381	0.3999977662879246
126.0	63.009777621887224	pulse	0.0	t			baseline	0.0	84.58681367309418	
126.0	63.40545828678478	ISI	1.0		11.0		baseline	0.0	84.98249433799174	0.09999483831416
127.0	63.50545312509894	baseline	0.0		48.0		baseline	0.0	85.0824891763059	0.39997844769641233
127.0	63.7055526762133	pulse	0.0	t			baseline	0.0	85.28258872742026	
127.0	63.90543157279535	ISI	1.0		11.0		baseline	0.0	85.48246762400231	0.0999894049600698
128.0	64.00542097775542	baseline	0.0		48.0		baseline	0.0	85.58245702896238	0.40001195337845274
128.0	64.40543293113387	ISI	1.0		11.0		baseline	0.0	85.98246898234083	0.0999803493705258
128.0	64.41006878927601	pulse	1.0	t			baseline	0.0	85.98710484048297	
129.0	64.5054132805044	baseline	0.0		48.0		baseline	0.0	86.08244933171136	0.3999923329347439
129.0	64.90540561343914	ISI	1.0		11.0		baseline	0.0	86.4824416646461	0.10001204393392982
130.0	65.00541765737307	baseline	0.0		48.0		baseline	0.0	86.58245370858003	0.3999896162567893
130.0	65.10552659611494	pulse	0.0	t			baseline	0.0	86.6825626473219	
130.0	65.40540727362986	ISI	1.0		11.0		baseline	0.0	86.98244332483682	0.0999821604891622
131.0	65.50538943411902	baseline	0.0		48.0		baseline	0.0	87.08242548532598	0.3999923329338344
131.0	65.80549710507876	pulse	0.0	t			baseline	0.0	87.38253315628572	
131.0	65.90538176705286	ISI	1.0		4.0		baseline	0.0	87.48241781825982	0.11664776563884516
132.0	66.0220295326917	car	0.0		46.0	object	car-83.jpg	0.0	87.59906558389866	0.38331314439983544
132.0	66.40534267709154	ISI	1.0		5.0	object	car-83.jpg	0.0	87.9823787282985	0.1166728194366442
133.0	66.52201549652818	car	0.0		45.0	object	car-51.jpg	0.0	88.09905154773514	0.38331284254672937
133.0	66.50952995151329	pulse	0.0	t		object	car-51.jpg	0.0	88.08656600272025	
133.0	66.90532833907491	ISI	1.0		6.0	object	car-51.jpg	0.0	88.48236439028187	0.11668700652717234
134.0	67.02201534560209	car	0.0		46.0	object	car-89.jpg	0.0	88.59905139680905	0.38330408880938194
134.0	67.20543178409298	pulse	0.0	t		object	car-89.jpg	0.0	88.78246783529994	
134.0	67.40531943441147	ISI	1.0		6.0	object	car-89.jpg	0.0	88.98235548561843	0.11667070646581124
135.0	67.52199014087728	car	0.0		46.0	object	car-27.jpg	0.0	89.09902619208424	0.38331314439983544
135.0	67.90530328527711	ISI	1.0		5.0	object	car-27.jpg	0.0	89.48233933648407	0.11669093061573221
135.0	67.96156505942963	pulse	1.0	t		object	car-27.jpg	0.0	89.53860111063659	
136.0	68.02199421589285	car	0.0		46.0	object	car-53.jpg	0.0	89.5990302670998	0.3832962406322622
136.0	68.40529045652511	ISI	1.0		5.0	object	car-53.jpg	0.0	89.98232650773207	0.11668730838027841
137.0	68.52197776490539	car	0.0		46.0	object	car-68.jpg	0.0	90.09901381611235	0.383268168304312
137.0	68.60535318157508	pulse	0.0	t		object	car-68.jpg	0.0	90.18238923278204	
137.0	68.9052459332097	ISI	1.0		7.0	object	car-68.jpg	0.0	90.48228198441666	0.11668127131997608
138.0	69.02192720452967	car	0.0		46.0	object	car-71.jpg	0.0	90.59896325573663	0.38328839245514246
138.0	69.30534149986488	pulse	0.0	t		object	car-71.jpg	0.0	90.88237755107184	
138.0	69.40521559698482	ISI	1.0		4.0	object	car-71.jpg	0.0	90.98225164819178	0.11669515655739815
139.0	69.52191075354222	car	0.0		46.0	object	car-105.jpg	0.0	91.09894680474918	0.38330831475195737
139.0	69.90521906829417	ISI	1.0		6.0	object	car-105.jpg	0.0	91.48225511950113	0.1166773472314162
140.0	70.02189641552559	car	0.0		45.0	object	car-129.jpg	0.0	91.59893246673255	0.38330861660506343
140.0	70.01383543156317	pulse	0.0	t		object	car-129.jpg	0.0	91.59087148277013	
140.0	70.40520503213065	ISI	1.0		8.0	object	car-129.jpg	0.0	91.98224108333761	0.11669274173345912
141.0	70.52189777386411	car	0.0		46.0	object	car-129.jpg	1.0	92.09893382507107	0.3832944295145353
141.0	70.70529579932281	pulse	0.0	t		object	car-129.jpg	1.0	92.28233185052977	
141.0	70.90519220337865	ISI	1.0		6.0	object	car-129.jpg	1.0	92.4822282545856	0.11667855464293098
141.0	70.95023198911076	response	1.0	b		object	car-129.jpg	1.0	92.52726804031772	
142.0	71.02187075802158	car	0.0		46.0	object	car-90.jpg	0.0	92.59890680922854	0.38330922031127557
142.0	71.40517997833285	ISI	1.0		7.0	object	car-90.jpg	0.0	92.98221602953981	0.1166800639084613
142.0	71.43828328962991	pulse	1.0	t		object	car-90.jpg	0.0	93.01531934083687	
143.0	71.52186004224131	car	0.0		46.0	object	car-22.jpg	0.0	93.09889609344827	0.383304390662488
143.0	71.9051644329038	ISI	1.0		5.0	object	car-22.jpg	0.0	93.48220048411076	0.11667946020224917
144.0	72.02184389310605	word	0.0		46.0	character	word-142.jpg	0.0	93.59887994431301	0.38330861660506343
144.0	72.10527303960771	pulse	0.0	t		character	word-142.jpg	0.0	93.68230909081467	
144.0	72.40515250971112	ISI	1.0		6.0	character	word-142.jpg	0.0	93.98218856091808	0.116667386082554
145.0	72.52181989579367	word	0.0		46.0	character	word-125.jpg	0.0	94.09885594700063	0.38331827590081957
145.0	72.80525320786637	pulse	0.0	t		character	word-125.jpg	0.0	94.38228925907333	
145.0	72.90513817169449	ISI	1.0		6.0	character	word-125.jpg	0.0	94.48217422290145	0.1166510860211929
146.0	73.02178925771568	word	0.0		46.0	character	word-65.jpg	0.0	94.59882530892264	0.3833218981362734
146.0	73.40511115585196	ISI	1.0		6.0	character	word-65.jpg	0.0	94.98214720705892	0.11668549726255151
147.0	73.5217966531145	word	0.0		45.0	character	word-22.jpg	0.0	95.09883270432147	0.3833143518113502
147.0	73.51402031651651	pulse	0.0	t		character	word-22.jpg	0.0	95.09105636772347	
147.0	73.90511100492586	ISI	1.0		5.0	character	word-22.jpg	0.0	95.48214705613282	0.11669062876262615
148.0	74.02180163368848	word	0.0		46.0	character	word-129.jpg	0.0	95.59883768489544	0.38329563692605007
148.0	74.20520418694196	pulse	0.0	t		character	word-129.jpg	0.0	95.78224023814892	
148.0	74.40509727061453	ISI	1.0		7.0	character	word-129.jpg	0.0	95.9821333218215	0.11667976205535524
149.0	74.52177703266989	word	0.0		46.0	character	word-102.jpg	0.0	96.09881308387685	0.3833400093153614
149.0	74.90511704198525	ISI	1.0		7.0	character	word-102.jpg	0.0	96.48215309319221	0.11668549726164201
149.0	74.93755114521446	pulse	1.0	t		character	word-102.jpg	0.0	96.51458719642142	
150.0	75.02180253924689	word	0.0		46.0	character	word-17.jpg	0.0	96.59883859045385	0.38326847015832755
150.0	75.40507100940522	ISI	1.0		8.0	character	word-17.jpg	0.0	96.98210706061218	0.11668217687929427
151.0	75.52175318628451	word	0.0		46.0	character	word-105.jpg	0.0	97.09878923749147	0.3833071073395331
151.0	75.6051781068445	pulse	0.0	t		character	word-105.jpg	0.0	97.18221415805147	
151.0	75.90506029362405	ISI	1.0		5.0	character	word-105.jpg	0.0	97.482096344831	0.11666889534808433
152.0	76.02172918897213	word	0.0		46.0	character	word-81.jpg	0.0	97.59876524017909	0.3833152573706684
152.0	76.30515918066158	pulse	0.0	t		character	word-81.jpg	0.0	97.88219523186854	
152.0	76.4050444463428	ISI	1.0		5.0	character	word-81.jpg	0.0	97.98208049754976	0.11668096946687001
153.0	76.52172541580967	word	0.0		46.0	character	word-56.jpg	0.0	98.09876146701663	0.38330559807491227
153.0	76.90503101388458	ISI	1.0		7.0	character	word-56.jpg	0.0	98.48206706509154	0.11667674352520407
154.0	77.02170775740979	word	0.0		45.0	character	word-27.jpg	0.0	98.59874380861675	0.3833134462529415
154.0	77.01360783441305	pulse	0.0	t		character	word-27.jpg	0.0	98.59064388562001	
154.0	77.40502120366273	ISI	1.0		7.0	character	word-27.jpg	0.0	98.98205725486969	0.11668579911474808
155.0	77.52170700277748	word	0.0		46.0	character	word-60.jpg	0.0	99.09874305398444	0.38329865545620123
155.0	77.70511981903292	pulse	0.0	t		character	word-60.jpg	0.0	99.28215587023988	
155.0	77.90500565823368	ISI	1.0		5.0	character	word-60.jpg	0.0	99.48204170944064	0.11667946020224917
156.0	78.02168511843593	body	0.0		46.0	body	body-130.jpg	0.0	99.59872116964289	0.3833107295758964
156.0	78.40499584801182	ISI	1.0		3.0	body	body-130.jpg	0.0	99.98203189921878	0.11666436755331233
156.0	78.47077776345577	pulse	1.0	t		body	body-130.jpg	0.0	100.04781381466273	
157.0	78.52166021556513	body	0.0		46.0	body	body-102.jpg	0.0	100.0986962667721	0.38329654248536826
157.0	78.9049567580505	ISI	1.0		7.0	body	body-102.jpg	0.0	100.48199280925746	0.11670179732300312
158.0	79.0216585553735	body	0.0		46.0	body	body-105.jpg	0.0	100.59869460658047	0.38329141098438413
158.0	79.1050714018138	pulse	0.0	t		body	body-105.jpg	0.0	100.68210745302076	
158.0	79.40494996635789	ISI	1.0		6.0	body	body-105.jpg	0.0	100.98198601756485	0.11668217687929427
159.0	79.52163214323718	body	0.0		46.0	body	body-1.jpg	0.0	101.09866819444414	0.38330378695718537
159.0	79.8050536830433	pulse	0.0	t		body	body-1.jpg	0.0	101.38208973425026	
159.0	79.90493593019437	ISI	1.0		6.0	body	body-1.jpg	0.0	101.48197198140133	0.11669877879285195
160.0	80.02163470898722	body	0.0		46.0	body	body-93.jpg	0.0	101.59867076019418	0.38330318325188273
160.0	80.4049378922391	ISI	1.0		8.0	body	body-93.jpg	0.0	101.98197394344606	0.11667915834914311
161.0	80.52161705058825	body	0.0		45.0	body	body-93.jpg	1.0	102.09865310179521	0.38330891845726
161.0	80.51356361295075	pulse	0.0	t		body	body-93.jpg	1.0	102.09059966415771	
161.0	80.90492596904551	ISI	1.0		6.0	body	body-93.jpg	1.0	102.48196202025247	0.1166719138782355
161.0	80.98003242504728	response	1.0	b		body	body-93.jpg	1.0	102.55706847625424	
162.0	81.02159788292374	body	0.0		46.0	body	body-31.jpg	0.0	102.5986339341307	0.38334574452164816
162.0	81.20519271652847	pulse	0.0	t		body	body-31.jpg	0.0	102.78222876773543	
162.0	81.40494362744539	ISI	1.0		7.0	body	body-31.jpg	0.0	102.98197967865235	0.11667070646581124
163.0	81.5216143339112	body	0.0		46.0	body	body-103.jpg	0.0	103.09865038511816	0.3832690738636302
163.0	81.90488340777483	ISI	1.0		7.0	body	body-103.jpg	0.0	103.48191945898179	0.11668157317308214
163.0	81.9453688356707	pulse	1.0	t		body	body-103.jpg	0.0	103.52240488687767	
164.0	82.02156498094791	body	0.0		46.0	body	body-84.jpg	0.0	103.59860103215487	0.3833218981362734
164.0	82.40488687908419	ISI	1.0		6.0	body	body-84.jpg	0.0	103.98192293029115	0.1166809694677795
165.0	82.52156784855197	body	0.0		46.0	body	body-89.jpg	0.0	104.09860389975893	0.3832880906011269
165.0	82.60499246725794	pulse	0.0	t		body	body-89.jpg	0.0	104.1820285184649	
165.0	82.9048559391531	ISI	1.0		6.0	body	body-89.jpg	0.0	104.48189199036005	0.11669908064686751
166.0	83.02155501979996	body	0.0		46.0	body	body-113.jpg	0.0	104.59859107100692	0.38328477021877916
166.0	83.30495754286767	pulse	0.0	t		body	body-113.jpg	0.0	104.88199359407463	
166.0	83.40483979001874	ISI	1.0		6.0	body	body-113.jpg	0.0	104.9818758412257	0.11671024920633499
167.0	83.52155003922508	body	0.0		46.0	body	body-129.jpg	0.0	105.09858609043204	0.3832950332207474
167.0	83.90484507244582	ISI	1.0		11.0	body	body-129.jpg	0.0	105.48188112365278	0.0999848771652978
168.0	84.00482994961112	baseline	0.0		47.0		baseline	0.0	105.58186600081808	0.40000380334822694
168.0	84.00925903845928	pulse	0.0	t			baseline	0.0	105.58629508966624	
168.0	84.40483375295935	ISI	1.0		11.0		baseline	0.0	105.98186980416631	0.09999483831325051
169.0	84.5048285912726	baseline	0.0		48.0		baseline	0.0	106.08186464247956	0.39998991811080487
169.0	84.7049365942712	pulse	0.0	t			baseline	0.0	106.28197264547816	
169.0	84.9048185093834	ISI	1.0		11.0		baseline	0.0	106.48185456059036	0.10000178093196155
170.0	85.00482029031537	baseline	0.0		48.0		baseline	0.0	106.58185634152233	0.3999721087848229
170.0	85.40479239910019	ISI	1.0		11.0		baseline	0.0	106.98182845030715	0.099990310519388
170.0	85.40955412993662	pulse	1.0	t			baseline	0.0	106.98659018114358	
171.0	85.50478270961958	baseline	0.0		48.0		baseline	0.0	107.08181876082654	0.3999959551692882
171.0	85.90477866478886	ISI	1.0		11.0		baseline	0.0	107.48181471599582	0.0999957438734782
172.0	86.00477440866234	baseline	0.0		48.0		baseline	0.0	107.5818104598693	0.39998448475671466
172.0	86.10488636593436	pulse	0.0	t			baseline	0.0	107.68192241714132	
172.0	86.40475889341906	ISI	1.0		11.0		baseline	0.0	107.98179494462602	0.10000600687362748
173.0	86.50476490029268	baseline	0.0		48.0		baseline	0.0	108.08180095149964	0.3999850884629268
173.0	86.80486713789924	pulse	0.0	t			baseline	0.0	108.3819031891062	
173.0	86.90474998875561	ISI	1.0		11.0		baseline	0.0	108.48178603996257	0.10001325134635408
174.0	87.00476324010197	baseline	0.0		48.0		baseline	0.0	108.58179929130893	0.3999678828422475
174.0	87.40473112294421	ISI	1.0		11.0		baseline	0.0	108.98176717415117	0.10001838284642872
175.0	87.50474950579064	baseline	0.0		47.0		baseline	0.0	109.0817855569976	0.40005753317927883
175.0	87.50914025930979	pulse	0.0	t			baseline	0.0	109.08617631051675	
175.0	87.90480703896992	ISI	1.0		11.0		baseline	0.0	109.48184309017688	0.0999830660475709
176.0	88.00479010501749	baseline	0.0		48.0		baseline	0.0	109.58182615622445	0.39999354034625867
176.0	88.20489659875057	pulse	0.0	t			baseline	0.0	109.78193264995753	
176.0	88.40478364536375	ISI	1.0		11.0		baseline	0.0	109.98181969657071	0.09999393275484181
177.0	88.50477757811859	baseline	0.0		48.0		baseline	0.0	110.08181362932555	0.39998840884527453
177.0	88.90476598696387	ISI	1.0		11.0		baseline	0.0	110.48180203817083	0.09999664943188691
177.0	88.9095455271272	pulse	1.0	t			baseline	0.0	110.48658157833415	
178.0	89.00476263639575	baseline	0.0		48.0		baseline	0.0	110.58179868760271	0.3999832773442904
178.0	89.40474591374004	ISI	1.0		11.0		baseline	0.0	110.981781964947	0.10001777914112608
179.0	89.50476369288117	baseline	0.0		48.0		baseline	0.0	111.08179974408813	0.39999172922853177
179.0	89.60486478344592	pulse	0.0	t			baseline	0.0	111.18190083465288	
179.0	89.9047554221097	ISI	1.0		6.0		baseline	0.0	111.48179147331666	0.11663508781293785
180.0	90.02139050992264	adult	0.0		46.0	face	adult-30.jpg	0.0	111.5984265611296	0.38328567577809736
180.0	90.30478518481323	pulse	0.0	t		face	adult-30.jpg	0.0	111.88182123602019	
180.0	90.40467618570074	ISI	1.0		6.0	face	adult-30.jpg	0.0	111.9817122369077	0.11666044346475246
181.0	90.52133662916549	adult	0.0		46.0	face	adult-15.jpg	0.0	112.09837268037245	0.38330227769165504
181.0	90.90463890685714	ISI	1.0		7.0	face	adult-15.jpg	0.0	112.4816749580641	0.11668579911474808
182.0	91.02132470597189	adult	0.0		45.0	face	adult-141.jpg	0.0	112.59836075717885	0.38330589992801833
182.0	91.01341706332641	pulse	0.0	t		face	adult-141.jpg	0.0	112.59045311453337	
182.0	91.40463060589991	ISI	1.0		7.0	face	adult-141.jpg	0.0	112.98166665710687	0.11670270288232132
183.0	91.52133330878223	adult	0.0		46.0	face	adult-89.jpg	0.0	113.09836935998919	0.3833007684270342
183.0	91.70476212324593	pulse	0.0	t		face	adult-89.jpg	0.0	113.28179817445289	
183.0	91.90463407720927	ISI	1.0		8.0	face	adult-89.jpg	0.0	113.48167012841623	0.11668368614391511
184.0	92.02131776335318	adult	0.0		46.0	face	adult-89.jpg	1.0	113.59835381456014	0.38330197583945846
184.0	92.40461973919264	ISI	1.0		6.0	face	adult-89.jpg	1.0	113.9816557903996	0.11668096946687001
184.0	92.44636238477142	pulse	1.0	t		face	adult-89.jpg	1.0	114.02339843597838	
185.0	92.52130070865951	adult	0.0		46.0	face	adult-139.jpg	0.0	114.09833675986647	0.3832895998666572
185.0	92.77137594551641	response	0.0	b		face	adult-139.jpg	0.0	114.34841199672337	
185.0	92.90459030852617	ISI	1.0		6.0	face	adult-139.jpg	0.0	114.48162635973313	0.11670511770626035
186.0	93.02129542623243	adult	0.0		46.0	face	adult-45.jpg	0.0	114.59833147743939	0.3832760164823412
186.0	93.10471340417371	pulse	0.0	t		face	adult-45.jpg	0.0	114.68174945538067	
186.0	93.40457144271477	ISI	1.0		6.0	face	adult-45.jpg	0.0	114.98160749392173	0.11670330658853345
187.0	93.5212747493033	adult	0.0		46.0	face	adult-119.jpg	0.0	115.09831080051026	0.38328869430733903
187.0	93.80468059275427	pulse	0.0	t		face	adult-119.jpg	0.0	115.38171664396123	
187.0	93.90456344361064	ISI	1.0		7.0	face	adult-119.jpg	0.0	115.4815994948176	0.11670300473542738
188.0	94.02126644834607	adult	0.0		46.0	face	adult-140.jpg	0.0	115.59830249955303	0.3833007684270342
188.0	94.4045672167731	ISI	1.0		6.0	face	adult-140.jpg	0.0	115.98160326798006	0.11667674352520407
189.0	94.5212439602983	adult	0.0		45.0	face	adult-73.jpg	0.0	116.09828001150527	0.3833098240174877
189.0	94.51315037621407	pulse	0.0	t		face	adult-73.jpg	0.0	116.09018642742103	
189.0	94.68799207696247	response	0.0	b		face	adult-73.jpg	0.0	116.26502812816943	
189.0	94.9045537843158	ISI	1.0		6.0	face	adult-73.jpg	0.0	116.48158983552275	0.11668247873149085
190.0	95.02123626304729	adult	0.0		46.0	face	adult-67.jpg	0.0	116.59827231425425	0.38330408881029143
190.0	95.20466869974643	pulse	0.0	t		face	adult-67.jpg	0.0	116.7817047509534	
190.0	95.40454035185758	ISI	1.0		6.0	face	adult-67.jpg	0.0	116.98157640306454	0.11666889534808433
191.0	95.52120924720566	adult	0.0		46.0	face	adult-135.jpg	0.0	117.09824529841262	0.3832871850427182
191.0	95.90449643224838	ISI	1.0		6.0	face	adult-135.jpg	0.0	117.48153248345534	0.11669726952823112
191.0	95.95233288588588	pulse	1.0	t		face	adult-135.jpg	0.0	117.52936893709284	
192.0	96.02119370177661	body	0.0		46.0	body	body-47.jpg	0.0	117.59822975298357	0.3833445371101334
192.0	96.40453823888674	ISI	1.0		6.0	body	body-47.jpg	0.0	117.9815742900937	0.11668157317308214
193.0	96.52121981205983	body	0.0		46.0	body	body-133.jpg	0.0	118.09825586326679	0.38328658133650606
193.0	96.60462269735217	pulse	0.0	t		body	body-133.jpg	0.0	118.18165874855913	
193.0	96.90450639339633	ISI	1.0		5.0	body	body-133.jpg	0.0	118.48154244460329	0.11665953790543426
194.0	97.02116593130177	body	0.0		46.0	body	body-23.jpg	0.0	118.59820198250873	0.3832998628686255
194.0	97.30459018778492	pulse	0.0	t		body	body-23.jpg	0.0	118.88162623899188	
194.0	97.40446579417039	ISI	1.0		5.0	body	body-23.jpg	0.0	118.98150184537735	0.11670481585315429
195.0	97.52117061002355	body	0.0		46.0	body	body-128.jpg	0.0	119.0982066612305	0.38330408880938194
195.0	97.90447469883293	ISI	1.0		5.0	body	body-128.jpg	0.0	119.48151075003989	0.1166655749657366
196.0	98.02114027379866	body	0.0		45.0	body	body-58.jpg	0.0	119.59817632500562	0.38330469251559407
196.0	98.0099964653009	pulse	0.0	t		body	body-58.jpg	0.0	119.58703251650786	
196.0	98.40444496631426	ISI	1.0		5.0	body	body-58.jpg	0.0	119.98148101752122	0.10834831781903631
197.0	98.5127932841333	body	0.0		47.0	body	body-40.jpg	0.0	120.08982933534026	0.3916533423725923
197.0	98.70455022245005	pulse	0.0	t		body	body-40.jpg	0.0	120.28158627365701	
197.0	98.90444662650589	ISI	1.0		4.0	body	body-40.jpg	0.0	120.48148267771285	0.10836159934933676
198.0	99.01280822585522	body	0.0		47.0	body	body-60.jpg	0.0	120.58984427706218	0.39161198851434165
198.0	99.40442021436957	ISI	1.0		4.0	body	body-60.jpg	0.0	120.98145626557653	0.10835043078986928
198.0	99.46594992681548	pulse	1.0	t		body	body-60.jpg	0.0	121.04298597802244	
199.0	99.51277064515943	body	0.0		47.0	body	body-108.jpg	0.0	121.0898066963664	0.39164851272471424
199.0	99.90441915788415	ISI	1.0		5.0	body	body-108.jpg	0.0	121.48145520909111	0.10834077149411314
200.0	100.01275992937826	body	0.0		47.0	body	body-143.jpg	0.0	121.58979598058522	0.39162557189774816
200.0	100.10458270183153	pulse	0.0	t		body	body-143.jpg	0.0	121.68161875303849	
200.0	100.40438550127601	ISI	1.0		5.0	body	body-143.jpg	0.0	121.98142155248297	0.10835375117221702
201.0	100.51273925244823	body	0.0		47.0	body	body-6.jpg	0.0	122.08977530365519	0.3916515312548654
201.0	100.80450370690505	pulse	0.0	t		body	body-6.jpg	0.0	122.38153975811201	
201.0	100.90439078370309	ISI	1.0		6.0	body	body-6.jpg	0.0	122.48142683491005	0.10834107334721921
202.0	101.01273185705031	body	0.0		47.0	body	body-6.jpg	1.0	122.58976790825727	0.3916343256350956
202.0	101.32115316292038	response	0.0	b		body	body-6.jpg	1.0	122.89818921412734	
202.0	101.40436618268541	ISI	1.0		6.0	body	body-6.jpg	1.0	122.98140223389237	0.108322056608813
203.0	101.51268823929422	body	0.0		46.0	body	body-120.jpg	0.0	123.08972429050118	0.3916789998766035
203.0	101.50798597349512	pulse	0.0	t		body	body-120.jpg	0.0	123.08502202470208	
203.0	101.90436723917082	ISI	1.0		5.0	body	body-120.jpg	0.0	123.48140329037778	0.11666798978876614
204.0	102.02103522895959	body	0.0		46.0	body	body-28.jpg	0.0	123.59807128016655	0.38330831475195737
204.0	102.20447370271813	pulse	0.0	t		body	body-28.jpg	0.0	123.78150975392509	
204.0	102.40434354371155	ISI	1.0		5.0	body	body-28.jpg	0.0	123.98137959491851	0.11670179732300312
205.0	102.52104534103455	body	0.0		46.0	body	body-18.jpg	0.0	124.09808139224151	0.3833119369874112
205.0	102.90435727802196	ISI	1.0		7.0	body	body-18.jpg	0.0	124.48139332922892	0.11668579911565757
205.0	102.94336573926284	pulse	1.0	t		body	body-18.jpg	0.0	124.5204017904698	
206.0	103.02104307713762	body	0.0		46.0	body	body-44.jpg	0.0	124.59807912834458	0.3832826572479462
206.0	103.40432573438557	ISI	1.0		6.0	body	body-44.jpg	0.0	124.98136178559253	0.1166701027595991
207.0	103.52099583714516	body	0.0		46.0	body	body-109.jpg	0.0	125.09803188835212	0.38330046657392813
207.0	103.6044805245956	pulse	0.0	t		body	body-109.jpg	0.0	125.18151657580256	
207.0	103.9042963037191	ISI	1.0		7.0	body	body-109.jpg	0.0	125.48133235492605	0.11670119361770048
208.0	104.0209974973368	body	0.0		46.0	body	body-116.jpg	0.0	125.59803354854375	0.38328205354173406
208.0	104.30439760558056	pulse	0.0	t		body	body-116.jpg	0.0	125.88143365678752	
208.0	104.40427955087853	ISI	1.0		5.0	body	body-116.jpg	0.0	125.98131560208549	0.11668972320421744
209.0	104.52096927408274	body	0.0		46.0	body	body-90.jpg	0.0	126.0980053252897	0.3833191814592283
209.0	104.90428845554197	ISI	1.0		6.0	body	body-90.jpg	0.0	126.48132450674893	0.11668278058459691
210.0	105.02097123612657	body	0.0		45.0	body	body-83.jpg	0.0	126.59800728733353	0.3833034851040793
210.0	105.01285320195075	pulse	0.0	t		body	body-83.jpg	0.0	126.58988925315771	
210.0	105.40427472123065	ISI	1.0		6.0	body	body-83.jpg	0.0	126.98131077243761	0.11668066761467344
211.0	105.52095538884532	body	0.0		46.0	body	body-59.jpg	0.0	127.09799144005228	0.38330408880938194
211.0	105.70439144777993	pulse	0.0	t		body	body-59.jpg	0.0	127.28142749898689	
211.0	105.9042594776547	ISI	1.0		6.0	body	body-59.jpg	0.0	127.48129552886166	0.11667493240838667
212.0	106.02093441006309	body	0.0		46.0	body	body-19.jpg	0.0	127.59797046127005	0.38331223884051724
212.0	106.40424664890361	ISI	1.0		5.0	body	body-19.jpg	0.0	127.98128270011057	0.11666617867103923
212.0	106.4587715609814	pulse	1.0	t		body	body-19.jpg	0.0	128.03580761218836	
213.0	106.52091282757465	body	0.0		46.0	body	body-141.jpg	0.0	128.0979488787816	0.38332129443006124
213.0	106.90423412200471	ISI	1.0		7.0	body	body-141.jpg	0.0	128.48127017321167	0.11667764908452227
214.0	107.02091177108923	body	0.0		46.0	body	body-141.jpg	1.0	128.5979478222962	0.38331012586968427
214.0	107.1043864973908	pulse	0.0	t		body	body-141.jpg	1.0	128.68142254859777	
214.0	107.35433344672947	response	0.0	b		body	body-141.jpg	1.0	128.93136949793643	
214.0	107.40422189695892	ISI	1.0		5.0	body	body-141.jpg	1.0	128.98125794816588	0.116667386082554
215.0	107.52088928304147	body	0.0		46.0	body	body-35.jpg	0.0	129.09792533424843	0.38330469251559407
215.0	107.8043177654663	pulse	0.0	t		body	body-35.jpg	0.0	129.38135381667325	
215.0	107.90419397555706	ISI	1.0		5.0	body	body-35.jpg	0.0	129.48123002676402	0.11669877879376145
216.0	108.02089275435083	house	0.0		46.0	place	house-41.jpg	0.0	129.59792880555779	0.3832832609541583
216.0	108.40417601530498	ISI	1.0		5.0	place	house-41.jpg	0.0	129.98121206651194	0.11671628626663733
217.0	108.52089230157162	house	0.0		45.0	place	house-3.jpg	0.0	130.09792835277858	0.3832732998052961
217.0	108.51099665516631	pulse	0.0	t		place	house-3.jpg	0.0	130.08803270637327	
217.0	108.90416560137692	ISI	1.0		6.0	place	house-3.jpg	0.0	130.48120165258388	0.11669545841050422
218.0	109.02086105978742	house	0.0		46.0	place	house-106.jpg	0.0	130.59789711099438	0.3833388019029371
218.0	109.20431522990111	pulse	0.0	t		place	house-106.jpg	0.0	130.78135128110807	
218.0	109.40419986169036	ISI	1.0		7.0	place	house-106.jpg	0.0	130.98123591289732	0.11668640282096021
219.0	109.52088626451132	house	0.0		46.0	place	house-57.jpg	0.0	131.09792231571828	0.3832672627459033
219.0	109.90415352725722	ISI	1.0		6.0	place	house-57.jpg	0.0	131.48118957846418	0.1166691972011904
219.0	109.94650289733545	pulse	1.0	t		place	house-57.jpg	0.0	131.5235389485424	
220.0	110.02082272445841	house	0.0		46.0	place	house-44.jpg	0.0	131.59785877566537	0.3833188796061222
220.0	110.40414160406453	ISI	1.0		6.0	place	house-44.jpg	0.0	131.9811776552715	0.11668217687929427
221.0	110.52082378094383	house	0.0		46.0	place	house-42.jpg	0.0	132.0978598321508	0.3832880906020364
221.0	110.59623661772457	pulse	0.0	t		place	house-42.jpg	0.0	132.17327266893153	
221.0	110.90411187154587	ISI	1.0		7.0	place	house-42.jpg	0.0	132.48114792275283	0.11669817508663982
222.0	111.0208100466325	house	0.0		46.0	place	house-138.jpg	0.0	132.59784609783947	0.38330469251650356
222.0	111.30423068088021	pulse	0.0	t		place	house-138.jpg	0.0	132.88126673208717	
222.0	111.40411473914901	ISI	1.0		6.0	place	house-138.jpg	0.0	132.98115079035597	0.11666708422944794
223.0	111.52078182337846	house	0.0		46.0	place	house-94.jpg	0.0	133.09781787458542	0.3833089184581695
223.0	111.90409074183663	ISI	1.0		6.0	place	house-94.jpg	0.0	133.4811267930436	0.11670028805838228
224.0	112.02079102989501	house	0.0		45.0	place	house-38.jpg	0.0	133.59782708110197	0.3832745072177204
224.0	112.01102367100884	pulse	0.0	t		place	house-38.jpg	0.0	133.5880597222158	
224.0	112.40406553711273	ISI	1.0		6.0	place	house-38.jpg	0.0	133.9811015883197	0.11670451400004822
225.0	112.52077005111278	house	0.0		46.0	place	house-13.jpg	0.0	134.09780610231974	0.383284166512567
225.0	112.70418528219125	pulse	0.0	t		place	house-13.jpg	0.0	134.2812213333982	
225.0	112.90405421762534	ISI	1.0		7.0	place	house-13.jpg	0.0	134.4810902688323	0.11668308243861247
226.0	113.02073730006396	house	0.0		46.0	place	house-108.jpg	0.0	134.59777335127092	0.3833273314894541
226.0	113.40406463155341	ISI	1.0		7.0	place	house-108.jpg	0.0	134.98110068276037	0.11668066761376394
226.0	113.44457903733655	pulse	1.0	t		place	house-108.jpg	0.0	135.0216150885435	
227.0	113.52074529916717	house	0.0		46.0	place	house-62.jpg	0.0	135.09778135037413	0.3832877887489303
227.0	113.9040330879161	ISI	1.0		6.0	place	house-62.jpg	0.0	135.48106913912306	0.11668066761467344
228.0	114.02071375553078	word	0.0		46.0	character	word-20.jpg	0.0	135.59774980673774	0.38329925916241336
228.0	114.10415678726986	pulse	0.0	t		character	word-20.jpg	0.0	135.68119283847682	
228.0	114.40401301469319	ISI	1.0		6.0	character	word-20.jpg	0.0	135.98104906590015	0.11670602326466906
229.0	114.52071903795786	word	0.0		46.0	character	word-54.jpg	0.0	136.09775508916482	0.38330227769256453
229.0	114.80413393699837	pulse	0.0	t		character	word-54.jpg	0.0	136.38116998820533	
229.0	114.90402131565043	ISI	1.0		6.0	character	word-54.jpg	0.0	136.48105736685739	0.11666587681793317
230.0	115.02068719246836	word	0.0		46.0	character	word-85.jpg	0.0	136.59772324367532	0.38330589992710884
230.0	115.40399309239547	ISI	1.0		6.0	character	word-85.jpg	0.0	136.98102914360243	0.11667976205535524
231.0	115.52067285445082	word	0.0		45.0	character	word-49.jpg	0.0	137.09770890565778	0.38334031116846745
231.0	115.51150859782956	pulse	0.0	t		character	word-49.jpg	0.0	137.08854464903652	
231.0	115.90401316561929	ISI	1.0		7.0	character	word-49.jpg	0.0	137.48104921682625	0.1166809694677795
232.0	116.02069413508707	word	0.0		46.0	character	word-23.jpg	0.0	137.59773018629403	0.3832980517499891
232.0	116.20412596808	pulse	0.0	t		character	word-23.jpg	0.0	137.78116201928697	
232.0	116.40399218683706	ISI	1.0		6.0	character	word-23.jpg	0.0	137.98102823804402	0.1167156825604252
233.0	116.52070786939748	word	0.0		46.0	character	word-90.jpg	0.0	138.09774392060444	0.3833052962218062
233.0	116.90401316561929	ISI	1.0		6.0	character	word-90.jpg	0.0	138.48104921682625	0.11665440640445013
233.0	116.9476565794439	pulse	1.0	t		character	word-90.jpg	0.0	138.52469263065086	
234.0	117.02066757202374	word	0.0		46.0	character	word-74.jpg	0.0	138.5977036232307	0.38330378695718537
234.0	117.40397135898093	ISI	1.0		6.0	character	word-74.jpg	0.0	138.98100741018789	0.11668911949800531
235.0	117.52066047847893	word	0.0		46.0	character	word-31.jpg	0.0	139.0976965296859	0.3833125406936233
235.0	117.5959863816006	pulse	0.0	t		character	word-31.jpg	0.0	139.17302243280756	
235.0	117.90397301917255	ISI	1.0		6.0	character	word-31.jpg	0.0	139.4810090703795	0.11669394914588338
236.0	118.02066696831844	word	0.0		46.0	character	word-75.jpg	0.0	139.5977030195254	0.3832926183958989
236.0	118.30407613215175	pulse	0.0	t		character	word-75.jpg	0.0	139.8811121833587	
236.0	118.40395958671434	ISI	1.0		6.0	character	word-75.jpg	0.0	139.9809956379213	0.11668519540944544
237.0	118.52064478212378	word	0.0		46.0	character	word-112.jpg	0.0	140.09768083333074	0.3833025795447611
237.0	118.90394736166854	ISI	1.0		7.0	character	word-112.jpg	0.0	140.4809834128755	0.11668066761467344
238.0	119.02062802928322	word	0.0		45.0	character	word-141.jpg	0.0	140.59766408049018	0.38330680548642704
238.0	119.01107679713459	pulse	0.0	t		character	word-141.jpg	0.0	140.58811284834155	
238.0	119.40393483476964	ISI	1.0		7.0	character	word-141.jpg	0.0	140.9809708859766	0.11668579911474808
239.0	119.52062063388439	word	0.0		46.0	character	word-109.jpg	0.0	141.09765668509135	0.38330016472173156
239.0	119.69593231973067	pulse	0.0	t		character	word-109.jpg	0.0	141.27296837093763	
239.0	119.90392079860612	ISI	1.0		11.0	character	word-109.jpg	0.0	141.48095684981308	0.10003196623074473
240.0	120.00395276483687	baseline	0.0		48.0		baseline	0.0	141.58098881604383	0.3999905218161075
240.0	120.40394328665298	ISI	1.0		11.0		baseline	0.0	141.98097933785994	0.09999695128499297
240.0	120.3959164120788	pulse	1.0	t			baseline	0.0	141.97295246328576	
241.0	120.50394023793797	baseline	0.0		48.0		baseline	0.0	142.08097628914493	0.39998810699307796
241.0	120.90392834493105	ISI	1.0		11.0		baseline	0.0	142.480964396138	0.09999695128408348
242.0	121.00392529621513	baseline	0.0		48.0		baseline	0.0	142.5809613474221	0.39999021996391093
242.0	121.1040336312517	pulse	0.0	t			baseline	0.0	142.68106968245866	
242.0	121.40391551617904	ISI	1.0		11.0		baseline	0.0	142.980951567386	0.10001083652150555
243.0	121.50392635270055	baseline	0.0		48.0		baseline	0.0	143.0809624039075	0.39997814584421576
243.0	121.80400655503945	pulse	0.0	t			baseline	0.0	143.3810426062464	
243.0	121.90390449854476	ISI	1.0		11.0		baseline	0.0	143.48094054975172	0.0999821604882527
244.0	122.00388665903301	baseline	0.0		48.0		baseline	0.0	143.58092271023997	0.3999796551088366
244.0	122.40386631414185	ISI	1.0		11.0		baseline	0.0	143.9809023653488	0.10000993096400634
245.0	122.50387624510586	baseline	0.0		47.0		baseline	0.0	144.08091229631282	0.39998448475580517
245.0	122.49618533290231	pulse	0.0	t			baseline	0.0	144.07322138410927	
245.0	122.90386072986166	ISI	1.0		11.0		baseline	0.0	144.48089678106862	0.09999725313809904
246.0	123.00385798299976	baseline	0.0		48.0		baseline	0.0	144.58089403420672	0.39998206993277563
246.0	123.19590952983071	pulse	0.0	t			baseline	0.0	144.77294558103767	
246.0	123.40384005293254	ISI	1.0		11.0		baseline	0.0	144.9808761041395	0.10002140137657989
247.0	123.50386145430912	baseline	0.0		48.0		baseline	0.0	145.08089750551608	0.3999878051390624
247.0	123.90384925944818	ISI	1.0		11.0		baseline	0.0	145.48088531065514	0.09998366975378303
247.0	123.89581514040219	pulse	1.0	t			baseline	0.0	145.47285119160915	
248.0	124.00383292920196	baseline	0.0		48.0		baseline	0.0	145.58086898040892	0.39998206993277563
248.0	124.40381499913474	ISI	1.0		11.0		baseline	0.0	145.9808510503417	0.10002049581817118
249.0	124.50383549495291	baseline	0.0		48.0		baseline	0.0	146.08087154615987	0.39997180693080736
249.0	124.59588435529167	pulse	0.0	t			baseline	0.0	146.17292040649863	
249.0	124.90380730188372	ISI	1.0		11.0		baseline	0.0	146.48084335309068	0.10002924955460912
250.0	125.00383655143833	baseline	0.0		48.0		baseline	0.0	146.5808726026453	0.3999733161954282
250.0	125.29585244943064	pulse	0.0	t			baseline	0.0	146.8728885006376	
250.0	125.40380986763375	ISI	1.0		11.0		baseline	0.0	146.9808459188407	0.09999514016726607
251.0	125.50380500780102	baseline	0.0		48.0		baseline	0.0	147.08084105900798	0.3999760328733828
251.0	125.9037810406744	ISI	1.0		11.0		baseline	0.0	147.48081709188136	0.09999785684340168
252.0	126.0037788975178	baseline	0.0		47.0		baseline	0.0	147.58081494872476	0.40000470890663564
252.0	125.99591291058368	pulse	0.0	t			baseline	0.0	147.57294896179064	
252.0	126.40378360642444	ISI	1.0		11.0		baseline	0.0	147.9808196576314	0.09999785684340168
253.0	126.50378146326784	baseline	0.0		48.0		baseline	0.0	148.0808175144748	0.39998991811080487
253.0	126.69574637829191	pulse	0.0	t			baseline	0.0	148.27278242949887	
253.0	126.90377138137865	ISI	1.0		11.0		baseline	0.0	148.4808074325856	0.0999803493705258
254.0	127.00375173074917	baseline	0.0		48.0		baseline	0.0	148.58078778195613	0.3999905218161075
254.0	127.40374225256528	ISI	1.0		11.0		baseline	0.0	148.98077830377224	0.09998970681317587
254.0	127.39581076353352	pulse	1.0	t			baseline	0.0	148.97284681474048	
255.0	127.50373195937846	baseline	0.0		48.0		baseline	0.0	149.08076801058542	0.39999655887640984
255.0	127.90372851825487	ISI	1.0		11.0		baseline	0.0	149.48076456946183	0.09999725313718955
256.0	128.00372577139206	baseline	0.0		48.0		baseline	0.0	149.58076182259902	0.40000470890663564
256.0	128.09576436872976	pulse	0.0	t			baseline	0.0	149.67280041993672	
256.0	128.4037304802987	ISI	1.0		11.0		baseline	0.0	149.98076653150565	0.09999876240271988
257.0	128.5037292427014	baseline	0.0		48.0		baseline	0.0	150.08076529390837	0.39997361804944376
257.0	128.79576506299145	pulse	0.0	t			baseline	0.0	150.3728011141984	
257.0	128.90370286075085	ISI	1.0		11.0		baseline	0.0	150.48073891195781	0.09999544202037214
258.0	129.00369830277123	baseline	0.0		48.0		baseline	0.0	150.5807343539782	0.39998991810989537
258.0	129.40368822088112	ISI	1.0		11.0		baseline	0.0	150.98072427208808	0.09999061237249407
259.0	129.50367883325362	baseline	0.0		47.0		baseline	0.0	151.08071488446058	0.40000923670140764
259.0	129.4957512683104	pulse	0.0	t			baseline	0.0	151.07278731951737	
259.0	129.90368806995502	ISI	1.0		11.0		baseline	0.0	151.48072412116198	0.0999794438112076
260.0	130.00366751376623	baseline	0.0		48.0		baseline	0.0	151.5807035649732	0.39998659772754763
260.0	130.19565355849954	pulse	0.0	t			baseline	0.0	151.7726896097065	
260.0	130.40365411149378	ISI	1.0		11.0		baseline	0.0	151.98069016270074	0.10000479946211271
261.0	130.5036589109559	baseline	0.0		48.0		baseline	0.0	152.08069496216285	0.3999941440524708
261.0	130.90365305500836	ISI	1.0		11.0		baseline	0.0	152.48068910621532	0.09999393275484181
261.0	130.89564127308313	pulse	1.0	t			baseline	0.0	152.4726773242901	
262.0	131.0036469877632	baseline	0.0		48.0		baseline	0.0	152.58068303897016	0.39999112552231963
262.0	131.40363811328552	ISI	1.0		11.0		baseline	0.0	152.98067416449248	0.09999544202037214
263.0	131.5036335553059	baseline	0.0		48.0		baseline	0.0	153.08066960651286	0.39998840884527453
263.0	131.59570143238216	pulse	0.0	t			baseline	0.0	153.17273748358912	
263.0	131.90362196415117	ISI	1.0		5.0		baseline	0.0	153.48065801535813	0.11664746378573909
264.0	132.0202694279369	word	0.0		46.0	character	word-104.jpg	0.0	153.59730547914387	0.38329744804468646
264.0	132.30368764736068	pulse	0.0	t		character	word-104.jpg	0.0	153.88072369856764	
264.0	132.4035668759816	ISI	1.0		7.0	character	word-104.jpg	0.0	153.98060292718856	0.11670964550012286
265.0	132.52027652148172	word	0.0		46.0	character	word-28.jpg	0.0	154.09731257268868	0.3832841665134765
265.0	132.9035606879952	ISI	1.0		7.0	character	word-28.jpg	0.0	154.48059673920216	0.11669304358656518
266.0	133.02025373158176	word	0.0		45.0	character	word-47.jpg	0.0	154.59728978278872	0.38330680548642704
266.0	133.0105238024662	pulse	0.0	t		character	word-47.jpg	0.0	154.58755985367316	
266.0	133.4035605370682	ISI	1.0		7.0	character	word-47.jpg	0.0	154.98059658827515	0.11668459170323331
267.0	133.52024512877142	word	0.0		46.0	character	word-86.jpg	0.0	155.09728117997838	0.38330197583945846
267.0	133.70366518949868	pulse	0.0	t		character	word-86.jpg	0.0	155.28070124070564	
267.0	133.90354710461088	ISI	1.0		6.0	character	word-86.jpg	0.0	155.48058315581784	0.11668308243770298
268.0	134.02023018704858	word	0.0		46.0	character	word-92.jpg	0.0	155.59726623825554	0.3832899017197633
268.0	134.40352008876835	ISI	1.0		6.0	character	word-92.jpg	0.0	155.9805561399753	0.11670179732300312
268.0	134.44762141357114	pulse	1.0	t		character	word-92.jpg	0.0	156.0246574647781	
269.0	134.52022188609135	word	0.0		46.0	character	word-139.jpg	0.0	156.0972579372983	0.3832651497750703
269.0	134.90348703586642	ISI	1.0		6.0	character	word-139.jpg	0.0	156.48052308707338	0.11668549726255151
270.0	135.02017253312897	word	0.0		46.0	character	word-26.jpg	0.0	156.59720858433593	0.38330227769165504
270.0	135.10359232218798	pulse	0.0	t		character	word-26.jpg	0.0	156.68062837339494	
270.0	135.40347481082063	ISI	1.0		7.0	character	word-26.jpg	0.0	156.9805108620276	0.1166800639084613
271.0	135.5201548747291	word	0.0		46.0	character	word-140.jpg	0.0	157.09719092593605	0.38330650363423047
271.0	135.80357520712369	pulse	0.0	t		character	word-140.jpg	0.0	157.38061125833065	
271.0	135.90346137836332	ISI	1.0		7.0	character	word-140.jpg	0.0	157.48049742957028	0.11668459170232381
272.0	136.02014597006564	word	0.0		46.0	character	word-119.jpg	0.0	157.5971820212726	0.3833025795456706
272.0	136.4034485496113	ISI	1.0		7.0	character	word-119.jpg	0.0	157.98048460081827	0.11667795093762834
273.0	136.52012650054894	word	0.0		45.0	character	word-123.jpg	0.0	158.0971625517559	0.38331012586968427
273.0	136.51034978422013	pulse	0.0	t		character	word-123.jpg	0.0	158.08738583542709	
273.0	136.90343662641862	ISI	1.0		7.0	character	word-123.jpg	0.0	158.48047267762558	0.11667885649603704
274.0	137.02011548291466	word	0.0		46.0	character	word-97.jpg	0.0	158.59715153412162	0.3833071073395331
274.0	137.20353644920033	pulse	0.0	t		character	word-97.jpg	0.0	158.7805725004073	
274.0	137.4034225902542	ISI	1.0		7.0	character	word-97.jpg	0.0	158.98045864146115	0.11668278058550641
275.0	137.5201053708397	word	0.0		46.0	character	word-134.jpg	0.0	159.09714142204666	0.3832905054259754
275.0	137.90339587626568	ISI	1.0		6.0	character	word-134.jpg	0.0	159.48043192747264	0.11669787323444325
275.0	137.94894790651324	pulse	1.0	t		character	word-134.jpg	0.0	159.5259839577202	
276.0	138.02009374950012	house	0.0		46.0	place	house-113.jpg	0.0	159.59712980070708	0.38330318325097323
276.0	138.4033969327511	ISI	1.0		6.0	place	house-113.jpg	0.0	159.98043298395805	0.11668247873149085
277.0	138.52007941148258	house	0.0		46.0	place	house-91.jpg	0.0	160.09711546268954	0.38330288139877666
277.0	138.6034985968363	pulse	0.0	t		place	house-91.jpg	0.0	160.18053464804325	
277.0	138.90338229288136	ISI	1.0		6.0	place	house-91.jpg	0.0	160.48041834408832	0.11667855464293098
278.0	139.0200608475243	house	0.0		46.0	place	house-26.jpg	0.0	160.59709689873125	0.3833080128988513
278.0	139.3034817836251	pulse	0.0	t		place	house-26.jpg	0.0	160.88051783483206	
278.0	139.40336886042314	ISI	1.0		6.0	place	house-26.jpg	0.0	160.9804049116301	0.11669334543967125
279.0	139.5200622058628	house	0.0		46.0	place	house-142.jpg	0.0	161.09709825706977	0.38329593877915613
279.0	139.90335814464197	ISI	1.0		6.0	place	house-142.jpg	0.0	161.48039419584893	0.1166619527293733
280.0	140.02002009737134	house	0.0		45.0	place	house-89.jpg	0.0	161.5970561485783	0.3833234074008942
280.0	140.01053949882134	pulse	0.0	t		place	house-89.jpg	0.0	161.5875755500283	
280.0	140.40334350477224	ISI	1.0		6.0	place	house-89.jpg	0.0	161.9803795559792	0.11668761023338448
281.0	140.52003111500562	house	0.0		46.0	place	house-74.jpg	0.0	162.09706716621258	0.3833300481664992
281.0	140.6952803172835	pulse	0.0	t		place	house-74.jpg	0.0	162.27231636849046	
281.0	140.90336116317212	ISI	1.0		6.0	place	house-74.jpg	0.0	162.48039721437908	0.11669093061573221
282.0	141.02005209378785	house	0.0		46.0	place	house-103.jpg	0.0	162.5970881449948	0.38328748689582426
282.0	141.40333958068368	ISI	1.0		7.0	place	house-103.jpg	0.0	162.98037563189064	0.116662858287782
282.0	141.44199970358022	pulse	1.0	t		place	house-103.jpg	0.0	163.01903575478718	
283.0	141.52000243897146	house	0.0		46.0	place	house-21.jpg	0.0	163.09703849017842	0.38331948331233434
283.0	141.9033219222838	ISI	1.0		6.0	place	house-21.jpg	0.0	163.48035797349075	0.11669153432194435
284.0	142.02001345660574	house	0.0		46.0	place	house-1.jpg	0.0	163.5970495078127	0.38330771104574524
284.0	142.09528019654226	pulse	0.0	t		place	house-1.jpg	0.0	163.67231624774922	
284.0	142.40332116765148	ISI	1.0		6.0	place	house-1.jpg	0.0	163.98035721885844	0.11669425099898945
285.0	142.52001541865047	house	0.0		46.0	place	house-134.jpg	0.0	164.09705146985743	0.3832736016584022
285.0	142.79532284836932	pulse	0.0	t		place	house-134.jpg	0.0	164.37235889957628	
285.0	142.90328902030888	ISI	1.0		7.0	place	house-134.jpg	0.0	164.48032507151584	0.11670330658762396
286.0	143.0199923268965	house	0.0		46.0	place	house-134.jpg	1.0	164.59702837810346	0.38328205354264355
286.0	143.40327438043914	ISI	1.0		7.0	place	house-134.jpg	1.0	164.9803104316461	0.12502478967599018
286.0	143.47845660153962	response	1.0	b		place	house-134.jpg	1.0	165.05549265274658	
286.0	143.49514243084013	pulse	1.0	t		place	house-134.jpg	1.0	165.0721784820471	
287.0	143.52829917011513	house	0.0		45.0	place	house-40.jpg	0.0	165.1053352213221	0.37498139830950095
287.0	143.90328056842463	ISI	1.0		11.0	place	house-40.jpg	0.0	165.4803166196316	0.10005792558786197
288.0	144.0033384940125	baseline	0.0		48.0		baseline	0.0	165.58037454521946	0.39996456245989975
288.0	144.1952798645034	pulse	0.0	t			baseline	0.0	165.77231591571035	
288.0	144.4033030564724	ISI	1.0		11.0		baseline	0.0	165.98033910767936	0.0999975549912051
289.0	144.5033006114636	baseline	0.0		48.0		baseline	0.0	166.08033666267056	0.3999905218161075
289.0	144.9032911332797	ISI	1.0		11.0		baseline	0.0	166.48032718448667	0.09999906425582594
289.0	144.89535119236461	pulse	1.0	t			baseline	0.0	166.47238724357157	
290.0	145.00329019753553	baseline	0.0		48.0		baseline	0.0	166.5803262487425	0.39998659772754763
290.0	145.40327679526308	ISI	1.0		11.0		baseline	0.0	166.98031284647004	0.09999755499029561
291.0	145.50327435025338	baseline	0.0		48.0		baseline	0.0	167.08031040146034	0.3999914273754257
291.0	145.59526042517155	pulse	0.0	t			baseline	0.0	167.1722964763785	
291.0	145.9032657776288	ISI	1.0		11.0		baseline	0.0	167.48030182883576	0.0999930271964331
292.0	146.00325880482524	baseline	0.0		48.0		baseline	0.0	167.5802948560322	0.3999923329338344
292.0	146.29522610448748	pulse	0.0	t			baseline	0.0	167.87226215569444	
292.0	146.40325113775907	ISI	1.0		11.0		baseline	0.0	167.98028718896603	0.09999514016726607
293.0	146.50324627792634	baseline	0.0		48.0		baseline	0.0	168.0802823291333	0.3999850884620173
293.0	146.90323136638835	ISI	1.0		11.0		baseline	0.0	168.48026741759531	0.10000510131521878
294.0	147.00323646770357	baseline	0.0		47.0		baseline	0.0	168.58027251891053	0.3999615439297486
294.0	146.99528294340416	pulse	0.0	t			baseline	0.0	168.57231899461112	
294.0	147.40319801163332	ISI	1.0		11.0		baseline	0.0	168.98023406284028	0.10001838284733822
295.0	147.50321639448066	baseline	0.0		48.0		baseline	0.0	169.08025244568762	0.3999850884620173
295.0	147.69519549659435	pulse	0.0	t			baseline	0.0	169.2722315478013	
295.0	147.90320148294268	ISI	1.0		11.0		baseline	0.0	169.48023753414964	0.10000872355158208
296.0	148.00321020649426	baseline	0.0		48.0		baseline	0.0	169.58024625770122	0.39998629587444157
296.0	148.4031965023687	ISI	1.0		11.0		baseline	0.0	169.98023255357566	0.09998608457772207
296.0	148.39517355188218	pulse	1.0	t			baseline	0.0	169.97220960308914	
297.0	148.50318258694642	baseline	0.0		48.0		baseline	0.0	170.08021863815338	0.4000025959348932
297.0	148.90318518288132	ISI	1.0		11.0		baseline	0.0	170.48022123408828	0.09998246234226826
298.0	149.00316764522358	baseline	0.0		48.0		baseline	0.0	170.58020369643054	0.3999896162567893
298.0	149.0950118492383	pulse	0.0	t			baseline	0.0	170.67204790044525	
298.0	149.40315726148037	ISI	1.0		11.0		baseline	0.0	170.98019331268733	0.0999894049600698
299.0	149.50314666644044	baseline	0.0		48.0		baseline	0.0	171.0801827176474	0.40001014226072584
299.0	149.79513026616496	pulse	0.0	t			baseline	0.0	171.37216631737192	
299.0	149.90315680870117	ISI	1.0		7.0		baseline	0.0	171.48019285990813	0.1166655749648271
300.0	150.019822383666	house	0.0		46.0	place	house-9.jpg	0.0	171.59685843487296	0.3832871850427182
300.0	150.40310956870871	ISI	1.0		7.0	place	house-9.jpg	0.0	171.98014561991567	0.1166791583500526
301.0	150.51978872705877	house	0.0		45.0	place	house-9.jpg	1.0	172.09682477826573	0.38330589992710884
301.0	150.51008204062236	pulse	0.0	t		place	house-9.jpg	1.0	172.08711809182932	
301.0	150.90309462698588	ISI	1.0		6.0	place	house-9.jpg	1.0	172.48013067819284	0.11668761023338448
302.0	151.01978223721926	house	0.0		46.0	place	house-137.jpg	0.0	172.59681828842622	0.38329865545620123
302.0	151.14486951046365	response	0.0	b		place	house-137.jpg	0.0	172.7219055616706	
302.0	151.19497680410677	pulse	0.0	t		place	house-137.jpg	0.0	172.77201285531373	
302.0	151.40308089267546	ISI	1.0		7.0	place	house-137.jpg	0.0	172.98011694388242	0.11668579911474808
303.0	151.5197666917902	house	0.0		46.0	place	house-34.jpg	0.0	173.09680274299717	0.38330288139877666
303.0	151.903069573189	ISI	1.0		6.0	place	house-34.jpg	0.0	173.48010562439595	0.11668368614391511
303.0	151.9488123745232	pulse	1.0	t		place	house-34.jpg	0.0	173.52584842573015	
304.0	152.0197532593329	house	0.0		46.0	place	house-66.jpg	0.0	173.59678931053986	0.38330016472082207
304.0	152.40305342405372	ISI	1.0		7.0	place	house-66.jpg	0.0	173.98008947526068	0.11668761023338448
305.0	152.5197410342871	house	0.0		46.0	place	house-104.jpg	0.0	174.09677708549407	0.3832835628063549
305.0	152.59496370368743	pulse	0.0	t		place	house-104.jpg	0.0	174.1719997548944	
305.0	152.90302459709346	ISI	1.0		6.0	place	house-104.jpg	0.0	174.48006064830042	0.11668036576156737
306.0	153.01970496285503	house	0.0		46.0	place	house-118.jpg	0.0	174.596741014062	0.3833237092540003
306.0	153.2949502108586	pulse	0.0	t		place	house-118.jpg	0.0	174.87198626206555	
306.0	153.40302867210903	ISI	1.0		6.0	place	house-118.jpg	0.0	174.980064723316	0.11667312128975027
307.0	153.51970179339878	house	0.0		46.0	place	house-132.jpg	0.0	175.09673784460574	0.3833137481051381
307.0	153.90301554150392	ISI	1.0		7.0	place	house-132.jpg	0.0	175.48005159271088	0.11668127132088557
308.0	154.0196968128248	house	0.0		45.0	place	house-60.jpg	0.0	175.59673286403176	0.38330469251559407
308.0	154.00992945393864	pulse	0.0	t		place	house-60.jpg	0.0	175.5869655051456	
308.0	154.4030015053404	ISI	1.0		5.0	place	house-60.jpg	0.0	175.98003755654736	0.11668821393868711
309.0	154.51968971927909	house	0.0		46.0	place	house-95.jpg	0.0	176.09672577048605	0.38329956101551943
309.0	154.69491266034765	pulse	0.0	t		place	house-95.jpg	0.0	176.27194871155461	
309.0	154.9029892802946	ISI	1.0		6.0	place	house-95.jpg	0.0	176.48002533150157	0.11668610096785414
310.0	155.01967538126246	house	0.0		46.0	place	house-122.jpg	0.0	176.59671143246942	0.3833007684270342
310.0	155.4029761496895	ISI	1.0		7.0	place	house-122.jpg	0.0	176.98001220089645	0.11668610096785414
310.0	155.43927216000793	pulse	1.0	t		place	house-122.jpg	0.0	177.0163082112149	
311.0	155.51966225065735	house	0.0		46.0	place	house-82.jpg	0.0	177.0966983018643	0.38328477021968865
311.0	155.90294702087704	ISI	1.0		6.0	place	house-82.jpg	0.0	177.479983072084	0.11669938249906409
312.0	156.0196464033761	house	0.0		46.0	place	house-55.jpg	0.0	177.59668245458306	0.3832823553948401
312.0	156.09479994844332	pulse	0.0	t		place	house-55.jpg	0.0	177.67183599965028	
312.0	156.40292875877094	ISI	1.0		5.0	place	house-55.jpg	0.0	177.9799648099779	0.11670572141247249
313.0	156.5196344801834	house	0.0		46.0	place	house-129.jpg	0.0	178.09667053139037	0.3833034851040793
313.0	156.79485195771213	pulse	0.0	t		place	house-129.jpg	0.0	178.3718880089191	
313.0	156.9029379652875	ISI	1.0		6.0	place	house-129.jpg	0.0	178.47997401649445	0.1166746305543711
314.0	157.01961259584186	house	0.0		46.0	place	house-114.jpg	0.0	178.59664864704882	0.383256999743935
314.0	157.4028695955858	ISI	1.0		6.0	place	house-114.jpg	0.0	178.97990564679276	0.11669908064686751
315.0	157.51956867623267	house	0.0		45.0	place	house-23.jpg	0.0	179.09660472743963	0.38330922031036607
315.0	157.51108026844395	pulse	0.0	t		place	house-23.jpg	0.0	179.0881163196509	
315.0	157.90287789654303	ISI	1.0		7.0	place	house-23.jpg	0.0	179.47991394775	0.11667131017202337
316.0	158.01954920671506	house	0.0		46.0	place	house-127.jpg	0.0	179.59658525792202	0.38329292024900496
316.0	158.19471570127462	pulse	0.0	t		place	house-127.jpg	0.0	179.77175175248158	
316.0	158.40284212696406	ISI	1.0		7.0	place	house-127.jpg	0.0	179.97987817817102	0.11667070646581124
317.0	158.51951283342987	house	0.0		46.0	place	house-126.jpg	0.0	180.09654888463683	0.3833225018424855
317.0	158.89469888806343	pulse	0.0	t		place	house-126.jpg	0.0	180.4717349392704	
317.0	158.90283533527236	ISI	1.0		6.0	place	house-126.jpg	0.0	180.47987138647932	0.11669123246883828
318.0	159.0195265677412	house	0.0		46.0	place	house-68.jpg	0.0	180.59656261894816	0.38329412766142923
318.0	159.40282069540262	ISI	1.0		6.0	place	house-68.jpg	0.0	180.97985674660958	0.11670179732300312
319.0	159.51952249272563	house	0.0		46.0	place	house-78.jpg	0.0	181.0965585439326	0.3832850720718852
319.0	159.5946920360011	pulse	0.0	t		place	house-78.jpg	0.0	181.17172808720807	
319.0	159.9028075647975	ISI	1.0		6.0	place	house-78.jpg	0.0	181.47984361600447	0.11670270288232132
320.0	160.01951026767983	house	0.0		46.0	place	house-43.jpg	0.0	181.5965463188868	0.38330288139786717
320.0	160.29466888387742	pulse	0.0	t		place	house-43.jpg	0.0	181.87170493508438	
320.0	160.4028131490777	ISI	1.0		7.0	place	house-43.jpg	0.0	181.97984920028466	0.11668247873240034
321.0	160.5194956278101	house	0.0		46.0	place	house-136.jpg	0.0	182.09653167901706	0.38330227769165504
321.0	160.90279790550176	ISI	1.0		7.0	place	house-136.jpg	0.0	182.47983395670872	0.12500033958531276
321.0	160.99467018184532	pulse	1.0	t		place	house-136.jpg	0.0	182.57170623305228	
322.0	161.02779824508707	house	0.0		45.0	place	house-102.jpg	0.0	182.60483429629403	0.3749798890448801
322.0	161.40277813413195	ISI	1.0		7.0	place	house-102.jpg	0.0	182.9798141853389	0.11667764908452227
323.0	161.51945578321647	house	0.0		46.0	place	house-77.jpg	0.0	183.09649183442343	0.3832989573083978
323.0	161.69461624071664	pulse	0.0	t		place	house-77.jpg	0.0	183.2716522919236	
323.0	161.90275474052487	ISI	1.0		7.0	place	house-77.jpg	0.0	183.47979079173183	0.11669032691042958
324.0	162.0194450674353	adult	0.0		46.0	face	adult-25.jpg	0.0	183.59648111864226	0.3833116351343051
324.0	162.4027567025696	ISI	1.0		7.0	face	adult-25.jpg	0.0	183.97979275377656	0.11668428985012724
324.0	162.4430042703134	pulse	1.0	t		face	adult-25.jpg	0.0	184.02004032152036	
325.0	162.51944099241973	adult	0.0		46.0	face	adult-136.jpg	0.0	184.0964770436267	0.38330378695718537
325.0	162.90274477937692	ISI	1.0		7.0	face	adult-136.jpg	0.0	184.47978083058388	0.11666889534808433
326.0	163.019413674725	adult	0.0		46.0	face	adult-54.jpg	0.0	184.59644972593196	0.3833481593455872
326.0	163.0945406567289	pulse	0.0	t		face	adult-54.jpg	0.0	184.67157670793586	
326.0	163.4027618340706	ISI	1.0		6.0	face	adult-54.jpg	0.0	184.97979788527755	0.11668700652717234
327.0	163.51944884059776	adult	0.0		46.0	face	adult-20.jpg	0.0	185.09648489180472	0.3832714886875692
327.0	163.79463371800466	pulse	0.0	t		face	adult-20.jpg	0.0	185.37166976921162	
327.0	163.90272032928533	ISI	1.0		8.0	face	adult-20.jpg	0.0	185.4797563804923	0.1166682916418722
328.0	164.0193886209272	adult	0.0		46.0	face	adult-106.jpg	0.0	185.59642467213416	0.3832935239552171
328.0	164.40268214488242	ISI	1.0		6.0	face	adult-106.jpg	0.0	185.97971819608938	0.11670028805838228
329.0	164.5193824329408	adult	0.0		45.0	face	adult-79.jpg	0.0	186.09641848414776	0.38330288139786717
329.0	164.5111273575094	pulse	0.0	t		face	adult-79.jpg	0.0	186.08816340871635	
329.0	164.90268531433867	ISI	1.0		7.0	face	adult-79.jpg	0.0	186.47972136554563	0.11667251758353814
330.0	165.0193578319222	adult	0.0		46.0	face	adult-22.jpg	0.0	186.59639388312917	0.3833200870185465
330.0	165.1944950467432	pulse	0.0	t		face	adult-22.jpg	0.0	186.77153109795017	
330.0	165.40267791894075	ISI	1.0		7.0	face	adult-22.jpg	0.0	186.9797139701477	0.11668489355633938
331.0	165.5193628124971	adult	0.0		46.0	face	adult-80.jpg	0.0	187.09639886370405	0.383299862867716
331.0	165.9026626753648	ISI	1.0		6.0	face	adult-80.jpg	0.0	187.47969872657177	0.11668730838027841
331.0	165.94636947831623	pulse	1.0	t		face	adult-80.jpg	0.0	187.5234055295232	
332.0	166.0193499837451	adult	0.0		46.0	face	adult-29.jpg	0.0	187.59638603495205	0.38330197583854897
332.0	166.40265195958364	ISI	1.0		7.0	face	adult-29.jpg	0.0	187.9796880107906	0.11671870109057636
333.0	166.5193706606742	adult	0.0		46.0	face	adult-29.jpg	1.0	188.09640671188117	0.38326575348128245
333.0	166.59455590030484	pulse	0.0	t		face	adult-29.jpg	1.0	188.1715919515118	
333.0	166.844414406718	response	0.0	b		face	adult-29.jpg	1.0	188.42145045792495	
333.0	166.9026364141555	ISI	1.0		5.0	face	adult-29.jpg	1.0	188.47967246536246	0.10835284561289882
334.0	167.0109892597684	adult	0.0		47.0	face	adult-108.jpg	0.0	188.58802531097535	0.3916343256350956
334.0	167.29453848338744	pulse	0.0	t		face	adult-108.jpg	0.0	188.8715745345944	
334.0	167.4026235854035	ISI	1.0		6.0	face	adult-108.jpg	0.0	188.97965963661045	0.10833956408168888
335.0	167.51096314948518	adult	0.0		47.0	face	adult-38.jpg	0.0	189.08799920069214	0.39164730531319947
335.0	167.90261045479838	ISI	1.0		6.0	face	adult-38.jpg	0.0	189.47964650600534	0.10833563999312901
336.0	168.0109460947915	car	0.0		46.0	object	car-6.jpg	0.0	189.58798214599847	0.3916304015465357
336.0	168.0062673735256	pulse	0.0	t		object	car-6.jpg	0.0	189.58330342473255	
336.0	168.40257649633804	ISI	1.0		5.0	object	car-6.jpg	0.0	189.979612547545	0.1083329233160839
337.0	168.51090941965413	car	0.0		47.0	object	car-141.jpg	0.0	190.0879454708611	0.3916732646694072
337.0	168.69438894541872	pulse	0.0	t		object	car-141.jpg	0.0	190.27142499662568	
337.0	168.90258268432353	ISI	1.0		5.0	object	car-141.jpg	0.0	190.4796187355305	0.10836099564403412
338.0	169.01094367996757	car	0.0		47.0	object	car-19.jpg	0.0	190.58797973117453	0.3916288922810054
338.0	169.3943760562961	pulse	0.0	t		object	car-19.jpg	0.0	190.97141210750306	
338.0	169.40257257224857	ISI	1.0		5.0	object	car-19.jpg	0.0	190.97960862345553	0.10833443258161424
339.0	169.5109070048302	car	0.0		47.0	object	car-28.jpg	0.0	191.08794305603715	0.39168111284743645
339.0	169.90258811767762	ISI	1.0		4.0	object	car-28.jpg	0.0	191.47962416888458	0.11668942135111138
340.0	170.01927753902874	car	0.0		46.0	object	car-126.jpg	0.0	191.5963135902357	0.38329956101460994
340.0	170.09435954493802	pulse	0.0	t		object	car-126.jpg	0.0	191.67139559614498	
340.0	170.40257710004335	ISI	1.0		5.0	object	car-126.jpg	0.0	191.9796131512503	0.1166755361136893
341.0	170.51925263615703	car	0.0		46.0	object	car-109.jpg	0.0	192.096288687364	0.3833116351343051
341.0	170.79434907063933	pulse	0.0	t		object	car-109.jpg	0.0	192.3713851218463	
341.0	170.90256427129134	ISI	1.0		5.0	object	car-109.jpg	0.0	192.4796003224983	0.11667161202512943
342.0	171.01923588331647	car	0.0		46.0	object	car-31.jpg	0.0	192.59627193452343	0.38329925916241336
342.0	171.40253514247888	ISI	1.0		6.0	object	car-31.jpg	0.0	192.97957119368584	0.12503595823636715
342.0	171.49437149831647	pulse	1.0	t		object	car-31.jpg	0.0	193.07140754952343	
343.0	171.52757110071525	car	0.0		45.0	object	car-78.jpg	0.0	193.1046071519222	0.3749527222762481
343.0	171.9025238229915	ISI	1.0		6.0	object	car-78.jpg	0.0	193.47955987419846	0.11670089176459442
344.0	172.0192247147561	car	0.0		46.0	object	car-56.jpg	0.0	193.59626076596305	0.38325217009696644
344.0	172.19428193853582	pulse	0.0	t		object	car-56.jpg	0.0	193.77131798974278	
344.0	172.40247688485306	ISI	1.0		6.0	object	car-56.jpg	0.0	193.97951293606002	0.11668459170232381
345.0	172.51916147655538	car	0.0		46.0	object	car-106.jpg	0.0	194.09619752776234	0.3833025795456706
345.0	172.8942509382341	pulse	0.0	t		object	car-106.jpg	0.0	194.47128698944107	
345.0	172.90246405610105	ISI	1.0		6.0	object	car-106.jpg	0.0	194.479500107308	0.11669696767512505
346.0	173.01916102377618	car	0.0		46.0	object	car-16.jpg	0.0	194.59619707498314	0.3833025795447611
346.0	173.40246360332094	ISI	1.0		7.0	object	car-16.jpg	0.0	194.9794996545279	0.11668519540944544
347.0	173.51914879873038	car	0.0		46.0	object	car-34.jpg	0.0	195.09618484993734	0.38330288139786717
347.0	173.59424257690625	pulse	0.0	t		object	car-34.jpg	0.0	195.1712786281132	
347.0	173.90245168012825	ISI	1.0		6.0	object	car-34.jpg	0.0	195.4794877313352	0.1166710083189173
348.0	174.01912268844717	house	0.0		46.0	place	house-133.jpg	0.0	195.59615873965413	0.38331404995824414
348.0	174.29429247320513	pulse	0.0	t		place	house-133.jpg	0.0	195.8713285244121	
348.0	174.4024367384054	ISI	1.0		6.0	place	house-133.jpg	0.0	195.97947278961237	0.11666798978876614
349.0	174.51910472819418	house	0.0		46.0	place	house-4.jpg	0.0	196.09614077940114	0.3833197851654404
349.0	174.90242451335962	ISI	1.0		7.0	place	house-4.jpg	0.0	196.47946056456658	0.1250172433519765
349.0	174.99427837667008	pulse	1.0	t		place	house-4.jpg	0.0	196.57131442787704	
350.0	175.0274417567116	house	0.0		45.0	place	house-47.jpg	0.0	196.60447780791856	0.37497053160223004
350.0	175.40241228831383	ISI	1.0		8.0	place	house-47.jpg	0.0	196.9794483395208	0.11666436755331233
351.0	175.51907665586714	house	0.0		46.0	place	house-29.jpg	0.0	197.0961127070741	0.3833218981362734
351.0	175.69416859273952	pulse	0.0	t		place	house-29.jpg	0.0	197.27120464394648	
351.0	175.9023985540034	ISI	1.0		6.0	place	house-29.jpg	0.0	197.47943460521037	0.11667402684815897
352.0	176.01907258085157	house	0.0		46.0	place	house-63.jpg	0.0	197.59610863205853	0.3833119369874112
352.0	176.3941744185022	pulse	0.0	t		place	house-63.jpg	0.0	197.97121046970915	
352.0	176.40238451783898	ISI	1.0		6.0	place	house-63.jpg	0.0	197.97942056904594	0.11667251758353814
353.0	176.51905703542252	house	0.0		46.0	place	house-80.jpg	0.0	198.09609308662948	0.3832986554571107
353.0	176.90235569087963	ISI	1.0		6.0	place	house-80.jpg	0.0	198.4793917420866	0.11670300473451789
354.0	177.01905869561415	house	0.0		46.0	place	house-119.jpg	0.0	198.5960947468211	0.38329865545620123
354.0	177.09421737218236	pulse	0.0	t		place	house-119.jpg	0.0	198.67125342338932	
354.0	177.40235735107035	ISI	1.0		6.0	place	house-119.jpg	0.0	198.9793934022773	0.11668459170323331
355.0	177.51904194277358	house	0.0		46.0	place	house-67.jpg	0.0	199.09607799398054	0.3832880906020364
355.0	177.79412600128398	pulse	0.0	t		place	house-67.jpg	0.0	199.37116205249094	
355.0	177.90233003337562	ISI	1.0		6.0	place	house-67.jpg	0.0	199.47936608458258	0.11668338429080904
356.0	178.01901341766643	house	0.0		46.0	place	house-32.jpg	0.0	199.5960494688734	0.38332944446119654
356.0	178.40234286212763	ISI	1.0		7.0	place	house-32.jpg	0.0	199.97937891333459	0.1250501453268953
356.0	178.49420215879218	pulse	1.0	t		place	house-32.jpg	0.0	200.07123820999914	
357.0	178.52739300745452	house	0.0		45.0	place	house-20.jpg	0.0	200.10442905866148	0.37495875933564093
357.0	178.90235176679016	ISI	1.0		6.0	place	house-20.jpg	0.0	200.47938781799712	0.11667070646581124
358.0	179.01902247325597	house	0.0		46.0	place	house-12.jpg	0.0	200.59605852446293	0.3832808461302193
358.0	179.194154556576	pulse	0.0	t		place	house-12.jpg	0.0	200.77119060778296	
358.0	179.4023033193862	ISI	1.0		6.0	place	house-12.jpg	0.0	200.97933937059315	0.11667221573043207
359.0	179.51897553511662	house	0.0		46.0	place	house-10.jpg	0.0	201.09601158632358	0.3833173703415014
359.0	179.89407133570785	pulse	0.0	t		place	house-10.jpg	0.0	201.4711073869148	
359.0	179.90229290545813	ISI	1.0		5.0	place	house-10.jpg	0.0	201.47932895666509	0.11667976205535524
360.0	180.01897266751348	body	0.0		46.0	body	body-3.jpg	0.0	201.59600871872044	0.3833043906633975
360.0	180.40227705817688	ISI	1.0		6.0	body	body-3.jpg	0.0	201.97931310938384	0.11668398799702118
361.0	180.5189610461739	body	0.0		46.0	body	body-12.jpg	0.0	202.09599709738086	0.3832917128374902
361.0	180.59404275023007	pulse	0.0	t		body	body-12.jpg	0.0	202.17107880143703	
361.0	180.9022527590114	ISI	1.0		7.0	body	body-12.jpg	0.0	202.47928881021835	0.11670119361679099
362.0	181.01895395262818	body	0.0		46.0	body	body-127.jpg	0.0	202.59599000383514	0.38329020357286936
362.0	181.29404012410942	pulse	0.0	t		body	body-127.jpg	0.0	202.87107617531638	
362.0	181.40224415620105	ISI	1.0		6.0	body	body-127.jpg	0.0	202.979280207408	0.1166737249959624
363.0	181.518917881197	body	0.0		46.0	body	body-119.jpg	0.0	203.09595393240397	0.38330952216347214
363.0	181.90222740336048	ISI	1.0		5.0	body	body-119.jpg	0.0	203.47926345456744	0.12501482852803747
363.0	181.99401244419096	pulse	1.0	t		body	body-119.jpg	0.0	203.57104849539792	
364.0	182.02724223188852	body	0.0		45.0	body	body-74.jpg	0.0	203.60427828309548	0.37496841863139707
364.0	182.40221065051992	ISI	1.0		6.0	body	body-74.jpg	0.0	203.97924670172688	0.11669908064595802
365.0	182.51890973116588	body	0.0		46.0	body	body-100.jpg	0.0	204.09594578237284	0.3832808461302193
365.0	182.69397812350599	pulse	0.0	t		body	body-100.jpg	0.0	204.27101417471295	
365.0	182.9021905772961	ISI	1.0		5.0	body	body-100.jpg	0.0	204.47922662850306	0.11669847694065538
366.0	183.01888905423675	body	0.0		46.0	body	body-50.jpg	0.0	204.5959251054437	0.38330922031127557
366.0	183.39396885661972	pulse	0.0	t		body	body-50.jpg	0.0	204.97100490782668	
366.0	183.40219827454803	ISI	1.0		6.0	body	body-50.jpg	0.0	204.979234325755	0.11668247873149085
367.0	183.51888075327952	body	0.0		46.0	body	body-79.jpg	0.0	205.09591680448648	0.3833034851040793
367.0	183.9021842383836	ISI	1.0		7.0	body	body-79.jpg	0.0	205.47922028959056	0.1166682916418722
368.0	184.01885253002547	body	0.0		46.0	body	body-123.jpg	0.0	205.59588858123243	0.38329925916241336
368.0	184.0939882657667	pulse	0.0	t		body	body-123.jpg	0.0	205.67102431697367	
368.0	184.40215178918788	ISI	1.0		8.0	body	body-123.jpg	0.0	205.97918784039484	0.11669425099898945
369.0	184.51884604018687	body	0.0		46.0	body	body-123.jpg	1.0	206.09588209139383	0.3833125406936233
369.0	184.79392164681303	pulse	0.0	t		body	body-123.jpg	1.0	206.37095769802	
369.0	184.84390880296814	response	0.0	b		body	body-123.jpg	1.0	206.4209448541751	
369.0	184.9021585808805	ISI	1.0		7.0	body	body-123.jpg	1.0	206.47919463208746	0.11668398799702118
370.0	185.01884256887752	body	0.0		46.0	body	body-117.jpg	0.0	206.59587862008448	0.383336085225892
370.0	185.4021786541034	ISI	1.0		6.0	body	body-117.jpg	0.0	206.97921470531037	0.12500396182076656
370.0	185.49400384138062	pulse	1.0	t		body	body-117.jpg	0.0	207.07103989258758	
371.0	185.52718261592418	body	0.0		45.0	body	body-73.jpg	0.0	207.10421866713114	0.3749807946032888
371.0	185.90216341052746	ISI	1.0		5.0	body	body-73.jpg	0.0	207.47919946173442	0.11668489355633938
372.0	186.0188483040838	car	0.0		46.0	object	car-29.jpg	0.0	207.59588435529076	0.38327028127605445
372.0	186.19392454460194	pulse	0.0	t		object	car-29.jpg	0.0	207.7709605958089	
372.0	186.40211858535986	ISI	1.0		6.0	object	car-29.jpg	0.0	207.97915463656682	0.11668610096785414
373.0	186.5188046863277	car	0.0		46.0	object	car-50.jpg	0.0	208.09584073753467	0.38330107028014027
373.0	186.8939306722168	pulse	0.0	t		object	car-50.jpg	0.0	208.47096672342377	
373.0	186.90210575660785	ISI	1.0		6.0	object	car-50.jpg	0.0	208.4791418078148	0.11668670467406628
374.0	187.01879246128192	car	0.0		46.0	object	car-55.jpg	0.0	208.59582851248888	0.38329865545620123
374.0	187.40209111673812	ISI	1.0		7.0	object	car-55.jpg	0.0	208.97912716794508	0.11668579911474808
375.0	187.51877691585287	car	0.0		46.0	object	car-62.jpg	0.0	209.09581296705983	0.38330831475195737
375.0	187.59389484226813	pulse	0.0	t		object	car-62.jpg	0.0	209.1709308934751	
375.0	187.90208523060483	ISI	1.0		7.0	object	car-62.jpg	0.0	209.47912128181179	0.11669213802724698
376.0	188.01877736863207	car	0.0		46.0	object	car-66.jpg	0.0	209.59581341983903	0.3832681683052215
376.0	188.29384542893422	pulse	0.0	t		object	car-66.jpg	0.0	209.87088148014118	
376.0	188.4020455369373	ISI	1.0		4.0	object	car-66.jpg	0.0	209.97908158814425	0.10835556228994392
377.0	188.51040109922724	car	0.0		47.0	object	car-112.jpg	0.0	210.0874371504342	0.39165304052039573
377.0	188.90205413974763	ISI	1.0		4.0	object	car-112.jpg	0.0	210.4790901909546	0.11666949905338697
377.0	188.99391283270597	pulse	1.0	t		object	car-112.jpg	0.0	210.57094888391293	
378.0	189.01872363880102	car	0.0		46.0	object	car-88.jpg	0.0	210.59575969000798	0.38331012586968427
378.0	189.4020337646707	ISI	1.0		6.0	object	car-88.jpg	0.0	210.97906981587766	0.10831722696093493
379.0	189.51035099163164	car	0.0		47.0	object	car-76.jpg	0.0	211.0873870428386	0.39165304052039573
379.0	189.69380667101086	pulse	0.0	t		object	car-76.jpg	0.0	211.27084272221782	
379.0	189.90200403215204	ISI	1.0		5.0	object	car-76.jpg	0.0	211.479040083359	0.10833171590456914
380.0	190.0103357480566	car	0.0		47.0	object	car-37.jpg	0.0	211.58737179926356	0.3916780943172853
380.0	190.39379921524232	pulse	0.0	t		object	car-37.jpg	0.0	211.97083526644928	
380.0	190.4020138423739	ISI	1.0		4.0	object	car-37.jpg	0.0	211.97904989358085	0.10834892152433895
381.0	190.51036276389823	car	0.0		47.0	object	car-57.jpg	0.0	212.0873988151052	0.39161832742684055
381.0	190.90198109132507	ISI	1.0		6.0	object	car-57.jpg	0.0	212.47901714253203	0.10837276791062322
382.0	191.0103538592357	car	0.0		47.0	object	car-86.jpg	0.0	212.58738991044265	0.39161108295411395
382.0	191.09376912049993	pulse	0.0	t		object	car-86.jpg	0.0	212.6708051717069	
382.0	191.4019649421898	ISI	1.0		5.0	object	car-86.jpg	0.0	212.97900099339677	0.1083766919991831
383.0	191.510341634189	car	0.0		47.0	object	car-65.jpg	0.0	213.08737768539595	0.3916279867225967
383.0	191.79375894805435	pulse	0.0	t		object	car-65.jpg	0.0	213.3707949992613	
383.0	191.9019696209116	ISI	1.0		11.0	object	car-65.jpg	0.0	213.47900567211855	0.10000178093287104
384.0	192.00197140184446	baseline	0.0		48.0		baseline	0.0	213.57900745305142	0.40005481650132424
384.0	192.40202621834578	ISI	1.0		11.0		baseline	0.0	213.97906226955274	0.09999906425582594
384.0	192.49381880550118	pulse	1.0	t			baseline	0.0	214.07085485670814	
385.0	192.5020252826016	baseline	0.0		48.0		baseline	0.0	214.07906133380857	0.39999021996391093
385.0	192.90201550256552	ISI	1.0		11.0		baseline	0.0	214.47905155377248	0.09999393275484181
386.0	193.00200943532036	baseline	0.0		48.0		baseline	0.0	214.57904548652732	0.3999917292276223
386.0	193.19376184584235	pulse	0.0	t			baseline	0.0	214.7707978970493	
386.0	193.40200116454798	ISI	1.0		11.0		baseline	0.0	214.97903721575494	0.10000178093287104
387.0	193.50200294548085	baseline	0.0		48.0		baseline	0.0	215.0790389966878	0.39998840884527453
387.0	193.89374020298328	pulse	0.0	t			baseline	0.0	215.47077625419024	
387.0	193.90199135432613	ISI	1.0		11.0		baseline	0.0	215.4790274055331	0.0999912160787062
388.0	194.00198257040483	baseline	0.0		48.0		baseline	0.0	215.5790186216118	0.3999896162567893
388.0	194.40197218666162	ISI	1.0		11.0		baseline	0.0	215.97900823786858	0.09999846054961381
389.0	194.50197064721124	baseline	0.0		48.0		baseline	0.0	216.0790066984182	0.39998810699307796
389.0	194.59374633059906	pulse	0.0	t			baseline	0.0	216.17078238180602	
389.0	194.90195875420432	ISI	1.0		11.0		baseline	0.0	216.47899480541128	0.10002834399529092
390.0	195.0019870981996	baseline	0.0		48.0		baseline	0.0	216.57902314940657	0.3999376975434643
390.0	195.29371653770977	pulse	0.0	t			baseline	0.0	216.87075258891673	
390.0	195.40192479574307	ISI	1.0		11.0		baseline	0.0	216.97896084695003	0.10001868469953479
