trial_nr	onset	event_type	phase	response	nr_frames	face_age	face_sex	face_eth	attractiveness	expression	face_id	sub_id	ses	run	trial_type	catch	rating_type	onset_abs	duration
-1.0	0.05638557242673414	fix	0.0		714													43.17691076356823	5.966322361011407
-1.0	0.7062765575628873	pulse	0.0	t														43.82680174870438	
-1.0	1.4062488774770827	pulse	0.0	t														44.52677406861858	
-1.0	2.1062344790025236	pulse	0.0	t														45.22675967014402	
-1.0	2.8062294380279127	pulse	0.0	t														45.92675462916941	
-1.0	3.5062129265697877	pulse	0.0	t														46.626738117711284	
-1.0	4.206186755757699	pulse	0.0	t														47.326711946899195	
-1.0	4.906180507363388	pulse	0.0	t														48.026705698504884	
-1.0	5.606164297760188	pulse	0.0	t														48.726689488901684	
0.0	6.0227079334381415	face	0.0		144	20.0	male	black	3.1070433744528456	neutral	082	sub-04	2.0	4.0	082_neutral	1.0	trustworthiness	49.14323312457964	1.2333244084929902
0.0	6.306171632832047	pulse	0.0	t		20.0	male	black	3.1070433744528456	neutral	082	sub-04	2.0	4.0	082_neutral	1.0	trustworthiness	49.42669682397354	
0.0	7.006131878553788	pulse	0.0	t		20.0	male	black	3.1070433744528456	neutral	082	sub-04	2.0	4.0	082_neutral	1.0	trustworthiness	50.126657069695284	
0.0	7.256032341931132	fix	1.0		177	20.0	male	black	3.1070433744528456	neutral	082	sub-04	2.0	4.0	082_neutral	1.0	trustworthiness	50.37655753307263	1.5083126286090192
0.0	7.706131365400324	pulse	1.0	t		20.0	male	black	3.1070433744528456	neutral	082	sub-04	2.0	4.0	082_neutral	1.0	trustworthiness	50.82665655654182	
0.0	8.406110326120142	pulse	1.0	t		20.0	male	black	3.1070433744528456	neutral	082	sub-04	2.0	4.0	082_neutral	1.0	trustworthiness	51.52663551726164	
0.0	8.76434497054015	rating	2.0		293	20.0	male	black	3.1070433744528456	neutral	082	sub-04	2.0	4.0	082_neutral	1.0	trustworthiness	51.88487016168165	2.4915950038202936
0.0	9.100832183517923	pulse	2.0	t		20.0	male	black	3.1070433744528456	neutral	082	sub-04	2.0	4.0	082_neutral	1.0	trustworthiness	52.22135737465942	
0.0	9.800839820444708	pulse	2.0	t		20.0	male	black	3.1070433744528456	neutral	082	sub-04	2.0	4.0	082_neutral	1.0	trustworthiness	52.921365011586204	
0.0	10.084156214692484	response	2.0	b		20.0	male	black	3.1070433744528456	neutral	082	sub-04	2.0	4.0	082_neutral	1.0	trustworthiness	53.20468140583398	
0.0	10.506062602875318	pulse	2.0	t		20.0	male	black	3.1070433744528456	neutral	082	sub-04	2.0	4.0	082_neutral	1.0	trustworthiness	53.626587794016814	
0.0	11.206048204401668	pulse	2.0	t		20.0	male	black	3.1070433744528456	neutral	082	sub-04	2.0	4.0	082_neutral	1.0	trustworthiness	54.326573395543164	
0.0	11.255939974360444	fix	3.0		444	20.0	male	black	3.1070433744528456	neutral	082	sub-04	2.0	4.0	082_neutral	1.0	trustworthiness	54.37646516550194	3.758238145935138
0.0	11.906027466976411	pulse	3.0	t		20.0	male	black	3.1070433744528456	neutral	082	sub-04	2.0	4.0	082_neutral	1.0	trustworthiness	55.02655265811791	
0.0	12.606022727855816	pulse	3.0	t		20.0	male	black	3.1070433744528456	neutral	082	sub-04	2.0	4.0	082_neutral	1.0	trustworthiness	55.72654791899731	
0.0	13.305997462608502	pulse	3.0	t		20.0	male	black	3.1070433744528456	neutral	082	sub-04	2.0	4.0	082_neutral	1.0	trustworthiness	56.42652265375	
0.0	14.005977328892186	pulse	3.0	t		20.0	male	black	3.1070433744528456	neutral	082	sub-04	2.0	4.0	082_neutral	1.0	trustworthiness	57.12650252003368	
0.0	14.705978325013348	pulse	3.0	t		20.0	male	black	3.1070433744528456	neutral	082	sub-04	2.0	4.0	082_neutral	1.0	trustworthiness	57.826503516154844	
1.0	15.014178120295583	face	0.0		146	47.0	male	east_asian	2.171110226820533	smiling	024	sub-04	2.0	4.0	024_smiling	0.0		58.13470331143708	1.2416580160106605
1.0	15.405961813555223	pulse	0.0	t		47.0	male	east_asian	2.171110226820533	smiling	024	sub-04	2.0	4.0	024_smiling	0.0		58.52648700469672	
1.0	16.105943189113532	pulse	0.0	t		47.0	male	east_asian	2.171110226820533	smiling	024	sub-04	2.0	4.0	024_smiling	0.0		59.22646838025503	
1.0	16.255836136306243	fix	1.0		445	47.0	male	east_asian	2.171110226820533	smiling	024	sub-04	2.0	4.0	024_smiling	0.0		59.37636132744774	3.7582375422261975
1.0	16.80593452588073	pulse	1.0	t		47.0	male	east_asian	2.171110226820533	smiling	024	sub-04	2.0	4.0	024_smiling	0.0		59.926459717022226	
1.0	17.50592888119627	pulse	1.0	t		47.0	male	east_asian	2.171110226820533	smiling	024	sub-04	2.0	4.0	024_smiling	0.0		60.626454072337765	
1.0	18.205873430468273	pulse	1.0	t		47.0	male	east_asian	2.171110226820533	smiling	024	sub-04	2.0	4.0	024_smiling	0.0		61.32639862160977	
1.0	18.905878652555657	pulse	1.0	t		47.0	male	east_asian	2.171110226820533	smiling	024	sub-04	2.0	4.0	024_smiling	0.0		62.02640384369715	
1.0	19.605868178194214	pulse	1.0	t		47.0	male	east_asian	2.171110226820533	smiling	024	sub-04	2.0	4.0	024_smiling	0.0		62.72639336933571	
2.0	20.01407367853244	face	0.0		146	40.0	male	white	1.868682849184242	neutral	172	sub-04	2.0	4.0	172_neutral	0.0		63.13459886967394	1.2416546956073944
2.0	20.305861024235128	pulse	0.0	t		40.0	male	white	1.868682849184242	neutral	172	sub-04	2.0	4.0	172_neutral	0.0		63.426386215376624	
2.0	21.00584722947042	pulse	0.0	t		40.0	male	white	1.868682849184242	neutral	172	sub-04	2.0	4.0	172_neutral	0.0		64.12637242061192	
2.0	21.255728374139835	fix	1.0		444	40.0	male	white	1.868682849184242	neutral	172	sub-04	2.0	4.0	172_neutral	0.0		64.37625356528133	3.7582396552097634
2.0	21.705834340270485	pulse	1.0	t		40.0	male	white	1.868682849184242	neutral	172	sub-04	2.0	4.0	172_neutral	0.0		64.82635953141198	
2.0	22.405824469617983	pulse	1.0	t		40.0	male	white	1.868682849184242	neutral	172	sub-04	2.0	4.0	172_neutral	0.0		65.52634966075948	
2.0	23.10579980808052	pulse	1.0	t		40.0	male	white	1.868682849184242	neutral	172	sub-04	2.0	4.0	172_neutral	0.0		66.22632499922202	
2.0	23.805775750251996	pulse	1.0	t		40.0	male	white	1.868682849184242	neutral	172	sub-04	2.0	4.0	172_neutral	0.0		66.92630094139349	
2.0	24.505777048228083	pulse	1.0	t		40.0	male	white	1.868682849184242	neutral	172	sub-04	2.0	4.0	172_neutral	0.0		67.62630223936958	
3.0	25.0139680293496	face	0.0		146	31.0	female	east_asian	3.395941106247513	smiling	087	sub-04	2.0	4.0	087_smiling	0.0		68.1344932204911	1.2416543937533788
3.0	25.205765668301865	pulse	0.0	t		31.0	female	east_asian	3.395941106247513	smiling	087	sub-04	2.0	4.0	087_smiling	0.0		68.32629085944336	
3.0	25.906242689453393	pulse	0.0	t		31.0	female	east_asian	3.395941106247513	smiling	087	sub-04	2.0	4.0	087_smiling	0.0		69.02676788059489	
3.0	26.255622423102977	fix	1.0		444	31.0	female	east_asian	3.395941106247513	smiling	087	sub-04	2.0	4.0	087_smiling	0.0		69.37614761424447	3.7665726590175836
3.0	26.6057299286922	pulse	1.0	t		31.0	female	east_asian	3.395941106247513	smiling	087	sub-04	2.0	4.0	087_smiling	0.0		69.7262551198337	
3.0	27.305710398686642	pulse	1.0	t		31.0	female	east_asian	3.395941106247513	smiling	087	sub-04	2.0	4.0	087_smiling	0.0		70.42623558982814	
3.0	28.005690868680176	pulse	1.0	t		31.0	female	east_asian	3.395941106247513	smiling	087	sub-04	2.0	4.0	087_smiling	0.0		71.12621605982167	
3.0	28.705684016576015	pulse	1.0	t		31.0	female	east_asian	3.395941106247513	smiling	087	sub-04	2.0	4.0	087_smiling	0.0		71.82620920771751	
3.0	29.40568863495446	pulse	1.0	t		31.0	female	east_asian	3.395941106247513	smiling	087	sub-04	2.0	4.0	087_smiling	0.0		72.52621382609595	
4.0	30.02219508212056	face	0.0		145	30.0	female	black	2.7345801830481498	neutral	062	sub-04	2.0	4.0	062_neutral	0.0		73.14272027326206	1.233323502928215
4.0	30.105656427046597	pulse	0.0	t		30.0	female	black	2.7345801830481498	neutral	062	sub-04	2.0	4.0	062_neutral	0.0		73.2261816181881	
4.0	30.80563267107391	pulse	0.0	t		30.0	female	black	2.7345801830481498	neutral	062	sub-04	2.0	4.0	062_neutral	0.0		73.9261578622154	
4.0	31.255518585048776	fix	1.0		444	30.0	female	black	2.7345801830481498	neutral	062	sub-04	2.0	4.0	062_neutral	0.0		74.37604377619027	3.7582333162590658
4.0	31.505624007840197	pulse	1.0	t		30.0	female	black	2.7345801830481498	neutral	062	sub-04	2.0	4.0	062_neutral	0.0		74.6261491989817	
4.0	32.20559421477083	pulse	1.0	t		30.0	female	black	2.7345801830481498	neutral	062	sub-04	2.0	4.0	062_neutral	0.0		75.32611940591232	
4.0	32.90559430532721	pulse	1.0	t		30.0	female	black	2.7345801830481498	neutral	062	sub-04	2.0	4.0	062_neutral	0.0		76.02611949646871	
4.0	33.605571756773315	pulse	1.0	t		30.0	female	black	2.7345801830481498	neutral	062	sub-04	2.0	4.0	062_neutral	0.0		76.72609694791481	
4.0	34.30556309354051	pulse	1.0	t		30.0	female	black	2.7345801830481498	neutral	062	sub-04	2.0	4.0	062_neutral	0.0		77.42608828468201	
5.0	35.01375190130784	face	0.0		147	31.0	male	west_asian	1.9538400318344609	smiling	070	sub-04	2.0	4.0	070_smiling	0.0		78.13427709244934	1.2416601289942264
5.0	35.007623041301486	pulse	0.0	t		31.0	male	west_asian	1.9538400318344609	smiling	070	sub-04	2.0	4.0	070_smiling	0.0		78.12814823244298	
5.0	35.70553701328481	pulse	0.0	t		31.0	male	west_asian	1.9538400318344609	smiling	070	sub-04	2.0	4.0	070_smiling	0.0		78.82606220442631	
5.0	36.25541203030207	fix	1.0		443	31.0	male	west_asian	1.9538400318344609	smiling	070	sub-04	2.0	4.0	070_smiling	0.0		79.37593722144356	3.758286442704957
5.0	36.40551204989242	pulse	1.0	t		31.0	male	west_asian	1.9538400318344609	smiling	070	sub-04	2.0	4.0	070_smiling	0.0		79.52603724103392	
5.0	37.10550761262675	pulse	1.0	t		31.0	male	west_asian	1.9538400318344609	smiling	070	sub-04	2.0	4.0	070_smiling	0.0		80.22603280376825	
5.0	37.80549351600712	pulse	1.0	t		31.0	male	west_asian	1.9538400318344609	smiling	070	sub-04	2.0	4.0	070_smiling	0.0		80.92601870714861	
5.0	38.50547640084005	pulse	1.0	t		31.0	male	west_asian	1.9538400318344609	smiling	070	sub-04	2.0	4.0	070_smiling	0.0		81.62600159198155	
5.0	39.20546049309178	pulse	1.0	t		31.0	male	west_asian	1.9538400318344609	smiling	070	sub-04	2.0	4.0	070_smiling	0.0		82.32598568423327	
5.0	39.90544730203692	pulse	1.0	t		31.0	male	west_asian	1.9538400318344609	smiling	070	sub-04	2.0	4.0	070_smiling	0.0		83.02597249317841	
6.0	40.013698473007025	face	0.0		147	21.0	male	black	2.969757262236371	smiling	137	sub-04	2.0	4.0	137_smiling	0.0		83.13422366414852	1.2416205860145055
6.0	40.605431394287734	pulse	0.0	t		21.0	male	black	2.969757262236371	smiling	137	sub-04	2.0	4.0	137_smiling	0.0		83.72595658542923	
6.0	41.25531905902153	fix	1.0		443	21.0	male	black	2.969757262236371	smiling	137	sub-04	2.0	4.0	137_smiling	0.0		84.37584425016303	3.766558773696488
6.0	41.30540914758876	pulse	1.0	t		21.0	male	black	2.969757262236371	smiling	137	sub-04	2.0	4.0	137_smiling	0.0		84.42593433873026	
6.0	42.00540501217802	pulse	1.0	t		21.0	male	black	2.969757262236371	smiling	137	sub-04	2.0	4.0	137_smiling	0.0		85.12593020331951	
6.0	42.70538880257482	pulse	1.0	t		21.0	male	black	2.969757262236371	smiling	137	sub-04	2.0	4.0	137_smiling	0.0		85.82591399371631	
6.0	43.405369574423275	pulse	1.0	t		21.0	male	black	2.969757262236371	smiling	137	sub-04	2.0	4.0	137_smiling	0.0		86.52589476556477	
6.0	44.10535789264304	pulse	1.0	t		21.0	male	black	2.969757262236371	smiling	137	sub-04	2.0	4.0	137_smiling	0.0		87.22588308378454	
6.0	44.805335344088235	pulse	1.0	t		21.0	male	black	2.969757262236371	smiling	137	sub-04	2.0	4.0	137_smiling	0.0		87.92586053522973	
7.0	45.02187783271802	face	0.0		145	22.0	female	west_asian	3.8205332272184642	smiling	066	sub-04	2.0	4.0	066_smiling	0.0		88.14240302385952	1.2333244084929902
7.0	45.50532819012915	pulse	0.0	t		22.0	female	west_asian	3.8205332272184642	smiling	066	sub-04	2.0	4.0	066_smiling	0.0		88.62585338127064	
7.0	46.2053137916555	pulse	0.0	t		22.0	female	west_asian	3.8205332272184642	smiling	066	sub-04	2.0	4.0	066_smiling	0.0		89.325838982797	
7.0	46.25520224121101	fix	1.0		445	22.0	female	west_asian	3.8205332272184642	smiling	066	sub-04	2.0	4.0	066_smiling	0.0		89.3757274323525	3.7665705460340178
7.0	46.9052912431016	pulse	1.0	t		22.0	female	west_asian	3.8205332272184642	smiling	066	sub-04	2.0	4.0	066_smiling	0.0		90.0258164342431	
7.0	47.60527775019091	pulse	1.0	t		22.0	female	west_asian	3.8205332272184642	smiling	066	sub-04	2.0	4.0	066_smiling	0.0		90.7258029413324	
7.0	48.30526335171726	pulse	1.0	t		22.0	female	west_asian	3.8205332272184642	smiling	066	sub-04	2.0	4.0	066_smiling	0.0		91.42578854285875	
7.0	49.00525559404832	pulse	1.0	t		22.0	female	west_asian	3.8205332272184642	smiling	066	sub-04	2.0	4.0	066_smiling	0.0		92.12578078518982	
7.0	49.70524179928361	pulse	1.0	t		22.0	female	west_asian	3.8205332272184642	smiling	066	sub-04	2.0	4.0	066_smiling	0.0		92.82576699042511	
8.0	50.02177278724503	face	0.0		145	27.0	female	white	4.181058495821727	neutral	039	sub-04	2.0	4.0	039_neutral	0.0		93.14229797838652	1.2333141454300858
8.0	50.405222872987	pulse	0.0	t		27.0	female	white	4.181058495821727	neutral	039	sub-04	2.0	4.0	039_neutral	0.0		93.52574806412849	
8.0	51.105205455965006	pulse	0.0	t		27.0	female	white	4.181058495821727	neutral	039	sub-04	2.0	4.0	039_neutral	0.0		94.2257306471065	
8.0	51.25508693267511	fix	1.0		444	27.0	female	white	4.181058495821727	neutral	039	sub-04	2.0	4.0	039_neutral	0.0		94.37561212381661	3.7582333162581563
8.0	51.80520071684441	pulse	1.0	t		27.0	female	white	4.181058495821727	neutral	039	sub-04	2.0	4.0	039_neutral	0.0		94.9257259079859	
8.0	52.50517847014544	pulse	1.0	t		27.0	female	white	4.181058495821727	neutral	039	sub-04	2.0	4.0	039_neutral	0.0		95.62570366128693	
8.0	53.20516346796103	pulse	1.0	t		27.0	female	white	4.181058495821727	neutral	039	sub-04	2.0	4.0	039_neutral	0.0		96.32568865910252	
8.0	53.90515510658315	pulse	1.0	t		27.0	female	white	4.181058495821727	neutral	039	sub-04	2.0	4.0	039_neutral	0.0		97.02568029772465	
8.0	54.605135576576686	pulse	1.0	t		27.0	female	white	4.181058495821727	neutral	039	sub-04	2.0	4.0	039_neutral	0.0		97.72566076771818	
9.0	55.01332024893327	face	0.0		146	20.0	male	black	3.1070433744528456	smiling	082	sub-04	2.0	4.0	082_smiling	0.0		98.13384544007477	1.2416706939129654
9.0	55.30512268737675	pulse	0.0	t		20.0	male	black	3.1070433744528456	smiling	082	sub-04	2.0	4.0	082_smiling	0.0		98.42564787851825	
9.0	56.00510557220878	pulse	0.0	t		20.0	male	black	3.1070433744528456	smiling	082	sub-04	2.0	4.0	082_smiling	0.0		99.12563076335027	
9.0	56.254990942846234	fix	1.0		445	20.0	male	black	3.1070433744528456	smiling	082	sub-04	2.0	4.0	082_smiling	0.0		99.37551613398773	3.766571149743868
9.0	56.705096908975975	pulse	1.0	t		20.0	male	black	3.1070433744528456	smiling	082	sub-04	2.0	4.0	082_smiling	0.0		99.82562210011747	
9.0	57.405055645424	pulse	1.0	t		20.0	male	black	3.1070433744528456	smiling	082	sub-04	2.0	4.0	082_smiling	0.0		100.5255808365655	
9.0	58.105066904608066	pulse	1.0	t		20.0	male	black	3.1070433744528456	smiling	082	sub-04	2.0	4.0	082_smiling	0.0		101.22559209574956	
9.0	58.805047676457434	pulse	1.0	t		20.0	male	black	3.1070433744528456	smiling	082	sub-04	2.0	4.0	082_smiling	0.0		101.92557286759893	
9.0	59.505033881692725	pulse	1.0	t		20.0	male	black	3.1070433744528456	smiling	082	sub-04	2.0	4.0	082_smiling	0.0		102.62555907283422	
10.0	60.0215620925901	face	0.0		145	30.0	female	black	2.7345801830481498	smiling	062	sub-04	2.0	4.0	062_smiling	1.0	dominance	103.1420872837316	1.233325917766706
10.0	60.20501163499284	pulse	0.0	t		30.0	female	black	2.7345801830481498	smiling	062	sub-04	2.0	4.0	062_smiling	1.0	dominance	103.32553682613434	
10.0	60.905000255066625	pulse	0.0	t		30.0	female	black	2.7345801830481498	smiling	062	sub-04	2.0	4.0	062_smiling	1.0	dominance	104.02552544620812	
10.0	61.25488801035681	fix	1.0		177	30.0	female	black	2.7345801830481498	smiling	062	sub-04	2.0	4.0	062_smiling	1.0	dominance	104.3754132014983	1.4999675506087442
10.0	61.604994610382164	pulse	1.0	t		30.0	female	black	2.7345801830481498	smiling	062	sub-04	2.0	4.0	062_smiling	1.0	dominance	104.72551980152366	
10.0	62.30497689150525	pulse	1.0	t		30.0	female	black	2.7345801830481498	smiling	062	sub-04	2.0	4.0	062_smiling	1.0	dominance	105.42550208264674	
10.0	62.75485556096555	rating	2.0		294	30.0	female	black	2.7345801830481498	smiling	062	sub-04	2.0	4.0	062_smiling	1.0	dominance	105.87538075210705	2.499945817061416
10.0	62.999714445351856	pulse	2.0	t		30.0	female	black	2.7345801830481498	smiling	062	sub-04	2.0	4.0	062_smiling	1.0	dominance	106.12023963649335	
10.0	63.69968918010454	pulse	2.0	t		30.0	female	black	2.7345801830481498	smiling	062	sub-04	2.0	4.0	062_smiling	1.0	dominance	106.82021437124604	
10.0	64.2216205920513	response	2.0	b		30.0	female	black	2.7345801830481498	smiling	062	sub-04	2.0	4.0	062_smiling	1.0	dominance	107.34214578319279	
10.0	64.39965455735819	pulse	2.0	t		30.0	female	black	2.7345801830481498	smiling	062	sub-04	2.0	4.0	062_smiling	1.0	dominance	107.52017974849969	
10.0	65.10491476978586	pulse	2.0	t		30.0	female	black	2.7345801830481498	smiling	062	sub-04	2.0	4.0	062_smiling	1.0	dominance	108.22543996092736	
10.0	65.25480137802697	fix	3.0		444	30.0	female	black	2.7345801830481498	smiling	062	sub-04	2.0	4.0	062_smiling	1.0	dominance	108.37532656916846	3.766566018211961
10.0	65.8049027861498	pulse	3.0	t		30.0	female	black	2.7345801830481498	smiling	062	sub-04	2.0	4.0	062_smiling	1.0	dominance	108.92542797729129	
10.0	66.5048841617081	pulse	3.0	t		30.0	female	black	2.7345801830481498	smiling	062	sub-04	2.0	4.0	062_smiling	1.0	dominance	109.6254093528496	
10.0	67.20486765024998	pulse	3.0	t		30.0	female	black	2.7345801830481498	smiling	062	sub-04	2.0	4.0	062_smiling	1.0	dominance	110.32539284139148	
10.0	67.90485989258195	pulse	3.0	t		30.0	female	black	2.7345801830481498	smiling	062	sub-04	2.0	4.0	062_smiling	1.0	dominance	111.02538508372345	
10.0	68.60484579596232	pulse	3.0	t		30.0	female	black	2.7345801830481498	smiling	062	sub-04	2.0	4.0	062_smiling	1.0	dominance	111.72537098710382	
11.0	69.02136739623893	face	0.0		145	28.0	male	east_asian	1.5563072025467568	neutral	005	sub-04	2.0	4.0	005_neutral	0.0		112.14189258738043	1.2333192769619927
11.0	69.30483290676148	pulse	0.0	t		28.0	male	east_asian	1.5563072025467568	neutral	005	sub-04	2.0	4.0	005_neutral	0.0		112.42535809790297	
11.0	70.00481639530426	pulse	0.0	t		28.0	male	east_asian	1.5563072025467568	neutral	005	sub-04	2.0	4.0	005_neutral	0.0		113.12534158644576	
11.0	70.25468667320092	fix	1.0		444	28.0	male	east_asian	1.5563072025467568	neutral	005	sub-04	2.0	4.0	005_neutral	0.0		113.37521186434242	3.7665826202264725
11.0	70.70480410981327	pulse	1.0	t		28.0	male	east_asian	1.5563072025467568	neutral	005	sub-04	2.0	4.0	005_neutral	0.0		113.82532930095476	
11.0	71.40478337238801	pulse	1.0	t		28.0	male	east_asian	1.5563072025467568	neutral	005	sub-04	2.0	4.0	005_neutral	0.0		114.5253085635295	
11.0	72.10476806834959	pulse	1.0	t		28.0	male	east_asian	1.5563072025467568	neutral	005	sub-04	2.0	4.0	005_neutral	0.0		115.22529325949108	
11.0	72.80475095318161	pulse	1.0	t		28.0	male	east_asian	1.5563072025467568	neutral	005	sub-04	2.0	4.0	005_neutral	0.0		115.9252761443231	
11.0	73.50472508422445	pulse	1.0	t		28.0	male	east_asian	1.5563072025467568	neutral	005	sub-04	2.0	4.0	005_neutral	0.0		116.62525027536594	
12.0	74.0212692934274	face	0.0		145	25.0	female	west_asian	2.6756864305610826	smiling	064	sub-04	2.0	4.0	064_smiling	0.0		117.14179448456889	1.233322899218365
12.0	74.20469438559121	pulse	0.0	t		25.0	female	west_asian	2.6756864305610826	smiling	064	sub-04	2.0	4.0	064_smiling	0.0		117.3252195767327	
12.0	74.90469749469503	pulse	0.0	t		25.0	female	west_asian	2.6756864305610826	smiling	064	sub-04	2.0	4.0	064_smiling	0.0		118.02522268583652	
12.0	75.25459219264576	fix	1.0		444	25.0	female	west_asian	2.6756864305610826	smiling	064	sub-04	2.0	4.0	064_smiling	0.0		118.37511738378726	3.7582961020580115
12.0	75.60469547226785	pulse	1.0	t		25.0	female	west_asian	2.6756864305610826	smiling	064	sub-04	2.0	4.0	064_smiling	0.0		118.72522066340935	
12.0	76.30468077193927	pulse	1.0	t		25.0	female	west_asian	2.6756864305610826	smiling	064	sub-04	2.0	4.0	064_smiling	0.0		119.42520596308077	
12.0	77.0046687883032	pulse	1.0	t		25.0	female	west_asian	2.6756864305610826	smiling	064	sub-04	2.0	4.0	064_smiling	0.0		120.1251939794447	
12.0	77.70465921950563	pulse	1.0	t		25.0	female	west_asian	2.6756864305610826	smiling	064	sub-04	2.0	4.0	064_smiling	0.0		120.82518441064713	
12.0	78.40462399304943	pulse	1.0	t		25.0	female	west_asian	2.6756864305610826	smiling	064	sub-04	2.0	4.0	064_smiling	0.0		121.52514918419092	
13.0	79.01288829470377	face	0.0		146	54.0	female	white	2.286908077994429	neutral	136	sub-04	2.0	4.0	136_neutral	0.0		122.13341348584527	1.2416009654525624
13.0	79.10469803803426	pulse	0.0	t		54.0	female	white	2.286908077994429	neutral	136	sub-04	2.0	4.0	136_neutral	0.0		122.22522322917575	
13.0	79.8046051573101	pulse	0.0	t		54.0	female	white	2.286908077994429	neutral	136	sub-04	2.0	4.0	136_neutral	0.0		122.9251303484516	
13.0	80.25448926015633	fix	1.0		444	54.0	female	white	2.286908077994429	neutral	136	sub-04	2.0	4.0	136_neutral	0.0		123.37501445129783	3.76656481079317
13.0	80.50459226810926	pulse	1.0	t		54.0	female	white	2.286908077994429	neutral	136	sub-04	2.0	4.0	136_neutral	0.0		123.62511745925076	
13.0	81.20457334181356	pulse	1.0	t		54.0	female	white	2.286908077994429	neutral	136	sub-04	2.0	4.0	136_neutral	0.0		124.32509853295505	
13.0	81.9045692064019	pulse	1.0	t		54.0	female	white	2.286908077994429	neutral	136	sub-04	2.0	4.0	136_neutral	0.0		125.0250943975434	
13.0	82.60455239308976	pulse	1.0	t		54.0	female	white	2.286908077994429	neutral	136	sub-04	2.0	4.0	136_neutral	0.0		125.72507758423126	
13.0	83.30453708905043	pulse	1.0	t		54.0	female	white	2.286908077994429	neutral	136	sub-04	2.0	4.0	136_neutral	0.0		126.42506228019192	
14.0	84.0210540709495	face	0.0		145	28.0	female	white	5.676880222841227	neutral	124	sub-04	2.0	4.0	124_neutral	0.0		127.141579262091	1.233331351153538
14.0	84.00753429598808	pulse	0.0	t		28.0	female	white	5.676880222841227	neutral	124	sub-04	2.0	4.0	124_neutral	0.0		127.12805948712958	
14.0	84.70451040508578	pulse	0.0	t		28.0	female	white	5.676880222841227	neutral	124	sub-04	2.0	4.0	124_neutral	0.0		127.82503559622728	
14.0	85.25438542210304	fix	1.0		443	28.0	female	white	5.676880222841227	neutral	124	sub-04	2.0	4.0	124_neutral	0.0		128.37491061324454	3.7665675274856767
14.0	85.40449027137038	pulse	1.0	t		28.0	female	white	5.676880222841227	neutral	124	sub-04	2.0	4.0	124_neutral	0.0		128.52501546251187	
14.0	86.10447375991225	pulse	1.0	t		28.0	female	white	5.676880222841227	neutral	124	sub-04	2.0	4.0	124_neutral	0.0		129.22499895105375	
14.0	86.80446479482453	pulse	1.0	t		28.0	female	white	5.676880222841227	neutral	124	sub-04	2.0	4.0	124_neutral	0.0		129.92498998596602	
14.0	87.50444345368942	pulse	1.0	t		28.0	female	white	5.676880222841227	neutral	124	sub-04	2.0	4.0	124_neutral	0.0		130.62496864483091	
14.0	88.20443267747305	pulse	1.0	t		28.0	female	white	5.676880222841227	neutral	124	sub-04	2.0	4.0	124_neutral	0.0		131.32495786861455	
14.0	88.90441586416	pulse	1.0	t		28.0	female	white	5.676880222841227	neutral	124	sub-04	2.0	4.0	124_neutral	0.0		132.0249410553015	
15.0	89.02095294958872	face	0.0		146	20.0	female	white	3.9502586549940313	neutral	091	sub-04	2.0	4.0	091_neutral	0.0		132.14147814073021	1.2333241066380651
15.0	89.60440327681499	pulse	0.0	t		20.0	female	white	3.9502586549940313	neutral	091	sub-04	2.0	4.0	091_neutral	0.0		132.7249284679565	
15.0	90.25427705622678	fix	1.0		443	20.0	female	white	3.9502586549940313	neutral	091	sub-04	2.0	4.0	091_neutral	0.0		133.37480224736828	3.766569942325077
15.0	90.30438284124466	pulse	1.0	t		20.0	female	white	3.9502586549940313	neutral	091	sub-04	2.0	4.0	091_neutral	0.0		133.42490803238616	
15.0	91.00437327244708	pulse	1.0	t		20.0	female	white	3.9502586549940313	neutral	091	sub-04	2.0	4.0	091_neutral	0.0		134.12489846358858	
15.0	91.70436642034292	pulse	1.0	t		20.0	female	white	3.9502586549940313	neutral	091	sub-04	2.0	4.0	091_neutral	0.0		134.82489161148442	
15.0	92.40433934396697	pulse	1.0	t		20.0	female	white	3.9502586549940313	neutral	091	sub-04	2.0	4.0	091_neutral	0.0		135.52486453510846	
15.0	93.10432977516939	pulse	1.0	t		20.0	female	white	3.9502586549940313	neutral	091	sub-04	2.0	4.0	091_neutral	0.0		136.2248549663109	
15.0	93.80431537669483	pulse	1.0	t		20.0	female	white	3.9502586549940313	neutral	091	sub-04	2.0	4.0	091_neutral	0.0		136.92484056783633	
16.0	94.02084699855186	face	0.0		145	31.0	female	white	2.1822522881018704	neutral	102	sub-04	2.0	4.0	102_neutral	0.0		137.14137218969336	1.2333280307502719
16.0	94.50429795967284	pulse	0.0	t		31.0	female	white	2.1822522881018704	neutral	102	sub-04	2.0	4.0	102_neutral	0.0		137.62482315081434	
16.0	95.20431102998555	pulse	0.0	t		31.0	female	white	2.1822522881018704	neutral	102	sub-04	2.0	4.0	102_neutral	0.0		138.32483622112704	
16.0	95.25417502930213	fix	1.0		444	31.0	female	white	2.1822522881018704	neutral	102	sub-04	2.0	4.0	102_neutral	0.0		138.37470022044363	3.766568433050452
16.0	95.90425769224112	pulse	1.0	t		31.0	female	white	2.1822522881018704	neutral	102	sub-04	2.0	4.0	102_neutral	0.0		139.0247828833826	
16.0	96.6042538586853	pulse	1.0	t		31.0	female	white	2.1822522881018704	neutral	102	sub-04	2.0	4.0	102_neutral	0.0		139.7247790498268	
16.0	97.30424036577551	pulse	1.0	t		31.0	female	white	2.1822522881018704	neutral	102	sub-04	2.0	4.0	102_neutral	0.0		140.424765556917	
16.0	98.00421238383478	pulse	1.0	t		31.0	female	white	2.1822522881018704	neutral	102	sub-04	2.0	4.0	102_neutral	0.0		141.12473757497628	
16.0	98.70420975769775	pulse	1.0	t		31.0	female	white	2.1822522881018704	neutral	102	sub-04	2.0	4.0	102_neutral	0.0		141.82473494883925	
17.0	99.02074346235258	face	0.0		145	36.0	female	white	2.7548746518105847	neutral	011	sub-04	2.0	4.0	011_neutral	0.0		142.14126865349408	1.23332380478314
17.0	99.4042080371255	pulse	0.0	t		36.0	female	white	2.7548746518105847	neutral	011	sub-04	2.0	4.0	011_neutral	0.0		142.524733228267	
17.0	100.1041767347815	pulse	0.0	t		36.0	female	white	2.7548746518105847	neutral	011	sub-04	2.0	4.0	011_neutral	0.0		143.224701925923	
17.0	100.25406726713572	fix	1.0		444	36.0	female	white	2.7548746518105847	neutral	011	sub-04	2.0	4.0	011_neutral	0.0		143.37459245827722	3.7583742824535875
17.0	100.80416595856514	pulse	1.0	t		36.0	female	white	2.7548746518105847	neutral	011	sub-04	2.0	4.0	011_neutral	0.0		143.92469114970663	
17.0	101.50414522113988	pulse	1.0	t		36.0	female	white	2.7548746518105847	neutral	011	sub-04	2.0	4.0	011_neutral	0.0		144.62467041228138	
17.0	102.20414199129391	pulse	1.0	t		36.0	female	white	2.7548746518105847	neutral	011	sub-04	2.0	4.0	011_neutral	0.0		145.3246671824354	
17.0	102.90412004644895	pulse	1.0	t		36.0	female	white	2.7548746518105847	neutral	011	sub-04	2.0	4.0	011_neutral	0.0		146.02464523759045	
17.0	103.60411530732836	pulse	1.0	t		36.0	female	white	2.7548746518105847	neutral	011	sub-04	2.0	4.0	011_neutral	0.0		146.72464049846985	
18.0	104.01244154958931	face	0.0		146	31.0	female	east_asian	3.395941106247513	neutral	087	sub-04	2.0	4.0	087_neutral	0.0		147.1329667407308	1.2415203702194049
18.0	104.30409487175802	pulse	0.0	t		31.0	female	east_asian	3.395941106247513	neutral	087	sub-04	2.0	4.0	087_neutral	0.0		147.42462006289952	
18.0	105.0040732287689	pulse	0.0	t		31.0	female	east_asian	3.395941106247513	neutral	087	sub-04	2.0	4.0	087_neutral	0.0		148.1245984199104	
18.0	105.25396191980872	fix	1.0		444	31.0	female	east_asian	3.395941106247513	neutral	087	sub-04	2.0	4.0	087_neutral	0.0		148.3744871109502	3.766568131195527
18.0	105.70406818779338	pulse	1.0	t		31.0	female	east_asian	3.395941106247513	neutral	087	sub-04	2.0	4.0	087_neutral	0.0		148.82459337893488	
18.0	106.40405590230239	pulse	1.0	t		31.0	female	east_asian	3.395941106247513	neutral	087	sub-04	2.0	4.0	087_neutral	0.0		149.52458109344389	
18.0	107.10403214632879	pulse	1.0	t		31.0	female	east_asian	3.395941106247513	neutral	087	sub-04	2.0	4.0	087_neutral	0.0		150.2245573374703	
18.0	107.80402499237061	pulse	1.0	t		31.0	female	east_asian	3.395941106247513	neutral	087	sub-04	2.0	4.0	087_neutral	0.0		150.9245501835121	
18.0	108.50400516050922	pulse	1.0	t		31.0	female	east_asian	3.395941106247513	neutral	087	sub-04	2.0	4.0	087_neutral	0.0		151.62453035165072	
19.0	109.02053005100424	face	0.0		145	21.0	male	black	2.969757262236371	neutral	137	sub-04	2.0	4.0	137_neutral	0.0		152.14105524214574	1.2333277288953468
19.0	109.2040088733238	pulse	0.0	t		21.0	male	black	2.969757262236371	neutral	137	sub-04	2.0	4.0	137_neutral	0.0		152.3245340644653	
19.0	109.90397847654458	pulse	0.0	t		21.0	male	black	2.969757262236371	neutral	137	sub-04	2.0	4.0	137_neutral	0.0		153.02450366768608	
19.0	110.25385777989959	fix	1.0		444	21.0	male	black	2.969757262236371	neutral	137	sub-04	2.0	4.0	137_neutral	0.0		153.3743829710411	3.766570847888943
19.0	110.60396226694138	pulse	1.0	t		21.0	male	black	2.969757262236371	neutral	137	sub-04	2.0	4.0	137_neutral	0.0		153.72448745808288	
19.0	111.30395722596586	pulse	1.0	t		21.0	male	black	2.969757262236371	neutral	137	sub-04	2.0	4.0	137_neutral	0.0		154.42448241710736	
19.0	112.00394282749221	pulse	1.0	t		21.0	male	black	2.969757262236371	neutral	137	sub-04	2.0	4.0	137_neutral	0.0		155.1244680186337	
19.0	112.70391816595384	pulse	1.0	t		21.0	male	black	2.969757262236371	neutral	137	sub-04	2.0	4.0	137_neutral	0.0		155.82444335709533	
19.0	113.40388686361075	pulse	1.0	t		21.0	male	black	2.969757262236371	neutral	137	sub-04	2.0	4.0	137_neutral	0.0		156.52441205475225	
20.0	114.02042862778853	face	0.0		145	23.0	male	white	2.6275368085953046	smiling	141	sub-04	2.0	4.0	141_smiling	1.0	dominance	157.14095381893003	1.2333213899455586
20.0	114.10389118013427	pulse	0.0	t		23.0	male	white	2.6275368085953046	smiling	141	sub-04	2.0	4.0	141_smiling	1.0	dominance	157.22441637127577	
20.0	114.80386712230575	pulse	0.0	t		23.0	male	white	2.6275368085953046	smiling	141	sub-04	2.0	4.0	141_smiling	1.0	dominance	157.92439231344724	
20.0	115.25375001773409	fix	1.0		177	23.0	male	white	2.6275368085953046	smiling	141	sub-04	2.0	4.0	141_smiling	1.0	dominance	158.3742752088756	1.4999699654463257
20.0	115.50386328874993	pulse	1.0	t		23.0	male	white	2.6275368085953046	smiling	141	sub-04	2.0	4.0	141_smiling	1.0	dominance	158.62438847989142	
20.0	116.20383892906739	pulse	1.0	t		23.0	male	white	2.6275368085953046	smiling	141	sub-04	2.0	4.0	141_smiling	1.0	dominance	159.32436412020888	
20.0	116.75371998318042	rating	2.0		294	23.0	male	white	2.6275368085953046	smiling	141	sub-04	2.0	4.0	141_smiling	1.0	dominance	159.8742451743219	2.4999464207712663
20.0	116.89858040702711	pulse	2.0	t		23.0	male	white	2.6275368085953046	smiling	141	sub-04	2.0	4.0	141_smiling	1.0	dominance	160.0191055981686	
20.0	117.59854397315121	pulse	2.0	t		23.0	male	white	2.6275368085953046	smiling	141	sub-04	2.0	4.0	141_smiling	1.0	dominance	160.7190691642927	
20.0	118.09546550689993	response	2.0	e		23.0	male	white	2.6275368085953046	smiling	141	sub-04	2.0	4.0	141_smiling	1.0	dominance	161.21599069804142	
20.0	118.2985313858062	pulse	2.0	t		23.0	male	white	2.6275368085953046	smiling	141	sub-04	2.0	4.0	141_smiling	1.0	dominance	161.4190565769477	
20.0	119.00377861847664	pulse	2.0	t		23.0	male	white	2.6275368085953046	smiling	141	sub-04	2.0	4.0	141_smiling	1.0	dominance	162.12430380961814	
20.0	119.25366640395168	fix	3.0		1185	23.0	male	white	2.6275368085953046	smiling	141	sub-04	2.0	4.0	141_smiling	1.0	dominance	162.37419159509318	10.016438710947114
20.0	119.70376995524384	pulse	3.0	t		23.0	male	white	2.6275368085953046	smiling	141	sub-04	2.0	4.0	141_smiling	1.0	dominance	162.82429514638534	
20.0	120.40375495305943	pulse	3.0	t		23.0	male	white	2.6275368085953046	smiling	141	sub-04	2.0	4.0	141_smiling	1.0	dominance	163.52428014420093	
20.0	121.10373783789237	pulse	3.0	t		23.0	male	white	2.6275368085953046	smiling	141	sub-04	2.0	4.0	141_smiling	1.0	dominance	164.22426302903386	
20.0	121.80372494869152	pulse	3.0	t		23.0	male	white	2.6275368085953046	smiling	141	sub-04	2.0	4.0	141_smiling	1.0	dominance	164.92425013983302	
20.0	122.5037020982827	pulse	3.0	t		23.0	male	white	2.6275368085953046	smiling	141	sub-04	2.0	4.0	141_smiling	1.0	dominance	165.6242272894242	
20.0	123.20367804045509	pulse	3.0	t		23.0	male	white	2.6275368085953046	smiling	141	sub-04	2.0	4.0	141_smiling	1.0	dominance	166.32420323159658	
20.0	123.90368175326876	pulse	3.0	t		23.0	male	white	2.6275368085953046	smiling	141	sub-04	2.0	4.0	141_smiling	1.0	dominance	167.02420694441025	
20.0	124.60365950656978	pulse	3.0	t		23.0	male	white	2.6275368085953046	smiling	141	sub-04	2.0	4.0	141_smiling	1.0	dominance	167.72418469771128	
20.0	125.30363907099945	pulse	3.0	t		23.0	male	white	2.6275368085953046	smiling	141	sub-04	2.0	4.0	141_smiling	1.0	dominance	168.42416426214095	
20.0	126.0036500283286	pulse	3.0	t		23.0	male	white	2.6275368085953046	smiling	141	sub-04	2.0	4.0	141_smiling	1.0	dominance	169.1241752194701	
20.0	126.70362295195264	pulse	3.0	t		23.0	male	white	2.6275368085953046	smiling	141	sub-04	2.0	4.0	141_smiling	1.0	dominance	169.82414814309413	
20.0	127.4036049312208	pulse	3.0	t		23.0	male	white	2.6275368085953046	smiling	141	sub-04	2.0	4.0	141_smiling	1.0	dominance	170.5241301223623	
20.0	128.1035926457298	pulse	3.0	t		23.0	male	white	2.6275368085953046	smiling	141	sub-04	2.0	4.0	141_smiling	1.0	dominance	171.2241178368713	
20.0	128.80358609548057	pulse	3.0	t		23.0	male	white	2.6275368085953046	smiling	141	sub-04	2.0	4.0	141_smiling	1.0	dominance	171.92411128662206	
21.0	129.2701051148988	face	0.0		145	19.0	male	white	2.243931555909272	smiling	130	sub-04	2.0	4.0	130_smiling	0.0		172.3906303060403	1.2333247103479152
21.0	129.50360912700216	pulse	0.0	t		19.0	male	white	2.243931555909272	smiling	130	sub-04	2.0	4.0	130_smiling	0.0		172.62413431814366	
21.0	130.20353677240473	pulse	0.0	t		19.0	male	white	2.243931555909272	smiling	130	sub-04	2.0	4.0	130_smiling	0.0		173.32406196354623	
21.0	130.5034298252467	fix	1.0		444	19.0	male	white	2.243931555909272	smiling	130	sub-04	2.0	4.0	130_smiling	0.0		173.6239550163882	3.766571753453718
21.0	130.90353474997755	pulse	1.0	t		19.0	male	white	2.243931555909272	smiling	130	sub-04	2.0	4.0	130_smiling	0.0		174.02405994111905	
21.0	131.60351703110064	pulse	1.0	t		19.0	male	white	2.243931555909272	smiling	130	sub-04	2.0	4.0	130_smiling	0.0		174.72404222224213	
21.0	132.30350474560964	pulse	1.0	t		19.0	male	white	2.243931555909272	smiling	130	sub-04	2.0	4.0	130_smiling	0.0		175.42402993675114	
21.0	133.0034879322975	pulse	1.0	t		19.0	male	white	2.243931555909272	smiling	130	sub-04	2.0	4.0	130_smiling	0.0		176.124013123439	
21.0	133.70347745793515	pulse	1.0	t		19.0	male	white	2.243931555909272	smiling	130	sub-04	2.0	4.0	130_smiling	0.0		176.82400264907665	
22.0	134.27000157870043	face	0.0		145	28.0	male	east_asian	1.5563072025467568	smiling	005	sub-04	2.0	4.0	005_smiling	0.0		177.39052676984193	1.2333225973643493
22.0	134.403460644623	pulse	0.0	t		28.0	male	east_asian	1.5563072025467568	smiling	005	sub-04	2.0	4.0	005_smiling	0.0		177.5239858357645	
22.0	135.10343839792313	pulse	0.0	t		28.0	male	east_asian	1.5563072025467568	smiling	005	sub-04	2.0	4.0	005_smiling	0.0		178.22396358906462	
22.0	135.50332417606478	fix	1.0		444	28.0	male	east_asian	1.5563072025467568	smiling	005	sub-04	2.0	4.0	005_smiling	0.0		178.62384936720628	3.7582221476304767
22.0	135.80343335694852	pulse	1.0	t		28.0	male	east_asian	1.5563072025467568	smiling	005	sub-04	2.0	4.0	005_smiling	0.0		178.92395854809	
22.0	136.50340839355522	pulse	1.0	t		28.0	male	east_asian	1.5563072025467568	smiling	005	sub-04	2.0	4.0	005_smiling	0.0		179.62393358469672	
22.0	137.2034033525806	pulse	1.0	t		28.0	male	east_asian	1.5563072025467568	smiling	005	sub-04	2.0	4.0	005_smiling	0.0		180.3239285437221	
22.0	137.90337899289716	pulse	1.0	t		28.0	male	east_asian	1.5563072025467568	smiling	005	sub-04	2.0	4.0	005_smiling	0.0		181.02390418403866	
22.0	138.60336278329396	pulse	1.0	t		28.0	male	east_asian	1.5563072025467568	smiling	005	sub-04	2.0	4.0	005_smiling	0.0		181.72388797443546	
23.0	139.26154632369526	face	0.0		146	22.0	male	black	2.767608436132113	neutral	044	sub-04	2.0	4.0	044_neutral	0.0		182.38207151483675	1.2416728068965313
23.0	139.30335744046442	pulse	0.0	t		22.0	male	black	2.767608436132113	neutral	044	sub-04	2.0	4.0	044_neutral	0.0		182.42388263160592	
23.0	140.00334304198987	pulse	0.0	t		22.0	male	black	2.767608436132113	neutral	044	sub-04	2.0	4.0	044_neutral	0.0		183.12386823313136	
23.0	140.5032191305918	fix	1.0		443	22.0	male	black	2.767608436132113	neutral	044	sub-04	2.0	4.0	044_neutral	0.0		183.62374432173328	3.7665726590175836
23.0	140.70332683238667	pulse	1.0	t		22.0	male	black	2.767608436132113	neutral	044	sub-04	2.0	4.0	044_neutral	0.0		183.82385202352816	
23.0	141.40330549125156	pulse	1.0	t		22.0	male	black	2.767608436132113	neutral	044	sub-04	2.0	4.0	044_neutral	0.0		184.52383068239305	
23.0	142.1032732833437	pulse	1.0	t		22.0	male	black	2.767608436132113	neutral	044	sub-04	2.0	4.0	044_neutral	0.0		185.2237984744852	
23.0	142.80327337390008	pulse	1.0	t		22.0	male	black	2.767608436132113	neutral	044	sub-04	2.0	4.0	044_neutral	0.0		185.92379856504158	
23.0	143.50325897542552	pulse	1.0	t		22.0	male	black	2.767608436132113	neutral	044	sub-04	2.0	4.0	044_neutral	0.0		186.62378416656702	
23.0	144.20323884171012	pulse	1.0	t		22.0	male	black	2.767608436132113	neutral	044	sub-04	2.0	4.0	044_neutral	0.0		187.3237640328516	
24.0	144.26979178960937	face	0.0		146	24.0	female	black	3.0955033824114606	smiling	099	sub-04	2.0	4.0	099_smiling	0.0		187.39031698075087	1.2333250122028403
24.0	144.90323953597635	pulse	0.0	t		24.0	female	black	3.0955033824114606	smiling	099	sub-04	2.0	4.0	099_smiling	0.0		188.02376472711785	
24.0	145.5031168018122	fix	1.0		443	24.0	female	black	3.0955033824114606	smiling	099	sub-04	2.0	4.0	099_smiling	0.0		188.6236419929537	3.766566320066886
24.0	145.60328882886643	pulse	1.0	t		24.0	female	black	3.0955033824114606	smiling	099	sub-04	2.0	4.0	099_smiling	0.0		188.72381402000792	
24.0	146.30319957039956	pulse	1.0	t		24.0	female	black	3.0955033824114606	smiling	099	sub-04	2.0	4.0	099_smiling	0.0		189.42372476154105	
24.0	147.00319422757002	pulse	1.0	t		24.0	female	black	3.0955033824114606	smiling	099	sub-04	2.0	4.0	099_smiling	0.0		190.12371941871152	
24.0	147.70318133836918	pulse	1.0	t		24.0	female	black	3.0955033824114606	smiling	099	sub-04	2.0	4.0	099_smiling	0.0		190.82370652951067	
24.0	148.40316512876598	pulse	1.0	t		24.0	female	black	3.0955033824114606	smiling	099	sub-04	2.0	4.0	099_smiling	0.0		191.52369031990747	
24.0	149.1031465043252	pulse	1.0	t		24.0	female	black	3.0955033824114606	smiling	099	sub-04	2.0	4.0	099_smiling	0.0		192.2236716954667	
25.0	149.2696831218791	face	0.0		146	26.0	male	white	2.7966573816155993	smiling	117	sub-04	2.0	4.0	117_smiling	0.0		192.3902083130206	1.233326219621631
25.0	149.80313995407505	pulse	0.0	t		26.0	male	white	2.7966573816155993	smiling	117	sub-04	2.0	4.0	117_smiling	0.0		192.92366514521655	
25.0	150.50300934150073	fix	1.0		444	26.0	male	white	2.7966573816155993	smiling	117	sub-04	2.0	4.0	117_smiling	0.0		193.62353453264222	3.766573564582359
25.0	150.51065079594537	pulse	1.0	t		26.0	male	white	2.7966573816155993	smiling	117	sub-04	2.0	4.0	117_smiling	0.0		193.63117598708686	
25.0	151.2031042144663	pulse	1.0	t		26.0	male	white	2.7966573816155993	smiling	117	sub-04	2.0	4.0	117_smiling	0.0		194.3236294056078	
25.0	151.90309011784666	pulse	1.0	t		26.0	male	white	2.7966573816155993	smiling	117	sub-04	2.0	4.0	117_smiling	0.0		195.02361530898816	
25.0	152.60308930283918	pulse	1.0	t		26.0	male	white	2.7966573816155993	smiling	117	sub-04	2.0	4.0	117_smiling	0.0		195.72361449398068	
25.0	153.30305468009283	pulse	1.0	t		26.0	male	white	2.7966573816155993	smiling	117	sub-04	2.0	4.0	117_smiling	0.0		196.42357987123432	
25.0	154.00307318379237	pulse	1.0	t		26.0	male	white	2.7966573816155993	smiling	117	sub-04	2.0	4.0	117_smiling	0.0		197.12359837493386	
26.0	154.2695829060831	face	0.0		145	20.0	female	white	3.9502586549940313	smiling	091	sub-04	2.0	4.0	091_smiling	0.0		197.39010809722458	1.233320484379874
26.0	154.7030307128207	pulse	0.0	t		20.0	female	white	3.9502586549940313	smiling	091	sub-04	2.0	4.0	091_smiling	0.0		197.8235559039622	
26.0	155.4030108809602	pulse	0.0	t		20.0	female	white	3.9502586549940313	smiling	091	sub-04	2.0	4.0	091_smiling	0.0		198.5235360721017	
26.0	155.50290339046296	fix	1.0		444	20.0	female	white	3.9502586549940313	smiling	091	sub-04	2.0	4.0	091_smiling	0.0		198.62342858160446	3.766572357163568
26.0	156.10300553812976	pulse	1.0	t		20.0	female	white	3.9502586549940313	smiling	091	sub-04	2.0	4.0	091_smiling	0.0		199.22353072927126	
26.0	156.80298510255943	pulse	1.0	t		20.0	female	white	3.9502586549940313	smiling	091	sub-04	2.0	4.0	091_smiling	0.0		199.92351029370093	
26.0	157.50296557255297	pulse	1.0	t		20.0	female	white	3.9502586549940313	smiling	091	sub-04	2.0	4.0	091_smiling	0.0		200.62349076369446	
26.0	158.2029713983511	pulse	1.0	t		20.0	female	white	3.9502586549940313	smiling	091	sub-04	2.0	4.0	091_smiling	0.0		201.3234965894926	
26.0	158.90293768116953	pulse	1.0	t		20.0	female	white	3.9502586549940313	smiling	091	sub-04	2.0	4.0	091_smiling	0.0		202.02346287231103	
27.0	159.26947574762653	face	0.0		145	24.0	male	white	3.1153999204138483	smiling	012	sub-04	2.0	4.0	012_smiling	1.0	attractiveness	202.39000093876803	1.2333141454291763
27.0	159.6029338476128	pulse	0.0	t		24.0	male	white	3.1153999204138483	smiling	012	sub-04	2.0	4.0	012_smiling	1.0	attractiveness	202.7234590387543	
27.0	160.30291099720398	pulse	0.0	t		24.0	male	white	3.1153999204138483	smiling	012	sub-04	2.0	4.0	012_smiling	1.0	attractiveness	203.42343618834548	
27.0	160.5027898930557	fix	1.0		177	24.0	male	white	3.1153999204138483	smiling	012	sub-04	2.0	4.0	012_smiling	1.0	attractiveness	203.6233150841972	1.4999829452035556
27.0	161.00289810800405	pulse	1.0	t		24.0	male	white	3.1153999204138483	smiling	012	sub-04	2.0	4.0	012_smiling	1.0	attractiveness	204.12342329914554	
27.0	161.70288974662617	pulse	1.0	t		24.0	male	white	3.1153999204138483	smiling	012	sub-04	2.0	4.0	012_smiling	1.0	attractiveness	204.82341493776767	
27.0	162.00277283825926	rating	2.0		295	24.0	male	white	3.1153999204138483	smiling	012	sub-04	2.0	4.0	012_smiling	1.0	attractiveness	205.12329802940076	2.4999421948041345
27.0	162.39761341515168	pulse	2.0	t		24.0	male	white	3.1153999204138483	smiling	012	sub-04	2.0	4.0	012_smiling	1.0	attractiveness	205.51813860629318	
27.0	163.0975694349063	pulse	2.0	t		24.0	male	white	3.1153999204138483	smiling	012	sub-04	2.0	4.0	012_smiling	1.0	attractiveness	206.2180946260478	
27.0	163.67260978534796	response	2.0	b		24.0	male	white	3.1153999204138483	smiling	012	sub-04	2.0	4.0	012_smiling	1.0	attractiveness	206.79313497648945	
27.0	163.79758401449362	pulse	2.0	t		24.0	male	white	3.1153999204138483	smiling	012	sub-04	2.0	4.0	012_smiling	1.0	attractiveness	206.91810920563512	
27.0	164.5027150330634	fix	3.0		443	24.0	male	white	3.1153999204138483	smiling	012	sub-04	2.0	4.0	012_smiling	1.0	attractiveness	207.6232402242049	3.766571451598793
27.0	164.5105635599066	pulse	3.0	t		24.0	male	white	3.1153999204138483	smiling	012	sub-04	2.0	4.0	012_smiling	1.0	attractiveness	207.63108875104808	
27.0	165.20281383014208	pulse	3.0	t		24.0	male	white	3.1153999204138483	smiling	012	sub-04	2.0	4.0	012_smiling	1.0	attractiveness	208.32333902128357	
27.0	165.90279490384546	pulse	3.0	t		24.0	male	white	3.1153999204138483	smiling	012	sub-04	2.0	4.0	012_smiling	1.0	attractiveness	209.02332009498696	
27.0	166.6027765812587	pulse	3.0	t		24.0	male	white	3.1153999204138483	smiling	012	sub-04	2.0	4.0	012_smiling	1.0	attractiveness	209.7233017724002	
27.0	167.30276731431604	pulse	3.0	t		24.0	male	white	3.1153999204138483	smiling	012	sub-04	2.0	4.0	012_smiling	1.0	attractiveness	210.42329250545754	
27.0	168.0027532176964	pulse	3.0	t		24.0	male	white	3.1153999204138483	smiling	012	sub-04	2.0	4.0	012_smiling	1.0	attractiveness	211.1232784088379	
28.0	168.2692864846622	face	0.0		145	37.0	male	white	3.898925586947871	neutral	101	sub-04	2.0	4.0	101_neutral	0.0		211.38981167580368	1.23332320107329
28.0	168.7027370080932	pulse	0.0	t		37.0	male	white	3.898925586947871	neutral	101	sub-04	2.0	4.0	101_neutral	0.0		211.8232621992347	
28.0	169.40273166526276	pulse	0.0	t		37.0	male	white	3.898925586947871	neutral	101	sub-04	2.0	4.0	101_neutral	0.0		212.52325685640426	
28.0	169.50260968573548	fix	1.0		444	37.0	male	white	3.898925586947871	neutral	101	sub-04	2.0	4.0	101_neutral	0.0		212.62313487687697	3.766571451598793
28.0	170.10270881485394	pulse	1.0	t		37.0	male	white	3.898925586947871	neutral	101	sub-04	2.0	4.0	101_neutral	0.0		213.22323400599544	
28.0	170.80269169968687	pulse	1.0	t		37.0	male	white	3.898925586947871	neutral	101	sub-04	2.0	4.0	101_neutral	0.0		213.92321689082837	
28.0	171.50267398080996	pulse	1.0	t		37.0	male	white	3.898925586947871	neutral	101	sub-04	2.0	4.0	101_neutral	0.0		214.62319917195146	
28.0	172.20266501572132	pulse	1.0	t		37.0	male	white	3.898925586947871	neutral	101	sub-04	2.0	4.0	101_neutral	0.0		215.32319020686282	
28.0	172.90264518386084	pulse	1.0	t		37.0	male	white	3.898925586947871	neutral	101	sub-04	2.0	4.0	101_neutral	0.0		216.02317037500234	
29.0	173.26918113733427	face	0.0		145	27.0	male	black	3.5523278949462798	neutral	042	sub-04	2.0	4.0	042_neutral	0.0		216.38970632847577	1.2333213899446491
29.0	173.60263501135432	pulse	0.0	t		27.0	male	black	3.5523278949462798	neutral	042	sub-04	2.0	4.0	042_neutral	0.0		216.72316020249582	
29.0	174.30261397207414	pulse	0.0	t		27.0	male	black	3.5523278949462798	neutral	042	sub-04	2.0	4.0	042_neutral	0.0		217.42313916321564	
29.0	174.50250252727892	fix	1.0		444	27.0	male	black	3.5523278949462798	neutral	042	sub-04	2.0	4.0	042_neutral	0.0		217.62302771842042	3.766573866437284
29.0	175.0026010828733	pulse	1.0	t		27.0	male	black	3.5523278949462798	neutral	042	sub-04	2.0	4.0	042_neutral	0.0		218.1231262740148	
29.0	175.70258698625366	pulse	1.0	t		27.0	male	black	3.5523278949462798	neutral	042	sub-04	2.0	4.0	042_neutral	0.0		218.82311217739516	
29.0	176.40256805995796	pulse	1.0	t		27.0	male	black	3.5523278949462798	neutral	042	sub-04	2.0	4.0	042_neutral	0.0		219.52309325109945	
29.0	177.10255668003174	pulse	1.0	t		27.0	male	black	3.5523278949462798	neutral	042	sub-04	2.0	4.0	042_neutral	0.0		220.22308187117324	
29.0	177.80252718881638	pulse	1.0	t		27.0	male	black	3.5523278949462798	neutral	042	sub-04	2.0	4.0	042_neutral	0.0		220.92305237995788	
30.0	178.2690763937162	face	0.0		145	24.0	male	white	3.1153999204138483	neutral	012	sub-04	2.0	4.0	012_neutral	0.0		221.3896015848577	1.233322899218365
30.0	178.50253210904975	pulse	0.0	t		24.0	male	white	3.1153999204138483	neutral	012	sub-04	2.0	4.0	012_neutral	0.0		221.62305730019125	
30.0	179.202508654932	pulse	0.0	t		24.0	male	white	3.1153999204138483	neutral	012	sub-04	2.0	4.0	012_neutral	0.0		222.32303384607349	
30.0	179.50239929293457	fix	1.0		444	24.0	male	white	3.1153999204138483	neutral	012	sub-04	2.0	4.0	012_neutral	0.0		222.62292448407607	3.766573564582359
30.0	179.9025015009729	pulse	1.0	t		24.0	male	white	3.1153999204138483	neutral	012	sub-04	2.0	4.0	012_neutral	0.0		223.0230266921144	
30.0	180.6024852913697	pulse	1.0	t		24.0	male	white	3.1153999204138483	neutral	012	sub-04	2.0	4.0	012_neutral	0.0		223.7230104825112	
30.0	181.3024932301514	pulse	1.0	t		24.0	male	white	3.1153999204138483	neutral	012	sub-04	2.0	4.0	012_neutral	0.0		224.4230184212929	
30.0	182.00245830555014	pulse	1.0	t		24.0	male	white	3.1153999204138483	neutral	012	sub-04	2.0	4.0	012_neutral	0.0		225.12298349669163	
30.0	182.70244239780186	pulse	1.0	t		24.0	male	white	3.1153999204138483	neutral	012	sub-04	2.0	4.0	012_neutral	0.0		225.82296758894336	
31.0	183.26897285751693	face	0.0		145	40.0	female	west_asian	1.5777954635893354	neutral	038	sub-04	2.0	4.0	038_neutral	0.0		226.38949804865842	1.2333204843807835
31.0	183.4024331308592	pulse	0.0	t		40.0	female	west_asian	1.5777954635893354	neutral	038	sub-04	2.0	4.0	038_neutral	0.0		226.5229583220007	
31.0	184.10240877117576	pulse	0.0	t		40.0	female	west_asian	1.5777954635893354	neutral	038	sub-04	2.0	4.0	038_neutral	0.0		227.22293396231726	
31.0	184.5022933418977	fix	1.0		444	40.0	female	west_asian	1.5777954635893354	neutral	038	sub-04	2.0	4.0	038_neutral	0.0		227.6228185330392	3.766571451598793
31.0	184.80240373020024	pulse	1.0	t		40.0	female	west_asian	1.5777954635893354	neutral	038	sub-04	2.0	4.0	038_neutral	0.0		227.92292892134174	
31.0	185.50236639076138	pulse	1.0	t		40.0	female	west_asian	1.5777954635893354	neutral	038	sub-04	2.0	4.0	038_neutral	0.0		228.62289158190288	
31.0	186.20237161284876	pulse	1.0	t		40.0	female	west_asian	1.5777954635893354	neutral	038	sub-04	2.0	4.0	038_neutral	0.0		229.32289680399026	
31.0	186.90235811993898	pulse	1.0	t		40.0	female	west_asian	1.5777954635893354	neutral	038	sub-04	2.0	4.0	038_neutral	0.0		230.02288331108048	
31.0	187.60234281590056	pulse	1.0	t		40.0	female	west_asian	1.5777954635893354	neutral	038	sub-04	2.0	4.0	038_neutral	0.0		230.72286800704205	
32.0	188.2688647934965	face	0.0		145	31.0	female	west_asian	2.364902506963788	smiling	006	sub-04	2.0	4.0	006_smiling	0.0		231.389389984638	1.233323502928215
32.0	188.3024081070953	pulse	0.0	t		31.0	female	west_asian	2.364902506963788	smiling	006	sub-04	2.0	4.0	006_smiling	0.0		231.42293329823679	
32.0	189.0023058688721	pulse	0.0	t		31.0	female	west_asian	2.364902506963788	smiling	006	sub-04	2.0	4.0	006_smiling	0.0		232.1228310600136	
32.0	189.50218829642472	fix	1.0		443	31.0	female	west_asian	2.364902506963788	smiling	006	sub-04	2.0	4.0	006_smiling	0.0		232.62271348756622	3.7665705460340178
32.0	189.70229630007452	pulse	1.0	t		31.0	female	west_asian	2.364902506963788	smiling	006	sub-04	2.0	4.0	006_smiling	0.0		232.82282149121602	
32.0	190.40228129789102	pulse	1.0	t		31.0	female	west_asian	2.364902506963788	smiling	006	sub-04	2.0	4.0	006_smiling	0.0		233.52280648903252	
32.0	191.1022623715944	pulse	1.0	t		31.0	female	west_asian	2.364902506963788	smiling	006	sub-04	2.0	4.0	006_smiling	0.0		234.2227875627359	
32.0	191.80224948239447	pulse	1.0	t		31.0	female	west_asian	2.364902506963788	smiling	006	sub-04	2.0	4.0	006_smiling	0.0		234.92277467353597	
32.0	192.50223448021006	pulse	1.0	t		31.0	female	west_asian	2.364902506963788	smiling	006	sub-04	2.0	4.0	006_smiling	0.0		235.62275967135156	
32.0	193.20220891310782	pulse	1.0	t		31.0	female	west_asian	2.364902506963788	smiling	006	sub-04	2.0	4.0	006_smiling	0.0		236.32273410424932	
33.0	193.26875884245874	face	0.0		146	24.0	female	east_asian	4.409868682849185	neutral	030	sub-04	2.0	4.0	030_neutral	0.0		236.38928403360023	1.2333213899446491
33.0	193.9022126259224	pulse	0.0	t		24.0	female	east_asian	4.409868682849185	neutral	030	sub-04	2.0	4.0	030_neutral	0.0		237.0227378170639	
33.0	194.5020802324034	fix	1.0		443	24.0	female	east_asian	4.409868682849185	neutral	030	sub-04	2.0	4.0	030_neutral	0.0		237.62260542354488	3.766570244180002
33.0	194.6022090942206	pulse	1.0	t		24.0	female	east_asian	4.409868682849185	neutral	030	sub-04	2.0	4.0	030_neutral	0.0		237.7227342853621	
33.0	195.3021587750245	pulse	1.0	t		24.0	female	east_asian	4.409868682849185	neutral	030	sub-04	2.0	4.0	030_neutral	0.0		238.422683966166	
33.0	196.00216067670954	pulse	1.0	t		24.0	female	east_asian	4.409868682849185	neutral	030	sub-04	2.0	4.0	030_neutral	0.0		239.12268586785103	
33.0	196.70215744686357	pulse	1.0	t		24.0	female	east_asian	4.409868682849185	neutral	030	sub-04	2.0	4.0	030_neutral	0.0		239.82268263800506	
33.0	197.40211920185902	pulse	1.0	t		24.0	female	east_asian	4.409868682849185	neutral	030	sub-04	2.0	4.0	030_neutral	0.0		240.52264439300052	
33.0	198.1021192924154	pulse	1.0	t		24.0	female	east_asian	4.409868682849185	neutral	030	sub-04	2.0	4.0	030_neutral	0.0		241.2226444835569	
34.0	198.2686504765834	face	0.0		146	26.0	male	white	2.7966573816155993	neutral	117	sub-04	2.0	4.0	117_neutral	0.0		241.38917566772488	1.2333271251854967
34.0	198.80211968482672	pulse	0.0	t		26.0	male	white	2.7966573816155993	neutral	117	sub-04	2.0	4.0	117_neutral	0.0		241.92264487596822	
34.0	199.50197760176889	fix	1.0		444	26.0	male	white	2.7966573816155993	neutral	117	sub-04	2.0	4.0	117_neutral	0.0		242.62250279291038	3.7665708478898523
34.0	199.50955083702775	pulse	1.0	t		26.0	male	white	2.7966573816155993	neutral	117	sub-04	2.0	4.0	117_neutral	0.0		242.63007602816924	
34.0	200.2020718710255	pulse	1.0	t		26.0	male	white	2.7966573816155993	neutral	117	sub-04	2.0	4.0	117_neutral	0.0		243.322597062167	
34.0	200.90205475585844	pulse	1.0	t		26.0	male	white	2.7966573816155993	neutral	117	sub-04	2.0	4.0	117_neutral	0.0		244.02257994699994	
34.0	201.6020430740773	pulse	1.0	t		26.0	male	white	2.7966573816155993	neutral	117	sub-04	2.0	4.0	117_neutral	0.0		244.7225682652188	
34.0	202.3020280718929	pulse	1.0	t		26.0	male	white	2.7966573816155993	neutral	117	sub-04	2.0	4.0	117_neutral	0.0		245.4225532630344	
34.0	203.00201488083803	pulse	1.0	t		26.0	male	white	2.7966573816155993	neutral	117	sub-04	2.0	4.0	117_neutral	0.0		246.12254007197953	
35.0	203.26854844965874	face	0.0		145	24.0	female	east_asian	2.9076800636689217	smiling	034	sub-04	2.0	4.0	034_smiling	1.0	trustworthiness	246.38907364080023	1.2333219936535897
35.0	203.7020031990569	pulse	0.0	t		24.0	female	east_asian	2.9076800636689217	smiling	034	sub-04	2.0	4.0	034_smiling	1.0	trustworthiness	246.82252839019839	
35.0	204.401980650503	pulse	0.0	t		24.0	female	east_asian	2.9076800636689217	smiling	034	sub-04	2.0	4.0	034_smiling	1.0	trustworthiness	247.5225058416445	
35.0	204.50187044331233	fix	1.0		177	24.0	female	east_asian	2.9076800636689217	smiling	034	sub-04	2.0	4.0	034_smiling	1.0	trustworthiness	247.62239563445382	1.4999711728660259
35.0	205.10198013734953	pulse	1.0	t		24.0	female	east_asian	2.9076800636689217	smiling	034	sub-04	2.0	4.0	034_smiling	1.0	trustworthiness	248.22250532849102	
35.0	205.80194642016795	pulse	1.0	t		24.0	female	east_asian	2.9076800636689217	smiling	034	sub-04	2.0	4.0	034_smiling	1.0	trustworthiness	248.92247161130945	
35.0	206.00184161617835	rating	2.0		295	24.0	female	east_asian	2.9076800636689217	smiling	034	sub-04	2.0	4.0	034_smiling	1.0	trustworthiness	249.12236680731985	2.4999479300458916
35.0	206.49668125732114	pulse	2.0	t		24.0	female	east_asian	2.9076800636689217	smiling	034	sub-04	2.0	4.0	034_smiling	1.0	trustworthiness	249.61720644846264	
35.0	207.1967251168253	pulse	2.0	t		24.0	female	east_asian	2.9076800636689217	smiling	034	sub-04	2.0	4.0	034_smiling	1.0	trustworthiness	250.3172503079668	
35.0	207.36332874614618	response	2.0	y		24.0	female	east_asian	2.9076800636689217	smiling	034	sub-04	2.0	4.0	034_smiling	1.0	trustworthiness	250.48385393728768	
35.0	207.90190895998603	pulse	2.0	t		24.0	female	east_asian	2.9076800636689217	smiling	034	sub-04	2.0	4.0	034_smiling	1.0	trustworthiness	251.02243415112753	
35.0	208.50178954622424	fix	3.0		443	24.0	female	east_asian	2.9076800636689217	smiling	034	sub-04	2.0	4.0	034_smiling	1.0	trustworthiness	251.62231473736574	3.766568433050452
35.0	208.60199477730748	pulse	3.0	t		24.0	female	east_asian	2.9076800636689217	smiling	034	sub-04	2.0	4.0	034_smiling	1.0	trustworthiness	251.72251996844898	
35.0	209.30187080553878	pulse	3.0	t		24.0	female	east_asian	2.9076800636689217	smiling	034	sub-04	2.0	4.0	034_smiling	1.0	trustworthiness	252.42239599668028	
35.0	210.00184403101684	pulse	3.0	t		24.0	female	east_asian	2.9076800636689217	smiling	034	sub-04	2.0	4.0	034_smiling	1.0	trustworthiness	253.12236922215834	
35.0	210.7018652514098	pulse	3.0	t		24.0	female	east_asian	2.9076800636689217	smiling	034	sub-04	2.0	4.0	034_smiling	1.0	trustworthiness	253.8223904425513	
35.0	211.40182308229305	pulse	3.0	t		24.0	female	east_asian	2.9076800636689217	smiling	034	sub-04	2.0	4.0	034_smiling	1.0	trustworthiness	254.52234827343455	
35.0	212.10184369897706	pulse	3.0	t		24.0	female	east_asian	2.9076800636689217	smiling	034	sub-04	2.0	4.0	034_smiling	1.0	trustworthiness	255.22236889011856	
36.0	212.2683579792747	face	0.0		146	25.0	female	black	3.858336649423	smiling	126	sub-04	2.0	4.0	126_smiling	0.0		255.3888831704162	1.23332380478314
36.0	212.80180967993965	pulse	0.0	t		25.0	female	black	3.858336649423	smiling	126	sub-04	2.0	4.0	126_smiling	0.0		255.92233487108115	
36.0	213.50168178405784	fix	1.0		444	25.0	female	black	3.858336649423	smiling	126	sub-04	2.0	4.0	126_smiling	0.0		256.62220697519933	3.766574470147134
36.0	213.50919977988724	pulse	1.0	t		25.0	female	black	3.858336649423	smiling	126	sub-04	2.0	4.0	126_smiling	0.0		256.62972497102874	
36.0	214.20177333662105	pulse	1.0	t		25.0	female	black	3.858336649423	smiling	126	sub-04	2.0	4.0	126_smiling	0.0		257.32229852776254	
36.0	214.90175501403428	pulse	1.0	t		25.0	female	black	3.858336649423	smiling	126	sub-04	2.0	4.0	126_smiling	0.0		258.0222802051758	
36.0	215.60175268975217	pulse	1.0	t		25.0	female	black	3.858336649423	smiling	126	sub-04	2.0	4.0	126_smiling	0.0		258.72227788089367	
36.0	216.30173104676305	pulse	1.0	t		25.0	female	black	3.858336649423	smiling	126	sub-04	2.0	4.0	126_smiling	0.0		259.42225623790455	
36.0	217.0017217798204	pulse	1.0	t		25.0	female	black	3.858336649423	smiling	126	sub-04	2.0	4.0	126_smiling	0.0		260.1222469709619	
37.0	217.26825625420497	face	0.0		145	27.0	female	white	4.181058495821727	smiling	039	sub-04	2.0	4.0	039_smiling	0.0		260.38878144534647	1.233321088089724
37.0	217.70170768320077	pulse	0.0	t		27.0	female	white	4.181058495821727	smiling	039	sub-04	2.0	4.0	039_smiling	0.0		260.82223287434226	
37.0	218.40168845504923	pulse	0.0	t		27.0	female	white	4.181058495821727	smiling	039	sub-04	2.0	4.0	039_smiling	0.0		261.5222136461907	
37.0	218.5015773422947	fix	1.0		444	27.0	female	white	4.181058495821727	smiling	039	sub-04	2.0	4.0	039_smiling	0.0		261.6221025334362	3.7665705460340178
37.0	219.1016782825427	pulse	1.0	t		27.0	female	white	4.181058495821727	smiling	039	sub-04	2.0	4.0	039_smiling	0.0		262.2222034736842	
37.0	219.80164879132735	pulse	1.0	t		27.0	female	white	4.181058495821727	smiling	039	sub-04	2.0	4.0	039_smiling	0.0		262.92217398246885	
37.0	220.50164103365933	pulse	1.0	t		27.0	female	white	4.181058495821727	smiling	039	sub-04	2.0	4.0	039_smiling	0.0		263.6221662248008	
37.0	221.20162603147492	pulse	1.0	t		27.0	female	white	4.181058495821727	smiling	039	sub-04	2.0	4.0	039_smiling	0.0		264.3221512226164	
37.0	221.90162944243457	pulse	1.0	t		27.0	female	white	4.181058495821727	smiling	039	sub-04	2.0	4.0	039_smiling	0.0		265.02215463357606	
38.0	222.2681478883287	face	0.0		145	40.0	male	white	1.868682849184242	smiling	172	sub-04	2.0	4.0	172_smiling	0.0		265.3886730794702	1.2333232010741995
38.0	222.60160659202575	pulse	0.0	t		40.0	male	white	1.868682849184242	smiling	172	sub-04	2.0	4.0	172_smiling	0.0		265.72213178316724	
38.0	223.30158253419722	pulse	0.0	t		40.0	male	white	1.868682849184242	smiling	172	sub-04	2.0	4.0	172_smiling	0.0		266.4221077253387	
38.0	223.5014710894029	fix	1.0		444	40.0	male	white	1.868682849184242	smiling	172	sub-04	2.0	4.0	172_smiling	0.0		266.6219962805444	3.758274670366518
38.0	224.0015747765292	pulse	1.0	t		40.0	male	white	1.868682849184242	smiling	172	sub-04	2.0	4.0	172_smiling	0.0		267.1220999676707	
38.0	224.70156158547434	pulse	1.0	t		40.0	male	white	1.868682849184242	smiling	172	sub-04	2.0	4.0	172_smiling	0.0		267.82208677661583	
38.0	225.40154054619416	pulse	1.0	t		40.0	male	white	1.868682849184242	smiling	172	sub-04	2.0	4.0	172_smiling	0.0		268.52206573733565	
38.0	226.10153097739658	pulse	1.0	t		40.0	male	white	1.868682849184242	smiling	172	sub-04	2.0	4.0	172_smiling	0.0		269.2220561685381	
38.0	226.80149665650515	pulse	1.0	t		40.0	male	white	1.868682849184242	smiling	172	sub-04	2.0	4.0	172_smiling	0.0		269.92202184764665	
39.0	227.25974575976943	face	0.0		146	19.0	male	white	3.2522881018702745	neutral	018	sub-04	2.0	4.0	018_neutral	0.0		270.3802709509109	1.241620586015415
39.0	227.50150851939907	pulse	0.0	t		19.0	male	white	3.2522881018702745	neutral	018	sub-04	2.0	4.0	018_neutral	0.0		270.62203371054056	
39.0	228.20147933003864	pulse	0.0	t		19.0	male	white	3.2522881018702745	neutral	018	sub-04	2.0	4.0	018_neutral	0.0		271.32200452118013	
39.0	228.50136634578485	fix	1.0		444	19.0	male	white	3.2522881018702745	neutral	018	sub-04	2.0	4.0	018_neutral	0.0		271.62189153692634	3.749919329302429
39.0	228.90147006309599	pulse	1.0	t		19.0	male	white	3.2522881018702745	neutral	018	sub-04	2.0	4.0	018_neutral	0.0		272.0219952542375	
39.0	229.60145475905756	pulse	1.0	t		19.0	male	white	3.2522881018702745	neutral	018	sub-04	2.0	4.0	018_neutral	0.0		272.72197995019906	
39.0	230.3014530384853	pulse	1.0	t		19.0	male	white	3.2522881018702745	neutral	018	sub-04	2.0	4.0	018_neutral	0.0		273.4219782296268	
39.0	231.00142716952814	pulse	1.0	t		19.0	male	white	3.2522881018702745	neutral	018	sub-04	2.0	4.0	018_neutral	0.0		274.12195236066964	
39.0	231.70141397847328	pulse	1.0	t		19.0	male	white	3.2522881018702745	neutral	018	sub-04	2.0	4.0	018_neutral	0.0		274.8219391696148	
40.0	232.25128567508727	fix	0.0		720													275.37181086622877	5.999868391304517
40.0	232.40140018370857	pulse	0.0	t														275.52192537485007	
40.0	233.1013767295899	pulse	0.0	t														276.2219019207314	
40.0	233.8013629348252	pulse	0.0	t														276.9218881259667	
40.0	234.50134974377033	pulse	0.0	t														277.62187493491183	
40.0	235.20134530650466	pulse	0.0	t														278.32187049764616	
40.0	235.9013143060156	pulse	0.0	t														279.0218394971571	
40.0	236.60130805762128	pulse	0.0	t														279.7218332487628	
40.0	237.30128973503452	pulse	0.0	t														280.421814926176	
40.0	238.001279864382	pulse	0.0	t														281.1218050555235	
