trial_nr	onset	event_type	phase	response	nr_frames	face_age	face_sex	face_eth	attractiveness	expression	face_id	sub_id	ses	run	trial_type	catch	rating_type	onset_abs	duration
-1.0	0.06131388756193701	fix	0.0		713													28.004261862294697	5.957861323305224
-1.0	0.7027771380171544	pulse	0.0	t														28.645725112749915	
-1.0	1.4027479488336212	pulse	0.0	t														29.34569592356638	
-1.0	2.102729928210465	pulse	0.0	t														30.045677902943225	
-1.0	2.8027158316763234	pulse	0.0	t														30.745663806409084	
-1.0	3.5027011314359697	pulse	0.0	t														31.44564910616873	
-1.0	4.202693675666978	pulse	0.0	t														32.14564165039974	
-1.0	4.902864011306519	pulse	0.0	t														32.84581198603928	
-1.0	5.602639221388472	pulse	0.0	t														33.54558719612123	
0.0	6.019175210867161	face	0.0		144	25.0	female	west_asian	2.6756864305610826	neutral	064	sub-12	2.0	3.0	064_neutral	0.0		33.96212318559992	1.2333091146620063
0.0	6.302628445237133	pulse	0.0	t		25.0	female	west_asian	2.6756864305610826	neutral	064	sub-12	2.0	3.0	064_neutral	0.0		34.24557641996989	
0.0	7.002608915348901	pulse	0.0	t		25.0	female	west_asian	2.6756864305610826	neutral	064	sub-12	2.0	3.0	064_neutral	0.0		34.94555689008166	
0.0	7.252484325529167	fix	1.0		444	25.0	female	west_asian	2.6756864305610826	neutral	064	sub-12	2.0	3.0	064_neutral	0.0		35.19543230026193	3.7582085146086683
0.0	7.702599044756425	pulse	1.0	t		25.0	female	west_asian	2.6756864305610826	neutral	064	sub-12	2.0	3.0	064_neutral	0.0		35.645547019489186	
0.0	8.402561705542212	pulse	1.0	t		25.0	female	west_asian	2.6756864305610826	neutral	064	sub-12	2.0	3.0	064_neutral	0.0		36.34550968027497	
0.0	9.10254338306595	pulse	1.0	t		25.0	female	west_asian	2.6756864305610826	neutral	064	sub-12	2.0	3.0	064_neutral	0.0		37.04549135779871	
0.0	9.80252838097249	pulse	1.0	t		25.0	female	west_asian	2.6756864305610826	neutral	064	sub-12	2.0	3.0	064_neutral	0.0		37.74547635570525	
0.0	10.502500399200926	pulse	1.0	t		25.0	female	west_asian	2.6756864305610826	neutral	064	sub-12	2.0	3.0	064_neutral	0.0		38.44544837393369	
1.0	11.010692840137835	face	0.0		146	40.0	male	white	1.868682849184242	neutral	172	sub-12	2.0	3.0	172_neutral	0.0		38.953640814870596	1.2416577645190046
1.0	11.20249686752095	pulse	0.0	t		40.0	male	white	1.868682849184242	neutral	172	sub-12	2.0	3.0	172_neutral	0.0		39.14544484225371	
1.0	11.902468282043174	pulse	0.0	t		40.0	male	white	1.868682849184242	neutral	172	sub-12	2.0	3.0	172_neutral	0.0		39.845416256775934	
1.0	12.25235060465684	fix	1.0		444	40.0	male	white	1.868682849184242	neutral	172	sub-12	2.0	3.0	172_neutral	0.0		40.1952985793896	3.7582311535825283
1.0	12.602456600332516	pulse	1.0	t		40.0	male	white	1.868682849184242	neutral	172	sub-12	2.0	3.0	172_neutral	0.0		40.54540457506528	
1.0	13.302440390827542	pulse	1.0	t		40.0	male	white	1.868682849184242	neutral	172	sub-12	2.0	3.0	172_neutral	0.0		41.2453883655603	
1.0	14.002420257233098	pulse	1.0	t		40.0	male	white	1.868682849184242	neutral	172	sub-12	2.0	3.0	172_neutral	0.0		41.94536823196586	
1.0	14.702401029197972	pulse	1.0	t		40.0	male	white	1.868682849184242	neutral	172	sub-12	2.0	3.0	172_neutral	0.0		42.64534900393073	
1.0	15.402387234516937	pulse	1.0	t		40.0	male	white	1.868682849184242	neutral	172	sub-12	2.0	3.0	172_neutral	0.0		43.3453352092497	
2.0	16.01058175823937	face	0.0		146	37.0	male	white	3.898925586947871	smiling	101	sub-12	2.0	3.0	101_smiling	0.0		43.95352973297213	1.2416327107216603
2.0	16.10236227127507	pulse	0.0	t		37.0	male	white	3.898925586947871	smiling	101	sub-12	2.0	3.0	101_smiling	0.0		44.04531024600783	
2.0	16.80233278023843	pulse	0.0	t		37.0	male	white	3.898925586947871	smiling	101	sub-12	2.0	3.0	101_smiling	0.0		44.74528075497119	
2.0	17.25221446896103	fix	1.0		444	37.0	male	white	3.898925586947871	smiling	101	sub-12	2.0	3.0	101_smiling	0.0		45.19516244369379	3.758216362786243
2.0	17.50233226708815	pulse	1.0	t		37.0	male	white	3.898925586947871	smiling	101	sub-12	2.0	3.0	101_smiling	0.0		45.44528024182091	
2.0	18.202299455668708	pulse	1.0	t		37.0	male	white	3.898925586947871	smiling	101	sub-12	2.0	3.0	101_smiling	0.0		46.14524743040147	
2.0	18.902281435045552	pulse	1.0	t		37.0	male	white	3.898925586947871	smiling	101	sub-12	2.0	3.0	101_smiling	0.0		46.84522940977831	
2.0	19.602269451482243	pulse	1.0	t		37.0	male	white	3.898925586947871	smiling	101	sub-12	2.0	3.0	101_smiling	0.0		47.545217426215004	
2.0	20.302246299358103	pulse	1.0	t		37.0	male	white	3.898925586947871	smiling	101	sub-12	2.0	3.0	101_smiling	0.0		48.24519427409086	
3.0	21.01043083174727	face	0.0		146	24.0	female	east_asian	2.9076800636689217	smiling	034	sub-12	2.0	3.0	034_smiling	0.0		48.95337880648003	1.2416511237533996
3.0	21.00315436369283	pulse	0.0	t		24.0	female	east_asian	2.9076800636689217	smiling	034	sub-12	2.0	3.0	034_smiling	0.0		48.94610233842559	
3.0	21.702221426672168	pulse	0.0	t		24.0	female	east_asian	2.9076800636689217	smiling	034	sub-12	2.0	3.0	034_smiling	0.0		49.64516940140493	
3.0	22.25208195550067	fix	1.0		443	24.0	female	east_asian	2.9076800636689217	smiling	034	sub-12	2.0	3.0	034_smiling	0.0		50.19502993023343	3.758232360994043
3.0	22.402196161577194	pulse	1.0	t		24.0	female	east_asian	2.9076800636689217	smiling	034	sub-12	2.0	3.0	034_smiling	0.0		50.345144136309955	
3.0	23.102171500188433	pulse	1.0	t		24.0	female	east_asian	2.9076800636689217	smiling	034	sub-12	2.0	3.0	034_smiling	0.0		51.045119474921194	
3.0	23.802157705506943	pulse	1.0	t		24.0	female	east_asian	2.9076800636689217	smiling	034	sub-12	2.0	3.0	034_smiling	0.0		51.7451056802397	
3.0	24.50213545894212	pulse	1.0	t		24.0	female	east_asian	2.9076800636689217	smiling	034	sub-12	2.0	3.0	034_smiling	0.0		52.44508343367488	
3.0	25.202110495700254	pulse	1.0	t		24.0	female	east_asian	2.9076800636689217	smiling	034	sub-12	2.0	3.0	034_smiling	0.0		53.145058470433014	
3.0	25.90209730472452	pulse	1.0	t		24.0	female	east_asian	2.9076800636689217	smiling	034	sub-12	2.0	3.0	034_smiling	0.0		53.84504527945728	
4.0	26.010314316494714	face	0.0		147	22.0	female	west_asian	3.8205332272184642	neutral	066	sub-12	2.0	3.0	066_neutral	0.0		53.953262291227475	1.2416327107216603
4.0	26.602082604484167	pulse	0.0	t		22.0	female	west_asian	3.8205332272184642	neutral	066	sub-12	2.0	3.0	066_neutral	0.0		54.54503057921693	
4.0	27.251947027216374	fix	1.0		443	22.0	female	west_asian	3.8205332272184642	neutral	066	sub-12	2.0	3.0	066_neutral	0.0		55.194895001949135	3.7583153705650147
4.0	27.30205884865427	pulse	1.0	t		22.0	female	west_asian	3.8205332272184642	neutral	066	sub-12	2.0	3.0	066_neutral	0.0		55.24500682338703	
4.0	28.002044752120128	pulse	1.0	t		22.0	female	west_asian	3.8205332272184642	neutral	066	sub-12	2.0	3.0	066_neutral	0.0		55.94499272685289	
4.0	28.702025222231896	pulse	1.0	t		22.0	female	west_asian	3.8205332272184642	neutral	066	sub-12	2.0	3.0	066_neutral	0.0		56.644973196964656	
4.0	29.40201354052124	pulse	1.0	t		22.0	female	west_asian	3.8205332272184642	neutral	066	sub-12	2.0	3.0	066_neutral	0.0		57.344961515254	
4.0	30.101980427249146	pulse	1.0	t		22.0	female	west_asian	3.8205332272184642	neutral	066	sub-12	2.0	3.0	066_neutral	0.0		58.044928401981906	
4.0	30.801968141832276	pulse	1.0	t		22.0	female	west_asian	3.8205332272184642	neutral	066	sub-12	2.0	3.0	066_neutral	0.0		58.74491611656504	
5.0	31.01026239778139	face	0.0		146	28.0	female	white	5.676880222841227	smiling	124	sub-12	2.0	3.0	124_smiling	0.0		58.95321037251415	1.2415493992975826
5.0	31.501952234179953	pulse	0.0	t		28.0	female	white	5.676880222841227	smiling	124	sub-12	2.0	3.0	124_smiling	0.0		59.44490020891271	
5.0	32.201930893173994	pulse	0.0	t		28.0	female	white	5.676880222841227	smiling	124	sub-12	2.0	3.0	124_smiling	0.0		60.144878867906755	
5.0	32.25181179707897	fix	1.0		444	28.0	female	white	5.676880222841227	smiling	124	sub-12	2.0	3.0	124_smiling	0.0		60.19475977181173	3.7583099372113793
5.0	32.90192192814038	pulse	1.0	t		28.0	female	white	5.676880222841227	smiling	124	sub-12	2.0	3.0	124_smiling	0.0		60.84486990287314	
5.0	33.601894550074576	pulse	1.0	t		28.0	female	white	5.676880222841227	smiling	124	sub-12	2.0	3.0	124_smiling	0.0		61.544842524807336	
5.0	34.30188226465816	pulse	1.0	t		28.0	female	white	5.676880222841227	smiling	124	sub-12	2.0	3.0	124_smiling	0.0		62.24483023939092	
5.0	35.00188748671508	pulse	1.0	t		28.0	female	white	5.676880222841227	smiling	124	sub-12	2.0	3.0	124_smiling	0.0		62.94483546144784	
5.0	35.70186252347321	pulse	1.0	t		28.0	female	white	5.676880222841227	smiling	124	sub-12	2.0	3.0	124_smiling	0.0		63.64481049820597	
6.0	36.01012173429035	face	0.0		146	21.0	male	black	2.969757262236371	neutral	137	sub-12	2.0	3.0	137_neutral	0.0		63.95306970902311	1.241556945622051
6.0	36.40182367499392	pulse	0.0	t		21.0	male	black	2.969757262236371	neutral	137	sub-12	2.0	3.0	137_neutral	0.0		64.34477164972668	
6.0	37.101796296928114	pulse	0.0	t		21.0	male	black	2.969757262236371	neutral	137	sub-12	2.0	3.0	137_neutral	0.0		65.04474427166087	
6.0	37.2516786799124	fix	1.0		444	21.0	male	black	2.969757262236371	neutral	137	sub-12	2.0	3.0	137_neutral	0.0		65.19462665464516	3.7582230035523025
6.0	37.80179125598352	pulse	1.0	t		21.0	male	black	2.969757262236371	neutral	137	sub-12	2.0	3.0	137_neutral	0.0		65.74473923071628	
6.0	38.501771726095285	pulse	1.0	t		21.0	male	black	2.969757262236371	neutral	137	sub-12	2.0	3.0	137_neutral	0.0		66.44471970082805	
6.0	39.201764270326294	pulse	1.0	t		21.0	male	black	2.969757262236371	neutral	137	sub-12	2.0	3.0	137_neutral	0.0		67.14471224505905	
6.0	39.90172361072928	pulse	1.0	t		21.0	male	black	2.969757262236371	neutral	137	sub-12	2.0	3.0	137_neutral	0.0		67.84467158546204	
6.0	40.60169411969264	pulse	1.0	t		21.0	male	black	2.969757262236371	neutral	137	sub-12	2.0	3.0	137_neutral	0.0		68.5446420944254	
7.0	41.009901683464705	face	0.0		146	24.0	female	east_asian	4.409868682849185	smiling	030	sub-12	2.0	3.0	030_smiling	0.0		68.95284965819747	1.241651425606051
7.0	41.301689984306904	pulse	0.0	t		24.0	female	east_asian	4.409868682849185	smiling	030	sub-12	2.0	3.0	030_smiling	0.0		69.24463795903966	
7.0	42.00167407665458	pulse	0.0	t		24.0	female	east_asian	4.409868682849185	smiling	030	sub-12	2.0	3.0	030_smiling	0.0		69.94462205138734	
7.0	42.251553109070755	fix	1.0		444	24.0	female	east_asian	4.409868682849185	smiling	030	sub-12	2.0	3.0	030_smiling	0.0		70.19450108380352	3.766563201525514
7.0	42.70165183008976	pulse	1.0	t		24.0	female	east_asian	4.409868682849185	smiling	030	sub-12	2.0	3.0	030_smiling	0.0		70.64459980482252	
7.0	43.40162988537759	pulse	1.0	t		24.0	female	east_asian	4.409868682849185	smiling	030	sub-12	2.0	3.0	030_smiling	0.0		71.34457786011035	
7.0	44.101610355489356	pulse	1.0	t		24.0	female	east_asian	4.409868682849185	smiling	030	sub-12	2.0	3.0	030_smiling	0.0		72.04455833022212	
7.0	44.80159444783703	pulse	1.0	t		24.0	female	east_asian	4.409868682849185	smiling	030	sub-12	2.0	3.0	030_smiling	0.0		72.7445424225698	
7.0	45.501574917949256	pulse	1.0	t		24.0	female	east_asian	4.409868682849185	smiling	030	sub-12	2.0	3.0	030_smiling	0.0		73.44452289268202	
8.0	46.01811631059627	face	0.0		145	40.0	female	west_asian	1.5777954635893354	smiling	038	sub-12	2.0	3.0	038_smiling	0.0		73.96106428532903	1.2333036813083709
8.0	46.20156263253239	pulse	0.0	t		40.0	female	west_asian	1.5777954635893354	smiling	038	sub-12	2.0	3.0	038_smiling	0.0		74.14451060726515	
8.0	46.901534047055065	pulse	0.0	t		40.0	female	west_asian	1.5777954635893354	smiling	038	sub-12	2.0	3.0	038_smiling	0.0		74.84448202178783	
8.0	47.25141999190464	fix	1.0		444	40.0	female	west_asian	1.5777954635893354	smiling	038	sub-12	2.0	3.0	038_smiling	0.0		75.1943679666374	3.766541468110063
8.0	47.60154138208236	pulse	1.0	t		40.0	female	west_asian	1.5777954635893354	smiling	038	sub-12	2.0	3.0	038_smiling	0.0		75.54448935681512	
8.0	48.30150343916239	pulse	1.0	t		40.0	female	west_asian	1.5777954635893354	smiling	038	sub-12	2.0	3.0	038_smiling	0.0		76.24445141389515	
8.0	49.001481796303324	pulse	1.0	t		40.0	female	west_asian	1.5777954635893354	smiling	038	sub-12	2.0	3.0	038_smiling	0.0		76.94442977103608	
8.0	49.70146287012085	pulse	1.0	t		40.0	female	west_asian	1.5777954635893354	smiling	038	sub-12	2.0	3.0	038_smiling	0.0		77.64441084485361	
8.0	50.401443038379966	pulse	1.0	t		40.0	female	west_asian	1.5777954635893354	smiling	038	sub-12	2.0	3.0	038_smiling	0.0		78.34439101311273	
9.0	51.0179614600147	face	0.0		145	37.0	male	white	3.898925586947871	neutral	101	sub-12	2.0	3.0	101_neutral	0.0		78.96090943474746	1.233308812809355
9.0	51.10143437519946	pulse	0.0	t		37.0	male	white	3.898925586947871	neutral	101	sub-12	2.0	3.0	101_neutral	0.0		79.04438234993222	
9.0	51.80139582857328	pulse	0.0	t		37.0	male	white	3.898925586947871	neutral	101	sub-12	2.0	3.0	101_neutral	0.0		79.74434380330604	
9.0	52.25127027282406	fix	1.0		444	37.0	male	white	3.898925586947871	neutral	101	sub-12	2.0	3.0	101_neutral	0.0		80.19421824755682	3.766553240376652
9.0	52.50140346545368	pulse	1.0	t		37.0	male	white	3.898925586947871	neutral	101	sub-12	2.0	3.0	101_neutral	0.0		80.44435144018644	
9.0	53.2013685410634	pulse	1.0	t		37.0	male	white	3.898925586947871	neutral	101	sub-12	2.0	3.0	101_neutral	0.0		81.14431651579616	
9.0	53.901349916734034	pulse	1.0	t		37.0	male	white	3.898925586947871	neutral	101	sub-12	2.0	3.0	101_neutral	0.0		81.8442978914668	
9.0	54.60133883872959	pulse	1.0	t		37.0	male	white	3.898925586947871	neutral	101	sub-12	2.0	3.0	101_neutral	0.0		82.54428681346235	
9.0	55.301314781046585	pulse	1.0	t		37.0	male	white	3.898925586947871	neutral	101	sub-12	2.0	3.0	101_neutral	0.0		83.24426275577935	
10.0	56.01782351320071	face	0.0		146	22.0	female	white	4.614007162753682	neutral	009	sub-12	2.0	3.0	009_neutral	0.0		83.96077148793347	1.233326923988443
10.0	56.00401675767034	pulse	0.0	t		22.0	female	white	4.614007162753682	neutral	009	sub-12	2.0	3.0	009_neutral	0.0		83.9469647324031	
10.0	56.70128236203618	pulse	0.0	t		22.0	female	white	4.614007162753682	neutral	009	sub-12	2.0	3.0	009_neutral	0.0		84.64423033676894	
10.0	57.25115043718915	fix	1.0		443	22.0	female	white	4.614007162753682	neutral	009	sub-12	2.0	3.0	009_neutral	0.0		85.19409841192191	3.758194025665034
10.0	57.401261926589086	pulse	1.0	t		22.0	female	white	4.614007162753682	neutral	009	sub-12	2.0	3.0	009_neutral	0.0		85.34420990132185	
10.0	58.10124420781858	pulse	1.0	t		22.0	female	white	4.614007162753682	neutral	009	sub-12	2.0	3.0	009_neutral	0.0		86.04419218255134	
10.0	58.80121864087096	pulse	1.0	t		22.0	female	white	4.614007162753682	neutral	009	sub-12	2.0	3.0	009_neutral	0.0		86.74416661560372	
10.0	59.50119126280515	pulse	1.0	t		22.0	female	white	4.614007162753682	neutral	009	sub-12	2.0	3.0	009_neutral	0.0		87.44413923753791	
10.0	60.2011832033304	pulse	1.0	t		22.0	female	white	4.614007162753682	neutral	009	sub-12	2.0	3.0	009_neutral	0.0		88.14413117806316	
10.0	60.90116095676558	pulse	1.0	t		22.0	female	white	4.614007162753682	neutral	009	sub-12	2.0	3.0	009_neutral	0.0		88.84410893149834	
11.0	61.00934446285419	face	0.0		147	40.0	male	black	2.408674890569041	neutral	061	sub-12	2.0	3.0	061_neutral	0.0		88.95229243758695	1.24167255531529
11.0	61.60115078432	pulse	0.0	t		40.0	male	black	2.408674890569041	neutral	061	sub-12	2.0	3.0	061_neutral	0.0		89.54409875905276	
11.0	62.25101701816948	fix	1.0		443	40.0	male	black	2.408674890569041	neutral	061	sub-12	2.0	3.0	061_neutral	0.0		90.19396499290224	3.766546901464153
11.0	62.301127330343206	pulse	1.0	t		40.0	male	black	2.408674890569041	neutral	061	sub-12	2.0	3.0	061_neutral	0.0		90.24407530507597	
11.0	63.00111112083778	pulse	1.0	t		40.0	male	black	2.408674890569041	neutral	061	sub-12	2.0	3.0	061_neutral	0.0		90.94405909557054	
11.0	63.70108374277197	pulse	1.0	t		40.0	male	black	2.408674890569041	neutral	061	sub-12	2.0	3.0	061_neutral	0.0		91.64403171750473	
11.0	64.40107538144412	pulse	1.0	t		40.0	male	black	2.408674890569041	neutral	061	sub-12	2.0	3.0	061_neutral	0.0		92.34402335617688	
11.0	65.10105373858505	pulse	1.0	t		40.0	male	black	2.408674890569041	neutral	061	sub-12	2.0	3.0	061_neutral	0.0		93.04400171331781	
11.0	65.80104447169879	pulse	1.0	t		40.0	male	black	2.408674890569041	neutral	061	sub-12	2.0	3.0	061_neutral	0.0		93.74399244643155	
12.0	66.01756391963363	face	0.0		145	27.0	female	white	4.181058495821727	smiling	039	sub-12	2.0	3.0	039_smiling	0.0		93.96051189436639	1.2333142461629905
12.0	66.50101890475071	pulse	0.0	t		27.0	female	white	4.181058495821727	smiling	039	sub-12	2.0	3.0	039_smiling	0.0		94.44396687948347	
12.0	67.2009948470677	pulse	0.0	t		27.0	female	white	4.181058495821727	smiling	039	sub-12	2.0	3.0	039_smiling	0.0		95.14394282180047	
12.0	67.25087816579662	fix	1.0		444	27.0	female	white	4.181058495821727	smiling	039	sub-12	2.0	3.0	039_smiling	0.0		95.19382614052938	3.7665502218469555
12.0	67.90098195794553	pulse	1.0	t		27.0	female	white	4.181058495821727	smiling	039	sub-12	2.0	3.0	039_smiling	0.0		95.8439299326783	
12.0	68.600965446587	pulse	1.0	t		27.0	female	white	4.181058495821727	smiling	039	sub-12	2.0	3.0	039_smiling	0.0		96.54391342131976	
12.0	69.30092689996081	pulse	1.0	t		27.0	female	white	4.181058495821727	smiling	039	sub-12	2.0	3.0	039_smiling	0.0		97.24387487469357	
12.0	70.00093242387084	pulse	1.0	t		27.0	female	white	4.181058495821727	smiling	039	sub-12	2.0	3.0	039_smiling	0.0		97.9438803986036	
12.0	70.70090414024617	pulse	1.0	t		27.0	female	white	4.181058495821727	smiling	039	sub-12	2.0	3.0	039_smiling	0.0		98.64385211497893	
13.0	71.01742838764358	face	0.0		145	20.0	male	black	2.609629924393156	smiling	043	sub-12	2.0	3.0	043_smiling	0.0		98.96037636237634	1.233322094340565
13.0	71.40089125112354	pulse	0.0	t		20.0	male	black	2.609629924393156	smiling	043	sub-12	2.0	3.0	043_smiling	0.0		99.3438392258563	
13.0	72.10085904340986	pulse	0.0	t		20.0	male	black	2.609629924393156	smiling	043	sub-12	2.0	3.0	043_smiling	0.0		100.04380701814262	
13.0	72.25075048198414	fix	1.0		444	20.0	male	black	2.609629924393156	smiling	043	sub-12	2.0	3.0	043_smiling	0.0		100.1936984567169	3.7582115331383648
13.0	72.8008530969064	pulse	1.0	t		20.0	male	black	2.609629924393156	smiling	043	sub-12	2.0	3.0	043_smiling	0.0		100.74380107163915	
13.0	73.50082722810521	pulse	1.0	t		20.0	male	black	2.609629924393156	smiling	043	sub-12	2.0	3.0	043_smiling	0.0		101.44377520283797	
13.0	74.20081977233667	pulse	1.0	t		20.0	male	black	2.609629924393156	smiling	043	sub-12	2.0	3.0	043_smiling	0.0		102.14376774706943	
13.0	74.90079903503647	pulse	1.0	t		20.0	male	black	2.609629924393156	smiling	043	sub-12	2.0	3.0	043_smiling	0.0		102.84374700976923	
13.0	75.6007607902634	pulse	1.0	t		20.0	male	black	2.609629924393156	smiling	043	sub-12	2.0	3.0	043_smiling	0.0		103.54370876499615	
14.0	76.0089620151225	face	0.0		146	32.0	male	white	2.389176283326701	smiling	092	sub-12	2.0	3.0	092_smiling	0.0		103.95190998985527	1.241656858960141
14.0	76.30076027711311	pulse	0.0	t		32.0	male	white	2.389176283326701	smiling	092	sub-12	2.0	3.0	092_smiling	0.0		104.24370825184587	
14.0	77.00073199348844	pulse	0.0	t		32.0	male	white	2.389176283326701	smiling	092	sub-12	2.0	3.0	092_smiling	0.0		104.9436799682212	
14.0	77.25061887408265	fix	1.0		444	32.0	male	white	2.389176283326701	smiling	092	sub-12	2.0	3.0	092_smiling	0.0		105.19356684881541	3.7665565607594544
14.0	77.70072000992513	pulse	1.0	t		32.0	male	white	2.389176283326701	smiling	092	sub-12	2.0	3.0	092_smiling	0.0		105.6436679846579	
14.0	78.40069655594834	pulse	1.0	t		32.0	male	white	2.389176283326701	smiling	092	sub-12	2.0	3.0	092_smiling	0.0		106.3436445306811	
14.0	79.10067732791322	pulse	1.0	t		32.0	male	white	2.389176283326701	smiling	092	sub-12	2.0	3.0	092_smiling	0.0		107.04362530264598	
14.0	79.80066051470203	pulse	1.0	t		32.0	male	white	2.389176283326701	smiling	092	sub-12	2.0	3.0	092_smiling	0.0		107.74360848943479	
14.0	80.50064219222577	pulse	1.0	t		32.0	male	white	2.389176283326701	smiling	092	sub-12	2.0	3.0	092_smiling	0.0		108.44359016695853	
15.0	81.0171754348421	face	0.0		145	27.0	female	white	3.504576203740549	neutral	144	sub-12	2.0	3.0	144_neutral	0.0		108.96012340957486	1.2333079072500368
15.0	81.20064047166352	pulse	0.0	t		27.0	female	white	3.504576203740549	neutral	144	sub-12	2.0	3.0	144_neutral	0.0		109.14358844639628	
15.0	81.90060132133158	pulse	0.0	t		27.0	female	white	3.504576203740549	neutral	144	sub-12	2.0	3.0	144_neutral	0.0		109.84354929606434	
15.0	82.25048334209214	fix	1.0		444	27.0	female	white	3.504576203740549	neutral	144	sub-12	2.0	3.0	144_neutral	0.0		110.1934313168249	3.766564710790135
15.0	82.60059024332713	pulse	1.0	t		27.0	female	white	3.504576203740549	neutral	144	sub-12	2.0	3.0	144_neutral	0.0		110.5435382180599	
15.0	83.30056709120299	pulse	1.0	t		27.0	female	white	3.504576203740549	neutral	144	sub-12	2.0	3.0	144_neutral	0.0		111.24351506593575	
15.0	84.00054484463817	pulse	1.0	t		27.0	female	white	3.504576203740549	neutral	144	sub-12	2.0	3.0	144_neutral	0.0		111.94349281937093	
15.0	84.70053316292751	pulse	1.0	t		27.0	female	white	3.504576203740549	neutral	144	sub-12	2.0	3.0	144_neutral	0.0		112.64348113766027	
15.0	85.40051031265648	pulse	1.0	t		27.0	female	white	3.504576203740549	neutral	144	sub-12	2.0	3.0	144_neutral	0.0		113.34345828738924	
16.0	86.01704805288227	face	0.0		145	20.0	male	black	2.609629924393156	neutral	043	sub-12	2.0	3.0	043_neutral	0.0		113.95999602761503	1.2333030776026135
16.0	86.10050466800567	pulse	0.0	t		20.0	male	black	2.609629924393156	neutral	043	sub-12	2.0	3.0	043_neutral	0.0		114.04345264273843	
16.0	86.80048211958774	pulse	0.0	t		20.0	male	black	2.609629924393156	neutral	043	sub-12	2.0	3.0	043_neutral	0.0		114.7434300943205	
16.0	87.25035113048489	fix	1.0		444	20.0	male	black	2.609629924393156	neutral	043	sub-12	2.0	3.0	043_neutral	0.0		115.19329910521765	3.7665411662574115
16.0	87.5004710415833	pulse	1.0	t		20.0	male	black	2.609629924393156	neutral	043	sub-12	2.0	3.0	043_neutral	0.0		115.44341901631606	
16.0	88.20043551348681	pulse	1.0	t		20.0	male	black	2.609629924393156	neutral	043	sub-12	2.0	3.0	043_neutral	0.0		116.14338348821957	
16.0	88.90041387062774	pulse	1.0	t		20.0	male	black	2.609629924393156	neutral	043	sub-12	2.0	3.0	043_neutral	0.0		116.8433618453605	
16.0	89.60040158521133	pulse	1.0	t		20.0	male	black	2.609629924393156	neutral	043	sub-12	2.0	3.0	043_neutral	0.0		117.54334955994409	
16.0	90.30038296088196	pulse	1.0	t		20.0	male	black	2.609629924393156	neutral	043	sub-12	2.0	3.0	043_neutral	0.0		118.24333093561472	
17.0	91.0168922967423	face	0.0		146	31.0	male	west_asian	1.9538400318344609	smiling	070	sub-12	2.0	3.0	070_smiling	0.0		118.95984027147506	1.2333239054582918
17.0	91.00316040075222	pulse	0.0	t		31.0	male	west_asian	1.9538400318344609	smiling	070	sub-12	2.0	3.0	070_smiling	0.0		118.94610837548498	
17.0	91.70034359925285	pulse	0.0	t		31.0	male	west_asian	1.9538400318344609	smiling	070	sub-12	2.0	3.0	070_smiling	0.0		119.6432915739856	
17.0	92.25021620220059	fix	1.0		443	31.0	male	west_asian	1.9538400318344609	smiling	070	sub-12	2.0	3.0	070_smiling	0.0		120.19316417693335	3.7582948445624424
17.0	92.40032557862969	pulse	1.0	t		31.0	male	west_asian	1.9538400318344609	smiling	070	sub-12	2.0	3.0	070_smiling	0.0		120.34327355336245	
17.0	93.1003051431826	pulse	1.0	t		31.0	male	west_asian	1.9538400318344609	smiling	070	sub-12	2.0	3.0	070_smiling	0.0		121.04325311791536	
17.0	93.8002850095886	pulse	1.0	t		31.0	male	west_asian	1.9538400318344609	smiling	070	sub-12	2.0	3.0	070_smiling	0.0		121.74323298432137	
17.0	94.50026819637742	pulse	1.0	t		31.0	male	west_asian	1.9538400318344609	smiling	070	sub-12	2.0	3.0	070_smiling	0.0		122.44321617111018	
17.0	95.20025772207873	pulse	1.0	t		31.0	male	west_asian	1.9538400318344609	smiling	070	sub-12	2.0	3.0	070_smiling	0.0		123.14320569681149	
17.0	95.90022762733633	pulse	1.0	t		31.0	male	west_asian	1.9538400318344609	smiling	070	sub-12	2.0	3.0	070_smiling	0.0		123.8431756020691	
18.0	96.00851104676303	face	0.0		147	27.0	female	white	3.504576203740549	smiling	144	sub-12	2.0	3.0	144_smiling	0.0		123.9514590214958	1.241563888240762
18.0	96.6002144363606	pulse	0.0	t		27.0	female	white	3.504576203740549	smiling	144	sub-12	2.0	3.0	144_smiling	0.0		124.54316241109336	
18.0	97.2500749350038	fix	1.0		443	27.0	female	white	3.504576203740549	smiling	144	sub-12	2.0	3.0	144_smiling	0.0		125.19302290973656	3.7665544477886215
18.0	97.30019551017858	pulse	1.0	t		27.0	female	white	3.504576203740549	smiling	144	sub-12	2.0	3.0	144_smiling	0.0		125.24314348491134	
18.0	98.00017567843724	pulse	1.0	t		27.0	female	white	3.504576203740549	smiling	144	sub-12	2.0	3.0	144_smiling	0.0		125.94312365317	
18.0	98.7001549411375	pulse	1.0	t		27.0	female	white	3.504576203740549	smiling	144	sub-12	2.0	3.0	144_smiling	0.0		126.64310291587026	
18.0	99.40013812792631	pulse	1.0	t		27.0	female	white	3.504576203740549	smiling	144	sub-12	2.0	3.0	144_smiling	0.0		127.34308610265907	
18.0	100.1001137683902	pulse	1.0	t		27.0	female	white	3.504576203740549	smiling	144	sub-12	2.0	3.0	144_smiling	0.0		128.04306174312296	
18.0	100.80010661447432	pulse	1.0	t		27.0	female	white	3.504576203740549	smiling	144	sub-12	2.0	3.0	144_smiling	0.0		128.74305458920708	
19.0	101.01662938279242	face	0.0		145	27.0	male	black	3.5523278949462798	smiling	042	sub-12	2.0	3.0	042_smiling	1.0	dominance	128.95957735752518	1.2333121331921575
19.0	101.50008738643919	pulse	0.0	t		27.0	male	black	3.5523278949462798	smiling	042	sub-12	2.0	3.0	042_smiling	1.0	dominance	129.44303536117195	
19.0	102.2000606120796	pulse	0.0	t		27.0	male	black	3.5523278949462798	smiling	042	sub-12	2.0	3.0	042_smiling	1.0	dominance	130.14300858681236	
19.0	102.24994151598457	fix	1.0		177	27.0	male	black	3.5523278949462798	smiling	042	sub-12	2.0	3.0	042_smiling	1.0	dominance	130.19288949071733	1.5083255581034791
19.0	102.90004259145644	pulse	1.0	t		27.0	male	black	3.5523278949462798	smiling	042	sub-12	2.0	3.0	042_smiling	1.0	dominance	130.8429905661892	
19.0	103.60002306156821	pulse	1.0	t		27.0	male	black	3.5523278949462798	smiling	042	sub-12	2.0	3.0	042_smiling	1.0	dominance	131.54297103630097	
19.0	103.75826707408805	rating	2.0		294	27.0	male	black	3.5523278949462798	smiling	042	sub-12	2.0	3.0	042_smiling	1.0	dominance	131.7012150488208	2.491570906322522
19.0	104.30001379468149	pulse	2.0	t		27.0	male	black	3.5523278949462798	smiling	042	sub-12	2.0	3.0	042_smiling	1.0	dominance	132.24296176941425	
19.0	105.00003984459408	pulse	2.0	t		27.0	male	black	3.5523278949462798	smiling	042	sub-12	2.0	3.0	042_smiling	1.0	dominance	132.94298781932685	
19.0	105.566680380854	response	2.0	e		27.0	male	black	3.5523278949462798	smiling	042	sub-12	2.0	3.0	042_smiling	1.0	dominance	133.50962835558676	
19.0	105.70002574805994	pulse	2.0	t		27.0	male	black	3.5523278949462798	smiling	042	sub-12	2.0	3.0	042_smiling	1.0	dominance	133.6429737227927	
19.0	106.24983798041058	fix	3.0		443	27.0	male	black	3.5523278949462798	smiling	042	sub-12	2.0	3.0	042_smiling	1.0	dominance	134.19278595514334	3.766550825552713
19.0	106.39995188463445	pulse	3.0	t		27.0	male	black	3.5523278949462798	smiling	042	sub-12	2.0	3.0	042_smiling	1.0	dominance	134.3428998593672	
19.0	107.09993839180606	pulse	3.0	t		27.0	male	black	3.5523278949462798	smiling	042	sub-12	2.0	3.0	042_smiling	1.0	dominance	135.04288636653882	
19.0	107.79991463597617	pulse	3.0	t		27.0	male	black	3.5523278949462798	smiling	042	sub-12	2.0	3.0	042_smiling	1.0	dominance	135.74286261070893	
19.0	108.49990235055975	pulse	3.0	t		27.0	male	black	3.5523278949462798	smiling	042	sub-12	2.0	3.0	042_smiling	1.0	dominance	136.4428503252925	
19.0	109.19987165211114	pulse	3.0	t		27.0	male	black	3.5523278949462798	smiling	042	sub-12	2.0	3.0	042_smiling	1.0	dominance	137.1428196268439	
19.0	109.89985332963488	pulse	3.0	t		27.0	male	black	3.5523278949462798	smiling	042	sub-12	2.0	3.0	042_smiling	1.0	dominance	137.84280130436764	
20.0	110.01638880596329	face	0.0		146	24.0	female	east_asian	4.409868682849185	neutral	030	sub-12	2.0	3.0	030_neutral	0.0		137.95933678069605	1.233315151721854
20.0	110.59984466645437	pulse	0.0	t		24.0	female	east_asian	4.409868682849185	neutral	030	sub-12	2.0	3.0	030_neutral	0.0		138.54279264118713	
20.0	111.24970395768514	fix	1.0		1184	24.0	female	east_asian	4.409868682849185	neutral	030	sub-12	2.0	3.0	030_neutral	0.0		139.1926519324179	10.008071246963937
20.0	111.29982151433023	pulse	1.0	t		24.0	female	east_asian	4.409868682849185	neutral	030	sub-12	2.0	3.0	030_neutral	0.0		139.242769489063	
20.0	111.99979987147117	pulse	1.0	t		24.0	female	east_asian	4.409868682849185	neutral	030	sub-12	2.0	3.0	030_neutral	0.0		139.94274784620393	
20.0	112.69978245455377	pulse	1.0	t		24.0	female	east_asian	4.409868682849185	neutral	030	sub-12	2.0	3.0	030_neutral	0.0		140.64273042928653	
20.0	113.39976413207796	pulse	1.0	t		24.0	female	east_asian	4.409868682849185	neutral	030	sub-12	2.0	3.0	030_neutral	0.0		141.34271210681072	
20.0	114.0997424892189	pulse	1.0	t		24.0	female	east_asian	4.409868682849185	neutral	030	sub-12	2.0	3.0	030_neutral	0.0		142.04269046395166	
20.0	114.79972718527233	pulse	1.0	t		24.0	female	east_asian	4.409868682849185	neutral	030	sub-12	2.0	3.0	030_neutral	0.0		142.7426751600051	
20.0	115.4997079572372	pulse	1.0	t		24.0	female	east_asian	4.409868682849185	neutral	030	sub-12	2.0	3.0	030_neutral	0.0		143.44265593196997	
20.0	116.19968721993746	pulse	1.0	t		24.0	female	east_asian	4.409868682849185	neutral	030	sub-12	2.0	3.0	030_neutral	0.0		144.14263519467022	
20.0	116.8996719159909	pulse	1.0	t		24.0	female	east_asian	4.409868682849185	neutral	030	sub-12	2.0	3.0	030_neutral	0.0		144.84261989072365	
20.0	117.59965631019168	pulse	1.0	t		24.0	female	east_asian	4.409868682849185	neutral	030	sub-12	2.0	3.0	030_neutral	0.0		145.54260428492444	
20.0	118.29963285621488	pulse	1.0	t		24.0	female	east_asian	4.409868682849185	neutral	030	sub-12	2.0	3.0	030_neutral	0.0		146.24258083094765	
20.0	118.99961574115059	pulse	1.0	t		24.0	female	east_asian	4.409868682849185	neutral	030	sub-12	2.0	3.0	030_neutral	0.0		146.94256371588335	
20.0	119.69958474084888	pulse	1.0	t		24.0	female	east_asian	4.409868682849185	neutral	030	sub-12	2.0	3.0	030_neutral	0.0		147.64253271558164	
20.0	120.39958664252254	pulse	1.0	t		24.0	female	east_asian	4.409868682849185	neutral	030	sub-12	2.0	3.0	030_neutral	0.0		148.3425346172553	
20.0	121.09957073487021	pulse	1.0	t		24.0	female	east_asian	4.409868682849185	neutral	030	sub-12	2.0	3.0	030_neutral	0.0		149.04251870960297	
21.0	121.25777520464908	face	0.0		147	19.0	female	white	4.298846000795861	smiling	100	sub-12	2.0	3.0	100_smiling	0.0		149.20072317938184	1.241633918133175
21.0	121.79954577162835	pulse	0.0	t		19.0	female	white	4.298846000795861	smiling	100	sub-12	2.0	3.0	100_smiling	0.0		149.7424937463611	
21.0	122.49940912278225	fix	1.0		444	19.0	female	white	4.298846000795861	smiling	100	sub-12	2.0	3.0	100_smiling	0.0		150.442357097515	3.758297863092139
21.0	122.50706169965588	pulse	1.0	t		19.0	female	white	4.298846000795861	smiling	100	sub-12	2.0	3.0	100_smiling	0.0		150.45000967438864	
21.0	123.1995042970284	pulse	1.0	t		19.0	female	white	4.298846000795861	smiling	100	sub-12	2.0	3.0	100_smiling	0.0		151.14245227176116	
21.0	123.8994902004938	pulse	1.0	t		19.0	female	white	4.298846000795861	smiling	100	sub-12	2.0	3.0	100_smiling	0.0		151.84243817522656	
21.0	124.59946735022322	pulse	1.0	t		19.0	female	white	4.298846000795861	smiling	100	sub-12	2.0	3.0	100_smiling	0.0		152.54241532495598	
21.0	125.29945234812976	pulse	1.0	t		19.0	female	white	4.298846000795861	smiling	100	sub-12	2.0	3.0	100_smiling	0.0		153.24240032286252	
21.0	125.99942164968115	pulse	1.0	t		19.0	female	white	4.298846000795861	smiling	100	sub-12	2.0	3.0	100_smiling	0.0		153.9423696244139	
22.0	126.25770698587439	face	0.0		146	21.0	male	black	2.969757262236371	smiling	137	sub-12	2.0	3.0	137_smiling	0.0		154.20065496060715	1.2415768679193206
22.0	126.6994135902064	pulse	0.0	t		21.0	male	black	2.969757262236371	smiling	137	sub-12	2.0	3.0	137_smiling	0.0		154.64236156493916	
22.0	127.39938832511143	pulse	0.0	t		21.0	male	black	2.969757262236371	smiling	137	sub-12	2.0	3.0	137_smiling	0.0		155.3423362998442	
22.0	127.49928385379371	fix	1.0		444	21.0	male	black	2.969757262236371	smiling	137	sub-12	2.0	3.0	137_smiling	0.0		155.44223182852647	3.7665339217855944
22.0	128.0993775489601	pulse	1.0	t		21.0	male	black	2.969757262236371	smiling	137	sub-12	2.0	3.0	137_smiling	0.0		156.04232552369285	
22.0	128.79935077460004	pulse	1.0	t		21.0	male	black	2.969757262236371	smiling	137	sub-12	2.0	3.0	137_smiling	0.0		156.7422987493328	
22.0	129.4993360743597	pulse	1.0	t		21.0	male	black	2.969757262236371	smiling	137	sub-12	2.0	3.0	137_smiling	0.0		157.44228404909245	
22.0	130.19931714817767	pulse	1.0	t		21.0	male	black	2.969757262236371	smiling	137	sub-12	2.0	3.0	137_smiling	0.0		158.14226512291043	
22.0	130.8992921849358	pulse	1.0	t		21.0	male	black	2.969757262236371	smiling	137	sub-12	2.0	3.0	137_smiling	0.0		158.84224015966856	
23.0	131.2658177755793	face	0.0		145	28.0	male	white	3.9076800636689217	neutral	033	sub-12	2.0	3.0	033_neutral	0.0		159.20876575031207	1.2333233017525345
23.0	131.59928171063711	pulse	0.0	t		28.0	male	white	3.9076800636689217	neutral	033	sub-12	2.0	3.0	033_neutral	0.0		159.54222968536988	
23.0	132.29925825666032	pulse	0.0	t		28.0	male	white	3.9076800636689217	neutral	033	sub-12	2.0	3.0	033_neutral	0.0		160.24220623139308	
23.0	132.49914107733184	fix	1.0		445	28.0	male	white	3.9076800636689217	neutral	033	sub-12	2.0	3.0	033_neutral	0.0		160.4420890520646	3.774899475409711
23.0	132.99924325456686	pulse	1.0	t		28.0	male	white	3.9076800636689217	neutral	033	sub-12	2.0	3.0	033_neutral	0.0		160.94219122929962	
23.0	133.6992122542656	pulse	1.0	t		28.0	male	white	3.9076800636689217	neutral	033	sub-12	2.0	3.0	033_neutral	0.0		161.64216022899836	
23.0	134.39920510034972	pulse	1.0	t		28.0	male	white	3.9076800636689217	neutral	033	sub-12	2.0	3.0	033_neutral	0.0		162.34215307508248	
23.0	135.09918828713853	pulse	1.0	t		28.0	male	white	3.9076800636689217	neutral	033	sub-12	2.0	3.0	033_neutral	0.0		163.0421362618713	
23.0	135.79917147392734	pulse	1.0	t		28.0	male	white	3.9076800636689217	neutral	033	sub-12	2.0	3.0	033_neutral	0.0		163.7421194486601	
24.0	136.27404055274155	face	0.0		145	36.0	female	white	2.7548746518105847	neutral	011	sub-12	2.0	3.0	011_neutral	0.0		164.2169885274743	1.2333018701901892
24.0	136.49915375515684	pulse	0.0	t		36.0	female	white	2.7548746518105847	neutral	011	sub-12	2.0	3.0	011_neutral	0.0		164.4421017298896	
24.0	137.19912728265035	pulse	0.0	t		36.0	female	white	2.7548746518105847	neutral	011	sub-12	2.0	3.0	011_neutral	0.0		165.1420752573831	
24.0	137.50734242293174	fix	1.0		444	36.0	female	white	2.7548746518105847	neutral	011	sub-12	2.0	3.0	011_neutral	0.0		165.4502903976645	3.766549618141198
24.0	137.8991159027928	pulse	1.0	t		36.0	female	white	2.7548746518105847	neutral	011	sub-12	2.0	3.0	011_neutral	0.0		165.84206387752556	
24.0	138.59910271181707	pulse	1.0	t		36.0	female	white	2.7548746518105847	neutral	011	sub-12	2.0	3.0	011_neutral	0.0		166.54205068654983	
24.0	139.29906537260285	pulse	1.0	t		36.0	female	white	2.7548746518105847	neutral	011	sub-12	2.0	3.0	011_neutral	0.0		167.24201334733561	
24.0	139.99906184092288	pulse	1.0	t		36.0	female	white	2.7548746518105847	neutral	011	sub-12	2.0	3.0	011_neutral	0.0		167.94200981565564	
24.0	140.69903778324033	pulse	1.0	t		36.0	female	white	2.7548746518105847	neutral	011	sub-12	2.0	3.0	011_neutral	0.0		168.6419857579731	
25.0	141.27389204107294	face	0.0		145	40.0	male	white	1.868682849184242	smiling	172	sub-12	2.0	3.0	172_smiling	1.0	attractiveness	169.2168400158057	1.2333036813083709
25.0	141.39902338485263	pulse	0.0	t		40.0	male	white	1.868682849184242	smiling	172	sub-12	2.0	3.0	172_smiling	1.0	attractiveness	169.3419713595854	
25.0	142.09899238455137	pulse	0.0	t		40.0	male	white	1.868682849184242	smiling	172	sub-12	2.0	3.0	172_smiling	1.0	attractiveness	170.04194035928413	
25.0	142.5071957223813	fix	1.0		177	40.0	male	white	1.868682849184242	smiling	172	sub-12	2.0	3.0	172_smiling	1.0	attractiveness	170.45014369711407	1.499975097128754
25.0	142.7989891547245	pulse	1.0	t		40.0	male	white	1.868682849184242	smiling	172	sub-12	2.0	3.0	172_smiling	1.0	attractiveness	170.74193712945726	
25.0	143.49896087109983	pulse	1.0	t		40.0	male	white	1.868682849184242	smiling	172	sub-12	2.0	3.0	172_smiling	1.0	attractiveness	171.4419088458326	
25.0	144.00717081951007	rating	2.0		294	40.0	male	white	1.868682849184242	smiling	172	sub-12	2.0	3.0	172_smiling	1.0	attractiveness	171.95011879424283	2.4999340451227
25.0	144.19894526530015	pulse	2.0	t		40.0	male	white	1.868682849184242	smiling	172	sub-12	2.0	3.0	172_smiling	1.0	attractiveness	172.1418932400329	
25.0	144.89892241502957	pulse	2.0	t		40.0	male	white	1.868682849184242	smiling	172	sub-12	2.0	3.0	172_smiling	1.0	attractiveness	172.84187038976233	
25.0	145.59891103517202	pulse	2.0	t		40.0	male	white	1.868682849184242	smiling	172	sub-12	2.0	3.0	172_smiling	1.0	attractiveness	173.54185900990478	
25.0	145.68222759051014	response	2.0	w		40.0	male	white	1.868682849184242	smiling	172	sub-12	2.0	3.0	172_smiling	1.0	attractiveness	173.6251755652429	
25.0	146.29888214784114	pulse	2.0	t		40.0	male	white	1.868682849184242	smiling	172	sub-12	2.0	3.0	172_smiling	1.0	attractiveness	174.2418301225739	
25.0	146.50710486463277	fix	3.0		444	40.0	male	white	1.868682849184242	smiling	172	sub-12	2.0	3.0	172_smiling	1.0	attractiveness	174.45005283936553	3.7665613904073325
25.0	146.99887167354245	pulse	3.0	t		40.0	male	white	1.868682849184242	smiling	172	sub-12	2.0	3.0	172_smiling	1.0	attractiveness	174.9418196482752	
25.0	147.69885546403748	pulse	3.0	t		40.0	male	white	1.868682849184242	smiling	172	sub-12	2.0	3.0	172_smiling	1.0	attractiveness	175.64180343877024	
25.0	148.3988265767066	pulse	3.0	t		40.0	male	white	1.868682849184242	smiling	172	sub-12	2.0	3.0	172_smiling	1.0	attractiveness	176.34177455143936	
25.0	149.09881097090738	pulse	3.0	t		40.0	male	white	1.868682849184242	smiling	172	sub-12	2.0	3.0	172_smiling	1.0	attractiveness	177.04175894564014	
25.0	149.79878932804831	pulse	3.0	t		40.0	male	white	1.868682849184242	smiling	172	sub-12	2.0	3.0	172_smiling	1.0	attractiveness	177.74173730278108	
26.0	150.2736662550401	face	0.0		145	23.0	male	white	2.6275368085953046	neutral	141	sub-12	2.0	3.0	141_neutral	0.0		178.21661422977286	1.2332991535135989
26.0	150.49877945745584	pulse	0.0	t		23.0	male	white	2.6275368085953046	neutral	141	sub-12	2.0	3.0	141_neutral	0.0		178.4417274321886	
26.0	151.19875419236087	pulse	0.0	t		23.0	male	white	2.6275368085953046	neutral	141	sub-12	2.0	3.0	141_neutral	0.0		179.14170216709363	
26.0	151.5069654085537	fix	1.0		444	23.0	male	white	2.6275368085953046	neutral	141	sub-12	2.0	3.0	141_neutral	0.0		179.44991338328646	3.7665562589063484
26.0	151.89874130323824	pulse	1.0	t		23.0	male	white	2.6275368085953046	neutral	141	sub-12	2.0	3.0	141_neutral	0.0		179.841689277971	
26.0	152.59871966037917	pulse	1.0	t		23.0	male	white	2.6275368085953046	neutral	141	sub-12	2.0	3.0	141_neutral	0.0		180.54166763511193	
26.0	153.2986998286383	pulse	1.0	t		23.0	male	white	2.6275368085953046	neutral	141	sub-12	2.0	3.0	141_neutral	0.0		181.24164780337105	
26.0	153.9986830154271	pulse	1.0	t		23.0	male	white	2.6275368085953046	neutral	141	sub-12	2.0	3.0	141_neutral	0.0		181.94163099015987	
26.0	154.69864477065403	pulse	1.0	t		23.0	male	white	2.6275368085953046	neutral	141	sub-12	2.0	3.0	141_neutral	0.0		182.6415927453868	
27.0	155.27352166746005	face	0.0		145	20.0	female	white	3.9502586549940313	smiling	091	sub-12	2.0	3.0	091_smiling	0.0		183.2164696421928	1.233313642457233
27.0	155.39865180382822	pulse	0.0	t		20.0	female	white	3.9502586549940313	smiling	091	sub-12	2.0	3.0	091_smiling	0.0		183.34159977856098	
27.0	156.0986395184118	pulse	0.0	t		20.0	female	white	3.9502586549940313	smiling	091	sub-12	2.0	3.0	091_smiling	0.0		184.04158749314456	
27.0	156.50683530991728	fix	1.0		444	20.0	female	white	3.9502586549940313	smiling	091	sub-12	2.0	3.0	091_smiling	0.0		184.44978328465004	3.7665472033168044
27.0	156.7986157625819	pulse	1.0	t		20.0	female	white	3.9502586549940313	smiling	091	sub-12	2.0	3.0	091_smiling	0.0		184.74156373731466	
27.0	157.49860498643056	pulse	1.0	t		20.0	female	white	3.9502586549940313	smiling	091	sub-12	2.0	3.0	091_smiling	0.0		185.44155296116332	
27.0	158.19857791021786	pulse	1.0	t		20.0	female	white	3.9502586549940313	smiling	091	sub-12	2.0	3.0	091_smiling	0.0		186.14152588495062	
27.0	158.89855113585782	pulse	1.0	t		20.0	female	white	3.9502586549940313	smiling	091	sub-12	2.0	3.0	091_smiling	0.0		186.84149911059058	
27.0	159.5985325115289	pulse	1.0	t		20.0	female	white	3.9502586549940313	smiling	091	sub-12	2.0	3.0	091_smiling	0.0		187.54148048626166	
28.0	160.27338251323408	face	0.0		145	26.0	male	white	2.7966573816155993	neutral	117	sub-12	2.0	3.0	117_neutral	0.0		188.21633048796684	1.233319981369732
28.0	160.29852082981824	pulse	0.0	t		26.0	male	white	2.7966573816155993	neutral	117	sub-12	2.0	3.0	117_neutral	0.0		188.241468804551	
28.0	160.99849677213524	pulse	0.0	t		26.0	male	white	2.7966573816155993	neutral	117	sub-12	2.0	3.0	117_neutral	0.0		188.941444746868	
28.0	161.50670249460381	fix	1.0		443	26.0	male	white	2.7966573816155993	neutral	117	sub-12	2.0	3.0	117_neutral	0.0		189.44965046933658	3.758229946170559
28.0	161.69847784595322	pulse	1.0	t		26.0	male	white	2.7966573816155993	neutral	117	sub-12	2.0	3.0	117_neutral	0.0		189.64142582068598	
28.0	162.39845439197643	pulse	1.0	t		26.0	male	white	2.7966573816155993	neutral	117	sub-12	2.0	3.0	117_neutral	0.0		190.3414023667092	
28.0	163.0984384843241	pulse	1.0	t		26.0	male	white	2.7966573816155993	neutral	117	sub-12	2.0	3.0	117_neutral	0.0		191.04138645905687	
28.0	163.79841985999474	pulse	1.0	t		26.0	male	white	2.7966573816155993	neutral	117	sub-12	2.0	3.0	117_neutral	0.0		191.7413678347275	
28.0	164.4984151209028	pulse	1.0	t		26.0	male	white	2.7966573816155993	neutral	117	sub-12	2.0	3.0	117_neutral	0.0		192.44136309563555	
28.0	165.19838744098433	pulse	1.0	t		26.0	male	white	2.7966573816155993	neutral	117	sub-12	2.0	3.0	117_neutral	0.0		193.1413354157171	
29.0	165.26493244077437	face	0.0		147	20.0	male	black	3.1070433744528456	smiling	082	sub-12	2.0	3.0	082_smiling	1.0	trustworthiness	193.20788041550713	1.241633616280069
29.0	165.89836700553724	pulse	0.0	t		20.0	male	black	3.1070433744528456	smiling	082	sub-12	2.0	3.0	082_smiling	1.0	trustworthiness	193.84131498027	
29.0	166.50656605705444	fix	1.0		177	20.0	male	black	3.1070433744528456	smiling	082	sub-12	2.0	3.0	082_smiling	1.0	trustworthiness	194.4495140317872	1.5082965802171202
29.0	166.59835351270885	pulse	1.0	t		20.0	male	black	3.1070433744528456	smiling	082	sub-12	2.0	3.0	082_smiling	1.0	trustworthiness	194.54130148744161	
29.0	167.29832583278994	pulse	1.0	t		20.0	male	black	3.1070433744528456	smiling	082	sub-12	2.0	3.0	082_smiling	1.0	trustworthiness	195.2412738075227	
29.0	167.99830539734285	pulse	1.0	t		20.0	male	black	3.1070433744528456	smiling	082	sub-12	2.0	3.0	082_smiling	1.0	trustworthiness	195.9412533720756	
29.0	168.01486263727156	rating	2.0		294	20.0	male	black	3.1070433744528456	smiling	082	sub-12	2.0	3.0	082_smiling	1.0	trustworthiness	195.95781061200432	2.491599884209336
29.0	168.6982976397212	pulse	2.0	t		20.0	male	black	3.1070433744528456	smiling	082	sub-12	2.0	3.0	082_smiling	1.0	trustworthiness	196.64124561445396	
29.0	169.39827448759706	pulse	2.0	t		20.0	male	black	3.1070433744528456	smiling	082	sub-12	2.0	3.0	082_smiling	1.0	trustworthiness	197.34122246232982	
29.0	170.09825435400307	pulse	2.0	t		20.0	male	black	3.1070433744528456	smiling	082	sub-12	2.0	3.0	082_smiling	1.0	trustworthiness	198.04120232873584	
29.0	170.23158100632372	response	2.0	b		20.0	male	black	3.1070433744528456	smiling	082	sub-12	2.0	3.0	082_smiling	1.0	trustworthiness	198.17452898105648	
29.0	170.5064625214809	fix	3.0		444	20.0	male	black	3.1070433744528456	smiling	082	sub-12	2.0	3.0	082_smiling	1.0	trustworthiness	198.44941049621366	3.7665635033781655
29.0	170.79823512596795	pulse	3.0	t		20.0	male	black	3.1070433744528456	smiling	082	sub-12	2.0	3.0	082_smiling	1.0	trustworthiness	198.7411831007007	
29.0	171.4981950700767	pulse	3.0	t		20.0	male	black	3.1070433744528456	smiling	082	sub-12	2.0	3.0	082_smiling	1.0	trustworthiness	199.44114304480945	
29.0	172.19819787730967	pulse	3.0	t		20.0	male	black	3.1070433744528456	smiling	082	sub-12	2.0	3.0	082_smiling	1.0	trustworthiness	200.14114585204243	
29.0	172.8981762344506	pulse	3.0	t		20.0	male	black	3.1070433744528456	smiling	082	sub-12	2.0	3.0	082_smiling	1.0	trustworthiness	200.84112420918336	
29.0	173.59815821382745	pulse	3.0	t		20.0	male	black	3.1070433744528456	smiling	082	sub-12	2.0	3.0	082_smiling	1.0	trustworthiness	201.5411061885602	
30.0	174.27302602485906	face	0.0		145	28.0	male	east_asian	1.5563072025467568	smiling	005	sub-12	2.0	3.0	005_smiling	1.0	dominance	202.21597399959182	1.2333021720432953
30.0	174.29817128406148	pulse	0.0	t		28.0	male	east_asian	1.5563072025467568	smiling	005	sub-12	2.0	3.0	005_smiling	1.0	dominance	202.24111925879424	
30.0	174.9981327374353	pulse	0.0	t		28.0	male	east_asian	1.5563072025467568	smiling	005	sub-12	2.0	3.0	005_smiling	1.0	dominance	202.94108071216806	
30.0	175.50632819690236	fix	1.0		177	28.0	male	east_asian	1.5563072025467568	smiling	005	sub-12	2.0	3.0	005_smiling	1.0	dominance	203.44927617163512	1.499961815597544
30.0	175.6981089816054	pulse	1.0	t		28.0	male	east_asian	1.5563072025467568	smiling	005	sub-12	2.0	3.0	005_smiling	1.0	dominance	203.64105695633816	
30.0	176.39808975357028	pulse	1.0	t		28.0	male	east_asian	1.5563072025467568	smiling	005	sub-12	2.0	3.0	005_smiling	1.0	dominance	204.34103772830304	
30.0	177.0062900124999	rating	2.0		295	28.0	male	east_asian	1.5563072025467568	smiling	005	sub-12	2.0	3.0	005_smiling	1.0	dominance	204.94923798723266	2.499932535858079
30.0	177.0980735440653	pulse	2.0	t		28.0	male	east_asian	1.5563072025467568	smiling	005	sub-12	2.0	3.0	005_smiling	1.0	dominance	205.04102151879806	
30.0	177.7980497882354	pulse	2.0	t		28.0	male	east_asian	1.5563072025467568	smiling	005	sub-12	2.0	3.0	005_smiling	1.0	dominance	205.74099776296816	
30.0	178.49803025834717	pulse	2.0	t		28.0	male	east_asian	1.5563072025467568	smiling	005	sub-12	2.0	3.0	005_smiling	1.0	dominance	206.44097823307993	
30.0	179.19801736922454	pulse	2.0	t		28.0	male	east_asian	1.5563072025467568	smiling	005	sub-12	2.0	3.0	005_smiling	1.0	dominance	207.1409653439573	
30.0	179.50622254835798	fix	3.0		443	28.0	male	east_asian	1.5563072025467568	smiling	005	sub-12	2.0	3.0	005_smiling	1.0	dominance	207.44917052309074	3.766545995904835
30.0	179.5479935681169	response	3.0	w		28.0	male	east_asian	1.5563072025467568	smiling	005	sub-12	2.0	3.0	005_smiling	1.0	dominance	207.49094154284967	
30.0	179.8979782188926	pulse	3.0	t		28.0	male	east_asian	1.5563072025467568	smiling	005	sub-12	2.0	3.0	005_smiling	1.0	dominance	207.84092619362536	
30.0	180.59796865015278	pulse	3.0	t		28.0	male	east_asian	1.5563072025467568	smiling	005	sub-12	2.0	3.0	005_smiling	1.0	dominance	208.54091662488554	
30.0	181.2979521387947	pulse	3.0	t		28.0	male	east_asian	1.5563072025467568	smiling	005	sub-12	2.0	3.0	005_smiling	1.0	dominance	209.24090011352746	
30.0	181.99792928852366	pulse	3.0	t		28.0	male	east_asian	1.5563072025467568	smiling	005	sub-12	2.0	3.0	005_smiling	1.0	dominance	209.94087726325643	
30.0	182.69791549384217	pulse	3.0	t		28.0	male	east_asian	1.5563072025467568	smiling	005	sub-12	2.0	3.0	005_smiling	1.0	dominance	210.64086346857493	
31.0	183.27276854426282	face	0.0		145	34.0	male	white	2.651014723438122	smiling	121	sub-12	2.0	3.0	121_smiling	0.0		211.21571651899558	1.2333166609869295
31.0	183.3978989824841	pulse	0.0	t		34.0	male	white	2.651014723438122	smiling	121	sub-12	2.0	3.0	121_smiling	0.0		211.34084695721685	
31.0	184.0978752266542	pulse	0.0	t		34.0	male	white	2.651014723438122	smiling	121	sub-12	2.0	3.0	121_smiling	0.0		212.04082320138696	
31.0	184.50608520524975	fix	1.0		444	34.0	male	white	2.651014723438122	smiling	121	sub-12	2.0	3.0	121_smiling	0.0		212.4490331799825	3.758291222326534
31.0	184.7978647523555	pulse	1.0	t		34.0	male	white	2.651014723438122	smiling	121	sub-12	2.0	3.0	121_smiling	0.0		212.74081272708827	
31.0	185.49784009096675	pulse	1.0	t		34.0	male	white	2.651014723438122	smiling	121	sub-12	2.0	3.0	121_smiling	0.0		213.4407880656995	
31.0	186.19782237219624	pulse	1.0	t		34.0	male	white	2.651014723438122	smiling	121	sub-12	2.0	3.0	121_smiling	0.0		214.140770346929	
31.0	186.89781431272195	pulse	1.0	t		34.0	male	white	2.651014723438122	smiling	121	sub-12	2.0	3.0	121_smiling	0.0		214.8407622874547	
31.0	187.59778270871402	pulse	1.0	t		34.0	male	white	2.651014723438122	smiling	121	sub-12	2.0	3.0	121_smiling	0.0		215.54073068344678	
32.0	188.26437642757628	face	0.0		146	24.0	female	black	3.0955033824114606	smiling	099	sub-12	2.0	3.0	099_smiling	0.0		216.20732440230904	1.2415789808896989
32.0	188.2977707251507	pulse	0.0	t		24.0	female	black	3.0955033824114606	smiling	099	sub-12	2.0	3.0	099_smiling	0.0		216.24071869988347	
32.0	188.99773791373127	pulse	0.0	t		24.0	female	black	3.0955033824114606	smiling	099	sub-12	2.0	3.0	099_smiling	0.0		216.94068588846403	
32.0	189.50595540846598	fix	1.0		443	24.0	female	black	3.0955033824114606	smiling	099	sub-12	2.0	3.0	099_smiling	0.0		217.44890338319874	3.758302692740017
32.0	189.69774132467	pulse	1.0	t		24.0	female	black	3.0955033824114606	smiling	099	sub-12	2.0	3.0	099_smiling	0.0		217.64068929940277	
32.0	190.39772843554738	pulse	1.0	t		24.0	female	black	3.0955033824114606	smiling	099	sub-12	2.0	3.0	099_smiling	0.0		218.34067641028014	
32.0	191.09769139818627	pulse	1.0	t		24.0	female	black	3.0955033824114606	smiling	099	sub-12	2.0	3.0	099_smiling	0.0		219.04063937291903	
32.0	191.79768001832872	pulse	1.0	t		24.0	female	black	3.0955033824114606	smiling	099	sub-12	2.0	3.0	099_smiling	0.0		219.74062799306148	
32.0	192.497654149528	pulse	1.0	t		24.0	female	black	3.0955033824114606	smiling	099	sub-12	2.0	3.0	099_smiling	0.0		220.44060212426075	
32.0	193.19763582705173	pulse	1.0	t		24.0	female	black	3.0955033824114606	smiling	099	sub-12	2.0	3.0	099_smiling	0.0		221.1405838017845	
33.0	193.264258101206	face	0.0		147	21.0	male	east_asian/white	3.501790688420215	neutral	036	sub-12	2.0	3.0	036_neutral	0.0		221.20720607593876	1.241550304856446
33.0	193.89762052310562	pulse	0.0	t		21.0	male	east_asian/white	3.501790688420215	neutral	036	sub-12	2.0	3.0	036_neutral	0.0		221.84056849783838	
33.0	194.50580840606244	fix	1.0		443	21.0	male	east_asian/white	3.501790688420215	neutral	036	sub-12	2.0	3.0	036_neutral	0.0		222.4487563807952	3.7665592774364995
33.0	194.59760159692314	pulse	1.0	t		21.0	male	east_asian/white	3.501790688420215	neutral	036	sub-12	2.0	3.0	036_neutral	0.0		222.5405495716559	
33.0	195.2975805577703	pulse	1.0	t		21.0	male	east_asian/white	3.501790688420215	neutral	036	sub-12	2.0	3.0	036_neutral	0.0		223.24052853250305	
33.0	195.9975601223232	pulse	1.0	t		21.0	male	east_asian/white	3.501790688420215	neutral	036	sub-12	2.0	3.0	036_neutral	0.0		223.94050809705595	
33.0	196.69754029058186	pulse	1.0	t		21.0	male	east_asian/white	3.501790688420215	neutral	036	sub-12	2.0	3.0	036_neutral	0.0		224.64048826531462	
33.0	197.3975195532821	pulse	1.0	t		21.0	male	east_asian/white	3.501790688420215	neutral	036	sub-12	2.0	3.0	036_neutral	0.0		225.34046752801487	
33.0	198.0975199456907	pulse	1.0	t		21.0	male	east_asian/white	3.501790688420215	neutral	036	sub-12	2.0	3.0	036_neutral	0.0		226.04046792042345	
34.0	198.27236768349894	face	0.0		146	31.0	female	west_asian	2.364902506963788	neutral	006	sub-12	2.0	3.0	006_neutral	1.0	attractiveness	226.2153156582317	1.241663499725746
34.0	198.79748924724208	pulse	0.0	t		31.0	female	west_asian	2.364902506963788	neutral	006	sub-12	2.0	3.0	006_neutral	1.0	attractiveness	226.74043722197484	
34.0	199.49747545256105	pulse	0.0	t		31.0	female	west_asian	2.364902506963788	neutral	006	sub-12	2.0	3.0	006_neutral	1.0	attractiveness	227.4404234272938	
34.0	199.5140311832247	fix	1.0		176	31.0	female	west_asian	2.364902506963788	neutral	006	sub-12	2.0	3.0	006_neutral	1.0	attractiveness	227.45697915795745	1.4916176935353178
34.0	200.1974607523207	pulse	1.0	t		31.0	female	west_asian	2.364902506963788	neutral	006	sub-12	2.0	3.0	006_neutral	1.0	attractiveness	228.14040872705345	
34.0	200.89743850575542	pulse	1.0	t		31.0	female	west_asian	2.364902506963788	neutral	006	sub-12	2.0	3.0	006_neutral	1.0	attractiveness	228.84038648048818	
34.0	201.00564887676	rating	2.0		295	31.0	female	west_asian	2.364902506963788	neutral	006	sub-12	2.0	3.0	006_neutral	1.0	attractiveness	228.94859685149277	2.4999289136221705
34.0	201.5974159573375	pulse	2.0	t		31.0	female	west_asian	2.364902506963788	neutral	006	sub-12	2.0	3.0	006_neutral	1.0	attractiveness	229.54036393207025	
34.0	202.29741272751062	pulse	2.0	t		31.0	female	west_asian	2.364902506963788	neutral	006	sub-12	2.0	3.0	006_neutral	1.0	attractiveness	230.24036070224338	
34.0	202.99737629385527	pulse	2.0	t		31.0	female	west_asian	2.364902506963788	neutral	006	sub-12	2.0	3.0	006_neutral	1.0	attractiveness	230.94032426858803	
34.0	203.08903033049	response	2.0	n		31.0	female	west_asian	2.364902506963788	neutral	006	sub-12	2.0	3.0	006_neutral	1.0	attractiveness	231.03197830522276	
34.0	203.50557779038218	fix	3.0		443	31.0	female	west_asian	2.364902506963788	neutral	006	sub-12	2.0	3.0	006_neutral	1.0	attractiveness	231.44852576511494	3.766568634878695
34.0	203.69735736767325	pulse	3.0	t		31.0	female	west_asian	2.364902506963788	neutral	006	sub-12	2.0	3.0	006_neutral	1.0	attractiveness	231.640305342406	
34.0	204.39732606551843	pulse	3.0	t		31.0	female	west_asian	2.364902506963788	neutral	006	sub-12	2.0	3.0	006_neutral	1.0	attractiveness	232.3402740402512	
34.0	205.09731287454315	pulse	3.0	t		31.0	female	west_asian	2.364902506963788	neutral	006	sub-12	2.0	3.0	006_neutral	1.0	attractiveness	233.0402608492759	
34.0	205.79728217609454	pulse	3.0	t		31.0	female	west_asian	2.364902506963788	neutral	006	sub-12	2.0	3.0	006_neutral	1.0	attractiveness	233.7402301508273	
34.0	206.4972840777682	pulse	3.0	t		31.0	female	west_asian	2.364902506963788	neutral	006	sub-12	2.0	3.0	006_neutral	1.0	attractiveness	234.44023205250096	
34.0	207.19726183120338	pulse	3.0	t		31.0	female	west_asian	2.364902506963788	neutral	006	sub-12	2.0	3.0	006_neutral	1.0	attractiveness	235.14020980593614	
35.0	207.27214642526087	face	0.0		146	24.0	female	black	3.0955033824114606	neutral	099	sub-12	2.0	3.0	099_neutral	0.0		235.21509439999363	1.2332988516609475
35.0	207.89724924393386	pulse	0.0	t		24.0	female	black	3.0955033824114606	neutral	099	sub-12	2.0	3.0	099_neutral	0.0		235.84019721866662	
35.0	208.50544527692182	fix	1.0		443	24.0	female	black	3.0955033824114606	neutral	099	sub-12	2.0	3.0	099_neutral	0.0		236.44839325165458	3.7582181739039697
35.0	208.59723756222365	pulse	1.0	t		24.0	female	black	3.0955033824114606	neutral	099	sub-12	2.0	3.0	099_neutral	0.0		236.54018553695641	
35.0	209.2972074674808	pulse	1.0	t		24.0	female	black	3.0955033824114606	neutral	099	sub-12	2.0	3.0	099_neutral	0.0		237.24015544221356	
35.0	209.99719186168159	pulse	1.0	t		24.0	female	black	3.0955033824114606	neutral	099	sub-12	2.0	3.0	099_neutral	0.0		237.94013983641435	
35.0	210.6971681058517	pulse	1.0	t		24.0	female	black	3.0955033824114606	neutral	099	sub-12	2.0	3.0	099_neutral	0.0		238.64011608058445	
35.0	211.39715159449315	pulse	1.0	t		24.0	female	black	3.0955033824114606	neutral	099	sub-12	2.0	3.0	099_neutral	0.0		239.3400995692259	
35.0	212.09712632939863	pulse	1.0	t		24.0	female	black	3.0955033824114606	neutral	099	sub-12	2.0	3.0	099_neutral	0.0		240.0400743041314	
36.0	212.2636634508258	face	0.0		147	27.0	male	black	3.5523278949462798	neutral	042	sub-12	2.0	3.0	042_neutral	0.0		240.20661142555855	1.2500450515581178
36.0	212.79711736436502	pulse	0.0	t		27.0	male	black	3.5523278949462798	neutral	042	sub-12	2.0	3.0	042_neutral	0.0		240.74006533909778	
36.0	213.49710055115338	pulse	0.0	t		27.0	male	black	3.5523278949462798	neutral	042	sub-12	2.0	3.0	042_neutral	0.0		241.44004852588614	
36.0	213.5137085023839	fix	1.0		443	27.0	male	black	3.5523278949462798	neutral	042	sub-12	2.0	3.0	042_neutral	0.0		241.45665647711667	3.7581541810714043
36.0	214.19707649347083	pulse	1.0	t		27.0	male	black	3.5523278949462798	neutral	042	sub-12	2.0	3.0	042_neutral	0.0		242.1400244682036	
36.0	214.8970536431998	pulse	1.0	t		27.0	male	black	3.5523278949462798	neutral	042	sub-12	2.0	3.0	042_neutral	0.0		242.84000161793256	
36.0	215.5970362262824	pulse	1.0	t		27.0	male	black	3.5523278949462798	neutral	042	sub-12	2.0	3.0	042_neutral	0.0		243.53998420101516	
36.0	216.29702062048318	pulse	1.0	t		27.0	male	black	3.5523278949462798	neutral	042	sub-12	2.0	3.0	042_neutral	0.0		244.23996859521594	
36.0	216.99699414797624	pulse	1.0	t		27.0	male	black	3.5523278949462798	neutral	042	sub-12	2.0	3.0	042_neutral	0.0		244.939942122709	
37.0	217.2718626834553	face	0.0		145	30.0	female	black	2.7345801830481498	neutral	062	sub-12	2.0	3.0	062_neutral	0.0		245.21481065818807	1.2333187739573077
37.0	217.69698759776657	pulse	0.0	t		30.0	female	black	2.7345801830481498	neutral	062	sub-12	2.0	3.0	062_neutral	0.0		245.63993557249933	
37.0	218.39697108640848	pulse	0.0	t		30.0	female	black	2.7345801830481498	neutral	062	sub-12	2.0	3.0	062_neutral	0.0		246.33991906114125	
37.0	218.50518145741262	fix	1.0		444	30.0	female	black	2.7345801830481498	neutral	062	sub-12	2.0	3.0	062_neutral	0.0		246.44812943214538	3.766565012643241
37.0	219.0969473305786	pulse	1.0	t		30.0	female	black	2.7345801830481498	neutral	062	sub-12	2.0	3.0	062_neutral	0.0		247.03989530531135	
37.0	219.79692478216066	pulse	1.0	t		30.0	female	black	2.7345801830481498	neutral	062	sub-12	2.0	3.0	062_neutral	0.0		247.73987275689342	
37.0	220.49693211718795	pulse	1.0	t		30.0	female	black	2.7345801830481498	neutral	062	sub-12	2.0	3.0	062_neutral	0.0		248.4398800919207	
37.0	221.1968893446201	pulse	1.0	t		30.0	female	black	2.7345801830481498	neutral	062	sub-12	2.0	3.0	062_neutral	0.0		249.13983731935286	
37.0	221.89686679620218	pulse	1.0	t		30.0	female	black	2.7345801830481498	neutral	062	sub-12	2.0	3.0	062_neutral	0.0		249.83981477093494	
38.0	222.27174647005586	face	0.0		145	28.0	female	white	5.676880222841227	neutral	124	sub-12	2.0	3.0	124_neutral	0.0		250.21469444478862	1.233294927571933
38.0	222.5968548126384	pulse	0.0	t		28.0	female	white	5.676880222841227	neutral	124	sub-12	2.0	3.0	124_neutral	0.0		250.53980278737117	
38.0	223.29683316977935	pulse	0.0	t		28.0	female	white	5.676880222841227	neutral	124	sub-12	2.0	3.0	124_neutral	0.0		251.2397811445121	
38.0	223.5050413976278	fix	1.0		444	28.0	female	white	5.676880222841227	neutral	124	sub-12	2.0	3.0	124_neutral	0.0		251.44798937236055	3.7665523348177885
38.0	223.9968190732452	pulse	1.0	t		28.0	female	white	5.676880222841227	neutral	124	sub-12	2.0	3.0	124_neutral	0.0		251.93976704797797	
38.0	224.69679320444448	pulse	1.0	t		28.0	female	white	5.676880222841227	neutral	124	sub-12	2.0	3.0	124_neutral	0.0		252.63974117917724	
38.0	225.3967993320598	pulse	1.0	t		28.0	female	white	5.676880222841227	neutral	124	sub-12	2.0	3.0	124_neutral	0.0		253.33974730679256	
38.0	226.09675233355028	pulse	1.0	t		28.0	female	white	5.676880222841227	neutral	124	sub-12	2.0	3.0	124_neutral	0.0		254.03970030828305	
38.0	226.79674367036932	pulse	1.0	t		28.0	female	white	5.676880222841227	neutral	124	sub-12	2.0	3.0	124_neutral	0.0		254.73969164510208	
39.0	227.27159373244558	face	0.0		145	30.0	female	black	2.7345801830481498	smiling	062	sub-12	2.0	3.0	062_smiling	0.0		255.21454170717834	1.233299757219811
39.0	227.49673862942473	pulse	0.0	t		30.0	female	black	2.7345801830481498	smiling	062	sub-12	2.0	3.0	062_smiling	0.0		255.4396866041575	
39.0	228.19670702541725	pulse	0.0	t		30.0	female	black	2.7345801830481498	smiling	062	sub-12	2.0	3.0	062_smiling	0.0		256.13965500015	
39.0	228.5048934896654	fix	1.0		444	30.0	female	black	2.7345801830481498	smiling	062	sub-12	2.0	3.0	062_smiling	0.0		256.44784146439815	3.7499202353487817
39.0	228.89669685297167	pulse	1.0	t		30.0	female	black	2.7345801830481498	smiling	062	sub-12	2.0	3.0	062_smiling	0.0		256.83964482770443	
39.0	229.59666947490587	pulse	1.0	t		30.0	female	black	2.7345801830481498	smiling	062	sub-12	2.0	3.0	062_smiling	0.0		257.5396174496386	
39.0	230.29664632278173	pulse	1.0	t		30.0	female	black	2.7345801830481498	smiling	062	sub-12	2.0	3.0	062_smiling	0.0		258.2395942975145	
39.0	230.99663615033614	pulse	1.0	t		30.0	female	black	2.7345801830481498	smiling	062	sub-12	2.0	3.0	062_smiling	0.0		258.9395841250689	
39.0	231.6966084704177	pulse	1.0	t		30.0	female	black	2.7345801830481498	smiling	062	sub-12	2.0	3.0	062_smiling	0.0		259.63955644515045	
40.0	232.25481372501417	fix	0.0		720													260.19776169974693	5.999836697535102
40.0	232.39658924238256	pulse	0.0	t														260.3395372171153	
40.0	233.09658148476092	pulse	0.0	t														261.0395294594937	
40.0	233.79655440854776	pulse	0.0	t														261.7395023832805	
40.0	234.496551480574	pulse	0.0	t														262.43949945530676	
40.0	235.19651474506554	pulse	0.0	t														263.1394627197983	
40.0	235.89649249850072	pulse	0.0	t														263.8394404732335	
40.0	236.59648564643794	pulse	0.0	t														264.5394336211707	
40.0	237.2964594757841	pulse	0.0	t														265.23940745051686	
40.0	237.99642787177663	pulse	0.0	t														265.9393758465094	
