trial_nr	onset	event_type	phase	response	nr_frames	face_age	face_sex	face_eth	attractiveness	expression	face_id	sub_id	ses	run	trial_type	catch	rating_type	onset_abs	duration
-1.0	0.058478155286138644	fix	0.0		713													26.30063048223292	5.957922170595339
-1.0	0.6999590384266412	pulse	0.0	t														26.94211136537342	
-1.0	1.3999690901609938	pulse	0.0	t														27.642121417107774	
-1.0	2.09994714538243	pulse	0.0	t														28.34209947232921	
-1.0	2.799932143244405	pulse	0.0	t														29.042084470191185	
-1.0	3.499903557680227	pulse	0.0	t														29.742055884627007	
-1.0	4.199894290765769	pulse	0.0	t														30.44204661771255	
-1.0	4.8998807978969126	pulse	0.0	t														31.142033124843692	
-1.0	5.599859154972364	pulse	0.0	t														31.842011481919144	
0.0	6.016400325881477	face	0.0		144	20.0	male	black	2.609629924393156	smiling	043	sub-02	2.0	2.0	043_smiling	0.0		32.25855265282826	1.2333143467230911
0.0	6.299858339966704	pulse	0.0	t		20.0	male	black	2.609629924393156	smiling	043	sub-02	2.0	2.0	043_smiling	0.0		32.542010666913484	
0.0	6.999837300750187	pulse	0.0	t		20.0	male	black	2.609629924393156	smiling	043	sub-02	2.0	2.0	043_smiling	0.0		33.24198962769697	
0.0	7.2497146726045685	fix	1.0		445	20.0	male	black	2.609629924393156	smiling	043	sub-02	2.0	2.0	043_smiling	0.0		33.49186699955135	3.7582307256479908
0.0	7.699816865241701	pulse	1.0	t		20.0	male	black	2.609629924393156	smiling	043	sub-02	2.0	2.0	043_smiling	0.0		33.94196919218848	
0.0	8.399797335294352	pulse	1.0	t		20.0	male	black	2.609629924393156	smiling	043	sub-02	2.0	2.0	043_smiling	0.0		34.64194966224113	
0.0	9.099782333155417	pulse	1.0	t		20.0	male	black	2.609629924393156	smiling	043	sub-02	2.0	2.0	043_smiling	0.0		35.3419346601022	
0.0	9.799761897646931	pulse	1.0	t		20.0	male	black	2.609629924393156	smiling	043	sub-02	2.0	2.0	043_smiling	0.0		36.04191422459371	
0.0	10.499749612193227	pulse	1.0	t		20.0	male	black	2.609629924393156	smiling	043	sub-02	2.0	2.0	043_smiling	0.0		36.74190193914001	
1.0	11.00794539825256	face	0.0		146	40.0	male	white	1.868682849184242	smiling	172	sub-02	2.0	2.0	172_smiling	0.0		37.25009772519934	1.2416524568943714
1.0	11.199735213762324	pulse	0.0	t		40.0	male	white	1.868682849184242	smiling	172	sub-02	2.0	2.0	172_smiling	0.0		37.441887540709104	
1.0	11.89970843932224	pulse	0.0	t		40.0	male	white	1.868682849184242	smiling	172	sub-02	2.0	2.0	172_smiling	0.0		38.14186076626902	
1.0	12.24959785514693	fix	1.0		444	40.0	male	white	1.868682849184242	smiling	172	sub-02	2.0	2.0	172_smiling	0.0		38.49175018209371	3.7582301219399596
1.0	12.59970279465415	pulse	1.0	t		40.0	male	white	1.868682849184242	smiling	172	sub-02	2.0	2.0	172_smiling	0.0		38.84185512160093	
1.0	13.299685981392031	pulse	1.0	t		40.0	male	white	1.868682849184242	smiling	172	sub-02	2.0	2.0	172_smiling	0.0		39.54183830833881	
1.0	13.999664036613467	pulse	1.0	t		40.0	male	white	1.868682849184242	smiling	172	sub-02	2.0	2.0	172_smiling	0.0		40.24181636356025	
1.0	14.699653562283856	pulse	1.0	t		40.0	male	white	1.868682849184242	smiling	172	sub-02	2.0	2.0	172_smiling	0.0		40.941805889230636	
1.0	15.399632221213324	pulse	1.0	t		40.0	male	white	1.868682849184242	smiling	172	sub-02	2.0	2.0	172_smiling	0.0		41.6417845481601	
2.0	16.00782797708689	face	0.0		146	37.0	male	white	3.898925586947871	smiling	101	sub-02	2.0	2.0	101_smiling	0.0		42.24998030403367	1.2416521550403559
2.0	16.09961842649045	pulse	0.0	t		37.0	male	white	3.898925586947871	smiling	101	sub-02	2.0	2.0	101_smiling	0.0		42.34177075343723	
2.0	16.799589237218242	pulse	0.0	t		37.0	male	white	3.898925586947871	smiling	101	sub-02	2.0	2.0	101_smiling	0.0		43.04174156416502	
2.0	17.249480132127246	fix	1.0		444	37.0	male	white	3.898925586947871	smiling	101	sub-02	2.0	2.0	101_smiling	0.0		43.491632459074026	3.75822800896276
2.0	17.49957966844977	pulse	1.0	t		37.0	male	white	3.898925586947871	smiling	101	sub-02	2.0	2.0	101_smiling	0.0		43.74173199539655	
2.0	18.199567986704096	pulse	1.0	t		37.0	male	white	3.898925586947871	smiling	101	sub-02	2.0	2.0	101_smiling	0.0		44.441720313650876	
2.0	18.899546041925532	pulse	1.0	t		37.0	male	white	3.898925586947871	smiling	101	sub-02	2.0	2.0	101_smiling	0.0		45.14169836887231	
2.0	19.599536171303043	pulse	1.0	t		37.0	male	white	3.898925586947871	smiling	101	sub-02	2.0	2.0	101_smiling	0.0		45.84168849824982	
2.0	20.29951965989494	pulse	1.0	t		37.0	male	white	3.898925586947871	smiling	101	sub-02	2.0	2.0	101_smiling	0.0		46.54167198684172	
3.0	21.007708141090006	face	0.0		147	31.0	female	west_asian	2.364902506963788	smiling	006	sub-02	2.0	2.0	006_smiling	0.0		47.249860468036786	1.2416569847027858
3.0	21.000443725227342	pulse	0.0	t		31.0	female	west_asian	2.364902506963788	smiling	006	sub-02	2.0	2.0	006_smiling	0.0		47.24259605217412	
3.0	21.699503239043224	pulse	0.0	t		31.0	female	west_asian	2.364902506963788	smiling	006	sub-02	2.0	2.0	006_smiling	0.0		47.941655565990004	
3.0	22.249365125792792	fix	1.0		443	31.0	female	west_asian	2.364902506963788	smiling	006	sub-02	2.0	2.0	006_smiling	0.0		48.49151745273957	3.7582243867163925
3.0	22.39947314420988	pulse	1.0	t		31.0	female	west_asian	2.364902506963788	smiling	006	sub-02	2.0	2.0	006_smiling	0.0		48.64162547115666	
3.0	23.09946176431822	pulse	1.0	t		31.0	female	west_asian	2.364902506963788	smiling	006	sub-02	2.0	2.0	006_smiling	0.0		49.341614091265	
3.0	23.799431669484875	pulse	1.0	t		31.0	female	west_asian	2.364902506963788	smiling	006	sub-02	2.0	2.0	006_smiling	0.0		50.041583996431655	
3.0	24.4994263266708	pulse	1.0	t		31.0	female	west_asian	2.364902506963788	smiling	006	sub-02	2.0	2.0	006_smiling	0.0		50.74157865361758	
3.0	25.199407098577467	pulse	1.0	t		31.0	female	west_asian	2.364902506963788	smiling	006	sub-02	2.0	2.0	006_smiling	0.0		51.44155942552425	
3.0	25.899383040821704	pulse	1.0	t		31.0	female	west_asian	2.364902506963788	smiling	006	sub-02	2.0	2.0	006_smiling	0.0		52.14153536776848	
4.0	26.007589512509185	face	0.0		147	31.0	female	white	2.1822522881018704	neutral	102	sub-02	2.0	2.0	102_neutral	1.0	dominance	52.249741839455965	1.2416554754336175
4.0	26.59937347205323	pulse	0.0	t		31.0	female	white	2.1822522881018704	neutral	102	sub-02	2.0	2.0	102_neutral	1.0	dominance	52.84152579900001	
4.0	27.249244987942802	fix	1.0		176	31.0	female	white	2.1822522881018704	neutral	102	sub-02	2.0	2.0	102_neutral	1.0	dominance	53.49139731488958	1.5083298091885808
4.0	27.29935545137596	pulse	1.0	t		31.0	female	white	2.1822522881018704	neutral	102	sub-02	2.0	2.0	102_neutral	1.0	dominance	53.54150777832274	
4.0	27.999339845528993	pulse	1.0	t		31.0	female	white	2.1822522881018704	neutral	102	sub-02	2.0	2.0	102_neutral	1.0	dominance	54.24149217247577	
4.0	28.699318806312476	pulse	1.0	t		31.0	female	white	2.1822522881018704	neutral	102	sub-02	2.0	2.0	102_neutral	1.0	dominance	54.941471133259256	
4.0	28.757574797131383	rating	2.0		293	31.0	female	white	2.1822522881018704	neutral	102	sub-02	2.0	2.0	102_neutral	1.0	dominance	54.99972712407816	2.4915793327882056
4.0	29.399324933946446	pulse	2.0	t		31.0	female	white	2.1822522881018704	neutral	102	sub-02	2.0	2.0	102_neutral	1.0	dominance	55.641477260893225	
4.0	30.082630089218583	response	2.0	n		31.0	female	white	2.1822522881018704	neutral	102	sub-02	2.0	2.0	102_neutral	1.0	dominance	56.32478241616536	
4.0	30.099344645006568	pulse	2.0	t		31.0	female	white	2.1822522881018704	neutral	102	sub-02	2.0	2.0	102_neutral	1.0	dominance	56.34149697195335	
4.0	30.240937666868376	response	2.0	n		31.0	female	white	2.1822522881018704	neutral	102	sub-02	2.0	2.0	102_neutral	1.0	dominance	56.483089993815156	
4.0	30.7992635368646	pulse	2.0	t		31.0	female	white	2.1822522881018704	neutral	102	sub-02	2.0	2.0	102_neutral	1.0	dominance	57.04141586381138	
4.0	31.24915412991959	fix	3.0		445	31.0	female	white	2.1822522881018704	neutral	102	sub-02	2.0	2.0	102_neutral	1.0	dominance	57.49130645686637	3.774886721779694
4.0	31.49925789219651	pulse	3.0	t		31.0	female	white	2.1822522881018704	neutral	102	sub-02	2.0	2.0	102_neutral	1.0	dominance	57.74141021914329	
4.0	32.199240173373255	pulse	3.0	t		31.0	female	white	2.1822522881018704	neutral	102	sub-02	2.0	2.0	102_neutral	1.0	dominance	58.441392500320035	
4.0	32.899239358367595	pulse	3.0	t		31.0	female	white	2.1822522881018704	neutral	102	sub-02	2.0	2.0	102_neutral	1.0	dominance	59.141391685314375	
4.0	33.59920805611819	pulse	3.0	t		31.0	female	white	2.1822522881018704	neutral	102	sub-02	2.0	2.0	102_neutral	1.0	dominance	59.841360383064966	
4.0	34.29918279094727	pulse	3.0	t		31.0	female	white	2.1822522881018704	neutral	102	sub-02	2.0	2.0	102_neutral	1.0	dominance	60.54133511789405	
4.0	34.99916054431469	pulse	3.0	t		31.0	female	white	2.1822522881018704	neutral	102	sub-02	2.0	2.0	102_neutral	1.0	dominance	61.24131287126147	
5.0	35.02404085169928	face	0.0		146	34.0	male	white	2.651014723438122	smiling	121	sub-02	2.0	2.0	121_smiling	0.0		61.26619317864606	1.2333285338563655
5.0	35.699166973802676	pulse	0.0	t		34.0	male	white	2.651014723438122	smiling	121	sub-02	2.0	2.0	121_smiling	0.0		61.941319300749456	
5.0	36.25736938555565	fix	1.0		443	34.0	male	white	2.651014723438122	smiling	121	sub-02	2.0	2.0	121_smiling	0.0		62.49952171250243	3.766562798740779
5.0	36.39914533087904	pulse	1.0	t		34.0	male	white	2.651014723438122	smiling	121	sub-02	2.0	2.0	121_smiling	0.0		62.64129765782582	
5.0	37.09912640463972	pulse	1.0	t		34.0	male	white	2.651014723438122	smiling	121	sub-02	2.0	2.0	121_smiling	0.0		63.3412787315865	
5.0	37.79910838396154	pulse	1.0	t		34.0	male	white	2.651014723438122	smiling	121	sub-02	2.0	2.0	121_smiling	0.0		64.04126071090832	
5.0	38.49909157069942	pulse	1.0	t		34.0	male	white	2.651014723438122	smiling	121	sub-02	2.0	2.0	121_smiling	0.0		64.7412438976462	
5.0	39.199072342606996	pulse	1.0	t		34.0	male	white	2.651014723438122	smiling	121	sub-02	2.0	2.0	121_smiling	0.0		65.44122466955378	
5.0	39.89906367939966	pulse	1.0	t		34.0	male	white	2.651014723438122	smiling	121	sub-02	2.0	2.0	121_smiling	0.0		66.14121600634644	
6.0	40.02393218429643	face	0.0		146	30.0	female	black	2.7345801830481498	smiling	062	sub-02	2.0	2.0	062_smiling	0.0		66.2660845112432	1.2333215912167361
6.0	40.599043243891174	pulse	0.0	t		30.0	female	black	2.7345801830481498	smiling	062	sub-02	2.0	2.0	062_smiling	0.0		66.84119557083795	
6.0	41.25725377551316	fix	1.0		443	30.0	female	black	2.7345801830481498	smiling	062	sub-02	2.0	2.0	062_smiling	0.0		67.49940610245994	3.7665618931796416
6.0	41.29905450304159	pulse	1.0	t		30.0	female	black	2.7345801830481498	smiling	062	sub-02	2.0	2.0	062_smiling	0.0		67.54120682998837	
6.0	41.99900539141254	pulse	1.0	t		30.0	female	black	2.7345801830481498	smiling	062	sub-02	2.0	2.0	062_smiling	0.0		68.24115771835932	
6.0	42.69899552079005	pulse	1.0	t		30.0	female	black	2.7345801830481498	smiling	062	sub-02	2.0	2.0	062_smiling	0.0		68.94114784773683	
6.0	43.398980518651115	pulse	1.0	t		30.0	female	black	2.7345801830481498	smiling	062	sub-02	2.0	2.0	062_smiling	0.0		69.6411328455979	
6.0	44.098963705389	pulse	1.0	t		30.0	female	black	2.7345801830481498	smiling	062	sub-02	2.0	2.0	062_smiling	0.0		70.34111603233578	
6.0	44.79894900510499	pulse	1.0	t		30.0	female	black	2.7345801830481498	smiling	062	sub-02	2.0	2.0	062_smiling	0.0		71.04110133205177	
7.0	45.023815668692805	face	0.0		145	31.0	female	east_asian	3.395941106247513	smiling	087	sub-02	2.0	2.0	087_smiling	0.0		71.26596799563958	1.2333203838006739
7.0	45.49893128628082	pulse	0.0	t		31.0	female	east_asian	3.395941106247513	smiling	087	sub-02	2.0	2.0	087_smiling	0.0		71.7410836132276	
7.0	46.19891115262635	pulse	0.0	t		31.0	female	east_asian	3.395941106247513	smiling	087	sub-02	2.0	2.0	087_smiling	0.0		72.44106347957313	
7.0	46.25713605249348	fix	1.0		445	31.0	female	east_asian	3.395941106247513	smiling	087	sub-02	2.0	2.0	087_smiling	0.0		72.49928837944026	3.758230423793975
7.0	46.898900376441816	pulse	1.0	t		31.0	female	east_asian	3.395941106247513	smiling	087	sub-02	2.0	2.0	087_smiling	0.0		73.1410527033886	
7.0	47.598876016832946	pulse	1.0	t		31.0	female	east_asian	3.395941106247513	smiling	087	sub-02	2.0	2.0	087_smiling	0.0		73.84102834377973	
7.0	48.298869164748794	pulse	1.0	t		31.0	female	east_asian	3.395941106247513	smiling	087	sub-02	2.0	2.0	087_smiling	0.0		74.54102149169557	
7.0	48.998839975477495	pulse	1.0	t		31.0	female	east_asian	3.395941106247513	smiling	087	sub-02	2.0	2.0	087_smiling	0.0		75.24099230242427	
7.0	49.69882889743985	pulse	1.0	t		31.0	female	east_asian	3.395941106247513	smiling	087	sub-02	2.0	2.0	087_smiling	0.0		75.94098122438663	
8.0	50.015366476287454	face	0.0		146	40.0	female	west_asian	1.5777954635893354	neutral	038	sub-02	2.0	2.0	038_neutral	0.0		76.25751880323423	1.2416500420631564
8.0	50.39882053608653	pulse	0.0	t		40.0	female	west_asian	1.5777954635893354	neutral	038	sub-02	2.0	2.0	038_neutral	0.0		76.64097286303331	
8.0	51.09879798760085	pulse	0.0	t		40.0	female	west_asian	1.5777954635893354	neutral	038	sub-02	2.0	2.0	038_neutral	0.0		77.34095031454763	
8.0	51.25701651835061	fix	1.0		445	40.0	female	west_asian	1.5777954635893354	neutral	038	sub-02	2.0	2.0	038_neutral	0.0		77.49916884529739	3.766565817280025
8.0	51.798789626247526	pulse	1.0	t		40.0	female	west_asian	1.5777954635893354	neutral	038	sub-02	2.0	2.0	038_neutral	0.0		78.0409419531943	
8.0	52.498756512874934	pulse	1.0	t		40.0	female	west_asian	1.5777954635893354	neutral	038	sub-02	2.0	2.0	038_neutral	0.0		78.74090883982171	
8.0	53.19874634039843	pulse	1.0	t		40.0	female	west_asian	1.5777954635893354	neutral	038	sub-02	2.0	2.0	038_neutral	0.0		79.44089866734521	
8.0	53.89872530118191	pulse	1.0	t		40.0	female	west_asian	1.5777954635893354	neutral	038	sub-02	2.0	2.0	038_neutral	0.0		80.14087762812869	
8.0	54.598718750952685	pulse	1.0	t		40.0	female	west_asian	1.5777954635893354	neutral	038	sub-02	2.0	2.0	038_neutral	0.0		80.84087107789946	
9.0	55.023582335630635	face	0.0		145	22.0	female	west_asian	3.8205332272184642	smiling	066	sub-02	2.0	2.0	066_smiling	1.0	trustworthiness	81.26573466257742	1.2333077059374773
9.0	55.298703446960644	pulse	0.0	t		22.0	female	west_asian	3.8205332272184642	smiling	066	sub-02	2.0	2.0	066_smiling	1.0	trustworthiness	81.54085577390742	
9.0	55.9986775780817	pulse	0.0	t		22.0	female	west_asian	3.8205332272184642	smiling	066	sub-02	2.0	2.0	066_smiling	1.0	trustworthiness	82.24082990502848	
9.0	56.25689004156811	fix	1.0		177	22.0	female	west_asian	3.8205332272184642	smiling	066	sub-02	2.0	2.0	066_smiling	1.0	trustworthiness	82.49904236851489	1.4999455153720191
9.0	56.69866951858239	pulse	1.0	t		22.0	female	west_asian	3.8205332272184642	smiling	066	sub-02	2.0	2.0	066_smiling	1.0	trustworthiness	82.94082184552917	
9.0	57.39865149790512	pulse	1.0	t		22.0	female	west_asian	3.8205332272184642	smiling	066	sub-02	2.0	2.0	066_smiling	1.0	trustworthiness	83.6408038248519	
9.0	57.75683555694013	rating	2.0		294	22.0	female	west_asian	3.8205332272184642	smiling	066	sub-02	2.0	2.0	066_smiling	1.0	trustworthiness	83.99898788388691	2.49997238036849
9.0	58.09864796621423	pulse	2.0	t		22.0	female	west_asian	3.8205332272184642	smiling	066	sub-02	2.0	2.0	066_smiling	1.0	trustworthiness	84.34080029316101	
9.0	58.79862209733528	pulse	2.0	t		22.0	female	west_asian	3.8205332272184642	smiling	066	sub-02	2.0	2.0	066_smiling	1.0	trustworthiness	85.04077442428206	
9.0	59.226694087074975	response	2.0	n		22.0	female	west_asian	3.8205332272184642	smiling	066	sub-02	2.0	2.0	066_smiling	1.0	trustworthiness	85.46884641402175	
9.0	59.49858626727746	pulse	2.0	t		22.0	female	west_asian	3.8205332272184642	smiling	066	sub-02	2.0	2.0	066_smiling	1.0	trustworthiness	85.74073859422424	
9.0	60.198585150418694	pulse	2.0	t		22.0	female	west_asian	3.8205332272184642	smiling	066	sub-02	2.0	2.0	066_smiling	1.0	trustworthiness	86.44073747736547	
9.0	60.25680793730862	fix	3.0		444	22.0	female	west_asian	3.8205332272184642	smiling	066	sub-02	2.0	2.0	066_smiling	1.0	trustworthiness	86.4989602642554	3.766562195033657
9.0	60.898582222435834	pulse	3.0	t		22.0	female	west_asian	3.8205332272184642	smiling	066	sub-02	2.0	2.0	066_smiling	1.0	trustworthiness	87.14073454938261	
9.0	61.59854699608604	pulse	3.0	t		22.0	female	west_asian	3.8205332272184642	smiling	066	sub-02	2.0	2.0	066_smiling	1.0	trustworthiness	87.84069932303282	
9.0	62.29853591804749	pulse	3.0	t		22.0	female	west_asian	3.8205332272184642	smiling	066	sub-02	2.0	2.0	066_smiling	1.0	trustworthiness	88.54068824499427	
9.0	62.99851880293227	pulse	3.0	t		22.0	female	west_asian	3.8205332272184642	smiling	066	sub-02	2.0	2.0	066_smiling	1.0	trustworthiness	89.24067112987905	
9.0	63.69850198967015	pulse	3.0	t		22.0	female	west_asian	3.8205332272184642	smiling	066	sub-02	2.0	2.0	066_smiling	1.0	trustworthiness	89.94065431661693	
10.0	64.02337013234228	face	0.0		145	23.0	male	white	2.6275368085953046	neutral	141	sub-02	2.0	2.0	141_neutral	0.0		90.26552245928906	1.2333197800926428
10.0	64.39849000607046	pulse	0.0	t		23.0	male	white	2.6275368085953046	neutral	141	sub-02	2.0	2.0	141_neutral	0.0		90.64064233301724	
10.0	65.0984722872463	pulse	0.0	t		23.0	male	white	2.6275368085953046	neutral	141	sub-02	2.0	2.0	141_neutral	0.0		91.34062461419308	
10.0	65.25668991243492	fix	1.0		445	23.0	male	white	2.6275368085953046	neutral	141	sub-02	2.0	2.0	141_neutral	0.0		91.4988422393817	3.758293511258671
10.0	65.79845547398418	pulse	1.0	t		23.0	male	white	2.6275368085953046	neutral	141	sub-02	2.0	2.0	141_neutral	0.0		92.04060780093096	
10.0	66.49842839769008	pulse	1.0	t		23.0	male	white	2.6275368085953046	neutral	141	sub-02	2.0	2.0	141_neutral	0.0		92.74058072463686	
10.0	67.19842486599919	pulse	1.0	t		23.0	male	white	2.6275368085953046	neutral	141	sub-02	2.0	2.0	141_neutral	0.0		93.44057719294597	
10.0	67.89840624161388	pulse	1.0	t		23.0	male	white	2.6275368085953046	neutral	141	sub-02	2.0	2.0	141_neutral	0.0		94.14055856856066	
10.0	68.59841146368672	pulse	1.0	t		23.0	male	white	2.6275368085953046	neutral	141	sub-02	2.0	2.0	141_neutral	0.0		94.8405637906335	
11.0	69.0149834236936	face	0.0		146	31.0	female	west_asian	2.364902506963788	neutral	006	sub-02	2.0	2.0	006_neutral	0.0		95.25713575064037	1.2415884638685384
11.0	69.2983608427885	pulse	0.0	t		31.0	female	west_asian	2.364902506963788	neutral	006	sub-02	2.0	2.0	006_neutral	0.0		95.54051316973528	
11.0	69.99836817783762	pulse	0.0	t		31.0	female	west_asian	2.364902506963788	neutral	006	sub-02	2.0	2.0	006_neutral	0.0		96.2405205047844	
11.0	70.25657188756213	fix	1.0		444	31.0	female	west_asian	2.364902506963788	neutral	006	sub-02	2.0	2.0	006_neutral	0.0		96.49872421450891	3.758307698391036
11.0	70.69834623305997	pulse	1.0	t		31.0	female	west_asian	2.364902506963788	neutral	006	sub-02	2.0	2.0	006_neutral	0.0		96.94049856000674	
11.0	71.39831462895654	pulse	1.0	t		31.0	female	west_asian	2.364902506963788	neutral	006	sub-02	2.0	2.0	006_neutral	0.0		97.64046695590332	
11.0	72.09830445648004	pulse	1.0	t		31.0	female	west_asian	2.364902506963788	neutral	006	sub-02	2.0	2.0	006_neutral	0.0		98.34045678342682	
11.0	72.79829428400444	pulse	1.0	t		31.0	female	west_asian	2.364902506963788	neutral	006	sub-02	2.0	2.0	006_neutral	0.0		99.04044661095122	
11.0	73.49827143366383	pulse	1.0	t		31.0	female	west_asian	2.364902506963788	neutral	006	sub-02	2.0	2.0	006_neutral	0.0		99.74042376061061	
12.0	74.01487958595317	face	0.0		146	40.0	male	white	1.868682849184242	neutral	172	sub-02	2.0	2.0	172_neutral	0.0		100.25703191289995	1.241567032241619
12.0	74.19826095933422	pulse	0.0	t		40.0	male	white	1.868682849184242	neutral	172	sub-02	2.0	2.0	172_neutral	0.0		100.440413286281	
12.0	74.8982420330949	pulse	0.0	t		40.0	male	white	1.868682849184242	neutral	172	sub-02	2.0	2.0	172_neutral	0.0		101.14039436004168	
12.0	75.25644661819479	fix	1.0		444	40.0	male	white	1.868682849184242	neutral	172	sub-02	2.0	2.0	172_neutral	0.0		101.49859894514157	3.76657306177367
12.0	75.59822461612475	pulse	1.0	t		40.0	male	white	1.868682849184242	neutral	172	sub-02	2.0	2.0	172_neutral	0.0		101.84037694307153	
12.0	76.29820448247028	pulse	1.0	t		40.0	male	white	1.868682849184242	neutral	172	sub-02	2.0	2.0	172_neutral	0.0		102.54035680941706	
12.0	76.99818706550013	pulse	1.0	t		40.0	male	white	1.868682849184242	neutral	172	sub-02	2.0	2.0	172_neutral	0.0		103.24033939244691	
12.0	77.69817659116961	pulse	1.0	t		40.0	male	white	1.868682849184242	neutral	172	sub-02	2.0	2.0	172_neutral	0.0		103.94032891811639	
12.0	78.39816068346954	pulse	1.0	t		40.0	male	white	1.868682849184242	neutral	172	sub-02	2.0	2.0	172_neutral	0.0		104.64031301041632	
13.0	79.02301967996846	face	0.0		145	54.0	female	white	2.286908077994429	smiling	136	sub-02	2.0	2.0	136_smiling	1.0	attractiveness	105.26517200691524	1.2333188745315056
13.0	79.09814628503864	pulse	0.0	t		54.0	female	white	2.286908077994429	smiling	136	sub-02	2.0	2.0	136_smiling	1.0	attractiveness	105.34029861198542	
13.0	79.79812222728378	pulse	0.0	t		54.0	female	white	2.286908077994429	smiling	136	sub-02	2.0	2.0	136_smiling	1.0	attractiveness	106.04027455423056	
13.0	80.25633855449996	fix	1.0		177	54.0	female	white	2.286908077994429	smiling	136	sub-02	2.0	2.0	136_smiling	1.0	attractiveness	106.49849088144674	1.4999678525600757
13.0	80.4981126585144	pulse	1.0	t		54.0	female	white	2.286908077994429	smiling	136	sub-02	2.0	2.0	136_smiling	1.0	attractiveness	106.74026498546118	
13.0	81.19809463783713	pulse	1.0	t		54.0	female	white	2.286908077994429	smiling	136	sub-02	2.0	2.0	136_smiling	1.0	attractiveness	107.44024696478391	
13.0	81.75630640706004	rating	2.0		294	54.0	female	white	2.286908077994429	smiling	136	sub-02	2.0	2.0	136_smiling	1.0	attractiveness	107.99845873400682	2.499937667170343
13.0	81.89808325794547	pulse	2.0	t		54.0	female	white	2.286908077994429	smiling	136	sub-02	2.0	2.0	136_smiling	1.0	attractiveness	108.14023558489225	
13.0	82.43139932523627	response	2.0	d		54.0	female	white	2.286908077994429	smiling	136	sub-02	2.0	2.0	136_smiling	1.0	attractiveness	108.67355165218305	
13.0	82.59805497423531	pulse	2.0	t		54.0	female	white	2.286908077994429	smiling	136	sub-02	2.0	2.0	136_smiling	1.0	attractiveness	108.84020730118209	
13.0	83.29804721659002	pulse	2.0	t		54.0	female	white	2.286908077994429	smiling	136	sub-02	2.0	2.0	136_smiling	1.0	attractiveness	109.5401995435368	
13.0	83.99803734596753	pulse	2.0	t		54.0	female	white	2.286908077994429	smiling	136	sub-02	2.0	2.0	136_smiling	1.0	attractiveness	110.24018967291431	
13.0	84.25624407423038	fix	3.0		444	54.0	female	white	2.286908077994429	smiling	136	sub-02	2.0	2.0	136_smiling	1.0	attractiveness	110.49839640117716	3.7583532783301052
13.0	84.6980138919198	pulse	3.0	t		54.0	female	white	2.286908077994429	smiling	136	sub-02	2.0	2.0	136_smiling	1.0	attractiveness	110.94016621886658	
13.0	85.3980037194433	pulse	3.0	t		54.0	female	white	2.286908077994429	smiling	136	sub-02	2.0	2.0	136_smiling	1.0	attractiveness	111.64015604639008	
13.0	86.09797845427238	pulse	3.0	t		54.0	female	white	2.286908077994429	smiling	136	sub-02	2.0	2.0	136_smiling	1.0	attractiveness	112.34013078121916	
13.0	86.79793990753024	pulse	3.0	t		54.0	female	white	2.286908077994429	smiling	136	sub-02	2.0	2.0	136_smiling	1.0	attractiveness	113.04009223447702	
13.0	87.49794663887224	pulse	3.0	t		54.0	female	white	2.286908077994429	smiling	136	sub-02	2.0	2.0	136_smiling	1.0	attractiveness	113.74009896581902	
14.0	88.01459735256049	face	0.0		146	19.0	male	white	2.243931555909272	smiling	130	sub-02	2.0	2.0	130_smiling	0.0		114.25674967950727	1.241537752413933
14.0	88.19793405156452	pulse	0.0	t		19.0	male	white	2.243931555909272	smiling	130	sub-02	2.0	2.0	130_smiling	0.0		114.4400863785113	
14.0	88.89790788083155	pulse	0.0	t		19.0	male	white	2.243931555909272	smiling	130	sub-02	2.0	2.0	130_smiling	0.0		115.14006020777833	
14.0	89.25613510497442	fix	1.0		444	19.0	male	white	2.243931555909272	smiling	130	sub-02	2.0	2.0	130_smiling	0.0		115.4982874319212	3.7665573653703177
14.0	89.59789982133316	pulse	1.0	t		19.0	male	white	2.243931555909272	smiling	130	sub-02	2.0	2.0	130_smiling	0.0		115.84005214827994	
14.0	90.29788240436301	pulse	1.0	t		19.0	male	white	2.243931555909272	smiling	130	sub-02	2.0	2.0	130_smiling	0.0		116.54003473130979	
14.0	90.99788762643493	pulse	1.0	t		19.0	male	white	2.243931555909272	smiling	130	sub-02	2.0	2.0	130_smiling	0.0		117.24003995338171	
14.0	91.69784062778399	pulse	1.0	t		19.0	male	white	2.243931555909272	smiling	130	sub-02	2.0	2.0	130_smiling	0.0		117.93999295473077	
14.0	92.39783015345347	pulse	1.0	t		19.0	male	white	2.243931555909272	smiling	130	sub-02	2.0	2.0	130_smiling	0.0		118.63998248040025	
15.0	93.02269247034474	face	0.0		145	40.0	male	black	2.408674890569041	neutral	061	sub-02	2.0	2.0	061_neutral	0.0		119.26484479729152	1.233318270824384
15.0	93.09781937726984	pulse	0.0	t		40.0	male	black	2.408674890569041	neutral	061	sub-02	2.0	2.0	061_neutral	0.0		119.33997170421662	
15.0	93.79779230097483	pulse	0.0	t		40.0	male	black	2.408674890569041	neutral	061	sub-02	2.0	2.0	061_neutral	0.0		120.03994462792161	
15.0	94.25601074116912	fix	1.0		444	40.0	male	black	2.408674890569041	neutral	061	sub-02	2.0	2.0	061_neutral	0.0		120.4981630681159	3.766565213571994
15.0	94.49778846743084	pulse	1.0	t		40.0	male	black	2.408674890569041	neutral	061	sub-02	2.0	2.0	061_neutral	0.0		120.73994079437762	
15.0	95.19777799310032	pulse	1.0	t		40.0	male	black	2.408674890569041	neutral	061	sub-02	2.0	2.0	061_neutral	0.0		121.4399303200471	
15.0	95.89774337045856	pulse	1.0	t		40.0	male	black	2.408674890569041	neutral	061	sub-02	2.0	2.0	061_neutral	0.0		122.13989569740534	
15.0	96.59772444421924	pulse	1.0	t		40.0	male	black	2.408674890569041	neutral	061	sub-02	2.0	2.0	061_neutral	0.0		122.83987677116602	
15.0	97.2977154791588	pulse	1.0	t		40.0	male	black	2.408674890569041	neutral	061	sub-02	2.0	2.0	061_neutral	0.0		123.53986780610558	
15.0	97.99770228814305	pulse	1.0	t		40.0	male	black	2.408674890569041	neutral	061	sub-02	2.0	2.0	061_neutral	0.0		124.23985461508983	
16.0	98.02257595474111	face	0.0		146	27.0	male	black	3.5523278949462798	neutral	042	sub-02	2.0	2.0	042_neutral	0.0		124.2647282816879	1.2333185726783995
16.0	98.6976848711729	pulse	0.0	t		27.0	male	black	3.5523278949462798	neutral	042	sub-02	2.0	2.0	042_neutral	0.0		124.93983719811968	
16.0	99.25589452741951	fix	1.0		443	27.0	male	black	3.5523278949462798	neutral	042	sub-02	2.0	2.0	042_neutral	0.0		125.4980468543663	3.7665295948118
16.0	99.39767983021284	pulse	1.0	t		27.0	male	black	3.5523278949462798	neutral	042	sub-02	2.0	2.0	042_neutral	0.0		125.63983215715962	
16.0	100.09765184835669	pulse	1.0	t		27.0	male	black	3.5523278949462798	neutral	042	sub-02	2.0	2.0	042_neutral	0.0		126.33980417530347	
16.0	100.79763594065662	pulse	1.0	t		27.0	male	black	3.5523278949462798	neutral	042	sub-02	2.0	2.0	042_neutral	0.0		127.0397882676034	
16.0	101.49761248660889	pulse	1.0	t		27.0	male	black	3.5523278949462798	neutral	042	sub-02	2.0	2.0	042_neutral	0.0		127.73976481355567	
16.0	102.19760503081761	pulse	1.0	t		27.0	male	black	3.5523278949462798	neutral	042	sub-02	2.0	2.0	042_neutral	0.0		128.4397573577644	
16.0	102.89758851940951	pulse	1.0	t		27.0	male	black	3.5523278949462798	neutral	042	sub-02	2.0	2.0	042_neutral	0.0		129.1397408463563	
17.0	103.02242412223131	face	0.0		146	20.0	male	black	3.1070433744528456	neutral	082	sub-02	2.0	2.0	082_neutral	0.0		129.2645764491781	1.2333523803145
17.0	103.59755812272215	pulse	0.0	t		20.0	male	black	3.1070433744528456	neutral	082	sub-02	2.0	2.0	082_neutral	0.0		129.83971044966893	
17.0	104.25577650254581	fix	1.0		443	20.0	male	black	3.1070433744528456	neutral	082	sub-02	2.0	2.0	082_neutral	0.0		130.4979288294926	3.758344222712367
17.0	104.29756696704135	pulse	1.0	t		20.0	male	black	3.1070433744528456	neutral	082	sub-02	2.0	2.0	082_neutral	0.0		130.53971929398813	
17.0	104.99753807962406	pulse	1.0	t		20.0	male	black	3.1070433744528456	neutral	082	sub-02	2.0	2.0	082_neutral	0.0		131.23969040657084	
17.0	105.69751462557633	pulse	1.0	t		20.0	male	black	3.1070433744528456	neutral	082	sub-02	2.0	2.0	082_neutral	0.0		131.9396669525231	
17.0	106.39750475495384	pulse	1.0	t		20.0	male	black	3.1070433744528456	neutral	082	sub-02	2.0	2.0	082_neutral	0.0		132.63965708190062	
17.0	107.09752235303586	pulse	1.0	t		20.0	male	black	3.1070433744528456	neutral	082	sub-02	2.0	2.0	082_neutral	0.0		133.33967467998264	
17.0	107.79747052472158	pulse	1.0	t		20.0	male	black	3.1070433744528456	neutral	082	sub-02	2.0	2.0	082_neutral	0.0		134.03962285166835	
18.0	108.01412072525818	face	0.0		146	22.0	female	white	4.614007162753682	neutral	009	sub-02	2.0	2.0	009_neutral	0.0		134.25627305220496	1.2415341301675653
18.0	108.49745642814469	pulse	0.0	t		22.0	female	white	4.614007162753682	neutral	009	sub-02	2.0	2.0	009_neutral	0.0		134.73960875509147	
18.0	109.19744202971378	pulse	0.0	t		22.0	female	white	4.614007162753682	neutral	009	sub-02	2.0	2.0	009_neutral	0.0		135.43959435666056	
18.0	109.25565485542575	fix	1.0		444	22.0	female	white	4.614007162753682	neutral	009	sub-02	2.0	2.0	009_neutral	0.0		135.49780718237253	3.7583140373226342
18.0	109.89742008493613	pulse	1.0	t		22.0	female	white	4.614007162753682	neutral	009	sub-02	2.0	2.0	009_neutral	0.0		136.1395724118829	
18.0	110.59740236611196	pulse	1.0	t		22.0	female	white	4.614007162753682	neutral	009	sub-02	2.0	2.0	009_neutral	0.0		136.83955469305874	
18.0	111.29738585470386	pulse	1.0	t		22.0	female	white	4.614007162753682	neutral	009	sub-02	2.0	2.0	009_neutral	0.0		137.53953818165064	
18.0	111.997372361835	pulse	1.0	t		22.0	female	white	4.614007162753682	neutral	009	sub-02	2.0	2.0	009_neutral	0.0		138.23952468878178	
18.0	112.69735645413402	pulse	1.0	t		22.0	female	white	4.614007162753682	neutral	009	sub-02	2.0	2.0	009_neutral	0.0		138.9395087810808	
19.0	113.01396889274838	face	0.0		146	23.0	male	white	2.6275368085953046	smiling	141	sub-02	2.0	2.0	141_smiling	1.0	attractiveness	139.25612121969516	1.2415757860053418
19.0	113.39734235755714	pulse	0.0	t		23.0	male	white	2.6275368085953046	smiling	141	sub-02	2.0	2.0	141_smiling	1.0	attractiveness	139.63949468450392	
19.0	114.09731829980228	pulse	0.0	t		23.0	male	white	2.6275368085953046	smiling	141	sub-02	2.0	2.0	141_smiling	1.0	attractiveness	140.33947062674906	
19.0	114.25554467875372	fix	1.0		177	23.0	male	white	2.6275368085953046	smiling	141	sub-02	2.0	2.0	141_smiling	1.0	attractiveness	140.4976970057005	1.4999406857095892
19.0	114.79741981326697	pulse	1.0	t		23.0	male	white	2.6275368085953046	smiling	141	sub-02	2.0	2.0	141_smiling	1.0	attractiveness	141.03957214021375	
19.0	115.49736707939155	pulse	1.0	t		23.0	male	white	2.6275368085953046	smiling	141	sub-02	2.0	2.0	141_smiling	1.0	attractiveness	141.73951940633833	
19.0	115.75548536446331	rating	2.0		295	23.0	male	white	2.6275368085953046	smiling	141	sub-02	2.0	2.0	141_smiling	1.0	attractiveness	141.9976376914101	2.4999642303127985
19.0	116.19728053787912	pulse	2.0	t		23.0	male	white	2.6275368085953046	smiling	141	sub-02	2.0	2.0	141_smiling	1.0	attractiveness	142.4394328648259	
19.0	116.89725768753942	pulse	2.0	t		23.0	male	white	2.6275368085953046	smiling	141	sub-02	2.0	2.0	141_smiling	1.0	attractiveness	143.1394100144862	
19.0	116.93891594002889	response	2.0	w		23.0	male	white	2.6275368085953046	smiling	141	sub-02	2.0	2.0	141_smiling	1.0	attractiveness	143.18106826697567	
19.0	117.59723272422252	pulse	2.0	t		23.0	male	white	2.6275368085953046	smiling	141	sub-02	2.0	2.0	141_smiling	1.0	attractiveness	143.8393850511693	
19.0	118.25544959477611	fix	3.0		443	23.0	male	white	2.6275368085953046	smiling	141	sub-02	2.0	2.0	141_smiling	1.0	attractiveness	144.4976019217229	3.7665624968876728
19.0	118.2972285888236	pulse	3.0	t		23.0	male	white	2.6275368085953046	smiling	141	sub-02	2.0	2.0	141_smiling	1.0	attractiveness	144.53938091577038	
19.0	118.99720121067548	pulse	3.0	t		23.0	male	white	2.6275368085953046	smiling	141	sub-02	2.0	2.0	141_smiling	1.0	attractiveness	145.23935353762226	
19.0	119.69719284932307	pulse	3.0	t		23.0	male	white	2.6275368085953046	smiling	141	sub-02	2.0	2.0	141_smiling	1.0	attractiveness	145.93934517626985	
19.0	120.39718599723892	pulse	3.0	t		23.0	male	white	2.6275368085953046	smiling	141	sub-02	2.0	2.0	141_smiling	1.0	attractiveness	146.6393383241857	
19.0	121.09716133577604	pulse	3.0	t		23.0	male	white	2.6275368085953046	smiling	141	sub-02	2.0	2.0	141_smiling	1.0	attractiveness	147.33931366272282	
19.0	121.79713184465072	pulse	3.0	t		23.0	male	white	2.6275368085953046	smiling	141	sub-02	2.0	2.0	141_smiling	1.0	attractiveness	148.0392841715975	
20.0	122.02201209166378	face	0.0		145	25.0	female	west_asian	2.6756864305610826	neutral	064	sub-02	2.0	2.0	064_neutral	1.0	dominance	148.26416441861056	1.2333200819466583
20.0	122.49713948155386	pulse	0.0	t		25.0	female	west_asian	2.6756864305610826	neutral	064	sub-02	2.0	2.0	064_neutral	1.0	dominance	148.73929180850064	
20.0	123.19713715727903	pulse	0.0	t		25.0	female	west_asian	2.6756864305610826	neutral	064	sub-02	2.0	2.0	064_neutral	1.0	dominance	149.4392894842258	
20.0	123.25533217361044	fix	1.0		177	25.0	female	west_asian	2.6756864305610826	neutral	064	sub-02	2.0	2.0	064_neutral	1.0	dominance	149.49748450055722	1.4999657395828763
20.0	123.89709317716643	pulse	1.0	t		25.0	female	west_asian	2.6756864305610826	neutral	064	sub-02	2.0	2.0	064_neutral	1.0	dominance	150.1392455041132	
20.0	124.59707545834226	pulse	1.0	t		25.0	female	west_asian	2.6756864305610826	neutral	064	sub-02	2.0	2.0	064_neutral	1.0	dominance	150.83922778528904	
20.0	124.75529791319332	rating	2.0		295	25.0	female	west_asian	2.6756864305610826	neutral	064	sub-02	2.0	2.0	064_neutral	1.0	dominance	150.9974502401401	2.4999421949787575
20.0	125.29706709698985	pulse	2.0	t		25.0	female	west_asian	2.6756864305610826	neutral	064	sub-02	2.0	2.0	064_neutral	1.0	dominance	151.53921942393663	
20.0	125.99704364294212	pulse	2.0	t		25.0	female	west_asian	2.6756864305610826	neutral	064	sub-02	2.0	2.0	064_neutral	1.0	dominance	152.2391959698889	
20.0	126.15842680993865	response	2.0	w		25.0	female	west_asian	2.6756864305610826	neutral	064	sub-02	2.0	2.0	064_neutral	1.0	dominance	152.40057913688543	
20.0	126.69701475552392	pulse	2.0	t		25.0	female	west_asian	2.6756864305610826	neutral	064	sub-02	2.0	2.0	064_neutral	1.0	dominance	152.9391670824707	
20.0	127.25524010817207	fix	3.0		1184	25.0	female	west_asian	2.6756864305610826	neutral	064	sub-02	2.0	2.0	064_neutral	1.0	dominance	153.49739243511885	10.008206200019231
20.0	127.39701544978834	pulse	3.0	t		25.0	female	west_asian	2.6756864305610826	neutral	064	sub-02	2.0	2.0	064_neutral	1.0	dominance	153.63916777673512	
20.0	128.09699742911016	pulse	3.0	t		25.0	female	west_asian	2.6756864305610826	neutral	064	sub-02	2.0	2.0	064_neutral	1.0	dominance	154.33914975605694	
20.0	128.79697216393924	pulse	3.0	t		25.0	female	west_asian	2.6756864305610826	neutral	064	sub-02	2.0	2.0	064_neutral	1.0	dominance	155.03912449088602	
20.0	129.49696259517077	pulse	3.0	t		25.0	female	west_asian	2.6756864305610826	neutral	064	sub-02	2.0	2.0	064_neutral	1.0	dominance	155.73911492211755	
20.0	130.19695151713313	pulse	3.0	t		25.0	female	west_asian	2.6756864305610826	neutral	064	sub-02	2.0	2.0	064_neutral	1.0	dominance	156.4391038440799	
20.0	130.89692293156895	pulse	3.0	t		25.0	female	west_asian	2.6756864305610826	neutral	064	sub-02	2.0	2.0	064_neutral	1.0	dominance	157.13907525851573	
20.0	131.59690702386888	pulse	3.0	t		25.0	female	west_asian	2.6756864305610826	neutral	064	sub-02	2.0	2.0	064_neutral	1.0	dominance	157.83905935081566	
20.0	132.29690107734677	pulse	3.0	t		25.0	female	west_asian	2.6756864305610826	neutral	064	sub-02	2.0	2.0	064_neutral	1.0	dominance	158.53905340429355	
20.0	132.9968827548155	pulse	3.0	t		25.0	female	west_asian	2.6756864305610826	neutral	064	sub-02	2.0	2.0	064_neutral	1.0	dominance	159.23903508176227	
20.0	133.6968644322842	pulse	3.0	t		25.0	female	west_asian	2.6756864305610826	neutral	064	sub-02	2.0	2.0	064_neutral	1.0	dominance	159.93901675923098	
20.0	134.39686240986248	pulse	3.0	t		25.0	female	west_asian	2.6756864305610826	neutral	064	sub-02	2.0	2.0	064_neutral	1.0	dominance	160.63901473680926	
20.0	135.09683714469156	pulse	3.0	t		25.0	female	west_asian	2.6756864305610826	neutral	064	sub-02	2.0	2.0	064_neutral	1.0	dominance	161.33898947163834	
20.0	135.79680523873503	pulse	3.0	t		25.0	female	west_asian	2.6756864305610826	neutral	064	sub-02	2.0	2.0	064_neutral	1.0	dominance	162.0389575656818	
20.0	136.49679295328133	pulse	3.0	t		25.0	female	west_asian	2.6756864305610826	neutral	064	sub-02	2.0	2.0	064_neutral	1.0	dominance	162.7389452802281	
20.0	137.19679002529847	pulse	3.0	t		25.0	female	west_asian	2.6756864305610826	neutral	064	sub-02	2.0	2.0	064_neutral	1.0	dominance	163.43894235224525	
21.0	137.2634463081913	face	0.0		147	22.0	female	white	4.614007162753682	smiling	009	sub-02	2.0	2.0	009_smiling	0.0		163.50559863513809	1.2415283949430886
21.0	137.89676747681278	pulse	0.0	t		22.0	female	white	4.614007162753682	smiling	009	sub-02	2.0	2.0	009_smiling	0.0		164.13891980375956	
21.0	138.5049747031344	fix	1.0		443	22.0	female	white	4.614007162753682	smiling	009	sub-02	2.0	2.0	009_smiling	0.0		164.74712703008117	3.7583013594594377
21.0	138.59678175450154	pulse	1.0	t		22.0	female	white	4.614007162753682	smiling	009	sub-02	2.0	2.0	009_smiling	0.0		164.83893408144831	
21.0	139.29673324658052	pulse	1.0	t		22.0	female	white	4.614007162753682	smiling	009	sub-02	2.0	2.0	009_smiling	0.0		165.5388855735273	
21.0	139.99671794258848	pulse	1.0	t		22.0	female	white	4.614007162753682	smiling	009	sub-02	2.0	2.0	009_smiling	0.0		166.23887026953525	
21.0	140.69669267741665	pulse	1.0	t		22.0	female	white	4.614007162753682	smiling	009	sub-02	2.0	2.0	009_smiling	0.0		166.93884500436343	
21.0	141.39668069381696	pulse	1.0	t		22.0	female	white	4.614007162753682	smiling	009	sub-02	2.0	2.0	009_smiling	0.0		167.63883302076374	
21.0	142.09666750280212	pulse	1.0	t		22.0	female	white	4.614007162753682	smiling	009	sub-02	2.0	2.0	009_smiling	0.0		168.3388198297489	
22.0	142.26327606259383	face	0.0		147	26.0	female	white	4.854755272582572	smiling	027	sub-02	2.0	2.0	027_smiling	0.0		168.5054283895406	1.249915707299806
22.0	142.79665582105645	pulse	0.0	t		26.0	female	white	4.854755272582572	smiling	027	sub-02	2.0	2.0	027_smiling	0.0		169.03880814800323	
22.0	143.49662934846947	pulse	0.0	t		26.0	female	white	4.854755272582572	smiling	027	sub-02	2.0	2.0	027_smiling	0.0		169.73878167541625	
22.0	143.51319176989364	fix	1.0		443	26.0	female	white	4.854755272582572	smiling	027	sub-02	2.0	2.0	027_smiling	0.0		169.75534409684042	3.7582307256470813
22.0	144.1966218926782	pulse	1.0	t		26.0	female	white	4.854755272582572	smiling	027	sub-02	2.0	2.0	027_smiling	0.0		170.43877421962497	
22.0	144.89660266458486	pulse	1.0	t		26.0	female	white	4.854755272582572	smiling	027	sub-02	2.0	2.0	027_smiling	0.0		171.13875499153164	
22.0	145.59658766244684	pulse	1.0	t		26.0	female	white	4.854755272582572	smiling	027	sub-02	2.0	2.0	027_smiling	0.0		171.83873998939362	
22.0	146.29656662323032	pulse	1.0	t		26.0	female	white	4.854755272582572	smiling	027	sub-02	2.0	2.0	027_smiling	0.0		172.5387189501771	
22.0	146.99654679142895	pulse	1.0	t		26.0	female	white	4.854755272582572	smiling	027	sub-02	2.0	2.0	027_smiling	0.0		173.23869911837573	
23.0	147.27142249554072	face	0.0		145	28.0	male	east_asian	1.5563072025467568	neutral	005	sub-02	2.0	2.0	005_neutral	0.0		173.5135748224875	1.233318270824384
23.0	147.6965420523229	pulse	0.0	t		28.0	male	east_asian	1.5563072025467568	neutral	005	sub-02	2.0	2.0	005_neutral	0.0		173.9386943792697	
23.0	148.3965213149604	pulse	0.0	t		28.0	male	east_asian	1.5563072025467568	neutral	005	sub-02	2.0	2.0	005_neutral	0.0		174.6386736419072	
23.0	148.5047407663651	fix	1.0		445	28.0	male	east_asian	1.5563072025467568	neutral	005	sub-02	2.0	2.0	005_neutral	0.0		174.74689309331188	3.7582941149657927
23.0	149.09650510540632	pulse	1.0	t		28.0	male	east_asian	1.5563072025467568	neutral	005	sub-02	2.0	2.0	005_neutral	0.0		175.3386574323531	
23.0	149.7964840661889	pulse	1.0	t		28.0	male	east_asian	1.5563072025467568	neutral	005	sub-02	2.0	2.0	005_neutral	0.0		176.03863639313568	
23.0	150.49647449742042	pulse	1.0	t		28.0	male	east_asian	1.5563072025467568	neutral	005	sub-02	2.0	2.0	005_neutral	0.0		176.7386268243672	
23.0	151.1964594952824	pulse	1.0	t		28.0	male	east_asian	1.5563072025467568	neutral	005	sub-02	2.0	2.0	005_neutral	0.0		177.43861182222918	
23.0	151.89643332454943	pulse	1.0	t		28.0	male	east_asian	1.5563072025467568	neutral	005	sub-02	2.0	2.0	005_neutral	0.0		178.13858565149621	
24.0	152.2630348813309	face	0.0		146	26.0	female	white	4.854755272582572	neutral	027	sub-02	2.0	2.0	027_neutral	0.0		178.50518720827768	1.2415866527453545
24.0	152.5964267743202	pulse	0.0	t		26.0	female	white	4.854755272582572	neutral	027	sub-02	2.0	2.0	027_neutral	0.0		178.838579101267	
24.0	153.29640935735006	pulse	0.0	t		26.0	female	white	4.854755272582572	neutral	027	sub-02	2.0	2.0	027_neutral	0.0		179.53856168429684	
24.0	153.50462153407625	fix	1.0		444	26.0	female	white	4.854755272582572	neutral	027	sub-02	2.0	2.0	027_neutral	0.0		179.74677386102303	3.7665655154260094
24.0	153.9963916385268	pulse	1.0	t		26.0	female	white	4.854755272582572	neutral	027	sub-02	2.0	2.0	027_neutral	0.0		180.23854396547358	
24.0	154.6963772400959	pulse	1.0	t		26.0	female	white	4.854755272582572	neutral	027	sub-02	2.0	2.0	027_neutral	0.0		180.93852956704268	
24.0	155.39634684340854	pulse	1.0	t		26.0	female	white	4.854755272582572	neutral	027	sub-02	2.0	2.0	027_neutral	0.0		181.63849917035532	
24.0	156.09633787834719	pulse	1.0	t		26.0	female	white	4.854755272582572	neutral	027	sub-02	2.0	2.0	027_neutral	0.0		182.33849020529397	
24.0	156.7963153298615	pulse	1.0	t		26.0	female	white	4.854755272582572	neutral	027	sub-02	2.0	2.0	027_neutral	0.0		183.03846765680828	
25.0	157.27118704950226	face	0.0		145	54.0	female	white	2.286908077994429	neutral	136	sub-02	2.0	2.0	136_neutral	0.0		183.51333937644904	1.23331857267749
25.0	157.49630998704743	pulse	0.0	t		54.0	female	white	2.286908077994429	neutral	136	sub-02	2.0	2.0	136_neutral	0.0		183.7384623139942	
25.0	158.19628804226886	pulse	0.0	t		54.0	female	white	2.286908077994429	neutral	136	sub-02	2.0	2.0	136_neutral	0.0		184.43844036921564	
25.0	158.50450562217975	fix	1.0		444	54.0	female	white	2.286908077994429	neutral	136	sub-02	2.0	2.0	136_neutral	0.0		184.74665794912653	3.7665655154260094
25.0	158.896274247546	pulse	1.0	t		54.0	female	white	2.286908077994429	neutral	136	sub-02	2.0	2.0	136_neutral	0.0		185.13842657449277	
25.0	159.59625984911509	pulse	1.0	t		54.0	female	white	2.286908077994429	neutral	136	sub-02	2.0	2.0	136_neutral	0.0		185.83841217606187	
25.0	160.29624333770698	pulse	1.0	t		54.0	female	white	2.286908077994429	neutral	136	sub-02	2.0	2.0	136_neutral	0.0		186.53839566465376	
25.0	160.99621777068205	pulse	1.0	t		54.0	female	white	2.286908077994429	neutral	136	sub-02	2.0	2.0	136_neutral	0.0		187.23837009762883	
25.0	161.69620337225115	pulse	1.0	t		54.0	female	white	2.286908077994429	neutral	136	sub-02	2.0	2.0	136_neutral	0.0		187.93835569919793	
26.0	162.27107113760576	face	0.0		145	25.0	female	black	3.858336649423	neutral	126	sub-02	2.0	2.0	126_neutral	0.0		188.51322346455254	1.23331857267749
26.0	162.3961922942135	pulse	0.0	t		25.0	female	black	3.858336649423	neutral	126	sub-02	2.0	2.0	126_neutral	0.0		188.6383446211603	
26.0	163.09618091432185	pulse	0.0	t		25.0	female	black	3.858336649423	neutral	126	sub-02	2.0	2.0	126_neutral	0.0		189.33833324126863	
26.0	163.50438971028325	fix	1.0		444	25.0	female	black	3.858336649423	neutral	126	sub-02	2.0	2.0	126_neutral	0.0		189.74654203723003	3.7582627221609073
26.0	163.7961613843745	pulse	1.0	t		25.0	female	black	3.858336649423	neutral	126	sub-02	2.0	2.0	126_neutral	0.0		190.03831371132128	
26.0	164.49615423043724	pulse	1.0	t		25.0	female	black	3.858336649423	neutral	126	sub-02	2.0	2.0	126_neutral	0.0		190.73830655738402	
26.0	165.1961328893667	pulse	1.0	t		25.0	female	black	3.858336649423	neutral	126	sub-02	2.0	2.0	126_neutral	0.0		191.4382852163135	
26.0	165.8961055112186	pulse	1.0	t		25.0	female	black	3.858336649423	neutral	126	sub-02	2.0	2.0	126_neutral	0.0		192.13825783816537	
26.0	166.59608386829404	pulse	1.0	t		25.0	female	black	3.858336649423	neutral	126	sub-02	2.0	2.0	126_neutral	0.0		192.83823619524082	
27.0	167.26265243244416	face	0.0		146	24.0	male	white	3.1153999204138483	smiling	012	sub-02	2.0	2.0	012_smiling	0.0		193.50480475939094	1.2416219696515327
27.0	167.29610539047644	pulse	0.0	t		24.0	male	white	3.1153999204138483	smiling	012	sub-02	2.0	2.0	012_smiling	0.0		193.53825771742322	
27.0	167.9960626177799	pulse	0.0	t		24.0	male	white	3.1153999204138483	smiling	012	sub-02	2.0	2.0	012_smiling	0.0		194.23821494472668	
27.0	168.5042744020957	fix	1.0		443	24.0	male	white	3.1153999204138483	smiling	012	sub-02	2.0	2.0	012_smiling	0.0		194.74642672904247	3.7582992464822382
27.0	168.696048521203	pulse	1.0	t		24.0	male	white	3.1153999204138483	smiling	012	sub-02	2.0	2.0	012_smiling	0.0		194.9382008481498	
27.0	169.39602325603119	pulse	1.0	t		24.0	male	white	3.1153999204138483	smiling	012	sub-02	2.0	2.0	012_smiling	0.0		195.63817558297796	
27.0	170.0960151965328	pulse	1.0	t		24.0	male	white	3.1153999204138483	smiling	012	sub-02	2.0	2.0	012_smiling	0.0		196.33816752347957	
27.0	170.79600260922507	pulse	1.0	t		24.0	male	white	3.1153999204138483	smiling	012	sub-02	2.0	2.0	012_smiling	0.0		197.03815493617185	
27.0	171.4959697977065	pulse	1.0	t		24.0	male	white	3.1153999204138483	smiling	012	sub-02	2.0	2.0	012_smiling	0.0		197.73812212465327	
27.0	172.19595238073725	pulse	1.0	t		24.0	male	white	3.1153999204138483	smiling	012	sub-02	2.0	2.0	012_smiling	0.0		198.43810470768403	
28.0	172.26257364857793	face	0.0		147	19.0	male	white	3.2522881018702745	neutral	018	sub-02	2.0	2.0	018_neutral	0.0		198.5047259755247	1.2415812193748934
28.0	172.89596696028002	pulse	0.0	t		19.0	male	white	3.2522881018702745	neutral	018	sub-02	2.0	2.0	018_neutral	0.0		199.1381192872268	
28.0	173.50415486795282	fix	1.0		443	19.0	male	white	3.2522881018702745	neutral	018	sub-02	2.0	2.0	018_neutral	0.0		199.7463071948996	3.766565213571994
28.0	173.59593173393023	pulse	1.0	t		19.0	male	white	3.2522881018702745	neutral	018	sub-02	2.0	2.0	018_neutral	0.0		199.838084060877	
28.0	174.29591975033054	pulse	1.0	t		19.0	male	white	3.2522881018702745	neutral	018	sub-02	2.0	2.0	018_neutral	0.0		200.53807207727732	
28.0	174.9958938814516	pulse	1.0	t		19.0	male	white	3.2522881018702745	neutral	018	sub-02	2.0	2.0	018_neutral	0.0		201.23804620839837	
28.0	175.69587706818947	pulse	1.0	t		19.0	male	white	3.2522881018702745	neutral	018	sub-02	2.0	2.0	018_neutral	0.0		201.93802939513625	
28.0	176.3958590475122	pulse	1.0	t		19.0	male	white	3.2522881018702745	neutral	018	sub-02	2.0	2.0	018_neutral	0.0		202.63801137445898	
28.0	177.09585189357495	pulse	1.0	t		19.0	male	white	3.2522881018702745	neutral	018	sub-02	2.0	2.0	018_neutral	0.0		203.33800422052173	
29.0	177.27072008152481	face	0.0		146	21.0	male	east_asian/white	3.501790688420215	neutral	036	sub-02	2.0	2.0	036_neutral	0.0		203.5128724084716	1.2416506457711876
29.0	177.79583387289676	pulse	0.0	t		21.0	male	east_asian/white	3.501790688420215	neutral	036	sub-02	2.0	2.0	036_neutral	0.0		204.03798619984354	
29.0	178.49581011699593	pulse	0.0	t		21.0	male	east_asian/white	3.501790688420215	neutral	036	sub-02	2.0	2.0	036_neutral	0.0		204.7379624439427	
29.0	178.512370727296	fix	1.0		443	21.0	male	east_asian/white	3.501790688420215	neutral	036	sub-02	2.0	2.0	036_neutral	0.0		204.75452305424278	3.7499738141741545
29.0	179.19580115193457	pulse	1.0	t		21.0	male	east_asian/white	3.501790688420215	neutral	036	sub-02	2.0	2.0	036_neutral	0.0		205.43795347888135	
29.0	179.89578162198814	pulse	1.0	t		21.0	male	east_asian/white	3.501790688420215	neutral	036	sub-02	2.0	2.0	036_neutral	0.0		206.13793394893491	
29.0	180.59576571428715	pulse	1.0	t		21.0	male	east_asian/white	3.501790688420215	neutral	036	sub-02	2.0	2.0	036_neutral	0.0		206.83791804123393	
29.0	181.29574558063268	pulse	1.0	t		21.0	male	east_asian/white	3.501790688420215	neutral	036	sub-02	2.0	2.0	036_neutral	0.0		207.53789790757946	
29.0	181.99573963411058	pulse	1.0	t		21.0	male	east_asian/white	3.501790688420215	neutral	036	sub-02	2.0	2.0	036_neutral	0.0		208.23789196105736	
30.0	182.26234454147016	face	0.0		146	26.0	male	white	2.7966573816155993	smiling	117	sub-02	2.0	2.0	117_smiling	0.0		208.50449686841694	1.241576389713373
30.0	182.6957276505109	pulse	0.0	t		26.0	male	white	2.7966573816155993	smiling	117	sub-02	2.0	2.0	117_smiling	0.0		208.93787997745767	
30.0	183.39569936680073	pulse	0.0	t		26.0	male	white	2.7966573816155993	smiling	117	sub-02	2.0	2.0	117_smiling	0.0		209.6378516937475	
30.0	183.50392093118353	fix	1.0		444	26.0	male	white	2.7966573816155993	smiling	117	sub-02	2.0	2.0	117_smiling	0.0		209.7460732581303	3.76656340244881
30.0	184.09568557207785	pulse	1.0	t		26.0	male	white	2.7966573816155993	smiling	117	sub-02	2.0	2.0	117_smiling	0.0		210.33783789902463	
30.0	184.79566755140058	pulse	1.0	t		26.0	male	white	2.7966573816155993	smiling	117	sub-02	2.0	2.0	117_smiling	0.0		211.03781987834736	
30.0	185.49566251044052	pulse	1.0	t		26.0	male	white	2.7966573816155993	smiling	117	sub-02	2.0	2.0	117_smiling	0.0		211.7378148373873	
30.0	186.19563241560718	pulse	1.0	t		26.0	male	white	2.7966573816155993	smiling	117	sub-02	2.0	2.0	117_smiling	0.0		212.43778474255396	
30.0	186.89560775414338	pulse	1.0	t		26.0	male	white	2.7966573816155993	smiling	117	sub-02	2.0	2.0	117_smiling	0.0		213.13776008109016	
31.0	187.27048433363234	face	0.0		145	37.0	male	white	3.898925586947871	neutral	101	sub-02	2.0	2.0	101_neutral	0.0		213.51263666057912	1.2333203838006739
31.0	187.59560663728462	pulse	0.0	t		37.0	male	white	3.898925586947871	neutral	101	sub-02	2.0	2.0	101_neutral	0.0		213.8377589642314	
31.0	188.29558680548325	pulse	0.0	t		37.0	male	white	3.898925586947871	neutral	101	sub-02	2.0	2.0	101_neutral	0.0		214.53773913243003	
31.0	188.503804717433	fix	1.0		444	37.0	male	white	3.898925586947871	neutral	101	sub-02	2.0	2.0	101_neutral	0.0		214.7459570443798	3.7665618931796416
31.0	188.9955373920002	pulse	1.0	t		37.0	male	white	3.898925586947871	neutral	101	sub-02	2.0	2.0	101_neutral	0.0		215.23768971894697	
31.0	189.69554744373545	pulse	1.0	t		37.0	male	white	3.898925586947871	neutral	101	sub-02	2.0	2.0	101_neutral	0.0		215.93769977068223	
31.0	190.3955387805281	pulse	1.0	t		37.0	male	white	3.898925586947871	neutral	101	sub-02	2.0	2.0	101_neutral	0.0		216.6376911074749	
31.0	191.09551864687364	pulse	1.0	t		37.0	male	white	3.898925586947871	neutral	101	sub-02	2.0	2.0	101_neutral	0.0		217.33767097382042	
31.0	191.79549368355674	pulse	1.0	t		37.0	male	white	3.898925586947871	neutral	101	sub-02	2.0	2.0	101_neutral	0.0		218.03764601050352	
32.0	192.27036661061265	face	0.0		145	28.0	female	white	5.676880222841227	smiling	124	sub-02	2.0	2.0	124_smiling	0.0		218.51251893755943	1.2333309486875805
32.0	192.49548985001184	pulse	0.0	t		28.0	female	white	5.676880222841227	smiling	124	sub-02	2.0	2.0	124_smiling	0.0		218.73764217695862	
32.0	193.19547635714298	pulse	0.0	t		28.0	female	white	5.676880222841227	smiling	124	sub-02	2.0	2.0	124_smiling	0.0		219.43762868408976	
32.0	193.50369755930024	fix	1.0		444	28.0	female	white	5.676880222841227	smiling	124	sub-02	2.0	2.0	124_smiling	0.0		219.74584988624702	3.758298039066176
32.0	193.89545350680237	pulse	1.0	t		28.0	female	white	5.676880222841227	smiling	124	sub-02	2.0	2.0	124_smiling	0.0		220.13760583374915	
32.0	194.59543639168714	pulse	1.0	t		28.0	female	white	5.676880222841227	smiling	124	sub-02	2.0	2.0	124_smiling	0.0		220.83758871863392	
32.0	195.29542048398616	pulse	1.0	t		28.0	female	white	5.676880222841227	smiling	124	sub-02	2.0	2.0	124_smiling	0.0		221.53757281093294	
32.0	195.99539763364646	pulse	1.0	t		28.0	female	white	5.676880222841227	smiling	124	sub-02	2.0	2.0	124_smiling	0.0		222.23754996059324	
32.0	196.69538232965442	pulse	1.0	t		28.0	female	white	5.676880222841227	smiling	124	sub-02	2.0	2.0	124_smiling	0.0		222.9375346566012	
33.0	197.2619955983664	face	0.0		146	24.0	female	black	3.0955033824114606	neutral	099	sub-02	2.0	2.0	099_neutral	0.0		223.5041479253132	1.2415730693201112
33.0	197.3953760812783	pulse	0.0	t		24.0	female	black	3.0955033824114606	neutral	099	sub-02	2.0	2.0	099_neutral	0.0		223.63752840822508	
33.0	198.09535474020777	pulse	0.0	t		24.0	female	black	3.0955033824114606	neutral	099	sub-02	2.0	2.0	099_neutral	0.0		224.33750706715455	
33.0	198.50356866768652	fix	1.0		444	24.0	female	black	3.0955033824114606	neutral	099	sub-02	2.0	2.0	099_neutral	0.0		224.7457209946333	3.758378935910514
33.0	198.79534396402414	pulse	1.0	t		24.0	female	black	3.0955033824114606	neutral	099	sub-02	2.0	2.0	099_neutral	0.0		225.03749629097092	
33.0	199.4953226229536	pulse	1.0	t		24.0	female	black	3.0955033824114606	neutral	099	sub-02	2.0	2.0	099_neutral	0.0		225.7374749499004	
33.0	200.19530671525354	pulse	1.0	t		24.0	female	black	3.0955033824114606	neutral	099	sub-02	2.0	2.0	099_neutral	0.0		226.43745904220032	
33.0	200.8952829593518	pulse	1.0	t		24.0	female	black	3.0955033824114606	neutral	099	sub-02	2.0	2.0	099_neutral	0.0		227.13743528629857	
33.0	201.5952752017065	pulse	1.0	t		24.0	female	black	3.0955033824114606	neutral	099	sub-02	2.0	2.0	099_neutral	0.0		227.83742752865328	
34.0	202.26194760359704	face	0.0		146	20.0	female	white	3.9502586549940313	neutral	091	sub-02	2.0	2.0	091_neutral	0.0		228.50409993054382	1.2415039447778327
34.0	202.29525989771355	pulse	0.0	t		20.0	female	white	3.9502586549940313	neutral	091	sub-02	2.0	2.0	091_neutral	0.0		228.53741222466033	
34.0	202.99524066962022	pulse	0.0	t		20.0	female	white	3.9502586549940313	neutral	091	sub-02	2.0	2.0	091_neutral	0.0		229.237392996567	
34.0	203.50345154837487	fix	1.0		443	20.0	female	white	3.9502586549940313	neutral	091	sub-02	2.0	2.0	091_neutral	0.0		229.74560387532165	3.7583116224914193
34.0	203.6952298934366	pulse	1.0	t		20.0	female	white	3.9502586549940313	neutral	091	sub-02	2.0	2.0	091_neutral	0.0		229.93738222038337	
34.0	204.39521489129766	pulse	1.0	t		20.0	female	white	3.9502586549940313	neutral	091	sub-02	2.0	2.0	091_neutral	0.0		230.63736721824444	
34.0	205.09519324837402	pulse	1.0	t		20.0	female	white	3.9502586549940313	neutral	091	sub-02	2.0	2.0	091_neutral	0.0		231.3373455753208	
34.0	205.7951679832022	pulse	1.0	t		20.0	female	white	3.9502586549940313	neutral	091	sub-02	2.0	2.0	091_neutral	0.0		232.03732031014897	
34.0	206.49514151061612	pulse	1.0	t		20.0	female	white	3.9502586549940313	neutral	091	sub-02	2.0	2.0	091_neutral	0.0		232.7372938375629	
34.0	207.19514220487963	pulse	1.0	t		20.0	female	white	3.9502586549940313	neutral	091	sub-02	2.0	2.0	091_neutral	0.0		233.4372945318264	
35.0	207.2617631708663	face	0.0		147	32.0	male	white	2.389176283326701	smiling	092	sub-02	2.0	2.0	092_smiling	0.0		233.50391549781307	1.241573974882158
35.0	207.89513022127994	pulse	0.0	t		32.0	male	white	2.389176283326701	smiling	092	sub-02	2.0	2.0	092_smiling	0.0		234.13728254822672	
35.0	208.50333714574845	fix	1.0		443	32.0	male	white	2.389176283326701	smiling	092	sub-02	2.0	2.0	092_smiling	0.0		234.74548947269523	3.766559478347517
35.0	208.59514540453074	pulse	1.0	t		32.0	male	white	2.389176283326701	smiling	092	sub-02	2.0	2.0	092_smiling	0.0		234.83729773147752	
35.0	209.2950899539701	pulse	1.0	t		32.0	male	white	2.389176283326701	smiling	092	sub-02	2.0	2.0	092_smiling	0.0		235.53724228091687	
35.0	209.99524972523795	pulse	1.0	t		32.0	male	white	2.389176283326701	smiling	092	sub-02	2.0	2.0	092_smiling	0.0		236.23740205218473	
35.0	210.6950593459851	pulse	1.0	t		32.0	male	white	2.389176283326701	smiling	092	sub-02	2.0	2.0	092_smiling	0.0		236.93721167293188	
35.0	211.39504041974578	pulse	1.0	t		32.0	male	white	2.389176283326701	smiling	092	sub-02	2.0	2.0	092_smiling	0.0		237.63719274669256	
35.0	212.09502753058496	pulse	1.0	t		32.0	male	white	2.389176283326701	smiling	092	sub-02	2.0	2.0	092_smiling	0.0		238.33717985753174	
36.0	212.26989662409596	face	0.0		146	25.0	female	west_asian	2.6756864305610826	smiling	064	sub-02	2.0	2.0	064_smiling	0.0		238.51204895104274	1.241655173579602
36.0	212.79501313215405	pulse	0.0	t		25.0	female	west_asian	2.6756864305610826	smiling	064	sub-02	2.0	2.0	064_smiling	0.0		239.03716545910083	
36.0	213.49499269664466	pulse	0.0	t		25.0	female	west_asian	2.6756864305610826	smiling	064	sub-02	2.0	2.0	064_smiling	0.0		239.73714502359144	
36.0	213.51155179767557	fix	1.0		443	25.0	female	west_asian	2.6756864305610826	smiling	064	sub-02	2.0	2.0	064_smiling	0.0		239.75370412462235	3.7499798512526468
36.0	214.1949767889446	pulse	1.0	t		25.0	female	west_asian	2.6756864305610826	smiling	064	sub-02	2.0	2.0	064_smiling	0.0		240.43712911589137	
36.0	214.89496782388414	pulse	1.0	t		25.0	female	west_asian	2.6756864305610826	smiling	064	sub-02	2.0	2.0	064_smiling	0.0		241.13712015083092	
36.0	215.59494346427437	pulse	1.0	t		25.0	female	west_asian	2.6756864305610826	smiling	064	sub-02	2.0	2.0	064_smiling	0.0		241.83709579122115	
36.0	216.29492936769748	pulse	1.0	t		25.0	female	west_asian	2.6756864305610826	smiling	064	sub-02	2.0	2.0	064_smiling	0.0		242.53708169464426	
36.0	216.99491074331218	pulse	1.0	t		25.0	female	west_asian	2.6756864305610826	smiling	064	sub-02	2.0	2.0	064_smiling	0.0		243.23706307025896	
37.0	217.2615316489282	face	0.0		146	47.0	male	east_asian	2.171110226820533	smiling	024	sub-02	2.0	2.0	024_smiling	0.0		243.503683975875	1.2415691452188184
37.0	217.69489725044332	pulse	0.0	t		47.0	male	east_asian	2.171110226820533	smiling	024	sub-02	2.0	2.0	024_smiling	0.0		243.9370495773901	
37.0	218.3948931150444	pulse	0.0	t		47.0	male	east_asian	2.171110226820533	smiling	024	sub-02	2.0	2.0	024_smiling	0.0		244.63704544199118	
37.0	218.50310079414703	fix	1.0		444	47.0	male	east_asian	2.171110226820533	smiling	024	sub-02	2.0	2.0	024_smiling	0.0		244.7452531210938	3.758309811369145
37.0	219.0948642276271	pulse	1.0	t		47.0	male	east_asian	2.171110226820533	smiling	024	sub-02	2.0	2.0	024_smiling	0.0		245.3370165545739	
37.0	219.79485224402742	pulse	1.0	t		47.0	male	east_asian	2.171110226820533	smiling	024	sub-02	2.0	2.0	024_smiling	0.0		246.0370045709742	
37.0	220.4948293936868	pulse	1.0	t		47.0	male	east_asian	2.171110226820533	smiling	024	sub-02	2.0	2.0	024_smiling	0.0		246.7369817206336	
37.0	221.19481318413273	pulse	1.0	t		47.0	male	east_asian	2.171110226820533	smiling	024	sub-02	2.0	2.0	024_smiling	0.0		247.4369655110795	
37.0	221.89479244677023	pulse	1.0	t		47.0	male	east_asian	2.171110226820533	smiling	024	sub-02	2.0	2.0	024_smiling	0.0		248.136944773717	
38.0	222.26141060551618	face	0.0		146	24.0	female	black	3.0955033824114606	smiling	099	sub-02	2.0	2.0	099_smiling	0.0		248.50356293246296	1.2415736730272329
38.0	222.59478680210213	pulse	0.0	t		24.0	female	black	3.0955033824114606	smiling	099	sub-02	2.0	2.0	099_smiling	0.0		248.83693912904891	
38.0	223.29473678491195	pulse	0.0	t		24.0	female	black	3.0955033824114606	smiling	099	sub-02	2.0	2.0	099_smiling	0.0		249.53688911185873	
38.0	223.5029842785434	fix	1.0		444	24.0	female	black	3.0955033824114606	smiling	099	sub-02	2.0	2.0	099_smiling	0.0		249.7451366054902	3.7583080002450515
38.0	223.9947507607476	pulse	1.0	t		24.0	female	black	3.0955033824114606	smiling	099	sub-02	2.0	2.0	099_smiling	0.0		250.23690308769437	
38.0	224.69473334377744	pulse	1.0	t		24.0	female	black	3.0955033824114606	smiling	099	sub-02	2.0	2.0	099_smiling	0.0		250.93688567072422	
38.0	225.39471441753813	pulse	1.0	t		24.0	female	black	3.0955033824114606	smiling	099	sub-02	2.0	2.0	099_smiling	0.0		251.6368667444849	
38.0	226.09470062281525	pulse	1.0	t		24.0	female	black	3.0955033824114606	smiling	099	sub-02	2.0	2.0	099_smiling	0.0		252.33685294976203	
38.0	226.79467958359874	pulse	1.0	t		24.0	female	black	3.0955033824114606	smiling	099	sub-02	2.0	2.0	099_smiling	0.0		253.03683191054552	
39.0	227.26129227878846	face	0.0		146	34.0	male	white	2.651014723438122	neutral	121	sub-02	2.0	2.0	121_neutral	0.0		253.50344460573524	1.2415866527453545
39.0	227.4946688074142	pulse	0.0	t		34.0	male	white	2.651014723438122	neutral	121	sub-02	2.0	2.0	121_neutral	0.0		253.73682113436098	
39.0	228.19465108859094	pulse	0.0	t		34.0	male	white	2.651014723438122	neutral	121	sub-02	2.0	2.0	121_neutral	0.0		254.43680341553772	
39.0	228.50287893153381	fix	1.0		444	34.0	male	white	2.651014723438122	neutral	121	sub-02	2.0	2.0	121_neutral	0.0		254.7450312584806	3.7499001618234615
39.0	228.89463457718284	pulse	1.0	t		34.0	male	white	2.651014723438122	neutral	121	sub-02	2.0	2.0	121_neutral	0.0		255.13678690412962	
39.0	229.59461625465156	pulse	1.0	t		34.0	male	white	2.651014723438122	neutral	121	sub-02	2.0	2.0	121_neutral	0.0		255.83676858159834	
39.0	230.29460034695057	pulse	1.0	t		34.0	male	white	2.651014723438122	neutral	121	sub-02	2.0	2.0	121_neutral	0.0		256.53675267389735	
39.0	230.99457840217292	pulse	1.0	t		34.0	male	white	2.651014723438122	neutral	121	sub-02	2.0	2.0	121_neutral	0.0		257.2367307291197	
39.0	231.6945824168297	pulse	1.0	t		34.0	male	white	2.651014723438122	neutral	121	sub-02	2.0	2.0	121_neutral	0.0		257.93673474377647	
40.0	232.25277909335728	fix	0.0		720													258.49493142030406	5.999857223107938
40.0	232.39455262385036	pulse	0.0	t														258.63670495079714	
40.0	233.0945352068802	pulse	0.0	t														259.336687533827	
40.0	233.79451507322483	pulse	0.0	t														260.0366674001716	
40.0	234.49450248591802	pulse	0.0	t														260.7366548128648	
40.0	235.1944877856331	pulse	0.0	t														261.4366401125799	
40.0	235.8944649352934	pulse	0.0	t														262.1366172622402	
40.0	236.59444480163802	pulse	0.0	t														262.8365971285848	
40.0	237.2944343273084	pulse	0.0	t														263.5365866542552	
40.0	237.99441660848424	pulse	0.0	t														264.236568935431	
