trial_nr	onset	event_type	phase	response	nr_frames	face_age	face_sex	face_eth	attractiveness	expression	face_id	sub_id	ses	run	trial_type	catch	rating_type	onset_abs	duration
-1.0	0.05586483747811144	fix	0.0		714													25.301840005240592	5.965218386106244
-1.0	0.704708997121088	pulse	0.0	t														25.95068416488357	
-1.0	1.4046710542006622	pulse	0.0	t														26.650646221963143	
-1.0	2.1046472983707645	pulse	0.0	t														27.350622466133245	
-1.0	2.8046347111012437	pulse	0.0	t														28.050609878863725	
-1.0	3.504612766389073	pulse	0.0	t														28.750587934151554	
-1.0	4.2045971605903105	pulse	0.0	t														29.45057232835279	
-1.0	4.904578234407381	pulse	0.0	t														30.150553402169862	
-1.0	5.604574702727405	pulse	0.0	t														30.850549870489886	
0.0	6.021083223584355	face	0.0		144	26.0	male	white	2.7966573816155993	smiling	117	sub-12	2.0	4.0	117_smiling	0.0		31.267058391346836	1.2333196795170807
0.0	6.304588376668107	pulse	0.0	t		26.0	male	white	2.7966573816155993	smiling	117	sub-12	2.0	4.0	117_smiling	0.0		31.550563544430588	
0.0	7.004519946596702	pulse	0.0	t		26.0	male	white	2.7966573816155993	smiling	117	sub-12	2.0	4.0	117_smiling	0.0		32.25049511435918	
0.0	7.254402903101436	fix	1.0		444	26.0	male	white	2.7966573816155993	smiling	117	sub-12	2.0	4.0	117_smiling	0.0		32.50037807086392	3.758214249814955
0.0	7.704513094533468	pulse	1.0	t		26.0	male	white	2.7966573816155993	smiling	117	sub-12	2.0	4.0	117_smiling	0.0		32.95048826229595	
0.0	8.404481792378647	pulse	1.0	t		26.0	male	white	2.7966573816155993	smiling	117	sub-12	2.0	4.0	117_smiling	0.0		33.65045696014113	
0.0	9.104509955262984	pulse	1.0	t		26.0	male	white	2.7966573816155993	smiling	117	sub-12	2.0	4.0	117_smiling	0.0		34.350485123025464	
0.0	9.80444846780938	pulse	1.0	t		26.0	male	white	2.7966573816155993	smiling	117	sub-12	2.0	4.0	117_smiling	0.0		35.05042363557186	
0.0	10.504421089744028	pulse	1.0	t		26.0	male	white	2.7966573816155993	smiling	117	sub-12	2.0	4.0	117_smiling	0.0		35.75039625750651	
1.0	11.012617152916391	face	0.0		146	27.0	female	white	4.181058495821727	neutral	039	sub-12	2.0	4.0	039_neutral	0.0		36.25859232067887	1.241648407077264
1.0	11.204424802535868	pulse	0.0	t		27.0	female	white	4.181058495821727	neutral	039	sub-12	2.0	4.0	039_neutral	0.0		36.45039997029835	
1.0	11.904430326445436	pulse	0.0	t		27.0	female	white	4.181058495821727	neutral	039	sub-12	2.0	4.0	039_neutral	0.0		37.15040549420792	
1.0	12.254265559993655	fix	1.0		444	27.0	female	white	4.181058495821727	neutral	039	sub-12	2.0	4.0	039_neutral	0.0		37.500240727756136	3.758225116522226
1.0	12.604392081671904	pulse	1.0	t		27.0	female	white	4.181058495821727	neutral	039	sub-12	2.0	4.0	039_neutral	0.0		37.850367249434385	
1.0	13.304352629486857	pulse	1.0	t		27.0	female	white	4.181058495821727	neutral	039	sub-12	2.0	4.0	039_neutral	0.0		38.55032779724934	
1.0	14.004341551481957	pulse	1.0	t		27.0	female	white	4.181058495821727	neutral	039	sub-12	2.0	4.0	039_neutral	0.0		39.25031671924444	
1.0	14.704335001272739	pulse	1.0	t		27.0	female	white	4.181058495821727	neutral	039	sub-12	2.0	4.0	039_neutral	0.0		39.95031016903522	
1.0	15.404327847356399	pulse	1.0	t		27.0	female	white	4.181058495821727	neutral	039	sub-12	2.0	4.0	039_neutral	0.0		40.65030301511888	
2.0	16.01249067651588	face	0.0		146	36.0	female	white	2.7548746518105847	smiling	011	sub-12	2.0	4.0	011_smiling	0.0		41.25846584427836	1.2416381440752957
2.0	16.104285074789004	pulse	0.0	t		36.0	female	white	2.7548746518105847	smiling	011	sub-12	2.0	4.0	011_smiling	0.0		41.350260242551485	
2.0	16.804260111546682	pulse	0.0	t		36.0	female	white	2.7548746518105847	smiling	011	sub-12	2.0	4.0	011_smiling	0.0		42.05023527930916	
2.0	17.254128820591177	fix	1.0		444	36.0	female	white	2.7548746518105847	smiling	011	sub-12	2.0	4.0	011_smiling	0.0		42.50010398835366	3.758216664638894
2.0	17.50425084466042	pulse	1.0	t		36.0	female	white	2.7548746518105847	smiling	011	sub-12	2.0	4.0	011_smiling	0.0		42.7502260124229	
2.0	18.204215316563932	pulse	1.0	t		36.0	female	white	2.7548746518105847	smiling	011	sub-12	2.0	4.0	011_smiling	0.0		43.45019048432641	
2.0	18.904188240350777	pulse	1.0	t		36.0	female	white	2.7548746518105847	smiling	011	sub-12	2.0	4.0	011_smiling	0.0		44.15016340811326	
2.0	19.604212479145644	pulse	1.0	t		36.0	female	white	2.7548746518105847	smiling	011	sub-12	2.0	4.0	011_smiling	0.0		44.850187646908125	
2.0	20.30417121584287	pulse	1.0	t		36.0	female	white	2.7548746518105847	smiling	011	sub-12	2.0	4.0	011_smiling	0.0		45.55014638360535	
3.0	21.01234548523007	face	0.0		147	19.0	female	white	4.298846000795861	neutral	100	sub-12	2.0	4.0	100_neutral	0.0		46.25832065299255	1.2416529348711265
3.0	21.00521571772697	pulse	0.0	t		19.0	female	white	4.298846000795861	neutral	100	sub-12	2.0	4.0	100_neutral	0.0		46.25119088548945	
3.0	21.704162945071403	pulse	0.0	t		19.0	female	white	4.298846000795861	neutral	100	sub-12	2.0	4.0	100_neutral	0.0		46.95013811283388	
3.0	22.253998420101198	fix	1.0		443	19.0	female	white	4.298846000795861	neutral	100	sub-12	2.0	4.0	100_neutral	0.0		47.49997358786368	3.7582359832304064
3.0	22.40411624841454	pulse	1.0	t		19.0	female	white	4.298846000795861	neutral	100	sub-12	2.0	4.0	100_neutral	0.0		47.65009141617702	
3.0	23.104102453732594	pulse	1.0	t		19.0	female	white	4.298846000795861	neutral	100	sub-12	2.0	4.0	100_neutral	0.0		48.350077621495075	
3.0	23.80407356640262	pulse	1.0	t		19.0	female	white	4.298846000795861	neutral	100	sub-12	2.0	4.0	100_neutral	0.0		49.0500487341651	
3.0	24.50406339395704	pulse	1.0	t		19.0	female	white	4.298846000795861	neutral	100	sub-12	2.0	4.0	100_neutral	0.0		49.75003856171952	
3.0	25.204041147391763	pulse	1.0	t		19.0	female	white	4.298846000795861	neutral	100	sub-12	2.0	4.0	100_neutral	0.0		50.450016315154244	
3.0	25.904054821331556	pulse	1.0	t		19.0	female	white	4.298846000795861	neutral	100	sub-12	2.0	4.0	100_neutral	0.0		51.15002998909404	
4.0	26.012234403331604	face	0.0		147	31.0	female	white	2.1822522881018704	neutral	102	sub-12	2.0	4.0	102_neutral	0.0		51.258209571094085	1.241636936663781
4.0	26.6039894097903	pulse	0.0	t		31.0	female	white	2.1822522881018704	neutral	102	sub-12	2.0	4.0	102_neutral	0.0		51.84996457755278	
4.0	27.253871339995385	fix	1.0		443	31.0	female	white	2.1822522881018704	neutral	102	sub-12	2.0	4.0	102_neutral	0.0		52.499846507757866	3.758230549876316
4.0	27.303980444756235	pulse	1.0	t		31.0	female	white	2.1822522881018704	neutral	102	sub-12	2.0	4.0	102_neutral	0.0		52.549955612518715	
4.0	28.0039603111627	pulse	1.0	t		31.0	female	white	2.1822522881018704	neutral	102	sub-12	2.0	4.0	102_neutral	0.0		53.24993547892518	
4.0	28.703945007216134	pulse	1.0	t		31.0	female	white	2.1822522881018704	neutral	102	sub-12	2.0	4.0	102_neutral	0.0		53.949920174978615	
4.0	29.40395385150805	pulse	1.0	t		31.0	female	white	2.1822522881018704	neutral	102	sub-12	2.0	4.0	102_neutral	0.0		54.64992901927053	
4.0	30.103901117791793	pulse	1.0	t		31.0	female	white	2.1822522881018704	neutral	102	sub-12	2.0	4.0	102_neutral	0.0		55.349876285554274	
4.0	30.803887323110757	pulse	1.0	t		31.0	female	white	2.1822522881018704	neutral	102	sub-12	2.0	4.0	102_neutral	0.0		56.04986249087324	
5.0	31.0121018898717	face	0.0		146	20.0	male	black	3.1070433744528456	neutral	082	sub-12	2.0	4.0	082_neutral	1.0	dominance	56.25807705763418	1.2416426718700677
5.0	31.503869302487146	pulse	0.0	t		20.0	male	black	3.1070433744528456	neutral	082	sub-12	2.0	4.0	082_neutral	1.0	dominance	56.74984447024963	
5.0	32.20385550780611	pulse	0.0	t		20.0	male	black	3.1070433744528456	neutral	082	sub-12	2.0	4.0	082_neutral	1.0	dominance	57.44983067556859	
5.0	32.25374456174177	fix	1.0		177	20.0	male	black	3.1070433744528456	neutral	082	sub-12	2.0	4.0	082_neutral	1.0	dominance	57.49971972950425	1.5083125784249205
5.0	32.90384684462515	pulse	1.0	t		20.0	male	black	3.1070433744528456	neutral	082	sub-12	2.0	4.0	082_neutral	1.0	dominance	58.14982201238763	
5.0	33.60381403320571	pulse	1.0	t		20.0	male	black	3.1070433744528456	neutral	082	sub-12	2.0	4.0	082_neutral	1.0	dominance	58.84978920096819	
5.0	33.76205714016669	rating	2.0		294	20.0	male	black	3.1070433744528456	neutral	082	sub-12	2.0	4.0	082_neutral	1.0	dominance	59.00803230792917	2.491565171115326
5.0	34.2987789141207	pulse	2.0	t		20.0	male	black	3.1070433744528456	neutral	082	sub-12	2.0	4.0	082_neutral	1.0	dominance	59.544754081883184	
5.0	34.99872648225664	pulse	2.0	t		20.0	male	black	3.1070433744528456	neutral	082	sub-12	2.0	4.0	082_neutral	1.0	dominance	60.244701650019124	
5.0	35.67373314566157	response	2.0	e		20.0	male	black	3.1070433744528456	neutral	082	sub-12	2.0	4.0	082_neutral	1.0	dominance	60.91970831342405	
5.0	35.698742571021285	pulse	2.0	t		20.0	male	black	3.1070433744528456	neutral	082	sub-12	2.0	4.0	082_neutral	1.0	dominance	60.944717738783766	
5.0	36.253622311282015	fix	3.0		443	20.0	male	black	3.1070433744528456	neutral	082	sub-12	2.0	4.0	082_neutral	1.0	dominance	61.499597479044496	3.7582885056499435
5.0	36.403770626746336	pulse	3.0	t		20.0	male	black	3.1070433744528456	neutral	082	sub-12	2.0	4.0	082_neutral	1.0	dominance	61.64974579450882	
5.0	37.10370551705728	pulse	3.0	t		20.0	male	black	3.1070433744528456	neutral	082	sub-12	2.0	4.0	082_neutral	1.0	dominance	62.34968068481976	
5.0	37.8037077205845	pulse	3.0	t		20.0	male	black	3.1070433744528456	neutral	082	sub-12	2.0	4.0	082_neutral	1.0	dominance	63.04968288834698	
5.0	38.50367943695983	pulse	3.0	t		20.0	male	black	3.1070433744528456	neutral	082	sub-12	2.0	4.0	082_neutral	1.0	dominance	63.74965460472231	
5.0	39.20367530157364	pulse	3.0	t		20.0	male	black	3.1070433744528456	neutral	082	sub-12	2.0	4.0	082_neutral	1.0	dominance	64.44965046933612	
5.0	39.90364641424367	pulse	3.0	t		20.0	male	black	3.1070433744528456	neutral	082	sub-12	2.0	4.0	082_neutral	1.0	dominance	65.14962158200615	
6.0	40.01191081693196	face	0.0		147	31.0	male	west_asian	1.9538400318344609	neutral	070	sub-12	2.0	4.0	070_neutral	0.0		65.25788598469444	1.2415850179495465
6.0	40.603627789913844	pulse	0.0	t		31.0	male	west_asian	1.9538400318344609	neutral	070	sub-12	2.0	4.0	070_neutral	0.0		65.84960295767632	
6.0	41.253495834881505	fix	1.0		443	31.0	male	west_asian	1.9538400318344609	neutral	070	sub-12	2.0	4.0	070_neutral	0.0		66.49947100264399	3.7583603466600835
6.0	41.303670441740906	pulse	1.0	t		31.0	male	west_asian	1.9538400318344609	neutral	070	sub-12	2.0	4.0	070_neutral	0.0		66.54964560950339	
6.0	42.003580580107155	pulse	1.0	t		31.0	male	west_asian	1.9538400318344609	neutral	070	sub-12	2.0	4.0	070_neutral	0.0		67.24955574786964	
6.0	42.703571916926194	pulse	1.0	t		31.0	male	west_asian	1.9538400318344609	neutral	070	sub-12	2.0	4.0	070_neutral	0.0		67.94954708468867	
6.0	43.40353819994834	pulse	1.0	t		31.0	male	west_asian	1.9538400318344609	neutral	070	sub-12	2.0	4.0	070_neutral	0.0		68.64951336771082	
6.0	44.103565155419346	pulse	1.0	t		31.0	male	west_asian	1.9538400318344609	neutral	070	sub-12	2.0	4.0	070_neutral	0.0		69.34954032318183	
6.0	44.80353113658839	pulse	1.0	t		31.0	male	west_asian	1.9538400318344609	neutral	070	sub-12	2.0	4.0	070_neutral	0.0		70.04950630435087	
7.0	45.01185618154159	face	0.0		146	31.0	female	white	2.1822522881018704	smiling	102	sub-12	2.0	4.0	102_smiling	0.0		70.25783134930407	1.2415017065259235
7.0	45.50348957143251	pulse	0.0	t		31.0	female	white	2.1822522881018704	smiling	102	sub-12	2.0	4.0	102_smiling	0.0		70.74946473919499	
7.0	46.20347517304526	pulse	0.0	t		31.0	female	white	2.1822522881018704	smiling	102	sub-12	2.0	4.0	102_smiling	0.0		71.44945034080774	
7.0	46.25335788806751	fix	1.0		444	31.0	female	white	2.1822522881018704	smiling	102	sub-12	2.0	4.0	102_smiling	0.0		71.49933305583	3.7665541459355154
7.0	46.90346137836332	pulse	1.0	t		31.0	female	white	2.1822522881018704	smiling	102	sub-12	2.0	4.0	102_smiling	0.0		72.1494365461258	
7.0	47.603438829945844	pulse	1.0	t		31.0	female	white	2.1822522881018704	smiling	102	sub-12	2.0	4.0	102_smiling	0.0		72.84941399770833	
7.0	48.303418998204506	pulse	1.0	t		31.0	female	white	2.1822522881018704	smiling	102	sub-12	2.0	4.0	102_smiling	0.0		73.54939416596699	
7.0	49.00340309055173	pulse	1.0	t		31.0	female	white	2.1822522881018704	smiling	102	sub-12	2.0	4.0	102_smiling	0.0		74.24937825831421	
7.0	49.7033895977238	pulse	1.0	t		31.0	female	white	2.1822522881018704	smiling	102	sub-12	2.0	4.0	102_smiling	0.0		74.94936476548628	
8.0	50.01991203400303	face	0.0		145	22.0	female	west_asian	3.8205332272184642	smiling	066	sub-12	2.0	4.0	066_smiling	0.0		75.26588720176551	1.2333202832232928
8.0	50.403405384634425	pulse	0.0	t		22.0	female	west_asian	3.8205332272184642	smiling	066	sub-12	2.0	4.0	066_smiling	0.0		75.6493805523969	
8.0	51.10334691571188	pulse	0.0	t		22.0	female	west_asian	3.8205332272184642	smiling	066	sub-12	2.0	4.0	066_smiling	0.0		76.34932208347436	
8.0	51.25323231722632	fix	1.0		444	22.0	female	west_asian	3.8205332272184642	smiling	066	sub-12	2.0	4.0	066_smiling	0.0		76.4992074849888	3.758356422570614
8.0	51.803339459943345	pulse	1.0	t		22.0	female	west_asian	3.8205332272184642	smiling	066	sub-12	2.0	4.0	066_smiling	0.0		77.04931462770583	
8.0	52.503316005965644	pulse	1.0	t		22.0	female	west_asian	3.8205332272184642	smiling	066	sub-12	2.0	4.0	066_smiling	0.0		77.74929117372812	
8.0	53.20331760578665	pulse	1.0	t		22.0	female	west_asian	3.8205332272184642	smiling	066	sub-12	2.0	4.0	066_smiling	0.0		78.44929277354913	
8.0	53.9032778517485	pulse	1.0	t		22.0	female	west_asian	3.8205332272184642	smiling	066	sub-12	2.0	4.0	066_smiling	0.0		79.14925301951098	
8.0	54.60325802000716	pulse	1.0	t		22.0	female	west_asian	3.8205332272184642	smiling	066	sub-12	2.0	4.0	066_smiling	0.0		79.84923318776964	
9.0	55.011588739796935	face	0.0		146	22.0	female	white	4.614007162753682	smiling	009	sub-12	2.0	4.0	009_smiling	0.0		80.25756390755942	1.2415053287622868
9.0	55.303238791972035	pulse	0.0	t		22.0	female	white	4.614007162753682	smiling	009	sub-12	2.0	4.0	009_smiling	0.0		80.54921395973452	
9.0	56.00335600148628	pulse	0.0	t		22.0	female	white	4.614007162753682	smiling	009	sub-12	2.0	4.0	009_smiling	0.0		81.24933116924876	
9.0	56.25309406855922	fix	1.0		444	22.0	female	white	4.614007162753682	smiling	009	sub-12	2.0	4.0	009_smiling	0.0		81.4990692363217	3.7665514292584703
9.0	56.70320033590178	pulse	1.0	t		22.0	female	white	4.614007162753682	smiling	009	sub-12	2.0	4.0	009_smiling	0.0		81.94917550366426	
9.0	57.40318171157287	pulse	1.0	t		22.0	female	white	4.614007162753682	smiling	009	sub-12	2.0	4.0	009_smiling	0.0		82.64915687933535	
9.0	58.103157050184564	pulse	1.0	t		22.0	female	white	4.614007162753682	smiling	009	sub-12	2.0	4.0	009_smiling	0.0		83.34913221794704	
9.0	58.80314416106194	pulse	1.0	t		22.0	female	white	4.614007162753682	smiling	009	sub-12	2.0	4.0	009_smiling	0.0		84.04911932882442	
9.0	59.503121612643554	pulse	1.0	t		22.0	female	white	4.614007162753682	smiling	009	sub-12	2.0	4.0	009_smiling	0.0		84.74909678040603	
10.0	60.01964549781769	face	0.0		145	19.0	male	white	2.243931555909272	smiling	130	sub-12	2.0	4.0	130_smiling	0.0		85.26562066558017	1.2333199813692772
10.0	60.20310902537403	pulse	0.0	t		19.0	male	white	2.243931555909272	smiling	130	sub-12	2.0	4.0	130_smiling	0.0		85.44908419313651	
10.0	60.90309040104512	pulse	0.0	t		19.0	male	white	2.243931555909272	smiling	130	sub-12	2.0	4.0	130_smiling	0.0		86.1490655688076	
10.0	61.25296547918697	fix	1.0		444	19.0	male	white	2.243931555909272	smiling	130	sub-12	2.0	4.0	130_smiling	0.0		86.49894064694945	3.7583108427706975
10.0	61.6030714748631	pulse	1.0	t		19.0	male	white	2.243931555909272	smiling	130	sub-12	2.0	4.0	130_smiling	0.0		86.84904664262558	
10.0	62.30304530420926	pulse	1.0	t		19.0	male	white	2.243931555909272	smiling	130	sub-12	2.0	4.0	130_smiling	0.0		87.54902047197174	
10.0	63.00302879285118	pulse	1.0	t		19.0	male	white	2.243931555909272	smiling	130	sub-12	2.0	4.0	130_smiling	0.0		88.24900396061366	
10.0	63.7030125833453	pulse	1.0	t		19.0	male	white	2.243931555909272	smiling	130	sub-12	2.0	4.0	130_smiling	0.0		88.94898775110778	
10.0	64.40299244975176	pulse	1.0	t		19.0	male	white	2.243931555909272	smiling	130	sub-12	2.0	4.0	130_smiling	0.0		89.64896761751424	
11.0	65.01127632195767	face	0.0		146	19.0	male	white	3.2522881018702745	smiling	018	sub-12	2.0	4.0	018_smiling	0.0		90.25725148972015	1.2415515122684155
11.0	65.10303087563625	pulse	0.0	t		19.0	male	white	3.2522881018702745	smiling	018	sub-12	2.0	4.0	018_smiling	0.0		90.34900604339873	
11.0	65.80295912518159	pulse	0.0	t		19.0	male	white	3.2522881018702745	smiling	018	sub-12	2.0	4.0	018_smiling	0.0		91.04893429294407	
11.0	66.25282783422608	fix	1.0		444	19.0	male	white	3.2522881018702745	smiling	018	sub-12	2.0	4.0	018_smiling	0.0		91.49880300198856	3.7665659182021045
11.0	66.50294291567661	pulse	1.0	t		19.0	male	white	3.2522881018702745	smiling	018	sub-12	2.0	4.0	018_smiling	0.0		91.7489180834391	
11.0	67.20292066911134	pulse	1.0	t		19.0	male	white	3.2522881018702745	smiling	018	sub-12	2.0	4.0	018_smiling	0.0		92.44889583687382	
11.0	67.90288936695742	pulse	1.0	t		19.0	male	white	3.2522881018702745	smiling	018	sub-12	2.0	4.0	018_smiling	0.0		93.1488645347199	
11.0	68.60288070377646	pulse	1.0	t		19.0	male	white	3.2522881018702745	smiling	018	sub-12	2.0	4.0	018_smiling	0.0		93.84885587153894	
11.0	69.3028653998299	pulse	1.0	t		19.0	male	white	3.2522881018702745	smiling	018	sub-12	2.0	4.0	018_smiling	0.0		94.54884056759238	
12.0	70.01939375242819	face	0.0		146	40.0	female	west_asian	1.5777954635893354	neutral	038	sub-12	2.0	4.0	038_neutral	0.0		95.26536892019067	1.2333033794557196
12.0	70.00552270221215	pulse	0.0	t		40.0	female	west_asian	1.5777954635893354	neutral	038	sub-12	2.0	4.0	038_neutral	0.0		95.25149786997463	
12.0	70.70283298081995	pulse	0.0	t		40.0	female	west_asian	1.5777954635893354	neutral	038	sub-12	2.0	4.0	038_neutral	0.0		95.94880814858243	
12.0	71.2526971318839	fix	1.0		443	40.0	female	west_asian	1.5777954635893354	neutral	038	sub-12	2.0	4.0	038_neutral	0.0		96.49867229964639	3.7665520329646824
12.0	71.40281043240157	pulse	1.0	t		40.0	female	west_asian	1.5777954635893354	neutral	038	sub-12	2.0	4.0	038_neutral	0.0		96.64878560016405	
12.0	72.10278999695402	pulse	1.0	t		40.0	female	west_asian	1.5777954635893354	neutral	038	sub-12	2.0	4.0	038_neutral	0.0		97.3487651647165	
12.0	72.80275899665321	pulse	1.0	t		40.0	female	west_asian	1.5777954635893354	neutral	038	sub-12	2.0	4.0	038_neutral	0.0		98.04873416441569	
12.0	73.50276814279823	pulse	1.0	t		40.0	female	west_asian	1.5777954635893354	neutral	038	sub-12	2.0	4.0	038_neutral	0.0		98.74874331056071	
12.0	74.20273865176205	pulse	1.0	t		40.0	female	west_asian	1.5777954635893354	neutral	038	sub-12	2.0	4.0	038_neutral	0.0		99.44871381952453	
12.0	74.90271459407904	pulse	1.0	t		40.0	female	west_asian	1.5777954635893354	neutral	038	sub-12	2.0	4.0	038_neutral	0.0		100.14868976184152	
13.0	75.01924916484859	face	0.0		146	24.0	male	white	3.1153999204138483	smiling	012	sub-12	2.0	4.0	012_smiling	0.0		100.26522433261107	1.2333187739577625
13.0	75.60269838457316	pulse	0.0	t		24.0	male	white	3.1153999204138483	smiling	012	sub-12	2.0	4.0	012_smiling	0.0		100.84867355233564	
13.0	76.25256793880635	fix	1.0		443	24.0	male	white	3.1153999204138483	smiling	012	sub-12	2.0	4.0	012_smiling	0.0		101.49854310656883	3.7665692385844523
13.0	76.3026773454203	pulse	1.0	t		24.0	male	white	3.1153999204138483	smiling	012	sub-12	2.0	4.0	012_smiling	0.0		101.54865251318279	
13.0	77.00265841923829	pulse	1.0	t		24.0	male	white	3.1153999204138483	smiling	012	sub-12	2.0	4.0	012_smiling	0.0		102.24863358700077	
13.0	77.70264492641036	pulse	1.0	t		24.0	male	white	3.1153999204138483	smiling	012	sub-12	2.0	4.0	012_smiling	0.0		102.94862009417284	
13.0	78.40262207613887	pulse	1.0	t		24.0	male	white	3.1153999204138483	smiling	012	sub-12	2.0	4.0	012_smiling	0.0		103.64859724390135	
13.0	79.10258805730791	pulse	1.0	t		24.0	male	white	3.1153999204138483	smiling	012	sub-12	2.0	4.0	012_smiling	0.0		104.3485632250704	
13.0	79.80257818671453	pulse	1.0	t		24.0	male	white	3.1153999204138483	smiling	012	sub-12	2.0	4.0	012_smiling	0.0		105.04855335447701	
14.0	80.0191371773908	face	0.0		145	19.0	male	white	3.2522881018702745	neutral	018	sub-12	2.0	4.0	018_neutral	0.0		105.26511234515328	1.2332913053360244
14.0	80.5025649957397	pulse	0.0	t		19.0	male	white	3.2522881018702745	neutral	018	sub-12	2.0	4.0	018_neutral	0.0		105.74854016350218	
14.0	81.20254486214526	pulse	0.0	t		19.0	male	white	3.2522881018702745	neutral	018	sub-12	2.0	4.0	018_neutral	0.0		106.44852002990774	
14.0	81.25242848272683	fix	1.0		444	19.0	male	white	3.2522881018702745	neutral	018	sub-12	2.0	4.0	018_neutral	0.0		106.49840365048931	3.7665562589063484
14.0	81.90253167116953	pulse	1.0	t		19.0	male	white	3.2522881018702745	neutral	018	sub-12	2.0	4.0	018_neutral	0.0		107.14850683893201	
14.0	82.60251002831137	pulse	1.0	t		19.0	male	white	3.2522881018702745	neutral	018	sub-12	2.0	4.0	018_neutral	0.0		107.84848519607385	
14.0	83.3024944225117	pulse	1.0	t		19.0	male	white	3.2522881018702745	neutral	018	sub-12	2.0	4.0	018_neutral	0.0		108.54846959027418	
14.0	84.00248757044847	pulse	1.0	t		19.0	male	white	3.2522881018702745	neutral	018	sub-12	2.0	4.0	018_neutral	0.0		109.24846273821095	
14.0	84.70245657014766	pulse	1.0	t		19.0	male	white	3.2522881018702745	neutral	018	sub-12	2.0	4.0	018_neutral	0.0		109.94843173791014	
15.0	85.01898474163318	face	0.0		145	34.0	male	white	2.651014723438122	neutral	121	sub-12	2.0	4.0	121_neutral	0.0		110.26495990939566	1.2333175665462477
15.0	85.4024605847917	pulse	0.0	t		34.0	male	white	2.651014723438122	neutral	121	sub-12	2.0	4.0	121_neutral	0.0		110.64843575255418	
15.0	86.10241479369415	pulse	0.0	t		34.0	male	white	2.651014723438122	neutral	121	sub-12	2.0	4.0	121_neutral	0.0		111.34838996145663	
15.0	86.25230230817942	fix	1.0		444	34.0	male	white	2.651014723438122	neutral	121	sub-12	2.0	4.0	121_neutral	0.0		111.4982774759419	3.7582924297385034
15.0	86.8025009123512	pulse	1.0	t		34.0	male	white	2.651014723438122	neutral	121	sub-12	2.0	4.0	121_neutral	0.0		112.04847608011369	
15.0	87.50248772137547	pulse	1.0	t		34.0	male	white	2.651014723438122	neutral	121	sub-12	2.0	4.0	121_neutral	0.0		112.74846288913795	
15.0	88.20236435406059	pulse	1.0	t		34.0	male	white	2.651014723438122	neutral	121	sub-12	2.0	4.0	121_neutral	0.0		113.44833952182307	
15.0	88.90234874826092	pulse	1.0	t		34.0	male	white	2.651014723438122	neutral	121	sub-12	2.0	4.0	121_neutral	0.0		114.1483239160234	
15.0	89.60232650169655	pulse	1.0	t		34.0	male	white	2.651014723438122	neutral	121	sub-12	2.0	4.0	121_neutral	0.0		114.84830166945903	
16.0	90.01059473791793	face	0.0		146	31.0	female	east_asian	3.395941106247513	neutral	087	sub-12	2.0	4.0	087_neutral	0.0		115.25656990568041	1.2415741512422755
16.0	90.30231029219067	pulse	0.0	t		31.0	female	east_asian	3.395941106247513	neutral	087	sub-12	2.0	4.0	087_neutral	0.0		115.54828545995315	
16.0	91.00228985674403	pulse	0.0	t		31.0	female	east_asian	3.395941106247513	neutral	087	sub-12	2.0	4.0	087_neutral	0.0		116.24826502450651	
16.0	91.2521688891602	fix	1.0		444	31.0	female	east_asian	3.395941106247513	neutral	087	sub-12	2.0	4.0	087_neutral	0.0		116.49814405692268	3.7665502218469555
16.0	91.70227243982663	pulse	1.0	t		31.0	female	east_asian	3.395941106247513	neutral	087	sub-12	2.0	4.0	087_neutral	0.0		116.94824760758911	
16.0	92.40224717473211	pulse	1.0	t		31.0	female	east_asian	3.395941106247513	neutral	087	sub-12	2.0	4.0	087_neutral	0.0		117.64822234249459	
16.0	93.10222523001994	pulse	1.0	t		31.0	female	east_asian	3.395941106247513	neutral	087	sub-12	2.0	4.0	087_neutral	0.0		118.34820039778242	
16.0	93.80221052977959	pulse	1.0	t		31.0	female	east_asian	3.395941106247513	neutral	087	sub-12	2.0	4.0	087_neutral	0.0		119.04818569754207	
16.0	94.50219522583302	pulse	1.0	t		31.0	female	east_asian	3.395941106247513	neutral	087	sub-12	2.0	4.0	087_neutral	0.0		119.7481703935955	
17.0	95.01871911100716	face	0.0		145	31.0	female	east_asian	3.395941106247513	smiling	087	sub-12	2.0	4.0	087_smiling	0.0		120.26469427876964	1.2333163591338234
17.0	95.20217569594479	pulse	0.0	t		31.0	female	east_asian	3.395941106247513	smiling	087	sub-12	2.0	4.0	087_smiling	0.0		120.44815086370727	
17.0	95.90215948643981	pulse	0.0	t		31.0	female	east_asian	3.395941106247513	smiling	087	sub-12	2.0	4.0	087_smiling	0.0		121.1481346542023	
17.0	96.25203547014098	fix	1.0		444	31.0	female	east_asian	3.395941106247513	smiling	087	sub-12	2.0	4.0	087_smiling	0.0		121.49801063790346	3.7665517311115764
17.0	96.60213935284537	pulse	1.0	t		31.0	female	east_asian	3.395941106247513	smiling	087	sub-12	2.0	4.0	087_smiling	0.0		121.84811452060785	
17.0	97.30212133222267	pulse	1.0	t		31.0	female	east_asian	3.395941106247513	smiling	087	sub-12	2.0	4.0	087_smiling	0.0		122.54809649998515	
17.0	98.00210059492201	pulse	1.0	t		31.0	female	east_asian	3.395941106247513	smiling	087	sub-12	2.0	4.0	087_smiling	0.0		123.2480757626845	
17.0	98.70208680024098	pulse	1.0	t		31.0	female	east_asian	3.395941106247513	smiling	087	sub-12	2.0	4.0	087_smiling	0.0		123.94806196800346	
17.0	99.40206908147047	pulse	1.0	t		31.0	female	east_asian	3.395941106247513	smiling	087	sub-12	2.0	4.0	087_smiling	0.0		124.64804424923295	
18.0	100.01858720125256	face	0.0		145	25.0	female	west_asian	2.6756864305610826	smiling	064	sub-12	2.0	4.0	064_smiling	0.0		125.26456236901504	1.2333103220744306
18.0	100.10206947387906	pulse	0.0	t		25.0	female	west_asian	2.6756864305610826	smiling	064	sub-12	2.0	4.0	064_smiling	0.0		125.34804464164154	
18.0	100.80203002169401	pulse	0.0	t		25.0	female	west_asian	2.6756864305610826	smiling	064	sub-12	2.0	4.0	064_smiling	0.0		126.04800518945649	
18.0	101.25189752332699	fix	1.0		444	25.0	female	west_asian	2.6756864305610826	smiling	064	sub-12	2.0	4.0	064_smiling	0.0		126.49787269108947	3.7665517311115764
18.0	101.50201562330676	pulse	1.0	t		25.0	female	west_asian	2.6756864305610826	smiling	064	sub-12	2.0	4.0	064_smiling	0.0		126.74799079106924	
18.0	102.20198281188732	pulse	1.0	t		25.0	female	west_asian	2.6756864305610826	smiling	064	sub-12	2.0	4.0	064_smiling	0.0		127.4479579796498	
18.0	102.9019696209125	pulse	1.0	t		25.0	female	west_asian	2.6756864305610826	smiling	064	sub-12	2.0	4.0	064_smiling	0.0		128.14794478867498	
18.0	103.60195612808366	pulse	1.0	t		25.0	female	west_asian	2.6756864305610826	smiling	064	sub-12	2.0	4.0	064_smiling	0.0		128.84793129584614	
18.0	104.30194082413709	pulse	1.0	t		25.0	female	west_asian	2.6756864305610826	smiling	064	sub-12	2.0	4.0	064_smiling	0.0		129.54791599189957	
19.0	105.01844925443856	face	0.0		146	26.0	female	white	4.854755272582572	neutral	027	sub-12	2.0	4.0	027_neutral	0.0		130.26442442220105	1.2333184721046564
19.0	105.00464974337956	pulse	0.0	t		26.0	female	white	4.854755272582572	neutral	027	sub-12	2.0	4.0	027_neutral	0.0		130.25062491114204	
19.0	105.7019065940085	pulse	0.0	t		26.0	female	white	4.854755272582572	neutral	027	sub-12	2.0	4.0	027_neutral	0.0		130.947881761771	
19.0	106.25176772654322	fix	1.0		443	26.0	female	white	4.854755272582572	neutral	027	sub-12	2.0	4.0	027_neutral	0.0		131.4977428943057	3.766559881141802
19.0	106.40187649926611	pulse	1.0	t		26.0	female	white	4.854755272582572	neutral	027	sub-12	2.0	4.0	027_neutral	0.0		131.6478516670286	
19.0	107.10186783608515	pulse	1.0	t		26.0	female	white	4.854755272582572	neutral	027	sub-12	2.0	4.0	027_neutral	0.0		132.34784300384763	
19.0	107.80185072102086	pulse	1.0	t		26.0	female	white	4.854755272582572	neutral	027	sub-12	2.0	4.0	027_neutral	0.0		133.04782588878334	
19.0	108.5018417559877	pulse	1.0	t		26.0	female	white	4.854755272582572	neutral	027	sub-12	2.0	4.0	027_neutral	0.0		133.74781692375018	
19.0	109.20180381306727	pulse	1.0	t		26.0	female	white	4.854755272582572	neutral	027	sub-12	2.0	4.0	027_neutral	0.0		134.44777898082975	
19.0	109.90179243321018	pulse	1.0	t		26.0	female	white	4.854755272582572	neutral	027	sub-12	2.0	4.0	027_neutral	0.0		135.14776760097266	
20.0	110.01832760768502	face	0.0		146	32.0	male	white	2.389176283326701	neutral	092	sub-12	2.0	4.0	092_neutral	0.0		135.2643027754475	1.2333100202213245
20.0	110.60176716811475	pulse	0.0	t		32.0	male	white	2.389176283326701	neutral	092	sub-12	2.0	4.0	092_neutral	0.0		135.84774233587723	
20.0	111.25163762790635	fix	1.0		1184	32.0	male	white	2.389176283326701	neutral	092	sub-12	2.0	4.0	092_neutral	0.0		136.49761279566883	10.016381561491471
20.0	111.30175458084523	pulse	1.0	t		32.0	male	white	2.389176283326701	neutral	092	sub-12	2.0	4.0	092_neutral	0.0		136.5477297486077	
20.0	112.00172720277988	pulse	1.0	t		32.0	male	white	2.389176283326701	neutral	092	sub-12	2.0	4.0	092_neutral	0.0		137.24770237054236	
20.0	112.70173061371861	pulse	1.0	t		32.0	male	white	2.389176283326701	neutral	092	sub-12	2.0	4.0	092_neutral	0.0		137.9477057814811	
20.0	113.40168874670962	pulse	1.0	t		32.0	male	white	2.389176283326701	neutral	092	sub-12	2.0	4.0	092_neutral	0.0		138.6476639144721	
20.0	114.10167676314632	pulse	1.0	t		32.0	male	white	2.389176283326701	neutral	092	sub-12	2.0	4.0	092_neutral	0.0		139.3476519309088	
20.0	114.80168228705588	pulse	1.0	t		32.0	male	white	2.389176283326701	neutral	092	sub-12	2.0	4.0	092_neutral	0.0		140.04765745481836	
20.0	115.50167000163947	pulse	1.0	t		32.0	male	white	2.389176283326701	neutral	092	sub-12	2.0	4.0	092_neutral	0.0		140.74764516940195	
20.0	116.20161304198064	pulse	1.0	t		32.0	male	white	2.389176283326701	neutral	092	sub-12	2.0	4.0	092_neutral	0.0		141.44758820974312	
20.0	116.90162822518596	pulse	1.0	t		32.0	male	white	2.389176283326701	neutral	092	sub-12	2.0	4.0	092_neutral	0.0		142.14760339294844	
20.0	117.60159239523637	pulse	1.0	t		32.0	male	white	2.389176283326701	neutral	092	sub-12	2.0	4.0	092_neutral	0.0		142.84756756299885	
20.0	118.30158373205632	pulse	1.0	t		32.0	male	white	2.389176283326701	neutral	092	sub-12	2.0	4.0	092_neutral	0.0		143.5475588998188	
20.0	119.00156239105036	pulse	1.0	t		32.0	male	white	2.389176283326701	neutral	092	sub-12	2.0	4.0	092_neutral	0.0		144.24753755881284	
20.0	119.70152927777781	pulse	1.0	t		32.0	male	white	2.389176283326701	neutral	092	sub-12	2.0	4.0	092_neutral	0.0		144.9475044455403	
20.0	120.40150189971155	pulse	1.0	t		32.0	male	white	2.389176283326701	neutral	092	sub-12	2.0	4.0	092_neutral	0.0		145.64747706747403	
20.0	121.10147693647014	pulse	1.0	t		32.0	male	white	2.389176283326701	neutral	092	sub-12	2.0	4.0	092_neutral	0.0		146.34745210423262	
21.0	121.26801918939782	face	0.0		146	23.0	male	white	2.6275368085953046	smiling	141	sub-12	2.0	4.0	141_smiling	0.0		146.5139943571603	1.2333163591338234
21.0	121.80148125296819	pulse	0.0	t		23.0	male	white	2.6275368085953046	smiling	141	sub-12	2.0	4.0	141_smiling	0.0		147.04745642073067	
21.0	122.50133554853164	fix	1.0		444	23.0	male	white	2.6275368085953046	smiling	141	sub-12	2.0	4.0	141_smiling	0.0		147.74731071629412	3.7581958367836705
21.0	122.50895612898876	pulse	1.0	t		23.0	male	white	2.6275368085953046	smiling	141	sub-12	2.0	4.0	141_smiling	0.0		147.75493129675124	
21.0	123.20143947651468	pulse	1.0	t		23.0	male	white	2.6275368085953046	smiling	141	sub-12	2.0	4.0	141_smiling	0.0		148.44741464427716	
21.0	123.90141179659622	pulse	1.0	t		23.0	male	white	2.6275368085953046	smiling	141	sub-12	2.0	4.0	141_smiling	0.0		149.1473869643587	
21.0	124.60140011488511	pulse	1.0	t		23.0	male	white	2.6275368085953046	smiling	141	sub-12	2.0	4.0	141_smiling	0.0		149.8473752826476	
21.0	125.30137877387915	pulse	1.0	t		23.0	male	white	2.6275368085953046	smiling	141	sub-12	2.0	4.0	141_smiling	0.0		150.54735394164163	
21.0	126.00139305152516	pulse	1.0	t		23.0	male	white	2.6275368085953046	smiling	141	sub-12	2.0	4.0	141_smiling	0.0		151.24736821928764	
22.0	126.25953138531531	face	0.0		146	19.0	male	white	2.243931555909272	neutral	130	sub-12	2.0	4.0	130_neutral	0.0		151.5055065530778	1.2416725553148353
22.0	126.70134333633905	pulse	0.0	t		19.0	male	white	2.243931555909272	neutral	130	sub-12	2.0	4.0	130_neutral	0.0		151.94731850410153	
22.0	127.40132169347999	pulse	0.0	t		19.0	male	white	2.243931555909272	neutral	130	sub-12	2.0	4.0	130_neutral	0.0		152.64729686124247	
22.0	127.50120394063015	fix	1.0		444	19.0	male	white	2.243931555909272	neutral	130	sub-12	2.0	4.0	130_neutral	0.0		152.74717910839263	3.7583226150372866
22.0	128.1013048802688	pulse	1.0	t		19.0	male	white	2.243931555909272	neutral	130	sub-12	2.0	4.0	130_neutral	0.0		153.34728004803128	
22.0	128.8012820299973	pulse	1.0	t		19.0	male	white	2.243931555909272	neutral	130	sub-12	2.0	4.0	130_neutral	0.0		154.0472571977598	
22.0	129.50128393167142	pulse	1.0	t		19.0	male	white	2.243931555909272	neutral	130	sub-12	2.0	4.0	130_neutral	0.0		154.7472590994339	
22.0	130.2012577610176	pulse	1.0	t		19.0	male	white	2.243931555909272	neutral	130	sub-12	2.0	4.0	130_neutral	0.0		155.44723292878007	
22.0	130.90124396633655	pulse	1.0	t		19.0	male	white	2.243931555909272	neutral	130	sub-12	2.0	4.0	130_neutral	0.0		156.14721913409903	
23.0	131.25952655566743	face	0.0		146	54.0	female	white	2.286908077994429	neutral	136	sub-12	2.0	4.0	136_neutral	0.0		156.50550172342992	1.2415436640903863
23.0	131.60120602341613	pulse	0.0	t		54.0	female	white	2.286908077994429	neutral	136	sub-12	2.0	4.0	136_neutral	0.0		156.8471811911786	
23.0	132.3012236214454	pulse	0.0	t		54.0	female	white	2.286908077994429	neutral	136	sub-12	2.0	4.0	136_neutral	0.0		157.54719878920787	
23.0	132.50107021975782	fix	1.0		444	54.0	female	white	2.286908077994429	neutral	136	sub-12	2.0	4.0	136_neutral	0.0		157.7470453875203	3.76657406823324
23.0	133.0012065063811	pulse	1.0	t		54.0	female	white	2.286908077994429	neutral	136	sub-12	2.0	4.0	136_neutral	0.0		158.24718167414358	
23.0	133.7011700727253	pulse	1.0	t		54.0	female	white	2.286908077994429	neutral	136	sub-12	2.0	4.0	136_neutral	0.0		158.94714524048777	
23.0	134.40114450577767	pulse	1.0	t		54.0	female	white	2.286908077994429	neutral	136	sub-12	2.0	4.0	136_neutral	0.0		159.64711967354015	
23.0	135.10111229806444	pulse	1.0	t		54.0	female	white	2.286908077994429	neutral	136	sub-12	2.0	4.0	136_neutral	0.0		160.34708746582692	
23.0	135.8010867311168	pulse	1.0	t		54.0	female	white	2.286908077994429	neutral	136	sub-12	2.0	4.0	136_neutral	0.0		161.0470618988793	
24.0	136.26764428799106	face	0.0		145	25.0	female	black	3.858336649423	smiling	126	sub-12	2.0	4.0	126_smiling	0.0		161.51361945575354	1.2332946257183721
24.0	136.50110764952842	pulse	0.0	t		25.0	female	black	3.858336649423	smiling	126	sub-12	2.0	4.0	126_smiling	0.0		161.7470828172909	
24.0	137.20106517881322	pulse	0.0	t		25.0	female	black	3.858336649423	smiling	126	sub-12	2.0	4.0	126_smiling	0.0		162.4470403465757	
24.0	137.50093891370943	fix	1.0		444	25.0	female	black	3.858336649423	smiling	126	sub-12	2.0	4.0	126_smiling	0.0		162.7469140814719	3.76655142925938
24.0	137.90103598963015	pulse	1.0	t		25.0	female	black	3.858336649423	smiling	126	sub-12	2.0	4.0	126_smiling	0.0		163.14701115739263	
24.0	138.6010354764794	pulse	1.0	t		25.0	female	black	3.858336649423	smiling	126	sub-12	2.0	4.0	126_smiling	0.0		163.8470106442419	
24.0	139.30101262620883	pulse	1.0	t		25.0	female	black	3.858336649423	smiling	126	sub-12	2.0	4.0	126_smiling	0.0		164.5469877939713	
24.0	140.0009804184956	pulse	1.0	t		25.0	female	black	3.858336649423	smiling	126	sub-12	2.0	4.0	126_smiling	0.0		165.24695558625808	
24.0	140.70098654611047	pulse	1.0	t		25.0	female	black	3.858336649423	smiling	126	sub-12	2.0	4.0	126_smiling	0.0		165.94696171387295	
25.0	141.2674903429688	face	0.0		145	24.0	male	white	3.1153999204138483	neutral	012	sub-12	2.0	4.0	012_neutral	0.0		166.5134655107313	1.233323905457837
25.0	141.40097124216481	pulse	0.0	t		24.0	male	white	3.1153999204138483	neutral	012	sub-12	2.0	4.0	012_neutral	0.0		166.6469464099273	
25.0	142.10092484736106	pulse	0.0	t		24.0	male	white	3.1153999204138483	neutral	012	sub-12	2.0	4.0	012_neutral	0.0		167.34690001512354	
25.0	142.50081424842665	fix	1.0		444	24.0	male	white	3.1153999204138483	neutral	012	sub-12	2.0	4.0	012_neutral	0.0		167.74678941618913	3.766558371878091
25.0	142.8009164860332	pulse	1.0	t		24.0	male	white	3.1153999204138483	neutral	012	sub-12	2.0	4.0	012_neutral	0.0		168.04689165379568	
25.0	143.50090238949815	pulse	1.0	t		24.0	male	white	3.1153999204138483	neutral	012	sub-12	2.0	4.0	012_neutral	0.0		168.74687755726063	
25.0	144.20087320031507	pulse	1.0	t		24.0	male	white	3.1153999204138483	neutral	012	sub-12	2.0	4.0	012_neutral	0.0		169.44684836807755	
25.0	144.90088687425487	pulse	1.0	t		24.0	male	white	3.1153999204138483	neutral	012	sub-12	2.0	4.0	012_neutral	0.0		170.14686204201735	
25.0	145.6008649295427	pulse	1.0	t		24.0	male	white	3.1153999204138483	neutral	012	sub-12	2.0	4.0	012_neutral	0.0		170.84684009730518	
26.0	146.26737262030474	face	0.0		145	47.0	male	east_asian	2.171110226820533	smiling	024	sub-12	2.0	4.0	024_smiling	0.0		171.51334778806722	1.2333015683370832
26.0	146.30083574035962	pulse	0.0	t		47.0	male	east_asian	2.171110226820533	smiling	024	sub-12	2.0	4.0	024_smiling	0.0		171.5468109081221	
26.0	147.00080323079328	pulse	0.0	t		47.0	male	east_asian	2.171110226820533	smiling	024	sub-12	2.0	4.0	024_smiling	0.0		172.24677839855576	
26.0	147.50067418864182	fix	1.0		443	47.0	male	east_asian	2.171110226820533	smiling	024	sub-12	2.0	4.0	024_smiling	0.0		172.7466493564043	3.7665490144354408
26.0	147.70078219164043	pulse	1.0	t		47.0	male	east_asian	2.171110226820533	smiling	024	sub-12	2.0	4.0	024_smiling	0.0		172.9467573594029	
26.0	148.40075420986796	pulse	1.0	t		47.0	male	east_asian	2.171110226820533	smiling	024	sub-12	2.0	4.0	024_smiling	0.0		173.64672937763044	
26.0	149.1007527911588	pulse	1.0	t		47.0	male	east_asian	2.171110226820533	smiling	024	sub-12	2.0	4.0	024_smiling	0.0		174.3467279589213	
26.0	149.80072541309346	pulse	1.0	t		47.0	male	east_asian	2.171110226820533	smiling	024	sub-12	2.0	4.0	024_smiling	0.0		175.04670058085594	
26.0	150.50073003144462	pulse	1.0	t		47.0	male	east_asian	2.171110226820533	smiling	024	sub-12	2.0	4.0	024_smiling	0.0		175.7467051992071	
26.0	151.20069480520124	pulse	1.0	t		47.0	male	east_asian	2.171110226820533	smiling	024	sub-12	2.0	4.0	024_smiling	0.0		176.44666997296372	
27.0	151.26722320307726	face	0.0		146	20.0	female	white	3.9502586549940313	neutral	091	sub-12	2.0	4.0	091_neutral	0.0		176.51319837083975	1.2333136424567783
27.0	151.9006933864921	pulse	0.0	t		20.0	female	white	3.9502586549940313	neutral	091	sub-12	2.0	4.0	091_neutral	0.0		177.14666855425457	
27.0	152.50053684553404	fix	1.0		443	20.0	female	white	3.9502586549940313	neutral	091	sub-12	2.0	4.0	091_neutral	0.0		177.74651201329652	3.7665550514948336
27.0	152.60064940651228	pulse	1.0	t		20.0	female	white	3.9502586549940313	neutral	091	sub-12	2.0	4.0	091_neutral	0.0		177.84662457427476	
27.0	153.30062957477094	pulse	1.0	t		20.0	female	white	3.9502586549940313	neutral	091	sub-12	2.0	4.0	091_neutral	0.0		178.54660474253342	
27.0	154.00063026903263	pulse	1.0	t		20.0	female	white	3.9502586549940313	neutral	091	sub-12	2.0	4.0	091_neutral	0.0		179.2466054367951	
27.0	154.7006297558828	pulse	1.0	t		20.0	female	white	3.9502586549940313	neutral	091	sub-12	2.0	4.0	091_neutral	0.0		179.94660492364528	
27.0	155.4005613258105	pulse	1.0	t		20.0	female	white	3.9502586549940313	neutral	091	sub-12	2.0	4.0	091_neutral	0.0		180.64653649357297	
27.0	156.100556586719	pulse	1.0	t		20.0	female	white	3.9502586549940313	neutral	091	sub-12	2.0	4.0	091_neutral	0.0		181.34653175448148	
28.0	156.26709189702888	face	0.0		146	25.0	female	black	3.858336649423	neutral	126	sub-12	2.0	4.0	126_neutral	0.0		181.51306706479136	1.2333251128702614
28.0	156.80056754398265	pulse	0.0	t		25.0	female	black	3.858336649423	neutral	126	sub-12	2.0	4.0	126_neutral	0.0		182.04654271174513	
28.0	157.50041700989914	fix	1.0		444	25.0	female	black	3.858336649423	neutral	126	sub-12	2.0	4.0	126_neutral	0.0		182.74639217766162	3.758302390886456
28.0	157.5080659645364	pulse	1.0	t		25.0	female	black	3.858336649423	neutral	126	sub-12	2.0	4.0	126_neutral	0.0		182.75404113229888	
28.0	158.20050584523233	pulse	1.0	t		25.0	female	black	3.858336649423	neutral	126	sub-12	2.0	4.0	126_neutral	0.0		183.4464810129948	
28.0	158.9013912705932	pulse	1.0	t		25.0	female	black	3.858336649423	neutral	126	sub-12	2.0	4.0	126_neutral	0.0		184.14736643835568	
28.0	159.6004685965736	pulse	1.0	t		25.0	female	black	3.858336649423	neutral	126	sub-12	2.0	4.0	126_neutral	0.0		184.84644376433607	
28.0	160.30045480189256	pulse	1.0	t		25.0	female	black	3.858336649423	neutral	126	sub-12	2.0	4.0	126_neutral	0.0		185.54642996965504	
28.0	161.0004265182679	pulse	1.0	t		25.0	female	black	3.858336649423	neutral	126	sub-12	2.0	4.0	126_neutral	0.0		186.24640168603037	
29.0	161.2587194007856	face	0.0		146	21.0	male	east_asian/white	3.501790688420215	smiling	036	sub-12	2.0	4.0	036_smiling	0.0		186.50469456854808	1.2415620771225804
29.0	161.7004474366795	pulse	0.0	t		21.0	male	east_asian/white	3.501790688420215	smiling	036	sub-12	2.0	4.0	036_smiling	0.0		186.94642260444198	
29.0	162.40038896775695	pulse	0.0	t		21.0	male	east_asian/white	3.501790688420215	smiling	036	sub-12	2.0	4.0	036_smiling	0.0		187.64636413551943	
29.0	162.50028147790817	fix	1.0		444	21.0	male	east_asian/white	3.501790688420215	smiling	036	sub-12	2.0	4.0	036_smiling	0.0		187.74625664567066	3.7665275828730955
29.0	163.10038362495834	pulse	1.0	t		21.0	male	east_asian/white	3.501790688420215	smiling	036	sub-12	2.0	4.0	036_smiling	0.0		188.34635879272082	
29.0	163.80037707474912	pulse	1.0	t		21.0	male	east_asian/white	3.501790688420215	smiling	036	sub-12	2.0	4.0	036_smiling	0.0		189.0463522425116	
29.0	164.50033611329854	pulse	1.0	t		21.0	male	east_asian/white	3.501790688420215	smiling	036	sub-12	2.0	4.0	036_smiling	0.0		189.74631128106103	
29.0	165.20033318532478	pulse	1.0	t		21.0	male	east_asian/white	3.501790688420215	smiling	036	sub-12	2.0	4.0	036_smiling	0.0		190.44630835308726	
29.0	165.9002979590814	pulse	1.0	t		21.0	male	east_asian/white	3.501790688420215	smiling	036	sub-12	2.0	4.0	036_smiling	0.0		191.14627312684388	
30.0	166.26680906078127	face	0.0		145	28.0	male	white	3.9076800636689217	smiling	033	sub-12	2.0	4.0	033_smiling	0.0		191.51278422854375	1.2333380925492747
30.0	166.60028144772332	pulse	0.0	t		28.0	male	white	3.9076800636689217	smiling	033	sub-12	2.0	4.0	033_smiling	0.0		191.8462566154858	
30.0	167.30028334939743	pulse	0.0	t		28.0	male	white	3.9076800636689217	smiling	033	sub-12	2.0	4.0	033_smiling	0.0		192.5462585171599	
30.0	167.50014715333054	fix	1.0		444	28.0	male	white	3.9076800636689217	smiling	033	sub-12	2.0	4.0	033_smiling	0.0		192.74612232109303	3.76654599590438
30.0	168.0002574805967	pulse	1.0	t		28.0	male	white	3.9076800636689217	smiling	033	sub-12	2.0	4.0	033_smiling	0.0		193.24623264835918	
30.0	168.7002406673846	pulse	1.0	t		28.0	male	white	3.9076800636689217	smiling	033	sub-12	2.0	4.0	033_smiling	0.0		193.9462158351471	
30.0	169.4002090633776	pulse	1.0	t		28.0	male	white	3.9076800636689217	smiling	033	sub-12	2.0	4.0	033_smiling	0.0		194.64618423114007	
30.0	170.10020040019663	pulse	1.0	t		28.0	male	white	3.9076800636689217	smiling	033	sub-12	2.0	4.0	033_smiling	0.0		195.3461755679591	
30.0	170.80020501854779	pulse	1.0	t		28.0	male	white	3.9076800636689217	smiling	033	sub-12	2.0	4.0	033_smiling	0.0		196.04618018631027	
31.0	171.26669314923492	face	0.0		145	26.0	female	white	4.854755272582572	smiling	027	sub-12	2.0	4.0	027_smiling	0.0		196.5126683169974	1.2333109257806427
31.0	171.5001504737129	pulse	0.0	t		26.0	female	white	4.854755272582572	smiling	027	sub-12	2.0	4.0	027_smiling	0.0		196.74612564147537	
31.0	172.20012913270693	pulse	0.0	t		26.0	female	white	4.854755272582572	smiling	027	sub-12	2.0	4.0	027_smiling	0.0		197.44610430046941	
31.0	172.50000407501557	fix	1.0		444	26.0	female	white	4.854755272582572	smiling	027	sub-12	2.0	4.0	027_smiling	0.0		197.74597924277805	3.7583099372113793
31.0	172.90011322505507	pulse	1.0	t		26.0	female	white	4.854755272582572	smiling	027	sub-12	2.0	4.0	027_smiling	0.0		198.14608839281755	
31.0	173.60008645069502	pulse	1.0	t		26.0	female	white	4.854755272582572	smiling	027	sub-12	2.0	4.0	027_smiling	0.0		198.8460616184575	
31.0	174.30006661895368	pulse	1.0	t		26.0	female	white	4.854755272582572	smiling	027	sub-12	2.0	4.0	027_smiling	0.0		199.54604178671616	
31.0	175.00005463539037	pulse	1.0	t		26.0	female	white	4.854755272582572	smiling	027	sub-12	2.0	4.0	027_smiling	0.0		200.24602980315285	
31.0	175.70004959444577	pulse	1.0	t		26.0	female	white	4.854755272582572	smiling	027	sub-12	2.0	4.0	027_smiling	0.0		200.94602476220825	
32.0	176.25831401222695	face	0.0		146	24.0	female	east_asian	2.9076800636689217	neutral	034	sub-12	2.0	4.0	034_neutral	0.0		201.50428917998943	1.2415527196799303
32.0	176.40002010340868	pulse	0.0	t		24.0	female	east_asian	2.9076800636689217	neutral	034	sub-12	2.0	4.0	034_neutral	0.0		201.64599527117116	
32.0	177.09999604572567	pulse	0.0	t		24.0	female	east_asian	2.9076800636689217	neutral	034	sub-12	2.0	4.0	034_neutral	0.0		202.34597121348816	
32.0	177.49986673190688	fix	1.0		444	24.0	female	east_asian	2.9076800636689217	neutral	034	sub-12	2.0	4.0	034_neutral	0.0		202.74584189966936	3.7582299461710136
32.0	177.79998194919153	pulse	1.0	t		24.0	female	east_asian	2.9076800636689217	neutral	034	sub-12	2.0	4.0	034_neutral	0.0		203.045957116954	
32.0	178.49995909892095	pulse	1.0	t		24.0	female	east_asian	2.9076800636689217	neutral	034	sub-12	2.0	4.0	034_neutral	0.0		203.74593426668343	
32.0	179.19993956903272	pulse	1.0	t		24.0	female	east_asian	2.9076800636689217	neutral	034	sub-12	2.0	4.0	034_neutral	0.0		204.4459147367952	
32.0	179.89992486879237	pulse	1.0	t		24.0	female	east_asian	2.9076800636689217	neutral	034	sub-12	2.0	4.0	034_neutral	0.0		205.14590003655485	
32.0	180.59990503705103	pulse	1.0	t		24.0	female	east_asian	2.9076800636689217	neutral	034	sub-12	2.0	4.0	034_neutral	0.0		205.8458802048135	
33.0	181.2580966780779	face	0.0		146	47.0	male	east_asian	2.171110226820533	neutral	024	sub-12	2.0	4.0	024_neutral	0.0		206.50407184584037	1.2416511237533996
33.0	181.29990301463567	pulse	0.0	t		47.0	male	east_asian	2.171110226820533	neutral	024	sub-12	2.0	4.0	024_neutral	0.0		206.54587818239816	
33.0	181.99988167362972	pulse	0.0	t		47.0	male	east_asian	2.171110226820533	neutral	024	sub-12	2.0	4.0	024_neutral	0.0		207.2458568413922	
33.0	182.4997478018313	fix	1.0		443	47.0	male	east_asian	2.171110226820533	neutral	024	sub-12	2.0	4.0	024_neutral	0.0		207.74572296959377	3.7583494799528125
33.0	182.69985308815285	pulse	1.0	t		47.0	male	east_asian	2.171110226820533	neutral	024	sub-12	2.0	4.0	024_neutral	0.0		207.94582825591533	
33.0	183.39982963417515	pulse	1.0	t		47.0	male	east_asian	2.171110226820533	neutral	024	sub-12	2.0	4.0	024_neutral	0.0		208.64580480193763	
33.0	184.09981070799313	pulse	1.0	t		47.0	male	east_asian	2.171110226820533	neutral	024	sub-12	2.0	4.0	024_neutral	0.0		209.3457858757556	
33.0	184.79981351522565	pulse	1.0	t		47.0	male	east_asian	2.171110226820533	neutral	024	sub-12	2.0	4.0	024_neutral	0.0		210.04578868298813	
33.0	185.4997740630406	pulse	1.0	t		47.0	male	east_asian	2.171110226820533	neutral	024	sub-12	2.0	4.0	024_neutral	0.0		210.74574923080309	
33.0	186.19975272203465	pulse	1.0	t		47.0	male	east_asian	2.171110226820533	neutral	024	sub-12	2.0	4.0	024_neutral	0.0		211.44572788979713	
34.0	186.2580972817841	face	0.0		147	31.0	female	west_asian	2.364902506963788	smiling	006	sub-12	2.0	4.0	006_smiling	1.0	trustworthiness	211.50407244954658	1.2415098565561493
34.0	186.89973439955884	pulse	0.0	t		31.0	female	west_asian	2.364902506963788	smiling	006	sub-12	2.0	4.0	006_smiling	1.0	trustworthiness	212.14570956732132	
34.0	187.49960713834025	fix	1.0		177	31.0	female	west_asian	2.364902506963788	smiling	006	sub-12	2.0	4.0	006_smiling	1.0	trustworthiness	212.74558230610273	1.4999663433918613
34.0	187.5997206048769	pulse	1.0	t		31.0	female	west_asian	2.364902506963788	smiling	006	sub-12	2.0	4.0	006_smiling	1.0	trustworthiness	212.84569577263937	
34.0	188.29970620648965	pulse	1.0	t		31.0	female	west_asian	2.364902506963788	smiling	006	sub-12	2.0	4.0	006_smiling	1.0	trustworthiness	213.54568137425213	
34.0	188.9995734817321	rating	2.0		294	31.0	female	west_asian	2.364902506963788	smiling	006	sub-12	2.0	4.0	006_smiling	1.0	trustworthiness	214.2455486494946	2.4999289136221705
34.0	188.9958812160212	pulse	2.0	t		31.0	female	west_asian	2.364902506963788	smiling	006	sub-12	2.0	4.0	006_smiling	1.0	trustworthiness	214.24185638378367	
34.0	189.69967590045053	pulse	2.0	t		31.0	female	west_asian	2.364902506963788	smiling	006	sub-12	2.0	4.0	006_smiling	1.0	trustworthiness	214.945651068213	
34.0	190.3996512390613	pulse	2.0	t		31.0	female	west_asian	2.364902506963788	smiling	006	sub-12	2.0	4.0	006_smiling	1.0	trustworthiness	215.6456264068238	
34.0	191.09463694783153	pulse	2.0	t		31.0	female	west_asian	2.364902506963788	smiling	006	sub-12	2.0	4.0	006_smiling	1.0	trustworthiness	216.340612115594	
34.0	191.1528752553304	response	2.0	e		31.0	female	west_asian	2.364902506963788	smiling	006	sub-12	2.0	4.0	006_smiling	1.0	trustworthiness	216.39885042309288	
34.0	191.49950239535428	fix	3.0		444	31.0	female	west_asian	2.364902506963788	smiling	006	sub-12	2.0	4.0	006_smiling	1.0	trustworthiness	216.74547756311676	3.7582740167063093
34.0	191.79961067002023	pulse	3.0	t		31.0	female	west_asian	2.364902506963788	smiling	006	sub-12	2.0	4.0	006_smiling	1.0	trustworthiness	217.0455858377827	
34.0	192.49958117898314	pulse	3.0	t		31.0	female	west_asian	2.364902506963788	smiling	006	sub-12	2.0	4.0	006_smiling	1.0	trustworthiness	217.74555634674562	
34.0	193.19958972142285	pulse	3.0	t		31.0	female	west_asian	2.364902506963788	smiling	006	sub-12	2.0	4.0	006_smiling	1.0	trustworthiness	218.44556488918533	
34.0	193.89957079524083	pulse	3.0	t		31.0	female	west_asian	2.364902506963788	smiling	006	sub-12	2.0	4.0	006_smiling	1.0	trustworthiness	219.14554596300331	
34.0	194.59953617270367	pulse	3.0	t		31.0	female	west_asian	2.364902506963788	smiling	006	sub-12	2.0	4.0	006_smiling	1.0	trustworthiness	219.84551134046615	
35.0	195.2577764120606	face	0.0		146	22.0	male	black	2.767608436132113	smiling	044	sub-12	2.0	4.0	044_smiling	1.0	trustworthiness	220.50375157982307	1.2415928661275757
35.0	195.2995214724633	pulse	0.0	t		22.0	male	black	2.767608436132113	smiling	044	sub-12	2.0	4.0	044_smiling	1.0	trustworthiness	220.5454966402258	
35.0	195.99949982960425	pulse	0.0	t		22.0	male	black	2.767608436132113	smiling	044	sub-12	2.0	4.0	044_smiling	1.0	trustworthiness	221.24547499736673	
35.0	196.49936927818817	fix	1.0		177	22.0	male	black	2.767608436132113	smiling	044	sub-12	2.0	4.0	044_smiling	1.0	trustworthiness	221.74534444595065	1.4999657396865587
35.0	196.6994984108951	pulse	1.0	t		22.0	male	black	2.767608436132113	smiling	044	sub-12	2.0	4.0	044_smiling	1.0	trustworthiness	221.94547357865758	
35.0	197.3994737495059	pulse	1.0	t		22.0	male	black	2.767608436132113	smiling	044	sub-12	2.0	4.0	044_smiling	1.0	trustworthiness	222.64544891726837	
35.0	197.99933501787473	rating	2.0		294	22.0	male	black	2.767608436132113	smiling	044	sub-12	2.0	4.0	044_smiling	1.0	trustworthiness	223.2453101856372	2.4999277062097462
35.0	198.09962959620225	pulse	2.0	t		22.0	male	black	2.767608436132113	smiling	044	sub-12	2.0	4.0	044_smiling	1.0	trustworthiness	223.34560476396473	
35.0	198.79942986008245	pulse	2.0	t		22.0	male	black	2.767608436132113	smiling	044	sub-12	2.0	4.0	044_smiling	1.0	trustworthiness	224.04540502784494	
35.0	199.49434433154784	pulse	2.0	t		22.0	male	black	2.767608436132113	smiling	044	sub-12	2.0	4.0	044_smiling	1.0	trustworthiness	224.74031949931032	
35.0	200.1660532510923	response	2.0	e		22.0	male	black	2.767608436132113	smiling	044	sub-12	2.0	4.0	044_smiling	1.0	trustworthiness	225.4120284188548	
35.0	200.19432812204286	pulse	2.0	t		22.0	male	black	2.767608436132113	smiling	044	sub-12	2.0	4.0	044_smiling	1.0	trustworthiness	225.44030328980534	
35.0	200.49926272408447	fix	3.0		444	22.0	male	black	2.767608436132113	smiling	044	sub-12	2.0	4.0	044_smiling	1.0	trustworthiness	225.74523789184695	3.7665740682323303
35.0	200.89939089086147	pulse	3.0	t		22.0	male	black	2.767608436132113	smiling	044	sub-12	2.0	4.0	044_smiling	1.0	trustworthiness	226.14536605862395	
35.0	201.59937830359286	pulse	3.0	t		22.0	male	black	2.767608436132113	smiling	044	sub-12	2.0	4.0	044_smiling	1.0	trustworthiness	226.84535347135534	
35.0	202.29932919211205	pulse	3.0	t		22.0	male	black	2.767608436132113	smiling	044	sub-12	2.0	4.0	044_smiling	1.0	trustworthiness	227.54530435987454	
35.0	202.99930936037072	pulse	3.0	t		22.0	male	black	2.767608436132113	smiling	044	sub-12	2.0	4.0	044_smiling	1.0	trustworthiness	228.2452845281332	
35.0	203.69931156389703	pulse	3.0	t		22.0	male	black	2.767608436132113	smiling	044	sub-12	2.0	4.0	044_smiling	1.0	trustworthiness	228.9452867316595	
36.0	204.2658367923168	face	0.0		145	40.0	male	black	2.408674890569041	smiling	061	sub-12	2.0	4.0	061_smiling	0.0		229.51181196007929	1.2332943238661755
36.0	204.39926939503584	pulse	0.0	t		40.0	male	black	2.408674890569041	smiling	061	sub-12	2.0	4.0	061_smiling	0.0		229.64524456279833	
36.0	205.0992546947955	pulse	0.0	t		40.0	male	black	2.408674890569041	smiling	061	sub-12	2.0	4.0	061_smiling	0.0		230.34522986255797	
36.0	205.49913111618298	fix	1.0		445	40.0	male	black	2.408674890569041	smiling	061	sub-12	2.0	4.0	061_smiling	0.0		230.74510628394546	3.7666483240673188
36.0	205.7992451260552	pulse	1.0	t		40.0	male	black	2.408674890569041	smiling	061	sub-12	2.0	4.0	061_smiling	0.0		231.0452202938177	
36.0	206.4992068812826	pulse	1.0	t		40.0	male	black	2.408674890569041	smiling	061	sub-12	2.0	4.0	061_smiling	0.0		231.74518204904507	
36.0	207.1991958032777	pulse	1.0	t		40.0	male	black	2.408674890569041	smiling	061	sub-12	2.0	4.0	061_smiling	0.0		232.44517097104017	
36.0	207.8991841215675	pulse	1.0	t		40.0	male	black	2.408674890569041	smiling	061	sub-12	2.0	4.0	061_smiling	0.0		233.14515928932997	
36.0	208.59916459167925	pulse	1.0	t		40.0	male	black	2.408674890569041	smiling	061	sub-12	2.0	4.0	061_smiling	0.0		233.84513975944174	
37.0	209.2657794402503	face	0.0		146	22.0	male	black	2.767608436132113	neutral	044	sub-12	2.0	4.0	044_neutral	0.0		234.51175460801278	1.2415472863267496
37.0	209.29916528594094	pulse	0.0	t		22.0	male	black	2.767608436132113	neutral	044	sub-12	2.0	4.0	044_neutral	0.0		234.54514045370343	
37.0	209.99914213381726	pulse	0.0	t		22.0	male	black	2.767608436132113	neutral	044	sub-12	2.0	4.0	044_neutral	0.0		235.24511730157974	
37.0	210.50732672657705	fix	1.0		443	22.0	male	black	2.767608436132113	neutral	044	sub-12	2.0	4.0	044_neutral	0.0		235.75330189433953	3.7665544477886215
37.0	210.69914071510811	pulse	1.0	t		22.0	male	black	2.767608436132113	neutral	044	sub-12	2.0	4.0	044_neutral	0.0		235.9451158828706	
37.0	211.39908798139186	pulse	1.0	t		22.0	male	black	2.767608436132113	neutral	044	sub-12	2.0	4.0	044_neutral	0.0		236.64506314915434	
37.0	212.09906543297348	pulse	1.0	t		22.0	male	black	2.767608436132113	neutral	044	sub-12	2.0	4.0	044_neutral	0.0		237.34504060073596	
37.0	212.79905043088002	pulse	1.0	t		22.0	male	black	2.767608436132113	neutral	044	sub-12	2.0	4.0	044_neutral	0.0		238.0450255986425	
37.0	213.49904871031777	pulse	1.0	t		22.0	male	black	2.767608436132113	neutral	044	sub-12	2.0	4.0	044_neutral	0.0		238.74502387808025	
37.0	214.19901076739825	pulse	1.0	t		22.0	male	black	2.767608436132113	neutral	044	sub-12	2.0	4.0	044_neutral	0.0		239.44498593516073	
38.0	214.27388117436567	face	0.0		146	28.0	male	east_asian	1.5563072025467568	neutral	005	sub-12	2.0	4.0	005_neutral	1.0	attractiveness	239.51985634212815	1.2333208869285954
38.0	214.89899999124646	pulse	0.0	t		28.0	male	east_asian	1.5563072025467568	neutral	005	sub-12	2.0	4.0	005_neutral	1.0	attractiveness	240.14497515900894	
38.0	215.50720206129427	fix	1.0		177	28.0	male	east_asian	1.5563072025467568	neutral	005	sub-12	2.0	4.0	005_neutral	1.0	attractiveness	240.75317722905675	1.5082992968937106
38.0	215.59898197062284	pulse	1.0	t		28.0	male	east_asian	1.5563072025467568	neutral	005	sub-12	2.0	4.0	005_neutral	1.0	attractiveness	240.84495713838533	
38.0	216.2989548944106	pulse	1.0	t		28.0	male	east_asian	1.5563072025467568	neutral	005	sub-12	2.0	4.0	005_neutral	1.0	attractiveness	241.54493006217308	
38.0	216.9989685683504	pulse	1.0	t		28.0	male	east_asian	1.5563072025467568	neutral	005	sub-12	2.0	4.0	005_neutral	1.0	attractiveness	242.24494373611287	
38.0	217.01550135818798	rating	2.0		294	28.0	male	east_asian	1.5563072025467568	neutral	005	sub-12	2.0	4.0	005_neutral	1.0	attractiveness	242.26147652595046	2.491608034239107
38.0	217.69392680849978	pulse	2.0	t		28.0	male	east_asian	1.5563072025467568	neutral	005	sub-12	2.0	4.0	005_neutral	1.0	attractiveness	242.93990197626226	
38.0	218.39376329473725	pulse	2.0	t		28.0	male	east_asian	1.5563072025467568	neutral	005	sub-12	2.0	4.0	005_neutral	1.0	attractiveness	243.63973846249974	
38.0	218.8738991044329	response	2.0	d		28.0	male	east_asian	1.5563072025467568	neutral	005	sub-12	2.0	4.0	005_neutral	1.0	attractiveness	244.11987427219537	
38.0	219.0937292759063	pulse	2.0	t		28.0	male	east_asian	1.5563072025467568	neutral	005	sub-12	2.0	4.0	005_neutral	1.0	attractiveness	244.33970444366878	
38.0	219.50710939242708	fix	3.0		444	28.0	male	east_asian	1.5563072025467568	neutral	005	sub-12	2.0	4.0	005_neutral	1.0	attractiveness	244.75308456018956	3.7665302995501406
38.0	219.7988659987068	pulse	3.0	t		28.0	male	east_asian	1.5563072025467568	neutral	005	sub-12	2.0	4.0	005_neutral	1.0	attractiveness	245.04484116646927	
38.0	220.49884526140613	pulse	3.0	t		28.0	male	east_asian	1.5563072025467568	neutral	005	sub-12	2.0	4.0	005_neutral	1.0	attractiveness	245.7448204291686	
38.0	221.19882905190116	pulse	3.0	t		28.0	male	east_asian	1.5563072025467568	neutral	005	sub-12	2.0	4.0	005_neutral	1.0	attractiveness	246.44480421966364	
38.0	221.89881072942444	pulse	3.0	t		28.0	male	east_asian	1.5563072025467568	neutral	005	sub-12	2.0	4.0	005_neutral	1.0	attractiveness	247.14478589718692	
38.0	222.5987905958309	pulse	3.0	t		28.0	male	east_asian	1.5563072025467568	neutral	005	sub-12	2.0	4.0	005_neutral	1.0	attractiveness	247.8447657635934	
39.0	223.27363969197722	face	0.0		145	54.0	female	white	2.286908077994429	smiling	136	sub-12	2.0	4.0	136_smiling	1.0	attractiveness	248.5196148597397	1.2333223961932163
39.0	223.2987861585916	pulse	0.0	t		54.0	female	white	2.286908077994429	smiling	136	sub-12	2.0	4.0	136_smiling	1.0	attractiveness	248.5447613263541	
39.0	223.99877055279285	pulse	0.0	t		54.0	female	white	2.286908077994429	smiling	136	sub-12	2.0	4.0	136_smiling	1.0	attractiveness	249.24474572055533	
39.0	224.50696208817044	fix	1.0		177	54.0	female	white	2.286908077994429	smiling	136	sub-12	2.0	4.0	136_smiling	1.0	attractiveness	249.75293725593292	1.4999615137448927
39.0	224.69873623210788	pulse	1.0	t		54.0	female	white	2.286908077994429	smiling	136	sub-12	2.0	4.0	136_smiling	1.0	attractiveness	249.94471139987036	
39.0	225.3987333041341	pulse	1.0	t		54.0	female	white	2.286908077994429	smiling	136	sub-12	2.0	4.0	136_smiling	1.0	attractiveness	250.6447084718966	
39.0	226.00692360191533	rating	2.0		295	54.0	female	white	2.286908077994429	smiling	136	sub-12	2.0	4.0	136_smiling	1.0	attractiveness	251.2528987696778	2.4999295173283826
39.0	226.09355601229254	pulse	2.0	t		54.0	female	white	2.286908077994429	smiling	136	sub-12	2.0	4.0	136_smiling	1.0	attractiveness	251.33953118005502	
39.0	226.79358115664672	pulse	2.0	t		54.0	female	white	2.286908077994429	smiling	136	sub-12	2.0	4.0	136_smiling	1.0	attractiveness	252.0395563244092	
39.0	227.4935178580754	pulse	2.0	t		54.0	female	white	2.286908077994429	smiling	136	sub-12	2.0	4.0	136_smiling	1.0	attractiveness	252.73949302583787	
39.0	228.19359220446586	pulse	2.0	t		54.0	female	white	2.286908077994429	smiling	136	sub-12	2.0	4.0	136_smiling	1.0	attractiveness	253.43956737222834	
39.0	228.50685311924371	fix	3.0		443	54.0	female	white	2.286908077994429	smiling	136	sub-12	2.0	4.0	136_smiling	1.0	attractiveness	253.7528282870062	3.749900614904618
39.0	228.5736616366894	response	3.0	e		54.0	female	white	2.286908077994429	smiling	136	sub-12	2.0	4.0	136_smiling	1.0	attractiveness	253.81963680445187	
39.0	228.89861693980856	pulse	3.0	t		54.0	female	white	2.286908077994429	smiling	136	sub-12	2.0	4.0	136_smiling	1.0	attractiveness	254.14459210757104	
39.0	229.59860586180366	pulse	3.0	t		54.0	female	white	2.286908077994429	smiling	136	sub-12	2.0	4.0	136_smiling	1.0	attractiveness	254.84458102956614	
39.0	230.29858301153308	pulse	3.0	t		54.0	female	white	2.286908077994429	smiling	136	sub-12	2.0	4.0	136_smiling	1.0	attractiveness	255.54455817929556	
39.0	230.99856559461568	pulse	3.0	t		54.0	female	white	2.286908077994429	smiling	136	sub-12	2.0	4.0	136_smiling	1.0	attractiveness	256.24454076237816	
39.0	231.69854998881692	pulse	3.0	t		54.0	female	white	2.286908077994429	smiling	136	sub-12	2.0	4.0	136_smiling	1.0	attractiveness	256.9445251565794	
40.0	232.25675373414833	fix	0.0		720													257.5027289019108	5.999843640153813
40.0	232.3985374015474	pulse	0.0	t														257.6445125693099	
40.0	233.0985139475697	pulse	0.0	t														258.3444891153322	
40.0	233.79849411582927	pulse	0.0	t														259.04446928359175	
40.0	234.49848364153058	pulse	0.0	t														259.74445880929306	
40.0	235.19845656531743	pulse	0.0	t														260.4444317330799	
40.0	235.89845725957912	pulse	0.0	t														261.1444324273416	
40.0	236.5984187129534	pulse	0.0	t														261.84439388071587	
40.0	237.29839888121205	pulse	0.0	t														262.54437404897453	
40.0	237.9983838791186	pulse	0.0	t														263.2443590468811	
