trial_nr	onset	event_type	phase	response	nr_frames	face_age	face_sex	face_eth	attractiveness	expression	face_id	sub_id	ses	run	trial_type	catch	rating_type	onset_abs	duration
-1.0	0.06211470353059667	fix	0.0		713													97.24002202319389	5.957907808665141
-1.0	0.7036295708467151	pulse	0.0	t														97.88153689051	
-1.0	1.4036076261345443	pulse	0.0	t														98.58151494579784	
-1.0	2.1035893036585094	pulse	0.0	t														99.2814966233218	
-1.0	2.8035676607994446	pulse	0.0	t														99.98147498046274	
-1.0	3.5035448105284104	pulse	0.0	t														100.6814521301917	
-1.0	4.203528299170102	pulse	0.0	t														101.3814356188334	
-1.0	4.90350726001725	pulse	0.0	t														102.08141457968054	
-1.0	5.603487428276139	pulse	0.0	t														102.78139474793943	
0.0	6.020022512195737	face	0.0		144	25.0	female	black	3.858336649423	neutral	126	sub-14	1.0	1.0	126_neutral	1.0	attractiveness	103.19792983185903	1.2333091146622337
0.0	6.303475142859497	pulse	0.0	t		25.0	female	black	3.858336649423	neutral	126	sub-14	1.0	1.0	126_neutral	1.0	attractiveness	103.48138246252279	
0.0	7.003454103706417	pulse	0.0	t		25.0	female	black	3.858336649423	neutral	126	sub-14	1.0	1.0	126_neutral	1.0	attractiveness	104.18136142336971	
0.0	7.253331626857971	fix	1.0		177	25.0	female	black	3.858336649423	neutral	126	sub-14	1.0	1.0	126_neutral	1.0	attractiveness	104.43123894652126	1.5083306896042359
0.0	7.70343970531917	pulse	1.0	t		25.0	female	black	3.858336649423	neutral	126	sub-14	1.0	1.0	126_neutral	1.0	attractiveness	104.88134702498246	
0.0	8.403405988340637	pulse	1.0	t		25.0	female	black	3.858336649423	neutral	126	sub-14	1.0	1.0	126_neutral	1.0	attractiveness	105.58131330800393	
0.0	8.761662316462207	rating	2.0		294	25.0	female	black	3.858336649423	neutral	126	sub-14	1.0	1.0	126_neutral	1.0	attractiveness	105.9395696361255	2.491572415587598
0.0	9.10342147339884	pulse	2.0	t		25.0	female	black	3.858336649423	neutral	126	sub-14	1.0	1.0	126_neutral	1.0	attractiveness	106.28132879306213	
0.0	9.803399830539774	pulse	2.0	t		25.0	female	black	3.858336649423	neutral	126	sub-14	1.0	1.0	126_neutral	1.0	attractiveness	106.98130715020307	
0.0	10.503376074709877	pulse	2.0	t		25.0	female	black	3.858336649423	neutral	126	sub-14	1.0	1.0	126_neutral	1.0	attractiveness	107.68128339437317	
0.0	11.203348092938313	pulse	2.0	t		25.0	female	black	3.858336649423	neutral	126	sub-14	1.0	1.0	126_neutral	1.0	attractiveness	108.3812554126016	
0.0	11.253234732049805	fix	3.0		444	25.0	female	black	3.858336649423	neutral	126	sub-14	1.0	1.0	126_neutral	1.0	attractiveness	108.4311420517131	3.766566220054983
0.0	11.90333822234561	pulse	3.0	t		25.0	female	black	3.858336649423	neutral	126	sub-14	1.0	1.0	126_neutral	1.0	attractiveness	109.0812455420089	
0.0	12.603325031370105	pulse	3.0	t		25.0	female	black	3.858336649423	neutral	126	sub-14	1.0	1.0	126_neutral	1.0	attractiveness	109.7812323510334	
0.0	13.303285881037937	pulse	3.0	t		25.0	female	black	3.858336649423	neutral	126	sub-14	1.0	1.0	126_neutral	1.0	attractiveness	110.48119320070123	
0.0	14.003273595621522	pulse	3.0	t		25.0	female	black	3.858336649423	neutral	126	sub-14	1.0	1.0	126_neutral	1.0	attractiveness	111.18118091528481	
0.0	14.703242595320035	pulse	3.0	t		25.0	female	black	3.858336649423	neutral	126	sub-14	1.0	1.0	126_neutral	1.0	attractiveness	111.88114991498333	
1.0	15.019800952104788	face	0.0		145	24.0	female	east_asian	2.9076800636689217	smiling	034	sub-14	1.0	1.0	034_smiling	0.0		112.19770827176808	1.2333070016911734
1.0	15.403234535845286	pulse	0.0	t		24.0	female	east_asian	2.9076800636689217	smiling	034	sub-14	1.0	1.0	034_smiling	0.0		112.58114185550858	
1.0	16.103215911516145	pulse	0.0	t		24.0	female	east_asian	2.9076800636689217	smiling	034	sub-14	1.0	1.0	034_smiling	0.0		113.28112323117944	
1.0	16.25310795379596	fix	1.0		444	24.0	female	east_asian	2.9076800636689217	smiling	034	sub-14	1.0	1.0	034_smiling	0.0		113.43101527345925	3.7665595792893782
1.0	16.803199400157837	pulse	1.0	t		24.0	female	east_asian	2.9076800636689217	smiling	034	sub-14	1.0	1.0	034_smiling	0.0		113.98110671982113	
1.0	17.5031874165943	pulse	1.0	t		24.0	female	east_asian	2.9076800636689217	smiling	034	sub-14	1.0	1.0	034_smiling	0.0		114.68109473625759	
1.0	18.20318177194349	pulse	1.0	t		24.0	female	east_asian	2.9076800636689217	smiling	034	sub-14	1.0	1.0	034_smiling	0.0		115.38108909160678	
1.0	18.903170693939046	pulse	1.0	t		24.0	female	east_asian	2.9076800636689217	smiling	034	sub-14	1.0	1.0	034_smiling	0.0		116.08107801360234	
1.0	19.603113130574684	pulse	1.0	t		24.0	female	east_asian	2.9076800636689217	smiling	034	sub-14	1.0	1.0	034_smiling	0.0		116.78102045023797	
2.0	20.01966753308534	face	0.0		145	21.0	male	black	2.969757262236371	neutral	137	sub-14	1.0	1.0	137_neutral	0.0		117.19757485274863	1.2333060961325373
2.0	20.30311986189622	pulse	0.0	t		21.0	male	black	2.969757262236371	neutral	137	sub-14	1.0	1.0	137_neutral	0.0		117.48102718155951	
2.0	21.00309520050746	pulse	0.0	t		21.0	male	black	2.969757262236371	neutral	137	sub-14	1.0	1.0	137_neutral	0.0		118.18100252017075	
2.0	21.252973629217877	fix	1.0		444	21.0	male	black	2.969757262236371	neutral	137	sub-14	1.0	1.0	137_neutral	0.0		118.43088094888117	3.7583555170122054
2.0	21.70307053911847	pulse	1.0	t		21.0	male	black	2.969757262236371	neutral	137	sub-14	1.0	1.0	137_neutral	0.0		118.88097785878176	
2.0	22.40304587772971	pulse	1.0	t		21.0	male	black	2.969757262236371	neutral	137	sub-14	1.0	1.0	137_neutral	0.0		119.580953197393	
2.0	23.103034799725265	pulse	1.0	t		21.0	male	black	2.969757262236371	neutral	137	sub-14	1.0	1.0	137_neutral	0.0		120.28094211938856	
2.0	23.803022212455744	pulse	1.0	t		21.0	male	black	2.969757262236371	neutral	137	sub-14	1.0	1.0	137_neutral	0.0		120.98092953211903	
2.0	24.502990306595166	pulse	1.0	t		21.0	male	black	2.969757262236371	neutral	137	sub-14	1.0	1.0	137_neutral	0.0		121.68089762625846	
3.0	25.011329146230082	face	0.0		146	19.0	female	white	4.298846000795861	neutral	100	sub-14	1.0	1.0	100_neutral	0.0		122.18923646589337	1.241506838026453
3.0	25.202975304501933	pulse	0.0	t		19.0	female	white	4.298846000795861	neutral	100	sub-14	1.0	1.0	100_neutral	0.0		122.38088262416522	
3.0	25.902962717232413	pulse	0.0	t		19.0	female	white	4.298846000795861	neutral	100	sub-14	1.0	1.0	100_neutral	0.0		123.0808700368957	
3.0	26.252835984256535	fix	1.0		445	19.0	female	white	4.298846000795861	neutral	100	sub-14	1.0	1.0	100_neutral	0.0		123.43074330391983	3.7583401225101625
3.0	26.602942583638196	pulse	1.0	t		19.0	female	white	4.298846000795861	neutral	100	sub-14	1.0	1.0	100_neutral	0.0		123.78084990330149	
3.0	27.3029188278083	pulse	1.0	t		19.0	female	white	4.298846000795861	neutral	100	sub-14	1.0	1.0	100_neutral	0.0		124.48082614747159	
3.0	28.00290322200908	pulse	1.0	t		19.0	female	white	4.298846000795861	neutral	100	sub-14	1.0	1.0	100_neutral	0.0		125.18081054167237	
3.0	28.70288610694479	pulse	1.0	t		19.0	female	white	4.298846000795861	neutral	100	sub-14	1.0	1.0	100_neutral	0.0		125.88079342660808	
3.0	29.402870199292465	pulse	1.0	t		19.0	female	white	4.298846000795861	neutral	100	sub-14	1.0	1.0	100_neutral	0.0		126.58077751895576	
4.0	30.011176106766698	face	0.0		146	40.0	female	west_asian	1.5777954635893354	smiling	038	sub-14	1.0	1.0	038_smiling	0.0		127.18908342642999	1.2415312881182672
4.0	30.10286666761249	pulse	0.0	t		40.0	female	west_asian	1.5777954635893354	smiling	038	sub-14	1.0	1.0	038_smiling	0.0		127.28077398727578	
4.0	30.802827819133427	pulse	0.0	t		40.0	female	west_asian	1.5777954635893354	smiling	038	sub-14	1.0	1.0	038_smiling	0.0		127.98073513879672	
4.0	31.252707394884965	fix	1.0		444	40.0	female	west_asian	1.5777954635893354	smiling	038	sub-14	1.0	1.0	038_smiling	0.0		128.43061471454826	3.766549919994077
4.0	31.50281825039383	pulse	1.0	t		40.0	female	west_asian	1.5777954635893354	smiling	038	sub-14	1.0	1.0	038_smiling	0.0		128.68072557005712	
4.0	32.20278332600333	pulse	1.0	t		40.0	female	west_asian	1.5777954635893354	smiling	038	sub-14	1.0	1.0	038_smiling	0.0		129.38069064566662	
4.0	32.90278220914729	pulse	1.0	t		40.0	female	west_asian	1.5777954635893354	smiling	038	sub-14	1.0	1.0	038_smiling	0.0		130.08068952881058	
4.0	33.60275241625777	pulse	1.0	t		40.0	female	west_asian	1.5777954635893354	smiling	038	sub-14	1.0	1.0	038_smiling	0.0		130.78065973592106	
4.0	34.30272684930992	pulse	1.0	t		40.0	female	west_asian	1.5777954635893354	smiling	038	sub-14	1.0	1.0	038_smiling	0.0		131.4806341689732	
5.0	35.01925731487904	face	0.0		146	37.0	male	white	3.898925586947871	neutral	101	sub-14	1.0	1.0	101_neutral	0.0		132.19716463454233	1.2333229998994284
5.0	35.00612882300584	pulse	0.0	t		37.0	male	white	3.898925586947871	neutral	101	sub-14	1.0	1.0	101_neutral	0.0		132.18403614266913	
5.0	35.70270499515391	pulse	0.0	t		37.0	male	white	3.898925586947871	neutral	101	sub-14	1.0	1.0	101_neutral	0.0		132.8806123148172	
5.0	36.25258031477847	fix	1.0		444	37.0	male	white	3.898925586947871	neutral	101	sub-14	1.0	1.0	101_neutral	0.0		133.43048763444176	3.7665429773751384
5.0	36.40267912635295	pulse	1.0	t		37.0	male	white	3.898925586947871	neutral	101	sub-14	1.0	1.0	101_neutral	0.0		133.58058644601624	
5.0	37.1026644261126	pulse	1.0	t		37.0	male	white	3.898925586947871	neutral	101	sub-14	1.0	1.0	101_neutral	0.0		134.2805717457759	
5.0	37.802641273988684	pulse	1.0	t		37.0	male	white	3.898925586947871	neutral	101	sub-14	1.0	1.0	101_neutral	0.0		134.98054859365197	
5.0	38.50261963112962	pulse	1.0	t		37.0	male	white	3.898925586947871	neutral	101	sub-14	1.0	1.0	101_neutral	0.0		135.6805269507929	
5.0	39.202613382772824	pulse	1.0	t		37.0	male	white	3.898925586947871	neutral	101	sub-14	1.0	1.0	101_neutral	0.0		136.38052070243612	
5.0	39.902586004707246	pulse	1.0	t		37.0	male	white	3.898925586947871	neutral	101	sub-14	1.0	1.0	101_neutral	0.0		137.08049332437054	
6.0	40.01912329215361	face	0.0		146	26.0	male	white	2.7966573816155993	smiling	117	sub-14	1.0	1.0	117_smiling	0.0		137.1970306118169	1.2333326591949572
6.0	40.60259515085272	pulse	0.0	t		26.0	male	white	2.7966573816155993	smiling	117	sub-14	1.0	1.0	117_smiling	0.0		137.780502470516	
6.0	41.252455951348566	fix	1.0		444	26.0	male	white	2.7966573816155993	smiling	117	sub-14	1.0	1.0	117_smiling	0.0		138.43036327101186	3.7583014853280474
6.0	41.30256565981608	pulse	1.0	t		26.0	male	white	2.7966573816155993	smiling	117	sub-14	1.0	1.0	117_smiling	0.0		138.48047297947937	
6.0	42.002553676252546	pulse	1.0	t		26.0	male	white	2.7966573816155993	smiling	117	sub-14	1.0	1.0	117_smiling	0.0		139.18046099591584	
6.0	42.70251633703833	pulse	1.0	t		26.0	male	white	2.7966573816155993	smiling	117	sub-14	1.0	1.0	117_smiling	0.0		139.88042365670162	
6.0	43.402529709125474	pulse	1.0	t		26.0	male	white	2.7966573816155993	smiling	117	sub-14	1.0	1.0	117_smiling	0.0		140.58043702878877	
6.0	44.102479993938914	pulse	1.0	t		26.0	male	white	2.7966573816155993	smiling	117	sub-14	1.0	1.0	117_smiling	0.0		141.2803873136022	
6.0	44.802492158614086	pulse	1.0	t		26.0	male	white	2.7966573816155993	smiling	117	sub-14	1.0	1.0	117_smiling	0.0		141.98039947827738	
7.0	45.01075743667661	face	0.0		146	37.0	male	white	3.898925586947871	smiling	101	sub-14	1.0	1.0	101_smiling	0.0		142.1886647563399	1.241566303064701
7.0	45.50245391384101	pulse	0.0	t		37.0	male	white	3.898925586947871	smiling	101	sub-14	1.0	1.0	101_smiling	0.0		142.6803612335043	
7.0	46.20243710062982	pulse	0.0	t		37.0	male	white	3.898925586947871	smiling	101	sub-14	1.0	1.0	101_smiling	0.0		143.3803444202931	
7.0	46.252323739741314	fix	1.0		445	37.0	male	white	3.898925586947871	smiling	101	sub-14	1.0	1.0	101_smiling	0.0		143.4302310594046	3.7665550514946062
7.0	46.902397950297654	pulse	1.0	t		37.0	male	white	3.898925586947871	smiling	101	sub-14	1.0	1.0	101_smiling	0.0		144.08030526996095	
7.0	47.60238777785207	pulse	1.0	t		37.0	male	white	3.898925586947871	smiling	101	sub-14	1.0	1.0	101_smiling	0.0		144.78029509751536	
7.0	48.30238515173096	pulse	1.0	t		37.0	male	white	3.898925586947871	smiling	101	sub-14	1.0	1.0	101_smiling	0.0		145.48029247139425	
7.0	49.00235113289955	pulse	1.0	t		37.0	male	white	3.898925586947871	smiling	101	sub-14	1.0	1.0	101_smiling	0.0		146.18025845256284	
7.0	49.70233914933601	pulse	1.0	t		37.0	male	white	3.898925586947871	smiling	101	sub-14	1.0	1.0	101_smiling	0.0		146.8802464689993	
8.0	50.01887879123592	face	0.0		145	25.0	female	west_asian	2.6756864305610826	neutral	064	sub-14	1.0	1.0	064_neutral	0.0		147.1967861108992	1.233318773957535
8.0	50.40232414724278	pulse	0.0	t		25.0	female	west_asian	2.6756864305610826	neutral	064	sub-14	1.0	1.0	064_neutral	0.0		147.58023146690607	
8.0	51.10233118041742	pulse	0.0	t		25.0	female	west_asian	2.6756864305610826	neutral	064	sub-14	1.0	1.0	064_neutral	0.0		148.2802385000807	
8.0	51.252197565193455	fix	1.0		444	25.0	female	west_asian	2.6756864305610826	neutral	064	sub-14	1.0	1.0	064_neutral	0.0		148.43010488485675	3.758206703490714
8.0	51.80228569117253	pulse	1.0	t		25.0	female	west_asian	2.6756864305610826	neutral	064	sub-14	1.0	1.0	064_neutral	0.0		148.98019301083582	
8.0	52.50231355220308	pulse	1.0	t		25.0	female	west_asian	2.6756864305610826	neutral	064	sub-14	1.0	1.0	064_neutral	0.0		149.68022087186637	
8.0	53.20224934807311	pulse	1.0	t		25.0	female	west_asian	2.6756864305610826	neutral	064	sub-14	1.0	1.0	064_neutral	0.0		150.3801566677364	
8.0	53.90224642009912	pulse	1.0	t		25.0	female	west_asian	2.6756864305610826	neutral	064	sub-14	1.0	1.0	064_neutral	0.0		151.0801537397624	
8.0	54.602213608679676	pulse	1.0	t		25.0	female	west_asian	2.6756864305610826	neutral	064	sub-14	1.0	1.0	064_neutral	0.0		151.78012092834297	
9.0	55.01040426868417	face	0.0		146	20.0	male	black	2.609629924393156	smiling	043	sub-14	1.0	1.0	043_smiling	0.0		152.18831158834746	1.2416559534012777
9.0	55.30221852888326	pulse	0.0	t		20.0	male	black	2.609629924393156	smiling	043	sub-14	1.0	1.0	043_smiling	0.0		152.48012584854655	
9.0	56.002182095228136	pulse	0.0	t		20.0	male	black	2.609629924393156	smiling	043	sub-14	1.0	1.0	043_smiling	0.0		153.18008941489143	
9.0	56.25206022208545	fix	1.0		444	20.0	male	black	2.609629924393156	smiling	043	sub-14	1.0	1.0	043_smiling	0.0		153.42996754174874	3.7665496181407434
9.0	56.702161056075056	pulse	1.0	t		20.0	male	black	2.609629924393156	smiling	043	sub-14	1.0	1.0	043_smiling	0.0		153.88006837573835	
9.0	57.40214514842273	pulse	1.0	t		20.0	male	black	2.609629924393156	smiling	043	sub-14	1.0	1.0	043_smiling	0.0		154.58005246808602	
9.0	58.10211807221003	pulse	1.0	t		20.0	male	black	2.609629924393156	smiling	043	sub-14	1.0	1.0	043_smiling	0.0		155.28002539187332	
9.0	58.8021018627046	pulse	1.0	t		20.0	male	black	2.609629924393156	smiling	043	sub-14	1.0	1.0	043_smiling	0.0		155.9800091823679	
9.0	59.50206754202031	pulse	1.0	t		20.0	male	black	2.609629924393156	smiling	043	sub-14	1.0	1.0	043_smiling	0.0		156.6799748616836	
10.0	60.01860984022619	face	0.0		145	21.0	male	black	2.969757262236371	smiling	137	sub-14	1.0	1.0	137_smiling	1.0	dominance	157.19651715988948	1.2333172646929143
10.0	60.2020552566039	pulse	0.0	t		21.0	male	black	2.969757262236371	smiling	137	sub-14	1.0	1.0	137_smiling	1.0	dominance	157.3799625762672	
10.0	60.902141978966256	pulse	0.0	t		21.0	male	black	2.969757262236371	smiling	137	sub-14	1.0	1.0	137_smiling	1.0	dominance	158.08004929862955	
10.0	61.251927104919105	fix	1.0		177	21.0	male	black	2.969757262236371	smiling	137	sub-14	1.0	1.0	137_smiling	1.0	dominance	158.4298344245824	1.4999627211564075
10.0	61.602025856122964	pulse	1.0	t		21.0	male	black	2.969757262236371	smiling	137	sub-14	1.0	1.0	137_smiling	1.0	dominance	158.77993317578625	
10.0	62.30201326885367	pulse	1.0	t		21.0	male	black	2.969757262236371	smiling	137	sub-14	1.0	1.0	137_smiling	1.0	dominance	159.47992058851696	
10.0	62.75188982607551	rating	2.0		294	21.0	male	black	2.969757262236371	smiling	137	sub-14	1.0	1.0	137_smiling	1.0	dominance	159.9297971457388	2.4999234802683077
10.0	63.00198649449385	pulse	2.0	t		21.0	male	black	2.969757262236371	smiling	137	sub-14	1.0	1.0	137_smiling	1.0	dominance	160.17989381415714	
10.0	63.70198205725501	pulse	2.0	t		21.0	male	black	2.969757262236371	smiling	137	sub-14	1.0	1.0	137_smiling	1.0	dominance	160.8798893769183	
10.0	63.99361973345776	response	2.0	b		21.0	male	black	2.969757262236371	smiling	137	sub-14	1.0	1.0	137_smiling	1.0	dominance	161.17152705312105	
10.0	64.40195015139443	pulse	2.0	t		21.0	male	black	2.969757262236371	smiling	137	sub-14	1.0	1.0	137_smiling	1.0	dominance	161.57985747105772	
10.0	65.1019589956868	pulse	2.0	t		21.0	male	black	2.969757262236371	smiling	137	sub-14	1.0	1.0	137_smiling	1.0	dominance	162.2798663153501	
10.0	65.25181330634382	fix	3.0		444	21.0	male	black	2.969757262236371	smiling	137	sub-14	1.0	1.0	137_smiling	1.0	dominance	162.4297206260071	3.7665680311729375
10.0	65.80191833608978	pulse	3.0	t		21.0	male	black	2.969757262236371	smiling	137	sub-14	1.0	1.0	137_smiling	1.0	dominance	162.97982565575307	
10.0	66.5018764690808	pulse	3.0	t		21.0	male	black	2.969757262236371	smiling	137	sub-14	1.0	1.0	137_smiling	1.0	dominance	163.6797837887441	
10.0	67.20188470966741	pulse	3.0	t		21.0	male	black	2.969757262236371	smiling	137	sub-14	1.0	1.0	137_smiling	1.0	dominance	164.3797920293307	
10.0	67.90186125569039	pulse	3.0	t		21.0	male	black	2.969757262236371	smiling	137	sub-14	1.0	1.0	137_smiling	1.0	dominance	165.07976857535368	
10.0	68.60184142394928	pulse	3.0	t		21.0	male	black	2.969757262236371	smiling	137	sub-14	1.0	1.0	137_smiling	1.0	dominance	165.77974874361257	
11.0	69.01838133751676	face	0.0		145	28.0	male	east_asian	1.5563072025467568	neutral	005	sub-14	1.0	1.0	005_neutral	1.0	trustworthiness	166.19628865718005	1.2333112276330667
11.0	69.30183759041643	pulse	0.0	t		28.0	male	east_asian	1.5563072025467568	neutral	005	sub-14	1.0	1.0	005_neutral	1.0	trustworthiness	166.47974491007972	
11.0	70.0018071938207	pulse	0.0	t		28.0	male	east_asian	1.5563072025467568	neutral	005	sub-14	1.0	1.0	005_neutral	1.0	trustworthiness	167.179714513484	
11.0	70.25169256514982	fix	1.0		177	28.0	male	east_asian	1.5563072025467568	neutral	005	sub-14	1.0	1.0	005_neutral	1.0	trustworthiness	167.42959988481311	1.4999624193033014
11.0	70.70178464540277	pulse	1.0	t		28.0	male	east_asian	1.5563072025467568	neutral	005	sub-14	1.0	1.0	005_neutral	1.0	trustworthiness	167.87969196506606	
11.0	71.40176602107363	pulse	1.0	t		28.0	male	east_asian	1.5563072025467568	neutral	005	sub-14	1.0	1.0	005_neutral	1.0	trustworthiness	168.57967334073692	
11.0	71.75165498445313	rating	2.0		294	28.0	male	east_asian	1.5563072025467568	neutral	005	sub-14	1.0	1.0	005_neutral	1.0	trustworthiness	168.92956230411642	2.499931328445882
11.0	72.10174981156842	pulse	2.0	t		28.0	male	east_asian	1.5563072025467568	neutral	005	sub-14	1.0	1.0	005_neutral	1.0	trustworthiness	169.27965713123172	
11.0	72.80173903541686	pulse	2.0	t		28.0	male	east_asian	1.5563072025467568	neutral	005	sub-14	1.0	1.0	005_neutral	1.0	trustworthiness	169.97964635508015	
11.0	73.48811318038042	response	2.0	b		28.0	male	east_asian	1.5563072025467568	neutral	005	sub-14	1.0	1.0	005_neutral	1.0	trustworthiness	170.66602050004371	
11.0	73.50429310407799	pulse	2.0	t		28.0	male	east_asian	1.5563072025467568	neutral	005	sub-14	1.0	1.0	005_neutral	1.0	trustworthiness	170.68220042374128	
11.0	74.20170510714138	pulse	2.0	t		28.0	male	east_asian	1.5563072025467568	neutral	005	sub-14	1.0	1.0	005_neutral	1.0	trustworthiness	171.37961242680467	
11.0	74.25158631289901	fix	3.0		444	28.0	male	east_asian	1.5563072025467568	neutral	005	sub-14	1.0	1.0	005_neutral	1.0	trustworthiness	171.4294936325623	3.766563201525287
11.0	74.90168255872322	pulse	3.0	t		28.0	male	east_asian	1.5563072025467568	neutral	005	sub-14	1.0	1.0	005_neutral	1.0	trustworthiness	172.0795898783865	
11.0	75.60168476225022	pulse	3.0	t		28.0	male	east_asian	1.5563072025467568	neutral	005	sub-14	1.0	1.0	005_neutral	1.0	trustworthiness	172.7795920819135	
11.0	76.30163263223972	pulse	3.0	t		28.0	male	east_asian	1.5563072025467568	neutral	005	sub-14	1.0	1.0	005_neutral	1.0	trustworthiness	173.479539951903	
11.0	77.00162306349989	pulse	3.0	t		28.0	male	east_asian	1.5563072025467568	neutral	005	sub-14	1.0	1.0	005_neutral	1.0	trustworthiness	174.17953038316318	
11.0	77.70161530587825	pulse	3.0	t		28.0	male	east_asian	1.5563072025467568	neutral	005	sub-14	1.0	1.0	005_neutral	1.0	trustworthiness	174.87952262554154	
12.0	78.0181495144243	face	0.0		145	30.0	female	black	2.7345801830481498	neutral	062	sub-14	1.0	1.0	062_neutral	0.0		175.19605683408759	1.2333082091031429
12.0	78.40158611669472	pulse	0.0	t		30.0	female	black	2.7345801830481498	neutral	062	sub-14	1.0	1.0	062_neutral	0.0		175.579493436358	
12.0	79.10155843677603	pulse	0.0	t		30.0	female	black	2.7345801830481498	neutral	062	sub-14	1.0	1.0	062_neutral	0.0		176.27946575643932	
12.0	79.25145772352744	fix	1.0		444	30.0	female	black	2.7345801830481498	neutral	062	sub-14	1.0	1.0	062_neutral	0.0		176.42936504319073	3.7583307650675124
12.0	79.80155430139007	pulse	1.0	t		30.0	female	black	2.7345801830481498	neutral	062	sub-14	1.0	1.0	062_neutral	0.0		176.97946162105336	
12.0	80.50152722517737	pulse	1.0	t		30.0	female	black	2.7345801830481498	neutral	062	sub-14	1.0	1.0	062_neutral	0.0		177.67943454484066	
12.0	81.20151222308391	pulse	1.0	t		30.0	female	black	2.7345801830481498	neutral	062	sub-14	1.0	1.0	062_neutral	0.0		178.3794195427472	
12.0	81.90148092092932	pulse	1.0	t		30.0	female	black	2.7345801830481498	neutral	062	sub-14	1.0	1.0	062_neutral	0.0		179.0793882405926	
12.0	82.60148946336881	pulse	1.0	t		30.0	female	black	2.7345801830481498	neutral	062	sub-14	1.0	1.0	062_neutral	0.0		179.7793967830321	
13.0	83.00978848859495	face	0.0		146	47.0	male	east_asian	2.171110226820533	neutral	024	sub-14	1.0	1.0	024_neutral	0.0		180.18769580825824	1.241530080706525
13.0	83.30143582409346	pulse	0.0	t		47.0	male	east_asian	2.171110226820533	neutral	024	sub-14	1.0	1.0	024_neutral	0.0		180.47934314375675	
13.0	84.00144195170901	pulse	0.0	t		47.0	male	east_asian	2.171110226820533	neutral	024	sub-14	1.0	1.0	024_neutral	0.0		181.1793492713723	
13.0	84.25131856930147	fix	1.0		444	47.0	male	east_asian	2.171110226820533	neutral	024	sub-14	1.0	1.0	024_neutral	0.0		181.42922588896477	3.7665423736691537
13.0	84.70141095140752	pulse	1.0	t		47.0	male	east_asian	2.171110226820533	neutral	024	sub-14	1.0	1.0	024_neutral	0.0		181.87931827107082	
13.0	85.40138115851778	pulse	1.0	t		47.0	male	east_asian	2.171110226820533	neutral	024	sub-14	1.0	1.0	024_neutral	0.0		182.57928847818107	
13.0	86.10138306019167	pulse	1.0	t		47.0	male	east_asian	2.171110226820533	neutral	024	sub-14	1.0	1.0	024_neutral	0.0		183.27929037985496	
13.0	86.80135900250889	pulse	1.0	t		47.0	male	east_asian	2.171110226820533	neutral	024	sub-14	1.0	1.0	024_neutral	0.0		183.97926632217218	
13.0	87.50135215044611	pulse	1.0	t		47.0	male	east_asian	2.171110226820533	neutral	024	sub-14	1.0	1.0	024_neutral	0.0		184.6792594701094	
14.0	88.01786094297063	face	0.0		145	24.0	female	east_asian	4.409868682849185	neutral	030	sub-14	1.0	1.0	030_neutral	0.0		185.19576826263392	1.2333181702517777
14.0	88.20132054643841	pulse	0.0	t		24.0	female	east_asian	4.409868682849185	neutral	030	sub-14	1.0	1.0	030_neutral	0.0		185.3792278661017	
14.0	88.90129528134366	pulse	0.0	t		24.0	female	east_asian	4.409868682849185	neutral	030	sub-14	1.0	1.0	030_neutral	0.0		186.07920260100695	
14.0	89.2511791132224	fix	1.0		444	24.0	female	east_asian	4.409868682849185	neutral	030	sub-14	1.0	1.0	030_neutral	0.0		186.4290864328857	3.7582060997847293
14.0	89.60130352193005	pulse	1.0	t		24.0	female	east_asian	4.409868682849185	neutral	030	sub-14	1.0	1.0	030_neutral	0.0		186.77921084159334	
14.0	90.30126014565622	pulse	1.0	t		24.0	female	east_asian	4.409868682849185	neutral	030	sub-14	1.0	1.0	030_neutral	0.0		187.4791674653195	
14.0	91.00125540656427	pulse	1.0	t		24.0	female	east_asian	4.409868682849185	neutral	030	sub-14	1.0	1.0	030_neutral	0.0		188.17916272622756	
14.0	91.70122229329195	pulse	1.0	t		24.0	female	east_asian	4.409868682849185	neutral	030	sub-14	1.0	1.0	030_neutral	0.0		188.87912961295524	
14.0	92.40121876161197	pulse	1.0	t		24.0	female	east_asian	4.409868682849185	neutral	030	sub-14	1.0	1.0	030_neutral	0.0		189.57912608127526	
15.0	93.00938521300714	face	0.0		146	24.0	female	black	3.0955033824114606	smiling	099	sub-14	1.0	1.0	099_smiling	0.0		190.18729253267043	1.2416740645803657
15.0	93.10121734290306	pulse	0.0	t		24.0	female	black	3.0955033824114606	smiling	099	sub-14	1.0	1.0	099_smiling	0.0		190.27912466256635	
15.0	93.80118966298414	pulse	0.0	t		24.0	female	black	3.0955033824114606	smiling	099	sub-14	1.0	1.0	099_smiling	0.0		190.97909698264743	
15.0	94.2510592775875	fix	1.0		444	24.0	female	black	3.0955033824114606	smiling	099	sub-14	1.0	1.0	099_smiling	0.0		191.4289665972508	3.7665514292586977
15.0	94.50115111635819	pulse	1.0	t		24.0	female	black	3.0955033824114606	smiling	099	sub-14	1.0	1.0	099_smiling	0.0		191.67905843602148	
15.0	95.20113007720511	pulse	1.0	t		24.0	female	black	3.0955033824114606	smiling	099	sub-14	1.0	1.0	099_smiling	0.0		192.3790373968684	
15.0	95.90111296214081	pulse	1.0	t		24.0	female	black	3.0955033824114606	smiling	099	sub-14	1.0	1.0	099_smiling	0.0		193.0790202818041	
15.0	96.60109131928175	pulse	1.0	t		24.0	female	black	3.0955033824114606	smiling	099	sub-14	1.0	1.0	099_smiling	0.0		193.77899863894504	
15.0	97.30109110798458	pulse	1.0	t		24.0	female	black	3.0955033824114606	smiling	099	sub-14	1.0	1.0	099_smiling	0.0		194.47899842764787	
16.0	98.0176107068462	face	0.0		146	20.0	female	white	3.9502586549940313	smiling	091	sub-14	1.0	1.0	091_smiling	0.0		195.1955180265095	1.2333048887203404
16.0	98.00376199375114	pulse	0.0	t		20.0	female	white	3.9502586549940313	smiling	091	sub-14	1.0	1.0	091_smiling	0.0		195.18166931341443	
16.0	98.70103906853001	pulse	0.0	t		20.0	female	white	3.9502586549940313	smiling	091	sub-14	1.0	1.0	091_smiling	0.0		195.8789463881933	
16.0	99.25091559556654	fix	1.0		443	20.0	female	white	3.9502586549940313	smiling	091	sub-14	1.0	1.0	091_smiling	0.0		196.42882291522983	3.7665638052312715
16.0	99.40103644240912	pulse	1.0	t		20.0	female	white	3.9502586549940313	smiling	091	sub-14	1.0	1.0	091_smiling	0.0		196.5789437620724	
16.0	100.1010030272837	pulse	1.0	t		20.0	female	white	3.9502586549940313	smiling	091	sub-14	1.0	1.0	091_smiling	0.0		197.278910346947	
16.0	100.80097202698221	pulse	1.0	t		20.0	female	white	3.9502586549940313	smiling	091	sub-14	1.0	1.0	091_smiling	0.0		197.9788793466455	
16.0	101.50095611932989	pulse	1.0	t		20.0	female	white	3.9502586549940313	smiling	091	sub-14	1.0	1.0	091_smiling	0.0		198.67886343899318	
16.0	102.20094805985514	pulse	1.0	t		20.0	female	white	3.9502586549940313	smiling	091	sub-14	1.0	1.0	091_smiling	0.0		199.37885537951843	
16.0	102.9009252095841	pulse	1.0	t		20.0	female	white	3.9502586549940313	smiling	091	sub-14	1.0	1.0	091_smiling	0.0		200.0788325292474	
17.0	103.01747940079781	face	0.0		146	32.0	male	white	2.389176283326701	neutral	092	sub-14	1.0	1.0	092_neutral	0.0		200.1953867204611	1.233308510956249
17.0	103.60092499828716	pulse	0.0	t		32.0	male	white	2.389176283326701	neutral	092	sub-14	1.0	1.0	092_neutral	0.0		200.77883231795045	
17.0	104.25078791175406	fix	1.0		443	32.0	male	white	2.389176283326701	neutral	092	sub-14	1.0	1.0	092_neutral	0.0		201.42869523141735	3.758367591131673
17.0	104.30089520539741	pulse	1.0	t		32.0	male	white	2.389176283326701	neutral	092	sub-14	1.0	1.0	092_neutral	0.0		201.4788025250607	
17.0	105.00087899589221	pulse	1.0	t		32.0	male	white	2.389176283326701	neutral	092	sub-14	1.0	1.0	092_neutral	0.0		202.1787863155555	
17.0	105.70085886229799	pulse	1.0	t		32.0	male	white	2.389176283326701	neutral	092	sub-14	1.0	1.0	092_neutral	0.0		202.87876618196128	
17.0	106.40084265279279	pulse	1.0	t		32.0	male	white	2.389176283326701	neutral	092	sub-14	1.0	1.0	092_neutral	0.0		203.57874997245608	
17.0	107.10083791370084	pulse	1.0	t		32.0	male	white	2.389176283326701	neutral	092	sub-14	1.0	1.0	092_neutral	0.0		204.27874523336413	
17.0	107.80079695225095	pulse	1.0	t		32.0	male	white	2.389176283326701	neutral	092	sub-14	1.0	1.0	092_neutral	0.0		204.97870427191424	
18.0	108.00915550288573	face	0.0		146	31.0	male	west_asian	1.9538400318344609	smiling	070	sub-14	1.0	1.0	070_smiling	0.0		205.18706282254902	1.2415089509975132
18.0	108.50078406312832	pulse	0.0	t		31.0	male	west_asian	1.9538400318344609	smiling	070	sub-14	1.0	1.0	070_smiling	0.0		205.6786913827916	
18.0	109.20077268327077	pulse	0.0	t		31.0	male	west_asian	1.9538400318344609	smiling	070	sub-14	1.0	1.0	070_smiling	0.0		206.37868000293406	
18.0	109.25066445388325	fix	1.0		444	31.0	male	west_asian	1.9538400318344609	smiling	070	sub-14	1.0	1.0	070_smiling	0.0		206.42857177354654	3.758231153582301
18.0	109.90074772002913	pulse	1.0	t		31.0	male	west_asian	1.9538400318344609	smiling	070	sub-14	1.0	1.0	070_smiling	0.0		207.07865503969242	
18.0	110.60072788828802	pulse	1.0	t		31.0	male	west_asian	1.9538400318344609	smiling	070	sub-14	1.0	1.0	070_smiling	0.0		207.7786352079513	
18.0	111.30073220478562	pulse	1.0	t		31.0	male	west_asian	1.9538400318344609	smiling	070	sub-14	1.0	1.0	070_smiling	0.0		208.4786395244489	
18.0	112.0007120711914	pulse	1.0	t		31.0	male	west_asian	1.9538400318344609	smiling	070	sub-14	1.0	1.0	070_smiling	0.0		209.1786193908547	
18.0	112.70066809121158	pulse	1.0	t		31.0	male	west_asian	1.9538400318344609	smiling	070	sub-14	1.0	1.0	070_smiling	0.0		209.87857541087487	
19.0	113.00889560746555	face	0.0		146	28.0	male	east_asian	1.5563072025467568	smiling	005	sub-14	1.0	1.0	005_smiling	0.0		210.18680292712884	1.2416390496341592
19.0	113.40069112259425	pulse	0.0	t		28.0	male	east_asian	1.5563072025467568	smiling	005	sub-14	1.0	1.0	005_smiling	0.0		210.57859844225754	
19.0	114.1006447277905	pulse	0.0	t		28.0	male	east_asian	1.5563072025467568	smiling	005	sub-14	1.0	1.0	005_smiling	0.0		211.2785520474538	
19.0	114.2505346570997	fix	1.0		444	28.0	male	east_asian	1.5563072025467568	smiling	005	sub-14	1.0	1.0	005_smiling	0.0		211.428441976763	3.766548410728774
19.0	114.80063153681522	pulse	1.0	t		28.0	male	east_asian	1.5563072025467568	smiling	005	sub-14	1.0	1.0	005_smiling	0.0		211.9785388564785	
19.0	115.50060446060229	pulse	1.0	t		28.0	male	east_asian	1.5563072025467568	smiling	005	sub-14	1.0	1.0	005_smiling	0.0		212.67851178026558	
19.0	116.20058915665595	pulse	1.0	t		28.0	male	east_asian	1.5563072025467568	smiling	005	sub-14	1.0	1.0	005_smiling	0.0		213.37849647631924	
19.0	116.90055996747242	pulse	1.0	t		28.0	male	east_asian	1.5563072025467568	smiling	005	sub-14	1.0	1.0	005_smiling	0.0		214.0784672871357	
19.0	117.60056549138199	pulse	1.0	t		28.0	male	east_asian	1.5563072025467568	smiling	005	sub-14	1.0	1.0	005_smiling	0.0		214.77847281104528	
20.0	118.01708306782848	face	0.0		145	20.0	female	white	3.9502586549940313	neutral	091	sub-14	1.0	1.0	091_neutral	0.0		215.19499038749177	1.233317868398899
20.0	118.30054807446481	pulse	0.0	t		20.0	female	white	3.9502586549940313	neutral	091	sub-14	1.0	1.0	091_neutral	0.0		215.4784553941281	
20.0	119.00052009269302	pulse	0.0	t		20.0	female	white	3.9502586549940313	neutral	091	sub-14	1.0	1.0	091_neutral	0.0		216.1784274123563	
20.0	119.25040093622738	fix	1.0		1185	20.0	female	white	3.9502586549940313	neutral	091	sub-14	1.0	1.0	091_neutral	0.0		216.42830825589067	10.016368883666019
20.0	119.70049060165638	pulse	1.0	t		20.0	female	white	3.9502586549940313	neutral	091	sub-14	1.0	1.0	091_neutral	0.0		216.87839792131967	
20.0	120.4004774106811	pulse	1.0	t		20.0	female	white	3.9502586549940313	neutral	091	sub-14	1.0	1.0	091_neutral	0.0		217.5783847303444	
20.0	121.10047025676522	pulse	1.0	t		20.0	female	white	3.9502586549940313	neutral	091	sub-14	1.0	1.0	091_neutral	0.0		218.2783775764285	
20.0	121.80046310284956	pulse	1.0	t		20.0	female	white	3.9502586549940313	neutral	091	sub-14	1.0	1.0	091_neutral	0.0		218.97837042251285	
20.0	122.50041580248671	pulse	1.0	t		20.0	female	white	3.9502586549940313	neutral	091	sub-14	1.0	1.0	091_neutral	0.0		219.67832312215	
20.0	123.2003968763047	pulse	1.0	t		20.0	female	white	3.9502586549940313	neutral	091	sub-14	1.0	1.0	091_neutral	0.0		220.37830419596798	
20.0	123.90037613900449	pulse	1.0	t		20.0	female	white	3.9502586549940313	neutral	091	sub-14	1.0	1.0	091_neutral	0.0		221.07828345866778	
20.0	124.6003560054105	pulse	1.0	t		20.0	female	white	3.9502586549940313	neutral	091	sub-14	1.0	1.0	091_neutral	0.0		221.7782633250738	
20.0	125.30035096446568	pulse	1.0	t		20.0	female	white	3.9502586549940313	neutral	091	sub-14	1.0	1.0	091_neutral	0.0		222.47825828412897	
20.0	126.00033354754851	pulse	1.0	t		20.0	female	white	3.9502586549940313	neutral	091	sub-14	1.0	1.0	091_neutral	0.0		223.1782408672118	
20.0	126.7003137158074	pulse	1.0	t		20.0	female	white	3.9502586549940313	neutral	091	sub-14	1.0	1.0	091_neutral	0.0		223.8782210354707	
20.0	127.40028090438796	pulse	1.0	t		20.0	female	white	3.9502586549940313	neutral	091	sub-14	1.0	1.0	091_neutral	0.0		224.57818822405125	
20.0	128.1002701282364	pulse	1.0	t		20.0	female	white	3.9502586549940313	neutral	091	sub-14	1.0	1.0	091_neutral	0.0		225.27817744789968	
20.0	128.8002463724065	pulse	1.0	t		20.0	female	white	3.9502586549940313	neutral	091	sub-14	1.0	1.0	091_neutral	0.0		225.97815369206978	
21.0	129.2667698198934	face	0.0		145	36.0	female	white	2.7548746518105847	neutral	011	sub-14	1.0	1.0	011_neutral	0.0		226.4446771395567	1.233322396193671
21.0	129.50024525555023	pulse	0.0	t		36.0	female	white	2.7548746518105847	neutral	011	sub-14	1.0	1.0	011_neutral	0.0		226.67815257521352	
21.0	130.20021365154275	pulse	0.0	t		36.0	female	white	2.7548746518105847	neutral	011	sub-14	1.0	1.0	011_neutral	0.0		227.37812097120604	
21.0	130.50009221608707	fix	1.0		444	36.0	female	white	2.7548746518105847	neutral	011	sub-14	1.0	1.0	011_neutral	0.0		227.67799953575036	3.766563805231044
21.0	130.90020770503907	pulse	1.0	t		36.0	female	white	2.7548746518105847	neutral	011	sub-14	1.0	1.0	011_neutral	0.0		228.07811502470236	
21.0	131.60017459176652	pulse	1.0	t		36.0	female	white	2.7548746518105847	neutral	011	sub-14	1.0	1.0	011_neutral	0.0		228.7780819114298	
21.0	132.30016351376207	pulse	1.0	t		36.0	female	white	2.7548746518105847	neutral	011	sub-14	1.0	1.0	011_neutral	0.0		229.47807083342536	
21.0	133.00013221160748	pulse	1.0	t		36.0	female	white	2.7548746518105847	neutral	011	sub-14	1.0	1.0	011_neutral	0.0		230.17803953127077	
21.0	133.70011660580826	pulse	1.0	t		36.0	female	white	2.7548746518105847	neutral	011	sub-14	1.0	1.0	011_neutral	0.0		230.87802392547155	
22.0	134.2666560213181	face	0.0		145	27.0	female	white	3.504576203740549	smiling	144	sub-14	1.0	1.0	144_smiling	0.0		231.4445633409814	1.2333042850143556
22.0	134.4001191111879	pulse	0.0	t		27.0	female	white	3.504576203740549	smiling	144	sub-14	1.0	1.0	144_smiling	0.0		231.5780264308512	
22.0	135.1000669811774	pulse	0.0	t		27.0	female	white	3.504576203740549	smiling	144	sub-14	1.0	1.0	144_smiling	0.0		232.2779743008407	
22.0	135.49996030633247	fix	1.0		444	27.0	female	white	3.504576203740549	smiling	144	sub-14	1.0	1.0	144_smiling	0.0		232.67786762599576	3.7665659182021045
22.0	135.80008397550046	pulse	1.0	t		27.0	female	white	3.504576203740549	smiling	144	sub-14	1.0	1.0	144_smiling	0.0		232.97799129516375	
22.0	136.5000623326414	pulse	1.0	t		27.0	female	white	3.504576203740549	smiling	144	sub-14	1.0	1.0	144_smiling	0.0		233.67796965230468	
22.0	137.2000491416661	pulse	1.0	t		27.0	female	white	3.504576203740549	smiling	144	sub-14	1.0	1.0	144_smiling	0.0		234.3779564613294	
22.0	137.90001300986364	pulse	1.0	t		27.0	female	white	3.504576203740549	smiling	144	sub-14	1.0	1.0	144_smiling	0.0		235.07792032952693	
22.0	138.59998925403374	pulse	1.0	t		27.0	female	white	3.504576203740549	smiling	144	sub-14	1.0	1.0	144_smiling	0.0		235.77789657369703	
23.0	139.26652622453457	face	0.0		145	34.0	male	white	2.651014723438122	smiling	121	sub-14	1.0	1.0	121_smiling	0.0		236.44443354419786	1.23331545357496
23.0	139.29999175941362	pulse	0.0	t		34.0	male	white	2.651014723438122	smiling	121	sub-14	1.0	1.0	121_smiling	0.0		236.4778990790769	
23.0	139.99995291093455	pulse	0.0	t		34.0	male	white	2.651014723438122	smiling	121	sub-14	1.0	1.0	121_smiling	0.0		237.17786023059784	
23.0	140.49984167810953	fix	1.0		443	34.0	male	white	2.651014723438122	smiling	121	sub-14	1.0	1.0	121_smiling	0.0		237.67774899777282	3.7582151553742733
23.0	140.69995813299101	pulse	1.0	t		34.0	male	white	2.651014723438122	smiling	121	sub-14	1.0	1.0	121_smiling	0.0		237.8778654526543	
23.0	141.39992290674763	pulse	1.0	t		34.0	male	white	2.651014723438122	smiling	121	sub-14	1.0	1.0	121_smiling	0.0		238.57783022641092	
23.0	142.09992511027463	pulse	1.0	t		34.0	male	white	2.651014723438122	smiling	121	sub-14	1.0	1.0	121_smiling	0.0		239.27783242993792	
23.0	142.79988928032526	pulse	1.0	t		34.0	male	white	2.651014723438122	smiling	121	sub-14	1.0	1.0	121_smiling	0.0		239.97779659998855	
23.0	143.49986914673104	pulse	1.0	t		34.0	male	white	2.651014723438122	smiling	121	sub-14	1.0	1.0	121_smiling	0.0		240.67777646639433	
23.0	144.1998755761997	pulse	1.0	t		34.0	male	white	2.651014723438122	smiling	121	sub-14	1.0	1.0	121_smiling	0.0		241.377782895863	
24.0	144.2580568334838	face	0.0		147	22.0	female	white	4.614007162753682	smiling	009	sub-14	1.0	1.0	009_smiling	0.0		241.4359641531471	1.2416345218391598
24.0	144.8998623852242	pulse	0.0	t		22.0	female	white	4.614007162753682	smiling	009	sub-14	1.0	1.0	009_smiling	0.0		242.0777697048875	
24.0	145.49969135532297	fix	1.0		443	22.0	female	white	4.614007162753682	smiling	009	sub-14	1.0	1.0	009_smiling	0.0		242.67759867498626	3.766573766379679
24.0	145.59981629227354	pulse	1.0	t		22.0	female	white	4.614007162753682	smiling	009	sub-14	1.0	1.0	009_smiling	0.0		242.77772361193684	
24.0	146.29979495126736	pulse	1.0	t		22.0	female	white	4.614007162753682	smiling	009	sub-14	1.0	1.0	009_smiling	0.0		243.47770227093065	
24.0	146.99977089358458	pulse	1.0	t		22.0	female	white	4.614007162753682	smiling	009	sub-14	1.0	1.0	009_smiling	0.0		244.17767821324787	
24.0	147.69974683590158	pulse	1.0	t		22.0	female	white	4.614007162753682	smiling	009	sub-14	1.0	1.0	009_smiling	0.0		244.87765415556487	
24.0	148.3997336449263	pulse	1.0	t		22.0	female	white	4.614007162753682	smiling	009	sub-14	1.0	1.0	009_smiling	0.0		245.5776409645896	
24.0	149.0997307169523	pulse	1.0	t		22.0	female	white	4.614007162753682	smiling	009	sub-14	1.0	1.0	009_smiling	0.0		246.2776380366156	
25.0	149.26626512170265	face	0.0		146	27.0	male	black	3.5523278949462798	neutral	042	sub-14	1.0	1.0	042_neutral	0.0		246.44417244136594	1.2333124350450362
25.0	149.7996963962678	pulse	0.0	t		27.0	male	black	3.5523278949462798	neutral	042	sub-14	1.0	1.0	042_neutral	0.0		246.97760371593108	
25.0	150.49957755674768	fix	1.0		444	27.0	male	black	3.5523278949462798	neutral	042	sub-14	1.0	1.0	042_neutral	0.0		247.67748487641097	3.7665438829342293
25.0	150.50706924598035	pulse	1.0	t		27.0	male	black	3.5523278949462798	neutral	042	sub-14	1.0	1.0	042_neutral	0.0		247.68497656564364	
25.0	151.1996630716983	pulse	1.0	t		27.0	male	black	3.5523278949462798	neutral	042	sub-14	1.0	1.0	042_neutral	0.0		248.3775703913616	
25.0	151.89961667689454	pulse	1.0	t		27.0	male	black	3.5523278949462798	neutral	042	sub-14	1.0	1.0	042_neutral	0.0		249.07752399655783	
25.0	152.599647556455	pulse	1.0	t		27.0	male	black	3.5523278949462798	neutral	042	sub-14	1.0	1.0	042_neutral	0.0		249.7775548761183	
25.0	153.29960448203406	pulse	1.0	t		27.0	male	black	3.5523278949462798	neutral	042	sub-14	1.0	1.0	042_neutral	0.0		250.47751180169735	
25.0	153.9995653317019	pulse	1.0	t		27.0	male	black	3.5523278949462798	neutral	042	sub-14	1.0	1.0	042_neutral	0.0		251.17747265136518	
26.0	154.2661214396819	face	0.0		145	40.0	female	west_asian	1.5777954635893354	neutral	038	sub-14	1.0	1.0	038_neutral	0.0		251.4440287593452	1.2333257165762461
26.0	154.69956995005236	pulse	0.0	t		40.0	female	west_asian	1.5777954635893354	neutral	038	sub-14	1.0	1.0	038_neutral	0.0		251.87747726971565	
26.0	155.39956822949057	pulse	0.0	t		40.0	female	west_asian	1.5777954635893354	neutral	038	sub-14	1.0	1.0	038_neutral	0.0		252.57747554915386	
26.0	155.49944715625816	fix	1.0		444	40.0	female	west_asian	1.5777954635893354	neutral	038	sub-14	1.0	1.0	038_neutral	0.0		252.67735447592145	3.758220588728136
26.0	156.09990488612448	pulse	1.0	t		40.0	female	west_asian	1.5777954635893354	neutral	038	sub-14	1.0	1.0	038_neutral	0.0		253.27781220578777	
26.0	156.79956961801417	pulse	1.0	t		40.0	female	west_asian	1.5777954635893354	neutral	038	sub-14	1.0	1.0	038_neutral	0.0		253.97747693767747	
26.0	157.49948790641133	pulse	1.0	t		40.0	female	west_asian	1.5777954635893354	neutral	038	sub-14	1.0	1.0	038_neutral	0.0		254.67739522607462	
26.0	158.1994750172887	pulse	1.0	t		40.0	female	west_asian	1.5777954635893354	neutral	038	sub-14	1.0	1.0	038_neutral	0.0		255.377382336952	
26.0	158.8994663541082	pulse	1.0	t		40.0	female	west_asian	1.5777954635893354	neutral	038	sub-14	1.0	1.0	038_neutral	0.0		256.0773736737715	
27.0	159.2576677449863	face	0.0		146	22.0	female	west_asian	3.8205332272184642	smiling	066	sub-14	1.0	1.0	066_smiling	0.0		256.4355750646496	1.241647199664385
27.0	159.5994422964252	pulse	0.0	t		22.0	female	west_asian	3.8205332272184642	smiling	066	sub-14	1.0	1.0	066_smiling	0.0		256.7773496160885	
27.0	160.29941401280053	pulse	0.0	t		22.0	female	west_asian	3.8205332272184642	smiling	066	sub-14	1.0	1.0	066_smiling	0.0		257.4773213324638	
27.0	160.49931494465068	fix	1.0		444	22.0	female	west_asian	3.8205332272184642	smiling	066	sub-14	1.0	1.0	066_smiling	0.0		257.67722226431397	3.758345555863798
27.0	160.9993941810592	pulse	1.0	t		22.0	female	west_asian	3.8205332272184642	smiling	066	sub-14	1.0	1.0	066_smiling	0.0		258.1773015007225	
27.0	161.69937253820012	pulse	1.0	t		22.0	female	west_asian	3.8205332272184642	smiling	066	sub-14	1.0	1.0	066_smiling	0.0		258.8772798578634	
27.0	162.39935995093106	pulse	1.0	t		22.0	female	west_asian	3.8205332272184642	smiling	066	sub-14	1.0	1.0	066_smiling	0.0		259.57726727059435	
27.0	163.0993446469845	pulse	1.0	t		22.0	female	west_asian	3.8205332272184642	smiling	066	sub-14	1.0	1.0	066_smiling	0.0		260.2772519666478	
27.0	163.7993214948608	pulse	1.0	t		22.0	female	west_asian	3.8205332272184642	smiling	066	sub-14	1.0	1.0	066_smiling	0.0		260.9772288145241	
28.0	164.25766050051448	face	0.0		146	25.0	female	black	3.858336649423	smiling	126	sub-14	1.0	1.0	126_smiling	0.0		261.43556782017777	1.241507743585771
28.0	164.4993104168559	pulse	0.0	t		25.0	female	black	3.858336649423	smiling	126	sub-14	1.0	1.0	126_smiling	0.0		261.6772177365192	
28.0	165.19929782958638	pulse	0.0	t		25.0	female	black	3.858336649423	smiling	126	sub-14	1.0	1.0	126_smiling	0.0		262.3772051492497	
28.0	165.49916824410025	fix	1.0		445	25.0	female	black	3.858336649423	smiling	126	sub-14	1.0	1.0	126_smiling	0.0		262.67707556376354	3.766632024005503
28.0	165.89928373305224	pulse	1.0	t		25.0	female	black	3.858336649423	smiling	126	sub-14	1.0	1.0	126_smiling	0.0		263.07719105271553	
28.0	166.5992723531947	pulse	1.0	t		25.0	female	black	3.858336649423	smiling	126	sub-14	1.0	1.0	126_smiling	0.0		263.777179672858	
28.0	167.29923410842162	pulse	1.0	t		25.0	female	black	3.858336649423	smiling	126	sub-14	1.0	1.0	126_smiling	0.0		264.4771414280849	
28.0	167.9992100507386	pulse	1.0	t		25.0	female	black	3.858336649423	smiling	126	sub-14	1.0	1.0	126_smiling	0.0		265.1771173704019	
28.0	168.69918870973265	pulse	1.0	t		25.0	female	black	3.858336649423	smiling	126	sub-14	1.0	1.0	126_smiling	0.0		265.87709602939594	
29.0	169.26580026810575	face	0.0		146	22.0	male	black	2.767608436132113	smiling	044	sub-14	1.0	1.0	044_smiling	0.0		266.44370758776904	1.24158199941985
29.0	169.39917823543396	pulse	0.0	t		22.0	male	black	2.767608436132113	smiling	044	sub-14	1.0	1.0	044_smiling	0.0		266.57708555509726	
29.0	170.09916927040035	pulse	0.0	t		22.0	male	black	2.767608436132113	smiling	044	sub-14	1.0	1.0	044_smiling	0.0		267.27707659006364	
29.0	170.5073822675256	fix	1.0		444	22.0	male	black	2.767608436132113	smiling	044	sub-14	1.0	1.0	044_smiling	0.0		267.6852895871889	3.758284883414035
29.0	170.7991708702209	pulse	1.0	t		22.0	male	black	2.767608436132113	smiling	044	sub-14	1.0	1.0	044_smiling	0.0		267.9770781898842	
29.0	171.49911360870988	pulse	1.0	t		22.0	male	black	2.767608436132113	smiling	044	sub-14	1.0	1.0	044_smiling	0.0		268.67702092837317	
29.0	172.199128188209	pulse	1.0	t		22.0	male	black	2.767608436132113	smiling	044	sub-14	1.0	1.0	044_smiling	0.0		269.3770355078723	
29.0	172.89908360452296	pulse	1.0	t		22.0	male	black	2.767608436132113	smiling	044	sub-14	1.0	1.0	044_smiling	0.0		270.07699092418625	
29.0	173.59909154325646	pulse	1.0	t		22.0	male	black	2.767608436132113	smiling	044	sub-14	1.0	1.0	044_smiling	0.0		270.77699886291975	
30.0	174.26566715093963	face	0.0		146	31.0	female	white	2.1822522881018704	smiling	102	sub-14	1.0	1.0	102_smiling	1.0	trustworthiness	271.4435744706029	1.241572340124094
30.0	174.2990768430161	pulse	0.0	t		31.0	female	white	2.1822522881018704	smiling	102	sub-14	1.0	1.0	102_smiling	1.0	trustworthiness	271.4769841626794	
30.0	174.99903105191856	pulse	0.0	t		31.0	female	white	2.1822522881018704	smiling	102	sub-14	1.0	1.0	102_smiling	1.0	trustworthiness	272.17693837158185	
30.0	175.50723949106373	fix	1.0		177	31.0	female	white	2.1822522881018704	smiling	102	sub-14	1.0	1.0	102_smiling	1.0	trustworthiness	272.685146810727	1.4999624193037562
30.0	175.69901755909018	pulse	1.0	t		31.0	female	white	2.1822522881018704	smiling	102	sub-14	1.0	1.0	102_smiling	1.0	trustworthiness	272.87692487875347	
30.0	176.39898655878847	pulse	1.0	t		31.0	female	white	2.1822522881018704	smiling	102	sub-14	1.0	1.0	102_smiling	1.0	trustworthiness	273.57689387845176	
30.0	177.00720191036748	rating	2.0		294	31.0	female	white	2.1822522881018704	smiling	102	sub-14	1.0	1.0	102_smiling	1.0	trustworthiness	274.1851092300308	2.499947628507016
30.0	177.09899178084538	pulse	2.0	t		31.0	female	white	2.1822522881018704	smiling	102	sub-14	1.0	1.0	102_smiling	1.0	trustworthiness	274.2768991005087	
30.0	177.79897376022177	pulse	2.0	t		31.0	female	white	2.1822522881018704	smiling	102	sub-14	1.0	1.0	102_smiling	1.0	trustworthiness	274.97688107988506	
30.0	178.33533995135963	response	2.0	e		31.0	female	white	2.1822522881018704	smiling	102	sub-14	1.0	1.0	102_smiling	1.0	trustworthiness	275.5132472710229	
30.0	178.49896811557096	pulse	2.0	t		31.0	female	white	2.1822522881018704	smiling	102	sub-14	1.0	1.0	102_smiling	1.0	trustworthiness	275.67687543523425	
30.0	179.1989184003844	pulse	2.0	t		31.0	female	white	2.1822522881018704	smiling	102	sub-14	1.0	1.0	102_smiling	1.0	trustworthiness	276.3768257200477	
30.0	179.5071495388745	fix	3.0		444	31.0	female	white	2.1822522881018704	smiling	102	sub-14	1.0	1.0	102_smiling	1.0	trustworthiness	276.6850568585378	3.758280053766157
30.0	179.8989030964383	pulse	3.0	t		31.0	female	white	2.1822522881018704	smiling	102	sub-14	1.0	1.0	102_smiling	1.0	trustworthiness	277.0768104161016	
30.0	180.59889111287453	pulse	3.0	t		31.0	female	white	2.1822522881018704	smiling	102	sub-14	1.0	1.0	102_smiling	1.0	trustworthiness	277.7767984325378	
30.0	181.2988616218379	pulse	3.0	t		31.0	female	white	2.1822522881018704	smiling	102	sub-14	1.0	1.0	102_smiling	1.0	trustworthiness	278.4767689415012	
30.0	181.99884269565587	pulse	3.0	t		31.0	female	white	2.1822522881018704	smiling	102	sub-14	1.0	1.0	102_smiling	1.0	trustworthiness	279.17675001531916	
30.0	182.69881863797286	pulse	3.0	t		31.0	female	white	2.1822522881018704	smiling	102	sub-14	1.0	1.0	102_smiling	1.0	trustworthiness	279.87672595763615	
31.0	183.26542959264066	face	0.0		146	28.0	male	white	3.9076800636689217	neutral	033	sub-14	1.0	1.0	033_neutral	0.0		280.44333691230395	1.2415856216553038
31.0	183.39882687855948	pulse	0.0	t		28.0	male	white	3.9076800636689217	neutral	033	sub-14	1.0	1.0	033_neutral	0.0		280.57673419822277	
31.0	184.09879316158117	pulse	0.0	t		28.0	male	white	3.9076800636689217	neutral	033	sub-14	1.0	1.0	033_neutral	0.0		281.27670048124446	
31.0	184.50701521429596	fix	1.0		444	28.0	male	white	3.9076800636689217	neutral	033	sub-14	1.0	1.0	033_neutral	0.0		281.68492253395925	3.758255301821464
31.0	184.79879415769597	pulse	1.0	t		28.0	male	white	3.9076800636689217	neutral	033	sub-14	1.0	1.0	033_neutral	0.0		281.97670147735926	
31.0	185.49876013886455	pulse	1.0	t		28.0	male	white	3.9076800636689217	neutral	033	sub-14	1.0	1.0	033_neutral	0.0		282.67666745852785	
31.0	186.19872159223837	pulse	1.0	t		28.0	male	white	3.9076800636689217	neutral	033	sub-14	1.0	1.0	033_neutral	0.0		283.37662891190166	
31.0	186.89871896611726	pulse	1.0	t		28.0	male	white	3.9076800636689217	neutral	033	sub-14	1.0	1.0	033_neutral	0.0		284.07662628578055	
31.0	187.5986979269644	pulse	1.0	t		28.0	male	white	3.9076800636689217	neutral	033	sub-14	1.0	1.0	033_neutral	0.0		284.7766052466277	
32.0	188.26527051611743	face	0.0		146	23.0	male	white	2.6275368085953046	smiling	141	sub-14	1.0	1.0	141_smiling	0.0		285.4431778357807	1.2416167125129505
32.0	188.29869650825526	pulse	0.0	t		23.0	male	white	2.6275368085953046	smiling	141	sub-14	1.0	1.0	141_smiling	0.0		285.47660382791855	
32.0	188.9986618857181	pulse	0.0	t		23.0	male	white	2.6275368085953046	smiling	141	sub-14	1.0	1.0	141_smiling	0.0		286.1765692053814	
32.0	189.50688722863038	fix	1.0		443	23.0	male	white	2.6275368085953046	smiling	141	sub-14	1.0	1.0	141_smiling	0.0		286.68479454829367	3.758273714853658
32.0	189.69866801333342	pulse	1.0	t		23.0	male	white	2.6275368085953046	smiling	141	sub-14	1.0	1.0	141_smiling	0.0		286.8765753329967	
32.0	190.39862916485458	pulse	1.0	t		23.0	male	white	2.6275368085953046	smiling	141	sub-14	1.0	1.0	141_smiling	0.0		287.5765364845179	
32.0	191.09863016096938	pulse	1.0	t		23.0	male	white	2.6275368085953046	smiling	141	sub-14	1.0	1.0	141_smiling	0.0		288.27653748063267	
32.0	191.79858467172448	pulse	1.0	t		23.0	male	white	2.6275368085953046	smiling	141	sub-14	1.0	1.0	141_smiling	0.0		288.9764919913878	
32.0	192.49858264930958	pulse	1.0	t		23.0	male	white	2.6275368085953046	smiling	141	sub-14	1.0	1.0	141_smiling	0.0		289.6764899689729	
32.0	193.19855134715476	pulse	1.0	t		23.0	male	white	2.6275368085953046	smiling	141	sub-14	1.0	1.0	141_smiling	0.0		290.37645866681805	
33.0	193.26516094348403	face	0.0		147	26.0	male	white	2.7966573816155993	neutral	117	sub-14	1.0	1.0	117_neutral	0.0		290.4430682631473	1.2415916587151514
33.0	193.89853574135554	pulse	0.0	t		26.0	male	white	2.7966573816155993	neutral	117	sub-14	1.0	1.0	117_neutral	0.0		291.07644306101884	
33.0	194.50675260219919	fix	1.0		443	26.0	male	white	2.7966573816155993	neutral	117	sub-14	1.0	1.0	117_neutral	0.0		291.6846599218625	3.7582217961398783
33.0	194.59851741887928	pulse	1.0	t		26.0	male	white	2.7966573816155993	neutral	117	sub-14	1.0	1.0	117_neutral	0.0		291.7764247385426	
33.0	195.29850302049203	pulse	1.0	t		26.0	male	white	2.7966573816155993	neutral	117	sub-14	1.0	1.0	117_neutral	0.0		292.4764103401553	
33.0	195.998480170221	pulse	1.0	t		26.0	male	white	2.7966573816155993	neutral	117	sub-14	1.0	1.0	117_neutral	0.0		293.1763874898843	
33.0	196.6984594329208	pulse	1.0	t		26.0	male	white	2.7966573816155993	neutral	117	sub-14	1.0	1.0	117_neutral	0.0		293.8763667525841	
33.0	197.39843809191484	pulse	1.0	t		26.0	male	white	2.7966573816155993	neutral	117	sub-14	1.0	1.0	117_neutral	0.0		294.57634541157813	
33.0	198.09842580649843	pulse	1.0	t		26.0	male	white	2.7966573816155993	neutral	117	sub-14	1.0	1.0	117_neutral	0.0		295.2763331261617	
34.0	198.26497439833906	face	0.0		147	22.0	female	west_asian	3.8205332272184642	neutral	066	sub-14	1.0	1.0	066_neutral	1.0	attractiveness	295.44288171800235	1.2499819642844159
34.0	198.7984213692596	pulse	0.0	t		22.0	female	west_asian	3.8205332272184642	neutral	066	sub-14	1.0	1.0	066_neutral	1.0	attractiveness	295.9763286889229	
34.0	199.49839097266408	pulse	0.0	t		22.0	female	west_asian	3.8205332272184642	neutral	066	sub-14	1.0	1.0	066_neutral	1.0	attractiveness	296.6762982923274	
34.0	199.51495636262348	fix	1.0		176	22.0	female	west_asian	3.8205332272184642	neutral	066	sub-14	1.0	1.0	066_neutral	1.0	attractiveness	296.69286368228677	1.4916273528306192
34.0	200.19837446130555	pulse	1.0	t		22.0	female	west_asian	3.8205332272184642	neutral	066	sub-14	1.0	1.0	066_neutral	1.0	attractiveness	297.37628178096884	
34.0	200.898363081448	pulse	1.0	t		22.0	female	west_asian	3.8205332272184642	neutral	066	sub-14	1.0	1.0	066_neutral	1.0	attractiveness	298.0762704011113	
34.0	201.0065837154541	rating	2.0		295	22.0	female	west_asian	3.8205332272184642	neutral	066	sub-14	1.0	1.0	066_neutral	1.0	attractiveness	298.1844910351174	2.4999307247398974
34.0	201.5983399293243	pulse	2.0	t		22.0	female	west_asian	3.8205332272184642	neutral	066	sub-14	1.0	1.0	066_neutral	1.0	attractiveness	298.7762472489876	
34.0	202.17331734317463	response	2.0	y		22.0	female	west_asian	3.8205332272184642	neutral	066	sub-14	1.0	1.0	066_neutral	1.0	attractiveness	299.3512246628379	
34.0	202.29830138269813	pulse	2.0	t		22.0	female	west_asian	3.8205332272184642	neutral	066	sub-14	1.0	1.0	066_neutral	1.0	attractiveness	299.4762087023614	
34.0	202.9982854750458	pulse	2.0	t		22.0	female	west_asian	3.8205332272184642	neutral	066	sub-14	1.0	1.0	066_neutral	1.0	attractiveness	300.1761927947091	
34.0	203.506514440194	fix	3.0		443	22.0	female	west_asian	3.8205332272184642	neutral	066	sub-14	1.0	1.0	066_neutral	1.0	attractiveness	300.6844217598573	3.7582408128782845
34.0	203.69826926554038	pulse	3.0	t		22.0	female	west_asian	3.8205332272184642	neutral	066	sub-14	1.0	1.0	066_neutral	1.0	attractiveness	300.87617658520367	
34.0	204.39825999865366	pulse	3.0	t		22.0	female	west_asian	3.8205332272184642	neutral	066	sub-14	1.0	1.0	066_neutral	1.0	attractiveness	301.57616731831695	
34.0	205.09824801509035	pulse	3.0	t		22.0	female	west_asian	3.8205332272184642	neutral	066	sub-14	1.0	1.0	066_neutral	1.0	attractiveness	302.27615533475364	
34.0	205.79823271114378	pulse	3.0	t		22.0	female	west_asian	3.8205332272184642	neutral	066	sub-14	1.0	1.0	066_neutral	1.0	attractiveness	302.9761400308071	
34.0	206.49821438866798	pulse	3.0	t		22.0	female	west_asian	3.8205332272184642	neutral	066	sub-14	1.0	1.0	066_neutral	1.0	attractiveness	303.67612170833127	
34.0	207.19819455692664	pulse	3.0	t		22.0	female	west_asian	3.8205332272184642	neutral	066	sub-14	1.0	1.0	066_neutral	1.0	attractiveness	304.3761018765899	
35.0	207.26475525307228	face	0.0		147	40.0	male	white	1.868682849184242	smiling	172	sub-14	1.0	1.0	172_smiling	0.0		304.44266257273557	1.241626975514464
35.0	207.89816778256704	pulse	0.0	t		40.0	male	white	1.868682849184242	smiling	172	sub-14	1.0	1.0	172_smiling	0.0		305.07607510223033	
35.0	208.50638222858674	fix	1.0		443	40.0	male	white	1.868682849184242	smiling	172	sub-14	1.0	1.0	172_smiling	0.0		305.68428954825004	3.7665520329646824
35.0	208.5981630434751	pulse	1.0	t		40.0	male	white	1.868682849184242	smiling	172	sub-14	1.0	1.0	172_smiling	0.0		305.7760703631384	
35.0	209.29813717467437	pulse	1.0	t		40.0	male	white	1.868682849184242	smiling	172	sub-14	1.0	1.0	172_smiling	0.0		306.47604449433766	
35.0	209.99810406140182	pulse	1.0	t		40.0	male	white	1.868682849184242	smiling	172	sub-14	1.0	1.0	172_smiling	0.0		307.1760113810651	
35.0	210.69810717048745	pulse	1.0	t		40.0	male	white	1.868682849184242	smiling	172	sub-14	1.0	1.0	172_smiling	0.0		307.87601449015074	
35.0	211.39807586833308	pulse	1.0	t		40.0	male	white	1.868682849184242	smiling	172	sub-14	1.0	1.0	172_smiling	0.0		308.57598318799637	
35.0	212.09806629959326	pulse	1.0	t		40.0	male	white	1.868682849184242	smiling	172	sub-14	1.0	1.0	172_smiling	0.0		309.27597361925655	
36.0	212.27293426155143	face	0.0		146	40.0	male	black	2.408674890569041	neutral	061	sub-14	1.0	1.0	061_neutral	0.0		309.4508415812147	1.241643275575825
36.0	212.79803741226283	pulse	0.0	t		40.0	male	black	2.408674890569041	neutral	061	sub-14	1.0	1.0	061_neutral	0.0		309.9759447319261	
36.0	213.49801003419702	pulse	0.0	t		40.0	male	black	2.408674890569041	neutral	061	sub-14	1.0	1.0	061_neutral	0.0		310.6759173538603	
36.0	213.51457753712725	fix	1.0		443	40.0	male	black	2.408674890569041	neutral	061	sub-14	1.0	1.0	061_neutral	0.0		310.69248485679054	3.749976983709985
36.0	214.19800831363477	pulse	1.0	t		40.0	male	black	2.408674890569041	neutral	061	sub-14	1.0	1.0	061_neutral	0.0		311.37591563329806	
36.0	214.89798727448192	pulse	1.0	t		40.0	male	black	2.408674890569041	neutral	061	sub-14	1.0	1.0	061_neutral	0.0		312.0758945941452	
36.0	215.59797287609467	pulse	1.0	t		40.0	male	black	2.408674890569041	neutral	061	sub-14	1.0	1.0	061_neutral	0.0		312.77588019575796	
36.0	216.29795908141318	pulse	1.0	t		40.0	male	black	2.408674890569041	neutral	061	sub-14	1.0	1.0	061_neutral	0.0		313.4758664010765	
36.0	216.9979356274364	pulse	1.0	t		40.0	male	black	2.408674890569041	neutral	061	sub-14	1.0	1.0	061_neutral	0.0		314.1758429470997	
37.0	217.26455452083724	face	0.0		146	54.0	female	white	2.286908077994429	smiling	136	sub-14	1.0	1.0	136_smiling	0.0		314.4424618405005	1.241566001211595
37.0	217.69792243646066	pulse	0.0	t		54.0	female	white	2.286908077994429	smiling	136	sub-14	1.0	1.0	136_smiling	0.0		314.87582975612395	
37.0	218.39789505839485	pulse	0.0	t		54.0	female	white	2.286908077994429	smiling	136	sub-14	1.0	1.0	136_smiling	0.0		315.57580237805814	
37.0	218.50612052204883	fix	1.0		444	54.0	female	white	2.286908077994429	smiling	136	sub-14	1.0	1.0	136_smiling	0.0		315.6840278417121	3.7582510758793433
37.0	219.0978960545101	pulse	1.0	t		54.0	female	white	2.286908077994429	smiling	136	sub-14	1.0	1.0	136_smiling	0.0		316.2758033741734	
37.0	219.79785962085475	pulse	1.0	t		54.0	female	white	2.286908077994429	smiling	136	sub-14	1.0	1.0	136_smiling	0.0		316.97576694051804	
37.0	220.49780356675524	pulse	1.0	t		54.0	female	white	2.286908077994429	smiling	136	sub-14	1.0	1.0	136_smiling	0.0		317.6757108864185	
37.0	221.19781301475382	pulse	1.0	t		54.0	female	white	2.286908077994429	smiling	136	sub-14	1.0	1.0	136_smiling	0.0		318.3757203344171	
37.0	221.89781612383945	pulse	1.0	t		54.0	female	white	2.286908077994429	smiling	136	sub-14	1.0	1.0	136_smiling	0.0		319.07572344350274	
38.0	222.26437159792818	face	0.0		146	27.0	female	white	4.181058495821727	neutral	039	sub-14	1.0	1.0	039_neutral	0.0		319.44227891759147	1.2416100717473455
38.0	222.59778059574296	pulse	0.0	t		27.0	female	white	4.181058495821727	neutral	039	sub-14	1.0	1.0	039_neutral	0.0		319.77568791540625	
38.0	223.29777193256245	pulse	0.0	t		27.0	female	white	4.181058495821727	neutral	039	sub-14	1.0	1.0	039_neutral	0.0		320.47567925222575	
38.0	223.50598166967552	fix	1.0		444	27.0	female	white	4.181058495821727	neutral	039	sub-14	1.0	1.0	039_neutral	0.0		320.6838889893388	3.758260131469342
38.0	223.99776115641112	pulse	1.0	t		27.0	female	white	4.181058495821727	neutral	039	sub-14	1.0	1.0	039_neutral	0.0		321.1756684760744	
38.0	224.6977398154047	pulse	1.0	t		27.0	female	white	4.181058495821727	neutral	039	sub-14	1.0	1.0	039_neutral	0.0		321.875647135068	
38.0	225.39771122992738	pulse	1.0	t		27.0	female	white	4.181058495821727	neutral	039	sub-14	1.0	1.0	039_neutral	0.0		322.5756185495907	
38.0	226.0977073963943	pulse	1.0	t		27.0	female	white	4.181058495821727	neutral	039	sub-14	1.0	1.0	039_neutral	0.0		323.2756147160576	
38.0	226.79766794420925	pulse	1.0	t		27.0	female	white	4.181058495821727	neutral	039	sub-14	1.0	1.0	039_neutral	0.0		323.97557526387254	
39.0	227.26424180114486	face	0.0		146	40.0	male	white	1.868682849184242	neutral	172	sub-14	1.0	1.0	172_neutral	0.0		324.44214912080815	1.2416139958363601
39.0	227.49766139399958	pulse	0.0	t		40.0	male	white	1.868682849184242	neutral	172	sub-14	1.0	1.0	172_neutral	0.0		324.67556871366287	
39.0	228.1976364307577	pulse	0.0	t		40.0	male	white	1.868682849184242	neutral	172	sub-14	1.0	1.0	172_neutral	0.0		325.375543750421	
39.0	228.50585579698122	fix	1.0		444	40.0	male	white	1.868682849184242	neutral	172	sub-14	1.0	1.0	172_neutral	0.0		325.6837631166445	3.749903029728557
39.0	228.89762173051736	pulse	1.0	t		40.0	male	white	1.868682849184242	neutral	172	sub-14	1.0	1.0	172_neutral	0.0		326.07552905018065	
39.0	229.59759133392186	pulse	1.0	t		40.0	male	white	1.868682849184242	neutral	172	sub-14	1.0	1.0	172_neutral	0.0		326.77549865358515	
39.0	230.29757904850499	pulse	1.0	t		40.0	male	white	1.868682849184242	neutral	172	sub-14	1.0	1.0	172_neutral	0.0		327.4754863681683	
39.0	230.99757340385418	pulse	1.0	t		40.0	male	white	1.868682849184242	neutral	172	sub-14	1.0	1.0	172_neutral	0.0		328.17548072351747	
39.0	231.69754421467064	pulse	1.0	t		40.0	male	white	1.868682849184242	neutral	172	sub-14	1.0	1.0	172_neutral	0.0		328.87545153433393	
40.0	232.25575882670978	fix	0.0		720													329.43366614637307	5.999836999387753
40.0	232.39753132554802	pulse	0.0	t														329.5754386452113	
40.0	233.09752145495554	pulse	0.0	t														330.27542877461883	
40.0	233.79748139906474	pulse	0.0	t														330.975388718728	
40.0	234.49746911364787	pulse	0.0	t														331.67537643331116	
40.0	235.1974559226726	pulse	0.0	t														332.3753632423359	
40.0	235.8974385057552	pulse	0.0	t														333.0753458254185	
40.0	236.59741263695446	pulse	0.0	t														333.77531995661775	
40.0	237.29738254221206	pulse	0.0	t														334.47528986187535	
40.0	237.99749039428366	pulse	0.0	t														335.17539771394695	
