trial_nr	onset	event_type	phase	response	nr_frames	face_age	face_sex	face_eth	attractiveness	expression	face_id	sub_id	ses	run	trial_type	catch	rating_type	onset_abs	duration
-1.0	0.055163195799650566	fix	0.0		714													27.45246540678818	5.964594047260107
-1.0	0.7033391983541151	pulse	0.0	t														28.100641409342643	
-1.0	1.403316348014414	pulse	0.0	t														28.80061855900294	
-1.0	2.1032928939666817	pulse	0.0	t														29.50059510495521	
-1.0	2.80328181592904	pulse	0.0	t														30.200584026917568	
-1.0	3.503265908228059	pulse	0.0	t														30.900568119216587	
-1.0	4.203262678391184	pulse	0.0	t														31.60056488937971	
-1.0	4.903242242882698	pulse	0.0	t														32.300544453871225	
-1.0	5.603227240744673	pulse	0.0	t														33.0005294517332	
0.0	6.0197572430597575	face	0.0		144	27.0	female	white	3.504576203740549	neutral	144	sub-02	2.0	6.0	144_neutral	0.0		33.417059454048285	1.2333104226227078
0.0	6.303204692258078	pulse	0.0	t		27.0	female	white	3.504576203740549	neutral	144	sub-02	2.0	6.0	144_neutral	0.0		33.700506903246605	
0.0	7.003178219671099	pulse	0.0	t		27.0	female	white	3.504576203740549	neutral	144	sub-02	2.0	6.0	144_neutral	0.0		34.40048043065963	
0.0	7.253067665682465	fix	1.0		445	27.0	female	white	3.504576203740549	neutral	144	sub-02	2.0	6.0	144_neutral	0.0		34.65036987667099	3.75823495160148
0.0	7.703182536181885	pulse	1.0	t		27.0	female	white	3.504576203740549	neutral	144	sub-02	2.0	6.0	144_neutral	0.0		35.10048474717041	
0.0	8.403133424553744	pulse	1.0	t		27.0	female	white	3.504576203740549	neutral	144	sub-02	2.0	6.0	144_neutral	0.0		35.80043563554227	
0.0	9.103141363310897	pulse	1.0	t		27.0	female	white	3.504576203740549	neutral	144	sub-02	2.0	6.0	144_neutral	0.0		36.500443574299425	
0.0	9.803114890723919	pulse	1.0	t		27.0	female	white	3.504576203740549	neutral	144	sub-02	2.0	6.0	144_neutral	0.0		37.200417101712446	
0.0	10.503099284877862	pulse	1.0	t		27.0	female	white	3.504576203740549	neutral	144	sub-02	2.0	6.0	144_neutral	0.0		37.90040149586639	
1.0	11.011302617283945	face	0.0		146	27.0	female	white	4.181058495821727	neutral	039	sub-02	2.0	6.0	039_neutral	0.0		38.40860482827247	1.2416494383560348
1.0	11.203086093862112	pulse	0.0	t		27.0	female	white	4.181058495821727	neutral	039	sub-02	2.0	6.0	039_neutral	0.0		38.60038830485064	
1.0	11.903079543632884	pulse	0.0	t		27.0	female	white	4.181058495821727	neutral	039	sub-02	2.0	6.0	039_neutral	0.0		39.30038175462141	
1.0	12.25295205563998	fix	1.0		444	27.0	female	white	4.181058495821727	neutral	039	sub-02	2.0	6.0	039_neutral	0.0		39.65025426662851	3.7582307256479908
1.0	12.603057297000305	pulse	1.0	t		27.0	female	white	4.181058495821727	neutral	039	sub-02	2.0	6.0	039_neutral	0.0		40.00035950798883	
1.0	13.303038068907881	pulse	1.0	t		27.0	female	white	4.181058495821727	neutral	039	sub-02	2.0	6.0	039_neutral	0.0		40.70034027989641	
1.0	14.003018538960532	pulse	1.0	t		27.0	female	white	4.181058495821727	neutral	039	sub-02	2.0	6.0	039_neutral	0.0		41.40032074994906	
1.0	14.703014101708504	pulse	1.0	t		27.0	female	white	4.181058495821727	neutral	039	sub-02	2.0	6.0	039_neutral	0.0		42.10031631269703	
1.0	15.402986421706373	pulse	1.0	t		27.0	female	white	4.181058495821727	neutral	039	sub-02	2.0	6.0	039_neutral	0.0		42.8002886326949	
2.0	16.01118278128797	face	0.0		146	24.0	female	east_asian	4.409868682849185	neutral	030	sub-02	2.0	6.0	030_neutral	0.0		43.4084849922765	1.2416515513323247
2.0	16.102982890015483	pulse	0.0	t		24.0	female	east_asian	4.409868682849185	neutral	030	sub-02	2.0	6.0	030_neutral	0.0		43.50028510100401	
2.0	16.802953398890168	pulse	0.0	t		24.0	female	east_asian	4.409868682849185	neutral	030	sub-02	2.0	6.0	030_neutral	0.0		44.200255609878695	
2.0	17.252834332620296	fix	1.0		444	24.0	female	east_asian	4.409868682849185	neutral	030	sub-02	2.0	6.0	030_neutral	0.0		44.650136543608824	3.758225594131545
2.0	17.50293930231237	pulse	1.0	t		24.0	female	east_asian	4.409868682849185	neutral	030	sub-02	2.0	6.0	030_neutral	0.0		44.9002415133009	
2.0	18.202922187197146	pulse	1.0	t		24.0	female	east_asian	4.409868682849185	neutral	030	sub-02	2.0	6.0	030_neutral	0.0		45.600224398185674	
2.0	18.902905072081012	pulse	1.0	t		24.0	female	east_asian	4.409868682849185	neutral	030	sub-02	2.0	6.0	030_neutral	0.0		46.30020728306954	
2.0	19.60288161803328	pulse	1.0	t		24.0	female	east_asian	4.409868682849185	neutral	030	sub-02	2.0	6.0	030_neutral	0.0		47.00018382902181	
2.0	20.302881104881635	pulse	1.0	t		24.0	female	east_asian	4.409868682849185	neutral	030	sub-02	2.0	6.0	030_neutral	0.0		47.70018331587016	
3.0	21.01105992675184	face	0.0		147	20.0	male	black	3.1070433744528456	neutral	082	sub-02	2.0	6.0	082_neutral	0.0		48.40836213774037	1.2416578902648325
3.0	21.003778305216656	pulse	0.0	t		20.0	male	black	3.1070433744528456	neutral	082	sub-02	2.0	6.0	082_neutral	0.0		48.401080516205184	
3.0	21.702851704311797	pulse	0.0	t		20.0	male	black	3.1070433744528456	neutral	082	sub-02	2.0	6.0	082_neutral	0.0		49.100153915300325	
3.0	22.252717817016674	fix	1.0		443	20.0	male	black	3.1070433744528456	neutral	082	sub-02	2.0	6.0	082_neutral	0.0		49.6500200280052	3.7582301219399596
3.0	22.402826137286866	pulse	1.0	t		20.0	male	black	3.1070433744528456	neutral	082	sub-02	2.0	6.0	082_neutral	0.0		49.80012834827539	
3.0	23.10279815543072	pulse	1.0	t		20.0	male	black	3.1070433744528456	neutral	082	sub-02	2.0	6.0	082_neutral	0.0		50.50010036641925	
3.0	23.80279039778543	pulse	1.0	t		20.0	male	black	3.1070433744528456	neutral	082	sub-02	2.0	6.0	082_neutral	0.0		51.20009260877396	
3.0	24.50277509379339	pulse	1.0	t		20.0	male	black	3.1070433744528456	neutral	082	sub-02	2.0	6.0	082_neutral	0.0		51.90007730478192	
3.0	25.20275556384604	pulse	1.0	t		20.0	male	black	3.1070433744528456	neutral	082	sub-02	2.0	6.0	082_neutral	0.0		52.60005777483457	
3.0	25.90272848755194	pulse	1.0	t		20.0	male	black	3.1070433744528456	neutral	082	sub-02	2.0	6.0	082_neutral	0.0		53.30003069854047	
4.0	26.010947938956633	face	0.0		147	36.0	female	white	2.7548746518105847	smiling	011	sub-02	2.0	6.0	011_smiling	0.0		53.40825014994516	1.2416491365011098
4.0	26.602726766984233	pulse	0.0	t		36.0	female	white	2.7548746518105847	smiling	011	sub-02	2.0	6.0	011_smiling	0.0		54.00002897797276	
4.0	27.252597075457743	fix	1.0		444	36.0	female	white	2.7548746518105847	smiling	011	sub-02	2.0	6.0	011_smiling	0.0		54.64989928644627	3.7582117088522864
4.0	27.30272263158622	pulse	1.0	t		36.0	female	white	2.7548746518105847	smiling	011	sub-02	2.0	6.0	011_smiling	0.0		54.70002484257475	
4.0	28.00269223489886	pulse	1.0	t		36.0	female	white	2.7548746518105847	smiling	011	sub-02	2.0	6.0	011_smiling	0.0		55.39999444588739	
4.0	28.702676629052803	pulse	1.0	t		36.0	female	white	2.7548746518105847	smiling	011	sub-02	2.0	6.0	011_smiling	0.0		56.09997884004133	
4.0	29.40265528798227	pulse	1.0	t		36.0	female	white	2.7548746518105847	smiling	011	sub-02	2.0	6.0	011_smiling	0.0		56.7999574989708	
4.0	30.102631532080522	pulse	1.0	t		36.0	female	white	2.7548746518105847	smiling	011	sub-02	2.0	6.0	011_smiling	0.0		57.49993374306905	
4.0	30.802619548480834	pulse	1.0	t		36.0	female	white	2.7548746518105847	smiling	011	sub-02	2.0	6.0	011_smiling	0.0		58.19992175946936	
5.0	31.01080878431003	face	0.0		146	30.0	female	black	2.7345801830481498	neutral	062	sub-02	2.0	6.0	062_neutral	0.0		58.40811099529856	1.2416708699820447
5.0	31.502611187127513	pulse	0.0	t		30.0	female	black	2.7345801830481498	neutral	062	sub-02	2.0	6.0	062_neutral	0.0		58.89991339811604	
5.0	32.20259075161903	pulse	0.0	t		30.0	female	black	2.7345801830481498	neutral	062	sub-02	2.0	6.0	062_neutral	0.0		59.599892962607555	
5.0	32.252479654292074	fix	1.0		445	30.0	female	black	2.7345801830481498	neutral	062	sub-02	2.0	6.0	062_neutral	0.0		59.6497818652806	3.766569439527302
5.0	32.90257756060328	pulse	1.0	t		30.0	female	black	2.7345801830481498	neutral	062	sub-02	2.0	6.0	062_neutral	0.0		60.299879771591804	
5.0	33.60255923807199	pulse	1.0	t		30.0	female	black	2.7345801830481498	neutral	062	sub-02	2.0	6.0	062_neutral	0.0		60.99986144906052	
5.0	34.302543632225934	pulse	1.0	t		30.0	female	black	2.7345801830481498	neutral	062	sub-02	2.0	6.0	062_neutral	0.0		61.69984584321446	
5.0	35.002526818963815	pulse	1.0	t		30.0	female	black	2.7345801830481498	neutral	062	sub-02	2.0	6.0	062_neutral	0.0		62.39982902995234	
5.0	35.702511514970865	pulse	1.0	t		30.0	female	black	2.7345801830481498	neutral	062	sub-02	2.0	6.0	062_neutral	0.0		63.09981372595939	
6.0	36.019049093819376	face	0.0		145	47.0	male	east_asian	2.171110226820533	neutral	024	sub-02	2.0	6.0	024_neutral	0.0		63.416351304807904	1.2333155541391534
6.0	36.40249862581004	pulse	0.0	t		47.0	male	east_asian	2.171110226820533	neutral	024	sub-02	2.0	6.0	024_neutral	0.0		63.79980083679857	
6.0	37.102471851369046	pulse	0.0	t		47.0	male	east_asian	2.171110226820533	neutral	024	sub-02	2.0	6.0	024_neutral	0.0		64.49977406235757	
6.0	37.25236464795853	fix	1.0		445	47.0	male	east_asian	2.171110226820533	neutral	024	sub-02	2.0	6.0	024_neutral	0.0		64.64966685894706	3.7582295182319285
6.0	37.80246016962337	pulse	1.0	t		47.0	male	east_asian	2.171110226820533	neutral	024	sub-02	2.0	6.0	024_neutral	0.0		65.1997623806119	
6.0	38.502443960069286	pulse	1.0	t		47.0	male	east_asian	2.171110226820533	neutral	024	sub-02	2.0	6.0	024_neutral	0.0		65.89974617105781	
6.0	39.202428052369214	pulse	1.0	t		47.0	male	east_asian	2.171110226820533	neutral	024	sub-02	2.0	6.0	024_neutral	0.0		66.59973026335774	
6.0	39.902403089051404	pulse	1.0	t		47.0	male	east_asian	2.171110226820533	neutral	024	sub-02	2.0	6.0	024_neutral	0.0		67.29970530003993	
6.0	40.60239140730573	pulse	1.0	t		47.0	male	east_asian	2.171110226820533	neutral	024	sub-02	2.0	6.0	024_neutral	0.0		67.99969361829426	
7.0	41.01059416619046	face	0.0		146	19.0	female	white	4.298846000795861	smiling	100	sub-02	2.0	6.0	100_smiling	0.0		68.40789637717899	1.2416554754336175
7.0	41.30238425336847	pulse	0.0	t		19.0	female	white	4.298846000795861	smiling	100	sub-02	2.0	6.0	100_smiling	0.0		68.699686464357	
7.0	42.00235446038914	pulse	0.0	t		19.0	female	white	4.298846000795861	smiling	100	sub-02	2.0	6.0	100_smiling	0.0		69.39965667137767	
7.0	42.252249641624076	fix	1.0		444	19.0	female	white	4.298846000795861	smiling	100	sub-02	2.0	6.0	100_smiling	0.0		69.6495518526126	3.7582216700302524
7.0	42.70233100634141	pulse	1.0	t		19.0	female	white	4.298846000795861	smiling	100	sub-02	2.0	6.0	100_smiling	0.0		70.09963321732994	
7.0	43.402336832121364	pulse	1.0	t		19.0	female	white	4.298846000795861	smiling	100	sub-02	2.0	6.0	100_smiling	0.0		70.79963904310989	
7.0	44.10231337807363	pulse	1.0	t		19.0	female	white	4.298846000795861	smiling	100	sub-02	2.0	6.0	100_smiling	0.0		71.49961558906216	
7.0	44.802290829587946	pulse	1.0	t		19.0	female	white	4.298846000795861	smiling	100	sub-02	2.0	6.0	100_smiling	0.0		72.19959304057647	
7.0	45.50231446474754	pulse	1.0	t		19.0	female	white	4.298846000795861	smiling	100	sub-02	2.0	6.0	100_smiling	0.0		72.89961667573607	
8.0	46.01047131165433	face	0.0		146	31.0	female	white	2.1822522881018704	smiling	102	sub-02	2.0	6.0	102_smiling	0.0		73.40777352264286	1.2416566828496798
8.0	46.202296142216255	pulse	0.0	t		31.0	female	white	2.1822522881018704	smiling	102	sub-02	2.0	6.0	102_smiling	0.0		73.59959835320478	
8.0	46.90224401204887	pulse	0.0	t		31.0	female	white	2.1822522881018704	smiling	102	sub-02	2.0	6.0	102_smiling	0.0		74.2995462230374	
8.0	47.25212799450401	fix	1.0		444	31.0	female	white	2.1822522881018704	smiling	102	sub-02	2.0	6.0	102_smiling	0.0		74.64943020549254	3.7665640061559316
8.0	47.60223142474115	pulse	1.0	t		31.0	female	white	2.1822522881018704	smiling	102	sub-02	2.0	6.0	102_smiling	0.0		74.99953363572968	
8.0	48.302213705916984	pulse	1.0	t		31.0	female	white	2.1822522881018704	smiling	102	sub-02	2.0	6.0	102_smiling	0.0		75.69951591690551	
8.0	49.002194779677666	pulse	1.0	t		31.0	female	white	2.1822522881018704	smiling	102	sub-02	2.0	6.0	102_smiling	0.0		76.3994969906662	
8.0	49.70217343860804	pulse	1.0	t		31.0	female	white	2.1822522881018704	smiling	102	sub-02	2.0	6.0	102_smiling	0.0		77.09947564959657	
8.0	50.40216115315434	pulse	1.0	t		31.0	female	white	2.1822522881018704	smiling	102	sub-02	2.0	6.0	102_smiling	0.0		77.79946336414287	
9.0	51.01869200065994	face	0.0		145	22.0	female	west_asian	3.8205332272184642	smiling	066	sub-02	2.0	6.0	066_smiling	0.0		78.41599421164847	1.2333179689703684
9.0	51.10215309365503	pulse	0.0	t		22.0	female	west_asian	3.8205332272184642	smiling	066	sub-02	2.0	6.0	066_smiling	0.0		78.49945530464356	
9.0	51.8021275266301	pulse	0.0	t		22.0	female	west_asian	3.8205332272184642	smiling	066	sub-02	2.0	6.0	066_smiling	0.0		79.19942973761863	
9.0	52.25200996963031	fix	1.0		444	22.0	female	west_asian	3.8205332272184642	smiling	066	sub-02	2.0	6.0	066_smiling	0.0		79.64931218061884	3.7583037742906527
9.0	52.50211916527678	pulse	1.0	t		22.0	female	west_asian	3.8205332272184642	smiling	066	sub-02	2.0	6.0	066_smiling	0.0		79.89942137626531	
9.0	53.20211472802475	pulse	1.0	t		22.0	female	west_asian	3.8205332272184642	smiling	066	sub-02	2.0	6.0	066_smiling	0.0		80.59941693901328	
9.0	53.90208101094504	pulse	1.0	t		22.0	female	west_asian	3.8205332272184642	smiling	066	sub-02	2.0	6.0	066_smiling	0.0		81.29938322193357	
9.0	54.60206781992929	pulse	1.0	t		22.0	female	west_asian	3.8205332272184642	smiling	066	sub-02	2.0	6.0	066_smiling	0.0		81.99937003091782	
9.0	55.302050704813155	pulse	1.0	t		22.0	female	west_asian	3.8205332272184642	smiling	066	sub-02	2.0	6.0	066_smiling	0.0		82.69935291580168	
10.0	56.01031374392096	face	0.0		147	31.0	female	west_asian	2.364902506963788	neutral	006	sub-02	2.0	6.0	006_neutral	0.0		83.40761595490949	1.2415800119597407
10.0	56.004512112038356	pulse	0.0	t		31.0	female	west_asian	2.364902506963788	neutral	006	sub-02	2.0	6.0	006_neutral	0.0		83.40181432302688	
10.0	56.70201768199695	pulse	0.0	t		31.0	female	west_asian	2.364902506963788	neutral	006	sub-02	2.0	6.0	006_neutral	0.0		84.09931989298548	
10.0	57.2518937558807	fix	1.0		443	31.0	female	west_asian	2.364902506963788	neutral	006	sub-02	2.0	6.0	006_neutral	0.0		84.64919596686923	3.7665658172791154
10.0	57.40200147244286	pulse	1.0	t		31.0	female	west_asian	2.364902506963788	neutral	006	sub-02	2.0	6.0	006_neutral	0.0		84.79930368343139	
10.0	58.10197499985679	pulse	1.0	t		31.0	female	west_asian	2.364902506963788	neutral	006	sub-02	2.0	6.0	006_neutral	0.0		85.49927721084532	
10.0	58.80196875148067	pulse	1.0	t		31.0	female	west_asian	2.364902506963788	neutral	006	sub-02	2.0	6.0	006_neutral	0.0		86.1992709624692	
10.0	59.50190877311161	pulse	1.0	t		31.0	female	west_asian	2.364902506963788	neutral	006	sub-02	2.0	6.0	006_neutral	0.0		86.89921098410014	
10.0	60.20191429703755	pulse	1.0	t		31.0	female	west_asian	2.364902506963788	neutral	006	sub-02	2.0	6.0	006_neutral	0.0		87.59921650802607	
10.0	60.901914991301965	pulse	1.0	t		31.0	female	west_asian	2.364902506963788	neutral	006	sub-02	2.0	6.0	006_neutral	0.0		88.29921720229049	
11.0	61.01845957315982	face	0.0		146	28.0	male	white	3.9076800636689217	smiling	033	sub-02	2.0	6.0	033_smiling	1.0	trustworthiness	88.41576178414834	1.2333137430159695
11.0	61.60190904477986	pulse	0.0	t		28.0	male	white	3.9076800636689217	smiling	033	sub-02	2.0	6.0	033_smiling	1.0	trustworthiness	88.99921125576839	
11.0	62.251773316175786	fix	1.0		176	28.0	male	white	3.9076800636689217	smiling	033	sub-02	2.0	6.0	033_smiling	1.0	trustworthiness	89.64907552716431	1.5083301110425964
11.0	62.30189102410259	pulse	1.0	t		28.0	male	white	3.9076800636689217	smiling	033	sub-02	2.0	6.0	033_smiling	1.0	trustworthiness	89.69919323509112	
11.0	63.00186666449281	pulse	1.0	t		28.0	male	white	3.9076800636689217	smiling	033	sub-02	2.0	6.0	033_smiling	1.0	trustworthiness	90.39916887548134	
11.0	63.701857095724336	pulse	1.0	t		28.0	male	white	3.9076800636689217	smiling	033	sub-02	2.0	6.0	033_smiling	1.0	trustworthiness	91.09915930671286	
11.0	63.76010342721838	rating	2.0		294	28.0	male	white	3.9076800636689217	smiling	033	sub-02	2.0	6.0	033_smiling	1.0	trustworthiness	91.15740563820691	2.491579634642221
11.0	64.40184299914745	pulse	2.0	t		28.0	male	white	3.9076800636689217	smiling	033	sub-02	2.0	6.0	033_smiling	1.0	trustworthiness	91.79914521013598	
11.0	65.1018129043141	pulse	2.0	t		28.0	male	white	3.9076800636689217	smiling	033	sub-02	2.0	6.0	033_smiling	1.0	trustworthiness	92.49911511530263	
11.0	65.70486657906804	response	2.0	w		28.0	male	white	3.9076800636689217	smiling	033	sub-02	2.0	6.0	033_smiling	1.0	trustworthiness	93.10216879005657	
11.0	65.80179035582842	pulse	2.0	t		28.0	male	white	3.9076800636689217	smiling	033	sub-02	2.0	6.0	033_smiling	1.0	trustworthiness	93.19909256681694	
11.0	66.2516830618606	fix	3.0		444	28.0	male	white	3.9076800636689217	smiling	033	sub-02	2.0	6.0	033_smiling	1.0	trustworthiness	93.64898527284913	3.7665618931796416
11.0	66.50178893711472	pulse	3.0	t		28.0	male	white	3.9076800636689217	smiling	033	sub-02	2.0	6.0	033_smiling	1.0	trustworthiness	93.89909114810325	
11.0	67.20176457750586	pulse	3.0	t		28.0	male	white	3.9076800636689217	smiling	033	sub-02	2.0	6.0	033_smiling	1.0	trustworthiness	94.59906678849438	
11.0	67.9017513864901	pulse	3.0	t		28.0	male	white	3.9076800636689217	smiling	033	sub-02	2.0	6.0	033_smiling	1.0	trustworthiness	95.29905359747863	
11.0	68.60174030845246	pulse	3.0	t		28.0	male	white	3.9076800636689217	smiling	033	sub-02	2.0	6.0	033_smiling	1.0	trustworthiness	95.99904251944099	
11.0	69.30171594884268	pulse	3.0	t		28.0	male	white	3.9076800636689217	smiling	033	sub-02	2.0	6.0	033_smiling	1.0	trustworthiness	96.69901815983121	
12.0	70.01824495504025	face	0.0		146	28.0	female	white	5.676880222841227	neutral	124	sub-02	2.0	6.0	124_neutral	0.0		97.41554716602877	1.233326420879166
12.0	70.0044961137819	pulse	0.0	t		28.0	female	white	5.676880222841227	neutral	124	sub-02	2.0	6.0	124_neutral	0.0		97.40179832477043	
12.0	70.70168715198088	pulse	0.0	t		28.0	female	white	5.676880222841227	neutral	124	sub-02	2.0	6.0	124_neutral	0.0		98.0989893629694	
12.0	71.25157137591941	fix	1.0		443	28.0	female	white	5.676880222841227	neutral	124	sub-02	2.0	6.0	124_neutral	0.0		98.64887358690794	3.76655857278638
12.0	71.40167426282005	pulse	1.0	t		28.0	female	white	5.676880222841227	neutral	124	sub-02	2.0	6.0	124_neutral	0.0		98.79897647380858	
12.0	72.10164990321027	pulse	1.0	t		28.0	female	white	5.676880222841227	neutral	124	sub-02	2.0	6.0	124_neutral	0.0		99.4989521141988	
12.0	72.80163550477937	pulse	1.0	t		28.0	female	white	5.676880222841227	neutral	124	sub-02	2.0	6.0	124_neutral	0.0		100.1989377157679	
12.0	73.50162533230286	pulse	1.0	t		28.0	female	white	5.676880222841227	neutral	124	sub-02	2.0	6.0	124_neutral	0.0		100.89892754329139	
12.0	74.2016030856712	pulse	1.0	t		28.0	female	white	5.676880222841227	neutral	124	sub-02	2.0	6.0	124_neutral	0.0		101.59890529665972	
12.0	74.90157782050028	pulse	1.0	t		28.0	female	white	5.676880222841227	neutral	124	sub-02	2.0	6.0	124_neutral	0.0		102.2988800314888	
13.0	75.01812994870579	face	0.0		146	40.0	female	west_asian	1.5777954635893354	smiling	038	sub-02	2.0	6.0	038_smiling	1.0	attractiveness	102.41543215969432	1.2333004614438323
13.0	75.60155466830565	pulse	0.0	t		40.0	female	west_asian	1.5777954635893354	smiling	038	sub-02	2.0	6.0	038_smiling	1.0	attractiveness	102.99885687929418	
13.0	76.25143041014962	fix	1.0		176	40.0	female	west_asian	1.5777954635893354	smiling	038	sub-02	2.0	6.0	038_smiling	1.0	attractiveness	103.64873262113815	1.4999799267161507
13.0	76.30155536257007	pulse	1.0	t		40.0	female	west_asian	1.5777954635893354	smiling	038	sub-02	2.0	6.0	038_smiling	1.0	attractiveness	103.6988575735586	
13.0	77.00155334014926	pulse	1.0	t		40.0	female	west_asian	1.5777954635893354	smiling	038	sub-02	2.0	6.0	038_smiling	1.0	attractiveness	104.39885555113779	
13.0	77.70151932121462	pulse	1.0	t		40.0	female	west_asian	1.5777954635893354	smiling	038	sub-02	2.0	6.0	038_smiling	1.0	attractiveness	105.09882153220315	
13.0	77.75141033686577	rating	2.0		295	40.0	female	west_asian	1.5777954635893354	smiling	038	sub-02	2.0	6.0	038_smiling	1.0	attractiveness	105.1487125478543	2.499942496832773
13.0	78.32651596309006	response	2.0	d		40.0	female	west_asian	1.5777954635893354	smiling	038	sub-02	2.0	6.0	038_smiling	1.0	attractiveness	105.72381817407859	
13.0	78.40149254677453	pulse	2.0	t		40.0	female	west_asian	1.5777954635893354	smiling	038	sub-02	2.0	6.0	038_smiling	1.0	attractiveness	105.79879475776306	
13.0	79.10148509098326	pulse	2.0	t		40.0	female	west_asian	1.5777954635893354	smiling	038	sub-02	2.0	6.0	038_smiling	1.0	attractiveness	106.49878730197179	
13.0	79.80145952395833	pulse	2.0	t		40.0	female	west_asian	1.5777954635893354	smiling	038	sub-02	2.0	6.0	038_smiling	1.0	attractiveness	107.19876173494686	
13.0	80.25135283369855	fix	3.0		444	40.0	female	west_asian	1.5777954635893354	smiling	038	sub-02	2.0	6.0	038_smiling	1.0	attractiveness	107.64865504468708	3.758230423793975
13.0	80.50150096849757	pulse	3.0	t		40.0	female	west_asian	1.5777954635893354	smiling	038	sub-02	2.0	6.0	038_smiling	1.0	attractiveness	107.8988031794861	
13.0	81.20144461237578	pulse	3.0	t		40.0	female	west_asian	1.5777954635893354	smiling	038	sub-02	2.0	6.0	038_smiling	1.0	attractiveness	108.59874682336431	
13.0	81.90141723422767	pulse	3.0	t		40.0	female	west_asian	1.5777954635893354	smiling	038	sub-02	2.0	6.0	038_smiling	1.0	attractiveness	109.2987194452162	
13.0	82.60140223208873	pulse	3.0	t		40.0	female	west_asian	1.5777954635893354	smiling	038	sub-02	2.0	6.0	038_smiling	1.0	attractiveness	109.99870444307726	
13.0	83.30138904107298	pulse	3.0	t		40.0	female	west_asian	1.5777954635893354	smiling	038	sub-02	2.0	6.0	038_smiling	1.0	attractiveness	110.69869125206151	
14.0	84.00958325749252	face	0.0		147	21.0	male	black	2.969757262236371	smiling	137	sub-02	2.0	6.0	137_smiling	0.0		111.40688546848105	1.2416500420631564
14.0	84.00340491194765	pulse	0.0	t		21.0	male	black	2.969757262236371	smiling	137	sub-02	2.0	6.0	137_smiling	0.0		111.40070712293618	
14.0	84.70137563876051	pulse	0.0	t		21.0	male	black	2.969757262236371	smiling	137	sub-02	2.0	6.0	137_smiling	0.0		112.09867784974904	
14.0	85.25123329955568	fix	1.0		443	21.0	male	black	2.969757262236371	smiling	137	sub-02	2.0	6.0	137_smiling	0.0		112.6485355105442	3.7665670246951777
14.0	85.40134524207315	pulse	1.0	t		21.0	male	black	2.969757262236371	smiling	137	sub-02	2.0	6.0	137_smiling	0.0		112.79864745306168	
14.0	86.10132541027178	pulse	1.0	t		21.0	male	black	2.969757262236371	smiling	137	sub-02	2.0	6.0	137_smiling	0.0		113.49862762126031	
14.0	86.80130618217845	pulse	1.0	t		21.0	male	black	2.969757262236371	smiling	137	sub-02	2.0	6.0	137_smiling	0.0		114.19860839316698	
14.0	87.50128484110883	pulse	1.0	t		21.0	male	black	2.969757262236371	smiling	137	sub-02	2.0	6.0	137_smiling	0.0		114.89858705209735	
14.0	88.20127708346354	pulse	1.0	t		21.0	male	black	2.969757262236371	smiling	137	sub-02	2.0	6.0	137_smiling	0.0		115.59857929445207	
14.0	88.90125966649339	pulse	1.0	t		21.0	male	black	2.969757262236371	smiling	137	sub-02	2.0	6.0	137_smiling	0.0		116.29856187748192	
15.0	89.01780032425086	face	0.0		146	26.0	female	white	4.854755272582572	neutral	027	sub-02	2.0	6.0	027_neutral	0.0		116.41510253523938	1.2333194782395367
15.0	89.60124496620847	pulse	0.0	t		26.0	female	white	4.854755272582572	neutral	027	sub-02	2.0	6.0	027_neutral	0.0		116.998547177197	
15.0	90.2511198024904	fix	1.0		443	26.0	female	white	4.854755272582572	neutral	027	sub-02	2.0	6.0	027_neutral	0.0		117.64842201347892	3.7582877760341944
15.0	90.30123992524841	pulse	1.0	t		26.0	female	white	4.854755272582572	neutral	027	sub-02	2.0	6.0	027_neutral	0.0		117.69854213623694	
15.0	91.00121496193151	pulse	1.0	t		26.0	female	white	4.854755272582572	neutral	027	sub-02	2.0	6.0	027_neutral	0.0		118.39851717292004	
15.0	91.70119331900696	pulse	1.0	t		26.0	female	white	4.854755272582572	neutral	027	sub-02	2.0	6.0	027_neutral	0.0		119.09849552999549	
15.0	92.40117499647567	pulse	1.0	t		26.0	female	white	4.854755272582572	neutral	027	sub-02	2.0	6.0	027_neutral	0.0		119.7984772074642	
15.0	93.10114278866513	pulse	1.0	t		26.0	female	white	4.854755272582572	neutral	027	sub-02	2.0	6.0	027_neutral	0.0		120.49844499965366	
15.0	93.80111420310095	pulse	1.0	t		26.0	female	white	4.854755272582572	neutral	027	sub-02	2.0	6.0	027_neutral	0.0		121.19841641408948	
16.0	94.00940757852459	face	0.0		146	40.0	male	black	2.408674890569041	smiling	061	sub-02	2.0	6.0	061_smiling	0.0		121.40670978951312	1.2415902749917223
16.0	94.50113481972221	pulse	0.0	t		40.0	male	black	2.408674890569041	smiling	061	sub-02	2.0	6.0	061_smiling	0.0		121.89843703071074	
16.0	95.2011074415741	pulse	0.0	t		40.0	male	black	2.408674890569041	smiling	061	sub-02	2.0	6.0	061_smiling	0.0		122.59840965256262	
16.0	95.25099785351631	fix	1.0		444	40.0	male	black	2.408674890569041	smiling	061	sub-02	2.0	6.0	061_smiling	0.0		122.64830006450484	3.7583602209697347
16.0	95.90109666538956	pulse	1.0	t		40.0	male	black	2.408674890569041	smiling	061	sub-02	2.0	6.0	061_smiling	0.0		123.29839887637809	
16.0	96.60107562617304	pulse	1.0	t		40.0	male	black	2.408674890569041	smiling	061	sub-02	2.0	6.0	061_smiling	0.0		123.99837783716157	
16.0	97.30106002032699	pulse	1.0	t		40.0	male	black	2.408674890569041	smiling	061	sub-02	2.0	6.0	061_smiling	0.0		124.69836223131551	
16.0	98.00104049037964	pulse	1.0	t		40.0	male	black	2.408674890569041	smiling	061	sub-02	2.0	6.0	061_smiling	0.0		125.39834270136816	
16.0	98.70105356065324	pulse	1.0	t		40.0	male	black	2.408674890569041	smiling	061	sub-02	2.0	6.0	061_smiling	0.0		126.09835577164176	
17.0	99.00935807448604	face	0.0		146	36.0	female	white	2.7548746518105847	neutral	011	sub-02	2.0	6.0	011_neutral	0.0		126.40666028547457	1.2415229615726275
17.0	99.40101169351783	pulse	0.0	t		36.0	female	white	2.7548746518105847	neutral	011	sub-02	2.0	6.0	011_neutral	0.0		126.79831390450636	
17.0	100.10098461722373	pulse	0.0	t		36.0	female	white	2.7548746518105847	neutral	011	sub-02	2.0	6.0	011_neutral	0.0		127.49828682821226	
17.0	100.25088103605867	fix	1.0		444	36.0	female	white	2.7548746518105847	neutral	011	sub-02	2.0	6.0	011_neutral	0.0		127.6481832470472	3.7582476294664957
17.0	100.80098108553284	pulse	1.0	t		36.0	female	white	2.7548746518105847	neutral	011	sub-02	2.0	6.0	011_neutral	0.0		128.19828329652137	
17.0	101.50096547968678	pulse	1.0	t		36.0	female	white	2.7548746518105847	neutral	011	sub-02	2.0	6.0	011_neutral	0.0		128.8982676906753	
17.0	102.20094172378504	pulse	1.0	t		36.0	female	white	2.7548746518105847	neutral	011	sub-02	2.0	6.0	011_neutral	0.0		129.59824393477356	
17.0	102.90092581608405	pulse	1.0	t		36.0	female	white	2.7548746518105847	neutral	011	sub-02	2.0	6.0	011_neutral	0.0		130.29822802707258	
17.0	103.60091292692323	pulse	1.0	t		36.0	female	white	2.7548746518105847	neutral	011	sub-02	2.0	6.0	011_neutral	0.0		130.99821513791176	
18.0	104.00912866552517	face	0.0		146	21.0	male	east_asian/white	3.501790688420215	smiling	036	sub-02	2.0	6.0	036_smiling	0.0		131.4064308765137	1.2416379679070815
18.0	104.30090094332354	pulse	0.0	t		21.0	male	east_asian/white	3.501790688420215	smiling	036	sub-02	2.0	6.0	036_smiling	0.0		131.69820315431207	
18.0	105.00086843365898	pulse	0.0	t		21.0	male	east_asian/white	3.501790688420215	smiling	036	sub-02	2.0	6.0	036_smiling	0.0		132.3981706446475	
18.0	105.25076663343225	fix	1.0		444	21.0	male	east_asian/white	3.501790688420215	smiling	036	sub-02	2.0	6.0	036_smiling	0.0		132.64806884442078	3.7665624968867633
18.0	105.70086399640604	pulse	1.0	t		21.0	male	east_asian/white	3.501790688420215	smiling	036	sub-02	2.0	6.0	036_smiling	0.0		133.09816620739457	
18.0	106.40084929612203	pulse	1.0	t		21.0	male	east_asian/white	3.501790688420215	smiling	036	sub-02	2.0	6.0	036_smiling	0.0		133.79815150711056	
18.0	107.10082554022028	pulse	1.0	t		21.0	male	east_asian/white	3.501790688420215	smiling	036	sub-02	2.0	6.0	036_smiling	0.0		134.4981277512088	
18.0	107.80080963252021	pulse	1.0	t		21.0	male	east_asian/white	3.501790688420215	smiling	036	sub-02	2.0	6.0	036_smiling	0.0		135.19811184350874	
18.0	108.5007991581897	pulse	1.0	t		21.0	male	east_asian/white	3.501790688420215	smiling	036	sub-02	2.0	6.0	036_smiling	0.0		135.89810136917822	
19.0	109.01732913031901	face	0.0		145	20.0	male	black	2.609629924393156	neutral	043	sub-02	2.0	6.0	043_neutral	0.0		136.41463134130754	1.2333203838015834
19.0	109.20078415605076	pulse	0.0	t		20.0	male	black	2.609629924393156	neutral	043	sub-02	2.0	6.0	043_neutral	0.0		136.5980863670393	
19.0	109.90075315565628	pulse	0.0	t		20.0	male	black	2.609629924393156	neutral	043	sub-02	2.0	6.0	043_neutral	0.0		137.2980553666448	
19.0	110.2506495141206	fix	1.0		444	20.0	male	black	2.609629924393156	neutral	043	sub-02	2.0	6.0	043_neutral	0.0		137.64795172510912	3.7665631005947944
19.0	110.60076713149101	pulse	1.0	t		20.0	male	black	2.609629924393156	neutral	043	sub-02	2.0	6.0	043_neutral	0.0		137.99806934247954	
19.0	111.30072556620962	pulse	1.0	t		20.0	male	black	2.609629924393156	neutral	043	sub-02	2.0	6.0	043_neutral	0.0		138.69802777719815	
19.0	112.00070935665553	pulse	1.0	t		20.0	male	black	2.609629924393156	neutral	043	sub-02	2.0	6.0	043_neutral	0.0		139.39801156764406	
19.0	112.70070069344911	pulse	1.0	t		20.0	male	black	2.609629924393156	neutral	043	sub-02	2.0	6.0	043_neutral	0.0		140.09800290443764	
19.0	113.40068569131017	pulse	1.0	t		20.0	male	black	2.609629924393156	neutral	043	sub-02	2.0	6.0	043_neutral	0.0		140.7979879022987	
20.0	114.01721261471539	face	0.0		145	23.0	male	white	2.6275368085953046	smiling	141	sub-02	2.0	6.0	141_smiling	0.0		141.41451482570392	1.2333167615543061
20.0	114.1006718965873	pulse	0.0	t		23.0	male	white	2.6275368085953046	smiling	141	sub-02	2.0	6.0	141_smiling	0.0		141.49797410757583	
20.0	114.80064572585434	pulse	0.0	t		23.0	male	white	2.6275368085953046	smiling	141	sub-02	2.0	6.0	141_smiling	0.0		142.19794793684287	
20.0	115.2505293762697	fix	1.0		1185	23.0	male	white	2.6275368085953046	smiling	141	sub-02	2.0	6.0	141_smiling	0.0		142.64783158725822	10.008155790418641
20.0	115.5006367607939	pulse	1.0	t		23.0	male	white	2.6275368085953046	smiling	141	sub-02	2.0	6.0	141_smiling	0.0		142.89793897178242	
20.0	116.20061934382375	pulse	1.0	t		23.0	male	white	2.6275368085953046	smiling	141	sub-02	2.0	6.0	141_smiling	0.0		143.59792155481227	
20.0	116.9005998138764	pulse	1.0	t		23.0	male	white	2.6275368085953046	smiling	141	sub-02	2.0	6.0	141_smiling	0.0		144.29790202486492	
20.0	117.6005790765139	pulse	1.0	t		23.0	male	white	2.6275368085953046	smiling	141	sub-02	2.0	6.0	141_smiling	0.0		144.99788128750242	
20.0	118.30056980959944	pulse	1.0	t		23.0	male	white	2.6275368085953046	smiling	141	sub-02	2.0	6.0	141_smiling	0.0		145.69787202058797	
20.0	119.00054816667489	pulse	1.0	t		23.0	male	white	2.6275368085953046	smiling	141	sub-02	2.0	6.0	141_smiling	0.0		146.39785037766342	
20.0	119.7005298441436	pulse	1.0	t		23.0	male	white	2.6275368085953046	smiling	141	sub-02	2.0	6.0	141_smiling	0.0		147.09783205513213	
20.0	120.40051695498187	pulse	1.0	t		23.0	male	white	2.6275368085953046	smiling	141	sub-02	2.0	6.0	141_smiling	0.0		147.7978191659704	
20.0	121.10050587694423	pulse	1.0	t		23.0	male	white	2.6275368085953046	smiling	141	sub-02	2.0	6.0	141_smiling	0.0		148.49780808793275	
20.0	121.80048212104248	pulse	1.0	t		23.0	male	white	2.6275368085953046	smiling	141	sub-02	2.0	6.0	141_smiling	0.0		149.197784332031	
20.0	122.50047074115082	pulse	1.0	t		23.0	male	white	2.6275368085953046	smiling	141	sub-02	2.0	6.0	141_smiling	0.0		149.89777295213935	
20.0	123.20045241861953	pulse	1.0	t		23.0	male	white	2.6275368085953046	smiling	141	sub-02	2.0	6.0	141_smiling	0.0		150.59775462960806	
20.0	123.90043379423423	pulse	1.0	t		23.0	male	white	2.6275368085953046	smiling	141	sub-02	2.0	6.0	141_smiling	0.0		151.29773600522276	
20.0	124.6004145661409	pulse	1.0	t		23.0	male	white	2.6275368085953046	smiling	141	sub-02	2.0	6.0	141_smiling	0.0		151.99771677712943	
21.0	125.25868516668834	face	0.0		146	28.0	female	white	5.676880222841227	smiling	124	sub-02	2.0	6.0	124_smiling	1.0	dominance	152.65598737767687	1.241579106397694
21.0	125.30042190119002	pulse	0.0	t		28.0	female	white	5.676880222841227	smiling	124	sub-02	2.0	6.0	124_smiling	1.0	dominance	152.69772411217855	
21.0	126.00038275073985	pulse	0.0	t		28.0	female	white	5.676880222841227	smiling	124	sub-02	2.0	6.0	124_smiling	1.0	dominance	153.39768496172837	
21.0	126.50026427308603	fix	1.0		177	28.0	female	white	5.676880222841227	smiling	124	sub-02	2.0	6.0	124_smiling	1.0	dominance	153.89756648407456	1.4999388745854958
21.0	126.70037438938743	pulse	1.0	t		28.0	female	white	5.676880222841227	smiling	124	sub-02	2.0	6.0	124_smiling	1.0	dominance	154.09767660037596	
21.0	127.40034338899204	pulse	1.0	t		28.0	female	white	5.676880222841227	smiling	124	sub-02	2.0	6.0	124_smiling	1.0	dominance	154.79764559998057	
21.0	128.00020314767153	rating	2.0		294	28.0	female	white	5.676880222841227	smiling	124	sub-02	2.0	6.0	124_smiling	1.0	dominance	155.39750535866006	2.4999678525600757
21.0	128.10032265162954	pulse	2.0	t		28.0	female	white	5.676880222841227	smiling	124	sub-02	2.0	6.0	124_smiling	1.0	dominance	155.49762486261807	
21.0	128.8003221384779	pulse	2.0	t		28.0	female	white	5.676880222841227	smiling	124	sub-02	2.0	6.0	124_smiling	1.0	dominance	156.19762434946642	
21.0	129.50030743819298	pulse	2.0	t		28.0	female	white	5.676880222841227	smiling	124	sub-02	2.0	6.0	124_smiling	1.0	dominance	156.8976096491815	
21.0	129.51130518304217	response	2.0	w		28.0	female	white	5.676880222841227	smiling	124	sub-02	2.0	6.0	124_smiling	1.0	dominance	156.9086073940307	
21.0	130.20029877498564	pulse	2.0	t		28.0	female	white	5.676880222841227	smiling	124	sub-02	2.0	6.0	124_smiling	1.0	dominance	157.59760098597417	
21.0	130.5001710002316	fix	3.0		444	28.0	female	white	5.676880222841227	smiling	124	sub-02	2.0	6.0	124_smiling	1.0	dominance	157.89747321122013	3.7583086039530826
21.0	130.90027562279192	pulse	3.0	t		28.0	female	white	5.676880222841227	smiling	124	sub-02	2.0	6.0	124_smiling	1.0	dominance	158.29757783378045	
21.0	131.60025790396867	pulse	3.0	t		28.0	female	white	5.676880222841227	smiling	124	sub-02	2.0	6.0	124_smiling	1.0	dominance	158.9975601149572	
21.0	132.30024259997572	pulse	3.0	t		28.0	female	white	5.676880222841227	smiling	124	sub-02	2.0	6.0	124_smiling	1.0	dominance	159.69754481096425	
21.0	133.00021461811957	pulse	3.0	t		28.0	female	white	5.676880222841227	smiling	124	sub-02	2.0	6.0	124_smiling	1.0	dominance	160.3975168291081	
21.0	133.70020444564398	pulse	3.0	t		28.0	female	white	5.676880222841227	smiling	124	sub-02	2.0	6.0	124_smiling	1.0	dominance	161.0975066566325	
22.0	134.25847960418469	face	0.0		146	40.0	male	white	1.868682849184242	smiling	172	sub-02	2.0	6.0	172_smiling	0.0		161.6557818151732	1.2415733711741268
22.0	134.40019397131346	pulse	0.0	t		40.0	male	white	1.868682849184242	smiling	172	sub-02	2.0	6.0	172_smiling	0.0		161.79749618230198	
22.0	135.10016538574928	pulse	0.0	t		40.0	male	white	1.868682849184242	smiling	172	sub-02	2.0	6.0	172_smiling	0.0		162.4974675967378	
22.0	135.5000529753588	fix	1.0		444	40.0	male	white	1.868682849184242	smiling	172	sub-02	2.0	6.0	172_smiling	0.0		162.89735518634734	3.7665356318902923
22.0	135.80015732624997	pulse	1.0	t		40.0	male	white	1.868682849184242	smiling	172	sub-02	2.0	6.0	172_smiling	0.0		163.1974595372385	
22.0	136.50014051298876	pulse	1.0	t		40.0	male	white	1.868682849184242	smiling	172	sub-02	2.0	6.0	172_smiling	0.0		163.8974427239773	
22.0	137.2001375850059	pulse	1.0	t		40.0	male	white	1.868682849184242	smiling	172	sub-02	2.0	6.0	172_smiling	0.0		164.59743979599443	
22.0	137.90009752899368	pulse	1.0	t		40.0	male	white	1.868682849184242	smiling	172	sub-02	2.0	6.0	172_smiling	0.0		165.2973997399822	
22.0	138.60009520471885	pulse	1.0	t		40.0	male	white	1.868682849184242	smiling	172	sub-02	2.0	6.0	172_smiling	0.0		165.99739741570738	
23.0	139.2665886072491	face	0.0		145	28.0	male	white	3.9076800636689217	neutral	033	sub-02	2.0	6.0	033_neutral	0.0		166.66389081823763	1.2333469469440388
23.0	139.30007718404067	pulse	0.0	t		28.0	male	white	3.9076800636689217	neutral	033	sub-02	2.0	6.0	033_neutral	0.0		166.6973793950292	
23.0	140.0000567485322	pulse	0.0	t		28.0	male	white	3.9076800636689217	neutral	033	sub-02	2.0	6.0	033_neutral	0.0		167.39735895952072	
23.0	140.49993555419314	fix	1.0		443	28.0	male	white	3.9076800636689217	neutral	033	sub-02	2.0	6.0	033_neutral	0.0		167.89723776518167	3.7583073965370204
23.0	140.7000447649325	pulse	1.0	t		28.0	male	white	3.9076800636689217	neutral	033	sub-02	2.0	6.0	033_neutral	0.0		168.09734697592103	
23.0	141.4000303665016	pulse	1.0	t		28.0	male	white	3.9076800636689217	neutral	033	sub-02	2.0	6.0	033_neutral	0.0		168.79733257749012	
23.0	142.1000032902075	pulse	1.0	t		28.0	male	white	3.9076800636689217	neutral	033	sub-02	2.0	6.0	033_neutral	0.0		169.49730550119602	
23.0	142.79999070289978	pulse	1.0	t		28.0	male	white	3.9076800636689217	neutral	033	sub-02	2.0	6.0	033_neutral	0.0		170.1972929138883	
23.0	143.49997509705372	pulse	1.0	t		28.0	male	white	3.9076800636689217	neutral	033	sub-02	2.0	6.0	033_neutral	0.0		170.89727730804225	
23.0	144.19995858564562	pulse	1.0	t		28.0	male	white	3.9076800636689217	neutral	033	sub-02	2.0	6.0	033_neutral	0.0		171.59726079663415	
24.0	144.25824295073016	face	0.0		147	24.0	male	white	3.1153999204138483	neutral	012	sub-02	2.0	6.0	012_neutral	0.0		171.6555451617187	1.2415640137032824
24.0	144.89994780946108	pulse	0.0	t		24.0	male	white	3.1153999204138483	neutral	012	sub-02	2.0	6.0	012_neutral	0.0		172.2972500204496	
24.0	145.49980696443345	fix	1.0		443	24.0	male	white	3.1153999204138483	neutral	012	sub-02	2.0	6.0	012_neutral	0.0		172.89710917542197	3.766576382166022
24.0	145.600349365699	pulse	1.0	t		24.0	male	white	3.1153999204138483	neutral	012	sub-02	2.0	6.0	012_neutral	0.0		172.99765157668753	
24.0	146.2999111643985	pulse	1.0	t		24.0	male	white	3.1153999204138483	neutral	012	sub-02	2.0	6.0	012_neutral	0.0		173.69721337538704	
24.0	146.99988801220388	pulse	1.0	t		24.0	male	white	3.1153999204138483	neutral	012	sub-02	2.0	6.0	012_neutral	0.0		174.3971902231924	
24.0	147.69987240635783	pulse	1.0	t		24.0	male	white	3.1153999204138483	neutral	012	sub-02	2.0	6.0	012_neutral	0.0		175.09717461734635	
24.0	148.39986132832018	pulse	1.0	t		24.0	male	white	3.1153999204138483	neutral	012	sub-02	2.0	6.0	012_neutral	0.0		175.7971635393087	
24.0	149.09984481691208	pulse	1.0	t		24.0	male	white	3.1153999204138483	neutral	012	sub-02	2.0	6.0	012_neutral	0.0		176.4971470279006	
25.0	149.26638334659947	face	0.0		146	27.0	male	black	3.5523278949462798	smiling	042	sub-02	2.0	6.0	042_smiling	0.0		176.663685557588	1.2333179689703684
25.0	149.79983132404232	pulse	0.0	t		27.0	male	black	3.5523278949462798	smiling	042	sub-02	2.0	6.0	042_smiling	0.0		177.19713353503084	
25.0	150.49970131556984	fix	1.0		444	27.0	male	black	3.5523278949462798	smiling	042	sub-02	2.0	6.0	042_smiling	0.0		177.89700352655836	3.7582452146343712
25.0	150.50717069022812	pulse	1.0	t		27.0	male	black	3.5523278949462798	smiling	042	sub-02	2.0	6.0	042_smiling	0.0		177.90447290121665	
25.0	151.1997940752717	pulse	1.0	t		27.0	male	black	3.5523278949462798	smiling	042	sub-02	2.0	6.0	042_smiling	0.0		178.59709628626024	
25.0	151.89977424347126	pulse	1.0	t		27.0	male	black	3.5523278949462798	smiling	042	sub-02	2.0	6.0	042_smiling	0.0		179.29707645445978	
25.0	152.5997547135239	pulse	1.0	t		27.0	male	black	3.5523278949462798	smiling	042	sub-02	2.0	6.0	042_smiling	0.0		179.99705692451244	
25.0	153.2997442391934	pulse	1.0	t		27.0	male	black	3.5523278949462798	smiling	042	sub-02	2.0	6.0	042_smiling	0.0		180.69704645018192	
25.0	153.99972470924695	pulse	1.0	t		27.0	male	black	3.5523278949462798	smiling	042	sub-02	2.0	6.0	042_smiling	0.0		181.39702692023548	
26.0	154.2579465302042	face	0.0		146	27.0	female	white	3.504576203740549	smiling	144	sub-02	2.0	6.0	144_smiling	0.0		181.65524874119274	1.2416361567838976
26.0	154.69971091452317	pulse	0.0	t		27.0	female	white	3.504576203740549	smiling	144	sub-02	2.0	6.0	144_smiling	0.0		182.0970131255117	
26.0	155.39968504564422	pulse	0.0	t		27.0	female	white	3.504576203740549	smiling	144	sub-02	2.0	6.0	144_smiling	0.0		182.79698725663275	
26.0	155.4995826869881	fix	1.0		444	27.0	female	white	3.504576203740549	smiling	144	sub-02	2.0	6.0	144_smiling	0.0		182.89688489797663	3.7583104150762665
26.0	156.09969388996342	pulse	1.0	t		27.0	female	white	3.504576203740549	smiling	144	sub-02	2.0	6.0	144_smiling	0.0		183.49699610095195	
26.0	156.79966319142295	pulse	1.0	t		27.0	female	white	3.504576203740549	smiling	144	sub-02	2.0	6.0	144_smiling	0.0		184.19696540241148	
26.0	157.49964426518363	pulse	1.0	t		27.0	female	white	3.504576203740549	smiling	144	sub-02	2.0	6.0	144_smiling	0.0		184.89694647617216	
26.0	158.1996334889991	pulse	1.0	t		27.0	female	white	3.504576203740549	smiling	144	sub-02	2.0	6.0	144_smiling	0.0		185.59693569998763	
26.0	158.89961214792856	pulse	1.0	t		27.0	female	white	3.504576203740549	smiling	144	sub-02	2.0	6.0	144_smiling	0.0		186.2969143589171	
27.0	159.25789310206437	face	0.0		146	23.0	male	white	2.6275368085953046	neutral	141	sub-02	2.0	6.0	141_neutral	0.0		186.6551953130529	1.2415727674660957
27.0	159.59959895691372	pulse	0.0	t		23.0	male	white	2.6275368085953046	neutral	141	sub-02	2.0	6.0	141_neutral	0.0		186.99690116790225	
27.0	160.29958244550562	pulse	0.0	t		23.0	male	white	2.6275368085953046	neutral	141	sub-02	2.0	6.0	141_neutral	0.0		187.69688465649415	
27.0	160.49946586953047	fix	1.0		444	23.0	male	white	2.6275368085953046	neutral	141	sub-02	2.0	6.0	141_neutral	0.0		187.896768080519	3.7582536665440784
27.0	160.99956472668146	pulse	1.0	t		23.0	male	white	2.6275368085953046	neutral	141	sub-02	2.0	6.0	141_neutral	0.0		188.39686693766998	
27.0	161.6995427819038	pulse	1.0	t		23.0	male	white	2.6275368085953046	neutral	141	sub-02	2.0	6.0	141_neutral	0.0		189.09684499289233	
27.0	162.3995117815084	pulse	1.0	t		23.0	male	white	2.6275368085953046	neutral	141	sub-02	2.0	6.0	141_neutral	0.0		189.79681399249694	
27.0	163.0995182109964	pulse	1.0	t		23.0	male	white	2.6275368085953046	neutral	141	sub-02	2.0	6.0	141_neutral	0.0		190.49682042198492	
27.0	163.7994998884651	pulse	1.0	t		23.0	male	white	2.6275368085953046	neutral	141	sub-02	2.0	6.0	141_neutral	0.0		191.19680209945363	
28.0	164.25771953607455	face	0.0		146	28.0	male	east_asian	1.5563072025467568	smiling	005	sub-02	2.0	6.0	005_smiling	0.0		191.65502174706307	1.241631025267452
28.0	164.49948277334897	pulse	0.0	t		28.0	male	east_asian	1.5563072025467568	smiling	005	sub-02	2.0	6.0	005_smiling	0.0		191.8967849843375	
28.0	165.19945901744723	pulse	0.0	t		28.0	male	east_asian	1.5563072025467568	smiling	005	sub-02	2.0	6.0	005_smiling	0.0		192.59676122843575	
28.0	165.499350561342	fix	1.0		444	28.0	male	east_asian	1.5563072025467568	smiling	005	sub-02	2.0	6.0	005_smiling	0.0		192.89665277233053	3.758265438846138
28.0	165.899452467218	pulse	1.0	t		28.0	male	east_asian	1.5563072025467568	smiling	005	sub-02	2.0	6.0	005_smiling	0.0		193.29675467820653	
28.0	166.59943474839383	pulse	1.0	t		28.0	male	east_asian	1.5563072025467568	smiling	005	sub-02	2.0	6.0	005_smiling	0.0		193.99673695938236	
28.0	167.29941914254778	pulse	1.0	t		28.0	male	east_asian	1.5563072025467568	smiling	005	sub-02	2.0	6.0	005_smiling	0.0		194.6967213535363	
28.0	167.99939749962323	pulse	1.0	t		28.0	male	east_asian	1.5563072025467568	smiling	005	sub-02	2.0	6.0	005_smiling	0.0		195.39669971061176	
28.0	168.69938581787756	pulse	1.0	t		28.0	male	east_asian	1.5563072025467568	smiling	005	sub-02	2.0	6.0	005_smiling	0.0		196.09668802886608	
29.0	169.25761600018814	face	0.0		146	19.0	male	white	2.243931555909272	neutral	130	sub-02	2.0	6.0	130_neutral	0.0		196.65491821117666	1.241613819595841
29.0	169.3993684009074	pulse	0.0	t		19.0	male	white	2.243931555909272	neutral	130	sub-02	2.0	6.0	130_neutral	0.0		196.79667061189593	
29.0	170.0993370986589	pulse	0.0	t		19.0	male	white	2.243931555909272	neutral	130	sub-02	2.0	6.0	130_neutral	0.0		197.49663930964743	
29.0	170.49922981978398	fix	1.0		444	19.0	male	white	2.243931555909272	neutral	130	sub-02	2.0	6.0	130_neutral	0.0		197.8965320307725	3.7665631005947944
29.0	170.79933779292242	pulse	1.0	t		19.0	male	white	2.243931555909272	neutral	130	sub-02	2.0	6.0	130_neutral	0.0		198.19664000391094	
29.0	171.49931977224514	pulse	1.0	t		19.0	male	white	2.243931555909272	neutral	130	sub-02	2.0	6.0	130_neutral	0.0		198.89662198323367	
29.0	172.1992942052202	pulse	1.0	t		19.0	male	white	2.243931555909272	neutral	130	sub-02	2.0	6.0	130_neutral	0.0		199.59659641620874	
29.0	172.8992819197665	pulse	1.0	t		19.0	male	white	2.243931555909272	neutral	130	sub-02	2.0	6.0	130_neutral	0.0		200.29658413075504	
29.0	173.59927114358197	pulse	1.0	t		19.0	male	white	2.243931555909272	neutral	130	sub-02	2.0	6.0	130_neutral	0.0		200.9965733545705	
30.0	174.26579292037877	face	0.0		146	19.0	male	white	3.2522881018702745	neutral	018	sub-02	2.0	6.0	018_neutral	0.0		201.6630951313673	1.2416548717255864
30.0	174.29925433031985	pulse	0.0	t		19.0	male	white	3.2522881018702745	neutral	018	sub-02	2.0	6.0	018_neutral	0.0		201.69655654130838	
30.0	174.99923419666538	pulse	0.0	t		19.0	male	white	3.2522881018702745	neutral	018	sub-02	2.0	6.0	018_neutral	0.0		202.3965364076539	
30.0	175.50744779210436	fix	1.0		443	19.0	male	white	3.2522881018702745	neutral	018	sub-02	2.0	6.0	018_neutral	0.0		202.9047500030929	3.7665380467215073
30.0	175.69922342048176	pulse	1.0	t		19.0	male	white	3.2522881018702745	neutral	018	sub-02	2.0	6.0	018_neutral	0.0		203.09652563147029	
30.0	176.39920479609555	pulse	1.0	t		19.0	male	white	3.2522881018702745	neutral	018	sub-02	2.0	6.0	018_neutral	0.0		203.79650700708407	
30.0	177.0991852661491	pulse	1.0	t		19.0	male	white	3.2522881018702745	neutral	018	sub-02	2.0	6.0	018_neutral	0.0		204.49648747713763	
30.0	177.7991603028313	pulse	1.0	t		19.0	male	white	3.2522881018702745	neutral	018	sub-02	2.0	6.0	018_neutral	0.0		205.19646251381982	
30.0	178.49915254518692	pulse	1.0	t		19.0	male	white	3.2522881018702745	neutral	018	sub-02	2.0	6.0	018_neutral	0.0		205.89645475617544	
30.0	179.19914086344033	pulse	1.0	t		19.0	male	white	3.2522881018702745	neutral	018	sub-02	2.0	6.0	018_neutral	0.0		206.59644307442886	
31.0	179.27398583882587	face	0.0		146	20.0	male	black	3.1070433744528456	smiling	082	sub-02	2.0	6.0	082_smiling	0.0		206.6712880498144	1.2333430228436555
31.0	179.89911137231502	pulse	0.0	t		20.0	male	black	3.1070433744528456	smiling	082	sub-02	2.0	6.0	082_smiling	0.0		207.29641358330355	
31.0	180.50732886166952	fix	1.0		443	20.0	male	black	3.1070433744528456	smiling	082	sub-02	2.0	6.0	082_smiling	0.0		207.90463107265805	3.758260609183708
31.0	180.59910814247814	pulse	1.0	t		20.0	male	black	3.1070433744528456	smiling	082	sub-02	2.0	6.0	082_smiling	0.0		207.99641035346667	
31.0	181.29908559399246	pulse	1.0	t		20.0	male	black	3.1070433744528456	smiling	082	sub-02	2.0	6.0	082_smiling	0.0		208.696387804981	
31.0	181.99906636589913	pulse	1.0	t		20.0	male	black	3.1070433744528456	smiling	082	sub-02	2.0	6.0	082_smiling	0.0		209.39636857688765	
31.0	182.69905438229944	pulse	1.0	t		20.0	male	black	3.1070433744528456	smiling	082	sub-02	2.0	6.0	082_smiling	0.0		210.09635659328796	
31.0	183.39903787089133	pulse	1.0	t		20.0	male	black	3.1070433744528456	smiling	082	sub-02	2.0	6.0	082_smiling	0.0		210.79634008187986	
31.0	184.09902377431445	pulse	1.0	t		20.0	male	black	3.1070433744528456	smiling	082	sub-02	2.0	6.0	082_smiling	0.0		211.49632598530297	
32.0	184.26558947085323	face	0.0		147	27.0	male	black	3.5523278949462798	neutral	042	sub-02	2.0	6.0	042_neutral	0.0		211.66289168184176	1.2499561557215202
32.0	184.79900786661437	pulse	0.0	t		27.0	male	black	3.5523278949462798	neutral	042	sub-02	2.0	6.0	042_neutral	0.0		212.1963100776029	
32.0	185.498988034813	pulse	0.0	t		27.0	male	black	3.5523278949462798	neutral	042	sub-02	2.0	6.0	042_neutral	0.0		212.89629024580154	
32.0	185.51554562657475	fix	1.0		443	27.0	male	black	3.5523278949462798	neutral	042	sub-02	2.0	6.0	042_neutral	0.0		212.91284783756328	3.758229216377913
32.0	186.19896458076528	pulse	1.0	t		27.0	male	black	3.5523278949462798	neutral	042	sub-02	2.0	6.0	042_neutral	0.0		213.5962667917538	
32.0	186.89895199345756	pulse	1.0	t		27.0	male	black	3.5523278949462798	neutral	042	sub-02	2.0	6.0	042_neutral	0.0		214.2962542044461	
32.0	187.5989363876115	pulse	1.0	t		27.0	male	black	3.5523278949462798	neutral	042	sub-02	2.0	6.0	042_neutral	0.0		214.99623859860003	
32.0	188.29892380030378	pulse	1.0	t		27.0	male	black	3.5523278949462798	neutral	042	sub-02	2.0	6.0	042_neutral	0.0		215.6962260112923	
32.0	188.99890487406446	pulse	1.0	t		27.0	male	black	3.5523278949462798	neutral	042	sub-02	2.0	6.0	042_neutral	0.0		216.396207085053	
33.0	189.27377484295266	face	0.0		145	31.0	female	east_asian	3.395941106247513	smiling	087	sub-02	2.0	6.0	087_smiling	0.0		216.6710770539412	1.2333194782395367
33.0	189.69891703877693	pulse	0.0	t		31.0	female	east_asian	3.395941106247513	smiling	087	sub-02	2.0	6.0	087_smiling	0.0		217.09621924976545	
33.0	190.39887305866432	pulse	0.0	t		31.0	female	east_asian	3.395941106247513	smiling	087	sub-02	2.0	6.0	087_smiling	0.0		217.79617526965285	
33.0	190.5070943211922	fix	1.0		444	31.0	female	east_asian	3.395941106247513	smiling	087	sub-02	2.0	6.0	087_smiling	0.0		217.90439653218073	3.76656340244881
33.0	191.09886137691865	pulse	1.0	t		31.0	female	east_asian	3.395941106247513	smiling	087	sub-02	2.0	6.0	087_smiling	0.0		218.49616358790718	
33.0	191.79883882843205	pulse	1.0	t		31.0	female	east_asian	3.395941106247513	smiling	087	sub-02	2.0	6.0	087_smiling	0.0		219.19614103942058	
33.0	192.498834089326	pulse	1.0	t		31.0	female	east_asian	3.395941106247513	smiling	087	sub-02	2.0	6.0	087_smiling	0.0		219.89613630031454	
33.0	193.19880852230108	pulse	1.0	t		31.0	female	east_asian	3.395941106247513	smiling	087	sub-02	2.0	6.0	087_smiling	0.0		220.5961107332896	
33.0	193.8987880867926	pulse	1.0	t		31.0	female	east_asian	3.395941106247513	smiling	087	sub-02	2.0	6.0	087_smiling	0.0		221.29609029778112	
34.0	194.273657723641	face	0.0		145	25.0	female	west_asian	2.6756864305610826	neutral	064	sub-02	2.0	6.0	064_neutral	1.0	dominance	221.67095993462954	1.2333191763855211
34.0	194.59877640504692	pulse	0.0	t		25.0	female	west_asian	2.6756864305610826	neutral	064	sub-02	2.0	6.0	064_neutral	1.0	dominance	221.99607861603545	
34.0	195.29875808251472	pulse	0.0	t		25.0	female	west_asian	2.6756864305610826	neutral	064	sub-02	2.0	6.0	064_neutral	1.0	dominance	222.69606029350325	
34.0	195.50697690002653	fix	1.0		177	25.0	female	west_asian	2.6756864305610826	neutral	064	sub-02	2.0	6.0	064_neutral	1.0	dominance	222.90427911101506	1.499952156157633
34.0	195.99874277852268	pulse	1.0	t		25.0	female	west_asian	2.6756864305610826	neutral	064	sub-02	2.0	6.0	064_neutral	1.0	dominance	223.3960449895112	
34.0	196.69871238183532	pulse	1.0	t		25.0	female	west_asian	2.6756864305610826	neutral	064	sub-02	2.0	6.0	064_neutral	1.0	dominance	224.09601459282385	
34.0	197.00692905618416	rating	2.0		295	25.0	female	west_asian	2.6756864305610826	neutral	064	sub-02	2.0	6.0	064_neutral	1.0	dominance	224.4042312671727	2.5082869459356516
34.0	197.39872545210892	pulse	2.0	t		25.0	female	west_asian	2.6756864305610826	neutral	064	sub-02	2.0	6.0	064_neutral	1.0	dominance	224.79602766309745	
34.0	198.0986896220511	pulse	2.0	t		25.0	female	west_asian	2.6756864305610826	neutral	064	sub-02	2.0	6.0	064_neutral	1.0	dominance	225.49599183303962	
34.0	198.23202331760967	response	2.0	n		25.0	female	west_asian	2.6756864305610826	neutral	064	sub-02	2.0	6.0	064_neutral	1.0	dominance	225.6293255285982	
34.0	198.798673412497	pulse	2.0	t		25.0	female	west_asian	2.6756864305610826	neutral	064	sub-02	2.0	6.0	064_neutral	1.0	dominance	226.19597562348554	
34.0	199.49865629738179	pulse	2.0	t		25.0	female	west_asian	2.6756864305610826	neutral	064	sub-02	2.0	6.0	064_neutral	1.0	dominance	226.8959585083703	
34.0	199.51521600211981	fix	3.0		443	25.0	female	west_asian	2.6756864305610826	neutral	064	sub-02	2.0	6.0	064_neutral	1.0	dominance	226.91251821310834	3.758230423793975
34.0	200.1986506527137	pulse	3.0	t		25.0	female	west_asian	2.6756864305610826	neutral	064	sub-02	2.0	6.0	064_neutral	1.0	dominance	227.59595286370222	
34.0	200.8986217652955	pulse	3.0	t		25.0	female	west_asian	2.6756864305610826	neutral	064	sub-02	2.0	6.0	064_neutral	1.0	dominance	228.29592397628403	
34.0	201.59861008354983	pulse	3.0	t		25.0	female	west_asian	2.6756864305610826	neutral	064	sub-02	2.0	6.0	064_neutral	1.0	dominance	228.99591229453836	
34.0	202.29859598697294	pulse	3.0	t		25.0	female	west_asian	2.6756864305610826	neutral	064	sub-02	2.0	6.0	064_neutral	1.0	dominance	229.69589819796147	
34.0	202.99857826814969	pulse	3.0	t		25.0	female	west_asian	2.6756864305610826	neutral	064	sub-02	2.0	6.0	064_neutral	1.0	dominance	230.3958804791382	
35.0	203.2734464259138	face	0.0		145	26.0	female	white	4.854755272582572	smiling	027	sub-02	2.0	6.0	027_smiling	0.0		230.67074863690232	1.2333179689703684
35.0	203.69856296415674	pulse	0.0	t		26.0	female	white	4.854755272582572	smiling	027	sub-02	2.0	6.0	027_smiling	0.0		231.09586517514526	
35.0	204.39854252864825	pulse	0.0	t		26.0	female	white	4.854755272582572	smiling	027	sub-02	2.0	6.0	027_smiling	0.0		231.79584473963678	
35.0	204.50676439488416	fix	1.0		444	26.0	female	white	4.854755272582572	smiling	027	sub-02	2.0	6.0	027_smiling	0.0		231.90406660587269	3.7582904927185155
35.0	205.09852752650932	pulse	1.0	t		26.0	female	white	4.854755272582572	smiling	027	sub-02	2.0	6.0	027_smiling	0.0		232.49582973749784	
35.0	205.798508902124	pulse	1.0	t		26.0	female	white	4.854755272582572	smiling	027	sub-02	2.0	6.0	027_smiling	0.0		233.19581111311254	
35.0	206.4984963148163	pulse	1.0	t		26.0	female	white	4.854755272582572	smiling	027	sub-02	2.0	6.0	027_smiling	0.0		233.89579852580482	
35.0	207.19847618116182	pulse	1.0	t		26.0	female	white	4.854755272582572	smiling	027	sub-02	2.0	6.0	027_smiling	0.0		234.59577839215035	
35.0	207.89845393452924	pulse	1.0	t		26.0	female	white	4.854755272582572	smiling	027	sub-02	2.0	6.0	027_smiling	0.0		235.29575614551777	
36.0	208.26505488760267	face	0.0		146	40.0	male	black	2.408674890569041	neutral	061	sub-02	2.0	6.0	061_neutral	0.0		235.6623570985912	1.2415920861158156
36.0	208.59845704362488	pulse	0.0	t		40.0	male	black	2.408674890569041	neutral	061	sub-02	2.0	6.0	061_neutral	0.0		235.9957592546134	
36.0	209.2984308728919	pulse	0.0	t		40.0	male	black	2.408674890569041	neutral	061	sub-02	2.0	6.0	061_neutral	0.0		236.69573308388044	
36.0	209.5066469737185	fix	1.0		444	40.0	male	black	2.408674890569041	neutral	061	sub-02	2.0	6.0	061_neutral	0.0		236.90394918470702	3.758352070914043
36.0	209.99841134294456	pulse	1.0	t		40.0	male	black	2.408674890569041	neutral	061	sub-02	2.0	6.0	061_neutral	0.0		237.3957135539331	
36.0	210.6983957370985	pulse	1.0	t		40.0	male	black	2.408674890569041	neutral	061	sub-02	2.0	6.0	061_neutral	0.0		238.09569794808704	
36.0	211.39838496091397	pulse	1.0	t		40.0	male	black	2.408674890569041	neutral	061	sub-02	2.0	6.0	061_neutral	0.0		238.7956871719025	
36.0	212.09835064012623	pulse	1.0	t		40.0	male	black	2.408674890569041	neutral	061	sub-02	2.0	6.0	061_neutral	0.0		239.49565285111476	
36.0	212.79835012697458	pulse	1.0	t		40.0	male	black	2.408674890569041	neutral	061	sub-02	2.0	6.0	061_neutral	0.0		240.1956523379631	
37.0	213.26499904463253	face	0.0		146	20.0	male	black	2.609629924393156	smiling	043	sub-02	2.0	6.0	043_smiling	1.0	attractiveness	240.66230125562106	1.2415289986502103
37.0	213.49830131719955	pulse	0.0	t		20.0	male	black	2.609629924393156	smiling	043	sub-02	2.0	6.0	043_smiling	1.0	attractiveness	240.89560352818808	
37.0	214.19831378376512	pulse	0.0	t		20.0	male	black	2.609629924393156	smiling	043	sub-02	2.0	6.0	043_smiling	1.0	attractiveness	241.59561599475364	
37.0	214.50652804328274	fix	1.0		177	20.0	male	black	2.609629924393156	smiling	043	sub-02	2.0	6.0	043_smiling	1.0	attractiveness	241.90383025427127	1.499967248852954
37.0	214.898297272357	pulse	1.0	t		20.0	male	black	2.609629924393156	smiling	043	sub-02	2.0	6.0	043_smiling	1.0	attractiveness	242.29559948334554	
37.0	215.59828317578013	pulse	1.0	t		20.0	male	black	2.609629924393156	smiling	043	sub-02	2.0	6.0	043_smiling	1.0	attractiveness	242.99558538676865	
37.0	216.0064952921357	rating	2.0		294	20.0	male	black	2.609629924393156	smiling	043	sub-02	2.0	6.0	043_smiling	1.0	attractiveness	243.40379750312422	2.4999403838555736
37.0	216.29827119218044	pulse	2.0	t		20.0	male	black	2.609629924393156	smiling	043	sub-02	2.0	6.0	043_smiling	1.0	attractiveness	243.69557340316896	
37.0	216.998251662234	pulse	2.0	t		20.0	male	black	2.609629924393156	smiling	043	sub-02	2.0	6.0	043_smiling	1.0	attractiveness	244.39555387322252	
37.0	217.43465270652723	response	2.0	w		20.0	male	black	2.609629924393156	smiling	043	sub-02	2.0	6.0	043_smiling	1.0	attractiveness	244.83195491751576	
37.0	217.69821100251374	pulse	2.0	t		20.0	male	black	2.609629924393156	smiling	043	sub-02	2.0	6.0	043_smiling	1.0	attractiveness	245.09551321350227	
37.0	218.39821743200173	pulse	2.0	t		20.0	male	black	2.609629924393156	smiling	043	sub-02	2.0	6.0	043_smiling	1.0	attractiveness	245.79551964299026	
37.0	218.50643567599127	fix	3.0		444	20.0	male	black	2.609629924393156	smiling	043	sub-02	2.0	6.0	043_smiling	1.0	attractiveness	245.9037378869798	3.7582464220504335
37.0	219.0982003168856	pulse	3.0	t		20.0	male	black	2.609629924393156	smiling	043	sub-02	2.0	6.0	043_smiling	1.0	attractiveness	246.49550252787412	
37.0	219.7981753535687	pulse	3.0	t		20.0	male	black	2.609629924393156	smiling	043	sub-02	2.0	6.0	043_smiling	1.0	attractiveness	247.19547756455722	
37.0	220.49816246440696	pulse	3.0	t		20.0	male	black	2.609629924393156	smiling	043	sub-02	2.0	6.0	043_smiling	1.0	attractiveness	247.8954646753955	
37.0	221.1981507826613	pulse	3.0	t		20.0	male	black	2.609629924393156	smiling	043	sub-02	2.0	6.0	043_smiling	1.0	attractiveness	248.59545299364981	
37.0	221.89813095086083	pulse	3.0	t		20.0	male	black	2.609629924393156	smiling	043	sub-02	2.0	6.0	043_smiling	1.0	attractiveness	249.29543316184936	
38.0	222.2646820980417	face	0.0		146	25.0	female	black	3.858336649423	neutral	126	sub-02	2.0	6.0	126_neutral	0.0		249.66198430903023	1.2416349493678354
38.0	222.59812108023834	pulse	0.0	t		25.0	female	black	3.858336649423	neutral	126	sub-02	2.0	6.0	126_neutral	0.0		249.99542329122687	
38.0	223.298101550291	pulse	0.0	t		25.0	female	black	3.858336649423	neutral	126	sub-02	2.0	6.0	126_neutral	0.0		250.69540376127952	
38.0	223.50631704740954	fix	1.0		444	25.0	female	black	3.858336649423	neutral	126	sub-02	2.0	6.0	126_neutral	0.0		250.90361925839807	3.758234649748374
38.0	223.99808413332175	pulse	1.0	t		25.0	female	black	3.858336649423	neutral	126	sub-02	2.0	6.0	126_neutral	0.0		251.39538634431028	
38.0	224.69806188668917	pulse	1.0	t		25.0	female	black	3.858336649423	neutral	126	sub-02	2.0	6.0	126_neutral	0.0		252.0953640976777	
38.0	225.39805050679752	pulse	1.0	t		25.0	female	black	3.858336649423	neutral	126	sub-02	2.0	6.0	126_neutral	0.0		252.79535271778605	
38.0	226.0980336935354	pulse	1.0	t		25.0	female	black	3.858336649423	neutral	126	sub-02	2.0	6.0	126_neutral	0.0		253.49533590452393	
38.0	226.79802744515928	pulse	1.0	t		25.0	female	black	3.858336649423	neutral	126	sub-02	2.0	6.0	126_neutral	0.0		254.1953296561478	
39.0	227.2645516971579	face	0.0		146	24.0	female	east_asian	2.9076800636689217	smiling	034	sub-02	2.0	6.0	034_smiling	0.0		254.66185390814644	1.2416485327939881
39.0	227.4980070096508	pulse	0.0	t		24.0	female	east_asian	2.9076800636689217	smiling	034	sub-02	2.0	6.0	034_smiling	0.0		254.89530922063932	
39.0	228.1979844611651	pulse	0.0	t		24.0	female	east_asian	2.9076800636689217	smiling	034	sub-02	2.0	6.0	034_smiling	0.0		255.59528667215363	
39.0	228.5062002299519	fix	1.0		444	24.0	female	east_asian	2.9076800636689217	smiling	034	sub-02	2.0	6.0	034_smiling	0.0		255.90350244094043	3.7499394028309325
39.0	228.89797036458822	pulse	1.0	t		24.0	female	east_asian	2.9076800636689217	smiling	034	sub-02	2.0	6.0	034_smiling	0.0		256.29527257557675	
39.0	229.59794600497844	pulse	1.0	t		24.0	female	east_asian	2.9076800636689217	smiling	034	sub-02	2.0	6.0	034_smiling	0.0		256.99524821596697	
39.0	230.29794669924286	pulse	1.0	t		24.0	female	east_asian	2.9076800636689217	smiling	034	sub-02	2.0	6.0	034_smiling	0.0		257.6952489102314	
39.0	230.99791720811663	pulse	1.0	t		24.0	female	east_asian	2.9076800636689217	smiling	034	sub-02	2.0	6.0	034_smiling	0.0		258.39521941910516	
39.0	231.69791729867302	pulse	1.0	t		24.0	female	east_asian	2.9076800636689217	smiling	034	sub-02	2.0	6.0	034_smiling	0.0		259.09521950966155	
40.0	232.25613963278283	fix	0.0		720													259.65344184377136	5.999832772940863
40.0	232.39797776000796	pulse	0.0	t														259.7952799709965	
40.0	233.09787039057755	pulse	0.0	t														260.4951726015661	
40.0	233.79785448287748	pulse	0.0	t														261.195156693866	
40.0	234.49787328837465	pulse	0.0	t														261.8951754993632	
40.0	235.19781512112877	pulse	0.0	t														262.5951173321173	
40.0	235.89780313752908	pulse	0.0	t														263.2951053485176	
40.0	236.59779839842304	pulse	0.0	t														263.99510060941157	
40.0	237.2977686054437	pulse	0.0	t														264.69507081643224	
40.0	237.99774816993522	pulse	0.0	t														265.39505038092375	
