trial_nr	onset	event_type	phase	response	nr_frames	face_age	face_sex	face_eth	attractiveness	expression	face_id	sub_id	ses	run	trial_type	catch	rating_type	onset_abs	duration
-1.0	0.05632369219074462	fix	0.0		714													25.835419099741557	5.9662831198866115
-1.0	0.7061597397523656	pulse	0.0	t														26.485255147303178	
-1.0	1.4061383986172586	pulse	0.0	t														27.18523380616807	
-1.0	2.106128226110741	pulse	0.0	t														27.885223633661553	
-1.0	2.806107790540409	pulse	0.0	t														28.58520319809122	
-1.0	3.506098523597757	pulse	0.0	t														29.28519393114857	
-1.0	4.206081408429782	pulse	0.0	t														29.985176815980594	
-1.0	4.906071235923264	pulse	0.0	t														30.685166643474076	
-1.0	5.606049291078307	pulse	0.0	t														31.38514469862912	
0.0	6.022606812077356	face	0.0		144	28.0	male	white	3.9076800636689217	smiling	033	sub-11	1.0	6.0	033_smiling	0.0		31.80170221962817	1.2333032786564218
0.0	6.306063870665639	pulse	0.0	t		28.0	male	white	3.9076800636689217	smiling	033	sub-11	1.0	6.0	033_smiling	0.0		32.08515927821645	
0.0	7.00602532380708	pulse	0.0	t		28.0	male	white	3.9076800636689217	smiling	033	sub-11	1.0	6.0	033_smiling	0.0		32.78512073135789	
0.0	7.255910090733778	fix	1.0		445	28.0	male	white	3.9076800636689217	smiling	033	sub-11	1.0	6.0	033_smiling	0.0		33.03500549828459	3.758255049804575
0.0	7.70602028283156	pulse	1.0	t		28.0	male	white	3.9076800636689217	smiling	033	sub-11	1.0	6.0	033_smiling	0.0		33.48511569038237	
0.0	8.406001356534944	pulse	1.0	t		28.0	male	white	3.9076800636689217	smiling	033	sub-11	1.0	6.0	033_smiling	0.0		34.185096764085756	
0.0	9.105978204271196	pulse	1.0	t		28.0	male	white	3.9076800636689217	smiling	033	sub-11	1.0	6.0	033_smiling	0.0		34.88507361182201	
0.0	9.80597225773181	pulse	1.0	t		28.0	male	white	3.9076800636689217	smiling	033	sub-11	1.0	6.0	033_smiling	0.0		35.58506766528262	
0.0	10.505952727725344	pulse	1.0	t		28.0	male	white	3.9076800636689217	smiling	033	sub-11	1.0	6.0	033_smiling	0.0		36.285048135276156	
1.0	11.014165140538353	face	0.0		146	25.0	female	black	3.858336649423	neutral	126	sub-11	1.0	6.0	126_neutral	0.0		36.793260548089165	1.2416405084322832
1.0	11.205945271912242	pulse	0.0	t		25.0	female	black	3.858336649423	neutral	126	sub-11	1.0	6.0	126_neutral	0.0		36.985040679463054	
1.0	11.905931175292608	pulse	0.0	t		25.0	female	black	3.858336649423	neutral	126	sub-11	1.0	6.0	126_neutral	0.0		37.68502658284342	
1.0	12.255805648970636	fix	1.0		445	25.0	female	black	3.858336649423	neutral	126	sub-11	1.0	6.0	126_neutral	0.0		38.03490105652145	3.758252936821009
1.0	12.605913456414783	pulse	1.0	t		25.0	female	black	3.858336649423	neutral	126	sub-11	1.0	6.0	126_neutral	0.0		38.385008863965595	
1.0	13.305908717295097	pulse	1.0	t		25.0	female	black	3.858336649423	neutral	126	sub-11	1.0	6.0	126_neutral	0.0		39.08500412484591	
1.0	14.005880735354367	pulse	1.0	t		25.0	female	black	3.858336649423	neutral	126	sub-11	1.0	6.0	126_neutral	0.0		39.78497614290518	
1.0	14.705874185105131	pulse	1.0	t		25.0	female	black	3.858336649423	neutral	126	sub-11	1.0	6.0	126_neutral	0.0		40.48496959265594	
1.0	15.405847410583192	pulse	1.0	t		25.0	female	black	3.858336649423	neutral	126	sub-11	1.0	6.0	126_neutral	0.0		41.184942818134004	
2.0	16.014058585791645	face	0.0		146	25.0	female	west_asian	2.6756864305610826	smiling	064	sub-11	1.0	6.0	064_smiling	0.0		41.79315399334246	1.2416453381092651
2.0	16.105844180737222	pulse	0.0	t		25.0	female	west_asian	2.6756864305610826	smiling	064	sub-11	1.0	6.0	064_smiling	0.0		41.884939588288034	
2.0	16.805820424763624	pulse	0.0	t		25.0	female	west_asian	2.6756864305610826	smiling	064	sub-11	1.0	6.0	064_smiling	0.0		42.58491583231444	
2.0	17.25570392390091	fix	1.0		445	25.0	female	west_asian	2.6756864305610826	smiling	064	sub-11	1.0	6.0	064_smiling	0.0		43.03479933145172	3.7582465978694017
2.0	17.505815987497954	pulse	1.0	t		25.0	female	west_asian	2.6756864305610826	smiling	064	sub-11	1.0	6.0	064_smiling	0.0		43.284911395048766	
2.0	18.20581788918298	pulse	1.0	t		25.0	female	west_asian	2.6756864305610826	smiling	064	sub-11	1.0	6.0	064_smiling	0.0		43.984913296733794	
2.0	18.905780247889197	pulse	1.0	t		25.0	female	west_asian	2.6756864305610826	smiling	064	sub-11	1.0	6.0	064_smiling	0.0		44.68487565544001	
2.0	19.605764340140013	pulse	1.0	t		25.0	female	west_asian	2.6756864305610826	smiling	064	sub-11	1.0	6.0	064_smiling	0.0		45.384859747690825	
2.0	20.305754771343345	pulse	1.0	t		25.0	female	west_asian	2.6756864305610826	smiling	064	sub-11	1.0	6.0	064_smiling	0.0		46.08485017889416	
3.0	21.01395052177031	face	0.0		147	27.0	female	white	3.504576203740549	neutral	144	sub-11	1.0	6.0	144_neutral	0.0		46.793045929321124	1.2416480548026811
3.0	21.006777244131627	pulse	0.0	t		27.0	female	white	3.504576203740549	neutral	144	sub-11	1.0	6.0	144_neutral	0.0		46.78587265168244	
3.0	21.705728691087643	pulse	0.0	t		27.0	female	white	3.504576203740549	neutral	144	sub-11	1.0	6.0	144_neutral	0.0		47.484824098638455	
3.0	22.255598576572993	fix	1.0		444	27.0	female	white	3.504576203740549	neutral	144	sub-11	1.0	6.0	144_neutral	0.0		48.034693984123805	3.758255049804575
3.0	22.405712481484443	pulse	1.0	t		27.0	female	white	3.504576203740549	neutral	144	sub-11	1.0	6.0	144_neutral	0.0		48.184807889035255	
3.0	23.10569023478547	pulse	1.0	t		27.0	female	white	3.504576203740549	neutral	144	sub-11	1.0	6.0	144_neutral	0.0		48.88478564233628	
3.0	23.805680364132968	pulse	1.0	t		27.0	female	white	3.504576203740549	neutral	144	sub-11	1.0	6.0	144_neutral	0.0		49.58477577168378	
3.0	24.505666871223184	pulse	1.0	t		27.0	female	white	3.504576203740549	neutral	144	sub-11	1.0	6.0	144_neutral	0.0		50.284762278774	
3.0	25.20565096347491	pulse	1.0	t		27.0	female	white	3.504576203740549	neutral	144	sub-11	1.0	6.0	144_neutral	0.0		50.98474637102572	
3.0	25.905637470565125	pulse	1.0	t		27.0	female	white	3.504576203740549	neutral	144	sub-11	1.0	6.0	144_neutral	0.0		51.68473287811594	
4.0	26.013853626377568	face	0.0		147	24.0	male	white	3.1153999204138483	neutral	012	sub-11	1.0	6.0	012_neutral	1.0	dominance	51.79294903392838	1.241642319560924
4.0	26.60562458136428	pulse	0.0	t		24.0	male	white	3.1153999204138483	neutral	012	sub-11	1.0	6.0	012_neutral	1.0	dominance	52.384719988915094	
4.0	27.255495945938492	fix	1.0		176	24.0	male	white	3.1153999204138483	neutral	012	sub-11	1.0	6.0	012_neutral	1.0	dominance	53.034591353489304	1.5083349658643783
4.0	27.305624973775593	pulse	1.0	t		24.0	male	white	3.1153999204138483	neutral	012	sub-11	1.0	6.0	012_neutral	1.0	dominance	53.084720381326406	
4.0	28.00559155844894	pulse	1.0	t		24.0	male	white	3.1153999204138483	neutral	012	sub-11	1.0	6.0	012_neutral	1.0	dominance	53.784686965999754	
4.0	28.705578065539157	pulse	1.0	t		24.0	male	white	3.1153999204138483	neutral	012	sub-11	1.0	6.0	012_neutral	1.0	dominance	54.48467347308997	
4.0	28.76383091180287	rating	2.0		294	24.0	male	white	3.1153999204138483	neutral	012	sub-11	1.0	6.0	012_neutral	1.0	dominance	54.54292631935368	2.491583231482764
4.0	29.400339767770674	pulse	2.0	t		24.0	male	white	3.1153999204138483	neutral	012	sub-11	1.0	6.0	012_neutral	1.0	dominance	55.17943517532149	
4.0	30.10032748227968	pulse	2.0	t		24.0	male	white	3.1153999204138483	neutral	012	sub-11	1.0	6.0	012_neutral	1.0	dominance	55.879422889830494	
4.0	30.800315196789597	pulse	2.0	t		24.0	male	white	3.1153999204138483	neutral	012	sub-11	1.0	6.0	012_neutral	1.0	dominance	56.57941060434041	
4.0	31.013852418958777	response	2.0	b		24.0	male	white	3.1153999204138483	neutral	012	sub-11	1.0	6.0	012_neutral	1.0	dominance	56.79294782650959	
4.0	31.255414143285634	fix	3.0		444	24.0	male	white	3.1153999204138483	neutral	012	sub-11	1.0	6.0	012_neutral	1.0	dominance	57.03450955083645	3.7665838276461727
4.0	31.50551745309349	pulse	3.0	t		24.0	male	white	3.1153999204138483	neutral	012	sub-11	1.0	6.0	012_neutral	1.0	dominance	57.2846128606443	
4.0	32.20550818615084	pulse	3.0	t		24.0	male	white	3.1153999204138483	neutral	012	sub-11	1.0	6.0	012_neutral	1.0	dominance	57.98460359370165	
4.0	32.905491372838696	pulse	3.0	t		24.0	male	white	3.1153999204138483	neutral	012	sub-11	1.0	6.0	012_neutral	1.0	dominance	58.68458678038951	
4.0	33.60550263202276	pulse	3.0	t		24.0	male	white	3.1153999204138483	neutral	012	sub-11	1.0	6.0	012_neutral	1.0	dominance	59.384598039573575	
4.0	34.305489440967904	pulse	3.0	t		24.0	male	white	3.1153999204138483	neutral	012	sub-11	1.0	6.0	012_neutral	1.0	dominance	60.084584848518716	
5.0	35.02199797093181	face	0.0		146	19.0	male	white	2.243931555909272	smiling	130	sub-11	1.0	6.0	130_smiling	0.0		60.80109337848262	1.2333138435742512
5.0	35.008217695271924	pulse	0.0	t		19.0	male	white	2.243931555909272	smiling	130	sub-11	1.0	6.0	130_smiling	0.0		60.787313102822736	
5.0	35.705435288215085	pulse	0.0	t		19.0	male	white	2.243931555909272	smiling	130	sub-11	1.0	6.0	130_smiling	0.0		61.4845306957659	
5.0	36.25531181450606	fix	1.0		443	19.0	male	white	2.243931555909272	smiling	130	sub-11	1.0	6.0	130_smiling	0.0		62.03440722205687	3.7665856387748136
5.0	36.405429643529715	pulse	1.0	t		19.0	male	white	2.243931555909272	smiling	130	sub-11	1.0	6.0	130_smiling	0.0		62.18452505108053	
5.0	37.10540015231527	pulse	1.0	t		19.0	male	white	2.243931555909272	smiling	130	sub-11	1.0	6.0	130_smiling	0.0		62.88449555986608	
5.0	37.80538997980875	pulse	1.0	t		19.0	male	white	2.243931555909272	smiling	130	sub-11	1.0	6.0	130_smiling	0.0		63.584485387359564	
5.0	38.50537467576942	pulse	1.0	t		19.0	male	white	2.243931555909272	smiling	130	sub-11	1.0	6.0	130_smiling	0.0		64.28447008332023	
5.0	39.20535937173099	pulse	1.0	t		19.0	male	white	2.243931555909272	smiling	130	sub-11	1.0	6.0	130_smiling	0.0		64.9844547792818	
5.0	39.90534648253106	pulse	1.0	t		19.0	male	white	2.243931555909272	smiling	130	sub-11	1.0	6.0	130_smiling	0.0		65.68444189008187	
6.0	40.02189745328087	face	0.0		146	22.0	female	west_asian	3.8205332272184642	smiling	066	sub-11	1.0	6.0	066_smiling	0.0		65.80099286083168	1.2333090138972693
6.0	40.605336611878556	pulse	0.0	t		22.0	female	west_asian	3.8205332272184642	smiling	066	sub-11	1.0	6.0	066_smiling	0.0		66.38443201942937	
6.0	41.25520646717814	fix	1.0		444	22.0	female	west_asian	3.8205332272184642	smiling	066	sub-11	1.0	6.0	066_smiling	0.0		67.03430187472895	3.766566018211961
6.0	41.30531527074345	pulse	1.0	t		22.0	female	west_asian	3.8205332272184642	smiling	066	sub-11	1.0	6.0	066_smiling	0.0		67.08441067829426	
6.0	42.00531264460733	pulse	1.0	t		22.0	female	west_asian	3.8205332272184642	smiling	066	sub-11	1.0	6.0	066_smiling	0.0		67.78440805215814	
6.0	42.70529009605252	pulse	1.0	t		22.0	female	west_asian	3.8205332272184642	smiling	066	sub-11	1.0	6.0	066_smiling	0.0		68.48438550360333	
6.0	43.405270566046966	pulse	1.0	t		22.0	female	west_asian	3.8205332272184642	smiling	066	sub-11	1.0	6.0	066_smiling	0.0		69.18436597359778	
6.0	44.10525707313718	pulse	1.0	t		22.0	female	west_asian	3.8205332272184642	smiling	066	sub-11	1.0	6.0	066_smiling	0.0		69.884352480688	
6.0	44.80524388208141	pulse	1.0	t		22.0	female	west_asian	3.8205332272184642	smiling	066	sub-11	1.0	6.0	066_smiling	0.0		70.58433928963223	
7.0	45.0217724853901	face	0.0		145	19.0	female	white	4.298846000795861	neutral	100	sub-11	1.0	6.0	100_neutral	0.0		70.80086789294091	1.2333352752666542
7.0	45.50526510247437	pulse	0.0	t		19.0	female	white	4.298846000795861	neutral	100	sub-11	1.0	6.0	100_neutral	0.0		71.28436051002518	
7.0	46.20521900924541	pulse	0.0	t		19.0	female	white	4.298846000795861	neutral	100	sub-11	1.0	6.0	100_neutral	0.0		71.98431441679622	
7.0	46.255107760656756	fix	1.0		444	19.0	female	white	4.298846000795861	neutral	100	sub-11	1.0	6.0	100_neutral	0.0		72.03420316820757	3.766583223935413
7.0	46.90520883673889	pulse	1.0	t		19.0	female	white	4.298846000795861	neutral	100	sub-11	1.0	6.0	100_neutral	0.0		72.6843042442897	
7.0	47.60518840116856	pulse	1.0	t		19.0	female	white	4.298846000795861	neutral	100	sub-11	1.0	6.0	100_neutral	0.0		73.38428380871937	
7.0	48.30518577503153	pulse	1.0	t		19.0	female	white	4.298846000795861	neutral	100	sub-11	1.0	6.0	100_neutral	0.0		74.08428118258234	
7.0	49.00515749123588	pulse	1.0	t		19.0	female	white	4.298846000795861	neutral	100	sub-11	1.0	6.0	100_neutral	0.0		74.78425289878669	
7.0	49.70514611130966	pulse	1.0	t		19.0	female	white	4.298846000795861	neutral	100	sub-11	1.0	6.0	100_neutral	0.0		75.48424151886047	
8.0	50.02169098459217	face	0.0		145	27.0	male	black	3.5523278949462798	neutral	042	sub-11	1.0	6.0	042_neutral	0.0		75.80078639214298	1.2333102213169695
8.0	50.405134429528516	pulse	0.0	t		27.0	male	black	3.5523278949462798	neutral	042	sub-11	1.0	6.0	042_neutral	0.0		76.18422983707933	
8.0	51.10511127726477	pulse	0.0	t		27.0	male	black	3.5523278949462798	neutral	042	sub-11	1.0	6.0	042_neutral	0.0		76.88420668481558	
8.0	51.25500120590914	fix	1.0		445	27.0	male	black	3.5523278949462798	neutral	042	sub-11	1.0	6.0	042_neutral	0.0		77.03409661345995	3.7665883554682296
8.0	51.80510231217704	pulse	1.0	t		27.0	male	black	3.5523278949462798	neutral	042	sub-11	1.0	6.0	042_neutral	0.0		77.58419771972785	
8.0	52.50508851741233	pulse	1.0	t		27.0	male	black	3.5523278949462798	neutral	042	sub-11	1.0	6.0	042_neutral	0.0		78.28418392496314	
8.0	53.205070194825566	pulse	1.0	t		27.0	male	black	3.5523278949462798	neutral	042	sub-11	1.0	6.0	042_neutral	0.0		78.98416560237638	
8.0	53.90505398522237	pulse	1.0	t		27.0	male	black	3.5523278949462798	neutral	042	sub-11	1.0	6.0	042_neutral	0.0		79.68414939277318	
8.0	54.60503928489379	pulse	1.0	t		27.0	male	black	3.5523278949462798	neutral	042	sub-11	1.0	6.0	042_neutral	0.0		80.3841346924446	
9.0	55.02158956137737	face	0.0		145	20.0	male	black	3.1070433744528456	neutral	082	sub-11	1.0	6.0	082_neutral	0.0		80.80068496892818	1.2333078064784786
9.0	55.30503243278963	pulse	0.0	t		20.0	male	black	3.1070433744528456	neutral	082	sub-11	1.0	6.0	082_neutral	0.0		81.08412784034044	
9.0	56.0050119972193	pulse	0.0	t		20.0	male	black	3.1070433744528456	neutral	082	sub-11	1.0	6.0	082_neutral	0.0		81.78410740477011	
9.0	56.25489736785585	fix	1.0		445	20.0	male	black	3.1070433744528456	neutral	082	sub-11	1.0	6.0	082_neutral	0.0		82.03399277540666	3.7665841295001883
9.0	56.70500454140529	pulse	1.0	t		20.0	male	black	3.1070433744528456	neutral	082	sub-11	1.0	6.0	082_neutral	0.0		82.4840999489561	
9.0	57.4049783705932	pulse	1.0	t		20.0	male	black	3.1070433744528456	neutral	082	sub-11	1.0	6.0	082_neutral	0.0		83.18407377814401	
9.0	58.10497272590874	pulse	1.0	t		20.0	male	black	3.1070433744528456	neutral	082	sub-11	1.0	6.0	082_neutral	0.0		83.88406813345955	
9.0	58.804959232998954	pulse	1.0	t		20.0	male	black	3.1070433744528456	neutral	082	sub-11	1.0	6.0	082_neutral	0.0		84.58405464054977	
9.0	59.50493879742771	pulse	1.0	t		20.0	male	black	3.1070433744528456	neutral	082	sub-11	1.0	6.0	082_neutral	0.0		85.28403420497852	
10.0	60.021481497356035	face	0.0		145	27.0	male	black	3.5523278949462798	smiling	042	sub-11	1.0	6.0	042_smiling	1.0	dominance	85.80057690490685	1.2333186732521426
10.0	60.204931643469536	pulse	0.0	t		27.0	male	black	3.5523278949462798	smiling	042	sub-11	1.0	6.0	042_smiling	1.0	dominance	85.98402705102035	
10.0	60.90490879306071	pulse	0.0	t		27.0	male	black	3.5523278949462798	smiling	042	sub-11	1.0	6.0	042_smiling	1.0	dominance	86.68400420061153	
10.0	61.25480017060818	fix	1.0		177	27.0	male	black	3.5523278949462798	smiling	042	sub-11	1.0	6.0	042_smiling	1.0	dominance	87.03389557815899	1.499966041334119
10.0	61.60489711127957	pulse	1.0	t		27.0	male	black	3.5523278949462798	smiling	042	sub-11	1.0	6.0	042_smiling	1.0	dominance	87.38399251883038	
10.0	62.304883014659936	pulse	1.0	t		27.0	male	black	3.5523278949462798	smiling	042	sub-11	1.0	6.0	042_smiling	1.0	dominance	88.08397842221075	
10.0	62.7547662119423	rating	2.0		294	27.0	male	black	3.5523278949462798	smiling	042	sub-11	1.0	6.0	042_smiling	1.0	dominance	88.53386161949311	2.4999458170623257
10.0	62.99964441503653	pulse	2.0	t		27.0	male	black	3.5523278949462798	smiling	042	sub-11	1.0	6.0	042_smiling	1.0	dominance	88.77873982258734	
10.0	63.6996354499488	pulse	2.0	t		27.0	male	black	3.5523278949462798	smiling	042	sub-11	1.0	6.0	042_smiling	1.0	dominance	89.47873085749961	
10.0	64.39970074114353	pulse	2.0	t		27.0	male	black	3.5523278949462798	smiling	042	sub-11	1.0	6.0	042_smiling	1.0	dominance	90.17879614869435	
10.0	64.41570659229728	response	2.0	y		27.0	male	black	3.5523278949462798	smiling	042	sub-11	1.0	6.0	042_smiling	1.0	dominance	90.1948019998481	
10.0	65.1048202892307	pulse	2.0	t		27.0	male	black	3.5523278949462798	smiling	042	sub-11	1.0	6.0	042_smiling	1.0	dominance	90.88391569678151	
10.0	65.25471202900462	fix	3.0		444	27.0	male	black	3.5523278949462798	smiling	042	sub-11	1.0	6.0	042_smiling	1.0	dominance	91.03380743655543	3.766585638773904
10.0	65.8048116259979	pulse	3.0	t		27.0	male	black	3.5523278949462798	smiling	042	sub-11	1.0	6.0	042_smiling	1.0	dominance	91.58390703354871	
10.0	66.50479692566842	pulse	3.0	t		27.0	male	black	3.5523278949462798	smiling	042	sub-11	1.0	6.0	042_smiling	1.0	dominance	92.28389233321923	
10.0	67.20478131977507	pulse	3.0	t		27.0	male	black	3.5523278949462798	smiling	042	sub-11	1.0	6.0	042_smiling	1.0	dominance	92.98387672732588	
10.0	67.90477114726855	pulse	3.0	t		27.0	male	black	3.5523278949462798	smiling	042	sub-11	1.0	6.0	042_smiling	1.0	dominance	93.68386655481936	
10.0	68.60475403210057	pulse	3.0	t		27.0	male	black	3.5523278949462798	smiling	042	sub-11	1.0	6.0	042_smiling	1.0	dominance	94.38384943965139	
11.0	69.02129766777853	face	0.0		145	24.0	female	east_asian	2.9076800636689217	smiling	034	sub-11	1.0	6.0	034_smiling	1.0	trustworthiness	94.80039307532934	1.2333105231718946
11.0	69.3047432558842	pulse	0.0	t		24.0	female	east_asian	2.9076800636689217	smiling	034	sub-11	1.0	6.0	034_smiling	1.0	trustworthiness	95.08383866343502	
11.0	70.00473670563497	pulse	0.0	t		24.0	female	east_asian	2.9076800636689217	smiling	034	sub-11	1.0	6.0	034_smiling	1.0	trustworthiness	95.78383211318578	
11.0	70.25460819095042	fix	1.0		177	24.0	female	east_asian	2.9076800636689217	smiling	034	sub-11	1.0	6.0	034_smiling	1.0	trustworthiness	96.03370359850123	1.4999699654463257
11.0	70.70471294966137	pulse	1.0	t		24.0	female	east_asian	2.9076800636689217	smiling	034	sub-11	1.0	6.0	034_smiling	1.0	trustworthiness	96.48380835721218	
11.0	71.4046894955427	pulse	1.0	t		24.0	female	east_asian	2.9076800636689217	smiling	034	sub-11	1.0	6.0	034_smiling	1.0	trustworthiness	97.18378490309351	
11.0	71.75457815639675	rating	2.0		294	24.0	female	east_asian	2.9076800636689217	smiling	034	sub-11	1.0	6.0	034_smiling	1.0	trustworthiness	97.53367356394756	2.4999479300458916
11.0	72.09945180148407	pulse	2.0	t		24.0	female	east_asian	2.9076800636689217	smiling	034	sub-11	1.0	6.0	034_smiling	1.0	trustworthiness	97.87854720903488	
11.0	72.7994512883306	pulse	2.0	t		24.0	female	east_asian	2.9076800636689217	smiling	034	sub-11	1.0	6.0	034_smiling	1.0	trustworthiness	98.57854669588141	
11.0	73.34109563031961	response	2.0	g		24.0	female	east_asian	2.9076800636689217	smiling	034	sub-11	1.0	6.0	034_smiling	1.0	trustworthiness	99.12019103787043	
11.0	73.49941606187531	pulse	2.0	t		24.0	female	east_asian	2.9076800636689217	smiling	034	sub-11	1.0	6.0	034_smiling	1.0	trustworthiness	99.27851146942612	
11.0	74.20463763688713	pulse	2.0	t		24.0	female	east_asian	2.9076800636689217	smiling	034	sub-11	1.0	6.0	034_smiling	1.0	trustworthiness	99.98373304443794	
11.0	74.25452608644264	fix	3.0		444	24.0	female	east_asian	2.9076800636689217	smiling	034	sub-11	1.0	6.0	034_smiling	1.0	trustworthiness	100.03362149399345	3.758251427547293
11.0	74.90462776623463	pulse	3.0	t		24.0	female	east_asian	2.9076800636689217	smiling	034	sub-11	1.0	6.0	034_smiling	1.0	trustworthiness	100.68372317378544	
11.0	75.60460642509952	pulse	3.0	t		24.0	female	east_asian	2.9076800636689217	smiling	034	sub-11	1.0	6.0	034_smiling	1.0	trustworthiness	101.38370183265033	
11.0	76.30459655444793	pulse	3.0	t		24.0	female	east_asian	2.9076800636689217	smiling	034	sub-11	1.0	6.0	034_smiling	1.0	trustworthiness	102.08369196199874	
11.0	77.00458125040859	pulse	3.0	t		24.0	female	east_asian	2.9076800636689217	smiling	034	sub-11	1.0	6.0	034_smiling	1.0	trustworthiness	102.7836766579594	
11.0	77.70456111669318	pulse	3.0	t		24.0	female	east_asian	2.9076800636689217	smiling	034	sub-11	1.0	6.0	034_smiling	1.0	trustworthiness	103.483656524244	
12.0	78.01277751398993	face	0.0		146	31.0	female	west_asian	2.364902506963788	neutral	006	sub-11	1.0	6.0	006_neutral	0.0		103.79187292154074	1.24164503625434
12.0	78.40455426458902	pulse	0.0	t		31.0	female	west_asian	2.364902506963788	neutral	006	sub-11	1.0	6.0	006_neutral	0.0		104.18364967213984	
12.0	79.10454469579145	pulse	0.0	t		31.0	female	west_asian	2.364902506963788	neutral	006	sub-11	1.0	6.0	006_neutral	0.0		104.88364010334226	
12.0	79.25442255024427	fix	1.0		445	31.0	female	west_asian	2.364902506963788	neutral	006	sub-11	1.0	6.0	006_neutral	0.0		105.03351795779508	3.766585940628829
12.0	79.80453391957508	pulse	1.0	t		31.0	female	west_asian	2.364902506963788	neutral	006	sub-11	1.0	6.0	006_neutral	0.0		105.58362932712589	
12.0	80.50450684319912	pulse	1.0	t		31.0	female	west_asian	2.364902506963788	neutral	006	sub-11	1.0	6.0	006_neutral	0.0		106.28360225074994	
12.0	81.20447976682317	pulse	1.0	t		31.0	female	west_asian	2.364902506963788	neutral	006	sub-11	1.0	6.0	006_neutral	0.0		106.98357517437398	
12.0	81.90447593326644	pulse	1.0	t		31.0	female	west_asian	2.364902506963788	neutral	006	sub-11	1.0	6.0	006_neutral	0.0		107.68357134081725	
12.0	82.60446093108294	pulse	1.0	t		31.0	female	west_asian	2.364902506963788	neutral	006	sub-11	1.0	6.0	006_neutral	0.0		108.38355633863375	
13.0	83.0210084908731	face	0.0		145	36.0	female	white	2.7548746518105847	smiling	011	sub-11	1.0	6.0	011_smiling	0.0		108.80010389842391	1.2333099194620445
13.0	83.30445407897878	pulse	0.0	t		36.0	female	white	2.7548746518105847	smiling	011	sub-11	1.0	6.0	011_smiling	0.0		109.08354948652959	
13.0	84.00443273784367	pulse	0.0	t		36.0	female	white	2.7548746518105847	smiling	011	sub-11	1.0	6.0	011_smiling	0.0		109.78352814539448	
13.0	84.25431841033515	fix	1.0		444	36.0	female	white	2.7548746518105847	smiling	011	sub-11	1.0	6.0	011_smiling	0.0		110.03341381788596	3.7665850350649634
13.0	84.70443011170664	pulse	1.0	t		36.0	female	white	2.7548746518105847	smiling	011	sub-11	1.0	6.0	011_smiling	0.0		110.48352551925746	
13.0	85.40440726129782	pulse	1.0	t		36.0	female	white	2.7548746518105847	smiling	011	sub-11	1.0	6.0	011_smiling	0.0		111.18350266884863	
13.0	86.10438863685613	pulse	1.0	t		36.0	female	white	2.7548746518105847	smiling	011	sub-11	1.0	6.0	011_smiling	0.0		111.88348404440694	
13.0	86.80437001241444	pulse	1.0	t		36.0	female	white	2.7548746518105847	smiling	011	sub-11	1.0	6.0	011_smiling	0.0		112.58346541996525	
13.0	87.50436014176285	pulse	1.0	t		36.0	female	white	2.7548746518105847	smiling	011	sub-11	1.0	6.0	011_smiling	0.0		113.28345554931366	
14.0	88.02090344540011	face	0.0		145	22.0	female	west_asian	3.8205332272184642	neutral	066	sub-11	1.0	6.0	066_neutral	0.0		113.79999885295092	1.2333120324465199
14.0	88.2043674768347	pulse	0.0	t		22.0	female	west_asian	3.8205332272184642	neutral	066	sub-11	1.0	6.0	066_neutral	0.0		113.98346288438552	
14.0	88.9043322503785	pulse	0.0	t		22.0	female	west_asian	3.8205332272184642	neutral	066	sub-11	1.0	6.0	066_neutral	0.0		114.68342765792931	
14.0	89.25421547784663	fix	1.0		444	22.0	female	west_asian	3.8205332272184642	neutral	066	sub-11	1.0	6.0	066_neutral	0.0		115.03331088539744	3.766588657322245
14.0	89.6043235871457	pulse	1.0	t		22.0	female	west_asian	3.8205332272184642	neutral	066	sub-11	1.0	6.0	066_neutral	0.0		115.38341899469651	
14.0	90.30430647197772	pulse	1.0	t		22.0	female	west_asian	3.8205332272184642	neutral	066	sub-11	1.0	6.0	066_neutral	0.0		116.08340187952854	
14.0	91.0042899605196	pulse	1.0	t		22.0	female	west_asian	3.8205332272184642	neutral	066	sub-11	1.0	6.0	066_neutral	0.0		116.78338536807041	
14.0	91.704304238252	pulse	1.0	t		22.0	female	west_asian	3.8205332272184642	neutral	066	sub-11	1.0	6.0	066_neutral	0.0		117.48339964580282	
14.0	92.4042638802648	pulse	1.0	t		22.0	female	west_asian	3.8205332272184642	neutral	066	sub-11	1.0	6.0	066_neutral	0.0		118.18335928781562	
15.0	93.02080413516887	face	0.0		145	24.0	female	east_asian	4.409868682849185	neutral	030	sub-11	1.0	6.0	030_neutral	0.0		118.79989954271969	1.2333093157521944
15.0	93.10425068920995	pulse	0.0	t		24.0	female	east_asian	4.409868682849185	neutral	030	sub-11	1.0	6.0	030_neutral	0.0		118.88334609676076	
15.0	93.80423417775182	pulse	0.0	t		24.0	female	east_asian	4.409868682849185	neutral	030	sub-11	1.0	6.0	030_neutral	0.0		119.58332958530264	
15.0	94.25411345092107	fix	1.0		444	24.0	female	east_asian	4.409868682849185	neutral	030	sub-11	1.0	6.0	030_neutral	0.0		120.03320885847188	3.766579601679041
15.0	94.50422068484204	pulse	1.0	t		24.0	female	east_asian	4.409868682849185	neutral	030	sub-11	1.0	6.0	030_neutral	0.0		120.28331609239285	
15.0	95.20420568265763	pulse	1.0	t		24.0	female	east_asian	4.409868682849185	neutral	030	sub-11	1.0	6.0	030_neutral	0.0		120.98330109020844	
15.0	95.9041852470873	pulse	1.0	t		24.0	female	east_asian	4.409868682849185	neutral	030	sub-11	1.0	6.0	030_neutral	0.0		121.68328065463811	
15.0	96.60418141353148	pulse	1.0	t		24.0	female	east_asian	4.409868682849185	neutral	030	sub-11	1.0	6.0	030_neutral	0.0		122.38327682108229	
15.0	97.3041567519931	pulse	1.0	t		24.0	female	east_asian	4.409868682849185	neutral	030	sub-11	1.0	6.0	030_neutral	0.0		123.08325215954392	
16.0	98.02069305260011	face	0.0		146	19.0	male	white	3.2522881018702745	neutral	018	sub-11	1.0	6.0	018_neutral	0.0		123.79978846015092	1.2333144472841013
16.0	98.00709087127598	pulse	0.0	t		19.0	male	white	3.2522881018702745	neutral	018	sub-11	1.0	6.0	018_neutral	0.0		123.78618627882679	
16.0	98.70413519956037	pulse	0.0	t		19.0	male	white	3.2522881018702745	neutral	018	sub-11	1.0	6.0	018_neutral	0.0		124.48323060711118	
16.0	99.25400749988421	fix	1.0		443	19.0	male	white	3.2522881018702745	neutral	018	sub-11	1.0	6.0	018_neutral	0.0		125.03310290743502	3.7665868461936043
16.0	99.4041168769736	pulse	1.0	t		19.0	male	white	3.2522881018702745	neutral	018	sub-11	1.0	6.0	018_neutral	0.0		125.18321228452442	
16.0	100.10412240091682	pulse	1.0	t		19.0	male	white	3.2522881018702745	neutral	018	sub-11	1.0	6.0	018_neutral	0.0		125.88321780846763	
16.0	100.80408626889584	pulse	1.0	t		19.0	male	white	3.2522881018702745	neutral	018	sub-11	1.0	6.0	018_neutral	0.0		126.58318167644666	
16.0	101.5040718704222	pulse	1.0	t		19.0	male	white	3.2522881018702745	neutral	018	sub-11	1.0	6.0	018_neutral	0.0		127.283167277973	
16.0	102.20406139605984	pulse	1.0	t		19.0	male	white	3.2522881018702745	neutral	018	sub-11	1.0	6.0	018_neutral	0.0		127.98315680361065	
16.0	102.90404458274679	pulse	1.0	t		19.0	male	white	3.2522881018702745	neutral	018	sub-11	1.0	6.0	018_neutral	0.0		128.6831399902976	
17.0	103.02059434607781	face	0.0		146	28.0	male	east_asian	1.5563072025467568	smiling	005	sub-11	1.0	6.0	005_smiling	0.0		128.79968975362863	1.2333102213169695
17.0	103.60403561765906	pulse	0.0	t		28.0	male	east_asian	1.5563072025467568	smiling	005	sub-11	1.0	6.0	005_smiling	0.0		129.38313102520988	
17.0	104.25390456739478	fix	1.0		443	28.0	male	east_asian	1.5563072025467568	smiling	005	sub-11	1.0	6.0	005_smiling	0.0		130.0329999749456	3.7665877517583795
17.0	104.30401548394366	pulse	1.0	t		28.0	male	east_asian	1.5563072025467568	smiling	005	sub-11	1.0	6.0	005_smiling	0.0		130.08311089149447	
17.0	105.00399957619538	pulse	1.0	t		28.0	male	east_asian	1.5563072025467568	smiling	005	sub-11	1.0	6.0	005_smiling	0.0		130.7830949837462	
17.0	105.70398185731847	pulse	1.0	t		28.0	male	east_asian	1.5563072025467568	smiling	005	sub-11	1.0	6.0	005_smiling	0.0		131.48307726486928	
17.0	106.40396685513406	pulse	1.0	t		28.0	male	east_asian	1.5563072025467568	smiling	005	sub-11	1.0	6.0	005_smiling	0.0		132.18306226268487	
17.0	107.10395547520784	pulse	1.0	t		28.0	male	east_asian	1.5563072025467568	smiling	005	sub-11	1.0	6.0	005_smiling	0.0		132.88305088275865	
17.0	107.8039501323783	pulse	1.0	t		28.0	male	east_asian	1.5563072025467568	smiling	005	sub-11	1.0	6.0	005_smiling	0.0		133.58304553992912	
18.0	108.02049231915316	face	0.0		144	22.0	male	black	2.767608436132113	smiling	044	sub-11	1.0	6.0	044_smiling	0.0		133.79958772670398	1.2333078064784786
18.0	108.25393626214918	response	0.0	w		22.0	male	black	2.767608436132113	smiling	044	sub-11	1.0	6.0	044_smiling	0.0		134.0330316697	
18.0	108.50392275414652	pulse	0.0	t		22.0	male	black	2.767608436132113	smiling	044	sub-11	1.0	6.0	044_smiling	0.0		134.28301816169733	
18.0	109.20390805381794	pulse	0.0	t		22.0	male	black	2.767608436132113	smiling	044	sub-11	1.0	6.0	044_smiling	0.0		134.98300346136875	
18.0	109.25380012563164	fix	1.0		445	22.0	male	black	2.767608436132113	smiling	044	sub-11	1.0	6.0	044_smiling	0.0		135.03289553318245	3.766588657322245
18.0	109.90390331469735	pulse	1.0	t		22.0	male	black	2.767608436132113	smiling	044	sub-11	1.0	6.0	044_smiling	0.0		135.68299872224816	
18.0	110.60388740694907	pulse	1.0	t		22.0	male	black	2.767608436132113	smiling	044	sub-11	1.0	6.0	044_smiling	0.0		136.38298281449988	
18.0	111.30386425468532	pulse	1.0	t		22.0	male	black	2.767608436132113	smiling	044	sub-11	1.0	6.0	044_smiling	0.0		137.08295966223614	
18.0	112.00385498774267	pulse	1.0	t		22.0	male	black	2.767608436132113	smiling	044	sub-11	1.0	6.0	044_smiling	0.0		137.78295039529348	
18.0	112.70383757072068	pulse	1.0	t		22.0	male	black	2.767608436132113	smiling	044	sub-11	1.0	6.0	044_smiling	0.0		138.4829329782715	
19.0	113.02038878295389	face	0.0		145	26.0	male	white	2.7966573816155993	smiling	117	sub-11	1.0	6.0	117_smiling	0.0		138.7994841905047	1.2333087120432538
19.0	113.40382830377803	pulse	0.0	t		26.0	male	white	2.7966573816155993	smiling	117	sub-11	1.0	6.0	117_smiling	0.0		139.18292371132884	
19.0	114.10380937748141	pulse	0.0	t		26.0	male	white	2.7966573816155993	smiling	117	sub-11	1.0	6.0	117_smiling	0.0		139.88290478503222	
19.0	114.25369749499714	fix	1.0		445	26.0	male	white	2.7966573816155993	smiling	117	sub-11	1.0	6.0	117_smiling	0.0		140.03279290254795	3.7665892610320952
19.0	114.80381309029508	pulse	1.0	t		26.0	male	white	2.7966573816155993	smiling	117	sub-11	1.0	6.0	117_smiling	0.0		140.5829084978459	
19.0	115.50378148609707	pulse	1.0	t		26.0	male	white	2.7966573816155993	smiling	117	sub-11	1.0	6.0	117_smiling	0.0		141.28287689364788	
19.0	116.20376738947743	pulse	1.0	t		26.0	male	white	2.7966573816155993	smiling	117	sub-11	1.0	6.0	117_smiling	0.0		141.98286279702825	
19.0	116.9037659707601	pulse	1.0	t		26.0	male	white	2.7966573816155993	smiling	117	sub-11	1.0	6.0	117_smiling	0.0		142.68286137831092	
19.0	117.60374191293158	pulse	1.0	t		26.0	male	white	2.7966573816155993	smiling	117	sub-11	1.0	6.0	117_smiling	0.0		143.3828373204824	
20.0	118.02028675602924	face	0.0		145	40.0	male	white	1.868682849184242	neutral	172	sub-11	1.0	6.0	172_neutral	0.0		143.79938216358005	1.2333078064784786
20.0	118.30372902373165	pulse	0.0	t		40.0	male	white	1.868682849184242	neutral	172	sub-11	1.0	6.0	172_neutral	0.0		144.08282443128246	
20.0	119.0037070788876	pulse	0.0	t		40.0	male	white	1.868682849184242	neutral	172	sub-11	1.0	6.0	172_neutral	0.0		144.7828024864384	
20.0	119.25359456250771	fix	1.0		1185	40.0	male	white	1.868682849184242	neutral	172	sub-11	1.0	6.0	172_neutral	0.0		145.03268997005853	10.008201998822187
20.0	119.70370203791208	pulse	1.0	t		40.0	male	white	1.868682849184242	neutral	172	sub-11	1.0	6.0	172_neutral	0.0		145.4827974454629	
20.0	120.40368069677697	pulse	1.0	t		40.0	male	white	1.868682849184242	neutral	172	sub-11	1.0	6.0	172_neutral	0.0		146.1827761043278	
20.0	121.10366720386719	pulse	1.0	t		40.0	male	white	1.868682849184242	neutral	172	sub-11	1.0	6.0	172_neutral	0.0		146.882762611418	
20.0	121.80364707015178	pulse	1.0	t		40.0	male	white	1.868682849184242	neutral	172	sub-11	1.0	6.0	172_neutral	0.0		147.5827424777026	
20.0	122.50363961433777	pulse	1.0	t		40.0	male	white	1.868682849184242	neutral	172	sub-11	1.0	6.0	172_neutral	0.0		148.28273502188858	
20.0	123.20362280102472	pulse	1.0	t		40.0	male	white	1.868682849184242	neutral	172	sub-11	1.0	6.0	172_neutral	0.0		148.98271820857553	
20.0	123.90360779884122	pulse	1.0	t		40.0	male	white	1.868682849184242	neutral	172	sub-11	1.0	6.0	172_neutral	0.0		149.68270320639203	
20.0	124.60359611706008	pulse	1.0	t		40.0	male	white	1.868682849184242	neutral	172	sub-11	1.0	6.0	172_neutral	0.0		150.3826915246109	
20.0	125.30358081302165	pulse	1.0	t		40.0	male	white	1.868682849184242	neutral	172	sub-11	1.0	6.0	172_neutral	0.0		151.08267622057247	
20.0	126.00356339599875	pulse	1.0	t		40.0	male	white	1.868682849184242	neutral	172	sub-11	1.0	6.0	172_neutral	0.0		151.78265880354957	
20.0	126.70355050679882	pulse	1.0	t		40.0	male	white	1.868682849184242	neutral	172	sub-11	1.0	6.0	172_neutral	0.0		152.48264591434963	
20.0	127.40353580646934	pulse	1.0	t		40.0	male	white	1.868682849184242	neutral	172	sub-11	1.0	6.0	172_neutral	0.0		153.18263121402015	
20.0	128.10352080428584	pulse	1.0	t		40.0	male	white	1.868682849184242	neutral	172	sub-11	1.0	6.0	172_neutral	0.0		153.88261621183665	
20.0	128.803507915085	pulse	1.0	t		40.0	male	white	1.868682849184242	neutral	172	sub-11	1.0	6.0	172_neutral	0.0		154.5826033226358	
21.0	129.2617965613299	face	0.0		146	20.0	male	black	2.609629924393156	neutral	043	sub-11	1.0	6.0	043_neutral	0.0		155.04089196888071	1.2415647428751981
21.0	129.50349412032028	pulse	0.0	t		20.0	male	black	2.609629924393156	neutral	043	sub-11	1.0	6.0	043_neutral	0.0		155.2825895278711	
21.0	130.2034767032983	pulse	0.0	t		20.0	male	black	2.609629924393156	neutral	043	sub-11	1.0	6.0	043_neutral	0.0		155.9825721108491	
21.0	130.5033613042051	fix	1.0		444	20.0	male	black	2.609629924393156	neutral	043	sub-11	1.0	6.0	043_neutral	0.0		156.2824567117559	3.7665880536133045
21.0	130.9034680400655	pulse	1.0	t		20.0	male	black	2.609629924393156	neutral	043	sub-11	1.0	6.0	043_neutral	0.0		156.6825634476163	
21.0	131.60345213231722	pulse	1.0	t		20.0	male	black	2.609629924393156	neutral	043	sub-11	1.0	6.0	043_neutral	0.0		157.38254753986803	
21.0	132.3034419598098	pulse	1.0	t		20.0	male	black	2.609629924393156	neutral	043	sub-11	1.0	6.0	043_neutral	0.0		158.0825373673606	
21.0	133.00341639270755	pulse	1.0	t		20.0	male	black	2.609629924393156	neutral	043	sub-11	1.0	6.0	043_neutral	0.0		158.78251180025836	
21.0	133.70340622020103	pulse	1.0	t		20.0	male	black	2.609629924393156	neutral	043	sub-11	1.0	6.0	043_neutral	0.0		159.48250162775184	
22.0	134.2699493578184	face	0.0		145	24.0	female	east_asian	4.409868682849185	smiling	030	sub-11	1.0	6.0	030_smiling	0.0		160.04904476536922	1.2333078064784786
22.0	134.4034011792255	pulse	0.0	t		24.0	female	east_asian	4.409868682849185	smiling	030	sub-11	1.0	6.0	030_smiling	0.0		160.18249658677632	
22.0	135.10338195107397	pulse	0.0	t		24.0	female	east_asian	4.409868682849185	smiling	030	sub-11	1.0	6.0	030_smiling	0.0		160.88247735862478	
22.0	135.50325716429688	fix	1.0		444	24.0	female	east_asian	4.409868682849185	smiling	030	sub-11	1.0	6.0	030_smiling	0.0		161.2823525718477	3.7665904684517955
22.0	135.8033750989698	pulse	1.0	t		24.0	female	east_asian	4.409868682849185	smiling	030	sub-11	1.0	6.0	030_smiling	0.0		161.58247050652062	
22.0	136.50334892815863	pulse	1.0	t		24.0	female	east_asian	4.409868682849185	smiling	030	sub-11	1.0	6.0	030_smiling	0.0		162.28244433570944	
22.0	137.20333211484558	pulse	1.0	t		24.0	female	east_asian	4.409868682849185	smiling	030	sub-11	1.0	6.0	030_smiling	0.0		162.9824275223964	
22.0	137.90331801822595	pulse	1.0	t		24.0	female	east_asian	4.409868682849185	smiling	030	sub-11	1.0	6.0	030_smiling	0.0		163.68241342577676	
22.0	138.6033048271711	pulse	1.0	t		24.0	female	east_asian	4.409868682849185	smiling	030	sub-11	1.0	6.0	030_smiling	0.0		164.3824002347219	
23.0	139.26984763274868	face	0.0		145	21.0	male	east_asian/white	3.501790688420215	neutral	036	sub-11	1.0	6.0	036_neutral	0.0		165.0489430402995	1.2333065990587784
23.0	139.30338521110662	pulse	0.0	t		21.0	male	east_asian/white	3.501790688420215	neutral	036	sub-11	1.0	6.0	036_neutral	0.0		165.08248061865743	
23.0	140.00327663393182	pulse	0.0	t		21.0	male	east_asian/white	3.501790688420215	neutral	036	sub-11	1.0	6.0	036_neutral	0.0		165.78237204148263	
23.0	140.50315423180746	fix	1.0		443	21.0	male	east_asian/white	3.501790688420215	neutral	036	sub-11	1.0	6.0	036_neutral	0.0		166.28224963935827	3.7665895628870203
23.0	140.70326827255394	pulse	1.0	t		21.0	male	east_asian/white	3.501790688420215	neutral	036	sub-11	1.0	6.0	036_neutral	0.0		166.48236368010475	
23.0	141.4032439128714	pulse	1.0	t		21.0	male	east_asian/white	3.501790688420215	neutral	036	sub-11	1.0	6.0	036_neutral	0.0		167.18233932042222	
23.0	142.10323706076724	pulse	1.0	t		21.0	male	east_asian/white	3.501790688420215	neutral	036	sub-11	1.0	6.0	036_neutral	0.0		167.88233246831805	
23.0	142.8032305105171	pulse	1.0	t		21.0	male	east_asian/white	3.501790688420215	neutral	036	sub-11	1.0	6.0	036_neutral	0.0		168.5823259180679	
23.0	143.50320524526978	pulse	1.0	t		21.0	male	east_asian/white	3.501790688420215	neutral	036	sub-11	1.0	6.0	036_neutral	0.0		169.2823006528206	
23.0	144.20319024308628	pulse	1.0	t		21.0	male	east_asian/white	3.501790688420215	neutral	036	sub-11	1.0	6.0	036_neutral	0.0		169.9822856506371	
24.0	144.26974379469448	face	0.0		146	40.0	male	black	2.408674890569041	smiling	061	sub-11	1.0	6.0	061_smiling	0.0		170.0488392022453	1.2333084101883287
24.0	144.90318037243378	pulse	0.0	t		40.0	male	black	2.408674890569041	smiling	061	sub-11	1.0	6.0	061_smiling	0.0		170.6822757799846	
24.0	145.5030522048828	fix	1.0		443	40.0	male	black	2.408674890569041	smiling	061	sub-11	1.0	6.0	061_smiling	0.0		171.28214761243362	3.7665898647419453
24.0	145.60316537025028	pulse	1.0	t		40.0	male	black	2.408674890569041	smiling	061	sub-11	1.0	6.0	061_smiling	0.0		171.3822607778011	
24.0	146.30314614209874	pulse	1.0	t		40.0	male	black	2.408674890569041	smiling	061	sub-11	1.0	6.0	061_smiling	0.0		172.08224154964955	
24.0	147.00312721580212	pulse	1.0	t		40.0	male	black	2.408674890569041	smiling	061	sub-11	1.0	6.0	061_smiling	0.0		172.78222262335294	
24.0	147.70312036369796	pulse	1.0	t		40.0	male	black	2.408674890569041	smiling	061	sub-11	1.0	6.0	061_smiling	0.0		173.48221577124878	
24.0	148.4031032485309	pulse	1.0	t		40.0	male	black	2.408674890569041	smiling	061	sub-11	1.0	6.0	061_smiling	0.0		174.1821986560817	
24.0	149.1031099798929	pulse	1.0	t		40.0	male	black	2.408674890569041	smiling	061	sub-11	1.0	6.0	061_smiling	0.0		174.88220538744372	
25.0	149.26964206962475	face	0.0		146	31.0	female	white	2.1822522881018704	neutral	102	sub-11	1.0	6.0	102_neutral	0.0		175.04873747717556	1.2333072027686285
25.0	149.80309195916107	pulse	0.0	t		31.0	female	white	2.1822522881018704	neutral	102	sub-11	1.0	6.0	102_neutral	0.0		175.58218736671188	
25.0	150.50294927239338	fix	1.0		444	31.0	female	white	2.1822522881018704	neutral	102	sub-11	1.0	6.0	102_neutral	0.0		176.2820446799442	3.7665892610320952
25.0	150.51040901024498	pulse	1.0	t		31.0	female	white	2.1822522881018704	neutral	102	sub-11	1.0	6.0	102_neutral	0.0		176.2895044177958	
25.0	151.20305682326125	pulse	1.0	t		31.0	female	white	2.1822522881018704	neutral	102	sub-11	1.0	6.0	102_neutral	0.0		176.98215223081206	
25.0	151.9030285394656	pulse	1.0	t		31.0	female	white	2.1822522881018704	neutral	102	sub-11	1.0	6.0	102_neutral	0.0		177.6821239470164	
25.0	152.6030388930858	pulse	1.0	t		31.0	female	white	2.1822522881018704	neutral	102	sub-11	1.0	6.0	102_neutral	0.0		178.3821343006366	
25.0	153.30300396848452	pulse	1.0	t		31.0	female	white	2.1822522881018704	neutral	102	sub-11	1.0	6.0	102_neutral	0.0		179.08209937603533	
25.0	154.0029862496076	pulse	1.0	t		31.0	female	white	2.1822522881018704	neutral	102	sub-11	1.0	6.0	102_neutral	0.0		179.78208165715841	
26.0	154.26953853342548	face	0.0		145	20.0	male	black	3.1070433744528456	smiling	082	sub-11	1.0	6.0	082_smiling	0.0		180.0486339409763	1.233306900914613
26.0	154.70297668081002	pulse	0.0	t		20.0	male	black	3.1070433744528456	smiling	082	sub-11	1.0	6.0	082_smiling	0.0		180.48207208836084	
26.0	155.402949906289	pulse	0.0	t		20.0	male	black	3.1070433744528456	smiling	082	sub-11	1.0	6.0	082_smiling	0.0		181.1820453138398	
26.0	155.5028454343401	fix	1.0		445	20.0	male	black	3.1070433744528456	smiling	082	sub-11	1.0	6.0	082_smiling	0.0		181.2819408418909	3.7665874499034544
26.0	156.10294728015197	pulse	1.0	t		20.0	male	black	3.1070433744528456	smiling	082	sub-11	1.0	6.0	082_smiling	0.0		181.88204268770278	
26.0	156.80292624087178	pulse	1.0	t		20.0	male	black	3.1070433744528456	smiling	082	sub-11	1.0	6.0	082_smiling	0.0		182.5820216484226	
26.0	157.5029103331235	pulse	1.0	t		20.0	male	black	3.1070433744528456	smiling	082	sub-11	1.0	6.0	082_smiling	0.0		183.28200574067432	
26.0	158.2029128385184	pulse	1.0	t		20.0	male	black	3.1070433744528456	smiling	082	sub-11	1.0	6.0	082_smiling	0.0		183.9820082460692	
26.0	158.902887875126	pulse	1.0	t		20.0	male	black	3.1070433744528456	smiling	082	sub-11	1.0	6.0	082_smiling	0.0		184.6819832826768	
27.0	159.26943288424354	face	0.0		145	26.0	male	white	2.7966573816155993	neutral	117	sub-11	1.0	6.0	117_neutral	0.0		185.04852829179436	1.2333081083334037
27.0	159.60287226923265	pulse	0.0	t		26.0	male	white	2.7966573816155993	neutral	117	sub-11	1.0	6.0	117_neutral	0.0		185.38196767678346	
27.0	160.30286028559658	pulse	0.0	t		26.0	male	white	2.7966573816155993	neutral	117	sub-11	1.0	6.0	117_neutral	0.0		186.0819556931474	
27.0	160.50274099257695	fix	1.0		444	26.0	male	white	2.7966573816155993	neutral	117	sub-11	1.0	6.0	117_neutral	0.0		186.28183640012776	3.766590166595961
27.0	161.0028443778483	pulse	1.0	t		26.0	male	white	2.7966573816155993	neutral	117	sub-11	1.0	6.0	117_neutral	0.0		186.78193978539912	
27.0	161.7028266589714	pulse	1.0	t		26.0	male	white	2.7966573816155993	neutral	117	sub-11	1.0	6.0	117_neutral	0.0		187.4819220665222	
27.0	162.40281407162547	pulse	1.0	t		26.0	male	white	2.7966573816155993	neutral	117	sub-11	1.0	6.0	117_neutral	0.0		188.18190947917628	
27.0	163.10279605089363	pulse	1.0	t		26.0	male	white	2.7966573816155993	neutral	117	sub-11	1.0	6.0	117_neutral	0.0		188.88189145844444	
27.0	163.80278859507962	pulse	1.0	t		26.0	male	white	2.7966573816155993	neutral	117	sub-11	1.0	6.0	117_neutral	0.0		189.58188400263043	
28.0	164.2693311591729	face	0.0		145	25.0	female	west_asian	2.6756864305610826	neutral	064	sub-11	1.0	6.0	064_neutral	0.0		190.04842656672372	1.2333059953498378
28.0	164.50277630958954	pulse	0.0	t		25.0	female	west_asian	2.6756864305610826	neutral	064	sub-11	1.0	6.0	064_neutral	0.0		190.28187171714035	
28.0	165.2027597981314	pulse	0.0	t		25.0	female	west_asian	2.6756864305610826	neutral	064	sub-11	1.0	6.0	064_neutral	0.0		190.98185520568222	
28.0	165.50263715452274	fix	1.0		444	25.0	female	west_asian	2.6756864305610826	neutral	064	sub-11	1.0	6.0	064_neutral	0.0		191.28173256207356	3.7665907703067205
28.0	165.9027435885282	pulse	1.0	t		25.0	female	west_asian	2.6756864305610826	neutral	064	sub-11	1.0	6.0	064_neutral	0.0		191.68183899607902	
28.0	166.60272768077994	pulse	1.0	t		25.0	female	west_asian	2.6756864305610826	neutral	064	sub-11	1.0	6.0	064_neutral	0.0		192.38182308833075	
28.0	167.30271267859553	pulse	1.0	t		25.0	female	west_asian	2.6756864305610826	neutral	064	sub-11	1.0	6.0	064_neutral	0.0		193.08180808614634	
28.0	168.00270160052423	pulse	1.0	t		25.0	female	west_asian	2.6756864305610826	neutral	064	sub-11	1.0	6.0	064_neutral	0.0		193.78179700807505	
28.0	168.70268327793747	pulse	1.0	t		25.0	female	west_asian	2.6756864305610826	neutral	064	sub-11	1.0	6.0	064_neutral	0.0		194.48177868548828	
29.0	169.26922792482947	face	0.0		145	40.0	male	white	1.868682849184242	smiling	172	sub-11	1.0	6.0	172_smiling	0.0		195.04832333238028	1.2333099194620445
29.0	169.40268699075204	pulse	0.0	t		40.0	male	white	1.868682849184242	smiling	172	sub-11	1.0	6.0	172_smiling	0.0		195.18178239830286	
29.0	170.10267681824462	pulse	0.0	t		40.0	male	white	1.868682849184242	smiling	172	sub-11	1.0	6.0	172_smiling	0.0		195.88177222579543	
29.0	170.5025378442915	fix	1.0		444	40.0	male	white	1.868682849184242	smiling	172	sub-11	1.0	6.0	172_smiling	0.0		196.28163325184232	3.7582568609332156
29.0	170.80264310106304	pulse	1.0	t		40.0	male	white	1.868682849184242	smiling	172	sub-11	1.0	6.0	172_smiling	0.0		196.58173850861385	
29.0	171.50262236363778	pulse	1.0	t		40.0	male	white	1.868682849184242	smiling	172	sub-11	1.0	6.0	172_smiling	0.0		197.2817177711886	
29.0	172.20260917258202	pulse	1.0	t		40.0	male	white	1.868682849184242	smiling	172	sub-11	1.0	6.0	172_smiling	0.0		197.98170458013283	
29.0	172.90259567967223	pulse	1.0	t		40.0	male	white	1.868682849184242	smiling	172	sub-11	1.0	6.0	172_smiling	0.0		198.68169108722304	
29.0	173.60258128119858	pulse	1.0	t		40.0	male	white	1.868682849184242	smiling	172	sub-11	1.0	6.0	172_smiling	0.0		199.3816766887494	
30.0	174.26079470522473	face	0.0		146	22.0	male	black	2.767608436132113	neutral	044	sub-11	1.0	6.0	044_neutral	0.0		200.03989011277554	1.2416365843200765
30.0	174.30257473094844	pulse	0.0	t		22.0	male	black	2.767608436132113	neutral	044	sub-11	1.0	6.0	044_neutral	0.0		200.08167013849925	
30.0	175.0025567102166	pulse	0.0	t		22.0	male	black	2.767608436132113	neutral	044	sub-11	1.0	6.0	044_neutral	0.0		200.7816521177674	
30.0	175.5024312895448	fix	1.0		443	22.0	male	black	2.767608436132113	neutral	044	sub-11	1.0	6.0	044_neutral	0.0		201.28152669709561	3.766590770305811
30.0	175.7025441228716	pulse	1.0	t		22.0	male	black	2.767608436132113	neutral	044	sub-11	1.0	6.0	044_neutral	0.0		201.4816395304224	
30.0	176.40252127246276	pulse	1.0	t		22.0	male	black	2.767608436132113	neutral	044	sub-11	1.0	6.0	044_neutral	0.0		202.18161668001358	
30.0	177.10251109995534	pulse	1.0	t		22.0	male	black	2.767608436132113	neutral	044	sub-11	1.0	6.0	044_neutral	0.0		202.88160650750615	
30.0	177.80249519220706	pulse	1.0	t		22.0	male	black	2.767608436132113	neutral	044	sub-11	1.0	6.0	044_neutral	0.0		203.58159059975787	
30.0	178.5024792844588	pulse	1.0	t		22.0	male	black	2.767608436132113	neutral	044	sub-11	1.0	6.0	044_neutral	0.0		204.2815746920096	
30.0	179.20246156558187	pulse	1.0	t		22.0	male	black	2.767608436132113	neutral	044	sub-11	1.0	6.0	044_neutral	0.0		204.98155697313268	
31.0	179.2690220598506	face	0.0		146	21.0	male	black	2.969757262236371	smiling	137	sub-11	1.0	6.0	137_smiling	0.0		205.04811746740143	1.2333038823662719
31.0	179.90245893944484	pulse	0.0	t		21.0	male	black	2.969757262236371	smiling	137	sub-11	1.0	6.0	137_smiling	0.0		205.68155434699565	
31.0	180.50232594221688	fix	1.0		443	21.0	male	black	2.969757262236371	smiling	137	sub-11	1.0	6.0	137_smiling	0.0		206.2814213497677	3.7665919777255112
31.0	180.60244393726043	pulse	1.0	t		21.0	male	black	2.969757262236371	smiling	137	sub-11	1.0	6.0	137_smiling	0.0		206.38153934481124	
31.0	181.30241987943282	pulse	1.0	t		21.0	male	black	2.969757262236371	smiling	137	sub-11	1.0	6.0	137_smiling	0.0		207.08151528698363	
31.0	182.00240910321645	pulse	1.0	t		21.0	male	black	2.969757262236371	smiling	137	sub-11	1.0	6.0	137_smiling	0.0		207.78150451076726	
31.0	182.7024022511123	pulse	1.0	t		21.0	male	black	2.969757262236371	smiling	137	sub-11	1.0	6.0	137_smiling	0.0		208.4814976586631	
31.0	183.4023784951387	pulse	1.0	t		21.0	male	black	2.969757262236371	smiling	137	sub-11	1.0	6.0	137_smiling	0.0		209.1814739026895	
31.0	184.1023698319059	pulse	1.0	t		21.0	male	black	2.969757262236371	smiling	137	sub-11	1.0	6.0	137_smiling	0.0		209.8814652394567	
32.0	184.2689179199424	face	0.0		146	30.0	female	black	2.7345801830481498	smiling	062	sub-11	1.0	6.0	062_smiling	0.0		210.0480133274932	1.2333087120423443
32.0	184.80235603714118	pulse	0.0	t		30.0	female	black	2.7345801830481498	smiling	062	sub-11	1.0	6.0	062_smiling	0.0		210.581451444692	
32.0	185.50222663198474	fix	1.0		444	30.0	female	black	2.7345801830481498	smiling	062	sub-11	1.0	6.0	062_smiling	0.0		211.28132203953555	3.7665886573231546
32.0	185.5097515704747	pulse	1.0	t		30.0	female	black	2.7345801830481498	smiling	062	sub-11	1.0	6.0	062_smiling	0.0		211.2888469780255	
32.0	186.2023290513216	pulse	1.0	t		30.0	female	black	2.7345801830481498	smiling	062	sub-11	1.0	6.0	062_smiling	0.0		211.98142445887243	
32.0	186.9023065027668	pulse	1.0	t		30.0	female	black	2.7345801830481498	smiling	062	sub-11	1.0	6.0	062_smiling	0.0		212.68140191031762	
32.0	187.60229934880863	pulse	1.0	t		30.0	female	black	2.7345801830481498	smiling	062	sub-11	1.0	6.0	062_smiling	0.0		213.38139475635944	
32.0	188.30228102622095	pulse	1.0	t		30.0	female	black	2.7345801830481498	smiling	062	sub-11	1.0	6.0	062_smiling	0.0		214.08137643377177	
32.0	189.0022627036342	pulse	1.0	t		30.0	female	black	2.7345801830481498	smiling	062	sub-11	1.0	6.0	062_smiling	0.0		214.781358111185	
33.0	189.2688152893079	face	0.0		145	31.0	female	east_asian	3.395941106247513	neutral	087	sub-11	1.0	6.0	087_neutral	0.0		215.0479106968587	1.2333050897850626
33.0	189.70225585153003	pulse	0.0	t		31.0	female	east_asian	3.395941106247513	neutral	087	sub-11	1.0	6.0	087_neutral	0.0		215.48135125908084	
33.0	190.40223511410477	pulse	0.0	t		31.0	female	east_asian	3.395941106247513	neutral	087	sub-11	1.0	6.0	087_neutral	0.0		216.18133052165558	
33.0	190.50212037909296	fix	1.0		444	31.0	female	east_asian	3.395941106247513	neutral	087	sub-11	1.0	6.0	087_neutral	0.0		216.28121578664377	3.7665919777255112
33.0	191.10222403603348	pulse	1.0	t		31.0	female	east_asian	3.395941106247513	neutral	087	sub-11	1.0	6.0	087_neutral	0.0		216.8813194435843	
33.0	191.80220782643028	pulse	1.0	t		31.0	female	east_asian	3.395941106247513	neutral	087	sub-11	1.0	6.0	087_neutral	0.0		217.5813032339811	
33.0	192.50219161682708	pulse	1.0	t		31.0	female	east_asian	3.395941106247513	neutral	087	sub-11	1.0	6.0	087_neutral	0.0		218.2812870243779	
33.0	193.20217993504684	pulse	1.0	t		31.0	female	east_asian	3.395941106247513	neutral	087	sub-11	1.0	6.0	087_neutral	0.0		218.98127534259766	
33.0	193.90216161246008	pulse	1.0	t		31.0	female	east_asian	3.395941106247513	neutral	087	sub-11	1.0	6.0	087_neutral	0.0		219.6812570200109	
34.0	194.26871235681847	face	0.0		145	54.0	female	white	2.286908077994429	smiling	136	sub-11	1.0	6.0	136_smiling	0.0		220.04780776436928	1.2333062972047628
34.0	194.60215143995265	pulse	0.0	t		54.0	female	white	2.286908077994429	smiling	136	sub-11	1.0	6.0	136_smiling	0.0		220.38124684750346	
34.0	195.30213372107573	pulse	0.0	t		54.0	female	white	2.286908077994429	smiling	136	sub-11	1.0	6.0	136_smiling	0.0		221.08122912862655	
34.0	195.50201865402323	fix	1.0		444	54.0	female	white	2.286908077994429	smiling	136	sub-11	1.0	6.0	136_smiling	0.0		221.28111406157404	3.7665892610320952
34.0	196.0021235485683	pulse	1.0	t		54.0	female	white	2.286908077994429	smiling	136	sub-11	1.0	6.0	136_smiling	0.0		221.78121895611912	
34.0	196.70210371670782	pulse	1.0	t		54.0	female	white	2.286908077994429	smiling	136	sub-11	1.0	6.0	136_smiling	0.0		222.48119912425864	
34.0	197.40210320355436	pulse	1.0	t		54.0	female	white	2.286908077994429	smiling	136	sub-11	1.0	6.0	136_smiling	0.0		223.18119861110517	
34.0	198.10207522161363	pulse	1.0	t		54.0	female	white	2.286908077994429	smiling	136	sub-11	1.0	6.0	136_smiling	0.0		223.88117062916444	
34.0	198.80206021943013	pulse	1.0	t		54.0	female	white	2.286908077994429	smiling	136	sub-11	1.0	6.0	136_smiling	0.0		224.58115562698094	
35.0	199.26860791505533	face	0.0		145	20.0	female	white	3.9502586549940313	smiling	091	sub-11	1.0	6.0	091_smiling	1.0	trustworthiness	225.04770332260614	1.2333141454291763
35.0	199.50205095248748	pulse	0.0	t		20.0	female	white	3.9502586549940313	smiling	091	sub-11	1.0	6.0	091_smiling	1.0	trustworthiness	225.2811463600383	
35.0	200.20203715772277	pulse	0.0	t		20.0	female	white	3.9502586549940313	smiling	091	sub-11	1.0	6.0	091_smiling	1.0	trustworthiness	225.98113256527358	
35.0	200.5019220604845	fix	1.0		177	20.0	female	white	3.9502586549940313	smiling	091	sub-11	1.0	6.0	091_smiling	1.0	trustworthiness	226.28101746803532	1.499963324640703
35.0	200.90204087053644	pulse	1.0	t		20.0	female	white	3.9502586549940313	smiling	091	sub-11	1.0	6.0	091_smiling	1.0	trustworthiness	226.68113627808725	
35.0	201.60200353109667	pulse	1.0	t		20.0	female	white	3.9502586549940313	smiling	091	sub-11	1.0	6.0	091_smiling	1.0	trustworthiness	227.38109893864748	
35.0	202.0018853851252	rating	2.0		294	20.0	female	white	3.9502586549940313	smiling	091	sub-11	1.0	6.0	091_smiling	1.0	trustworthiness	227.78098079267602	2.4999512504491577
35.0	202.29676432776432	pulse	2.0	t		20.0	female	white	3.9502586549940313	smiling	091	sub-11	1.0	6.0	091_smiling	1.0	trustworthiness	228.07585973531513	
35.0	202.99673453469495	pulse	2.0	t		20.0	female	white	3.9502586549940313	smiling	091	sub-11	1.0	6.0	091_smiling	1.0	trustworthiness	228.77582994224576	
35.0	203.34363422924798	response	2.0	g		20.0	female	white	3.9502586549940313	smiling	091	sub-11	1.0	6.0	091_smiling	1.0	trustworthiness	229.1227296367988	
35.0	203.70197512655977	pulse	2.0	t		20.0	female	white	3.9502586549940313	smiling	091	sub-11	1.0	6.0	091_smiling	1.0	trustworthiness	229.4810705341106	
35.0	204.4019429186519	pulse	2.0	t		20.0	female	white	3.9502586549940313	smiling	091	sub-11	1.0	6.0	091_smiling	1.0	trustworthiness	230.18103832620272	
35.0	204.50183663557436	fix	3.0		444	20.0	female	white	3.9502586549940313	smiling	091	sub-11	1.0	6.0	091_smiling	1.0	trustworthiness	230.28093204312518	3.7665829220813976
35.0	205.10193727396654	pulse	3.0	t		20.0	female	white	3.9502586549940313	smiling	091	sub-11	1.0	6.0	091_smiling	1.0	trustworthiness	230.88103268151735	
35.0	205.80191261242908	pulse	3.0	t		20.0	female	white	3.9502586549940313	smiling	091	sub-11	1.0	6.0	091_smiling	1.0	trustworthiness	231.5810080199799	
35.0	206.50190243992256	pulse	3.0	t		20.0	female	white	3.9502586549940313	smiling	091	sub-11	1.0	6.0	091_smiling	1.0	trustworthiness	232.28099784747337	
35.0	207.2018868340283	pulse	3.0	t		20.0	female	white	3.9502586549940313	smiling	091	sub-11	1.0	6.0	091_smiling	1.0	trustworthiness	232.9809822415791	
35.0	207.90187756708565	pulse	3.0	t		20.0	female	white	3.9502586549940313	smiling	091	sub-11	1.0	6.0	091_smiling	1.0	trustworthiness	233.68097297463646	
36.0	208.26841955765576	face	0.0		145	27.0	female	white	4.181058495821727	smiling	039	sub-11	1.0	6.0	039_smiling	0.0		234.04751496520657	1.2333093157521944
36.0	208.60186165933737	pulse	0.0	t		27.0	female	white	4.181058495821727	smiling	039	sub-11	1.0	6.0	039_smiling	0.0		234.3809570668882	
36.0	209.30185299610457	pulse	0.0	t		27.0	female	white	4.181058495821727	smiling	039	sub-11	1.0	6.0	039_smiling	0.0		235.08094840365538	
36.0	209.50172887340796	fix	1.0		444	27.0	female	white	4.181058495821727	smiling	039	sub-11	1.0	6.0	039_smiling	0.0		235.28082428095877	3.758286140850032
36.0	210.0018446347267	pulse	1.0	t		27.0	female	white	4.181058495821727	smiling	039	sub-11	1.0	6.0	039_smiling	0.0		235.7809400422775	
36.0	210.70181544536626	pulse	1.0	t		27.0	female	white	4.181058495821727	smiling	039	sub-11	1.0	6.0	039_smiling	0.0		236.48091085291708	
36.0	211.40179863205412	pulse	1.0	t		27.0	female	white	4.181058495821727	smiling	039	sub-11	1.0	6.0	039_smiling	0.0		237.18089403960494	
36.0	212.10179419478845	pulse	1.0	t		27.0	female	white	4.181058495821727	smiling	039	sub-11	1.0	6.0	039_smiling	0.0		237.88088960233927	
36.0	212.80177315550827	pulse	1.0	t		27.0	female	white	4.181058495821727	smiling	039	sub-11	1.0	6.0	039_smiling	0.0		238.58086856305908	
37.0	213.260015014258	face	0.0		146	22.0	female	white	4.614007162753682	smiling	009	sub-11	1.0	6.0	009_smiling	0.0		239.0391104218088	1.241610021096676
37.0	213.50176419042054	pulse	0.0	t		22.0	female	white	4.614007162753682	smiling	009	sub-11	1.0	6.0	009_smiling	0.0		239.28085959797136	
37.0	214.2017437548502	pulse	0.0	t		22.0	female	white	4.614007162753682	smiling	009	sub-11	1.0	6.0	009_smiling	0.0		239.98083916240103	
37.0	214.50162503535466	fix	1.0		444	22.0	female	white	4.614007162753682	smiling	009	sub-11	1.0	6.0	009_smiling	0.0		240.28072044290548	3.766591072160736
37.0	214.90173267677892	pulse	1.0	t		22.0	female	white	4.614007162753682	smiling	009	sub-11	1.0	6.0	009_smiling	0.0		240.68082808432973	
37.0	215.6017125430626	pulse	1.0	t		22.0	female	white	4.614007162753682	smiling	009	sub-11	1.0	6.0	009_smiling	0.0		241.38080795061342	
37.0	216.30169905015282	pulse	1.0	t		22.0	female	white	4.614007162753682	smiling	009	sub-11	1.0	6.0	009_smiling	0.0		242.08079445770363	
37.0	217.0016852553881	pulse	1.0	t		22.0	female	white	4.614007162753682	smiling	009	sub-11	1.0	6.0	009_smiling	0.0		242.78078066293892	
37.0	217.70168987376655	pulse	1.0	t		22.0	female	white	4.614007162753682	smiling	009	sub-11	1.0	6.0	009_smiling	0.0		243.48078528131737	
38.0	218.2682161075154	face	0.0		145	47.0	male	east_asian	2.171110226820533	neutral	024	sub-11	1.0	6.0	024_neutral	0.0		244.0473115150662	1.2333072027686285
38.0	218.4016652122291	pulse	0.0	t		47.0	male	east_asian	2.171110226820533	neutral	024	sub-11	1.0	6.0	024_neutral	0.0		244.1807606197799	
38.0	219.1016378339982	pulse	0.0	t		47.0	male	east_asian	2.171110226820533	neutral	024	sub-11	1.0	6.0	024_neutral	0.0		244.88073324154902	
38.0	219.50152331028403	fix	1.0		444	47.0	male	east_asian	2.171110226820533	neutral	024	sub-11	1.0	6.0	024_neutral	0.0		245.28061871783484	3.7665889591780797
38.0	219.8016355097161	pulse	1.0	t		47.0	male	east_asian	2.171110226820533	neutral	024	sub-11	1.0	6.0	024_neutral	0.0		245.58073091726692	
38.0	220.5016165834195	pulse	1.0	t		47.0	male	east_asian	2.171110226820533	neutral	024	sub-11	1.0	6.0	024_neutral	0.0		246.2807119909703	
38.0	221.20159826083272	pulse	1.0	t		47.0	male	east_asian	2.171110226820533	neutral	024	sub-11	1.0	6.0	024_neutral	0.0		246.98069366838354	
38.0	221.90159020130977	pulse	1.0	t		47.0	male	east_asian	2.171110226820533	neutral	024	sub-11	1.0	6.0	024_neutral	0.0		247.68068560886059	
38.0	222.60156946388452	pulse	1.0	t		47.0	male	east_asian	2.171110226820533	neutral	024	sub-11	1.0	6.0	024_neutral	0.0		248.38066487143533	
39.0	223.2681122694621	face	0.0		145	22.0	female	white	4.614007162753682	neutral	009	sub-11	1.0	6.0	009_neutral	1.0	attractiveness	249.04720767701292	1.2333065990587784
39.0	223.30157378040803	pulse	0.0	t		22.0	female	white	4.614007162753682	neutral	009	sub-11	1.0	6.0	009_neutral	1.0	attractiveness	249.08066918795885	
39.0	224.00153976137153	pulse	0.0	t		22.0	female	white	4.614007162753682	neutral	009	sub-11	1.0	6.0	009_neutral	1.0	attractiveness	249.78063516892234	
39.0	224.5014188685209	fix	1.0		177	22.0	female	white	4.614007162753682	neutral	009	sub-11	1.0	6.0	009_neutral	1.0	attractiveness	250.2805142760717	1.499971474720951
39.0	224.70153622966973	pulse	1.0	t		22.0	female	white	4.614007162753682	neutral	009	sub-11	1.0	6.0	009_neutral	1.0	attractiveness	250.48063163722054	
39.0	225.40150764402006	pulse	1.0	t		22.0	female	white	4.614007162753682	neutral	009	sub-11	1.0	6.0	009_neutral	1.0	attractiveness	251.18060305157087	
39.0	226.00139034324184	rating	2.0		294	22.0	female	white	4.614007162753682	neutral	009	sub-11	1.0	6.0	009_neutral	1.0	attractiveness	251.78048575079265	2.499953363431814
39.0	226.09629590947407	pulse	2.0	t		22.0	female	white	4.614007162753682	neutral	009	sub-11	1.0	6.0	009_neutral	1.0	attractiveness	251.87539131702488	
39.0	226.79625947559907	pulse	2.0	t		22.0	female	white	4.614007162753682	neutral	009	sub-11	1.0	6.0	009_neutral	1.0	attractiveness	252.57535488314988	
39.0	227.49625956615546	pulse	2.0	t		22.0	female	white	4.614007162753682	neutral	009	sub-11	1.0	6.0	009_neutral	1.0	attractiveness	253.27535497370627	
39.0	227.90145678148474	response	2.0	g		22.0	female	white	4.614007162753682	neutral	009	sub-11	1.0	6.0	009_neutral	1.0	attractiveness	253.68055218903555	
39.0	228.19623943244005	pulse	2.0	t		22.0	female	white	4.614007162753682	neutral	009	sub-11	1.0	6.0	009_neutral	1.0	attractiveness	253.97533483999086	
39.0	228.50134370667365	fix	3.0		444	22.0	female	white	4.614007162753682	neutral	009	sub-11	1.0	6.0	009_neutral	1.0	attractiveness	254.28043911422446	3.7499166126099226
39.0	228.90144259430872	pulse	3.0	t		22.0	female	white	4.614007162753682	neutral	009	sub-11	1.0	6.0	009_neutral	1.0	attractiveness	254.68053800185953	
39.0	229.6014221587384	pulse	3.0	t		22.0	female	white	4.614007162753682	neutral	009	sub-11	1.0	6.0	009_neutral	1.0	attractiveness	255.3805175662892	
39.0	230.30141560848915	pulse	3.0	t		22.0	female	white	4.614007162753682	neutral	009	sub-11	1.0	6.0	009_neutral	1.0	attractiveness	256.08051101603996	
39.0	231.00139275808033	pulse	3.0	t		22.0	female	white	4.614007162753682	neutral	009	sub-11	1.0	6.0	009_neutral	1.0	attractiveness	256.78048816563114	
39.0	231.7013850004114	pulse	3.0	t		22.0	female	white	4.614007162753682	neutral	009	sub-11	1.0	6.0	009_neutral	1.0	attractiveness	257.4804804079622	
40.0	232.25126031928357	fix	0.0		720													258.0303557268344	5.9998765413838555
40.0	232.4013715075016	pulse	0.0	t														258.1804669150524	
40.0	233.10135046822143	pulse	0.0	t														258.88044587577224	
40.0	233.80134180498862	pulse	0.0	t														259.58043721253944	
40.0	234.501322878692	pulse	0.0	t														260.2804182862428	
40.0	235.20131089505685	pulse	0.0	t														260.98040630260766	
40.0	235.90129106319546	pulse	0.0	t														261.68038647074627	
40.0	236.60129779455747	pulse	0.0	t														262.3803932021083	
40.0	237.30126619035946	pulse	0.0	t														263.08036159791027	
40.0	238.00125330115952	pulse	0.0	t														263.78034870871033	
