trial_nr	onset	event_type	phase	response	nr_frames	rating_type	face_id	repetition	session	rating	onset_abs	duration
0.0	0.009409609132490004	cue	0.0		479						36.87263959865868	3.992074593482357
0.0	4.001484202614847	fix	1.0		120						40.86471419214104	1.0251565853377542
0.0	5.026640787952601	face	0.0		146	attractiveness	038	1.0	1		41.88987077747879	1.2753272822219515
0.0	6.301968070174553	rating	1.0		171	attractiveness	038	1.0	1		43.16519805970074	1.4332362378463586
0.0	7.735204308020911	fix	2.0		60	attractiveness	038	1.0	1	-2.73	44.5984342975471	0.5167599890128258
1.0	8.251964297033737	face	0.0		147	attractiveness	082	1.0	1		45.11519428655993	1.2334267059877675
1.0	9.485391003021505	rating	1.0		122	attractiveness	082	1.0	1		46.348620992547694	1.0251001391534373
1.0	10.510491142174942	fix	2.0		60	attractiveness	082	1.0	1	1.38	47.37372113170113	0.5167433871938556
2.0	11.027234529368798	face	0.0		147	attractiveness	006	1.0	1		47.89046451889499	1.2334496466828568
2.0	12.260684176051655	rating	1.0		151	attractiveness	006	1.0	1		49.123914165577844	1.266787004699836
2.0	13.52747118075149	fix	2.0		60	attractiveness	006	1.0	1	-2.98	50.39070117027768	0.5167790056411832
3.0	14.044250186392674	face	0.0		147	attractiveness	066	1.0	1		50.90748017591886	1.2334046708465394
3.0	15.277654857239213	rating	1.0		101	attractiveness	066	1.0	1		52.1408848467654	0.8500894988965229
3.0	16.127744356135736	fix	2.0		60	attractiveness	066	1.0	1	0.3200000000000003	52.990974345661925	0.5167427834912814
4.0	16.644487139627017	face	0.0		147	attractiveness	141	1.0	1		53.50771712915321	1.233444817063173
4.0	17.87793195669019	rating	1.0		191	attractiveness	141	1.0	1		54.74116194621638	1.600165716338779
4.0	19.47809767302897	fix	2.0		60	attractiveness	141	1.0	1	0.5999999999999996	56.34132766255516	0.5167433871929461
5.0	19.994841060221916	face	0.0		147	attractiveness	100	1.0	1		56.858071049748105	1.2334357615254703
5.0	21.228276821747386	rating	1.0		140	attractiveness	100	1.0	1		58.091506811273575	1.1751193067084387
5.0	22.403396128455825	fix	2.0		60	attractiveness	100	1.0	1	3.1100000000000003	59.266626117982014	0.5167482168135393
6.0	22.920144345269364	face	0.0		147	attractiveness	011	1.0	1		59.78337433479555	1.2334402892947764
6.0	24.15358463456414	rating	1.0		163	attractiveness	011	1.0	1		61.01681462409033	1.366799984303725
6.0	25.520384618867865	fix	2.0		60	attractiveness	011	1.0	1	0.4400000000000004	62.383614608394055	0.5167627056735
7.0	26.037147324541365	face	0.0		147	attractiveness	024	1.0	1		62.900377314067555	1.2334270078390546
7.0	27.27057433238042	rating	1.0		76	attractiveness	024	1.0	1		64.13380432190661	0.641732746937123
7.0	27.912307079317543	fix	2.0		60	attractiveness	024	1.0	1	-0.7599999999999998	64.77553706884373	0.5167346335074399
8.0	28.429041712824983	face	0.0		147	attractiveness	117	1.0	1		65.29227170235117	1.2334417985503023
8.0	29.662483511375285	rating	1.0		101	attractiveness	117	1.0	1		66.52571350090147	0.8417529709713563
8.0	30.50423648234664	fix	2.0		60	attractiveness	117	1.0	1	0.79	67.36746647187283	0.5167476131109652
9.0	31.020984095457607	face	0.0		147	attractiveness	027	1.0	1		67.8842140849838	1.233440591145154
9.0	32.25442468660276	rating	1.0		87	attractiveness	027	1.0	1		69.11765467612895	0.7250675392178891
9.0	32.97949222582065	fix	2.0		60	attractiveness	027	1.0	1	2.01	69.84272221534684	0.5167436890451427
10.0	33.49623591486579	face	0.0		147	attractiveness	034	1.0	1		70.35946590439198	1.233450250385431
10.0	34.72968616525122	rating	1.0		75	attractiveness	034	1.0	1		71.59291615477741	0.6333859560691053
10.0	35.36307212132033	fix	2.0		60	attractiveness	034	1.0	1	-0.6400000000000001	72.22630211084652	0.5167530464332231
11.0	35.87982516775355	face	0.0		147	attractiveness	136	1.0	1		72.74305515727974	1.2334294226493512
11.0	37.1132545904029	rating	1.0		152	attractiveness	136	1.0	1		73.97648457992909	1.2667987768991225
11.0	38.380053367302025	fix	2.0		60	attractiveness	136	1.0	1	-3.67	75.24328335682821	0.5167503297725489
12.0	38.896803697074574	face	0.0		147	attractiveness	009	1.0	1		75.76003368660076	1.233440289293867
12.0	40.13024398636844	rating	1.0		132	attractiveness	009	1.0	1		76.99347397589463	1.1084394592035096
12.0	41.23868344557195	fix	2.0		60	attractiveness	009	1.0	1	3.5999999999999996	78.10191343509814	0.5167412742348461
13.0	41.7554247198068	face	0.0		147	attractiveness	126	1.0	1		78.61865470933299	1.2334427041041636
13.0	42.98886742391096	rating	1.0		119	attractiveness	126	1.0	1		79.85209741343715	1.0001005164676826
13.0	43.98896794037864	fix	2.0		60	attractiveness	126	1.0	1	2.05	80.85219792990483	0.5167436890442332
14.0	44.505711629422876	face	0.0		147	attractiveness	005	1.0	1		81.36894161894907	1.2334393837409152
14.0	45.73915101316379	rating	1.0		119	attractiveness	005	1.0	1		82.60238100268998	1.000103836830931
14.0	46.73925484999472	fix	2.0		60	attractiveness	005	1.0	1	-3.25	83.60248483952091	0.5167515371776972
15.0	47.25600638717242	face	0.0		147	attractiveness	172	1.0	1		84.11923637669861	1.2334303282032124
15.0	48.48943671537563	rating	1.0		128	attractiveness	172	1.0	1		85.35266670490182	1.0667851935922954
15.0	49.55622190896793	fix	2.0		60	attractiveness	172	1.0	1	-1.29	86.41945189849412	0.5167346335074399
16.0	50.07295654247537	face	0.0		147	attractiveness	043	1.0	1		86.93618653200156	1.233440289293867
16.0	51.306396831769234	rating	1.0		164	attractiveness	043	1.0	1		88.16962682129542	1.3751410399981978
16.0	52.68153787176743	fix	2.0		60	attractiveness	043	1.0	1	0.46999999999999975	89.54476786129362	0.5167497260699747
17.0	53.19828759783741	face	0.0		147	attractiveness	130	1.0	1		90.0615175873636	1.2334722855275686
17.0	54.431759883364975	rating	1.0		76	attractiveness	130	1.0	1		91.29498987289116	0.6417004488521343
17.0	55.07346033221711	fix	2.0		60	attractiveness	130	1.0	1	-0.4500000000000002	91.9366903217433	0.5167412742348461
18.0	55.590201606451956	face	0.0		147	attractiveness	101	1.0	1		92.45343159597815	1.2334417985512118
18.0	56.82364340500317	rating	1.0		93	attractiveness	101	1.0	1		93.68687339452936	0.7834042180693359
18.0	57.6070476230725	fix	2.0		60	attractiveness	101	1.0	1	0.9900000000000002	94.4702776125987	0.5167473112596781
19.0	58.12379493433218	face	0.0		147	attractiveness	018	1.0	1		94.98702492385837	1.2334451189144602
19.0	59.35724005324664	rating	1.0		84	attractiveness	018	1.0	1		96.22047004277283	0.7084044444582105
19.0	60.06564449770485	fix	2.0		60	attractiveness	018	1.0	1	0.3099999999999996	96.92887448723104	0.5167415760861331
20.0	60.582386073790985	face	0.0		147	attractiveness	012	1.0	1		97.44561606331717	1.2334336485664608
20.0	61.815819722357446	rating	1.0		132	attractiveness	012	1.0	1		98.67904971188364	1.1084542499147574
20.0	62.9242739722722	fix	2.0		60	attractiveness	012	1.0	1	3.3099999999999996	99.7875039617984	0.5167355390603916
21.0	63.441009511332595	face	0.0		147	attractiveness	036	1.0	1		100.30423950085878	1.2334469300221826
21.0	64.67445644135478	rating	1.0		160	attractiveness	036	1.0	1		101.53768643088097	1.3418079078992378
21.0	66.01626434925402	fix	2.0		61	attractiveness	036	1.0	1	0.6799999999999997	102.8794943387802	0.5250684447719323
22.0	66.54133279402595	face	0.0		146	attractiveness	144	1.0	1		103.40456278355214	1.225155377932424
22.0	67.76648817195837	rating	1.0		111	attractiveness	144	1.0	1		104.62971816148456	0.9333781079358232
22.0	68.6998662798942	fix	2.0		60	attractiveness	144	1.0	1	2.3	105.56309626942038	0.5167424816399944
23.0	69.21660876153419	face	0.0		147	attractiveness	039	1.0	1		106.07983875106038	1.2334427041041636
23.0	70.45005146563835	rating	1.0		110	attractiveness	039	1.0	1		107.31328145516454	0.9167654223356294
23.0	71.36681688797398	fix	2.0		60	attractiveness	039	1.0	1	2.0	108.23004687750017	0.5167358409125882
24.0	71.88355272888657	face	0.0		147	attractiveness	061	1.0	1		108.74678271841276	1.2334421004015894
24.0	73.11699482928816	rating	1.0		105	attractiveness	061	1.0	1		109.98022481881435	0.8834377235580178
24.0	74.00043255284618	fix	2.0		60	attractiveness	061	1.0	1	-2.06	110.86366254237237	0.5167364446151623
25.0	74.51716899746134	face	0.0		147	attractiveness	137	1.0	1		111.38039898698753	1.233438478187054
25.0	75.7506074756484	rating	1.0		91	attractiveness	137	1.0	1		112.61383746517458	0.7667435381190444
25.0	76.51735101376744	fix	2.0		60	attractiveness	137	1.0	1	0.20000000000000018	113.38058100329363	0.5167358409125882
26.0	77.03408685468003	face	0.0		147	attractiveness	092	1.0	1		113.89731684420622	1.233450552236718
26.0	78.26753740691674	rating	1.0		103	attractiveness	092	1.0	1		115.13076739644293	0.866793645427606
26.0	79.13433105234435	fix	2.0		60	attractiveness	092	1.0	1	-1.56	115.99756104187054	0.5167023354224511
27.0	79.6510333877668	face	0.0		147	attractiveness	102	1.0	1		116.51426337729299	1.2334309319057866
27.0	80.88446431967259	rating	1.0		204	attractiveness	102	1.0	1		117.74769430919878	1.7085170349755572
27.0	82.59298135464815	fix	2.0		60	attractiveness	102	1.0	1	-3.15	119.45621134417433	0.5167427834912814
28.0	83.10972413813943	face	0.0		147	attractiveness	062	1.0	1		119.97295412766562	1.2334384781861445
28.0	84.34316261632557	rating	1.0		88	attractiveness	062	1.0	1		121.20639260585176	0.7417439154332897
28.0	85.08490653175886	fix	2.0		60	attractiveness	062	1.0	1	-0.4900000000000002	121.94813652128505	0.5167412742348461
29.0	85.60164780599371	face	0.0		147	attractiveness	099	1.0	1		122.4648777955199	1.233442100402499
29.0	86.8350899063962	rating	1.0		112	attractiveness	099	1.0	1		123.6983198959224	0.9417620265085134
29.0	87.77685193290472	fix	2.0		60	attractiveness	099	1.0	1	-0.2799999999999998	124.64008192243091	0.5167367464655399
30.0	88.29358867937026	face	0.0		147	attractiveness	042	1.0	1		125.15681866889645	1.2334399874434894
30.0	89.52702866681375	rating	1.0		183	attractiveness	042	1.0	1		126.39025865633994	1.5334903966022466
30.0	91.060519063416	fix	2.0		60	attractiveness	042	1.0	1	0.4400000000000004	127.92374905294218	0.5167458020032427
31.0	91.57726486541924	face	0.0		147	attractiveness	033	1.0	1		128.44049485494543	1.233444817063173
31.0	92.81070968248241	rating	1.0		89	attractiveness	033	1.0	1		129.6739396720086	0.7500674637558404
31.0	93.56077714623825	fix	2.0		60	attractiveness	033	1.0	1	0.9699999999999998	130.42400713576444	0.5167485186648264
32.0	94.07752566490308	face	0.0		147	attractiveness	044	1.0	1		130.94075565442927	1.2334427041041636
32.0	95.31096836900724	rating	1.0		140	attractiveness	044	1.0	1		132.17419835853343	1.1751147789391325
32.0	96.48608314794637	fix	2.0		60	attractiveness	044	1.0	1	-0.5499999999999998	133.34931313747256	0.5167506316238359
33.0	97.00283377957021	face	0.0		147	attractiveness	070	1.0	1		133.8660637690964	1.2334378744844798
33.0	98.23627165405469	rating	1.0		95	attractiveness	070	1.0	1		135.09950164358088	0.8000827072428365
33.0	99.03635436129753	fix	2.0		60	attractiveness	070	1.0	1	-2.08	135.89958435082372	0.5167385575741719
34.0	99.5530929188717	face	0.0		147	attractiveness	030	1.0	1		136.4163229083979	1.2334378744835703
34.0	100.78653079335527	rating	1.0		107	attractiveness	030	1.0	1		137.64976078288146	0.9000890461202289
34.0	101.6866198394755	fix	2.0		60	attractiveness	030	1.0	1	1.8499999999999996	138.5498498290017	0.5167479149622523
35.0	102.20336775443775	face	0.0		147	attractiveness	091	1.0	1		139.06659774396394	1.2334366670793315
35.0	103.43680442151708	rating	1.0		119	attractiveness	091	1.0	1		140.30003441104327	1.0001098738566725
35.0	104.43691429537375	fix	2.0		60	attractiveness	091	1.0	1	1.33	141.30014428489994	0.5167301057381337
36.0	104.95364440111189	face	0.0		147	attractiveness	087	1.0	1		141.81687439063808	1.2334529670470147
36.0	106.1870973681589	rating	1.0		84	attractiveness	087	1.0	1		143.0503273576851	0.7084047463094976
36.0	106.8955021144684	fix	2.0		60	attractiveness	087	1.0	1	0.15000000000000036	143.7587321039946	0.5167418779374202
37.0	107.41224399240582	face	0.0		147	attractiveness	064	1.0	1		144.275473981932	1.2334417985503023
37.0	108.64568579095612	rating	1.0		74	attractiveness	064	1.0	1		145.5089157804823	0.6250636151517028
37.0	109.27074940610783	fix	2.0		60	attractiveness	064	1.0	1	0.6200000000000001	146.13397939563401	0.5167479149622523
38.0	109.78749732107008	face	0.0		147	attractiveness	124	1.0	1		146.65072731059627	1.233434554120322
38.0	111.0209318751904	rating	1.0		96	attractiveness	124	1.0	1		147.8841618647166	0.8084162166569513
38.0	111.82934809184735	fix	2.0		60	attractiveness	124	1.0	1	3.26	148.69257808137354	0.5167424816399944
39.0	112.34609057348734	face	0.0		147	attractiveness	121	1.0	1		149.20932056301353	1.233434855971609
39.0	113.57952542945895	rating	1.0		117	attractiveness	121	1.0	1		150.44275541898514	0.9834347050455108
39.0	114.56296013450446	fix	2.0		60	attractiveness	121	1.0	1	-0.94	151.42619012403065	0.5000597665484747
40.0	115.06301990105294	cue	0.0		480						151.92624989057913	4.000422591755523
40.0	119.06344249280846	fix	1.0		120						155.92667248233465	1.0167750815753607
40.0	120.08021757438382	face	0.0		147	dominance	130	1.0	1		156.94344756391	1.233444515211886
40.0	121.31366208959571	rating	1.0		76	dominance	130	1.0	1		158.1768920791219	0.6417291247216781
40.0	121.95539121431739	fix	2.0		60	dominance	130	1.0	1	-0.5499999999999998	158.81862120384358	0.5167500279212618
41.0	122.47214124223865	face	0.0		147	dominance	024	1.0	1		159.33537123176484	1.2334433078067377
41.0	123.70558455004539	rating	1.0		65	dominance	024	1.0	1		160.56881453957158	0.5500433156548752
41.0	124.25562786570026	fix	2.0		60	dominance	024	1.0	1	0.3600000000000003	161.11885785522645	0.5167445945990039
42.0	124.77237246029927	face	0.0		147	dominance	082	1.0	1		161.63560244982546	1.2334436096580248
42.0	126.00581606995729	rating	1.0		142	dominance	082	1.0	1		162.86904605948348	1.1917917588571072
42.0	127.1976078288144	fix	2.0		60	dominance	082	1.0	1	0.75	164.0608378183406	0.5167461038545298
43.0	127.71435393266893	face	0.0		147	dominance	005	1.0	1		164.57758392219512	1.2334306300544995
43.0	128.94778456272343	rating	1.0		66	dominance	005	1.0	1		165.81101455224962	0.5583919176306154
43.0	129.50617648035404	fix	2.0		60	dominance	005	1.0	1	-1.4900000000000002	166.36940646988023	0.5167421797887073
44.0	130.02291866014275	face	0.0		147	dominance	087	1.0	1		166.88614864966894	1.2334493448315698
44.0	131.25636800497432	rating	1.0		126	dominance	087	1.0	1		168.1195979945005	1.058429649037862
44.0	132.31479765401218	fix	2.0		60	dominance	087	1.0	1	-1.4300000000000002	169.17802764353837	0.5167956074601534
45.0	132.83159326147234	face	0.0		147	dominance	124	1.0	1		169.69482325099852	1.2333898801352916
45.0	134.06498314160763	rating	1.0		284	dominance	124	1.0	1		170.92821313113382	2.3752448768291288
45.0	136.44022801843676	fix	2.0		60	dominance	124	1.0	1	-0.41999999999999993	173.30345800796294	0.5167406705322719
46.0	136.95696868896903	face	0.0		147	dominance	030	1.0	1		173.82019867849522	1.2334493448324793
46.0	138.1904180338015	rating	1.0		222	dominance	030	1.0	1		175.0536480233277	1.8585238266286979
46.0	140.0489418604302	fix	2.0		60	dominance	030	1.0	1	-0.6200000000000001	176.9121718499564	0.5167373501681141
47.0	140.56567921059832	face	0.0		147	dominance	070	1.0	1		177.4289092001245	1.2334568911137467
47.0	141.79913610171207	rating	1.0		79	dominance	070	1.0	1		178.66236609123825	0.6667169752090558
47.0	142.46585307692112	fix	2.0		60	dominance	070	1.0	1	1.13	179.3290830664473	0.5167494242186876
48.0	142.9826025011398	face	0.0		147	dominance	011	1.0	1		179.845832490666	1.233440892996441
48.0	144.21604339413625	rating	1.0		120	dominance	011	1.0	1		181.07927338366244	1.0084267814509076
48.0	145.22447017558716	fix	2.0		60	dominance	011	1.0	1	1.04	182.08770016511335	0.5167506316238359
49.0	145.741220807211	face	0.0		147	dominance	144	1.0	1		182.60445079673718	1.2334411948477282
49.0	146.97466200205872	rating	1.0		81	dominance	144	1.0	1		183.8378919915849	0.6833957662338435
49.0	147.65805776829257	fix	2.0		60	dominance	144	1.0	1	1.0099999999999998	184.52128775781875	0.5167512353264101
50.0	148.17480900361898	face	0.0		147	dominance	172	1.0	1		185.03803899314516	1.2334363652280445
50.0	149.40824536884702	rating	1.0		95	dominance	172	1.0	1		186.2714753583732	0.8000845183514684
50.0	150.2083298871985	fix	2.0		60	dominance	172	1.0	1	1.7300000000000004	187.07155987672468	0.516740972383559
51.0	150.72507085958205	face	0.0		147	dominance	033	1.0	1		187.58830084910824	1.2334351578228961
51.0	151.95850601740494	rating	1.0		112	dominance	033	1.0	1		188.82173600693113	0.9417614228059392
51.0	152.90026744021088	fix	2.0		60	dominance	033	1.0	1	2.8600000000000003	189.76349742973707	0.5167488205161135
52.0	153.417016260727	face	0.0		147	dominance	137	1.0	1		190.28024625025319	1.2334417985503023
52.0	154.6504580592773	rating	1.0		212	dominance	137	1.0	1		191.5136880488035	1.7751836010256739
52.0	156.42564166030297	fix	2.0		60	dominance	137	1.0	1	2.42	193.28887164982916	0.5167346335065304
53.0	156.9423762938095	face	0.0		147	dominance	027	1.0	1		193.8056062833357	1.233442100402499
53.0	158.175818394212	rating	1.0		88	dominance	027	1.0	1		195.0390483837382	0.7417408969204189
53.0	158.91755929113242	fix	2.0		60	dominance	027	1.0	1	0.7199999999999998	195.7807892806586	0.5167439908964298
54.0	159.43430328202885	face	0.0		147	dominance	036	1.0	1		196.29753327155504	1.2334381763348574
54.0	160.6677414583637	rating	1.0		138	dominance	036	1.0	1		197.5309714478899	1.1585011877850775
54.0	161.82624264614878	fix	2.0		60	dominance	036	1.0	1	-0.7799999999999998	198.68947263567497	0.5166932798856578
55.0	162.34293592603444	face	0.0		147	dominance	099	1.0	1		199.20616591556063	1.233440289293867
55.0	163.5763762153283	rating	1.0		75	dominance	099	1.0	1		200.4396062048545	0.6333977282674823
55.0	164.2097739435958	fix	2.0		60	dominance	099	1.0	1	0.7800000000000002	201.07300393312198	0.5167436890451427
56.0	164.72651763264093	face	0.0		147	dominance	102	1.0	1		201.58974762216712	1.2334390818896281
56.0	165.95995671453056	rating	1.0		89	dominance	102	1.0	1		202.82318670405675	0.7500768211439208
56.0	166.71003353567448	fix	2.0		60	dominance	102	1.0	1	1.83	203.57326352520067	0.5167439908955203
57.0	167.22677752657	face	0.0		147	dominance	018	1.0	1		204.0900075160962	1.233438478187054
57.0	168.46021600475706	rating	1.0		130	dominance	018	1.0	1		205.32344599428325	1.0917872310883467
57.0	169.5520032358454	fix	2.0		60	dominance	018	1.0	1	0.4900000000000002	206.4152332253716	0.5167379538706882
58.0	170.0687411897161	face	0.0		147	dominance	136	1.0	1		206.93197117924228	1.233438176335767
58.0	171.30217936605186	rating	1.0		160	dominance	136	1.0	1		208.16540935557805	1.3418039838334153
58.0	172.64398334988527	fix	2.0		60	dominance	136	1.0	1	-2.27	209.50721333941146	0.5167415760861331
59.0	173.1607249259714	face	0.0		147	dominance	006	1.0	1		210.0239549154976	1.2334475337238473
59.0	174.39417245969526	rating	1.0		116	dominance	006	1.0	1		211.25740244922144	0.9750945549048993
59.0	175.36926701460015	fix	2.0		60	dominance	006	1.0	1	-2.49	212.23249700412634	0.5167473112605876
60.0	175.88601432586074	face	0.0		147	dominance	042	1.0	1		212.74924431538693	1.2334354596741832
60.0	177.11944978553493	rating	1.0		115	dominance	042	1.0	1		213.98267977506111	0.9667707047319709
60.0	178.0862204902669	fix	2.0		60	dominance	042	1.0	1	2.1500000000000004	214.9494504797931	0.5167436890451427
61.0	178.60296417931204	face	0.0		147	dominance	101	1.0	1		215.46619416883823	1.2334680596095495
61.0	179.8364322389216	rating	1.0		101	dominance	101	1.0	1		216.69966222844778	0.850058710068879
61.0	180.68649094899047	fix	2.0		60	dominance	101	1.0	1	2.99	217.54972093851666	0.5167331242510045
62.0	181.20322407324147	face	0.0		147	dominance	091	1.0	1		218.06645406276766	1.2334508540880051
62.0	182.43667492732948	rating	1.0		169	dominance	091	1.0	1		219.29990491685567	1.4168031537419665
62.0	183.85347808107144	fix	2.0		60	dominance	091	1.0	1	-1.15	220.71670807059763	0.5167491223674006
63.0	184.37022720343884	face	0.0		147	dominance	039	1.0	1		221.23345719296503	1.2334354596741832
63.0	185.60366266311303	rating	1.0		137	dominance	039	1.0	1		222.46689265263922	1.150116363658526
63.0	186.75377902677155	fix	2.0		60	dominance	039	1.0	1	-0.56	223.61700901629774	0.516766629740232
64.0	187.27054565651179	face	0.0		147	dominance	038	1.0	1		224.13377564603798	1.2334254985826192
64.0	188.5039711550944	rating	1.0		113	dominance	038	1.0	1		225.3672011446206	0.9500958377730058
64.0	189.4540669928674	fix	2.0		60	dominance	038	1.0	1	-2.06	226.3172969823936	0.5167421797887073
65.0	189.97080917265612	face	0.0		147	dominance	092	1.0	1		226.8340391621823	1.2334795299566395
65.0	191.20428870261276	rating	1.0		162	dominance	092	1.0	1		228.06751869213895	1.35843628976545
65.0	192.5627249923782	fix	2.0		60	dominance	092	1.0	1	1.0099999999999998	229.4259549819044	0.5167316149945691
66.0	193.07945660737278	face	0.0		147	dominance	121	1.0	1		229.94268659689897	1.2334511559392922
66.0	194.31290776331207	rating	1.0		131	dominance	121	1.0	1		231.17613775283826	1.1001098738570363
66.0	195.4130176371691	fix	2.0		60	dominance	121	1.0	1	-0.7400000000000002	232.2762476266953	0.5167950037575793
67.0	195.92981264092668	face	0.0		147	dominance	062	1.0	1		232.79304263045287	1.2333808245975888
67.0	197.16319346552427	rating	1.0		104	dominance	062	1.0	1		234.02642345505046	0.8750921400951484
67.0	198.03828560561942	fix	2.0		60	dominance	062	1.0	1	-2.56	234.9015155951456	0.5167421797887073
68.0	198.55502778540813	face	0.0		147	dominance	100	1.0	1		235.41825777493432	1.2334369689306186
68.0	199.78846475433875	rating	1.0		149	dominance	100	1.0	1		236.65169474386494	1.2501284377076445
68.0	201.0385931920464	fix	2.0		60	dominance	100	1.0	1	-2.38	237.90182318157258	0.516750933475123
69.0	201.55534412552151	face	0.0		147	dominance	034	1.0	1		238.4185741150477	1.2334417985512118
69.0	202.78878592407273	rating	1.0		108	dominance	034	1.0	1		239.65201591359892	0.9084213481273764
69.0	203.6972072722001	fix	2.0		60	dominance	034	1.0	1	-1.5099999999999998	240.5604372617263	0.5167458020041522
70.0	204.21395307420426	face	0.0		147	dominance	066	1.0	1		241.07718306373044	1.2334414966990153
70.0	205.44739457090327	rating	1.0		106	dominance	066	1.0	1		242.31062456042946	0.8917582533676978
70.0	206.33915282427097	fix	2.0		60	dominance	066	1.0	1	-1.1	243.20238281379716	0.5167412742348461
71.0	206.85589409850581	face	0.0		147	dominance	044	1.0	1		243.719124088032	1.233434855971609
71.0	208.08932895447742	rating	1.0		131	dominance	044	1.0	1		244.9525589440036	1.1001107794108975
71.0	209.18943973388832	fix	2.0		60	dominance	044	1.0	1	-0.77	246.0526697234145	0.5167497260699747
72.0	209.7061894599583	face	0.0		147	dominance	141	1.0	1		246.56941944948449	1.2334339504177478
72.0	210.93962341037604	rating	1.0		193	dominance	141	1.0	1		247.80285339990223	1.6168327351642802
72.0	212.55645614554032	fix	2.0		60	dominance	141	1.0	1	0.6900000000000004	249.4196861350665	0.5167421797887073
73.0	213.07319832532903	face	0.0		147	dominance	012	1.0	1		249.93642831485522	1.2334472318734697
73.0	214.3066455572025	rating	1.0		97	dominance	012	1.0	1		251.1698755467287	0.8167494242188695
73.0	215.12339498142137	fix	2.0		61	dominance	012	1.0	1	2.7800000000000002	251.98662497094756	0.5250753873506255
74.0	215.648470368772	face	0.0		146	dominance	117	1.0	1		252.51170035829819	1.2251094965422453
74.0	216.87357986531424	rating	1.0		90	dominance	117	1.0	1		253.73680985484043	0.7584091231519778
74.0	217.63198898846622	fix	2.0		60	dominance	117	1.0	1	2.45	254.4952189779924	0.5167367464664494
75.0	218.14872573493267	face	0.0		147	dominance	043	1.0	1		255.01195572445886	1.2334372707809962
75.0	219.38216300571366	rating	1.0		86	dominance	043	1.0	1		256.24539299523985	0.7250753873513531
75.0	220.10723839306502	fix	2.0		60	dominance	043	1.0	1	1.0199999999999996	256.9704683825912	0.5167482168135393
76.0	220.62398660987856	face	0.0		147	dominance	061	1.0	1		257.48721659940475	1.2334351578228961
76.0	221.85742176770145	rating	1.0		71	dominance	061	1.0	1		258.72065175722764	0.6000679165317706
76.0	222.45748968423322	fix	2.0		60	dominance	061	1.0	1	1.5300000000000002	259.3207196737594	0.5167412742348461
77.0	222.97423095846807	face	0.0		147	dominance	009	1.0	1		259.83746094799426	1.2334375726331928
77.0	224.20766853110126	rating	1.0		59	dominance	009	1.0	1		261.07089852062745	0.5000534276714461
77.0	224.7077219587727	fix	2.0		60	dominance	009	1.0	1	-0.9900000000000002	261.5709519482989	0.5167370483177365
78.0	225.22445900709045	face	0.0		147	dominance	064	1.0	1		262.08768899661663	1.2334617207334304
78.0	226.45792072782388	rating	1.0		111	dominance	064	1.0	1		263.32115071735006	0.9334070856557446
78.0	227.39132781347962	fix	2.0		60	dominance	064	1.0	1	-2.16	264.2545578030058	0.5167482168144488
79.0	227.90807603029407	face	0.0		147	dominance	126	1.0	1		264.77130601982026	1.233434252269035
79.0	229.1415102825631	rating	1.0		146	dominance	126	1.0	1		266.0047402720893	1.2251390779647409
79.0	230.36664936052784	fix	2.0		60	dominance	126	1.0	1	-1.88	267.22987935005403	0.5000386369611078
80.0	230.86668799748895	cue	0.0		480						267.72991798701514	4.000412932514337
80.0	234.8671009300033	fix	1.0		120						271.7303309195295	1.0168414888512416
80.0	235.88394241885453	face	0.0		147	trustworthiness	005	1.0	1		272.7471724083807	1.233402859738817
80.0	237.11734527859335	rating	1.0		133	trustworthiness	005	1.0	1		273.98057526811954	1.1168116055769133
80.0	238.23415688417026	fix	2.0		60	trustworthiness	005	1.0	1	-2.02	275.09738687369645	0.5167053539362314
81.0	238.7508622381065	face	0.0		147	trustworthiness	087	1.0	1		275.6140922276327	1.233440591145154
81.0	239.98430282925165	rating	1.0		179	trustworthiness	087	1.0	1		276.84753281877784	1.500158773759722
81.0	241.48446160301137	fix	2.0		60	trustworthiness	087	1.0	1	-2.65	278.34769159253756	0.5167479149622523
82.0	242.00120951797362	face	0.0		147	trustworthiness	091	1.0	1		278.8644395074998	1.233428818946777
82.0	243.2346383369204	rating	1.0		64	trustworthiness	091	1.0	1		280.0978683264466	0.5417294265735109
82.0	243.7763677634939	fix	2.0		60	trustworthiness	091	1.0	1	-0.52	280.6395977530201	0.5167424816390849
83.0	244.293110245133	face	0.0		147	trustworthiness	082	1.0	1		281.1563402346592	1.2334405911460635
83.0	245.52655083627906	rating	1.0		77	trustworthiness	082	1.0	1		282.38978082580525	0.6500659544990413
83.0	246.1766167907781	fix	2.0		60	trustworthiness	082	1.0	1	0.4400000000000004	283.0398467803043	0.516740972383559
84.0	246.69335776316166	face	0.0		147	trustworthiness	117	1.0	1		283.55658775268785	1.2334330448638866
84.0	247.92679080802554	rating	1.0		93	trustworthiness	117	1.0	1		284.79002079755173	0.7834235365498898
84.0	248.71021434457543	fix	2.0		60	trustworthiness	117	1.0	1	0.8600000000000003	285.5734443341016	0.5167400668296978
85.0	249.22695441140513	face	0.0		147	trustworthiness	100	1.0	1		286.0901844009313	1.2334396855912928
85.0	250.46039409699642	rating	1.0		138	trustworthiness	100	1.0	1		287.3236240865226	1.158451986030741
85.0	251.61884608302717	fix	2.0		60	trustworthiness	100	1.0	1	-0.98	288.48207607255335	0.5167451983015781
86.0	252.13559128132874	face	0.0		147	trustworthiness	062	1.0	1		288.99882127085493	1.2334312337561641
86.0	253.3690225150849	rating	1.0		125	trustworthiness	062	1.0	1		290.2322525046111	1.0501070062691724
86.0	254.41912952135408	fix	2.0		60	trustworthiness	062	1.0	1	-1.2799999999999998	291.28235951088027	0.5167491223674006
87.0	254.93587864372148	face	0.0		147	trustworthiness	024	1.0	1		291.79910863324767	1.2334360633767574
87.0	256.16931470709824	rating	1.0		75	trustworthiness	024	1.0	1		293.0325446966244	0.6334031615906497
87.0	256.8027178686889	fix	2.0		60	trustworthiness	024	1.0	1	-3.37	293.6659478582151	0.5167415760861331
88.0	257.319459444775	face	0.0		147	trustworthiness	018	1.0	1		294.1826894343012	1.233440591145154
88.0	258.5529000359202	rating	1.0		203	trustworthiness	018	1.0	1		295.41613002544636	1.7001666218920946
88.0	260.25306665781227	fix	2.0		60	trustworthiness	018	1.0	1	1.9000000000000004	297.11629664733846	0.5167518390289843
89.0	260.76981849684125	face	0.0		147	trustworthiness	102	1.0	1		297.63304848636744	1.2334339504177478
89.0	262.003252447259	rating	1.0		136	trustworthiness	102	1.0	1		298.8664824367852	1.1417813449888854
89.0	263.1450337922479	fix	2.0		60	trustworthiness	102	1.0	1	-2.7800000000000002	300.0082637817741	0.516750933475123
90.0	263.661784725723	face	0.0		147	trustworthiness	137	1.0	1		300.5250147152492	1.2334321393100254
90.0	264.89521686503303	rating	1.0		194	trustworthiness	137	1.0	1		301.7584468545592	1.6251692630903563
90.0	266.5203861281234	fix	2.0		60	trustworthiness	137	1.0	1	1.88	303.3836161176496	0.516744896450291
91.0	267.0371310245737	face	0.0		147	trustworthiness	141	1.0	1		303.9003610140999	1.233438780038341
91.0	268.270569804612	rating	1.0		114	trustworthiness	141	1.0	1		305.1337997941382	0.9584362897649044
91.0	269.2290060943769	fix	2.0		60	trustworthiness	141	1.0	1	0.8799999999999999	306.0922360839031	0.5167439908964298
92.0	269.74575008527336	face	0.0		147	trustworthiness	101	1.0	1		306.60898007479955	1.233434855971609
92.0	270.97918494124497	rating	1.0		107	trustworthiness	101	1.0	1		307.84241493077116	0.9000959886980127
92.0	271.879280929943	fix	2.0		60	trustworthiness	101	1.0	1	2.3	308.74251091946917	0.5167439908964298
93.0	272.3960249208394	face	0.0		147	trustworthiness	009	1.0	1		309.2592549103656	1.2334327430125995
93.0	273.629457663852	rating	1.0		123	trustworthiness	009	1.0	1		310.4926876533782	1.0334686633123056
93.0	274.6629263271643	fix	2.0		60	trustworthiness	009	1.0	1	3.2	311.5261563166905	0.5167116928123505
94.0	275.17963801997666	face	0.0		147	trustworthiness	064	1.0	1		312.04286800950285	1.233440591145154
94.0	276.4130786111218	rating	1.0		158	trustworthiness	064	1.0	1		313.276308600648	1.3251436057344108
94.0	277.73822221685623	fix	2.0		60	trustworthiness	064	1.0	1	2.63	314.6014522063824	0.5167373501681141
95.0	278.25495956702434	face	0.0		147	trustworthiness	066	1.0	1		315.11818955655053	1.233438780038341
95.0	279.4883983470627	rating	1.0		110	trustworthiness	066	1.0	1		316.3516283365889	0.9667625547481293
95.0	280.4551609018108	fix	2.0		60	trustworthiness	066	1.0	1	-3.42	317.318390891337	0.5168143222381332
96.0	280.97197522404895	face	0.0		147	trustworthiness	033	1.0	1		317.83520521357514	1.2333762968282826
96.0	282.20535152087723	rating	1.0		108	trustworthiness	033	1.0	1		319.0685815104034	0.9084192351692764
96.0	283.1137707560465	fix	2.0		60	trustworthiness	033	1.0	1	-2.23	319.9770007455727	0.5167427834912814
97.0	283.6305135395378	face	0.0		147	trustworthiness	036	1.0	1		320.493743529064	1.233448137427331
97.0	284.8639616769651	rating	1.0		74	trustworthiness	036	1.0	1		321.7271916664913	0.6250630114491287
97.0	285.48902468841425	fix	2.0		60	trustworthiness	036	1.0	1	1.2000000000000002	322.35225467794044	0.5167427834912814
98.0	286.00576747190553	face	0.0		147	trustworthiness	126	1.0	1		322.8689974614317	1.2334327430125995
98.0	287.2392002149181	rating	1.0		74	trustworthiness	126	1.0	1		324.1024302044443	0.6250636151517028
98.0	287.86426383006983	fix	2.0		60	trustworthiness	126	1.0	1	-1.0899999999999999	324.727493819596	0.5167744778727865
99.0	288.3810383079426	face	0.0		147	trustworthiness	012	1.0	1		325.2442682974688	1.2334167448962035
99.0	289.6144550528388	rating	1.0		306	trustworthiness	012	1.0	1		326.477685042365	2.5585968746327126
99.0	292.17305192747153	fix	2.0		60	trustworthiness	012	1.0	1	-0.8500000000000001	329.0362819169977	0.516740972383559
100.0	292.6897928998551	face	0.0		147	trustworthiness	070	1.0	1		329.5530228893813	1.233434252269035
100.0	293.9232271521241	rating	1.0		113	trustworthiness	070	1.0	1		330.7864571416503	0.9500958377730058
100.0	294.87332298989713	fix	2.0		60	trustworthiness	070	1.0	1	-3.7199999999999998	331.7365529794233	0.5167521408802713
101.0	295.3900751307774	face	0.0		147	trustworthiness	144	1.0	1		332.2533051203036	1.2334327430125995
101.0	296.62350787379	rating	1.0		208	trustworthiness	144	1.0	1		333.4867378633162	1.7418450356035464
101.0	298.36535290939355	fix	2.0		60	trustworthiness	144	1.0	1	0.7699999999999996	335.22858289891974	0.5167415760861331
102.0	298.8820944854797	face	0.0		147	trustworthiness	043	1.0	1		335.7453244750059	1.2334472318725602
102.0	300.11554171735224	rating	1.0		109	trustworthiness	043	1.0	1		336.97877170687843	0.9167608945663233
102.0	301.03230261191857	fix	2.0		60	trustworthiness	043	1.0	1	0.4400000000000004	337.89553260144476	0.5167403686809848
103.0	301.54904298059955	face	0.0		147	trustworthiness	039	1.0	1		338.41227297012574	1.2334360633767574
103.0	302.7824790439763	rating	1.0		68	trustworthiness	039	1.0	1		339.6457090335025	0.5750640679289063
103.0	303.3575431119052	fix	2.0		60	trustworthiness	039	1.0	1	0.9199999999999999	340.2207731014314	0.5167424816399944
104.0	303.8742855935452	face	0.0		147	trustworthiness	034	1.0	1		340.7375155830714	1.2334339504177478
104.0	305.10771954396296	rating	1.0		64	trustworthiness	034	1.0	1		341.97094953348915	0.5417659505746997
104.0	305.64948549453766	fix	2.0		60	trustworthiness	034	1.0	1	-1.69	342.51271548406385	0.5167050520849443
105.0	306.1661905466226	face	0.0		147	trustworthiness	172	1.0	1		343.0294205361488	1.2334318374587383
105.0	307.39962238408134	rating	1.0		96	trustworthiness	172	1.0	1		344.26285237360753	0.8084183296159608
105.0	308.2080407136973	fix	2.0		60	trustworthiness	172	1.0	1	-2.7199999999999998	345.0712707032235	0.5167503297725489
106.0	308.72479104346985	face	0.0		147	trustworthiness	030	1.0	1		345.58802103299604	1.2334324411613125
106.0	309.95822348463116	rating	1.0		89	trustworthiness	030	1.0	1		346.82145347415735	0.7500979507321972
106.0	310.70832143536336	fix	2.0		60	trustworthiness	030	1.0	1	-0.7999999999999998	347.57155142488955	0.5167192390927084
107.0	311.22504067445607	face	0.0		147	trustworthiness	011	1.0	1		348.08827066398226	1.2334417985512118
107.0	312.4584824730073	rating	1.0		213	trustworthiness	011	1.0	1		349.32171246253347	1.78352435486795
107.0	314.24200682787523	fix	2.0		60	trustworthiness	011	1.0	1	-2.83	351.1052368174014	0.5167331242510045
108.0	314.75873995212623	face	0.0		147	trustworthiness	124	1.0	1		351.6219699416524	1.2334490429802827
108.0	315.9921889951065	rating	1.0		171	trustworthiness	124	1.0	1		352.8554189846327	1.4334716818248125
108.0	317.42566067693133	fix	2.0		60	trustworthiness	124	1.0	1	0.7300000000000004	354.2888906664575	0.5167424816399944
109.0	317.9424031585713	face	0.0		147	trustworthiness	130	1.0	1		354.8056331480975	1.2334411948477282
109.0	319.17584435341905	rating	1.0		250	trustworthiness	130	1.0	1		356.03907434294524	2.0918889549611777
109.0	321.26773330838023	fix	2.0		60	trustworthiness	130	1.0	1	1.0300000000000002	358.1309632979064	0.5167439908964298
110.0	321.78447729927666	face	0.0		147	trustworthiness	006	1.0	1		358.64770728880285	1.2334357615254703
110.0	323.01791306080213	rating	1.0		78	trustworthiness	006	1.0	1		359.8811430503283	0.6583952379942275
110.0	323.67630829879636	fix	2.0		60	trustworthiness	006	1.0	1	-3.27	360.53953828832255	0.5167442927477168
111.0	324.1930525915441	face	0.0		147	trustworthiness	044	1.0	1		361.05628258107026	1.2334387800374316
111.0	325.4264913715815	rating	1.0		64	trustworthiness	044	1.0	1		362.2897213611077	0.5417218802922434
111.0	325.96821325187375	fix	2.0		60	trustworthiness	044	1.0	1	0.2999999999999998	362.83144324139994	0.5167551593922326
112.0	326.484968411266	face	0.0		147	trustworthiness	121	1.0	1		363.34819840079217	1.2334354596741832
112.0	327.71840387094016	rating	1.0		276	trustworthiness	121	1.0	1		364.58163386046635	2.308563821919961
112.0	330.0269676928601	fix	2.0		60	trustworthiness	121	1.0	1	-2.5300000000000002	366.8901976823863	0.5167488205161135
113.0	330.54371651337624	face	0.0		147	trustworthiness	061	1.0	1		367.40694650290243	1.2334424022528765
113.0	331.7771589156291	rating	1.0		182	trustworthiness	061	1.0	1		368.6403889051553	1.5251544723796542
113.0	333.30231338800877	fix	2.0		60	trustworthiness	061	1.0	1	-3.81	370.16554337753496	0.5167415760861331
114.0	333.8190549640949	face	0.0		147	trustworthiness	027	1.0	1		370.6822849536211	1.2334882836430552
114.0	335.05254324773796	rating	1.0		131	trustworthiness	027	1.0	1		371.91577323726415	1.1000606721026998
114.0	336.15260391984066	fix	2.0		60	trustworthiness	027	1.0	1	0.5499999999999998	373.01583390936685	0.5167451983006686
115.0	336.6693491181413	face	0.0		147	trustworthiness	092	1.0	1		373.5325791076675	1.2334436096580248
115.0	337.90279272779935	rating	1.0		70	trustworthiness	092	1.0	1		374.76602271732554	0.5917190127047434
115.0	338.4945117405041	fix	2.0		60	trustworthiness	092	1.0	1	-1.73	375.3577417300303	0.5167476131118747
116.0	339.01125935361597	face	0.0		147	trustworthiness	136	1.0	1		375.87448934314216	1.2334430059554506
116.0	340.2447023595714	rating	1.0		90	trustworthiness	136	1.0	1		377.1079323490976	0.7584021805732846
116.0	341.0031045401447	fix	2.0		60	trustworthiness	136	1.0	1	-3.65	377.8663345296709	0.5167464057058169
117.0	341.5198509458505	face	0.0		147	trustworthiness	038	1.0	1		378.3830809353767	1.2334360633767574
117.0	342.7532870092273	rating	1.0		259	trustworthiness	038	1.0	1		379.61651699875347	2.1668908415313126
117.0	344.9201778507586	fix	2.0		60	trustworthiness	038	1.0	1	-2.6799999999999997	381.7834078402848	0.5167494242186876
118.0	345.4369272749773	face	0.0		147	trustworthiness	099	1.0	1		382.30015726450347	1.2334405911460635
118.0	346.67036786612334	rating	1.0		128	trustworthiness	099	1.0	1		383.53359785564953	1.0751084400626496
118.0	347.745476306186	fix	2.0		60	trustworthiness	099	1.0	1	0.6699999999999999	384.6087062957122	0.5167367464655399
119.0	348.26221305265153	face	0.0		147	trustworthiness	042	1.0	1		385.1254430421777	1.2334460244683214
119.0	349.49565907711985	rating	1.0		97	trustworthiness	042	1.0	1		386.35888906664604	0.8167500279214437
119.0	350.3124091050413	fix	2.0		60	trustworthiness	042	1.0	1	0.9500000000000002	387.1756390945675	0.5000537295227332
120.0	350.81246283456403	cue	0.0		3600						387.6756928240902	30.00310182348403
120.0	380.81556465804806	fix	1.0		120						417.67879464757425	1.0001032331283568
120.0	381.8156678911764	cue	0.0		480						418.6788978807026	4.000421686201662
120.0	385.8160895773781	fix	1.0		120						422.67931956690427	1.0167925889481921
120.0	386.83288216632627	face	0.0		147	dominance	034	2.0	1		423.69611215585246	1.233444515211886
120.0	388.06632668153816	rating	1.0		148	dominance	034	2.0	1		424.92955667106435	1.2417855709063588
120.0	389.3081122524445	fix	2.0		60	dominance	034	2.0	1	-1.9900000000000002	426.1713422419707	0.5167451983006686
121.0	389.8248574507452	face	0.0		147	dominance	033	2.0	1		426.6880874402714	1.2334354596741832
121.0	391.05829291041937	rating	1.0		88	dominance	033	2.0	1		427.92152289994556	0.74174904690517
121.0	391.80004195732454	fix	2.0		60	dominance	033	2.0	1	3.0599999999999996	428.6632719468507	0.5167415760861331
122.0	392.31678353341067	face	0.0		147	dominance	100	2.0	1		429.18001352293686	1.2334351578228961
122.0	393.55021869123357	rating	1.0		171	dominance	100	2.0	1		430.41344868075976	1.4335100169337238
122.0	394.9837287081673	fix	2.0		60	dominance	100	2.0	1	0.5300000000000002	431.8469586976935	0.5167125983653023
123.0	395.5004413065326	face	0.0		147	dominance	006	2.0	1		432.3636712960588	1.2334475337247568
123.0	396.73388884025735	rating	1.0		269	dominance	006	2.0	1		433.59711882978354	2.2502334819446332
123.0	398.984122322202	fix	2.0		60	dominance	006	2.0	1	1.13	435.8473523117282	0.516740972383559
124.0	399.50086329458554	face	0.0		147	dominance	036	2.0	1		436.36409328411173	1.2334390818896281
124.0	400.73430237647517	rating	1.0		153	dominance	036	2.0	1		437.59753236600136	1.2834663994271978
124.0	402.01776877590237	fix	2.0		60	dominance	036	2.0	1	-0.8799999999999999	438.88099876542856	0.5167418779374202
125.0	402.5345106538398	face	0.0		147	dominance	172	2.0	1		439.397740643366	1.2334336485664608
125.0	403.76794430240625	rating	1.0		116	dominance	172	2.0	1		440.63117429193244	0.9751008937819279
125.0	404.7430451961882	fix	2.0		60	dominance	172	2.0	1	2.91	441.60627518571437	0.5167482168135393
126.0	405.2597934130017	face	0.0		147	dominance	101	2.0	1		442.1230234025279	1.2334333467151737
126.0	406.4932267597169	rating	1.0		113	dominance	101	2.0	1		443.3564567492431	0.9501048933107086
126.0	407.4433316530276	fix	2.0		60	dominance	101	2.0	1	3.29	444.3065616425538	0.5167451983015781
127.0	407.9600768513292	face	0.0		147	dominance	130	2.0	1		444.82330684085537	1.2334312337570736
127.0	409.19350808508625	rating	1.0		119	dominance	130	2.0	1		446.05673807461244	1.0001089683019018
127.0	410.19361705338815	fix	2.0		60	dominance	130	2.0	1	-1.79	447.05684704291434	0.5167406705322719
128.0	410.7103577239204	face	0.0		147	dominance	062	2.0	1		447.5735877134466	1.2334333467160832
128.0	411.9437910706365	rating	1.0		121	dominance	062	2.0	1		448.8070210601627	1.0167732704676382
128.0	412.96056434110415	fix	2.0		60	dominance	062	2.0	1	0.9299999999999997	449.82379433063034	0.5167451983006686
129.0	413.4773095394048	face	0.0		147	dominance	038	2.0	1		450.340539528931	1.233442100402499
129.0	414.7107516398073	rating	1.0		115	dominance	038	2.0	1		451.5739816293335	0.9667586306813973
129.0	415.6775102704887	fix	2.0		60	dominance	038	2.0	1	0.9400000000000004	452.5407402600149	0.5167485186648264
130.0	416.19425878915354	face	0.0		147	dominance	030	2.0	1		453.0574887786797	1.2334414966999248
130.0	417.42770028585346	rating	1.0		92	dominance	030	2.0	1		454.29093027537965	0.7750716142099918
130.0	418.20277190006345	fix	2.0		60	dominance	030	2.0	1	-1.4100000000000001	455.06600188958964	0.5167461038545298
131.0	418.719518003918	face	0.0		147	dominance	011	2.0	1		455.5827479934442	1.2334436096580248
131.0	419.952961613576	rating	1.0		84	dominance	011	2.0	1		456.8161916031022	0.7084062555650235
131.0	420.66136786914103	fix	2.0		60	dominance	011	2.0	1	0.5800000000000001	457.5245978586672	0.5167424816399944
132.0	421.178110350781	face	0.0		147	dominance	024	2.0	1		458.0413403403072	1.233432441162222
132.0	422.41154279194325	rating	1.0		186	dominance	024	2.0	1		459.27477278146944	1.5584933396521592
132.0	423.9700361315954	fix	2.0		60	dominance	024	2.0	1	1.5599999999999996	460.8332661211216	0.5167497260699747
133.0	424.4867858576654	face	0.0		147	dominance	092	2.0	1		461.35001584719157	1.233440892996441
133.0	425.7202267506618	rating	1.0		86	dominance	092	2.0	1		462.583456740188	0.7250666336640279
133.0	426.44529338432585	fix	2.0		60	dominance	092	2.0	1	-1.9900000000000002	463.30852337385204	0.52508323548318
134.0	426.97037661980903	face	0.0		146	dominance	018	2.0	1		463.8336066093352	1.2250989317490166
134.0	428.19547555155805	rating	1.0		121	dominance	018	2.0	1		465.05870554108424	1.0167699501034804
134.0	429.2122455016615	fix	2.0		60	dominance	018	2.0	1	-1.0499999999999998	466.0754754911877	0.5167439908964298
135.0	429.72898949255796	face	0.0		147	dominance	066	2.0	1		466.59221948208415	1.2334454207657473
135.0	430.9624349133237	rating	1.0		109	dominance	066	2.0	1		467.8256649028499	0.916759687161175
135.0	431.8791946004849	fix	2.0		60	dominance	066	2.0	1	0.8799999999999999	468.74242459001107	0.5167433871938556
136.0	432.39593798767874	face	0.0		147	dominance	009	2.0	1		469.2591679772049	1.2334360633767574
136.0	433.6293740510555	rating	1.0		106	dominance	009	2.0	1		470.4926040405817	0.8917645922438169
136.0	434.5211386432993	fix	2.0		60	dominance	009	2.0	1	-1.2400000000000002	471.3843686328255	0.5167400668296978
137.0	435.037878710129	face	0.0		147	dominance	124	2.0	1		471.9011086996552	1.2334390818896281
137.0	436.27131779201864	rating	1.0		104	dominance	124	2.0	1		473.1345477815448	0.87509093269
137.0	437.14640872470864	fix	2.0		60	dominance	124	2.0	1	-1.6	474.0096387142348	0.5167418779374202
138.0	437.66315060264606	face	0.0		147	dominance	117	2.0	1		474.52638059217225	1.2334846614285198
138.0	438.8966352640746	rating	1.0		98	dominance	117	2.0	1		475.75986525360076	0.8250403726051445
138.0	439.7216756366797	fix	2.0		60	dominance	117	2.0	1	2.9699999999999998	476.5849056262059	0.5167370483177365
139.0	440.23841268499746	face	0.0		147	dominance	091	2.0	1		477.10164267452365	1.2334387800374316
139.0	441.4718514650349	rating	1.0		192	dominance	091	2.0	1		478.3350814545611	1.6085067720332518
139.0	443.08035823706814	fix	2.0		60	dominance	091	2.0	1	1.4699999999999998	479.94358822659433	0.5167922870969051
140.0	443.59715052416504	face	0.0		147	dominance	043	2.0	1		480.46038051369123	1.2333826357044018
140.0	444.83053315986945	rating	1.0		98	dominance	043	2.0	1		481.69376314939564	0.8250829336320749
140.0	445.6556160935015	fix	2.0		60	dominance	043	2.0	1	-0.8300000000000001	482.5188460830277	0.5167473112596781
141.0	446.1723634047612	face	0.0		147	dominance	012	2.0	1		483.0355933942874	1.2334430059554506
141.0	447.40580641071665	rating	1.0		92	dominance	012	2.0	1		484.26903640024284	0.7750704068048435
141.0	448.1808768175215	fix	2.0		60	dominance	012	2.0	1	2.54	485.0441068070477	0.5167424816399944
142.0	448.6976192991615	face	0.0		147	dominance	137	2.0	1		485.5608492886877	1.2334424022528765
142.0	449.93106170141436	rating	1.0		263	dominance	137	2.0	1		486.79429169094055	2.2002324254654013
142.0	452.13129412687977	fix	2.0		60	dominance	137	2.0	1	3.0700000000000003	488.99452411640596	0.5167424816399944
143.0	452.64803660851976	face	0.0		147	dominance	144	2.0	1		489.51126659804595	1.2334369689306186
143.0	453.8814735774504	rating	1.0		252	dominance	144	2.0	1		490.74470356697657	2.1085460126960243
143.0	455.9900195901464	fix	2.0		60	dominance	144	2.0	1	-1.21	492.8532495796726	0.5167439908964298
144.0	456.50676358104283	face	0.0		147	dominance	087	2.0	1		493.369993570569	1.2334414966990153
144.0	457.74020507774185	rating	1.0		125	dominance	087	2.0	1		494.60343506726804	1.0501070062691724
144.0	458.790312084011	fix	2.0		60	dominance	087	2.0	1	-1.8199999999999998	495.6535420735372	0.5167415760861331
145.0	459.30705366009715	face	0.0		147	dominance	121	2.0	1		496.17028364962334	1.2334414966990153
145.0	460.54049515679617	rating	1.0		83	dominance	121	2.0	1		497.40372514632236	0.7000763683672631
145.0	461.24057152516343	fix	2.0		60	dominance	121	2.0	1	-0.3599999999999999	498.1038015146896	0.5167439908964298
146.0	461.75731551605986	face	0.0		147	dominance	064	2.0	1		498.62054550558605	1.2334372707819057
146.0	462.99075278684177	rating	1.0		111	dominance	064	2.0	1		499.85398277636796	0.9334209708140406
146.0	463.9241737576558	fix	2.0		60	dominance	064	2.0	1	-1.5	500.787403747182	0.5167430853425685
147.0	464.4409168429984	face	0.0		147	dominance	099	2.0	1		501.30414683252457	1.233440289293867
147.0	465.67435713229224	rating	1.0		98	dominance	099	2.0	1		502.53758712181843	0.825093196574926
147.0	466.49945032886717	fix	2.0		60	dominance	099	2.0	1	0.5899999999999999	503.36268031839336	0.5167418779374202
148.0	467.0161922068046	face	0.0		147	dominance	027	2.0	1		503.8794221963308	1.2334529670470147
148.0	468.2496451738516	rating	1.0		118	dominance	027	2.0	1		505.1128751633778	0.991746179317488
148.0	469.2413913531691	fix	2.0		60	dominance	027	2.0	1	-1.79	506.1046213426953	0.5167430853425685
149.0	469.75813443851166	face	0.0		147	dominance	136	2.0	1		506.62136442803785	1.2334481374264215
149.0	470.9915825759381	rating	1.0		135	dominance	136	2.0	1		507.8548125654643	1.1334490429808284
149.0	472.1250316189189	fix	2.0		60	dominance	136	2.0	1	-3.12	508.9882616084451	0.5167415760861331
150.0	472.64177319500504	face	0.0		147	dominance	005	2.0	1		509.50500318453123	1.2334399874425799
150.0	473.8752131824476	rating	1.0		130	dominance	005	2.0	1		510.7384431719738	1.0917736477822473
150.0	474.96698683022987	fix	2.0		60	dominance	005	2.0	1	-3.56	511.83021681975606	0.5167494242186876
151.0	475.48373625444856	face	0.0		147	dominance	102	2.0	1		512.3469662439747	1.2334390818896281
151.0	476.7171753363382	rating	1.0		134	dominance	102	2.0	1		513.5804053258644	1.125117646525723
151.0	477.8422929828639	fix	2.0		60	dominance	102	2.0	1	1.9699999999999998	514.7055229723901	0.516735237210014
152.0	478.3590282200739	face	0.0		147	dominance	044	2.0	1		515.2222582096001	1.233446024467412
152.0	479.59247424454134	rating	1.0		135	dominance	044	2.0	1		516.4557042340675	1.133447533724393
152.0	480.72592177826573	fix	2.0		60	dominance	044	2.0	1	-1.08	517.5891517677919	0.5167455001528651
153.0	481.2426672784186	face	0.0		147	dominance	070	2.0	1		518.1058972679448	1.2334306300544995
153.0	482.4760979084731	rating	1.0		98	dominance	070	2.0	1		519.3393278979993	0.825085650292749
153.0	483.30118355876584	fix	2.0		60	dominance	070	2.0	1	2.9400000000000004	520.164413548292	0.5167385575732624
154.0	483.8179221163391	face	0.0		147	dominance	042	2.0	1		520.6811521058653	1.2334517596418664
154.0	485.05137387598097	rating	1.0		139	dominance	042	2.0	1		521.9146038655072	1.1667857972952334
154.0	486.2181596732762	fix	2.0		60	dominance	042	2.0	1	3.75	523.0813896628024	0.5167334261022916
155.0	486.7348930993785	face	0.0		147	dominance	082	2.0	1		523.5981230889047	1.2334421004015894
155.0	487.9683351997801	rating	1.0		176	dominance	082	2.0	1		524.8315651893063	1.4751500955362644
155.0	489.44348529531635	fix	2.0		60	dominance	082	2.0	1	1.9000000000000004	526.3067152848425	0.5167485186648264
156.0	489.9602338139812	face	0.0		147	dominance	141	2.0	1		526.8234638035074	1.2334360633767574
156.0	491.19366987735793	rating	1.0		69	dominance	141	2.0	1		528.0568998668841	0.5834292717236167
156.0	491.77709914908155	fix	2.0		60	dominance	141	2.0	1	-0.8500000000000001	528.6403291386077	0.5167077687456185
157.0	492.29380691782717	face	0.0		147	dominance	061	2.0	1		529.1570369073534	1.2334433078067377
157.0	493.5272502256339	rating	1.0		80	dominance	061	2.0	1		530.3904802151601	0.6750601438625381
157.0	494.20231036949644	fix	2.0		60	dominance	061	2.0	1	2.95	531.0655403590226	0.5167424816399944
158.0	494.71905285113644	face	0.0		147	dominance	039	2.0	1		531.5822828406626	1.2334427041041636
158.0	495.9524955552406	rating	1.0		156	dominance	039	2.0	1		532.8157255447668	1.3084657202616654
158.0	497.26096127550227	fix	2.0		60	dominance	039	2.0	1	-1.9	534.1241912650285	0.5167418779374202
159.0	497.7777031534397	face	0.0		147	dominance	126	2.0	1		534.6409331429659	1.2334433078067377
159.0	499.0111464612464	rating	1.0		154	dominance	126	2.0	1		535.8743764507726	1.2918056440148575
159.0	500.3029521052613	fix	2.0		60	dominance	126	2.0	1	0.41999999999999993	537.1661820947875	0.5000528239697815
160.0	500.80300492923107	cue	0.0		480						537.6662349187573	4.000411423258811
160.0	504.8034163524899	fix	1.0		120						541.6666463420161	1.0167968148653017
160.0	505.8202131673552	face	0.0		147	attractiveness	033	2.0	1		542.6834431568814	1.233450250385431
160.0	507.0536634177406	rating	1.0		199	attractiveness	033	2.0	1		543.9168934072668	1.6668183972305997
160.0	508.7204818149712	fix	2.0		60	attractiveness	033	2.0	1	2.7800000000000002	545.5837118044974	0.5167506316238359
161.0	509.23723244659504	face	0.0		147	attractiveness	005	2.0	1		546.1004624361212	1.2334393837400057
161.0	510.47067183033505	rating	1.0		131	attractiveness	005	2.0	1		547.3339018198612	1.1001128923689976
161.0	511.57078472270405	fix	2.0		60	attractiveness	005	2.0	1	-3.58	548.4340147122302	0.5167376520203106
162.0	512.0875223747244	face	0.0		147	attractiveness	039	2.0	1		548.9507523642505	1.2334372707819057
162.0	513.3209596455063	rating	1.0		137	attractiveness	039	2.0	1		550.1841896350325	1.1501263247491806
162.0	514.4710859702554	fix	2.0		60	attractiveness	039	2.0	1	2.08	551.3343159597816	0.5167376520203106
163.0	514.9878236222758	face	0.0		147	attractiveness	064	2.0	1		551.851053611802	1.233436667078422
163.0	516.2212602893542	rating	1.0		83	attractiveness	064	2.0	1		553.0844902788804	0.7000778776236984
163.0	516.9213381669779	fix	2.0		60	attractiveness	064	2.0	1	1.6900000000000004	553.7845681565041	0.5167424816399944
164.0	517.4380806486179	face	0.0		147	attractiveness	117	2.0	1		554.3013106381441	1.2334333467151737
164.0	518.671513995333	rating	1.0		163	attractiveness	117	2.0	1		555.5347439848592	1.366815378717547
164.0	520.0383293740506	fix	2.0		60	attractiveness	117	2.0	1	2.49	556.9015593635768	0.5167319168467657
165.0	520.5550612908974	face	0.0		147	attractiveness	042	2.0	1		557.4182912804235	1.233446628169986
165.0	521.7885079190673	rating	1.0		125	attractiveness	042	2.0	1		558.6517379085935	1.0501106284846173
165.0	522.838618547552	fix	2.0		60	attractiveness	042	2.0	1	1.0199999999999996	559.7018485370781	0.5167337279535786
166.0	523.3553522755055	face	0.0		147	attractiveness	044	2.0	1		560.2185822650317	1.2334421004015894
166.0	524.5887943759071	rating	1.0		164	attractiveness	044	2.0	1		561.4520243654333	1.3751404362965332
166.0	525.9639348122037	fix	2.0		60	attractiveness	044	2.0	1	0.4400000000000004	562.8271648017299	0.5167442927468073
167.0	526.4806791049505	face	0.0		147	attractiveness	091	2.0	1		563.3439090944767	1.233438780038341
167.0	527.7141178849888	rating	1.0		233	attractiveness	091	2.0	1		564.577347874515	1.9502081264390654
167.0	529.6643260114279	fix	2.0		60	attractiveness	091	2.0	1	0.9199999999999999	566.5275560009541	0.5167445945990039
168.0	530.1810706060269	face	0.0		147	attractiveness	024	2.0	1		567.0443005955531	1.2334363652280445
168.0	531.4145069712549	rating	1.0		139	attractiveness	024	2.0	1		568.2777369607811	1.1667879102533334
168.0	532.5812948815083	fix	2.0		60	attractiveness	024	2.0	1	-2.4699999999999998	569.4445248710344	0.5167367464664494
169.0	533.0980316279747	face	0.0		147	attractiveness	172	2.0	1		569.9612616175009	1.2334411948477282
169.0	534.3314728228224	rating	1.0		110	attractiveness	172	2.0	1		571.1947028123486	0.9250998373017865
169.0	535.2565726601242	fix	2.0		60	attractiveness	172	2.0	1	-3.56	572.1198026496504	0.5167367464664494
170.0	535.7733094065907	face	0.0		147	attractiveness	027	2.0	1		572.6365393961169	1.233444817063173
170.0	537.0067542236538	rating	1.0		92	attractiveness	027	2.0	1		573.86998421318	0.775078254937398
170.0	537.7818324785912	fix	2.0		60	attractiveness	027	2.0	1	3.05	574.6450624681174	0.5167373501681141
171.0	538.2985698287594	face	0.0		147	attractiveness	066	2.0	1		575.1617998182855	1.2334466281708956
171.0	539.5320164569303	rating	1.0		95	attractiveness	066	2.0	1		576.3952464464564	0.8000802924334494
171.0	540.3320967493637	fix	2.0		60	attractiveness	066	2.0	1	0.11000000000000032	577.1953267388899	0.5167400668296978
172.0	540.8488368161934	face	0.0		147	attractiveness	070	2.0	1		577.7120668057196	1.2334427041041636
172.0	542.0822795202976	rating	1.0		179	attractiveness	070	2.0	1		578.9455095098238	1.500153340437464
172.0	543.582432860735	fix	2.0		60	attractiveness	070	2.0	1	-3.09	580.4456628502612	0.5167436890451427
173.0	544.0991765497802	face	0.0		147	attractiveness	082	2.0	1		580.9624065393064	1.2334393837400057
173.0	545.3326159335202	rating	1.0		121	attractiveness	082	2.0	1		582.1958459230464	1.016770251955677
173.0	546.3493861854759	fix	2.0		60	attractiveness	082	2.0	1	1.79	583.212616175002	0.5167397649784107
174.0	546.8661259504543	face	0.0		147	attractiveness	092	2.0	1		583.7293559399805	1.2334363652280445
174.0	548.0995623156823	rating	1.0		87	attractiveness	092	2.0	1		584.9627923052085	0.7334170467474905
174.0	548.8329793624298	fix	2.0		60	attractiveness	092	2.0	1	-2.75	585.696209351956	0.5167397649784107
175.0	549.3497191274082	face	0.0		147	attractiveness	062	2.0	1		586.2129491169344	1.2334780207011136
175.0	550.5831971481093	rating	1.0		155	attractiveness	062	2.0	1		587.4464271376355	1.3000911590788746
175.0	551.8832883071882	fix	2.0		60	attractiveness	062	2.0	1	-1.69	588.7465182967144	0.5167479149622523
176.0	552.4000362221504	face	0.0		147	attractiveness	043	2.0	1		589.2632662116766	1.2334327430125995
176.0	553.633468965163	rating	1.0		90	attractiveness	043	2.0	1		590.4966989546892	0.7584106324084132
176.0	554.3918795975715	fix	2.0		60	attractiveness	043	2.0	1	-0.3999999999999999	591.2551095870976	0.5167439908964298
177.0	554.9086235884679	face	0.0		147	attractiveness	102	2.0	1		591.7718535779941	1.2334451189144602
177.0	556.1420687073824	rating	1.0		110	attractiveness	102	2.0	1		593.0052986969085	0.9250953095333898
177.0	557.0671640169157	fix	2.0		60	attractiveness	102	2.0	1	-3.26	593.9303940064419	0.5167430853425685
178.0	557.5839071022583	face	0.0		147	attractiveness	061	2.0	1		594.4471370917845	1.2334324411613125
178.0	558.8173395434196	rating	1.0		111	attractiveness	061	2.0	1		595.6805695329458	0.9334342522697625
178.0	559.7507737956894	fix	2.0		60	attractiveness	061	2.0	1	-2.49	596.6140037852156	0.516737048316827
179.0	560.2675108440062	face	0.0		147	attractiveness	038	2.0	1		597.1307408335324	1.2334411948477282
179.0	561.5009520388539	rating	1.0		84	attractiveness	038	2.0	1		598.3641820283801	0.7084053500120717
179.0	562.209357388866	fix	2.0		60	attractiveness	038	2.0	1	-3.35	599.0725873783922	0.5167427834912814
180.0	562.7261001723573	face	0.0		147	attractiveness	126	2.0	1		599.5893301618835	1.233446326318699
180.0	563.959546498676	rating	1.0		134	attractiveness	126	2.0	1		600.8227764882022	1.1251049687734849
180.0	565.0846514674495	fix	2.0		60	attractiveness	126	2.0	1	1.6799999999999997	601.9478814569757	0.5167418779374202
181.0	565.6013933453869	face	0.0		147	attractiveness	036	2.0	1		602.4646233349131	1.2334493448324793
181.0	566.8348426902194	rating	1.0		98	attractiveness	036	2.0	1		603.6980726797456	0.8250835373337395
181.0	567.6599262275531	fix	2.0		60	attractiveness	036	2.0	1	0.5999999999999996	604.5231562170793	0.516739161276746
182.0	568.1766653888299	face	0.0		147	attractiveness	099	2.0	1		605.039895378356	1.2334900947507776
182.0	569.4101554835806	rating	1.0		74	attractiveness	099	2.0	1		606.2733854731068	0.6250123004383568
182.0	570.035167784019	fix	2.0		60	attractiveness	099	2.0	1	0.3799999999999999	606.8983977735452	0.5167485186657359
183.0	570.5519163026847	face	0.0		147	attractiveness	011	2.0	1		607.4151462922109	1.233436365227135
183.0	571.7853526679119	rating	1.0		84	attractiveness	011	2.0	1		608.648582657438	0.7084080666736554
183.0	572.4937607345855	fix	2.0		60	attractiveness	011	2.0	1	-0.43999999999999995	609.3569907241117	0.516743085341659
184.0	573.0105038199272	face	0.0		147	attractiveness	121	2.0	1		609.8737338094534	1.2334321393109349
184.0	574.2439359592381	rating	1.0		78	attractiveness	121	2.0	1		611.1071659487643	0.6584082175986623
184.0	574.9023441768368	fix	2.0		60	attractiveness	121	2.0	1	0.7400000000000002	611.765574166363	0.5167455001519556
185.0	575.4190896769887	face	0.0		147	attractiveness	144	2.0	1		612.2823196665149	1.233433044864796
185.0	576.6525227218535	rating	1.0		117	attractiveness	144	2.0	1		613.5157527113797	0.9834839067998473
185.0	577.6360066286534	fix	2.0		60	attractiveness	144	2.0	1	0.9400000000000004	614.4992366181796	0.5166887521172612
186.0	578.1526953807706	face	0.0		147	attractiveness	137	2.0	1		615.0159253702968	1.233440892996441
186.0	579.3861362737671	rating	1.0		114	attractiveness	137	2.0	1		616.2493662632933	0.9584537971377358
186.0	580.3445900709048	fix	2.0		60	attractiveness	137	2.0	1	1.5300000000000002	617.207820060431	0.5167234650107275
187.0	580.8613135359155	face	0.0		147	attractiveness	009	2.0	1		617.7245435254417	1.2334357615254703
187.0	582.094749297441	rating	1.0		107	attractiveness	009	2.0	1		618.9579792869672	0.9000929701860514
187.0	582.9948422676271	fix	2.0		60	attractiveness	009	2.0	1	3.3099999999999996	619.8580722571533	0.5167928907994792
188.0	583.5116351584265	face	0.0		147	attractiveness	030	2.0	1		620.3748651479527	1.2333895782840045
188.0	584.7450247367105	rating	1.0		141	attractiveness	030	2.0	1		621.6082547262367	1.1834555327823182
188.0	585.9284802694929	fix	2.0		60	attractiveness	030	2.0	1	0.7300000000000004	622.791710259019	0.5167418779374202
189.0	586.4452221474303	face	0.0		147	attractiveness	136	2.0	1		623.3084521369565	1.2334463263196085
189.0	587.6786684737499	rating	1.0		139	attractiveness	136	2.0	1		624.5418984632761	1.1667779491617694
189.0	588.8454464229117	fix	2.0		60	attractiveness	136	2.0	1	-3.77	625.7086764124379	0.5167711575086287
190.0	589.3622175804203	face	0.0		147	attractiveness	101	2.0	1		626.2254475699465	1.2334137263842422
190.0	590.5956313068045	rating	1.0		82	attractiveness	101	2.0	1		627.4588612963307	0.6917431608053448
190.0	591.2873744676099	fix	2.0		60	attractiveness	101	2.0	1	2.9000000000000004	628.1506044571361	0.5167421797887073
191.0	591.8041166473986	face	0.0		147	attractiveness	006	2.0	1		628.6673466369248	1.2334333467151737
191.0	593.0375499941138	rating	1.0		141	attractiveness	006	2.0	1		629.90077998364	1.183453117972931
191.0	594.2210031120867	fix	2.0		60	attractiveness	006	2.0	1	-3.73	631.0842331016129	0.5167512353264101
192.0	594.7377543474131	face	0.0		147	attractiveness	124	2.0	1		631.6009843369393	1.233434855971609
192.0	595.9711892033847	rating	1.0		109	attractiveness	124	2.0	1		632.8344191929109	0.9167654223347199
192.0	596.8879546257194	fix	2.0		60	attractiveness	124	2.0	1	3.7300000000000004	633.7511846152456	0.5167400668296978
193.0	597.4046946925491	face	0.0		147	attractiveness	034	2.0	1		634.2679246820753	1.2334421004015894
193.0	598.6381367929507	rating	1.0		105	attractiveness	034	2.0	1		635.5013667824769	0.8834235365502536
193.0	599.521560329501	fix	2.0		60	attractiveness	034	2.0	1	-0.6499999999999999	636.3847903190272	0.5167400668296978
194.0	600.0383003963307	face	0.0		147	attractiveness	130	2.0	1		636.9015303858569	1.2334411948477282
194.0	601.2717415911784	rating	1.0		135	attractiveness	130	2.0	1		638.1349715807046	1.1334481374269672
194.0	602.4051897286054	fix	2.0		60	attractiveness	130	2.0	1	0.75	639.2684197181316	0.5167470094093005
195.0	602.9219367380147	face	0.0		147	attractiveness	018	2.0	1		639.7851667275409	1.233430328202303
195.0	604.155367066217	rating	1.0		91	attractiveness	018	2.0	1		641.0185970557432	0.7667528955080343
195.0	604.922119961725	fix	2.0		60	attractiveness	018	2.0	1	0.40000000000000036	641.7853499512512	0.5167343316561528
196.0	605.4388542933812	face	0.0		147	attractiveness	087	2.0	1		642.3020842829073	1.233440892996441
196.0	606.6722951863776	rating	1.0		301	attractiveness	087	2.0	1		643.5355251759038	2.5169269127563894
196.0	609.189222099134	fix	2.0		60	attractiveness	087	2.0	1	0.2699999999999996	646.0524520886602	0.516740972383559
197.0	609.7059630715175	face	0.0		147	attractiveness	100	2.0	1		646.5691930610437	1.2334478355760439
197.0	610.9394109070936	rating	1.0		142	attractiveness	100	2.0	1		647.8026408966198	1.1917799866578207
197.0	612.1311908937514	fix	2.0		60	attractiveness	100	2.0	1	3.7699999999999996	648.9944208832776	0.5167533482854196
198.0	612.6479442420368	face	0.0		147	attractiveness	141	2.0	1		649.511174231563	1.2334315356074512
198.0	613.8813757776443	rating	1.0		111	attractiveness	141	2.0	1		650.7446057671705	0.9334327430133271
198.0	614.8148085206576	fix	2.0		60	attractiveness	141	2.0	1	0.5300000000000002	651.6780385101838	0.5167355390603916
199.0	615.331544059718	face	0.0		147	attractiveness	012	2.0	1		652.1947740492442	1.2334508540880051
199.0	616.564994913806	rating	1.0		82	attractiveness	012	2.0	1		653.4282249033322	0.6917350108215032
199.0	617.2567299246275	fix	2.0		60	attractiveness	012	2.0	1	3.3600000000000003	654.1199599141537	0.5000516165646332
200.0	617.7567815411921	cue	0.0		480						654.6200115307183	4.000412932515246
200.0	621.7571944737074	fix	1.0		120						658.6204244632336	1.0167995315268854
200.0	622.7739940052343	face	0.0		147	trustworthiness	144	2.0	1		659.6372239947605	1.233430328202303
200.0	624.0074243334366	rating	1.0		156	trustworthiness	144	2.0	1		660.8706543229628	1.308465720262575
200.0	625.3158900536991	fix	2.0		60	trustworthiness	144	2.0	1	0.75	662.1791200432253	0.5167418779374202
201.0	625.8326319316366	face	0.0		147	trustworthiness	005	2.0	1		662.6958619211628	1.233448137427331
201.0	627.0660800690639	rating	1.0		133	trustworthiness	005	2.0	1		663.9293100585901	1.1167735723183796
201.0	628.1828536413823	fix	2.0		60	trustworthiness	005	2.0	1	-3.45	665.0460836309085	0.5167461038554393
202.0	628.6995997452377	face	0.0		147	trustworthiness	030	2.0	1		665.5628297347639	1.233444817063173
202.0	629.9330445623009	rating	1.0		250	trustworthiness	030	2.0	1		666.7962745518271	2.0918847290431586
202.0	632.024929291344	fix	2.0		60	trustworthiness	030	2.0	1	-2.01	668.8881592808702	0.5167397649784107
203.0	632.5416690563225	face	0.0		147	trustworthiness	012	2.0	1		669.4048990458487	1.233438780038341
203.0	633.7751078363608	rating	1.0		323	trustworthiness	012	2.0	1		670.638337825887	2.700278608706867
203.0	636.4753864450677	fix	2.0		60	trustworthiness	012	2.0	1	0.7300000000000004	673.3386164345939	0.5167337279535786
204.0	636.9921201730212	face	0.0		147	trustworthiness	036	2.0	1		673.8553501625474	1.2334414966990153
204.0	638.2255616697203	rating	1.0		355	trustworthiness	036	2.0	1		675.0887916592465	2.966981396907613
204.0	641.1925430666279	fix	2.0		60	trustworthiness	036	2.0	1	1.2000000000000002	678.0557730561541	0.5167403686809848
205.0	641.7092834353089	face	0.0		147	trustworthiness	082	2.0	1		678.572513424835	1.2334330448638866
205.0	642.9427164801727	rating	1.0		92	trustworthiness	082	2.0	1		679.8059464696989	0.7750854993673784
205.0	643.7178019795401	fix	2.0		60	trustworthiness	082	2.0	1	1.3099999999999996	680.5810319690663	0.5167690445505286
206.0	644.2345710240907	face	0.0		147	trustworthiness	006	2.0	1		681.0978010136168	1.2334149337893905
206.0	645.46798595788	rating	1.0		88	trustworthiness	006	2.0	1		682.3312159474062	0.7417402932178447
206.0	646.2097262510979	fix	2.0		60	trustworthiness	006	2.0	1	-3.34	683.0729562406241	0.5167430853425685
207.0	646.7264693364405	face	0.0		147	trustworthiness	009	2.0	1		683.5896993259666	1.233440591145154
207.0	647.9599099275856	rating	1.0		230	trustworthiness	009	2.0	1		684.8231399171118	1.9251991463652303
207.0	649.8851090739508	fix	2.0		60	trustworthiness	009	2.0	1	1.37	686.748339063477	0.5167361427629658
208.0	650.4018452167138	face	0.0		147	trustworthiness	137	2.0	1		687.26507520624	1.233438780038341
208.0	651.6352839967522	rating	1.0		109	trustworthiness	137	2.0	1		688.4985139862783	0.9167581779047396
208.0	652.5520421746569	fix	2.0		60	trustworthiness	137	2.0	1	0.3200000000000003	689.4152721641831	0.5167545556905679
209.0	653.0687967303475	face	0.0		147	trustworthiness	091	2.0	1		689.9320267198736	1.2334384781861445
209.0	654.3022352085336	rating	1.0		123	trustworthiness	091	2.0	1		691.1654651980598	1.0334306300546814
209.0	655.3356658385883	fix	2.0		60	trustworthiness	091	2.0	1	-0.45999999999999996	692.1988958281145	0.5167497260699747
210.0	655.8524155646583	face	0.0		147	trustworthiness	064	2.0	1		692.7156455541844	1.2334327430125995
210.0	657.0858483076709	rating	1.0		127	trustworthiness	064	2.0	1		693.949078297197	1.066781269526473
210.0	658.1526295771973	fix	2.0		60	trustworthiness	064	2.0	1	1.2199999999999998	695.0158595667235	0.5167355390603916
211.0	658.6693651162577	face	0.0		147	trustworthiness	039	2.0	1		695.5325951057839	1.2334490429811922
211.0	659.9028141592389	rating	1.0		99	trustworthiness	039	2.0	1		696.7660441487651	0.8334104060195386
211.0	660.7362245652585	fix	2.0		60	trustworthiness	039	2.0	1	1.38	697.5994545547846	0.516750933475123
212.0	661.2529754987336	face	0.0		147	trustworthiness	034	2.0	1		698.1162054882598	1.233438478187054
212.0	662.4864139769206	rating	1.0		250	trustworthiness	034	2.0	1		699.3496439664468	2.091882616084149
212.0	664.5782965930048	fix	2.0		60	trustworthiness	034	2.0	1	-1.12	701.441526582531	0.5167418779374202
213.0	665.0950384709422	face	0.0		147	trustworthiness	062	2.0	1		701.9582684604684	1.233440289293867
213.0	666.3284787602361	rating	1.0		102	trustworthiness	062	2.0	1		703.1917087497623	0.8584139527729349
213.0	667.186892713009	fix	2.0		60	trustworthiness	062	2.0	1	-1.54	704.0501227025352	0.5167518390289843
214.0	667.703644552038	face	0.0		147	trustworthiness	117	2.0	1		704.5668745415642	1.2334747003369557
214.0	668.9371192523749	rating	1.0		183	trustworthiness	117	2.0	1		705.8003492419011	1.5334686633123056
214.0	670.4705879156872	fix	2.0		60	trustworthiness	117	2.0	1	1.0	707.3338179052134	0.5167264835226888
215.0	670.9873143992099	face	0.0		147	trustworthiness	061	2.0	1		707.8505443887361	1.2334351578228961
215.0	672.2207495570328	rating	1.0		195	trustworthiness	061	2.0	1		709.083979546559	1.6335057910164323
215.0	673.8542553480493	fix	2.0		60	trustworthiness	061	2.0	1	-3.46	710.7174853375755	0.5167385575741719
216.0	674.3709939056234	face	0.0		147	trustworthiness	066	2.0	1		711.2342238951496	1.2334882836430552
216.0	675.6044821892665	rating	1.0		119	trustworthiness	066	2.0	1		712.4677121787927	1.0000522202672073
216.0	676.6045344095337	fix	2.0		60	trustworthiness	066	2.0	1	-2.7800000000000002	713.4677643990599	0.5167485186648264
217.0	677.1212829281985	face	0.0		147	trustworthiness	043	2.0	1		713.9845129177247	1.233434554120322
217.0	678.3547174823188	rating	1.0		119	trustworthiness	043	2.0	1		715.217947471845	1.0001008183189697
217.0	679.3548183006378	fix	2.0		60	trustworthiness	043	2.0	1	-1.0899999999999999	716.218048290164	0.5167554612435197
218.0	679.8715737618813	face	0.0		147	trustworthiness	141	2.0	1		716.7348037514075	1.2334354596741832
218.0	681.1050092215555	rating	1.0		355	trustworthiness	141	2.0	1		717.9682392110817	2.966970832113475
218.0	684.071980053669	fix	2.0		60	trustworthiness	141	2.0	1	0.4400000000000004	720.9352100431952	0.5167424816399944
219.0	684.588722535309	face	0.0		147	trustworthiness	070	2.0	1		721.4519525248352	1.233434855971609
219.0	685.8221573912806	rating	1.0		110	trustworthiness	070	2.0	1		722.6853873808068	0.9250934984256673
219.0	686.7472508897063	fix	2.0		60	trustworthiness	070	2.0	1	-3.09	723.6104808792325	0.5167521408802713
220.0	687.2640030305865	face	0.0		147	trustworthiness	172	2.0	1		724.1272330201127	1.2334390818896281
220.0	688.4974421124762	rating	1.0		128	trustworthiness	172	2.0	1		725.3606721020024	1.0751008937813822
220.0	689.5725430062575	fix	2.0		60	trustworthiness	172	2.0	1	-3.31	726.4357729957837	0.5167862500711635
221.0	690.0893292563287	face	0.0		147	trustworthiness	033	2.0	1		726.9525592458549	1.2333962190114107
221.0	691.3227254753401	rating	1.0		158	trustworthiness	033	2.0	1		728.1859554648663	1.3251439075856979
221.0	692.6478693829258	fix	2.0		60	trustworthiness	033	2.0	1	-1.2400000000000002	729.511099372452	0.5167358409116787
222.0	693.1646052238375	face	0.0		147	trustworthiness	121	2.0	1		730.0278352133637	1.2334478355760439
222.0	694.3980530594135	rating	1.0		503	trustworthiness	121	2.0	1		731.2612830489397	4.2004256102673025
222.0	698.5984786696808	fix	2.0		60	trustworthiness	121	2.0	1	-0.8500000000000001	735.461708659207	0.5167451983015781
223.0	699.1152238679824	face	0.0		147	trustworthiness	011	2.0	1		735.9784538575086	1.233444515211886
223.0	700.3486683831943	rating	1.0		139	trustworthiness	011	2.0	1		737.2118983727205	1.1667782510130564
223.0	701.5154466342074	fix	2.0		60	trustworthiness	011	2.0	1	-1.15	738.3786766237336	0.5167433871938556
224.0	702.0321900214012	face	0.0		147	trustworthiness	100	2.0	1		738.8954200109274	1.233440591145154
224.0	703.2656306125464	rating	1.0		121	trustworthiness	100	2.0	1		740.1288606020726	1.016770855658251
224.0	704.2824014682046	fix	2.0		60	trustworthiness	100	2.0	1	2.62	741.1456314577308	0.5167418779374202
225.0	704.799143346142	face	0.0		147	trustworthiness	130	2.0	1		741.6623733356682	1.2334387800374316
225.0	706.0325821261795	rating	1.0		149	trustworthiness	130	2.0	1		742.8958121157057	1.2501350784359602
225.0	707.2827172046154	fix	2.0		60	trustworthiness	130	2.0	1	0.5999999999999996	744.1459471941416	0.5167430853425685
226.0	707.799460289958	face	0.0		147	trustworthiness	087	2.0	1		744.6626902794842	1.2334411948486377
226.0	709.0329014848066	rating	1.0		87	trustworthiness	087	2.0	1		745.8961314743328	0.7334067838046394
226.0	709.7663082686113	fix	2.0		60	trustworthiness	087	2.0	1	-1.4	746.6295382581375	0.5167388594245494
227.0	710.2830471280358	face	0.0		147	trustworthiness	092	2.0	1		747.146277117562	1.233444213360599
227.0	711.5164913413964	rating	1.0		88	trustworthiness	092	2.0	1		748.3797213309226	0.7417396895161801
227.0	712.2582310309126	fix	2.0		60	trustworthiness	092	2.0	1	-3.15	749.1214610204388	0.5167424816399944
228.0	712.7749735125526	face	0.0		147	trustworthiness	102	2.0	1		749.6382035020788	1.2334360633767574
228.0	714.0084095759294	rating	1.0		169	trustworthiness	102	2.0	1		750.8716395654556	1.4168097944693727
228.0	715.4252193703987	fix	2.0		60	trustworthiness	102	2.0	1	-2.56	752.2884493599249	0.5167690445505286
229.0	715.9419884149493	face	0.0		147	trustworthiness	101	2.0	1		752.8052184044755	1.2334137263833327
229.0	717.1754021413326	rating	1.0		81	trustworthiness	101	2.0	1		754.0386321308588	0.6834135754588715
229.0	717.8588157167915	fix	2.0		60	trustworthiness	101	2.0	1	0.9500000000000002	754.7220457063177	0.5167418779374202
230.0	718.3755575947289	face	0.0		147	trustworthiness	027	2.0	1		755.2387875842551	1.233436968929709
230.0	719.6089945636586	rating	1.0		129	trustworthiness	027	2.0	1		756.4722245531848	1.08343621430231
230.0	720.6924307779609	fix	2.0		60	trustworthiness	027	2.0	1	1.5700000000000003	757.5556607674871	0.5167464057067264
231.0	721.2091771836676	face	0.0		147	trustworthiness	136	2.0	1		758.0724071731938	1.2334378744835703
231.0	722.4426150581512	rating	1.0		320	trustworthiness	136	2.0	1		759.3058450476774	2.675275665657864
231.0	725.1178907238091	fix	2.0		60	trustworthiness	136	2.0	1	-3.09	761.9811207133353	0.5167436890451427
232.0	725.6346344128542	face	0.0		147	trustworthiness	042	2.0	1		762.4978644023804	1.2334387800374316
232.0	726.8680731928916	rating	1.0		294	trustworthiness	042	2.0	1		763.7313031824178	2.458593856119478
232.0	729.3266670490111	fix	2.0		60	trustworthiness	042	2.0	1	0.5199999999999996	766.1898970385373	0.5167346335074399
233.0	729.8434016825186	face	0.0		147	trustworthiness	038	2.0	1		766.7066316720448	1.2334493448324793
233.0	731.076851027351	rating	1.0		257	trustworthiness	038	2.0	1		767.9400810168772	2.1502180875304475
233.0	733.2270691148815	fix	2.0		60	trustworthiness	038	2.0	1	-2.41	770.0902991044077	0.5167439908964298
234.0	733.7438131057779	face	0.0		147	trustworthiness	124	2.0	1		770.6070430953041	1.2334339504177478
234.0	734.9772470561957	rating	1.0		92	trustworthiness	124	2.0	1		771.8404770457219	0.7750764438296756
234.0	735.7523235000253	fix	2.0		60	trustworthiness	124	2.0	1	2.5599999999999996	772.6155534895515	0.5167497260699747
235.0	736.2690732260953	face	0.0		147	trustworthiness	099	2.0	1		773.1323032156215	1.2334653429488753
235.0	737.5025385690442	rating	1.0		245	trustworthiness	099	2.0	1		774.3657685585704	2.050178846867311
235.0	739.5527174159115	fix	2.0		60	trustworthiness	099	2.0	1	0.6500000000000004	776.4159474054377	0.5167503297725489
236.0	740.069467745684	face	0.0		147	trustworthiness	126	2.0	1		776.9326977352102	1.2334421004015894
236.0	741.3029098460856	rating	1.0		186	trustworthiness	126	2.0	1		778.1661398356118	1.5584821711563563
236.0	742.861392017242	fix	2.0		60	trustworthiness	126	2.0	1	1.17	779.7246220067682	0.5167729686163511
237.0	743.3781649858583	face	0.0		147	trustworthiness	044	2.0	1		780.2413949753845	1.2334125189790939
237.0	744.6115775048374	rating	1.0		87	trustworthiness	044	2.0	1		781.4748074943636	0.7334411948477282
237.0	745.3450186996852	fix	2.0		60	trustworthiness	044	2.0	1	1.8200000000000003	782.2082486892114	0.5167177298371826
238.0	745.8617364295224	face	0.0		147	trustworthiness	018	2.0	1		782.7249664190485	1.2334375726331928
238.0	747.0951740021555	rating	1.0		78	trustworthiness	018	2.0	1		783.9584039916817	0.658403086126782
238.0	747.7535770882823	fix	2.0		60	trustworthiness	018	2.0	1	2.5599999999999996	784.6168070778085	0.5167328223997174
239.0	748.270309910682	face	0.0		147	trustworthiness	024	2.0	1		785.1335399002082	1.2334475337247568
239.0	749.5037574444068	rating	1.0		102	trustworthiness	024	2.0	1		786.366987433933	0.8584205934994316
239.0	750.3621780379062	fix	2.0		60	trustworthiness	024	2.0	1	-3.38	787.2254080274324	0.5000501073081978
