trial_nr	onset	event_type	phase	response	nr_frames	face_age	face_sex	face_eth	attractiveness	expression	face_id	sub_id	ses	run	trial_type	catch	rating_type	onset_abs	duration
-1.0	0.05750336871824402	fix	0.0		714													22.291900404245098	5.966310395455366
-1.0	0.7073283522968268	pulse	0.0	t														22.94172538782368	
-1.0	1.4073212888542912	pulse	0.0	t														23.641718324381145	
-1.0	2.107343203639175	pulse	0.0	t														24.34174023916603	
-1.0	2.807336442052474	pulse	0.0	t														25.041733477579328	
-1.0	3.5072907409721665	pulse	0.0	t														25.74168777649902	
-1.0	4.2073072223392955	pulse	0.0	t														26.44170425786615	
-1.0	4.9072705769558524	pulse	0.0	t														27.141667612482706	
-1.0	5.607275889629818	pulse	0.0	t														27.841672925156672	
0.0	6.02381376417361	face	0.0		144	20.0	female	white	3.9502586549940313	smiling	091	sub-02	1.0	6.0	091_smiling	0.0		28.258210799700464	1.233307635280653
0.0	6.307283315301902	pulse	0.0	t		20.0	female	white	3.9502586549940313	smiling	091	sub-02	1.0	6.0	091_smiling	0.0		28.541680350828756	
0.0	7.0072548200441815	pulse	0.0	t		20.0	female	white	3.9502586549940313	smiling	091	sub-02	1.0	6.0	091_smiling	0.0		29.241651855571035	
0.0	7.257121399454263	fix	1.0		445	20.0	female	white	3.9502586549940313	smiling	091	sub-02	1.0	6.0	091_smiling	0.0		29.491518434981117	3.758279321136797
0.0	7.707245945463001	pulse	1.0	t		20.0	female	white	3.9502586549940313	smiling	091	sub-02	1.0	6.0	091_smiling	0.0		29.941642980989855	
0.0	8.407214733495493	pulse	1.0	t		20.0	female	white	3.9502586549940313	smiling	091	sub-02	1.0	6.0	091_smiling	0.0		30.641611769022347	
0.0	9.10720133106588	pulse	1.0	t		20.0	female	white	3.9502586549940313	smiling	091	sub-02	1.0	6.0	091_smiling	0.0		31.341598366592734	
0.0	9.807217208719521	pulse	1.0	t		20.0	female	white	3.9502586549940313	smiling	091	sub-02	1.0	6.0	091_smiling	0.0		32.041614244246375	
0.0	10.507202598862932	pulse	1.0	t		20.0	female	white	3.9502586549940313	smiling	091	sub-02	1.0	6.0	091_smiling	0.0		32.741599634389786	
1.0	11.01540072059106	face	0.0		146	22.0	female	white	4.614007162753682	neutral	009	sub-02	1.0	6.0	009_neutral	0.0		33.249797756117914	1.2416666465433082
1.0	11.207182555588588	pulse	0.0	t		22.0	female	white	4.614007162753682	neutral	009	sub-02	1.0	6.0	009_neutral	0.0		33.44157959111544	
1.0	11.907173681007407	pulse	0.0	t		22.0	female	white	4.614007162753682	neutral	009	sub-02	1.0	6.0	009_neutral	0.0		34.14157071653426	
1.0	12.257067367134368	fix	1.0		445	22.0	female	white	4.614007162753682	neutral	009	sub-02	1.0	6.0	009_neutral	0.0		34.49146440266122	3.758240079785537
1.0	12.60717657882924	pulse	1.0	t		22.0	female	white	4.614007162753682	neutral	009	sub-02	1.0	6.0	009_neutral	0.0		34.84157361435609	
1.0	13.30717132652535	pulse	1.0	t		22.0	female	white	4.614007162753682	neutral	009	sub-02	1.0	6.0	009_neutral	0.0		35.5415683620522	
1.0	14.007166979790782	pulse	1.0	t		22.0	female	white	4.614007162753682	neutral	009	sub-02	1.0	6.0	009_neutral	0.0		36.241564015317635	
1.0	14.707132447403637	pulse	1.0	t		22.0	female	white	4.614007162753682	neutral	009	sub-02	1.0	6.0	009_neutral	0.0		36.94152948293049	
1.0	15.407126893243912	pulse	1.0	t		22.0	female	white	4.614007162753682	neutral	009	sub-02	1.0	6.0	009_neutral	0.0		37.641523928770766	
2.0	16.015307446919905	face	0.0		146	28.0	female	white	5.676880222841227	smiling	124	sub-02	1.0	6.0	124_smiling	1.0	attractiveness	38.24970448244676	1.2416732873880392
2.0	16.107124961361478	pulse	0.0	t		28.0	female	white	5.676880222841227	smiling	124	sub-02	1.0	6.0	124_smiling	1.0	attractiveness	38.34152199688833	
2.0	16.807110955218377	pulse	0.0	t		28.0	female	white	5.676880222841227	smiling	124	sub-02	1.0	6.0	124_smiling	1.0	attractiveness	39.04150799074523	
2.0	17.256980734307945	fix	1.0		177	28.0	female	white	5.676880222841227	smiling	124	sub-02	1.0	6.0	124_smiling	1.0	attractiveness	39.4913777698348	1.5083487481406337
2.0	17.5070906100882	pulse	1.0	t		28.0	female	white	5.676880222841227	smiling	124	sub-02	1.0	6.0	124_smiling	1.0	attractiveness	39.74148764561505	
2.0	18.20708988563092	pulse	1.0	t		28.0	female	white	5.676880222841227	smiling	124	sub-02	1.0	6.0	124_smiling	1.0	attractiveness	40.441486921157775	
2.0	18.76532948244858	rating	2.0		293	28.0	female	white	5.676880222841227	smiling	124	sub-02	1.0	6.0	124_smiling	1.0	attractiveness	40.99972651797543	2.4916020492437383
2.0	18.901977522553352	pulse	2.0	t		28.0	female	white	5.676880222841227	smiling	124	sub-02	1.0	6.0	124_smiling	1.0	attractiveness	41.136374558080206	
2.0	19.601803532445047	pulse	2.0	t		28.0	female	white	5.676880222841227	smiling	124	sub-02	1.0	6.0	124_smiling	1.0	attractiveness	41.8362005679719	
2.0	19.932040622645218	response	2.0	g		28.0	female	white	5.676880222841227	smiling	124	sub-02	1.0	6.0	124_smiling	1.0	attractiveness	42.16643765817207	
2.0	20.307044848635996	pulse	2.0	t		28.0	female	white	5.676880222841227	smiling	124	sub-02	1.0	6.0	124_smiling	1.0	attractiveness	42.54144188416285	
2.0	21.007039596332106	pulse	2.0	t		28.0	female	white	5.676880222841227	smiling	124	sub-02	1.0	6.0	124_smiling	1.0	attractiveness	43.24143663185896	
2.0	21.256931531692317	fix	3.0		444	28.0	female	white	5.676880222841227	smiling	124	sub-02	1.0	6.0	124_smiling	1.0	attractiveness	43.49132856721917	3.7582663413049886
2.0	21.707031325462594	pulse	3.0	t		28.0	female	white	5.676880222841227	smiling	124	sub-02	1.0	6.0	124_smiling	1.0	attractiveness	43.94142836098945	
2.0	22.407017621177147	pulse	3.0	t		28.0	female	white	5.676880222841227	smiling	124	sub-02	1.0	6.0	124_smiling	1.0	attractiveness	44.641414656704	
2.0	23.107005124315037	pulse	3.0	t		28.0	female	white	5.676880222841227	smiling	124	sub-02	1.0	6.0	124_smiling	1.0	attractiveness	45.34140215984189	
2.0	23.80698417547137	pulse	3.0	t		28.0	female	white	5.676880222841227	smiling	124	sub-02	1.0	6.0	124_smiling	1.0	attractiveness	46.041381210998225	
2.0	24.50698918629132	pulse	3.0	t		28.0	female	white	5.676880222841227	smiling	124	sub-02	1.0	6.0	124_smiling	1.0	attractiveness	46.741386221818175	
3.0	25.015197872997305	face	0.0		146	34.0	male	white	2.651014723438122	smiling	121	sub-02	1.0	6.0	121_smiling	0.0		47.24959490852416	1.2416376683158887
3.0	25.2069772931427	pulse	0.0	t		34.0	male	white	2.651014723438122	smiling	121	sub-02	1.0	6.0	121_smiling	0.0		47.44137432866955	
3.0	25.9069518164506	pulse	0.0	t		34.0	male	white	2.651014723438122	smiling	121	sub-02	1.0	6.0	121_smiling	0.0		48.141348851977455	
3.0	26.256835541313194	fix	1.0		445	34.0	male	white	2.651014723438122	smiling	121	sub-02	1.0	6.0	121_smiling	0.0		48.49123257684005	3.758290791683976
3.0	26.606962864399975	pulse	1.0	t		34.0	male	white	2.651014723438122	smiling	121	sub-02	1.0	6.0	121_smiling	0.0		48.84135989992683	
3.0	27.30694433040844	pulse	1.0	t		34.0	male	white	2.651014723438122	smiling	121	sub-02	1.0	6.0	121_smiling	0.0		49.541341365935295	
3.0	28.00693032426534	pulse	1.0	t		34.0	male	white	2.651014723438122	smiling	121	sub-02	1.0	6.0	121_smiling	0.0		50.241327359792194	
3.0	28.706932014662016	pulse	1.0	t		34.0	male	white	2.651014723438122	smiling	121	sub-02	1.0	6.0	121_smiling	0.0		50.94132905018887	
3.0	29.406914989953293	pulse	1.0	t		34.0	male	white	2.651014723438122	smiling	121	sub-02	1.0	6.0	121_smiling	0.0		51.64131202548015	
4.0	30.01512633299717	face	0.0		146	54.0	female	white	2.286908077994429	neutral	136	sub-02	1.0	6.0	136_neutral	0.0		52.249523368524024	1.2416470258685877
4.0	30.106918793346267	pulse	0.0	t		54.0	female	white	2.286908077994429	neutral	136	sub-02	1.0	6.0	136_neutral	0.0		52.34131582887312	
4.0	30.80689120365787	pulse	0.0	t		54.0	female	white	2.286908077994429	neutral	136	sub-02	1.0	6.0	136_neutral	0.0		53.04128823918472	
4.0	31.256773358865757	fix	1.0		444	54.0	female	white	2.286908077994429	neutral	136	sub-02	1.0	6.0	136_neutral	0.0		53.49117039439261	3.7666081467450567
4.0	31.506890781058246	pulse	1.0	t		54.0	female	white	2.286908077994429	neutral	136	sub-02	1.0	6.0	136_neutral	0.0		53.7412878165851	
4.0	32.20687918976728	pulse	1.0	t		54.0	female	white	2.286908077994429	neutral	136	sub-02	1.0	6.0	136_neutral	0.0		54.44127622529413	
4.0	32.906860052064076	pulse	1.0	t		54.0	female	white	2.286908077994429	neutral	136	sub-02	1.0	6.0	136_neutral	0.0		55.14125708759093	
4.0	33.60683699022411	pulse	1.0	t		54.0	female	white	2.286908077994429	neutral	136	sub-02	1.0	6.0	136_neutral	0.0		55.841234025750964	
4.0	34.30685437716056	pulse	1.0	t		54.0	female	white	2.286908077994429	neutral	136	sub-02	1.0	6.0	136_neutral	0.0		56.541251412687416	
5.0	35.023381505610814	face	0.0		146	19.0	female	white	4.298846000795861	smiling	100	sub-02	1.0	6.0	100_smiling	0.0		57.25777854113767	1.2333351042252616
5.0	35.00963375142419	pulse	0.0	t		19.0	female	white	4.298846000795861	smiling	100	sub-02	1.0	6.0	100_smiling	0.0		57.24403078695104	
5.0	35.706824553733895	pulse	0.0	t		19.0	female	white	4.298846000795861	smiling	100	sub-02	1.0	6.0	100_smiling	0.0		57.94122158926075	
5.0	36.256716609836076	fix	1.0		443	19.0	female	white	4.298846000795861	smiling	100	sub-02	1.0	6.0	100_smiling	0.0		58.49111364536293	3.758241589070167
5.0	36.40681749029136	pulse	1.0	t		19.0	female	white	4.298846000795861	smiling	100	sub-02	1.0	6.0	100_smiling	0.0		58.641214525818214	
5.0	37.106814049126115	pulse	1.0	t		19.0	female	white	4.298846000795861	smiling	100	sub-02	1.0	6.0	100_smiling	0.0		59.34121108465297	
5.0	37.806788572435835	pulse	1.0	t		19.0	female	white	4.298846000795861	smiling	100	sub-02	1.0	6.0	100_smiling	0.0		60.04118560796269	
5.0	38.50677909413935	pulse	1.0	t		19.0	female	white	4.298846000795861	smiling	100	sub-02	1.0	6.0	100_smiling	0.0		60.7411761296662	
5.0	39.20676388057109	pulse	1.0	t		19.0	female	white	4.298846000795861	smiling	100	sub-02	1.0	6.0	100_smiling	0.0		61.44116091609794	
5.0	39.90675802455371	pulse	1.0	t		19.0	female	white	4.298846000795861	smiling	100	sub-02	1.0	6.0	100_smiling	0.0		62.141155060080564	
6.0	40.01495819890624	face	0.0		147	28.0	male	white	3.9076800636689217	neutral	033	sub-02	1.0	6.0	033_neutral	0.0		62.2493552344331	1.2416735892420547
6.0	40.60677903376927	pulse	0.0	t		28.0	male	white	3.9076800636689217	neutral	033	sub-02	1.0	6.0	033_neutral	0.0		62.841176069296125	
6.0	41.2566317881483	fix	1.0		443	28.0	male	white	3.9076800636689217	neutral	033	sub-02	1.0	6.0	033_neutral	0.0		63.49102882367515	3.7665849037930457
6.0	41.306763216485706	pulse	1.0	t		28.0	male	white	3.9076800636689217	neutral	033	sub-02	1.0	6.0	033_neutral	0.0		63.54116025201256	
6.0	42.00676460502655	pulse	1.0	t		28.0	male	white	3.9076800636689217	neutral	033	sub-02	1.0	6.0	033_neutral	0.0		64.2411616405534	
6.0	42.70673037449524	pulse	1.0	t		28.0	male	white	3.9076800636689217	neutral	033	sub-02	1.0	6.0	033_neutral	0.0		64.94112741002209	
6.0	43.40670701079762	pulse	1.0	t		28.0	male	white	3.9076800636689217	neutral	033	sub-02	1.0	6.0	033_neutral	0.0		65.64110404632447	
6.0	44.10670055106857	pulse	1.0	t		28.0	male	white	3.9076800636689217	neutral	033	sub-02	1.0	6.0	033_neutral	0.0		66.34109758659542	
6.0	44.80668443192917	pulse	1.0	t		28.0	male	white	3.9076800636689217	neutral	033	sub-02	1.0	6.0	033_neutral	0.0		67.04108146745602	
7.0	45.02321669194134	face	0.0		145	27.0	male	black	3.5523278949462798	neutral	042	sub-02	1.0	6.0	042_neutral	0.0		67.2576137274682	1.2333405376430164
7.0	45.50668582047001	pulse	0.0	t		27.0	male	black	3.5523278949462798	neutral	042	sub-02	1.0	6.0	042_neutral	0.0		67.74108285599686	
7.0	46.206662758630046	pulse	0.0	t		27.0	male	black	3.5523278949462798	neutral	042	sub-02	1.0	6.0	042_neutral	0.0		68.4410597941569	
7.0	46.25655722958436	fix	1.0		445	27.0	male	black	3.5523278949462798	neutral	042	sub-02	1.0	6.0	042_neutral	0.0		68.49095426511121	3.758257285608124
7.0	46.906661732316934	pulse	1.0	t		27.0	male	black	3.5523278949462798	neutral	042	sub-02	1.0	6.0	042_neutral	0.0		69.14105876784379	
7.0	47.60664470760821	pulse	1.0	t		27.0	male	black	3.5523278949462798	neutral	042	sub-02	1.0	6.0	042_neutral	0.0		69.84104174313507	
7.0	48.306634625600054	pulse	1.0	t		27.0	male	black	3.5523278949462798	neutral	042	sub-02	1.0	6.0	042_neutral	0.0		70.54103166112691	
7.0	49.00662816587101	pulse	1.0	t		27.0	male	black	3.5523278949462798	neutral	042	sub-02	1.0	6.0	042_neutral	0.0		71.24102520139786	
7.0	49.70660450031755	pulse	1.0	t		27.0	male	black	3.5523278949462798	neutral	042	sub-02	1.0	6.0	042_neutral	0.0		71.9410015358444	
8.0	50.014814515192484	face	0.0		146	40.0	male	white	1.868682849184242	neutral	172	sub-02	1.0	6.0	172_neutral	0.0		72.24921155071934	1.2416696651089296
8.0	50.40661011484917	pulse	0.0	t		40.0	male	white	1.868682849184242	neutral	172	sub-02	1.0	6.0	172_neutral	0.0		72.64100715037603	
8.0	51.106591279001805	pulse	0.0	t		40.0	male	white	1.868682849184242	neutral	172	sub-02	1.0	6.0	172_neutral	0.0		73.34098831452866	
8.0	51.25648418030141	fix	1.0		445	40.0	male	white	1.868682849184242	neutral	172	sub-02	1.0	6.0	172_neutral	0.0		73.49088121582827	3.766594563201579
8.0	51.80658693226724	pulse	1.0	t		40.0	male	white	1.868682849184242	neutral	172	sub-02	1.0	6.0	172_neutral	0.0		74.04098396779409	
8.0	52.50656387042727	pulse	1.0	t		40.0	male	white	1.868682849184242	neutral	172	sub-02	1.0	6.0	172_neutral	0.0		74.74096090595413	
8.0	53.206561636689	pulse	1.0	t		40.0	male	white	1.868682849184242	neutral	172	sub-02	1.0	6.0	172_neutral	0.0		75.44095867221586	
8.0	53.906555176959955	pulse	1.0	t		40.0	male	white	1.868682849184242	neutral	172	sub-02	1.0	6.0	172_neutral	0.0		76.14095221248681	
8.0	54.606558678495276	pulse	1.0	t		40.0	male	white	1.868682849184242	neutral	172	sub-02	1.0	6.0	172_neutral	0.0		76.84095571402213	
9.0	55.02307874350299	face	0.0		145	40.0	female	west_asian	1.5777954635893354	smiling	038	sub-02	1.0	6.0	038_smiling	0.0		77.25747577902985	1.2333326893731282
9.0	55.30656097260544	pulse	0.0	t		40.0	female	west_asian	1.5777954635893354	smiling	038	sub-02	1.0	6.0	038_smiling	0.0		77.54095800813229	
9.0	56.006523421650854	pulse	0.0	t		40.0	female	west_asian	1.5777954635893354	smiling	038	sub-02	1.0	6.0	038_smiling	0.0		78.24092045717771	
9.0	56.25641143287612	fix	1.0		444	40.0	female	west_asian	1.5777954635893354	smiling	038	sub-02	1.0	6.0	038_smiling	0.0		78.49080846840297	3.7582597004620766
9.0	56.70651786749113	pulse	1.0	t		40.0	female	west_asian	1.5777954635893354	smiling	038	sub-02	1.0	6.0	038_smiling	0.0		78.94091490301798	
9.0	57.40650959662162	pulse	1.0	t		40.0	female	west_asian	1.5777954635893354	smiling	038	sub-02	1.0	6.0	038_smiling	0.0		79.64090663214847	
9.0	58.10648985520493	pulse	1.0	t		40.0	female	west_asian	1.5777954635893354	smiling	038	sub-02	1.0	6.0	038_smiling	0.0		80.34088689073178	
9.0	58.80648128247958	pulse	1.0	t		40.0	female	west_asian	1.5777954635893354	smiling	038	sub-02	1.0	6.0	038_smiling	0.0		81.04087831800643	
9.0	59.50648176544928	pulse	1.0	t		40.0	female	west_asian	1.5777954635893354	smiling	038	sub-02	1.0	6.0	038_smiling	0.0		81.74087880097613	
10.0	60.0146711333382	face	0.0		146	20.0	female	white	3.9502586549940313	neutral	091	sub-02	1.0	6.0	091_neutral	0.0		82.24906816886505	1.2416684576819534
10.0	60.206455081332024	pulse	0.0	t		20.0	female	white	3.9502586549940313	neutral	091	sub-02	1.0	6.0	091_neutral	0.0		82.44085211685888	
10.0	60.90644137704476	pulse	0.0	t		20.0	female	white	3.9502586549940313	neutral	091	sub-02	1.0	6.0	091_neutral	0.0		83.14083841257161	
10.0	61.25633959102015	fix	1.0		444	20.0	female	white	3.9502586549940313	neutral	091	sub-02	1.0	6.0	091_neutral	0.0		83.490736626547	3.766592752061115
10.0	61.60644367115492	pulse	1.0	t		20.0	female	white	3.9502586549940313	neutral	091	sub-02	1.0	6.0	091_neutral	0.0		83.84084070668177	
10.0	62.30643087243698	pulse	1.0	t		20.0	female	white	3.9502586549940313	neutral	091	sub-02	1.0	6.0	091_neutral	0.0		84.54082790796383	
10.0	63.006418979290174	pulse	1.0	t		20.0	female	white	3.9502586549940313	neutral	091	sub-02	1.0	6.0	091_neutral	0.0		85.24081601481703	
10.0	63.706410104707174	pulse	1.0	t		20.0	female	white	3.9502586549940313	neutral	091	sub-02	1.0	6.0	091_neutral	0.0		85.94080714023403	
10.0	64.4064157192388	pulse	1.0	t		20.0	female	white	3.9502586549940313	neutral	091	sub-02	1.0	6.0	091_neutral	0.0		86.64081275476565	
11.0	65.02293234308127	face	0.0		145	22.0	female	white	4.614007162753682	smiling	009	sub-02	1.0	6.0	009_smiling	0.0		87.25732937860812	1.2333224262511067
11.0	65.10639416668164	pulse	0.0	t		22.0	female	white	4.614007162753682	smiling	009	sub-02	1.0	6.0	009_smiling	0.0		87.3407912022085	
11.0	65.80639706450529	pulse	0.0	t		22.0	female	white	4.614007162753682	smiling	009	sub-02	1.0	6.0	009_smiling	0.0		88.04079410003214	
11.0	66.25625476933237	fix	1.0		444	22.0	female	white	4.614007162753682	smiling	009	sub-02	1.0	6.0	009_smiling	0.0		88.49065180485923	3.7666169005860866
11.0	66.50638094536589	pulse	1.0	t		22.0	female	white	4.614007162753682	smiling	009	sub-02	1.0	6.0	009_smiling	0.0		88.74077798089274	
11.0	67.20635727981244	pulse	1.0	t		22.0	female	white	4.614007162753682	smiling	009	sub-02	1.0	6.0	009_smiling	0.0		89.44075431533929	
11.0	67.90635353679136	pulse	1.0	t		22.0	female	white	4.614007162753682	smiling	009	sub-02	1.0	6.0	009_smiling	0.0		90.14075057231821	
11.0	68.60633922879242	pulse	1.0	t		22.0	female	white	4.614007162753682	smiling	009	sub-02	1.0	6.0	009_smiling	0.0		90.84073626431928	
11.0	69.30633820247931	pulse	1.0	t		22.0	female	white	4.614007162753682	smiling	009	sub-02	1.0	6.0	009_smiling	0.0		91.54073523800616	
12.0	70.02287166991846	face	0.0		145	30.0	female	black	2.7345801830481498	neutral	062	sub-02	1.0	6.0	062_neutral	1.0	dominance	92.25726870544531	1.233314879837053
12.0	70.00903184948584	pulse	0.0	t		30.0	female	black	2.7345801830481498	neutral	062	sub-02	1.0	6.0	062_neutral	1.0	dominance	92.24342888501269	
12.0	70.70630777534097	pulse	0.0	t		30.0	female	black	2.7345801830481498	neutral	062	sub-02	1.0	6.0	062_neutral	1.0	dominance	92.94070481086783	
12.0	71.25618654975551	fix	1.0		177	30.0	female	black	2.7345801830481498	neutral	062	sub-02	1.0	6.0	062_neutral	1.0	dominance	93.49058358528237	1.4999815867504367
12.0	71.40629708961933	pulse	1.0	t		30.0	female	black	2.7345801830481498	neutral	062	sub-02	1.0	6.0	062_neutral	1.0	dominance	93.64069412514618	
12.0	72.10630542085892	pulse	1.0	t		30.0	female	black	2.7345801830481498	neutral	062	sub-02	1.0	6.0	062_neutral	1.0	dominance	94.34070245638577	
12.0	72.75616813650595	rating	2.0		294	30.0	female	black	2.7345801830481498	neutral	062	sub-02	1.0	6.0	062_neutral	1.0	dominance	94.9905651720328	2.4999592493677483
12.0	72.80116800368887	pulse	2.0	t		30.0	female	black	2.7345801830481498	neutral	062	sub-02	1.0	6.0	062_neutral	1.0	dominance	95.03556503921573	
12.0	73.5011123413442	pulse	2.0	t		30.0	female	black	2.7345801830481498	neutral	062	sub-02	1.0	6.0	062_neutral	1.0	dominance	95.73550937687105	
12.0	74.10930315814221	response	2.0	w		30.0	female	black	2.7345801830481498	neutral	062	sub-02	1.0	6.0	062_neutral	1.0	dominance	96.34370019366906	
12.0	74.20113184127513	pulse	2.0	t		30.0	female	black	2.7345801830481498	neutral	062	sub-02	1.0	6.0	062_neutral	1.0	dominance	96.43552887680198	
12.0	74.90624607586324	pulse	2.0	t		30.0	female	black	2.7345801830481498	neutral	062	sub-02	1.0	6.0	062_neutral	1.0	dominance	97.14064311139009	
12.0	75.2561273858737	fix	3.0		444	30.0	female	black	2.7345801830481498	neutral	062	sub-02	1.0	6.0	062_neutral	1.0	dominance	97.49052442140055	3.766594563201579
12.0	75.60623206972014	pulse	3.0	t		30.0	female	black	2.7345801830481498	neutral	062	sub-02	1.0	6.0	062_neutral	1.0	dominance	97.84062910524699	
12.0	76.30624613623513	pulse	3.0	t		30.0	female	black	2.7345801830481498	neutral	062	sub-02	1.0	6.0	062_neutral	1.0	dominance	98.54064317176199	
12.0	77.00620949085169	pulse	3.0	t		30.0	female	black	2.7345801830481498	neutral	062	sub-02	1.0	6.0	062_neutral	1.0	dominance	99.24060652637854	
12.0	77.70621057753488	pulse	3.0	t		30.0	female	black	2.7345801830481498	neutral	062	sub-02	1.0	6.0	062_neutral	1.0	dominance	99.94060761306173	
12.0	78.4062017029537	pulse	3.0	t		30.0	female	black	2.7345801830481498	neutral	062	sub-02	1.0	6.0	062_neutral	1.0	dominance	100.64059873848055	
13.0	79.02272194907528	face	0.0		145	31.0	male	west_asian	1.9538400318344609	smiling	070	sub-02	1.0	6.0	070_smiling	0.0		101.25711898460213	1.2333363116504188
13.0	79.09834244537524	pulse	0.0	t		31.0	male	west_asian	1.9538400318344609	smiling	070	sub-02	1.0	6.0	070_smiling	0.0		101.33273948090209	
13.0	79.80619361319805	pulse	0.0	t		31.0	male	west_asian	1.9538400318344609	smiling	070	sub-02	1.0	6.0	070_smiling	0.0		102.0405906487249	
13.0	80.2560582607257	fix	1.0		444	31.0	male	west_asian	1.9538400318344609	smiling	070	sub-02	1.0	6.0	070_smiling	0.0		102.49045529625255	3.766590035353147
13.0	80.50620315186461	pulse	1.0	t		31.0	male	west_asian	1.9538400318344609	smiling	070	sub-02	1.0	6.0	070_smiling	0.0		102.74060018739146	
13.0	81.20616499719836	pulse	1.0	t		31.0	male	west_asian	1.9538400318344609	smiling	070	sub-02	1.0	6.0	070_smiling	0.0		103.44056203272521	
13.0	81.90614314278537	pulse	1.0	t		31.0	male	west_asian	1.9538400318344609	smiling	070	sub-02	1.0	6.0	070_smiling	0.0		104.14054017831222	
13.0	82.60613698491034	pulse	1.0	t		31.0	male	west_asian	1.9538400318344609	smiling	070	sub-02	1.0	6.0	070_smiling	0.0		104.84053402043719	
13.0	83.29807035189151	pulse	1.0	t		31.0	male	west_asian	1.9538400318344609	smiling	070	sub-02	1.0	6.0	070_smiling	0.0		105.53246738741836	
14.0	84.02264829607884	face	0.0		146	21.0	male	black	2.969757262236371	neutral	137	sub-02	1.0	6.0	137_neutral	0.0		106.2570453316057	1.2333245392474055
14.0	84.0090991634952	pulse	0.0	t		21.0	male	black	2.969757262236371	neutral	137	sub-02	1.0	6.0	137_neutral	0.0		106.24349619902205	
14.0	84.69808459952037	pulse	0.0	t		21.0	male	black	2.969757262236371	neutral	137	sub-02	1.0	6.0	137_neutral	0.0		106.93248163504722	
14.0	85.25597283532625	fix	1.0		443	21.0	male	black	2.969757262236371	neutral	137	sub-02	1.0	6.0	137_neutral	0.0		107.4903698708531	3.7666196172940545
14.0	85.39818892113908	pulse	1.0	t		21.0	male	black	2.969757262236371	neutral	137	sub-02	1.0	6.0	137_neutral	0.0		107.63258595666593	
14.0	86.10609231014314	pulse	1.0	t		21.0	male	black	2.969757262236371	neutral	137	sub-02	1.0	6.0	137_neutral	0.0		108.34048934567	
14.0	86.7980060564496	pulse	1.0	t		21.0	male	black	2.969757262236371	neutral	137	sub-02	1.0	6.0	137_neutral	0.0		109.03240309197645	
14.0	87.50607305169615	pulse	1.0	t		21.0	male	black	2.969757262236371	neutral	137	sub-02	1.0	6.0	137_neutral	0.0		109.740470087223	
14.0	88.20605542327394	pulse	1.0	t		21.0	male	black	2.969757262236371	neutral	137	sub-02	1.0	6.0	137_neutral	0.0		110.44045245880079	
14.0	88.90603809670938	pulse	1.0	t		21.0	male	black	2.969757262236371	neutral	137	sub-02	1.0	6.0	137_neutral	0.0		111.14043513223623	
15.0	89.0225924526203	face	0.0		146	31.0	female	east_asian	3.395941106247513	smiling	087	sub-02	1.0	6.0	087_smiling	0.0		111.25698948814716	1.2333145779793995
15.0	89.60604552237965	pulse	0.0	t		31.0	female	east_asian	3.395941106247513	smiling	087	sub-02	1.0	6.0	087_smiling	0.0		111.8404425579065	
15.0	90.2559070305997	fix	1.0		443	31.0	female	east_asian	3.395941106247513	smiling	087	sub-02	1.0	6.0	087_smiling	0.0		112.49030406612655	3.7665969780537125
15.0	90.30603362923284	pulse	1.0	t		31.0	female	east_asian	3.395941106247513	smiling	087	sub-02	1.0	6.0	087_smiling	0.0		112.5404306647597	
15.0	91.00602052865906	pulse	1.0	t		31.0	female	east_asian	3.395941106247513	smiling	087	sub-02	1.0	6.0	087_smiling	0.0		113.24041756418592	
15.0	91.69803117091215	pulse	1.0	t		31.0	female	east_asian	3.395941106247513	smiling	087	sub-02	1.0	6.0	087_smiling	0.0		113.932428206439	
15.0	92.40601062776477	pulse	1.0	t		31.0	female	east_asian	3.395941106247513	smiling	087	sub-02	1.0	6.0	087_smiling	0.0		114.64040766329163	
15.0	93.10599118820392	pulse	1.0	t		31.0	female	east_asian	3.395941106247513	smiling	087	sub-02	1.0	6.0	087_smiling	0.0		115.34038822373077	
15.0	93.80597838948597	pulse	1.0	t		31.0	female	east_asian	3.395941106247513	smiling	087	sub-02	1.0	6.0	087_smiling	0.0		116.04037542501283	
16.0	94.02250400865341	face	0.0		145	21.0	male	black	2.969757262236371	smiling	137	sub-02	1.0	6.0	137_smiling	0.0		116.25690104418027	1.2333287652381841
16.0	94.49784474431544	pulse	0.0	t		21.0	male	black	2.969757262236371	smiling	137	sub-02	1.0	6.0	137_smiling	0.0		116.7322417798423	
16.0	95.19781353234794	pulse	0.0	t		21.0	male	black	2.969757262236371	smiling	137	sub-02	1.0	6.0	137_smiling	0.0		117.43221056787479	
16.0	95.2558327738916	fix	1.0		445	21.0	male	black	2.969757262236371	smiling	137	sub-02	1.0	6.0	137_smiling	0.0		117.49022980941845	3.766602109615633
16.0	95.90595629358722	pulse	1.0	t		21.0	male	black	2.969757262236371	smiling	137	sub-02	1.0	6.0	137_smiling	0.0		118.14035332911408	
16.0	96.60594047630548	pulse	1.0	t		21.0	male	black	2.969757262236371	smiling	137	sub-02	1.0	6.0	137_smiling	0.0		118.84033751183233	
16.0	97.29781649054166	pulse	1.0	t		21.0	male	black	2.969757262236371	smiling	137	sub-02	1.0	6.0	137_smiling	0.0		119.53221352606852	
16.0	97.99783599047441	pulse	1.0	t		21.0	male	black	2.969757262236371	smiling	137	sub-02	1.0	6.0	137_smiling	0.0		120.23223302600127	
16.0	98.69781081563997	pulse	1.0	t		21.0	male	black	2.969757262236371	smiling	137	sub-02	1.0	6.0	137_smiling	0.0		120.93220785116682	
17.0	99.02243488350723	face	0.0		145	25.0	female	black	3.858336649423	neutral	126	sub-02	1.0	6.0	126_neutral	0.0		121.25683191903408	1.2333251429590746
17.0	99.39777718882215	pulse	0.0	t		25.0	female	black	3.858336649423	neutral	126	sub-02	1.0	6.0	126_neutral	0.0		121.632174224349	
17.0	100.09779155719298	pulse	0.0	t		25.0	female	black	3.858336649423	neutral	126	sub-02	1.0	6.0	126_neutral	0.0		122.33218859271983	
17.0	100.2557600264663	fix	1.0		444	25.0	female	black	3.858336649423	neutral	126	sub-02	1.0	6.0	126_neutral	0.0		122.49015706199316	3.766617202441921
17.0	100.79781286826437	pulse	1.0	t		25.0	female	black	3.858336649423	neutral	126	sub-02	1.0	6.0	126_neutral	0.0		123.03220990379123	
17.0	101.49786979840792	pulse	1.0	t		25.0	female	black	3.858336649423	neutral	126	sub-02	1.0	6.0	126_neutral	0.0		123.73226683393477	
17.0	102.19778757268614	pulse	1.0	t		25.0	female	black	3.858336649423	neutral	126	sub-02	1.0	6.0	126_neutral	0.0		124.43218460821299	
17.0	102.89777869810314	pulse	1.0	t		25.0	female	black	3.858336649423	neutral	126	sub-02	1.0	6.0	126_neutral	0.0		125.13217573362999	
17.0	103.59777314394341	pulse	1.0	t		25.0	female	black	3.858336649423	neutral	126	sub-02	1.0	6.0	126_neutral	0.0		125.83217017947027	
18.0	104.02237722890823	face	0.0		145	19.0	male	white	3.2522881018702745	smiling	018	sub-02	1.0	6.0	018_smiling	0.0		126.25677426443508	1.2333118612714316
18.0	104.2977165760276	pulse	0.0	t		19.0	male	white	3.2522881018702745	smiling	018	sub-02	1.0	6.0	018_smiling	0.0		126.53211361155445	
18.0	104.99770075874585	pulse	0.0	t		19.0	male	white	3.2522881018702745	smiling	018	sub-02	1.0	6.0	018_smiling	0.0		127.2320977942727	
18.0	105.25568909017966	fix	1.0		444	19.0	male	white	3.2522881018702745	smiling	018	sub-02	1.0	6.0	018_smiling	0.0		127.49008612570651	3.7666129764493235
18.0	105.69768101732734	pulse	1.0	t		19.0	male	white	3.2522881018702745	smiling	018	sub-02	1.0	6.0	018_smiling	0.0		127.9320780528542	
18.0	106.39772376021392	pulse	1.0	t		19.0	male	white	3.2522881018702745	smiling	018	sub-02	1.0	6.0	018_smiling	0.0		128.63212079574078	
18.0	107.09775623997666	pulse	1.0	t		19.0	male	white	3.2522881018702745	smiling	018	sub-02	1.0	6.0	018_smiling	0.0		129.33215327550352	
18.0	107.79772834843425	pulse	1.0	t		19.0	male	white	3.2522881018702745	smiling	018	sub-02	1.0	6.0	018_smiling	0.0		130.0321253839611	
18.0	108.50575368747923	pulse	1.0	t		19.0	male	white	3.2522881018702745	smiling	018	sub-02	1.0	6.0	018_smiling	0.0		130.74015072300608	
19.0	109.02230206662898	face	0.0		145	24.0	female	east_asian	4.409868682849185	neutral	030	sub-02	1.0	6.0	030_neutral	0.0		131.25669910215584	1.2333233318204293
19.0	109.20574783146185	pulse	0.0	t		24.0	female	east_asian	4.409868682849185	neutral	030	sub-02	1.0	6.0	030_neutral	0.0		131.4401448669887	
19.0	109.9057350327439	pulse	0.0	t		24.0	female	east_asian	4.409868682849185	neutral	030	sub-02	1.0	6.0	030_neutral	0.0		132.14013206827076	
19.0	110.25562539844941	fix	1.0		444	24.0	female	east_asian	4.409868682849185	neutral	030	sub-02	1.0	6.0	030_neutral	0.0		132.49002243397626	3.7583448240056896
19.0	110.59759323744584	pulse	1.0	t		24.0	female	east_asian	4.409868682849185	neutral	030	sub-02	1.0	6.0	030_neutral	0.0		132.8319902729727	
19.0	111.3057465636648	pulse	1.0	t		24.0	female	east_asian	4.409868682849185	neutral	030	sub-02	1.0	6.0	030_neutral	0.0		133.54014359919165	
19.0	112.00571927583405	pulse	1.0	t		24.0	female	east_asian	4.409868682849185	neutral	030	sub-02	1.0	6.0	030_neutral	0.0		134.2401163113609	
19.0	112.70570043998487	pulse	1.0	t		24.0	female	east_asian	4.409868682849185	neutral	030	sub-02	1.0	6.0	030_neutral	0.0		134.94009747551172	
19.0	113.39761871413793	pulse	1.0	t		24.0	female	east_asian	4.409868682849185	neutral	030	sub-02	1.0	6.0	030_neutral	0.0		135.6320157496648	
20.0	114.0139702224551	face	0.0		146	19.0	male	white	3.2522881018702745	neutral	018	sub-02	1.0	6.0	018_neutral	0.0		136.24836725798195	1.2415917861217167
20.0	114.09758961516854	pulse	0.0	t		19.0	male	white	3.2522881018702745	neutral	018	sub-02	1.0	6.0	018_neutral	0.0		136.3319866506954	
20.0	114.80567864594377	pulse	0.0	t		19.0	male	white	3.2522881018702745	neutral	018	sub-02	1.0	6.0	018_neutral	0.0		137.04007568147063	
20.0	115.25556200857682	fix	1.0		1185	19.0	male	white	3.2522881018702745	neutral	018	sub-02	1.0	6.0	018_neutral	0.0		137.48995904410367	10.016501893243912
20.0	115.49741701359926	pulse	1.0	t		19.0	male	white	3.2522881018702745	neutral	018	sub-02	1.0	6.0	018_neutral	0.0		137.73181404912611	
20.0	116.1975041293972	pulse	1.0	t		19.0	male	white	3.2522881018702745	neutral	018	sub-02	1.0	6.0	018_neutral	0.0		138.43190116492406	
20.0	116.90562877924276	pulse	1.0	t		19.0	male	white	3.2522881018702745	neutral	018	sub-02	1.0	6.0	018_neutral	0.0		139.14002581476961	
20.0	117.60563167706641	pulse	1.0	t		19.0	male	white	3.2522881018702745	neutral	018	sub-02	1.0	6.0	018_neutral	0.0		139.84002871259327	
20.0	118.305628537757	pulse	1.0	t		19.0	male	white	3.2522881018702745	neutral	018	sub-02	1.0	6.0	018_neutral	0.0		140.54002557328386	
20.0	119.00560668334401	pulse	1.0	t		19.0	male	white	3.2522881018702745	neutral	018	sub-02	1.0	6.0	018_neutral	0.0		141.24000371887087	
20.0	119.70558935677946	pulse	1.0	t		19.0	male	white	3.2522881018702745	neutral	018	sub-02	1.0	6.0	018_neutral	0.0		141.9399863923063	
20.0	120.40557806734432	pulse	1.0	t		19.0	male	white	3.2522881018702745	neutral	018	sub-02	1.0	6.0	018_neutral	0.0		142.63997510287118	
20.0	121.10555711850066	pulse	1.0	t		19.0	male	white	3.2522881018702745	neutral	018	sub-02	1.0	6.0	018_neutral	0.0		143.3399541540275	
20.0	121.80556394045925	pulse	1.0	t		19.0	male	white	3.2522881018702745	neutral	018	sub-02	1.0	6.0	018_neutral	0.0		144.0399609759861	
20.0	122.50555385844928	pulse	1.0	t		19.0	male	white	3.2522881018702745	neutral	018	sub-02	1.0	6.0	018_neutral	0.0		144.73995089397613	
20.0	123.2055356263154	pulse	1.0	t		19.0	male	white	3.2522881018702745	neutral	018	sub-02	1.0	6.0	018_neutral	0.0		145.43993266184225	
20.0	123.9064806183942	pulse	1.0	t		19.0	male	white	3.2522881018702745	neutral	018	sub-02	1.0	6.0	018_neutral	0.0		146.14087765392105	
20.0	124.60553538482964	pulse	1.0	t		19.0	male	white	3.2522881018702745	neutral	018	sub-02	1.0	6.0	018_neutral	0.0		146.8399324203565	
21.0	125.27206390182073	face	0.0		145	19.0	female	white	4.298846000795861	neutral	100	sub-02	1.0	6.0	100_neutral	0.0		147.50646093734758	1.2333239355339174
21.0	125.30554975320047	pulse	0.0	t		19.0	female	white	4.298846000795861	neutral	100	sub-02	1.0	6.0	100_neutral	0.0		147.53994678872732	
21.0	126.00551733380962	pulse	0.0	t		19.0	female	white	4.298846000795861	neutral	100	sub-02	1.0	6.0	100_neutral	0.0		148.23991436933647	
21.0	126.50538783735465	fix	1.0		443	19.0	female	white	4.298846000795861	neutral	100	sub-02	1.0	6.0	100_neutral	0.0		148.7397848728815	3.76658520564888
21.0	126.70549849796043	pulse	1.0	t		19.0	female	white	4.298846000795861	neutral	100	sub-02	1.0	6.0	100_neutral	0.0		148.9398955334873	
21.0	127.40548056768239	pulse	1.0	t		19.0	female	white	4.298846000795861	neutral	100	sub-02	1.0	6.0	100_neutral	0.0		149.63987760320924	
21.0	128.10545901512523	pulse	1.0	t		19.0	female	white	4.298846000795861	neutral	100	sub-02	1.0	6.0	100_neutral	0.0		150.3398560506521	
21.0	128.805454064679	pulse	1.0	t		19.0	female	white	4.298846000795861	neutral	100	sub-02	1.0	6.0	100_neutral	0.0		151.03985110020585	
21.0	129.50544911423094	pulse	1.0	t		19.0	female	white	4.298846000795861	neutral	100	sub-02	1.0	6.0	100_neutral	0.0		151.7398461497578	
21.0	130.20542816538727	pulse	1.0	t		19.0	female	white	4.298846000795861	neutral	100	sub-02	1.0	6.0	100_neutral	0.0		152.43982520091413	
22.0	130.27197304300353	face	0.0		146	24.0	female	east_asian	4.409868682849185	smiling	030	sub-02	1.0	6.0	030_smiling	0.0		152.50637007853038	1.2333230299627758
22.0	130.90542834650114	pulse	0.0	t		24.0	female	east_asian	4.409868682849185	smiling	030	sub-02	1.0	6.0	030_smiling	0.0		153.139825382028	
22.0	131.5052960729663	fix	1.0		443	24.0	female	east_asian	4.409868682849185	smiling	030	sub-02	1.0	6.0	030_smiling	0.0		153.73969310849316	3.7666208247210307
22.0	131.60543969630817	pulse	1.0	t		24.0	female	east_asian	4.409868682849185	smiling	030	sub-02	1.0	6.0	030_smiling	0.0		153.83983673183502	
22.0	132.30541844560685	pulse	1.0	t		24.0	female	east_asian	4.409868682849185	smiling	030	sub-02	1.0	6.0	030_smiling	0.0		154.5398154811337	
22.0	133.00539659119386	pulse	1.0	t		24.0	female	east_asian	4.409868682849185	smiling	030	sub-02	1.0	6.0	030_smiling	0.0		155.2397936267207	
22.0	133.7053822831931	pulse	1.0	t		24.0	female	east_asian	4.409868682849185	smiling	030	sub-02	1.0	6.0	030_smiling	0.0		155.93977931871996	
22.0	134.40537672903338	pulse	1.0	t		24.0	female	east_asian	4.409868682849185	smiling	030	sub-02	1.0	6.0	030_smiling	0.0		156.63977376456023	
22.0	135.1053651377424	pulse	1.0	t		24.0	female	east_asian	4.409868682849185	smiling	030	sub-02	1.0	6.0	030_smiling	0.0		157.33976217326926	
23.0	135.27191689768733	face	0.0		146	37.0	male	white	3.898925586947871	neutral	101	sub-02	1.0	6.0	101_neutral	0.0		157.5063139332142	1.2333188039719971
23.0	135.8053562631594	pulse	0.0	t		37.0	male	white	3.898925586947871	neutral	101	sub-02	1.0	6.0	101_neutral	0.0		158.03975329868626	
23.0	136.50523570165933	fix	1.0		444	37.0	male	white	3.898925586947871	neutral	101	sub-02	1.0	6.0	101_neutral	0.0		158.73963273718618	3.7666081467450567
23.0	136.5126662022085	pulse	1.0	t		37.0	male	white	3.898925586947871	neutral	101	sub-02	1.0	6.0	101_neutral	0.0		158.74706323773535	
23.0	137.20533217500815	pulse	1.0	t		37.0	male	white	3.898925586947871	neutral	101	sub-02	1.0	6.0	101_neutral	0.0		159.439729210535	
23.0	137.90532843198707	pulse	1.0	t		37.0	male	white	3.898925586947871	neutral	101	sub-02	1.0	6.0	101_neutral	0.0		160.13972546751393	
23.0	138.60531080356486	pulse	1.0	t		37.0	male	white	3.898925586947871	neutral	101	sub-02	1.0	6.0	101_neutral	0.0		160.83970783909172	
23.0	139.30541542704123	pulse	1.0	t		37.0	male	white	3.898925586947871	neutral	101	sub-02	1.0	6.0	101_neutral	0.0		161.53981246256808	
23.0	140.0052873191271	pulse	1.0	t		37.0	male	white	3.898925586947871	neutral	101	sub-02	1.0	6.0	101_neutral	0.0		162.23968435465395	
24.0	140.2718438484044	face	0.0		145	21.0	male	east_asian/white	3.501790688420215	neutral	036	sub-02	1.0	6.0	036_neutral	0.0		162.50624088393124	1.2333100501327863
24.0	140.70529534851084	pulse	0.0	t		21.0	male	east_asian/white	3.501790688420215	neutral	036	sub-02	1.0	6.0	036_neutral	0.0		162.9396923840377	
24.0	141.40528224793707	pulse	0.0	t		21.0	male	east_asian/white	3.501790688420215	neutral	036	sub-02	1.0	6.0	036_neutral	0.0		163.63967928346392	
24.0	141.50515389853717	fix	1.0		444	21.0	male	east_asian/white	3.501790688420215	neutral	036	sub-02	1.0	6.0	036_neutral	0.0		163.73955093406403	3.7666184098670783
24.0	142.1052691473633	pulse	1.0	t		21.0	male	east_asian/white	3.501790688420215	neutral	036	sub-02	1.0	6.0	036_neutral	0.0		164.33966618289014	
24.0	142.80527174332929	pulse	1.0	t		21.0	male	east_asian/white	3.501790688420215	neutral	036	sub-02	1.0	6.0	036_neutral	0.0		165.03966877885614	
24.0	143.5052426443599	pulse	1.0	t		21.0	male	east_asian/white	3.501790688420215	neutral	036	sub-02	1.0	6.0	036_neutral	0.0		165.73963967988675	
24.0	144.20522199737206	pulse	1.0	t		21.0	male	east_asian/white	3.501790688420215	neutral	036	sub-02	1.0	6.0	036_neutral	0.0		166.43961903289892	
24.0	144.90521885806447	pulse	1.0	t		21.0	male	east_asian/white	3.501790688420215	neutral	036	sub-02	1.0	6.0	036_neutral	0.0		167.13961589359133	
25.0	145.27177230840425	face	0.0		145	25.0	female	black	3.858336649423	smiling	126	sub-02	1.0	6.0	126_smiling	0.0		167.5061693439311	1.2333160872640292
25.0	145.60520455006372	pulse	0.0	t		25.0	female	black	3.858336649423	smiling	126	sub-02	1.0	6.0	126_smiling	0.0		167.83960158559057	
25.0	146.30522314442715	pulse	0.0	t		25.0	female	black	3.858336649423	smiling	126	sub-02	1.0	6.0	126_smiling	0.0		168.539620179954	
25.0	146.50508839566828	fix	1.0		444	25.0	female	black	3.858336649423	smiling	126	sub-02	1.0	6.0	126_smiling	0.0		168.73948543119513	3.7665948650574137
25.0	147.00519193245964	pulse	1.0	t		25.0	female	black	3.858336649423	smiling	126	sub-02	1.0	6.0	126_smiling	0.0		169.2395889679865	
25.0	147.7051791337435	pulse	1.0	t		25.0	female	black	3.858336649423	smiling	126	sub-02	1.0	6.0	126_smiling	0.0		169.93957616927037	
25.0	148.40516542945625	pulse	1.0	t		25.0	female	black	3.858336649423	smiling	126	sub-02	1.0	6.0	126_smiling	0.0		170.6395624649831	
25.0	149.10515263074012	pulse	1.0	t		25.0	female	black	3.858336649423	smiling	126	sub-02	1.0	6.0	126_smiling	0.0		171.33954966626698	
25.0	149.80514677472274	pulse	1.0	t		25.0	female	black	3.858336649423	smiling	126	sub-02	1.0	6.0	126_smiling	0.0		172.0395438102496	
26.0	150.2716832607257	face	0.0		145	31.0	female	west_asian	2.364902506963788	neutral	006	sub-02	1.0	6.0	006_neutral	0.0		172.50608029625255	1.2333269540995389
26.0	150.50514303170166	pulse	0.0	t		31.0	female	west_asian	2.364902506963788	neutral	006	sub-02	1.0	6.0	006_neutral	0.0		172.73954006722852	
26.0	151.2051257051353	pulse	0.0	t		31.0	female	west_asian	2.364902506963788	neutral	006	sub-02	1.0	6.0	006_neutral	0.0		173.43952274066214	
26.0	151.50501021482523	fix	1.0		444	31.0	female	west_asian	2.364902506963788	neutral	006	sub-02	1.0	6.0	006_neutral	0.0		173.7394072503521	3.7665981854788697
26.0	151.90512105654489	pulse	1.0	t		31.0	female	west_asian	2.364902506963788	neutral	006	sub-02	1.0	6.0	006_neutral	0.0		174.13951809207174	
26.0	152.60510342812267	pulse	1.0	t		31.0	female	west_asian	2.364902506963788	neutral	006	sub-02	1.0	6.0	006_neutral	0.0		174.83950046364953	
26.0	153.3050996851016	pulse	1.0	t		31.0	female	west_asian	2.364902506963788	neutral	006	sub-02	1.0	6.0	006_neutral	0.0		175.53949672062845	
26.0	154.00508628267198	pulse	1.0	t		31.0	female	west_asian	2.364902506963788	neutral	006	sub-02	1.0	6.0	006_neutral	0.0		176.23948331819884	
26.0	154.70507770994664	pulse	1.0	t		31.0	female	west_asian	2.364902506963788	neutral	006	sub-02	1.0	6.0	006_neutral	0.0		176.9394747454735	
27.0	155.2716084003041	face	0.0		145	28.0	male	east_asian	1.5563072025467568	smiling	005	sub-02	1.0	6.0	005_smiling	0.0		177.50600543583096	1.2333323875172937
27.0	155.40506370380353	pulse	0.0	t		28.0	male	east_asian	1.5563072025467568	smiling	005	sub-02	1.0	6.0	005_smiling	0.0		177.6394607393304	
27.0	156.10507444989526	pulse	0.0	t		28.0	male	east_asian	1.5563072025467568	smiling	005	sub-02	1.0	6.0	005_smiling	0.0		178.3394714854221	
27.0	156.5049407878214	fix	1.0		444	28.0	male	east_asian	1.5563072025467568	smiling	005	sub-02	1.0	6.0	005_smiling	0.0		178.73933782334825	3.7665990910481923
27.0	156.80505229362643	pulse	1.0	t		28.0	male	east_asian	1.5563072025467568	smiling	005	sub-02	1.0	6.0	005_smiling	0.0		179.03944932915329	
27.0	157.50503979676432	pulse	1.0	t		28.0	male	east_asian	1.5563072025467568	smiling	005	sub-02	1.0	6.0	005_smiling	0.0		179.73943683229118	
27.0	158.20503967602235	pulse	1.0	t		28.0	male	east_asian	1.5563072025467568	smiling	005	sub-02	1.0	6.0	005_smiling	0.0		180.4394367115492	
27.0	158.90501691604004	pulse	1.0	t		28.0	male	east_asian	1.5563072025467568	smiling	005	sub-02	1.0	6.0	005_smiling	0.0		181.1394139515669	
27.0	159.60501015445334	pulse	1.0	t		28.0	male	east_asian	1.5563072025467568	smiling	005	sub-02	1.0	6.0	005_smiling	0.0		181.8394071899802	
28.0	160.2715398788696	face	0.0		145	34.0	male	white	2.651014723438122	neutral	121	sub-02	1.0	6.0	121_neutral	0.0		182.50593691439644	1.23332484110324
28.0	160.30504082307743	pulse	0.0	t		34.0	male	white	2.651014723438122	neutral	121	sub-02	1.0	6.0	121_neutral	0.0		182.5394378586043	
28.0	161.00498425516162	pulse	0.0	t		34.0	male	white	2.651014723438122	neutral	121	sub-02	1.0	6.0	121_neutral	0.0		183.23938129068847	
28.0	161.50486471997283	fix	1.0		443	34.0	male	white	2.651014723438122	neutral	121	sub-02	1.0	6.0	121_neutral	0.0		183.73926175549968	3.766612070880001
28.0	161.7049880585546	pulse	1.0	t		34.0	male	white	2.651014723438122	neutral	121	sub-02	1.0	6.0	121_neutral	0.0		183.93938509408144	
28.0	162.40496228000666	pulse	1.0	t		34.0	male	white	2.651014723438122	neutral	121	sub-02	1.0	6.0	121_neutral	0.0		184.6393593155335	
28.0	163.10496970567692	pulse	1.0	t		34.0	male	white	2.651014723438122	neutral	121	sub-02	1.0	6.0	121_neutral	0.0		185.33936674120378	
28.0	163.8049520772547	pulse	1.0	t		34.0	male	white	2.651014723438122	neutral	121	sub-02	1.0	6.0	121_neutral	0.0		186.03934911278157	
28.0	164.50493414697667	pulse	1.0	t		34.0	male	white	2.651014723438122	neutral	121	sub-02	1.0	6.0	121_neutral	0.0		186.73933118250352	
28.0	165.20491832969492	pulse	1.0	t		34.0	male	white	2.651014723438122	neutral	121	sub-02	1.0	6.0	121_neutral	0.0		187.43931536522177	
29.0	165.27147679085283	face	0.0		146	24.0	male	white	3.1153999204138483	neutral	012	sub-02	1.0	6.0	012_neutral	0.0		187.50587382637968	1.2333206151124614
29.0	165.90492364236889	pulse	0.0	t		24.0	male	white	3.1153999204138483	neutral	012	sub-02	1.0	6.0	012_neutral	0.0		188.13932067789574	
29.0	166.5047974059653	fix	1.0		443	24.0	male	white	3.1153999204138483	neutral	012	sub-02	1.0	6.0	012_neutral	0.0		188.73919444149215	3.7665897334954934
29.0	166.60498419479154	pulse	1.0	t		24.0	male	white	3.1153999204138483	neutral	012	sub-02	1.0	6.0	012_neutral	0.0		188.8393812303184	
29.0	167.30491555261324	pulse	1.0	t		24.0	male	white	3.1153999204138483	neutral	012	sub-02	1.0	6.0	012_neutral	0.0		189.5393125881401	
29.0	168.0048861517862	pulse	1.0	t		24.0	male	white	3.1153999204138483	neutral	012	sub-02	1.0	6.0	012_neutral	0.0		190.23928318731305	
29.0	168.70486822150815	pulse	1.0	t		24.0	male	white	3.1153999204138483	neutral	012	sub-02	1.0	6.0	012_neutral	0.0		190.939265257035	
29.0	169.4048602524963	pulse	1.0	t		24.0	male	white	3.1153999204138483	neutral	012	sub-02	1.0	6.0	012_neutral	0.0		191.63925728802315	
29.0	170.10484654820903	pulse	1.0	t		24.0	male	white	3.1153999204138483	neutral	012	sub-02	1.0	6.0	012_neutral	0.0		192.33924358373588	
30.0	170.27138713946078	face	0.0		146	21.0	male	east_asian/white	3.501790688420215	smiling	036	sub-02	1.0	6.0	036_smiling	0.0		192.50578417498764	1.2333272559553734
30.0	170.8048539738793	pulse	0.0	t		21.0	male	east_asian/white	3.501790688420215	smiling	036	sub-02	1.0	6.0	036_smiling	0.0		193.03925100940614	
30.0	171.50471439541616	fix	1.0		444	21.0	male	east_asian/white	3.501790688420215	smiling	036	sub-02	1.0	6.0	036_smiling	0.0		193.739111430943	3.7666175042995746
30.0	171.5122239823795	pulse	1.0	t		21.0	male	east_asian/white	3.501790688420215	smiling	036	sub-02	1.0	6.0	036_smiling	0.0		193.74662101790636	
30.0	172.2048268671624	pulse	1.0	t		21.0	male	east_asian/white	3.501790688420215	smiling	036	sub-02	1.0	6.0	036_smiling	0.0		194.43922390268926	
30.0	172.90480803131504	pulse	1.0	t		21.0	male	east_asian/white	3.501790688420215	smiling	036	sub-02	1.0	6.0	036_smiling	0.0		195.1392050668419	
30.0	173.60480941985588	pulse	1.0	t		21.0	male	east_asian/white	3.501790688420215	smiling	036	sub-02	1.0	6.0	036_smiling	0.0		195.83920645538274	
30.0	174.3047948099993	pulse	1.0	t		21.0	male	east_asian/white	3.501790688420215	smiling	036	sub-02	1.0	6.0	036_smiling	0.0		196.53919184552615	
30.0	175.0047946892555	pulse	1.0	t		21.0	male	east_asian/white	3.501790688420215	smiling	036	sub-02	1.0	6.0	036_smiling	0.0		197.23919172478236	
31.0	175.27133189971573	face	0.0		145	37.0	male	white	3.898925586947871	smiling	101	sub-02	1.0	6.0	101_smiling	0.0		197.5057289352426	1.2333227281069412
31.0	175.70478309796454	pulse	0.0	t		37.0	male	white	3.898925586947871	smiling	101	sub-02	1.0	6.0	101_smiling	0.0		197.9391801334914	
31.0	176.40478146793976	pulse	0.0	t		37.0	male	white	3.898925586947871	smiling	101	sub-02	1.0	6.0	101_smiling	0.0		198.6391785034666	
31.0	176.50465462782267	fix	1.0		444	37.0	male	white	3.898925586947871	smiling	101	sub-02	1.0	6.0	101_smiling	0.0		198.73905166334953	3.7666018077579793
31.0	177.10476414137338	pulse	1.0	t		37.0	male	white	3.898925586947871	smiling	101	sub-02	1.0	6.0	101_smiling	0.0		199.33916117690023	
31.0	177.8047359479733	pulse	1.0	t		37.0	male	white	3.898925586947871	smiling	101	sub-02	1.0	6.0	101_smiling	0.0		200.03913298350017	
31.0	178.5047319030964	pulse	1.0	t		37.0	male	white	3.898925586947871	smiling	101	sub-02	1.0	6.0	101_smiling	0.0		200.73912893862325	
31.0	179.20472182108824	pulse	1.0	t		37.0	male	white	3.898925586947871	smiling	101	sub-02	1.0	6.0	101_smiling	0.0		201.4391188566151	
31.0	179.90471958734997	pulse	1.0	t		37.0	male	white	3.898925586947871	smiling	101	sub-02	1.0	6.0	101_smiling	0.0		202.13911662287683	
32.0	180.27125643558065	face	0.0		145	27.0	female	white	4.181058495821727	neutral	039	sub-02	1.0	6.0	039_neutral	1.0	trustworthiness	202.5056534711075	1.2333085408499755
32.0	180.60469984593146	pulse	0.0	t		27.0	female	white	4.181058495821727	neutral	039	sub-02	1.0	6.0	039_neutral	1.0	trustworthiness	202.83909688145832	
32.0	181.30469368805825	pulse	0.0	t		27.0	female	white	4.181058495821727	neutral	039	sub-02	1.0	6.0	039_neutral	1.0	trustworthiness	203.5390907235851	
32.0	181.50456497643063	fix	1.0		177	27.0	female	white	4.181058495821727	neutral	039	sub-02	1.0	6.0	039_neutral	1.0	trustworthiness	203.73896201195748	1.4999788700424688
32.0	182.00470111372852	pulse	1.0	t		27.0	female	white	4.181058495821727	neutral	039	sub-02	1.0	6.0	039_neutral	1.0	trustworthiness	204.23909814925537	
32.0	182.70467141104564	pulse	1.0	t		27.0	female	white	4.181058495821727	neutral	039	sub-02	1.0	6.0	039_neutral	1.0	trustworthiness	204.9390684465725	
32.0	183.0045438464731	rating	2.0		295	27.0	female	white	4.181058495821727	neutral	039	sub-02	1.0	6.0	039_neutral	1.0	trustworthiness	205.23894088199995	2.499967399493471
32.0	183.39938548045757	pulse	2.0	t		27.0	female	white	4.181058495821727	neutral	039	sub-02	1.0	6.0	039_neutral	1.0	trustworthiness	205.63378251598442	
32.0	183.9379790463263	response	2.0	g		27.0	female	white	4.181058495821727	neutral	039	sub-02	1.0	6.0	039_neutral	1.0	trustworthiness	206.17237608185314	
32.0	184.0993458165085	pulse	2.0	t		27.0	female	white	4.181058495821727	neutral	039	sub-02	1.0	6.0	039_neutral	1.0	trustworthiness	206.33374285203536	
32.0	184.80463301489362	pulse	2.0	t		27.0	female	white	4.181058495821727	neutral	039	sub-02	1.0	6.0	039_neutral	1.0	trustworthiness	207.03903005042048	
32.0	185.50451124596657	fix	3.0		443	27.0	female	white	4.181058495821727	neutral	039	sub-02	1.0	6.0	039_neutral	1.0	trustworthiness	207.73890828149342	3.766599996619334
32.0	185.51255511900308	pulse	3.0	t		27.0	female	white	4.181058495821727	neutral	039	sub-02	1.0	6.0	039_neutral	1.0	trustworthiness	207.74695215452994	
32.0	186.2046185861509	pulse	3.0	t		27.0	female	white	4.181058495821727	neutral	039	sub-02	1.0	6.0	039_neutral	1.0	trustworthiness	208.43901562167775	
32.0	186.9046154468433	pulse	3.0	t		27.0	female	white	4.181058495821727	neutral	039	sub-02	1.0	6.0	039_neutral	1.0	trustworthiness	209.13901248237016	
32.0	187.6046092889701	pulse	3.0	t		27.0	female	white	4.181058495821727	neutral	039	sub-02	1.0	6.0	039_neutral	1.0	trustworthiness	209.83900632449695	
32.0	188.30458139742586	pulse	3.0	t		27.0	female	white	4.181058495821727	neutral	039	sub-02	1.0	6.0	039_neutral	1.0	trustworthiness	210.53897843295272	
32.0	189.00457463583916	pulse	3.0	t		27.0	female	white	4.181058495821727	neutral	039	sub-02	1.0	6.0	039_neutral	1.0	trustworthiness	211.23897167136602	
33.0	189.2711112425859	face	0.0		145	40.0	male	white	1.868682849184242	smiling	172	sub-02	1.0	6.0	172_smiling	0.0		211.50550827811276	1.2333483859129046
33.0	189.7045479517219	pulse	0.0	t		40.0	male	white	1.868682849184242	smiling	172	sub-02	1.0	6.0	172_smiling	0.0		211.93894498724876	
33.0	190.4045692627933	pulse	0.0	t		40.0	male	white	1.868682849184242	smiling	172	sub-02	1.0	6.0	172_smiling	0.0		212.63896629832016	
33.0	190.5044596284988	fix	1.0		444	40.0	male	white	1.868682849184242	smiling	172	sub-02	1.0	6.0	172_smiling	0.0		212.73885666402566	3.758353879700735
33.0	191.1045537473674	pulse	1.0	t		40.0	male	white	1.868682849184242	smiling	172	sub-02	1.0	6.0	172_smiling	0.0		213.33895078289424	
33.0	191.8045312892409	pulse	1.0	t		40.0	male	white	1.868682849184242	smiling	172	sub-02	1.0	6.0	172_smiling	0.0		214.03892832476777	
33.0	192.50452845178916	pulse	1.0	t		40.0	male	white	1.868682849184242	smiling	172	sub-02	1.0	6.0	172_smiling	0.0		214.738925487316	
33.0	193.20452169020245	pulse	1.0	t		40.0	male	white	1.868682849184242	smiling	172	sub-02	1.0	6.0	172_smiling	0.0		215.4389187257293	
33.0	193.90450979705565	pulse	1.0	t		40.0	male	white	1.868682849184242	smiling	172	sub-02	1.0	6.0	172_smiling	0.0		216.1389068325825	
34.0	194.26281350819954	face	0.0		146	24.0	female	east_asian	2.9076800636689217	smiling	034	sub-02	1.0	6.0	034_smiling	1.0	attractiveness	216.4972105437264	1.2415531484857638
34.0	194.6045157134431	pulse	0.0	t		24.0	female	east_asian	2.9076800636689217	smiling	034	sub-02	1.0	6.0	034_smiling	1.0	attractiveness	216.83891274896996	
34.0	195.3045297799581	pulse	0.0	t		24.0	female	east_asian	2.9076800636689217	smiling	034	sub-02	1.0	6.0	034_smiling	1.0	attractiveness	217.53892681548496	
34.0	195.5043666566853	fix	1.0		177	24.0	female	east_asian	2.9076800636689217	smiling	034	sub-02	1.0	6.0	034_smiling	1.0	attractiveness	217.73876369221216	1.4999791718983033
34.0	196.0044840788778	pulse	1.0	t		24.0	female	east_asian	2.9076800636689217	smiling	034	sub-02	1.0	6.0	034_smiling	1.0	attractiveness	218.23888111440465	
34.0	196.7044513576293	pulse	1.0	t		24.0	female	east_asian	2.9076800636689217	smiling	034	sub-02	1.0	6.0	034_smiling	1.0	attractiveness	218.93884839315615	
34.0	197.0043458285836	rating	2.0		295	24.0	female	east_asian	2.9076800636689217	smiling	034	sub-02	1.0	6.0	034_smiling	1.0	attractiveness	219.23874286411046	2.499963475358527
34.0	197.39928798079563	pulse	2.0	t		24.0	female	east_asian	2.9076800636689217	smiling	034	sub-02	1.0	6.0	034_smiling	1.0	attractiveness	219.6336850163225	
34.0	198.09915021347297	pulse	2.0	t		24.0	female	east_asian	2.9076800636689217	smiling	034	sub-02	1.0	6.0	034_smiling	1.0	attractiveness	220.33354724899982	
34.0	198.3294679597384	response	2.0	y		24.0	female	east_asian	2.9076800636689217	smiling	034	sub-02	1.0	6.0	034_smiling	1.0	attractiveness	220.56386499526525	
34.0	198.80441839489504	pulse	2.0	t		24.0	female	east_asian	2.9076800636689217	smiling	034	sub-02	1.0	6.0	034_smiling	1.0	attractiveness	221.0388154304219	
34.0	199.50430930394214	fix	3.0		443	24.0	female	east_asian	2.9076800636689217	smiling	034	sub-02	1.0	6.0	034_smiling	1.0	attractiveness	221.738706339469	3.7666117690241663
34.0	199.51226292187312	pulse	3.0	t		24.0	female	east_asian	2.9076800636689217	smiling	034	sub-02	1.0	6.0	034_smiling	1.0	attractiveness	221.74665995739997	
34.0	200.2044139274185	pulse	3.0	t		24.0	female	east_asian	2.9076800636689217	smiling	034	sub-02	1.0	6.0	034_smiling	1.0	attractiveness	222.43881096294535	
34.0	200.90441199553607	pulse	3.0	t		24.0	female	east_asian	2.9076800636689217	smiling	034	sub-02	1.0	6.0	034_smiling	1.0	attractiveness	223.13880903106292	
34.0	201.6043946689715	pulse	3.0	t		24.0	female	east_asian	2.9076800636689217	smiling	034	sub-02	1.0	6.0	034_smiling	1.0	attractiveness	223.83879170449836	
34.0	202.30438005911492	pulse	3.0	t		24.0	female	east_asian	2.9076800636689217	smiling	034	sub-02	1.0	6.0	034_smiling	1.0	attractiveness	224.53877709464177	
34.0	203.00437571238035	pulse	3.0	t		24.0	female	east_asian	2.9076800636689217	smiling	034	sub-02	1.0	6.0	034_smiling	1.0	attractiveness	225.2387727479072	
35.0	203.2709210729663	face	0.0		145	20.0	male	black	3.1070433744528456	smiling	082	sub-02	1.0	6.0	082_smiling	0.0		225.50531810849316	1.2333139742677304
35.0	203.70436019695444	pulse	0.0	t		20.0	male	black	3.1070433744528456	smiling	082	sub-02	1.0	6.0	082_smiling	0.0		225.9387572324813	
35.0	204.40434619081134	pulse	0.0	t		20.0	male	black	3.1070433744528456	smiling	082	sub-02	1.0	6.0	082_smiling	0.0		226.6387432263382	
35.0	204.50423504723403	fix	1.0		444	20.0	male	black	3.1070433744528456	smiling	082	sub-02	1.0	6.0	082_smiling	0.0		226.7386320827609	3.7582796229926316
35.0	205.1043542201951	pulse	1.0	t		20.0	male	black	3.1070433744528456	smiling	082	sub-02	1.0	6.0	082_smiling	0.0		227.33875125572195	
35.0	205.80431787666748	pulse	1.0	t		20.0	male	black	3.1070433744528456	smiling	082	sub-02	1.0	6.0	082_smiling	0.0		228.03871491219434	
35.0	206.50432530233775	pulse	1.0	t		20.0	male	black	3.1070433744528456	smiling	082	sub-02	1.0	6.0	082_smiling	0.0		228.7387223378646	
35.0	207.2043100887695	pulse	1.0	t		20.0	male	black	3.1070433744528456	smiling	082	sub-02	1.0	6.0	082_smiling	0.0		229.43870712429634	
35.0	207.9042975919092	pulse	1.0	t		20.0	male	black	3.1070433744528456	smiling	082	sub-02	1.0	6.0	082_smiling	0.0		230.13869462743605	
36.0	208.26251467022666	face	0.0		146	32.0	male	white	2.389176283326701	smiling	092	sub-02	1.0	6.0	092_smiling	0.0		230.49691170575352	1.2416533648556651
36.0	208.60429686745192	pulse	0.0	t		32.0	male	white	2.389176283326701	smiling	092	sub-02	1.0	6.0	092_smiling	0.0		230.83869390297878	
36.0	209.3042970485658	pulse	0.0	t		32.0	male	white	2.389176283326701	smiling	092	sub-02	1.0	6.0	092_smiling	0.0		231.53869408409264	
36.0	209.50416803508233	fix	1.0		444	32.0	male	white	2.389176283326701	smiling	092	sub-02	1.0	6.0	092_smiling	0.0		231.73856507060918	3.7582811322754424
36.0	210.00427640157977	pulse	1.0	t		32.0	male	white	2.389176283326701	smiling	092	sub-02	1.0	6.0	092_smiling	0.0		232.23867343710663	
36.0	210.70425877315756	pulse	1.0	t		32.0	male	white	2.389176283326701	smiling	092	sub-02	1.0	6.0	092_smiling	0.0		232.93865580868442	
36.0	211.4042471818666	pulse	1.0	t		32.0	male	white	2.389176283326701	smiling	092	sub-02	1.0	6.0	092_smiling	0.0		233.63864421739345	
36.0	212.10426155023742	pulse	1.0	t		32.0	male	white	2.389176283326701	smiling	092	sub-02	1.0	6.0	092_smiling	0.0		234.33865858576428	
36.0	212.8042659573439	pulse	1.0	t		32.0	male	white	2.389176283326701	smiling	092	sub-02	1.0	6.0	092_smiling	0.0		235.03866299287074	
37.0	213.26244916735777	face	0.0		146	24.0	female	black	3.0955033824114606	neutral	099	sub-02	1.0	6.0	099_neutral	1.0	trustworthiness	235.49684620288463	1.241640083168022
37.0	213.5042290101028	pulse	0.0	t		24.0	female	black	3.0955033824114606	neutral	099	sub-02	1.0	6.0	099_neutral	1.0	trustworthiness	235.73862604562964	
37.0	214.20420383526834	pulse	0.0	t		24.0	female	black	3.0955033824114606	neutral	099	sub-02	1.0	6.0	099_neutral	1.0	trustworthiness	236.4386008707952	
37.0	214.5040892505258	fix	1.0		177	24.0	female	black	3.0955033824114606	neutral	099	sub-02	1.0	6.0	099_neutral	1.0	trustworthiness	236.73848628605265	1.499980681181114
37.0	214.90420492195153	pulse	1.0	t		24.0	female	black	3.0955033824114606	neutral	099	sub-02	1.0	6.0	099_neutral	1.0	trustworthiness	237.1386019574784	
37.0	215.60419453808572	pulse	1.0	t		24.0	female	black	3.0955033824114606	neutral	099	sub-02	1.0	6.0	099_neutral	1.0	trustworthiness	237.83859157361258	
37.0	216.0040699317069	rating	2.0		294	24.0	female	black	3.0955033824114606	neutral	099	sub-02	1.0	6.0	099_neutral	1.0	trustworthiness	238.23846696723376	2.4999664939241484
37.0	216.29907553416524	pulse	2.0	t		24.0	female	black	3.0955033824114606	neutral	099	sub-02	1.0	6.0	099_neutral	1.0	trustworthiness	238.5334725696921	
37.0	216.99888373451904	pulse	2.0	t		24.0	female	black	3.0955033824114606	neutral	099	sub-02	1.0	6.0	099_neutral	1.0	trustworthiness	239.2332807700459	
37.0	217.0874843638303	response	2.0	y		24.0	female	black	3.0955033824114606	neutral	099	sub-02	1.0	6.0	099_neutral	1.0	trustworthiness	239.32188139935715	
37.0	217.70414768995215	pulse	2.0	t		24.0	female	black	3.0955033824114606	neutral	099	sub-02	1.0	6.0	099_neutral	1.0	trustworthiness	239.938544725479	
37.0	218.40414002279613	pulse	2.0	t		24.0	female	black	3.0955033824114606	neutral	099	sub-02	1.0	6.0	099_neutral	1.0	trustworthiness	240.63853705832298	
37.0	218.50403642563106	fix	3.0		444	24.0	female	black	3.0955033824114606	neutral	099	sub-02	1.0	6.0	099_neutral	1.0	trustworthiness	240.7384334611579	3.758409723161094
37.0	219.10414835403571	pulse	3.0	t		24.0	female	black	3.0955033824114606	neutral	099	sub-02	1.0	6.0	099_neutral	1.0	trustworthiness	241.33854538956257	
37.0	219.8041240847706	pulse	3.0	t		24.0	female	black	3.0955033824114606	neutral	099	sub-02	1.0	6.0	099_neutral	1.0	trustworthiness	242.03852112029745	
37.0	220.5041239640268	pulse	3.0	t		24.0	female	black	3.0955033824114606	neutral	099	sub-02	1.0	6.0	099_neutral	1.0	trustworthiness	242.73852099955366	
37.0	221.2041012040445	pulse	3.0	t		24.0	female	black	3.0955033824114606	neutral	099	sub-02	1.0	6.0	099_neutral	1.0	trustworthiness	243.43849823957135	
37.0	221.9040923294615	pulse	3.0	t		24.0	female	black	3.0955033824114606	neutral	099	sub-02	1.0	6.0	099_neutral	1.0	trustworthiness	244.13848936498835	
38.0	222.26244614879215	face	0.0		146	28.0	male	east_asian	1.5563072025467568	neutral	005	sub-02	1.0	6.0	005_neutral	0.0		244.496843184319	1.2415126997093466
38.0	222.60408828458458	pulse	0.0	t		28.0	male	east_asian	1.5563072025467568	neutral	005	sub-02	1.0	6.0	005_neutral	0.0		244.83848532011143	
38.0	223.30409148426406	pulse	0.0	t		28.0	male	east_asian	1.5563072025467568	neutral	005	sub-02	1.0	6.0	005_neutral	0.0		245.53848851979092	
38.0	223.5039588485015	fix	1.0		444	28.0	male	east_asian	1.5563072025467568	neutral	005	sub-02	1.0	6.0	005_neutral	0.0		245.73835588402835	3.7582639264528552
38.0	224.00406872428175	pulse	1.0	t		28.0	male	east_asian	1.5563072025467568	neutral	005	sub-02	1.0	6.0	005_neutral	0.0		246.2384657598086	
38.0	224.70407403695572	pulse	1.0	t		28.0	male	east_asian	1.5563072025467568	neutral	005	sub-02	1.0	6.0	005_neutral	0.0		246.93847107248257	
38.0	225.40404433427284	pulse	1.0	t		28.0	male	east_asian	1.5563072025467568	neutral	005	sub-02	1.0	6.0	005_neutral	0.0		247.6384413697997	
38.0	226.10403545968984	pulse	1.0	t		28.0	male	east_asian	1.5563072025467568	neutral	005	sub-02	1.0	6.0	005_neutral	0.0		248.3384324952167	
38.0	226.8040196424081	pulse	1.0	t		28.0	male	east_asian	1.5563072025467568	neutral	005	sub-02	1.0	6.0	005_neutral	0.0		249.03841667793495	
39.0	227.26222277495435	face	0.0		146	30.0	female	black	2.7345801830481498	smiling	062	sub-02	1.0	6.0	062_smiling	0.0		249.4966198104812	1.2416566852771211
39.0	227.5040128808214	pulse	0.0	t		30.0	female	black	2.7345801830481498	smiling	062	sub-02	1.0	6.0	062_smiling	0.0		249.73840991634825	
39.0	228.20399585611267	pulse	0.0	t		30.0	female	black	2.7345801830481498	smiling	062	sub-02	1.0	6.0	062_smiling	0.0		250.43839289163952	
39.0	228.50387946023147	fix	1.0		444	30.0	female	black	2.7345801830481498	smiling	062	sub-02	1.0	6.0	062_smiling	0.0		250.73827649575833	3.7499526085230173
39.0	228.90398335925238	pulse	1.0	t		30.0	female	black	2.7345801830481498	smiling	062	sub-02	1.0	6.0	062_smiling	0.0		251.13838039477923	
39.0	229.60398414407973	pulse	1.0	t		30.0	female	black	2.7345801830481498	smiling	062	sub-02	1.0	6.0	062_smiling	0.0		251.83838117960659	
39.0	230.30401330342102	pulse	1.0	t		30.0	female	black	2.7345801830481498	smiling	062	sub-02	1.0	6.0	062_smiling	0.0		252.53841033894787	
39.0	231.00395854664384	pulse	1.0	t		30.0	female	black	2.7345801830481498	smiling	062	sub-02	1.0	6.0	062_smiling	0.0		253.2383555821707	
39.0	231.70395631290558	pulse	1.0	t		30.0	female	black	2.7345801830481498	smiling	062	sub-02	1.0	6.0	062_smiling	0.0		253.93835334843243	
40.0	232.2538320687545	fix	0.0		720													254.48822910428134	5.999906424473011
40.0	232.40395015503236	pulse	0.0	t														254.63834719055922	
40.0	233.1039234709151	pulse	0.0	t														255.33832050644196	
40.0	233.80391338890695	pulse	0.0	t														256.0383104244338	
40.0	234.50393469997834	pulse	0.0	t														256.7383317355052	
40.0	235.20389292303298	pulse	0.0	t														257.43828995855984	
40.0	235.9038855577328	pulse	0.0	t														258.13828259325965	
40.0	236.60389871867847	pulse	0.0	t														258.8382957542053	
40.0	237.30387022342074	pulse	0.0	t														259.5382672589476	
40.0	238.00387010267877	pulse	0.0	t														260.23826713820563	
