trial_nr	onset	event_type	phase	response	nr_frames	face_age	face_sex	face_eth	attractiveness	expression	face_id	sub_id	ses	run	trial_type	catch	onset_abs	duration
-1.0	0.05903127529018093	fix	0.0		713												16.46830709677579	5.957862832569845
-1.0	0.7004890923917628	pulse	0.0	t													17.10976491387737	
-1.0	1.4004710717690614	pulse	0.0	t													17.80974689325467	
-1.0	2.1004509381746175	pulse	0.0	t													18.509726759660225	
-1.0	2.8004308045801736	pulse	0.0	t													19.20970662606578	
-1.0	3.500423348811637	pulse	0.0	t													19.909699170297245	
-1.0	4.200403215217193	pulse	0.0	t													20.6096790367028	
-1.0	4.90037281862169	pulse	0.0	t													21.309648640107298	
-1.0	5.600362042470806	pulse	0.0	t													22.009637863956414	
0.0	6.0168941078600255	face	0.0		144	37.0	male	white	3.898925586947871	neutral	101	sub-04	1.0	6.0	101_neutral	1.0	22.426169929345633	1.2333148498692026
0.0	6.300378433087644	pulse	0.0	t		37.0	male	white	3.898925586947871	neutral	101	sub-04	1.0	6.0	101_neutral	1.0	22.709654254573252	
0.0	7.00033958460881	pulse	0.0	t		37.0	male	white	3.898925586947871	neutral	101	sub-04	1.0	6.0	101_neutral	1.0	23.409615406094417	
0.0	7.250208957729228	fix	1.0		237	37.0	male	white	3.898925586947871	neutral	101	sub-04	1.0	6.0	101_neutral	1.0	23.659484779214836	2.008284355170872
0.0	7.700302245394596	pulse	1.0	t		37.0	male	white	3.898925586947871	neutral	101	sub-04	1.0	6.0	101_neutral	1.0	24.109578066880204	
0.0	8.400277885858486	pulse	1.0	t		37.0	male	white	3.898925586947871	neutral	101	sub-04	1.0	6.0	101_neutral	1.0	24.809553707344094	
0.0	9.100253526322376	pulse	1.0	t		37.0	male	white	3.898925586947871	neutral	101	sub-04	1.0	6.0	101_neutral	1.0	25.509529347807984	
0.0	9.2584933129001	rating	2.0		234	37.0	male	white	3.898925586947871	neutral	101	sub-04	1.0	6.0	101_neutral	1.0	25.667769134385708	1.9915764906027107
0.0	9.716916535537166	response	2.0	y		37.0	male	white	3.898925586947871	neutral	101	sub-04	1.0	6.0	101_neutral	1.0	26.126192357022774	
0.0	9.80024063719975	pulse	2.0	t		37.0	male	white	3.898925586947871	neutral	101	sub-04	1.0	6.0	101_neutral	1.0	26.209516458685357	
0.0	10.500236199961364	pulse	2.0	t		37.0	male	white	3.898925586947871	neutral	101	sub-04	1.0	6.0	101_neutral	1.0	26.90951202144697	
0.0	11.200211840425254	pulse	2.0	t		37.0	male	white	3.898925586947871	neutral	101	sub-04	1.0	6.0	101_neutral	1.0	27.609487661910862	
0.0	11.25006980350281	fix	3.0		445	37.0	male	white	3.898925586947871	neutral	101	sub-04	1.0	6.0	101_neutral	1.0	27.65934562498842	3.7582525851448736
0.0	11.90019955500884	pulse	3.0	t		37.0	male	white	3.898925586947871	neutral	101	sub-04	1.0	6.0	101_neutral	1.0	28.309475376494447	
0.0	12.600174893619624	pulse	3.0	t		37.0	male	white	3.898925586947871	neutral	101	sub-04	1.0	6.0	101_neutral	1.0	29.00945071510523	
0.0	13.30014147849397	pulse	3.0	t		37.0	male	white	3.898925586947871	neutral	101	sub-04	1.0	6.0	101_neutral	1.0	29.709417299979577	
0.0	14.00012798566604	pulse	3.0	t		37.0	male	white	3.898925586947871	neutral	101	sub-04	1.0	6.0	101_neutral	1.0	30.409403807151648	
0.0	14.700113285425687	pulse	3.0	t		37.0	male	white	3.898925586947871	neutral	101	sub-04	1.0	6.0	101_neutral	1.0	31.109389106911294	
1.0	15.008322388647684	face	0.0		146	24.0	female	black	3.0955033824114606	neutral	099	sub-04	1.0	6.0	099_neutral	0.0	31.417598210133292	1.2416330125743116
1.0	15.400106131510256	pulse	0.0	t		24.0	female	black	3.0955033824114606	neutral	099	sub-04	1.0	6.0	099_neutral	0.0	31.809381952995864	
1.0	16.100074829355435	pulse	0.0	t		24.0	female	black	3.0955033824114606	neutral	099	sub-04	1.0	6.0	099_neutral	0.0	32.50935065084104	
1.0	16.249955401221996	fix	1.0		445	24.0	female	black	3.0955033824114606	neutral	099	sub-04	1.0	6.0	099_neutral	0.0	32.659231222707604	3.7582329647002553
1.0	16.80005409205569	pulse	1.0	t		24.0	female	black	3.0955033824114606	neutral	099	sub-04	1.0	6.0	099_neutral	0.0	33.209329913541296	
1.0	17.50006172893609	pulse	1.0	t		24.0	female	black	3.0955033824114606	neutral	099	sub-04	1.0	6.0	099_neutral	0.0	33.9093375504217	
1.0	18.20004431201869	pulse	1.0	t		24.0	female	black	3.0955033824114606	neutral	099	sub-04	1.0	6.0	099_neutral	0.0	34.6093201335043	
1.0	18.899992483860842	pulse	1.0	t		24.0	female	black	3.0955033824114606	neutral	099	sub-04	1.0	6.0	099_neutral	0.0	35.30926830534645	
1.0	19.599974161385035	pulse	1.0	t		24.0	female	black	3.0955033824114606	neutral	099	sub-04	1.0	6.0	099_neutral	0.0	36.00924998287064	
2.0	20.00818836592225	face	0.0		146	19.0	female	white	4.298846000795861	smiling	100	sub-04	1.0	6.0	100_smiling	0.0	36.41746418740786	1.2416475015179458
2.0	20.299963083380135	pulse	0.0	t		19.0	female	white	4.298846000795861	smiling	100	sub-04	1.0	6.0	100_smiling	0.0	36.70923890486574	
2.0	20.999937818285616	pulse	0.0	t		19.0	female	white	4.298846000795861	smiling	100	sub-04	1.0	6.0	100_smiling	0.0	37.409213639771224	
2.0	21.249835867440197	fix	1.0		444	19.0	female	white	4.298846000795861	smiling	100	sub-04	1.0	6.0	100_smiling	0.0	37.659111688925805	3.758216060932682
2.0	21.69992794769314	pulse	1.0	t		19.0	female	white	4.298846000795861	smiling	100	sub-04	1.0	6.0	100_smiling	0.0	38.10920376917875	
2.0	22.39994433830998	pulse	1.0	t		19.0	female	white	4.298846000795861	smiling	100	sub-04	1.0	6.0	100_smiling	0.0	38.809220159795586	
2.0	23.099877417503194	pulse	1.0	t		19.0	female	white	4.298846000795861	smiling	100	sub-04	1.0	6.0	100_smiling	0.0	39.5091532389888	
2.0	23.79986754691072	pulse	1.0	t		19.0	female	white	4.298846000795861	smiling	100	sub-04	1.0	6.0	100_smiling	0.0	40.209143368396326	
2.0	24.49984620590476	pulse	1.0	t		19.0	female	white	4.298846000795861	smiling	100	sub-04	1.0	6.0	100_smiling	0.0	40.90912202739037	
3.0	25.00805192837288	face	0.0		146	28.0	male	east_asian	1.5563072025467568	smiling	005	sub-04	1.0	6.0	005_smiling	0.0	41.41732774985849	1.2416402570461287
3.0	25.19984056125395	pulse	0.0	t		28.0	male	east_asian	1.5563072025467568	smiling	005	sub-04	1.0	6.0	005_smiling	0.0	41.60911638273956	
3.0	25.899811372069962	pulse	0.0	t		28.0	male	east_asian	1.5563072025467568	smiling	005	sub-04	1.0	6.0	005_smiling	0.0	42.30908719355557	
3.0	26.249692185419008	fix	1.0		444	28.0	male	east_asian	1.5563072025467568	smiling	005	sub-04	1.0	6.0	005_smiling	0.0	42.658968006904615	3.7582064016378354
3.0	26.599791540328624	pulse	1.0	t		28.0	male	east_asian	1.5563072025467568	smiling	005	sub-04	1.0	6.0	005_smiling	0.0	43.00906736181423	
3.0	27.299761747439334	pulse	1.0	t		28.0	male	east_asian	1.5563072025467568	smiling	005	sub-04	1.0	6.0	005_smiling	0.0	43.70903756892494	
3.0	27.99975489537701	pulse	1.0	t		28.0	male	east_asian	1.5563072025467568	smiling	005	sub-04	1.0	6.0	005_smiling	0.0	44.40903071686262	
3.0	28.699742006254382	pulse	1.0	t		28.0	male	east_asian	1.5563072025467568	smiling	005	sub-04	1.0	6.0	005_smiling	0.0	45.10901782773999	
3.0	29.399714930041227	pulse	1.0	t		28.0	male	east_asian	1.5563072025467568	smiling	005	sub-04	1.0	6.0	005_smiling	0.0	45.808990751526835	
4.0	30.007898587056843	face	0.0		146	19.0	male	white	2.243931555909272	smiling	130	sub-04	1.0	6.0	130_smiling	0.0	46.41717440854245	1.2416514256065057
4.0	30.099696305712314	pulse	0.0	t		19.0	male	white	2.243931555909272	smiling	130	sub-04	1.0	6.0	130_smiling	0.0	46.50897212719792	
4.0	30.799663192439766	pulse	0.0	t		19.0	male	white	2.243931555909272	smiling	130	sub-04	1.0	6.0	130_smiling	0.0	47.208939013925374	
4.0	31.24955001266335	fix	1.0		444	19.0	male	white	2.243931555909272	smiling	130	sub-04	1.0	6.0	130_smiling	0.0	47.658825834148956	3.758212438697228
4.0	31.49967143302638	pulse	1.0	t		19.0	male	white	2.243931555909272	smiling	130	sub-04	1.0	6.0	130_smiling	0.0	47.908947254511986	
4.0	32.19964133828398	pulse	1.0	t		19.0	male	white	2.243931555909272	smiling	130	sub-04	1.0	6.0	130_smiling	0.0	48.60891715976959	
4.0	32.89961033798227	pulse	1.0	t		19.0	male	white	2.243931555909272	smiling	130	sub-04	1.0	6.0	130_smiling	0.0	49.308886159467875	
4.0	33.59959805256585	pulse	1.0	t		19.0	male	white	2.243931555909272	smiling	130	sub-04	1.0	6.0	130_smiling	0.0	50.00887387405146	
4.0	34.29955497814444	pulse	1.0	t		19.0	male	white	2.243931555909272	smiling	130	sub-04	1.0	6.0	130_smiling	0.0	50.70883079963005	
5.0	35.00776245136058	face	0.0		147	20.0	male	black	2.609629924393156	neutral	043	sub-04	1.0	6.0	043_neutral	0.0	51.417038272846185	1.2416496144887788
5.0	35.001555448431645	pulse	0.0	t		20.0	male	black	2.609629924393156	neutral	043	sub-04	1.0	6.0	043_neutral	0.0	51.41083126991725	
5.0	35.69956481855206	pulse	0.0	t		20.0	male	black	2.609629924393156	neutral	043	sub-04	1.0	6.0	043_neutral	0.0	52.10884064003767	
5.0	36.249412065849356	fix	1.0		443	20.0	male	black	2.609629924393156	neutral	043	sub-04	1.0	6.0	043_neutral	0.0	52.65868788733496	3.758215759079576
5.0	36.39952566822012	pulse	1.0	t		20.0	male	black	2.609629924393156	neutral	043	sub-04	1.0	6.0	043_neutral	0.0	52.80880148970573	
5.0	37.09950010127159	pulse	1.0	t		20.0	male	black	2.609629924393156	neutral	043	sub-04	1.0	6.0	043_neutral	0.0	53.508775922757195	
5.0	37.79950441776964	pulse	1.0	t		20.0	male	black	2.609629924393156	neutral	043	sub-04	1.0	6.0	043_neutral	0.0	54.20878023925525	
5.0	38.49946858782005	pulse	1.0	t		20.0	male	black	2.609629924393156	neutral	043	sub-04	1.0	6.0	043_neutral	0.0	54.908744409305655	
5.0	39.19945781166916	pulse	1.0	t		20.0	male	black	2.609629924393156	neutral	043	sub-04	1.0	6.0	043_neutral	0.0	55.60873363315477	
5.0	39.89943194286843	pulse	1.0	t		20.0	male	black	2.609629924393156	neutral	043	sub-04	1.0	6.0	043_neutral	0.0	56.30870776435404	
6.0	40.00762782492893	face	0.0		147	28.0	male	white	3.9076800636689217	neutral	033	sub-04	1.0	6.0	033_neutral	0.0	56.41690364641454	1.2416511237533996
6.0	40.599420563010426	pulse	0.0	t		28.0	male	white	3.9076800636689217	neutral	033	sub-04	1.0	6.0	033_neutral	0.0	57.008696384496034	
6.0	41.24927894868233	fix	1.0		443	28.0	male	white	3.9076800636689217	neutral	033	sub-04	1.0	6.0	033_neutral	0.0	57.65855477016794	3.7665686348791496
6.0	41.29941944615439	pulse	1.0	t		28.0	male	white	3.9076800636689217	neutral	033	sub-04	1.0	6.0	033_neutral	0.0	57.708695267639996	
6.0	41.999376673586085	pulse	1.0	t		28.0	male	white	3.9076800636689217	neutral	033	sub-04	1.0	6.0	033_neutral	0.0	58.40865249507169	
6.0	42.699352314050884	pulse	1.0	t		28.0	male	white	3.9076800636689217	neutral	033	sub-04	1.0	6.0	033_neutral	0.0	59.10862813553649	
6.0	43.39932523783773	pulse	1.0	t		28.0	male	white	3.9076800636689217	neutral	033	sub-04	1.0	6.0	033_neutral	0.0	59.80860105932334	
6.0	44.09951700503916	pulse	1.0	t		28.0	male	white	3.9076800636689217	neutral	033	sub-04	1.0	6.0	033_neutral	0.0	60.50879282652477	
6.0	44.79931636336005	pulse	1.0	t		28.0	male	white	3.9076800636689217	neutral	033	sub-04	1.0	6.0	033_neutral	0.0	61.20859218484566	
7.0	45.01584758356148	face	0.0		145	22.0	female	white	4.614007162753682	smiling	009	sub-04	1.0	6.0	009_smiling	0.0	61.42512340504709	1.2333070016911734
7.0	45.499284457499925	pulse	0.0	t		22.0	female	white	4.614007162753682	smiling	009	sub-04	1.0	6.0	009_smiling	0.0	61.90856027898553	
7.0	46.19925043866806	pulse	0.0	t		22.0	female	white	4.614007162753682	smiling	009	sub-04	1.0	6.0	009_smiling	0.0	62.60852626015367	
7.0	46.249154585252654	fix	1.0		446	22.0	female	white	4.614007162753682	smiling	009	sub-04	1.0	6.0	009_smiling	0.0	62.65843040673826	3.7748907216728185
7.0	46.8992478125474	pulse	1.0	t		22.0	female	white	4.614007162753682	smiling	009	sub-04	1.0	6.0	009_smiling	0.0	63.30852363403301	
7.0	47.59922254745197	pulse	1.0	t		22.0	female	white	4.614007162753682	smiling	009	sub-04	1.0	6.0	009_smiling	0.0	64.00849836893758	
7.0	48.29919215085647	pulse	1.0	t		22.0	female	white	4.614007162753682	smiling	009	sub-04	1.0	6.0	009_smiling	0.0	64.70846797234208	
7.0	48.999193146971265	pulse	1.0	t		22.0	female	white	4.614007162753682	smiling	009	sub-04	1.0	6.0	009_smiling	0.0	65.40846896845687	
7.0	49.69916576890682	pulse	1.0	t		22.0	female	white	4.614007162753682	smiling	009	sub-04	1.0	6.0	009_smiling	0.0	66.10844159039243	
8.0	50.02404530692547	face	0.0		145	30.0	female	black	2.7345801830481498	smiling	062	sub-04	1.0	6.0	062_smiling	0.0	66.43332112841108	1.233299153514963
8.0	50.39929293956811	pulse	0.0	t		30.0	female	black	2.7345801830481498	smiling	062	sub-04	1.0	6.0	062_smiling	0.0	66.80856876105372	
8.0	51.09913304804286	pulse	0.0	t		30.0	female	black	2.7345801830481498	smiling	062	sub-04	1.0	6.0	062_smiling	0.0	67.50840886952847	
8.0	51.257344460440436	fix	1.0		445	30.0	female	black	2.7345801830481498	smiling	062	sub-04	1.0	6.0	062_smiling	0.0	67.66662028192604	3.7665484107274096
8.0	51.79911623483167	pulse	1.0	t		30.0	female	black	2.7345801830481498	smiling	062	sub-04	1.0	6.0	062_smiling	0.0	68.20839205631728	
8.0	52.49909730864965	pulse	1.0	t		30.0	female	black	2.7345801830481498	smiling	062	sub-04	1.0	6.0	062_smiling	0.0	68.90837313013526	
8.0	53.199257079433664	pulse	1.0	t		30.0	female	black	2.7345801830481498	smiling	062	sub-04	1.0	6.0	062_smiling	0.0	69.60853290091927	
8.0	53.8992601885202	pulse	1.0	t		30.0	female	black	2.7345801830481498	smiling	062	sub-04	1.0	6.0	062_smiling	0.0	70.30853601000581	
8.0	54.59902000409966	pulse	1.0	t		30.0	female	black	2.7345801830481498	smiling	062	sub-04	1.0	6.0	062_smiling	0.0	71.00829582558526	
9.0	55.023892871167845	face	0.0		145	32.0	male	white	2.389176283326701	neutral	092	sub-04	1.0	6.0	092_neutral	1.0	71.43316869265345	1.2333287351066247
9.0	55.29904605401134	pulse	0.0	t		32.0	male	white	2.389176283326701	neutral	092	sub-04	1.0	6.0	092_neutral	1.0	71.70832187549695	
9.0	55.998993320295995	pulse	0.0	t		32.0	male	white	2.389176283326701	neutral	092	sub-04	1.0	6.0	092_neutral	1.0	72.4082691417816	
9.0	56.25722160627447	fix	1.0		236	32.0	male	white	2.389176283326701	neutral	092	sub-04	1.0	6.0	092_neutral	1.0	72.66649742776008	1.999929668254481
9.0	56.69899793864715	pulse	1.0	t		32.0	male	white	2.389176283326701	neutral	092	sub-04	1.0	6.0	092_neutral	1.0	73.10827376013276	
9.0	57.39895607163817	pulse	1.0	t		32.0	male	white	2.389176283326701	neutral	092	sub-04	1.0	6.0	092_neutral	1.0	73.80823189312378	
9.0	58.098967934460234	pulse	1.0	t		32.0	male	white	2.389176283326701	neutral	092	sub-04	1.0	6.0	092_neutral	1.0	74.50824375594584	
9.0	58.25715127452895	rating	2.0		235	32.0	male	white	2.389176283326701	neutral	092	sub-04	1.0	6.0	092_neutral	1.0	74.66642709601456	1.9999417423750856
9.0	58.79893693415761	pulse	2.0	t		32.0	male	white	2.389176283326701	neutral	092	sub-04	1.0	6.0	092_neutral	1.0	75.20821275564322	
9.0	59.098917826864636	response	2.0	w		32.0	male	white	2.389176283326701	neutral	092	sub-04	1.0	6.0	092_neutral	1.0	75.50819364835024	
9.0	59.498915291298545	pulse	2.0	t		32.0	male	white	2.389176283326701	neutral	092	sub-04	1.0	6.0	092_neutral	1.0	75.90819111278415	
9.0	60.19887583911441	pulse	2.0	t		32.0	male	white	2.389176283326701	neutral	092	sub-04	1.0	6.0	092_neutral	1.0	76.60815166060002	
9.0	60.25709301690404	fix	3.0		444	32.0	male	white	2.389176283326701	neutral	092	sub-04	1.0	6.0	092_neutral	1.0	76.66636883838964	3.758239001759648
9.0	60.89893328173639	pulse	3.0	t		32.0	male	white	2.389176283326701	neutral	092	sub-04	1.0	6.0	092_neutral	1.0	77.308209103222	
9.0	61.59884885345673	pulse	3.0	t		32.0	male	white	2.389176283326701	neutral	092	sub-04	1.0	6.0	092_neutral	1.0	78.00812467494234	
9.0	62.29882358836221	pulse	3.0	t		32.0	male	white	2.389176283326701	neutral	092	sub-04	1.0	6.0	092_neutral	1.0	78.70809940984782	
9.0	62.99880798256345	pulse	3.0	t		32.0	male	white	2.389176283326701	neutral	092	sub-04	1.0	6.0	092_neutral	1.0	79.40808380404906	
9.0	63.69879781011696	pulse	3.0	t		32.0	male	white	2.389176283326701	neutral	092	sub-04	1.0	6.0	092_neutral	1.0	80.10807363160257	
10.0	64.01533201866368	face	0.0		146	25.0	female	black	3.858336649423	neutral	126	sub-04	1.0	6.0	126_neutral	0.0	80.42460784014929	1.241643879280673
10.0	64.39877465799327	pulse	0.0	t		25.0	female	black	3.858336649423	neutral	126	sub-04	1.0	6.0	126_neutral	0.0	80.80805047947888	
10.0	65.09875663736966	pulse	0.0	t		25.0	female	black	3.858336649423	neutral	126	sub-04	1.0	6.0	126_neutral	0.0	81.50803245885527	
10.0	65.25697589794436	fix	1.0		444	25.0	female	black	3.858336649423	neutral	126	sub-04	1.0	6.0	126_neutral	0.0	81.66625171942997	3.766555051495743
10.0	65.79873348524598	pulse	1.0	t		25.0	female	black	3.858336649423	neutral	126	sub-04	1.0	6.0	126_neutral	0.0	82.20800930673158	
10.0	66.49872240724108	pulse	1.0	t		25.0	female	black	3.858336649423	neutral	126	sub-04	1.0	6.0	126_neutral	0.0	82.90799822872668	
10.0	67.1986926143527	pulse	1.0	t		25.0	female	black	3.858336649423	neutral	126	sub-04	1.0	6.0	126_neutral	0.0	83.6079684358383	
10.0	67.89868274376022	pulse	1.0	t		25.0	female	black	3.858336649423	neutral	126	sub-04	1.0	6.0	126_neutral	0.0	84.30795856524583	
10.0	68.59865446013464	pulse	1.0	t		25.0	female	black	3.858336649423	neutral	126	sub-04	1.0	6.0	126_neutral	0.0	85.00793028162025	
11.0	69.0235309494401	face	0.0		145	31.0	female	white	2.1822522881018704	smiling	102	sub-04	1.0	6.0	102_smiling	0.0	85.43280677092571	1.2333091146610968
11.0	69.29864428768997	pulse	0.0	t		31.0	female	white	2.1822522881018704	smiling	102	sub-04	1.0	6.0	102_smiling	0.0	85.70792010917557	
11.0	69.9990256185647	pulse	0.0	t		31.0	female	white	2.1822522881018704	smiling	102	sub-04	1.0	6.0	102_smiling	0.0	86.40830144005031	
11.0	70.2568400641012	fix	1.0		444	31.0	female	white	2.1822522881018704	smiling	102	sub-04	1.0	6.0	102_smiling	0.0	86.6661158855868	3.766537845875064
11.0	70.69860432235328	pulse	1.0	t		31.0	female	white	2.1822522881018704	smiling	102	sub-04	1.0	6.0	102_smiling	0.0	87.10788014383888	
11.0	71.39857815170035	pulse	1.0	t		31.0	female	white	2.1822522881018704	smiling	102	sub-04	1.0	6.0	102_smiling	0.0	87.80785397318596	
11.0	72.09856888481409	pulse	1.0	t		31.0	female	white	2.1822522881018704	smiling	102	sub-04	1.0	6.0	102_smiling	0.0	88.5078447062997	
11.0	72.79854754380722	pulse	1.0	t		31.0	female	white	2.1822522881018704	smiling	102	sub-04	1.0	6.0	102_smiling	0.0	89.20782336529282	
11.0	73.49851895832944	pulse	1.0	t		31.0	female	white	2.1822522881018704	smiling	102	sub-04	1.0	6.0	102_smiling	0.0	89.90779477981505	
12.0	74.02337790997626	face	0.0		145	24.0	male	white	3.1153999204138483	smiling	012	sub-04	1.0	6.0	012_smiling	0.0	90.43265373146187	1.2333169628400356
12.0	74.19851572850348	pulse	0.0	t		24.0	male	white	3.1153999204138483	smiling	012	sub-04	1.0	6.0	012_smiling	0.0	90.60779154998909	
12.0	74.89849800973207	pulse	0.0	t		24.0	male	white	3.1153999204138483	smiling	012	sub-04	1.0	6.0	012_smiling	0.0	91.30777383121767	
12.0	75.2566948728163	fix	1.0		444	24.0	male	white	3.1153999204138483	smiling	012	sub-04	1.0	6.0	012_smiling	0.0	91.6659706943019	3.766566823760513
12.0	75.5984821020811	pulse	1.0	t		24.0	male	white	3.1153999204138483	smiling	012	sub-04	1.0	6.0	012_smiling	0.0	92.00775792356671	
12.0	76.29858663376945	pulse	1.0	t		24.0	male	white	3.1153999204138483	smiling	012	sub-04	1.0	6.0	012_smiling	0.0	92.70786245525505	
12.0	76.99843187374427	pulse	1.0	t		24.0	male	white	3.1153999204138483	smiling	012	sub-04	1.0	6.0	012_smiling	0.0	93.40770769522987	
12.0	77.69841355126664	pulse	1.0	t		24.0	male	white	3.1153999204138483	smiling	012	sub-04	1.0	6.0	012_smiling	0.0	94.10768937275225	
12.0	78.39838406023046	pulse	1.0	t		24.0	male	white	3.1153999204138483	smiling	012	sub-04	1.0	6.0	012_smiling	0.0	94.80765988171606	
13.0	79.02326169657681	face	0.0		145	36.0	female	white	2.7548746518105847	smiling	011	sub-04	1.0	6.0	011_smiling	1.0	95.43253751806242	1.2333085109567037
13.0	79.0983756989026	pulse	0.0	t		36.0	female	white	2.7548746518105847	smiling	011	sub-04	1.0	6.0	011_smiling	1.0	95.50765152038821	
13.0	79.79834500045399	pulse	0.0	t		36.0	female	white	2.7548746518105847	smiling	011	sub-04	1.0	6.0	011_smiling	1.0	96.2076208219396	
13.0	80.25657020753351	fix	1.0		236	36.0	female	white	2.7548746518105847	smiling	011	sub-04	1.0	6.0	011_smiling	1.0	96.66584602901912	1.9999489868459932
13.0	80.49838765228196	pulse	1.0	t		36.0	female	white	2.7548746518105847	smiling	011	sub-04	1.0	6.0	011_smiling	1.0	96.90766347376757	
13.0	81.19829869620662	pulse	1.0	t		36.0	female	white	2.7548746518105847	smiling	011	sub-04	1.0	6.0	011_smiling	1.0	97.60757451769223	
13.0	81.89832867020777	pulse	1.0	t		36.0	female	white	2.7548746518105847	smiling	011	sub-04	1.0	6.0	011_smiling	1.0	98.30760449169338	
13.0	82.2565191943795	rating	2.0		235	36.0	female	white	2.7548746518105847	smiling	011	sub-04	1.0	6.0	011_smiling	1.0	98.66579501586511	1.9999287626942532
13.0	82.59828197355091	pulse	2.0	t		36.0	female	white	2.7548746518105847	smiling	011	sub-04	1.0	6.0	011_smiling	1.0	99.00755779503652	
13.0	82.81800408165691	response	2.0	d		36.0	female	white	2.7548746518105847	smiling	011	sub-04	1.0	6.0	011_smiling	1.0	99.22727990314252	
13.0	83.2982760270479	pulse	2.0	t		36.0	female	white	2.7548746518105847	smiling	011	sub-04	1.0	6.0	011_smiling	1.0	99.70755184853351	
13.0	83.99823416003892	pulse	2.0	t		36.0	female	white	2.7548746518105847	smiling	011	sub-04	1.0	6.0	011_smiling	1.0	100.40750998152453	
13.0	84.25644795707376	fix	3.0		444	36.0	female	white	2.7548746518105847	smiling	011	sub-04	1.0	6.0	011_smiling	1.0	100.66572377855937	3.7665734645270277
13.0	84.69826413404007	pulse	3.0	t		36.0	female	white	2.7548746518105847	smiling	011	sub-04	1.0	6.0	011_smiling	1.0	101.10753995552568	
13.0	85.39824671712267	pulse	3.0	t		36.0	female	white	2.7548746518105847	smiling	011	sub-04	1.0	6.0	011_smiling	1.0	101.80752253860828	
13.0	86.09820334084907	pulse	3.0	t		36.0	female	white	2.7548746518105847	smiling	011	sub-04	1.0	6.0	011_smiling	1.0	102.50747916233468	
13.0	86.7981756609297	pulse	3.0	t		36.0	female	white	2.7548746518105847	smiling	011	sub-04	1.0	6.0	011_smiling	1.0	103.20745148241531	
13.0	87.49816820516207	pulse	3.0	t		36.0	female	white	2.7548746518105847	smiling	011	sub-04	1.0	6.0	011_smiling	1.0	103.90744402664768	
14.0	88.02302142160079	face	0.0		145	32.0	male	white	2.389176283326701	smiling	092	sub-04	1.0	6.0	092_smiling	0.0	104.4322972430864	1.2332991535131441
14.0	88.1981586364218	pulse	0.0	t		32.0	male	white	2.389176283326701	smiling	092	sub-04	1.0	6.0	092_smiling	0.0	104.6074344579074	
14.0	88.89810620455864	pulse	0.0	t		32.0	male	white	2.389176283326701	smiling	092	sub-04	1.0	6.0	092_smiling	0.0	105.30738202604425	
14.0	89.25632057511393	fix	1.0		444	32.0	male	white	2.389176283326701	smiling	092	sub-04	1.0	6.0	092_smiling	0.0	105.66559639659954	3.766543882935366
14.0	89.59810327658488	pulse	1.0	t		32.0	male	white	2.389176283326701	smiling	092	sub-04	1.0	6.0	092_smiling	0.0	106.00737909807049	
14.0	90.29806654107597	pulse	1.0	t		32.0	male	white	2.389176283326701	smiling	092	sub-04	1.0	6.0	092_smiling	0.0	106.70734236256158	
14.0	90.99805576492508	pulse	1.0	t		32.0	male	white	2.389176283326701	smiling	092	sub-04	1.0	6.0	092_smiling	0.0	107.40733158641069	
14.0	91.69803563133064	pulse	1.0	t		32.0	male	white	2.389176283326701	smiling	092	sub-04	1.0	6.0	092_smiling	0.0	108.10731145281625	
14.0	92.39802062923627	pulse	1.0	t		32.0	male	white	2.389176283326701	smiling	092	sub-04	1.0	6.0	092_smiling	0.0	108.80729645072188	
15.0	93.0228644580493	face	0.0		145	36.0	female	white	2.7548746518105847	neutral	011	sub-04	1.0	6.0	011_neutral	0.0	109.4321402795349	1.2333142461629905
15.0	93.09799838267281	pulse	0.0	t		36.0	female	white	2.7548746518105847	neutral	011	sub-04	1.0	6.0	011_neutral	0.0	109.50727420415842	
15.0	93.79796617495776	pulse	0.0	t		36.0	female	white	2.7548746518105847	neutral	011	sub-04	1.0	6.0	011_neutral	0.0	110.20724199644337	
15.0	94.25617870421229	fix	1.0		444	36.0	female	white	2.7548746518105847	neutral	011	sub-04	1.0	6.0	011_neutral	0.0	110.6654545256979	3.7665749737916485
15.0	94.49795992660256	pulse	1.0	t		36.0	female	white	2.7548746518105847	neutral	011	sub-04	1.0	6.0	011_neutral	0.0	110.90723574808817	
15.0	95.1979642430997	pulse	1.0	t		36.0	female	white	2.7548746518105847	neutral	011	sub-04	1.0	6.0	011_neutral	0.0	111.60724006458531	
15.0	95.89791211308875	pulse	1.0	t		36.0	female	white	2.7548746518105847	neutral	011	sub-04	1.0	6.0	011_neutral	0.0	112.30718793457436	
15.0	96.59789982767325	pulse	1.0	t		36.0	female	white	2.7548746518105847	neutral	011	sub-04	1.0	6.0	011_neutral	0.0	113.00717564915885	
15.0	97.2978736570185	pulse	1.0	t		36.0	female	white	2.7548746518105847	neutral	011	sub-04	1.0	6.0	011_neutral	0.0	113.7071494785041	
15.0	97.9978559382489	pulse	1.0	t		36.0	female	white	2.7548746518105847	neutral	011	sub-04	1.0	6.0	011_neutral	0.0	114.40713175973451	
16.0	98.02275367800394	face	0.0		146	47.0	male	east_asian	2.171110226820533	smiling	024	sub-04	1.0	6.0	024_smiling	0.0	114.43202949948954	1.2332958331298869
16.0	98.69784153986075	pulse	0.0	t		47.0	male	east_asian	2.171110226820533	smiling	024	sub-04	1.0	6.0	024_smiling	0.0	115.10711736134635	
16.0	99.25604951113382	fix	1.0		443	47.0	male	east_asian	2.171110226820533	smiling	024	sub-04	1.0	6.0	024_smiling	0.0	115.66532533261943	3.766565616349908
16.0	99.39783529150372	pulse	1.0	t		47.0	male	east_asian	2.171110226820533	smiling	024	sub-04	1.0	6.0	024_smiling	0.0	115.80711111298933	
16.0	100.09780972455701	pulse	1.0	t		47.0	male	east_asian	2.171110226820533	smiling	024	sub-04	1.0	6.0	024_smiling	0.0	116.50708554604262	
16.0	100.79775940566469	pulse	1.0	t		47.0	male	east_asian	2.171110226820533	smiling	024	sub-04	1.0	6.0	024_smiling	0.0	117.2070352271503	
16.0	101.49777277775138	pulse	1.0	t		47.0	male	east_asian	2.171110226820533	smiling	024	sub-04	1.0	6.0	024_smiling	0.0	117.90704859923699	
16.0	102.19776260530489	pulse	1.0	t		47.0	male	east_asian	2.171110226820533	smiling	024	sub-04	1.0	6.0	024_smiling	0.0	118.6070384267905	
16.0	102.89773673650416	pulse	1.0	t		47.0	male	east_asian	2.171110226820533	smiling	024	sub-04	1.0	6.0	024_smiling	0.0	119.30701255798976	
17.0	103.02261512748373	face	0.0		146	20.0	male	black	3.1070433744528456	neutral	082	sub-04	1.0	6.0	082_neutral	0.0	119.43189094896934	1.2332976442485233
17.0	103.59771147140964	pulse	0.0	t		20.0	male	black	3.1070433744528456	neutral	082	sub-04	1.0	6.0	082_neutral	0.0	120.00698729289525	
17.0	104.25591277173226	fix	1.0		443	20.0	male	black	3.1070433744528456	neutral	082	sub-04	1.0	6.0	082_neutral	0.0	120.66518859321786	3.7665680311729375
17.0	104.29780724936245	pulse	1.0	t		20.0	male	black	3.1070433744528456	neutral	082	sub-04	1.0	6.0	082_neutral	0.0	120.70708307084806	
17.0	104.9976799579581	pulse	1.0	t		20.0	male	black	3.1070433744528456	neutral	082	sub-04	1.0	6.0	082_neutral	0.0	121.4069557794437	
17.0	105.69765107062813	pulse	1.0	t		20.0	male	black	3.1070433744528456	neutral	082	sub-04	1.0	6.0	082_neutral	0.0	122.10692689211373	
17.0	106.39764029447542	pulse	1.0	t		20.0	male	black	3.1070433744528456	neutral	082	sub-04	1.0	6.0	082_neutral	0.0	122.80691611596103	
17.0	107.09761714235174	pulse	1.0	t		20.0	male	black	3.1070433744528456	neutral	082	sub-04	1.0	6.0	082_neutral	0.0	123.50689296383734	
17.0	107.7976090828779	pulse	1.0	t		20.0	male	black	3.1070433744528456	neutral	082	sub-04	1.0	6.0	082_neutral	0.0	124.2068849043635	
18.0	108.02248080290519	face	0.0		145	22.0	female	white	4.614007162753682	neutral	009	sub-04	1.0	6.0	009_neutral	0.0	124.4317566243908	1.2332994553671597
18.0	108.49758381778338	pulse	0.0	t		22.0	female	white	4.614007162753682	neutral	009	sub-04	1.0	6.0	009_neutral	0.0	124.90685963926899	
18.0	109.19759839728249	pulse	0.0	t		22.0	female	white	4.614007162753682	neutral	009	sub-04	1.0	6.0	009_neutral	0.0	125.6068742187681	
18.0	109.25578025827235	fix	1.0		444	22.0	female	white	4.614007162753682	neutral	009	sub-04	1.0	6.0	009_neutral	0.0	125.66505607975796	3.766547505169001
18.0	109.89755441730267	pulse	1.0	t		22.0	female	white	4.614007162753682	neutral	009	sub-04	1.0	6.0	009_neutral	0.0	126.30683023878828	
18.0	110.59752190773543	pulse	1.0	t		22.0	female	white	4.614007162753682	neutral	009	sub-04	1.0	6.0	009_neutral	0.0	127.00679772922103	
18.0	111.29749754819932	pulse	1.0	t		22.0	female	white	4.614007162753682	neutral	009	sub-04	1.0	6.0	009_neutral	0.0	127.70677336968492	
18.0	111.99749582763798	pulse	1.0	t		22.0	female	white	4.614007162753682	neutral	009	sub-04	1.0	6.0	009_neutral	0.0	128.40677164912358	
18.0	112.69747176995406	pulse	1.0	t		22.0	female	white	4.614007162753682	neutral	009	sub-04	1.0	6.0	009_neutral	0.0	129.10674759143967	
19.0	113.02232776344135	face	0.0		145	22.0	female	west_asian	3.8205332272184642	smiling	066	sub-04	1.0	6.0	066_smiling	0.0	129.43160358492696	1.2333175665462477
19.0	113.39744529744712	pulse	0.0	t		22.0	female	west_asian	3.8205332272184642	smiling	066	sub-04	1.0	6.0	066_smiling	0.0	129.80672111893273	
19.0	114.09743391759002	pulse	0.0	t		22.0	female	west_asian	3.8205332272184642	smiling	066	sub-04	1.0	6.0	066_smiling	0.0	130.50670973907563	
19.0	114.2556453299876	fix	1.0		444	22.0	female	west_asian	3.8205332272184642	smiling	066	sub-04	1.0	6.0	066_smiling	0.0	130.6649211514732	3.766566220054301
19.0	114.7974204247621	pulse	1.0	t		22.0	female	west_asian	3.8205332272184642	smiling	066	sub-04	1.0	6.0	066_smiling	0.0	131.2066962462477	
19.0	115.49739636707818	pulse	1.0	t		22.0	female	west_asian	3.8205332272184642	smiling	066	sub-04	1.0	6.0	066_smiling	0.0	131.9066721885638	
19.0	116.19737713904397	pulse	1.0	t		22.0	female	west_asian	3.8205332272184642	smiling	066	sub-04	1.0	6.0	066_smiling	0.0	132.60665296052957	
19.0	116.89734734615377	pulse	1.0	t		22.0	female	west_asian	3.8205332272184642	smiling	066	sub-04	1.0	6.0	066_smiling	0.0	133.30662316763937	
19.0	117.59733898482591	pulse	1.0	t		22.0	female	west_asian	3.8205332272184642	smiling	066	sub-04	1.0	6.0	066_smiling	0.0	134.00661480631152	
20.0	118.0222115500419	face	0.0		145	40.0	male	black	2.408674890569041	neutral	061	sub-04	1.0	6.0	061_neutral	0.0	134.4314873715275	1.233293720160873
20.0	118.29731734196685	pulse	0.0	t		40.0	male	black	2.408674890569041	neutral	061	sub-04	1.0	6.0	061_neutral	0.0	134.70659316345245	
20.0	118.99729418984316	pulse	0.0	t		40.0	male	black	2.408674890569041	neutral	061	sub-04	1.0	6.0	061_neutral	0.0	135.40657001132877	
20.0	119.25550527020278	fix	1.0		444	40.0	male	black	2.408674890569041	neutral	061	sub-04	1.0	6.0	061_neutral	0.0	135.66478109168838	3.7665737663792243
20.0	119.69728280998606	pulse	1.0	t		40.0	male	black	2.408674890569041	neutral	061	sub-04	1.0	6.0	061_neutral	0.0	136.10655863147167	
20.0	120.39726358195003	pulse	1.0	t		40.0	male	black	2.408674890569041	neutral	061	sub-04	1.0	6.0	061_neutral	0.0	136.80653940343564	
20.0	121.09724042982634	pulse	1.0	t		40.0	male	black	2.408674890569041	neutral	061	sub-04	1.0	6.0	061_neutral	0.0	137.50651625131195	
20.0	121.79721878696728	pulse	1.0	t		40.0	male	black	2.408674890569041	neutral	061	sub-04	1.0	6.0	061_neutral	0.0	138.20649460845289	
20.0	122.49719231446034	pulse	1.0	t		40.0	male	black	2.408674890569041	neutral	061	sub-04	1.0	6.0	061_neutral	0.0	138.90646813594594	
21.0	123.022079036582	face	0.0		145	19.0	male	white	2.243931555909272	neutral	130	sub-04	1.0	6.0	130_neutral	1.0	139.4313548580676	1.233293720160873
21.0	123.19720568654884	pulse	0.0	t		19.0	male	white	2.243931555909272	neutral	130	sub-04	1.0	6.0	130_neutral	1.0	139.60648150803445	
21.0	123.89717015845235	pulse	0.0	t		19.0	male	white	2.243931555909272	neutral	130	sub-04	1.0	6.0	130_neutral	1.0	140.30644597993796	
21.0	124.25537275674287	fix	1.0		236	19.0	male	white	2.243931555909272	neutral	130	sub-04	1.0	6.0	130_neutral	1.0	140.66464857822848	1.9999507979628106
21.0	124.59792276850021	pulse	1.0	t		19.0	male	white	2.243931555909272	neutral	130	sub-04	1.0	6.0	130_neutral	1.0	141.00719858998582	
21.0	125.29712023196771	pulse	1.0	t		19.0	male	white	2.243931555909272	neutral	130	sub-04	1.0	6.0	130_neutral	1.0	141.70639605345332	
21.0	125.99714507446879	pulse	1.0	t		19.0	male	white	2.243931555909272	neutral	130	sub-04	1.0	6.0	130_neutral	1.0	142.4064208959544	
21.0	126.25532355470568	rating	2.0		235	19.0	male	white	2.243931555909272	neutral	130	sub-04	1.0	6.0	130_neutral	1.0	142.6645993761913	1.9999402331086458
21.0	126.69710411301821	pulse	2.0	t		19.0	male	white	2.243931555909272	neutral	130	sub-04	1.0	6.0	130_neutral	1.0	143.10637993450382	
21.0	127.31374237028831	response	2.0	e		19.0	male	white	2.243931555909272	neutral	130	sub-04	1.0	6.0	130_neutral	1.0	143.72301819177392	
21.0	127.39706435898006	pulse	2.0	t		19.0	male	white	2.243931555909272	neutral	130	sub-04	1.0	6.0	130_neutral	1.0	143.80634018046567	
21.0	128.09705026244592	pulse	2.0	t		19.0	male	white	2.243931555909272	neutral	130	sub-04	1.0	6.0	130_neutral	1.0	144.50632608393153	
21.0	128.25526378781433	fix	3.0		444	19.0	male	white	2.243931555909272	neutral	130	sub-04	1.0	6.0	130_neutral	1.0	144.66453960929994	3.766566823760513
21.0	128.79703948629503	pulse	3.0	t		19.0	male	white	2.243931555909272	neutral	130	sub-04	1.0	6.0	130_neutral	1.0	145.20631530778064	
21.0	129.49703112496718	pulse	3.0	t		19.0	male	white	2.243931555909272	neutral	130	sub-04	1.0	6.0	130_neutral	1.0	145.9063069464528	
21.0	130.19698835239979	pulse	3.0	t		19.0	male	white	2.243931555909272	neutral	130	sub-04	1.0	6.0	130_neutral	1.0	146.6062641738854	
21.0	130.89697455771784	pulse	3.0	t		19.0	male	white	2.243931555909272	neutral	130	sub-04	1.0	6.0	130_neutral	1.0	147.30625037920345	
21.0	131.59695865006506	pulse	3.0	t		19.0	male	white	2.243931555909272	neutral	130	sub-04	1.0	6.0	130_neutral	1.0	148.00623447155067	
22.0	132.02183061157484	face	0.0		145	31.0	female	west_asian	2.364902506963788	neutral	006	sub-04	1.0	6.0	006_neutral	1.0	148.43110643306045	1.2333088128107192
22.0	132.29693730906	pulse	0.0	t		31.0	female	west_asian	2.364902506963788	neutral	006	sub-04	1.0	6.0	006_neutral	1.0	148.70621313054562	
22.0	132.9969198921426	pulse	0.0	t		31.0	female	west_asian	2.364902506963788	neutral	006	sub-04	1.0	6.0	006_neutral	1.0	149.40619571362822	
22.0	133.25513942438556	fix	1.0		236	31.0	female	west_asian	2.364902506963788	neutral	006	sub-04	1.0	6.0	006_neutral	1.0	149.66441524587117	1.9999411386670545
22.0	133.69690066410658	pulse	1.0	t		31.0	female	west_asian	2.364902506963788	neutral	006	sub-04	1.0	6.0	006_neutral	1.0	150.1061764855922	
22.0	134.39688324718918	pulse	1.0	t		31.0	female	west_asian	2.364902506963788	neutral	006	sub-04	1.0	6.0	006_neutral	1.0	150.8061590686748	
22.0	135.09685737838845	pulse	1.0	t		31.0	female	west_asian	2.364902506963788	neutral	006	sub-04	1.0	6.0	006_neutral	1.0	151.50613319987406	
22.0	135.25508056305262	rating	2.0		235	31.0	female	west_asian	2.364902506963788	neutral	006	sub-04	1.0	6.0	006_neutral	1.0	151.66435638453822	1.9999329886377382
22.0	135.79684599853135	pulse	2.0	t		31.0	female	west_asian	2.364902506963788	neutral	006	sub-04	1.0	6.0	006_neutral	1.0	152.20612182001696	
22.0	136.49683582608668	pulse	2.0	t		31.0	female	west_asian	2.364902506963788	neutral	006	sub-04	1.0	6.0	006_neutral	1.0	152.9061116475723	
22.0	136.62180718778473	response	2.0	e		31.0	female	west_asian	2.364902506963788	neutral	006	sub-04	1.0	6.0	006_neutral	1.0	153.03108300927033	
22.0	137.19679154425285	pulse	2.0	t		31.0	female	west_asian	2.364902506963788	neutral	006	sub-04	1.0	6.0	006_neutral	1.0	153.60606736573845	
22.0	137.25501355169035	fix	3.0		444	31.0	female	west_asian	2.364902506963788	neutral	006	sub-04	1.0	6.0	006_neutral	1.0	153.66428937317596	3.766576181204073
22.0	137.89678680516045	pulse	3.0	t		31.0	female	west_asian	2.364902506963788	neutral	006	sub-04	1.0	6.0	006_neutral	1.0	154.30606262664605	
22.0	138.59677542530335	pulse	3.0	t		31.0	female	west_asian	2.364902506963788	neutral	006	sub-04	1.0	6.0	006_neutral	1.0	155.00605124678896	
22.0	139.2967546880027	pulse	3.0	t		31.0	female	west_asian	2.364902506963788	neutral	006	sub-04	1.0	6.0	006_neutral	1.0	155.7060305094883	
22.0	139.99674602482264	pulse	3.0	t		31.0	female	west_asian	2.364902506963788	neutral	006	sub-04	1.0	6.0	006_neutral	1.0	156.40602184630825	
22.0	140.69671532637403	pulse	3.0	t		31.0	female	west_asian	2.364902506963788	neutral	006	sub-04	1.0	6.0	006_neutral	1.0	157.10599114785964	
23.0	141.02158973289443	face	0.0		145	54.0	female	white	2.286908077994429	neutral	136	sub-04	1.0	6.0	136_neutral	0.0	157.43086555438003	1.2333130387505662
23.0	141.39670394651694	pulse	0.0	t		54.0	female	white	2.286908077994429	neutral	136	sub-04	1.0	6.0	136_neutral	0.0	157.80597976800254	
23.0	142.09667656845158	pulse	0.0	t		54.0	female	white	2.286908077994429	neutral	136	sub-04	1.0	6.0	136_neutral	0.0	158.5059523899372	
23.0	142.254902771645	fix	1.0		1185	54.0	female	white	2.286908077994429	neutral	136	sub-04	1.0	6.0	136_neutral	0.0	158.6641785931306	10.01636526143011
23.0	142.79666911268214	pulse	1.0	t		54.0	female	white	2.286908077994429	neutral	136	sub-04	1.0	6.0	136_neutral	0.0	159.20594493416775	
23.0	143.4966426401752	pulse	1.0	t		54.0	female	white	2.286908077994429	neutral	136	sub-04	1.0	6.0	136_neutral	0.0	159.9059184616608	
23.0	144.1966122435806	pulse	1.0	t		54.0	female	white	2.286908077994429	neutral	136	sub-04	1.0	6.0	136_neutral	0.0	160.6058880650662	
23.0	144.89660448595896	pulse	1.0	t		54.0	female	white	2.286908077994429	neutral	136	sub-04	1.0	6.0	136_neutral	0.0	161.30588030744457	
23.0	145.59658435236452	pulse	1.0	t		54.0	female	white	2.286908077994429	neutral	136	sub-04	1.0	6.0	136_neutral	0.0	162.00586017385012	
23.0	146.2965530502097	pulse	1.0	t		54.0	female	white	2.286908077994429	neutral	136	sub-04	1.0	6.0	136_neutral	0.0	162.7058288716953	
23.0	146.99653231290904	pulse	1.0	t		54.0	female	white	2.286908077994429	neutral	136	sub-04	1.0	6.0	136_neutral	0.0	163.40580813439465	
23.0	147.69652183861035	pulse	1.0	t		54.0	female	white	2.286908077994429	neutral	136	sub-04	1.0	6.0	136_neutral	0.0	164.10579766009596	
23.0	148.39650200686992	pulse	1.0	t		54.0	female	white	2.286908077994429	neutral	136	sub-04	1.0	6.0	136_neutral	0.0	164.80577782835553	
23.0	149.0964767417754	pulse	1.0	t		54.0	female	white	2.286908077994429	neutral	136	sub-04	1.0	6.0	136_neutral	0.0	165.505752563261	
23.0	149.7964650600643	pulse	1.0	t		54.0	female	white	2.286908077994429	neutral	136	sub-04	1.0	6.0	136_neutral	0.0	166.2057408815499	
23.0	150.49644583203008	pulse	1.0	t		54.0	female	white	2.286908077994429	neutral	136	sub-04	1.0	6.0	136_neutral	0.0	166.90572165351568	
23.0	151.19642026508154	pulse	1.0	t		54.0	female	white	2.286908077994429	neutral	136	sub-04	1.0	6.0	136_neutral	0.0	167.60569608656715	
23.0	151.89640103704733	pulse	1.0	t		54.0	female	white	2.286908077994429	neutral	136	sub-04	1.0	6.0	136_neutral	0.0	168.30567685853293	
24.0	152.2712680330751	face	0.0		145	31.0	male	west_asian	1.9538400318344609	neutral	070	sub-04	1.0	6.0	070_neutral	0.0	168.6805438545607	1.2333251128711709
24.0	152.59639780721955	pulse	0.0	t		31.0	male	west_asian	1.9538400318344609	neutral	070	sub-04	1.0	6.0	070_neutral	0.0	169.00567362870515	
24.0	153.29635594021056	pulse	0.0	t		31.0	male	west_asian	1.9538400318344609	neutral	070	sub-04	1.0	6.0	070_neutral	0.0	169.70563176169617	
24.0	153.50459314594627	fix	1.0		444	31.0	male	west_asian	1.9538400318344609	neutral	070	sub-04	1.0	6.0	070_neutral	0.0	169.91386896743188	3.76655927743559
24.0	153.99635421964922	pulse	1.0	t		31.0	male	west_asian	1.9538400318344609	neutral	070	sub-04	1.0	6.0	070_neutral	0.0	170.40563004113483	
24.0	154.69633167122993	pulse	1.0	t		31.0	male	west_asian	1.9538400318344609	neutral	070	sub-04	1.0	6.0	070_neutral	0.0	171.10560749271554	
24.0	155.39632210249147	pulse	1.0	t		31.0	male	west_asian	1.9538400318344609	neutral	070	sub-04	1.0	6.0	070_neutral	0.0	171.80559792397707	
24.0	156.09630347816164	pulse	1.0	t		31.0	male	west_asian	1.9538400318344609	neutral	070	sub-04	1.0	6.0	070_neutral	0.0	172.50557929964725	
24.0	156.79628696680265	pulse	1.0	t		31.0	male	west_asian	1.9538400318344609	neutral	070	sub-04	1.0	6.0	070_neutral	0.0	173.20556278828826	
25.0	157.27115242338186	face	0.0		145	20.0	female	white	3.9502586549940313	smiling	091	sub-04	1.0	6.0	091_smiling	0.0	173.68042824486747	1.233307605396476
25.0	157.49627981288722	pulse	0.0	t		20.0	female	white	3.9502586549940313	smiling	091	sub-04	1.0	6.0	091_smiling	0.0	173.90555563437283	
25.0	158.19625092555725	pulse	0.0	t		20.0	female	white	3.9502586549940313	smiling	091	sub-04	1.0	6.0	091_smiling	0.0	174.60552674704286	
25.0	158.50446002877834	fix	1.0		444	20.0	female	white	3.9502586549940313	smiling	091	sub-04	1.0	6.0	091_smiling	0.0	174.91373585026395	3.766555957054152
25.0	158.89622596231493	pulse	1.0	t		20.0	female	white	3.9502586549940313	smiling	091	sub-04	1.0	6.0	091_smiling	0.0	175.30550178380054	
25.0	159.59620311204344	pulse	1.0	t		20.0	female	white	3.9502586549940313	smiling	091	sub-04	1.0	6.0	091_smiling	0.0	176.00547893352905	
25.0	160.2961769413905	pulse	1.0	t		20.0	female	white	3.9502586549940313	smiling	091	sub-04	1.0	6.0	091_smiling	0.0	176.70545276287612	
25.0	160.99616616523963	pulse	1.0	t		20.0	female	white	3.9502586549940313	smiling	091	sub-04	1.0	6.0	091_smiling	0.0	177.40544198672524	
25.0	161.6961469372036	pulse	1.0	t		20.0	female	white	3.9502586549940313	smiling	091	sub-04	1.0	6.0	091_smiling	0.0	178.1054227586892	
26.0	162.2710159858325	face	0.0		145	20.0	female	white	3.9502586549940313	neutral	091	sub-04	1.0	6.0	091_neutral	0.0	178.6802918073181	1.233307605396476
26.0	162.3962363762439	pulse	0.0	t		20.0	female	white	3.9502586549940313	neutral	091	sub-04	1.0	6.0	091_neutral	0.0	178.8055121977295	
26.0	163.09609459589592	pulse	0.0	t		20.0	female	white	3.9502586549940313	neutral	091	sub-04	1.0	6.0	091_neutral	0.0	179.50537041738153	
26.0	163.50432359122897	fix	1.0		444	20.0	female	white	3.9502586549940313	neutral	091	sub-04	1.0	6.0	091_neutral	0.0	179.91359941271458	3.7665580700249848
26.0	163.79610223277632	pulse	1.0	t		20.0	female	white	3.9502586549940313	neutral	091	sub-04	1.0	6.0	091_neutral	0.0	180.20537805426193	
26.0	164.49609387144847	pulse	1.0	t		20.0	female	white	3.9502586549940313	neutral	091	sub-04	1.0	6.0	091_neutral	0.0	180.90536969293407	
26.0	165.1960209135832	pulse	1.0	t		20.0	female	white	3.9502586549940313	neutral	091	sub-04	1.0	6.0	091_neutral	0.0	181.6052967350688	
26.0	165.89602583378655	pulse	1.0	t		20.0	female	white	3.9502586549940313	neutral	091	sub-04	1.0	6.0	091_neutral	0.0	182.30530165527216	
26.0	166.59601475578165	pulse	1.0	t		20.0	female	white	3.9502586549940313	neutral	091	sub-04	1.0	6.0	091_neutral	0.0	183.00529057726726	
27.0	167.27088166125395	face	0.0		145	31.0	male	west_asian	1.9538400318344609	smiling	070	sub-04	1.0	6.0	070_smiling	0.0	183.68015748273956	1.233300662779584
27.0	167.29611657079295	pulse	0.0	t		31.0	male	west_asian	1.9538400318344609	smiling	070	sub-04	1.0	6.0	070_smiling	0.0	183.70539239227855	
27.0	167.99597871453443	pulse	0.0	t		31.0	male	west_asian	1.9538400318344609	smiling	070	sub-04	1.0	6.0	070_smiling	0.0	184.40525453602004	
27.0	168.50418232403354	fix	1.0		443	31.0	male	west_asian	1.9538400318344609	smiling	070	sub-04	1.0	6.0	070_smiling	0.0	184.91345814551914	3.7665511274044547
27.0	168.69596763653135	pulse	1.0	t		31.0	male	west_asian	1.9538400318344609	smiling	070	sub-04	1.0	6.0	070_smiling	0.0	185.10524345801696	
27.0	169.3959287880516	pulse	1.0	t		31.0	male	west_asian	1.9538400318344609	smiling	070	sub-04	1.0	6.0	070_smiling	0.0	185.8052046095372	
27.0	170.09591408781125	pulse	1.0	t		31.0	male	west_asian	1.9538400318344609	smiling	070	sub-04	1.0	6.0	070_smiling	0.0	186.50518990929686	
27.0	170.79591749875	pulse	1.0	t		31.0	male	west_asian	1.9538400318344609	smiling	070	sub-04	1.0	6.0	070_smiling	0.0	187.2051933202356	
27.0	171.49588015953486	pulse	1.0	t		31.0	male	west_asian	1.9538400318344609	smiling	070	sub-04	1.0	6.0	070_smiling	0.0	187.90515598102047	
27.0	172.19586817597155	pulse	1.0	t		31.0	male	west_asian	1.9538400318344609	smiling	070	sub-04	1.0	6.0	070_smiling	0.0	188.60514399745716	
28.0	172.270733451438	face	0.0		146	26.0	male	white	2.7966573816155993	neutral	117	sub-04	1.0	6.0	117_neutral	0.0	188.6800092729236	1.2333133406045818
28.0	172.89583898678939	pulse	0.0	t		26.0	male	white	2.7966573816155993	neutral	117	sub-04	1.0	6.0	117_neutral	0.0	189.305114808275	
28.0	173.50404679204257	fix	1.0		443	26.0	male	white	2.7966573816155993	neutral	117	sub-04	1.0	6.0	117_neutral	0.0	189.91332261352818	3.7665653144958924
28.0	173.59582579581365	pulse	1.0	t		26.0	male	white	2.7966573816155993	neutral	117	sub-04	1.0	6.0	117_neutral	0.0	190.00510161729926	
28.0	174.29580083257133	pulse	1.0	t		26.0	male	white	2.7966573816155993	neutral	117	sub-04	1.0	6.0	117_neutral	0.0	190.70507665405694	
28.0	174.99579579162673	pulse	1.0	t		26.0	male	white	2.7966573816155993	neutral	117	sub-04	1.0	6.0	117_neutral	0.0	191.40507161311234	
28.0	175.6957708283844	pulse	1.0	t		26.0	male	white	2.7966573816155993	neutral	117	sub-04	1.0	6.0	117_neutral	0.0	192.10504664987002	
28.0	176.39576156149815	pulse	1.0	t		26.0	male	white	2.7966573816155993	neutral	117	sub-04	1.0	6.0	117_neutral	0.0	192.80503738298376	
28.0	177.09571969448916	pulse	1.0	t		26.0	male	white	2.7966573816155993	neutral	117	sub-04	1.0	6.0	117_neutral	0.0	193.50499551597477	
29.0	177.27061210653847	face	0.0		146	24.0	female	east_asian	4.409868682849185	neutral	030	sub-04	1.0	6.0	030_neutral	0.0	193.67988792802407	1.2416414644576435
29.0	177.7957107294551	pulse	0.0	t		24.0	female	east_asian	4.409868682849185	neutral	030	sub-04	1.0	6.0	030_neutral	0.0	194.2049865509407	
29.0	178.495699349598	pulse	0.0	t		24.0	female	east_asian	4.409868682849185	neutral	030	sub-04	1.0	6.0	030_neutral	0.0	194.9049751710836	
29.0	178.5122535709961	fix	1.0		443	24.0	female	east_asian	4.409868682849185	neutral	030	sub-04	1.0	6.0	030_neutral	0.0	194.92152939248172	3.758223003553212
29.0	179.1956813289744	pulse	1.0	t		24.0	female	east_asian	4.409868682849185	neutral	030	sub-04	1.0	6.0	030_neutral	0.0	195.60495715046	
29.0	179.89565636573207	pulse	1.0	t		24.0	female	east_asian	4.409868682849185	neutral	030	sub-04	1.0	6.0	030_neutral	0.0	196.30493218721767	
29.0	180.59562989322512	pulse	1.0	t		24.0	female	east_asian	4.409868682849185	neutral	030	sub-04	1.0	6.0	030_neutral	0.0	197.00490571471073	
29.0	181.29560553369083	pulse	1.0	t		24.0	female	east_asian	4.409868682849185	neutral	030	sub-04	1.0	6.0	030_neutral	0.0	197.70488135517644	
29.0	181.995599587186	pulse	1.0	t		24.0	female	east_asian	4.409868682849185	neutral	030	sub-04	1.0	6.0	030_neutral	0.0	198.40487540867161	
30.0	182.27047657454932	face	0.0		145	21.0	male	east_asian/white	3.501790688420215	smiling	036	sub-04	1.0	6.0	036_smiling	0.0	198.67975239603493	1.2332997572193563
30.0	182.69555349423536	pulse	0.0	t		21.0	male	east_asian/white	3.501790688420215	smiling	036	sub-04	1.0	6.0	036_smiling	0.0	199.10482931572096	
30.0	183.39554543476152	pulse	0.0	t		21.0	male	east_asian/white	3.501790688420215	smiling	036	sub-04	1.0	6.0	036_smiling	0.0	199.80482125624712	
30.0	183.50377633176868	fix	1.0		444	21.0	male	east_asian/white	3.501790688420215	smiling	036	sub-04	1.0	6.0	036_smiling	0.0	199.91305215325428	3.766542675521123
30.0	184.0955470345816	pulse	1.0	t		21.0	male	east_asian/white	3.501790688420215	smiling	036	sub-04	1.0	6.0	036_smiling	0.0	200.50482285606722	
30.0	184.79551180833732	pulse	1.0	t		21.0	male	east_asian/white	3.501790688420215	smiling	036	sub-04	1.0	6.0	036_smiling	0.0	201.20478762982293	
30.0	185.4954983155094	pulse	1.0	t		21.0	male	east_asian/white	3.501790688420215	smiling	036	sub-04	1.0	6.0	036_smiling	0.0	201.904774136995	
30.0	186.19548482268146	pulse	1.0	t		21.0	male	east_asian/white	3.501790688420215	smiling	036	sub-04	1.0	6.0	036_smiling	0.0	202.60476064416707	
30.0	186.89546136870376	pulse	1.0	t		21.0	male	east_asian/white	3.501790688420215	smiling	036	sub-04	1.0	6.0	036_smiling	0.0	203.30473719018937	
31.0	187.2703190072898	face	0.0		145	25.0	female	west_asian	2.6756864305610826	smiling	064	sub-04	1.0	6.0	064_smiling	0.0	203.6795948287754	1.2333302443712455
31.0	187.5954454610528	pulse	0.0	t		25.0	female	west_asian	2.6756864305610826	smiling	064	sub-04	1.0	6.0	064_smiling	0.0	204.0047212825384	
31.0	188.2954150644564	pulse	0.0	t		25.0	female	west_asian	2.6756864305610826	smiling	064	sub-04	1.0	6.0	064_smiling	0.0	204.704690885942	
31.0	188.50364925166105	fix	1.0		444	25.0	female	west_asian	2.6756864305610826	smiling	064	sub-04	1.0	6.0	064_smiling	0.0	204.91292507314665	3.7665553533479397
31.0	188.99539493086195	pulse	1.0	t		25.0	female	west_asian	2.6756864305610826	smiling	064	sub-04	1.0	6.0	064_smiling	0.0	205.40467075234756	
31.0	189.69538596582788	pulse	1.0	t		25.0	female	west_asian	2.6756864305610826	smiling	064	sub-04	1.0	6.0	064_smiling	0.0	206.1046617873135	
31.0	190.39540205459343	pulse	1.0	t		25.0	female	west_asian	2.6756864305610826	smiling	064	sub-04	1.0	6.0	064_smiling	0.0	206.80467787607904	
31.0	191.09534781161165	pulse	1.0	t		25.0	female	west_asian	2.6756864305610826	smiling	064	sub-04	1.0	6.0	064_smiling	0.0	207.50462363309725	
31.0	191.79534065769622	pulse	1.0	t		25.0	female	west_asian	2.6756864305610826	smiling	064	sub-04	1.0	6.0	064_smiling	0.0	208.20461647918182	
32.0	192.27020460500898	face	0.0		145	27.0	female	white	3.504576203740549	neutral	144	sub-04	1.0	6.0	144_neutral	0.0	208.6794804264946	1.2332903997776157
32.0	192.4953220333664	pulse	0.0	t		27.0	female	white	3.504576203740549	neutral	144	sub-04	1.0	6.0	144_neutral	0.0	208.904597854852	
32.0	193.19528710897612	pulse	0.0	t		27.0	female	white	3.504576203740549	neutral	144	sub-04	1.0	6.0	144_neutral	0.0	209.60456293046173	
32.0	193.5034950047866	fix	1.0		444	27.0	female	white	3.504576203740549	neutral	144	sub-04	1.0	6.0	144_neutral	0.0	209.9127708262722	3.7665804071457387
32.0	193.89527633282523	pulse	1.0	t		27.0	female	white	3.504576203740549	neutral	144	sub-04	1.0	6.0	144_neutral	0.0	210.30455215431084	
32.0	194.595243823258	pulse	1.0	t		27.0	female	white	3.504576203740549	neutral	144	sub-04	1.0	6.0	144_neutral	0.0	211.0045196447436	
32.0	195.29522942487165	pulse	1.0	t		27.0	female	white	3.504576203740549	neutral	144	sub-04	1.0	6.0	144_neutral	0.0	211.70450524635726	
32.0	195.9952150264835	pulse	1.0	t		27.0	female	white	3.504576203740549	neutral	144	sub-04	1.0	6.0	144_neutral	0.0	212.4044908479691	
32.0	196.69520213736178	pulse	1.0	t		27.0	female	white	3.504576203740549	neutral	144	sub-04	1.0	6.0	144_neutral	0.0	213.10447795884738	
33.0	197.27007541193234	face	0.0		145	24.0	female	black	3.0955033824114606	smiling	099	sub-04	1.0	6.0	099_smiling	0.0	213.67935123341795	1.2332970405423112
33.0	197.39518260747354	pulse	0.0	t		24.0	female	black	3.0955033824114606	smiling	099	sub-04	1.0	6.0	099_smiling	0.0	213.80445842895915	
33.0	198.09514526825842	pulse	0.0	t		24.0	female	black	3.0955033824114606	smiling	099	sub-04	1.0	6.0	099_smiling	0.0	214.50442108974403	
33.0	198.50337245247465	fix	1.0		444	24.0	female	black	3.0955033824114606	smiling	099	sub-04	1.0	6.0	099_smiling	0.0	214.91264827396026	3.766564107083468
33.0	198.79515290513882	pulse	1.0	t		24.0	female	black	3.0955033824114606	smiling	099	sub-04	1.0	6.0	099_smiling	0.0	215.20442872662443	
33.0	199.49513699748604	pulse	1.0	t		24.0	female	black	3.0955033824114606	smiling	099	sub-04	1.0	6.0	099_smiling	0.0	215.90441281897165	
33.0	200.19510116753736	pulse	1.0	t		24.0	female	black	3.0955033824114606	smiling	099	sub-04	1.0	6.0	099_smiling	0.0	216.60437698902297	
33.0	200.89509673029897	pulse	1.0	t		24.0	female	black	3.0955033824114606	smiling	099	sub-04	1.0	6.0	099_smiling	0.0	217.30437255178458	
33.0	201.59505365587756	pulse	1.0	t		24.0	female	black	3.0955033824114606	smiling	099	sub-04	1.0	6.0	099_smiling	0.0	218.00432947736317	
34.0	202.26993655955812	face	0.0		145	28.0	male	white	3.9076800636689217	smiling	033	sub-04	1.0	6.0	033_smiling	0.0	218.67921238104373	1.2333091146629158
34.0	202.2950564631101	pulse	0.0	t		28.0	male	white	3.9076800636689217	smiling	033	sub-04	1.0	6.0	033_smiling	0.0	218.7043322845957	
34.0	202.99501882204277	pulse	0.0	t		28.0	male	white	3.9076800636689217	smiling	033	sub-04	1.0	6.0	033_smiling	0.0	219.40429464352837	
34.0	203.50324567422103	fix	1.0		443	28.0	male	white	3.9076800636689217	smiling	033	sub-04	1.0	6.0	033_smiling	0.0	219.91252149570664	3.766534827344003
34.0	203.6950155922168	pulse	1.0	t		28.0	male	white	3.9076800636689217	smiling	033	sub-04	1.0	6.0	033_smiling	0.0	220.1042914137024	
34.0	204.39498700673903	pulse	1.0	t		28.0	male	white	3.9076800636689217	smiling	033	sub-04	1.0	6.0	033_smiling	0.0	220.80426282822464	
34.0	205.0949674768508	pulse	1.0	t		28.0	male	white	3.9076800636689217	smiling	033	sub-04	1.0	6.0	033_smiling	0.0	221.5042432983364	
34.0	205.79496122849378	pulse	1.0	t		28.0	male	white	3.9076800636689217	smiling	033	sub-04	1.0	6.0	033_smiling	0.0	222.20423704997938	
34.0	206.4949332467222	pulse	1.0	t		28.0	male	white	3.9076800636689217	smiling	033	sub-04	1.0	6.0	033_smiling	0.0	222.90420906820782	
34.0	207.1949158298048	pulse	1.0	t		28.0	male	white	3.9076800636689217	smiling	033	sub-04	1.0	6.0	033_smiling	0.0	223.60419165129042	
35.0	207.26978050156504	face	0.0		146	40.0	male	black	2.408674890569041	smiling	061	sub-04	1.0	6.0	061_smiling	0.0	223.67905632305065	1.233319377663065
35.0	207.89490807218317	pulse	0.0	t		40.0	male	black	2.408674890569041	smiling	061	sub-04	1.0	6.0	061_smiling	0.0	224.30418389366878	
35.0	208.5030998792281	fix	1.0		443	40.0	male	black	2.408674890569041	smiling	061	sub-04	1.0	6.0	061_smiling	0.0	224.9123757007137	3.7665671256145288
35.0	208.59488763673653	pulse	1.0	t		40.0	male	black	2.408674890569041	smiling	061	sub-04	1.0	6.0	061_smiling	0.0	225.00416345822214	
35.0	209.294849391963	pulse	1.0	t		40.0	male	black	2.408674890569041	smiling	061	sub-04	1.0	6.0	061_smiling	0.0	225.7041252134486	
35.0	209.99484042692893	pulse	1.0	t		40.0	male	black	2.408674890569041	smiling	061	sub-04	1.0	6.0	061_smiling	0.0	226.40411624841454	
35.0	210.6948218025991	pulse	1.0	t		40.0	male	black	2.408674890569041	smiling	061	sub-04	1.0	6.0	061_smiling	0.0	227.10409762408472	
35.0	211.39479895232944	pulse	1.0	t		40.0	male	black	2.408674890569041	smiling	061	sub-04	1.0	6.0	061_smiling	0.0	227.80407477381505	
35.0	212.09477730947037	pulse	1.0	t		40.0	male	black	2.408674890569041	smiling	061	sub-04	1.0	6.0	061_smiling	0.0	228.50405313095598	
36.0	212.26966700484263	face	0.0		146	40.0	male	white	1.868682849184242	neutral	172	sub-04	1.0	6.0	172_neutral	0.0	228.67894282632824	1.2416333144283271
36.0	212.79477740002585	pulse	0.0	t		40.0	male	white	1.868682849184242	neutral	172	sub-04	1.0	6.0	172_neutral	0.0	229.20405322151146	
36.0	213.49474549416482	pulse	0.0	t		40.0	male	white	1.868682849184242	neutral	172	sub-04	1.0	6.0	172_neutral	0.0	229.90402131565043	
36.0	213.51130031927096	fix	1.0		443	40.0	male	white	1.868682849184242	neutral	172	sub-04	1.0	6.0	172_neutral	0.0	229.92057614075657	3.7582332665533613
36.0	214.19473532172015	pulse	1.0	t		40.0	male	white	1.868682849184242	neutral	172	sub-04	1.0	6.0	172_neutral	0.0	230.60401114320575	
36.0	214.89470401956532	pulse	1.0	t		40.0	male	white	1.868682849184242	neutral	172	sub-04	1.0	6.0	172_neutral	0.0	231.30397984105093	
36.0	215.59468781006035	pulse	1.0	t		40.0	male	white	1.868682849184242	neutral	172	sub-04	1.0	6.0	172_neutral	0.0	232.00396363154596	
36.0	216.29466254496583	pulse	1.0	t		40.0	male	white	1.868682849184242	neutral	172	sub-04	1.0	6.0	172_neutral	0.0	232.70393836645144	
36.0	216.9946493539901	pulse	1.0	t		40.0	male	white	1.868682849184242	neutral	172	sub-04	1.0	6.0	172_neutral	0.0	233.4039251754757	
37.0	217.26953358582432	face	0.0		145	31.0	female	east_asian	3.395941106247513	neutral	087	sub-04	1.0	6.0	087_neutral	0.0	233.67880940730993	1.2332903997757967
37.0	217.69463555930815	pulse	0.0	t		31.0	female	east_asian	3.395941106247513	neutral	087	sub-04	1.0	6.0	087_neutral	0.0	234.10391138079376	
37.0	218.39460969050742	pulse	0.0	t		31.0	female	east_asian	3.395941106247513	neutral	087	sub-04	1.0	6.0	087_neutral	0.0	234.80388551199303	
37.0	218.50282398560012	fix	1.0		444	31.0	female	east_asian	3.395941106247513	neutral	087	sub-04	1.0	6.0	087_neutral	0.0	234.91209980708572	3.766573162674831
37.0	219.0945964995317	pulse	1.0	t		31.0	female	east_asian	3.395941106247513	neutral	087	sub-04	1.0	6.0	087_neutral	0.0	235.5038723210173	
37.0	219.79457002702475	pulse	1.0	t		31.0	female	east_asian	3.395941106247513	neutral	087	sub-04	1.0	6.0	087_neutral	0.0	236.20384584851035	
37.0	220.49456498608015	pulse	1.0	t		31.0	female	east_asian	3.395941106247513	neutral	087	sub-04	1.0	6.0	087_neutral	0.0	236.90384080756576	
37.0	221.1945315709545	pulse	1.0	t		31.0	female	east_asian	3.395941106247513	neutral	087	sub-04	1.0	6.0	087_neutral	0.0	237.6038073924401	
37.0	221.8945008725059	pulse	1.0	t		31.0	female	east_asian	3.395941106247513	neutral	087	sub-04	1.0	6.0	087_neutral	0.0	238.3037766939915	
38.0	222.26939714827495	face	0.0		145	31.0	female	east_asian	3.395941106247513	smiling	087	sub-04	1.0	6.0	087_smiling	0.0	238.67867296976056	1.2333088128089003
38.0	222.59450609456326	pulse	0.0	t		31.0	female	east_asian	3.395941106247513	smiling	087	sub-04	1.0	6.0	087_smiling	0.0	239.00378191604887	
38.0	223.29447599982086	pulse	0.0	t		31.0	female	east_asian	3.395941106247513	smiling	087	sub-04	1.0	6.0	087_smiling	0.0	239.70375182130647	
38.0	223.50270596108385	fix	1.0		444	31.0	female	east_asian	3.395941106247513	smiling	087	sub-04	1.0	6.0	087_smiling	0.0	239.91198178256946	3.758352498482054
38.0	223.99447035517005	pulse	1.0	t		31.0	female	east_asian	3.395941106247513	smiling	087	sub-04	1.0	6.0	087_smiling	0.0	240.40374617665566	
38.0	224.69444086413387	pulse	1.0	t		31.0	female	east_asian	3.395941106247513	smiling	087	sub-04	1.0	6.0	087_smiling	0.0	241.10371668561947	
38.0	225.39441107124367	pulse	1.0	t		31.0	female	east_asian	3.395941106247513	smiling	087	sub-04	1.0	6.0	087_smiling	0.0	241.80368689272927	
38.0	226.0944199155365	pulse	1.0	t		31.0	female	east_asian	3.395941106247513	smiling	087	sub-04	1.0	6.0	087_smiling	0.0	242.5036957370221	
38.0	226.7944040078837	pulse	1.0	t		31.0	female	east_asian	3.395941106247513	smiling	087	sub-04	1.0	6.0	087_smiling	0.0	243.20367982936932	
39.0	227.2610584595659	face	0.0		146	20.0	male	black	2.609629924393156	smiling	043	sub-04	1.0	6.0	043_smiling	0.0	243.6703342810515	1.2414992917019845
39.0	227.49437029090586	pulse	0.0	t		20.0	male	black	2.609629924393156	smiling	043	sub-04	1.0	6.0	043_smiling	0.0	243.90364611239147	
39.0	228.19435045916362	pulse	0.0	t		20.0	male	black	2.609629924393156	smiling	043	sub-04	1.0	6.0	043_smiling	0.0	244.60362628064922	
39.0	228.5025577512679	fix	1.0		444	20.0	male	black	2.609629924393156	smiling	043	sub-04	1.0	6.0	043_smiling	0.0	244.9118335727535	3.7499129908774194
39.0	228.89434119227735	pulse	1.0	t		20.0	male	black	2.609629924393156	smiling	043	sub-04	1.0	6.0	043_smiling	0.0	245.30361701376296	
39.0	229.59431773829965	pulse	1.0	t		20.0	male	black	2.609629924393156	smiling	043	sub-04	1.0	6.0	043_smiling	0.0	246.00359355978526	
39.0	230.29429458617597	pulse	1.0	t		20.0	male	black	2.609629924393156	smiling	043	sub-04	1.0	6.0	043_smiling	0.0	246.70357040766157	
39.0	230.99428109334804	pulse	1.0	t		20.0	male	black	2.609629924393156	smiling	043	sub-04	1.0	6.0	043_smiling	0.0	247.40355691483364	
39.0	231.69426397828465	pulse	1.0	t		20.0	male	black	2.609629924393156	smiling	043	sub-04	1.0	6.0	043_smiling	0.0	248.10353979977026	
40.0	232.2524707421453	fix	0.0		720												248.6617465636309	5.9998373012404045
40.0	232.39423901504233	pulse	0.0	t													248.80351483652794	
40.0	233.09420952400615	pulse	0.0	t													249.50348534549175	
40.0	233.79419965341185	pulse	0.0	t													250.20347547489746	
40.0	234.49418676429013	pulse	0.0	t													250.90346258577574	
40.0	235.194159989931	pulse	0.0	t													251.6034358114166	
40.0	235.89414649710125	pulse	0.0	t													252.30342231858685	
40.0	236.59413089130248	pulse	0.0	t													253.0034067127881	
40.0	237.29410472064956	pulse	0.0	t													253.70338054213516	
40.0	237.9940776444364	pulse	0.0	t													254.403353465922	
