trial_nr	onset	event_type	phase	response	nr_frames	face_age	face_sex	face_eth	attractiveness	expression	face_id	sub_id	ses	run	trial_type	catch	rating_type	onset_abs	duration
-1.0	0.0554552559115109	fix	0.0		714													22.667213225105115	5.966284629160327
-1.0	0.7052925108919226	pulse	0.0	t														23.317050480085527	
-1.0	1.4052687549183247	pulse	0.0	t														24.01702672411193	
-1.0	2.105258280556882	pulse	0.0	t														24.717016249750486	
-1.0	2.8052481080494545	pulse	0.0	t														25.41700607724306	
-1.0	3.5052222390932	pulse	0.0	t														26.116980208286805	
-1.0	4.205210859166982	pulse	0.0	t														26.816968828360586	
-1.0	4.905197366256289	pulse	0.0	t														27.516955335449893	
-1.0	5.605192325281678	pulse	0.0	t														28.216950294475282	
0.0	6.021739885071838	face	0.0		144	28.0	male	east_asian	1.5563072025467568	neutral	005	sub-11	1.0	5.0	005_neutral	1.0	attractiveness	28.633497854265443	1.2333005619630057
0.0	6.305175813823553	pulse	0.0	t		28.0	male	east_asian	1.5563072025467568	neutral	005	sub-11	1.0	5.0	005_neutral	1.0	attractiveness	28.916933783017157	
0.0	7.005158698655578	pulse	0.0	t		28.0	male	east_asian	1.5563072025467568	neutral	005	sub-11	1.0	5.0	005_neutral	1.0	attractiveness	29.616916667849182	
0.0	7.255040447034844	fix	1.0		177	28.0	male	east_asian	1.5563072025467568	neutral	005	sub-11	1.0	5.0	005_neutral	1.0	attractiveness	29.86679841622845	1.5083334565906625
0.0	7.705148224294135	pulse	1.0	t		28.0	male	east_asian	1.5563072025467568	neutral	005	sub-11	1.0	5.0	005_neutral	1.0	attractiveness	30.31690619348774	
0.0	8.40513110912616	pulse	1.0	t		28.0	male	east_asian	1.5563072025467568	neutral	005	sub-11	1.0	5.0	005_neutral	1.0	attractiveness	31.016889078319764	
0.0	8.763373903625507	rating	2.0		293	28.0	male	east_asian	1.5563072025467568	neutral	005	sub-11	1.0	5.0	005_neutral	1.0	attractiveness	31.37513187281911	2.4915871555949707
0.0	9.099851457249315	pulse	2.0	t		28.0	male	east_asian	1.5563072025467568	neutral	005	sub-11	1.0	5.0	005_neutral	1.0	attractiveness	31.71160942644292	
0.0	9.799842492161588	pulse	2.0	t		28.0	male	east_asian	1.5563072025467568	neutral	005	sub-11	1.0	5.0	005_neutral	1.0	attractiveness	32.41160046135519	
0.0	9.966510416556957	response	2.0	w		28.0	male	east_asian	1.5563072025467568	neutral	005	sub-11	1.0	5.0	005_neutral	1.0	attractiveness	32.57826838575056	
0.0	10.505080669187919	pulse	2.0	t		28.0	male	east_asian	1.5563072025467568	neutral	005	sub-11	1.0	5.0	005_neutral	1.0	attractiveness	33.11683863838152	
0.0	11.205062648456078	pulse	2.0	t		28.0	male	east_asian	1.5563072025467568	neutral	005	sub-11	1.0	5.0	005_neutral	1.0	attractiveness	33.81682061764968	
0.0	11.254961059220477	fix	3.0		444	28.0	male	east_asian	1.5563072025467568	neutral	005	sub-11	1.0	5.0	005_neutral	1.0	attractiveness	33.86671902841408	3.7582523331120683
0.0	11.905060022319049	pulse	3.0	t		28.0	male	east_asian	1.5563072025467568	neutral	005	sub-11	1.0	5.0	005_neutral	1.0	attractiveness	34.51681799151265	
0.0	12.605056490618153	pulse	3.0	t		28.0	male	east_asian	1.5563072025467568	neutral	005	sub-11	1.0	5.0	005_neutral	1.0	attractiveness	35.21681445981176	
0.0	13.305049034804142	pulse	3.0	t		28.0	male	east_asian	1.5563072025467568	neutral	005	sub-11	1.0	5.0	005_neutral	1.0	attractiveness	35.91680700399775	
0.0	14.005012600929149	pulse	3.0	t		28.0	male	east_asian	1.5563072025467568	neutral	005	sub-11	1.0	5.0	005_neutral	1.0	attractiveness	36.61677057012275	
0.0	14.704997296890724	pulse	3.0	t		28.0	male	east_asian	1.5563072025467568	neutral	005	sub-11	1.0	5.0	005_neutral	1.0	attractiveness	37.31675526608433	
1.0	15.013213392332545	face	0.0		146	37.0	male	white	3.898925586947871	neutral	101	sub-11	1.0	5.0	101_neutral	0.0		37.62497136152615	1.2416402065773582
1.0	15.404984709544806	pulse	0.0	t		37.0	male	white	3.898925586947871	neutral	101	sub-11	1.0	5.0	101_neutral	0.0		38.01674267873841	
1.0	16.104971216635022	pulse	0.0	t		37.0	male	white	3.898925586947871	neutral	101	sub-11	1.0	5.0	101_neutral	0.0		38.716729185828626	
1.0	16.254853598909904	fix	1.0		444	37.0	male	white	3.898925586947871	neutral	101	sub-11	1.0	5.0	101_neutral	0.0		38.86661156810351	3.7582553516585904
1.0	16.80496255340222	pulse	1.0	t		37.0	male	white	3.898925586947871	neutral	101	sub-11	1.0	5.0	101_neutral	0.0		39.416720522595824	
1.0	17.504940306703247	pulse	1.0	t		37.0	male	white	3.898925586947871	neutral	101	sub-11	1.0	5.0	101_neutral	0.0		40.11669827589685	
1.0	18.204925908228688	pulse	1.0	t		37.0	male	white	3.898925586947871	neutral	101	sub-11	1.0	5.0	101_neutral	0.0		40.81668387742229	
1.0	18.90491452830247	pulse	1.0	t		37.0	male	white	3.898925586947871	neutral	101	sub-11	1.0	5.0	101_neutral	0.0		41.516672497496074	
1.0	19.604892281602588	pulse	1.0	t		37.0	male	white	3.898925586947871	neutral	101	sub-11	1.0	5.0	101_neutral	0.0		42.21665025079619	
2.0	20.013108950568494	face	0.0		146	23.0	male	white	2.6275368085953046	neutral	141	sub-11	1.0	5.0	141_neutral	0.0		42.6248669197621	1.2416426214158491
2.0	20.304887240627977	pulse	0.0	t		23.0	male	white	2.6275368085953046	neutral	141	sub-11	1.0	5.0	141_neutral	0.0		42.91664520982158	
2.0	21.00486227723559	pulse	0.0	t		23.0	male	white	2.6275368085953046	neutral	141	sub-11	1.0	5.0	141_neutral	0.0		43.61662024642919	
2.0	21.254751571984343	fix	1.0		444	23.0	male	white	2.6275368085953046	neutral	141	sub-11	1.0	5.0	141_neutral	0.0		43.86650954117795	3.758252936821009
2.0	21.704856330695293	pulse	1.0	t		23.0	male	white	2.6275368085953046	neutral	141	sub-11	1.0	5.0	141_neutral	0.0		44.3166142998889	
2.0	22.404840121092093	pulse	1.0	t		23.0	male	white	2.6275368085953046	neutral	141	sub-11	1.0	5.0	141_neutral	0.0		45.0165980902857	
2.0	23.104828137456025	pulse	1.0	t		23.0	male	white	2.6275368085953046	neutral	141	sub-11	1.0	5.0	141_neutral	0.0		45.71658610664963	
2.0	23.804837283657434	pulse	1.0	t		23.0	male	white	2.6275368085953046	neutral	141	sub-11	1.0	5.0	141_neutral	0.0		46.41659525285104	
2.0	24.504794510830834	pulse	1.0	t		23.0	male	white	2.6275368085953046	neutral	141	sub-11	1.0	5.0	141_neutral	0.0		47.11655248002444	
3.0	25.013004508805352	face	0.0		146	54.0	female	white	2.286908077994429	neutral	136	sub-11	1.0	5.0	136_neutral	0.0		47.62476247799896	1.2416616382688517
3.0	25.20478977171024	pulse	0.0	t		54.0	female	white	2.286908077994429	neutral	136	sub-11	1.0	5.0	136_neutral	0.0		47.81654774090384	
3.0	25.90477537323659	pulse	0.0	t		54.0	female	white	2.286908077994429	neutral	136	sub-11	1.0	5.0	136_neutral	0.0		48.51653334243019	
3.0	26.254666147074204	fix	1.0		444	54.0	female	white	2.286908077994429	neutral	136	sub-11	1.0	5.0	136_neutral	0.0		48.86642411626781	3.7582342218229314
3.0	26.604755239520273	pulse	1.0	t		54.0	female	white	2.286908077994429	neutral	136	sub-11	1.0	5.0	136_neutral	0.0		49.21651320871388	
3.0	27.304732690966375	pulse	1.0	t		54.0	female	white	2.286908077994429	neutral	136	sub-11	1.0	5.0	136_neutral	0.0		49.91649066015998	
3.0	28.004719499911516	pulse	1.0	t		54.0	female	white	2.286908077994429	neutral	136	sub-11	1.0	5.0	136_neutral	0.0		50.61647746910512	
3.0	28.70472472199981	pulse	1.0	t		54.0	female	white	2.286908077994429	neutral	136	sub-11	1.0	5.0	136_neutral	0.0		51.316482691193414	
3.0	29.404695230784455	pulse	1.0	t		54.0	female	white	2.286908077994429	neutral	136	sub-11	1.0	5.0	136_neutral	0.0		52.01645319997806	
4.0	30.012900368897135	face	0.0		146	26.0	female	white	4.854755272582572	smiling	027	sub-11	1.0	5.0	027_smiling	0.0		52.62465833809074	1.2416426214158491
4.0	30.104687171261503	pulse	0.0	t		26.0	female	white	4.854755272582572	smiling	027	sub-11	1.0	5.0	027_smiling	0.0		52.71644514045511	
4.0	30.804666433836246	pulse	0.0	t		26.0	female	white	4.854755272582572	smiling	027	sub-11	1.0	5.0	027_smiling	0.0		53.41642440302985	
4.0	31.254542990312984	fix	1.0		444	26.0	female	white	4.854755272582572	smiling	027	sub-11	1.0	5.0	027_smiling	0.0		53.86630095950659	3.7665838276452632
4.0	31.504652639071537	pulse	1.0	t		26.0	female	white	4.854755272582572	smiling	027	sub-11	1.0	5.0	027_smiling	0.0		54.11641060826514	
4.0	32.204632807211055	pulse	1.0	t		26.0	female	white	4.854755272582572	smiling	027	sub-11	1.0	5.0	027_smiling	0.0		54.81639077640466	
4.0	32.90464557566884	pulse	1.0	t		26.0	female	white	4.854755272582572	smiling	027	sub-11	1.0	5.0	027_smiling	0.0		55.51640354486244	
4.0	33.60460129356852	pulse	1.0	t		26.0	female	white	4.854755272582572	smiling	027	sub-11	1.0	5.0	027_smiling	0.0		56.216359262762126	
4.0	34.30459051735215	pulse	1.0	t		26.0	female	white	4.854755272582572	smiling	027	sub-11	1.0	5.0	027_smiling	0.0		56.91634848654576	
5.0	35.02112681795825	face	0.0		146	27.0	female	white	4.181058495821727	neutral	039	sub-11	1.0	5.0	039_neutral	0.0		57.63288478715185	1.2333114287366698
5.0	35.00744041914368	pulse	0.0	t		27.0	female	white	4.181058495821727	neutral	039	sub-11	1.0	5.0	039_neutral	0.0		57.61919838833728	
5.0	35.70456805935464	pulse	0.0	t		27.0	female	white	4.181058495821727	neutral	039	sub-11	1.0	5.0	039_neutral	0.0		58.31632602854825	
5.0	36.25443824669492	fix	1.0		443	27.0	female	white	4.181058495821727	neutral	039	sub-11	1.0	5.0	039_neutral	0.0		58.86619621588852	3.758255049804575
5.0	36.404555472008724	pulse	1.0	t		27.0	female	white	4.181058495821727	neutral	039	sub-11	1.0	5.0	039_neutral	0.0		59.01631344120233	
5.0	37.10453503643839	pulse	1.0	t		27.0	female	white	4.181058495821727	neutral	039	sub-11	1.0	5.0	039_neutral	0.0		59.716293005632	
5.0	37.80452093981876	pulse	1.0	t		27.0	female	white	4.181058495821727	neutral	039	sub-11	1.0	5.0	039_neutral	0.0		60.41627890901236	
5.0	38.50450533392541	pulse	1.0	t		27.0	female	white	4.181058495821727	neutral	039	sub-11	1.0	5.0	039_neutral	0.0		61.11626330311901	
5.0	39.2044927465804	pulse	1.0	t		27.0	female	white	4.181058495821727	neutral	039	sub-11	1.0	5.0	039_neutral	0.0		61.816250715774004	
5.0	39.90448830931473	pulse	1.0	t		27.0	female	white	4.181058495821727	neutral	039	sub-11	1.0	5.0	039_neutral	0.0		62.51624627850833	
6.0	40.01269329649949	face	0.0		147	40.0	male	black	2.408674890569041	neutral	061	sub-11	1.0	5.0	061_neutral	0.0		62.6244512656931	1.241644130689565
6.0	40.6044678737444	pulse	0.0	t		40.0	male	black	2.408674890569041	neutral	061	sub-11	1.0	5.0	061_neutral	0.0		63.216225842938	
6.0	41.25433742718906	fix	1.0		444	40.0	male	black	2.408674890569041	neutral	061	sub-11	1.0	5.0	061_neutral	0.0		63.86609539638266	3.7665877517583795
6.0	41.304447438173156	pulse	1.0	t		40.0	male	black	2.408674890569041	neutral	061	sub-11	1.0	5.0	061_neutral	0.0		63.91620540736676	
6.0	42.00445567880979	pulse	1.0	t		40.0	male	black	2.408674890569041	neutral	061	sub-11	1.0	5.0	061_neutral	0.0		64.6162136480034	
6.0	42.70440747259727	pulse	1.0	t		40.0	male	black	2.408674890569041	neutral	061	sub-11	1.0	5.0	061_neutral	0.0		65.31616544179087	
6.0	43.40440212976682	pulse	1.0	t		40.0	male	black	2.408674890569041	neutral	061	sub-11	1.0	5.0	061_neutral	0.0		66.01616009896043	
6.0	44.10438893871196	pulse	1.0	t		40.0	male	black	2.408674890569041	neutral	061	sub-11	1.0	5.0	061_neutral	0.0		66.71614690790557	
6.0	44.804373332818614	pulse	1.0	t		40.0	male	black	2.408674890569041	neutral	061	sub-11	1.0	5.0	061_neutral	0.0		67.41613130201222	
7.0	45.02092517894744	face	0.0		145	25.0	female	black	3.858336649423	smiling	126	sub-11	1.0	5.0	126_smiling	0.0		67.63268314814104	1.2333081083334037
7.0	45.50436497143983	pulse	0.0	t		25.0	female	black	3.858336649423	smiling	126	sub-11	1.0	5.0	126_smiling	0.0		68.11612294063343	
7.0	46.204343328450705	pulse	0.0	t		25.0	female	black	3.858336649423	smiling	126	sub-11	1.0	5.0	126_smiling	0.0		68.81610129764431	
7.0	46.25423328728084	fix	1.0		445	25.0	female	black	3.858336649423	smiling	126	sub-11	1.0	5.0	126_smiling	0.0		68.86599125647444	3.7583785084207193
7.0	46.90433798562026	pulse	1.0	t		25.0	female	black	3.858336649423	smiling	126	sub-11	1.0	5.0	126_smiling	0.0		69.51609595481386	
7.0	47.60431936117857	pulse	1.0	t		25.0	female	black	3.858336649423	smiling	126	sub-11	1.0	5.0	126_smiling	0.0		70.21607733037217	
7.0	48.304331827782335	pulse	1.0	t		25.0	female	black	3.858336649423	smiling	126	sub-11	1.0	5.0	126_smiling	0.0		70.91608979697594	
7.0	49.004290262375434	pulse	1.0	t		25.0	female	black	3.858336649423	smiling	126	sub-11	1.0	5.0	126_smiling	0.0		71.61604823156904	
7.0	49.704272845353444	pulse	1.0	t		25.0	female	black	3.858336649423	smiling	126	sub-11	1.0	5.0	126_smiling	0.0		72.31603081454705	
8.0	50.01261179570156	face	0.0		146	40.0	female	west_asian	1.5777954635893354	smiling	038	sub-11	1.0	5.0	038_smiling	0.0		72.62436976489516	1.2415194646546297
8.0	50.404261465427226	pulse	0.0	t		40.0	female	west_asian	1.5777954635893354	smiling	038	sub-11	1.0	5.0	038_smiling	0.0		73.01601943462083	
8.0	51.10423770945363	pulse	0.0	t		40.0	female	west_asian	1.5777954635893354	smiling	038	sub-11	1.0	5.0	038_smiling	0.0		73.71599567864723	
8.0	51.25413126035619	fix	1.0		445	40.0	female	west_asian	1.5777954635893354	smiling	038	sub-11	1.0	5.0	038_smiling	0.0		73.8658892295498	3.766590770305811
8.0	51.80424172412222	pulse	1.0	t		40.0	female	west_asian	1.5777954635893354	smiling	038	sub-11	1.0	5.0	038_smiling	0.0		74.41599969331583	
8.0	52.50421676072983	pulse	1.0	t		40.0	female	west_asian	1.5777954635893354	smiling	038	sub-11	1.0	5.0	038_smiling	0.0		75.11597472992344	
8.0	53.20419572144965	pulse	1.0	t		40.0	female	west_asian	1.5777954635893354	smiling	038	sub-11	1.0	5.0	038_smiling	0.0		75.81595369064325	
8.0	53.90418675636192	pulse	1.0	t		40.0	female	west_asian	1.5777954635893354	smiling	038	sub-11	1.0	5.0	038_smiling	0.0		76.51594472555553	
8.0	54.60417628200048	pulse	1.0	t		40.0	female	west_asian	1.5777954635893354	smiling	038	sub-11	1.0	5.0	038_smiling	0.0		77.21593425119408	
9.0	55.020722030662	face	0.0		145	28.0	male	white	3.9076800636689217	neutral	033	sub-11	1.0	5.0	033_neutral	0.0		77.6324799998556	1.2333026749465716
9.0	55.30416339279964	pulse	0.0	t		28.0	male	white	3.9076800636689217	neutral	033	sub-11	1.0	5.0	033_neutral	0.0		77.91592136199324	
9.0	56.00413752384338	pulse	0.0	t		28.0	male	white	3.9076800636689217	neutral	033	sub-11	1.0	5.0	033_neutral	0.0		78.61589549303699	
9.0	56.25402470560857	fix	1.0		444	28.0	male	white	3.9076800636689217	neutral	033	sub-11	1.0	5.0	033_neutral	0.0		78.86578267480218	3.7665892610320952
9.0	56.70414425520539	pulse	1.0	t		28.0	male	white	3.9076800636689217	neutral	033	sub-11	1.0	5.0	033_neutral	0.0		79.315902224399	
9.0	57.4041141602811	pulse	1.0	t		28.0	male	white	3.9076800636689217	neutral	033	sub-11	1.0	5.0	033_neutral	0.0		80.0158721294747	
9.0	58.10409523398448	pulse	1.0	t		28.0	male	white	3.9076800636689217	neutral	033	sub-11	1.0	5.0	033_neutral	0.0		80.71585320317809	
9.0	58.80409804123428	pulse	1.0	t		28.0	male	white	3.9076800636689217	neutral	033	sub-11	1.0	5.0	033_neutral	0.0		81.41585601042789	
9.0	59.5040643240518	pulse	1.0	t		28.0	male	white	3.9076800636689217	neutral	033	sub-11	1.0	5.0	033_neutral	0.0		82.1158222932454	
10.0	60.02061396664067	face	0.0		145	36.0	female	white	2.7548746518105847	neutral	011	sub-11	1.0	5.0	011_neutral	1.0	trustworthiness	82.63237193583427	1.233309919462954
10.0	60.204529572866704	pulse	0.0	t		36.0	female	white	2.7548746518105847	neutral	011	sub-11	1.0	5.0	011_neutral	1.0	trustworthiness	82.81628754206031	
10.0	60.9040509216984	pulse	0.0	t		36.0	female	white	2.7548746518105847	neutral	011	sub-11	1.0	5.0	011_neutral	1.0	trustworthiness	83.515808890892	
10.0	61.25392388610362	fix	1.0		177	36.0	female	white	2.7548746518105847	neutral	011	sub-11	1.0	5.0	011_neutral	1.0	trustworthiness	83.86568185529723	1.4999732858486823
10.0	61.60403108983792	pulse	1.0	t		36.0	female	white	2.7548746518105847	neutral	011	sub-11	1.0	5.0	011_neutral	1.0	trustworthiness	84.21578905903152	
10.0	62.304021219185415	pulse	1.0	t		36.0	female	white	2.7548746518105847	neutral	011	sub-11	1.0	5.0	011_neutral	1.0	trustworthiness	84.91577918837902	
10.0	62.7538971719523	rating	2.0		294	36.0	female	white	2.7548746518105847	neutral	011	sub-11	1.0	5.0	011_neutral	1.0	trustworthiness	85.36565514114591	2.49994430778861
10.0	62.99874760440525	pulse	2.0	t		36.0	female	white	2.7548746518105847	neutral	011	sub-11	1.0	5.0	011_neutral	1.0	trustworthiness	85.61050557359886	
10.0	63.69870785012699	pulse	2.0	t		36.0	female	white	2.7548746518105847	neutral	011	sub-11	1.0	5.0	011_neutral	1.0	trustworthiness	86.3104658193206	
10.0	64.39872635382653	pulse	2.0	t		36.0	female	white	2.7548746518105847	neutral	011	sub-11	1.0	5.0	011_neutral	1.0	trustworthiness	87.01048432302014	
10.0	64.5872920333577	response	2.0	b		36.0	female	white	2.7548746518105847	neutral	011	sub-11	1.0	5.0	011_neutral	1.0	trustworthiness	87.1990500025513	
10.0	65.10394883440313	pulse	2.0	t		36.0	female	white	2.7548746518105847	neutral	011	sub-11	1.0	5.0	011_neutral	1.0	trustworthiness	87.71570680359673	
10.0	65.25384147974091	fix	3.0		444	36.0	female	white	2.7548746518105847	neutral	011	sub-11	1.0	5.0	011_neutral	1.0	trustworthiness	87.86559944893452	3.7665865443386792
10.0	65.80394258600882	pulse	3.0	t		36.0	female	white	2.7548746518105847	neutral	011	sub-11	1.0	5.0	011_neutral	1.0	trustworthiness	88.41570055520242	
10.0	66.50392215043757	pulse	3.0	t		36.0	female	white	2.7548746518105847	neutral	011	sub-11	1.0	5.0	011_neutral	1.0	trustworthiness	89.11568011963118	
10.0	67.20391046865734	pulse	3.0	t		36.0	female	white	2.7548746518105847	neutral	011	sub-11	1.0	5.0	011_neutral	1.0	trustworthiness	89.81566843785095	
10.0	67.90389788131142	pulse	3.0	t		36.0	female	white	2.7548746518105847	neutral	011	sub-11	1.0	5.0	011_neutral	1.0	trustworthiness	90.51565585050503	
10.0	68.6038813698533	pulse	3.0	t		36.0	female	white	2.7548746518105847	neutral	011	sub-11	1.0	5.0	011_neutral	1.0	trustworthiness	91.2156393390469	
11.0	69.02042802407959	face	0.0		145	21.0	male	black	2.969757262236371	neutral	137	sub-11	1.0	5.0	137_neutral	0.0		91.6321859932732	1.2333111268817447
11.0	69.30387300847542	pulse	0.0	t		21.0	male	black	2.969757262236371	neutral	137	sub-11	1.0	5.0	137_neutral	0.0		91.91563097766903	
11.0	70.0038477432281	pulse	0.0	t		21.0	male	black	2.969757262236371	neutral	137	sub-11	1.0	5.0	137_neutral	0.0		92.61560571242171	
11.0	70.25373915096134	fix	1.0		444	21.0	male	black	2.969757262236371	neutral	137	sub-11	1.0	5.0	137_neutral	0.0		92.86549712015494	3.7665865443386792
11.0	70.7038402874141	pulse	1.0	t		21.0	male	black	2.969757262236371	neutral	137	sub-11	1.0	5.0	137_neutral	0.0		93.3155982566077	
11.0	71.40381743700527	pulse	1.0	t		21.0	male	black	2.969757262236371	neutral	137	sub-11	1.0	5.0	137_neutral	0.0		94.01557540619888	
11.0	72.10380454780534	pulse	1.0	t		21.0	male	black	2.969757262236371	neutral	137	sub-11	1.0	5.0	137_neutral	0.0		94.71556251699894	
11.0	72.8037967901364	pulse	1.0	t		21.0	male	black	2.969757262236371	neutral	137	sub-11	1.0	5.0	137_neutral	0.0		95.41555475933	
11.0	73.5037829953717	pulse	1.0	t		21.0	male	black	2.969757262236371	neutral	137	sub-11	1.0	5.0	137_neutral	0.0		96.1155409645653	
12.0	74.02032569530002	face	0.0		145	34.0	male	white	2.651014723438122	neutral	121	sub-11	1.0	5.0	121_neutral	0.0		96.63208366449362	1.2333093157521944
12.0	74.20377101173563	pulse	0.0	t		34.0	male	white	2.651014723438122	neutral	121	sub-11	1.0	5.0	121_neutral	0.0		96.81552898092923	
12.0	74.90374967060143	pulse	0.0	t		34.0	male	white	2.651014723438122	neutral	121	sub-11	1.0	5.0	121_neutral	0.0		97.51550763979503	
12.0	75.25363501105221	fix	1.0		444	34.0	male	white	2.651014723438122	neutral	121	sub-11	1.0	5.0	121_neutral	0.0		97.86539298024582	3.7665859406297386
12.0	75.60374221478742	pulse	1.0	t		34.0	male	white	2.651014723438122	neutral	121	sub-11	1.0	5.0	121_neutral	0.0		98.21550018398102	
12.0	76.30372268478186	pulse	1.0	t		34.0	male	white	2.651014723438122	neutral	121	sub-11	1.0	5.0	121_neutral	0.0		98.91548065397546	
12.0	77.00370436219418	pulse	1.0	t		34.0	male	white	2.651014723438122	neutral	121	sub-11	1.0	5.0	121_neutral	0.0		99.61546233138779	
12.0	77.70371803621765	pulse	1.0	t		34.0	male	white	2.651014723438122	neutral	121	sub-11	1.0	5.0	121_neutral	0.0		100.31547600541126	
12.0	78.40367798008447	pulse	1.0	t		34.0	male	white	2.651014723438122	neutral	121	sub-11	1.0	5.0	121_neutral	0.0		101.01543594927807	
13.0	79.02022095168195	face	0.0		145	19.0	female	white	4.298846000795861	smiling	100	sub-11	1.0	5.0	100_smiling	1.0	trustworthiness	101.63197892087555	1.2333072027686285
13.0	79.10376047700356	pulse	0.0	t		19.0	female	white	4.298846000795861	smiling	100	sub-11	1.0	5.0	100_smiling	1.0	trustworthiness	101.71551844619717	
13.0	79.80365069240997	pulse	0.0	t		19.0	female	white	4.298846000795861	smiling	100	sub-11	1.0	5.0	100_smiling	1.0	trustworthiness	102.41540866160358	
13.0	80.25352815445058	fix	1.0		177	19.0	female	white	4.298846000795861	smiling	100	sub-11	1.0	5.0	100_smiling	1.0	trustworthiness	102.86528612364418	1.499974493269292
13.0	80.50364021804762	pulse	1.0	t		19.0	female	white	4.298846000795861	smiling	100	sub-11	1.0	5.0	100_smiling	1.0	trustworthiness	103.11539818724123	
13.0	81.20361616022001	pulse	1.0	t		19.0	female	white	4.298846000795861	smiling	100	sub-11	1.0	5.0	100_smiling	1.0	trustworthiness	103.81537412941361	
13.0	81.75350264771987	rating	2.0		294	19.0	female	white	4.298846000795861	smiling	100	sub-11	1.0	5.0	100_smiling	1.0	trustworthiness	104.36526061691347	2.4999446096426254
13.0	81.89834526213235	pulse	2.0	t		19.0	female	white	4.298846000795861	smiling	100	sub-11	1.0	5.0	100_smiling	1.0	trustworthiness	104.51010323132596	
13.0	82.59835350276899	pulse	2.0	t		19.0	female	white	4.298846000795861	smiling	100	sub-11	1.0	5.0	100_smiling	1.0	trustworthiness	105.21011147196259	
13.0	83.29830529655555	pulse	2.0	t		19.0	female	white	4.298846000795861	smiling	100	sub-11	1.0	5.0	100_smiling	1.0	trustworthiness	105.91006326574916	
13.0	83.57023361449137	response	2.0	b		19.0	female	white	4.298846000795861	smiling	100	sub-11	1.0	5.0	100_smiling	1.0	trustworthiness	106.18199158368498	
13.0	84.00354256801802	pulse	2.0	t		19.0	female	white	4.298846000795861	smiling	100	sub-11	1.0	5.0	100_smiling	1.0	trustworthiness	106.61530053721162	
13.0	84.2534472573625	fix	3.0		444	19.0	female	white	4.298846000795861	smiling	100	sub-11	1.0	5.0	100_smiling	1.0	trustworthiness	106.8652052265561	3.766574470147134
13.0	84.70355382720209	pulse	3.0	t		19.0	female	white	4.298846000795861	smiling	100	sub-11	1.0	5.0	100_smiling	1.0	trustworthiness	107.31531179639569	
13.0	85.40353007122849	pulse	3.0	t		19.0	female	white	4.298846000795861	smiling	100	sub-11	1.0	5.0	100_smiling	1.0	trustworthiness	108.01528804042209	
13.0	86.10351476719006	pulse	3.0	t		19.0	female	white	4.298846000795861	smiling	100	sub-11	1.0	5.0	100_smiling	1.0	trustworthiness	108.71527273638367	
13.0	86.8035344783093	pulse	3.0	t		19.0	female	white	4.298846000795861	smiling	100	sub-11	1.0	5.0	100_smiling	1.0	trustworthiness	109.4152924475029	
13.0	87.50348808322542	pulse	3.0	t		19.0	female	white	4.298846000795861	smiling	100	sub-11	1.0	5.0	100_smiling	1.0	trustworthiness	110.11524605241902	
14.0	88.02002172750963	face	0.0		145	32.0	male	white	2.389176283326701	neutral	092	sub-11	1.0	5.0	092_neutral	0.0		110.63177969670323	1.233323502928215
14.0	88.20348153297618	pulse	0.0	t		32.0	male	white	2.389176283326701	neutral	092	sub-11	1.0	5.0	092_neutral	0.0		110.81523950216979	
14.0	88.90346592708192	pulse	0.0	t		32.0	male	white	2.389176283326701	neutral	092	sub-11	1.0	5.0	092_neutral	0.0		111.51522389627553	
14.0	89.25334523043784	fix	1.0		444	32.0	male	white	2.389176283326701	neutral	092	sub-11	1.0	5.0	092_neutral	0.0		111.86510319963145	3.766586242483754
14.0	89.60345273602707	pulse	1.0	t		32.0	male	white	2.389176283326701	neutral	092	sub-11	1.0	5.0	092_neutral	0.0		112.21521070522067	
14.0	90.30343079118302	pulse	1.0	t		32.0	male	white	2.389176283326701	neutral	092	sub-11	1.0	5.0	092_neutral	0.0		112.91518876037662	
14.0	91.00342303351408	pulse	1.0	t		32.0	male	white	2.389176283326701	neutral	092	sub-11	1.0	5.0	092_neutral	0.0		113.61518100270769	
14.0	91.7034032016536	pulse	1.0	t		32.0	male	white	2.389176283326701	neutral	092	sub-11	1.0	5.0	092_neutral	0.0		114.3151611708472	
14.0	92.40339363285602	pulse	1.0	t		32.0	male	white	2.389176283326701	neutral	092	sub-11	1.0	5.0	092_neutral	0.0		115.01515160204963	
15.0	93.0199314729216	face	0.0		145	26.0	female	white	4.854755272582572	neutral	027	sub-11	1.0	5.0	027_neutral	0.0		115.6316894421152	1.2333117305915948
15.0	93.10338376220352	pulse	0.0	t		26.0	female	white	4.854755272582572	neutral	027	sub-11	1.0	5.0	027_neutral	0.0		115.71514173139713	
15.0	93.80334612090974	pulse	0.0	t		26.0	female	white	4.854755272582572	neutral	027	sub-11	1.0	5.0	027_neutral	0.0		116.41510409010334	
15.0	94.2532432035132	fix	1.0		444	26.0	female	white	4.854755272582572	neutral	027	sub-11	1.0	5.0	027_neutral	0.0		116.8650011727068	3.7665792998232064
15.0	94.5033510411431	pulse	1.0	t		26.0	female	white	4.854755272582572	neutral	027	sub-11	1.0	5.0	027_neutral	0.0		117.11510901033671	
15.0	95.20332577589579	pulse	1.0	t		26.0	female	white	4.854755272582572	neutral	027	sub-11	1.0	5.0	027_neutral	0.0		117.8150837450894	
15.0	95.90332707387097	pulse	1.0	t		26.0	female	white	4.854755272582572	neutral	027	sub-11	1.0	5.0	027_neutral	0.0		118.51508504306457	
15.0	96.6033036197523	pulse	1.0	t		26.0	female	white	4.854755272582572	neutral	027	sub-11	1.0	5.0	027_neutral	0.0		119.2150615889459	
15.0	97.30328408974674	pulse	1.0	t		26.0	female	white	4.854755272582572	neutral	027	sub-11	1.0	5.0	027_neutral	0.0		119.91504205894034	
16.0	98.0198225033364	face	0.0		146	27.0	female	white	3.504576203740549	smiling	144	sub-11	1.0	5.0	144_smiling	0.0		120.63158047253	1.2333126361554605
16.0	98.00618923096772	pulse	0.0	t		27.0	female	white	3.504576203740549	smiling	144	sub-11	1.0	5.0	144_smiling	0.0		120.61794720016132	
16.0	98.70326042432953	pulse	0.0	t		27.0	female	white	3.504576203740549	smiling	144	sub-11	1.0	5.0	144_smiling	0.0		121.31501839352313	
16.0	99.25313513949186	fix	1.0		443	27.0	female	white	3.504576203740549	smiling	144	sub-11	1.0	5.0	144_smiling	0.0		121.86489310868546	3.766591675870586
16.0	99.40324874254839	pulse	1.0	t		27.0	female	white	3.504576203740549	smiling	144	sub-11	1.0	5.0	144_smiling	0.0		122.01500671174199	
16.0	100.10323555149353	pulse	1.0	t		27.0	female	white	3.504576203740549	smiling	144	sub-11	1.0	5.0	144_smiling	0.0		122.71499352068713	
16.0	100.80321813447154	pulse	1.0	t		27.0	female	white	3.504576203740549	smiling	144	sub-11	1.0	5.0	144_smiling	0.0		123.41497610366514	
16.0	101.50319679333643	pulse	1.0	t		27.0	female	white	3.504576203740549	smiling	144	sub-11	1.0	5.0	144_smiling	0.0		124.11495476253003	
16.0	102.20318873381257	pulse	1.0	t		27.0	female	white	3.504576203740549	smiling	144	sub-11	1.0	5.0	144_smiling	0.0		124.81494670300617	
16.0	102.90317282606429	pulse	1.0	t		27.0	female	white	3.504576203740549	smiling	144	sub-11	1.0	5.0	144_smiling	0.0		125.5149307952579	
17.0	103.01972681536245	face	0.0		146	30.0	female	black	2.7345801830481498	neutral	062	sub-11	1.0	5.0	062_neutral	1.0	dominance	125.63148478455605	1.2333059953498378
17.0	103.603161747993	pulse	0.0	t		30.0	female	black	2.7345801830481498	neutral	062	sub-11	1.0	5.0	062_neutral	1.0	dominance	126.2149197171866	
17.0	104.25303281071228	fix	1.0		176	30.0	female	black	2.7345801830481498	neutral	062	sub-11	1.0	5.0	062_neutral	1.0	dominance	126.86479077990589	1.499969361737385
17.0	104.30314402911608	pulse	1.0	t		30.0	female	black	2.7345801830481498	neutral	062	sub-11	1.0	5.0	062_neutral	1.0	dominance	126.91490199830969	
17.0	105.00314110112413	pulse	1.0	t		30.0	female	black	2.7345801830481498	neutral	062	sub-11	1.0	5.0	062_neutral	1.0	dominance	127.61489907031773	
17.0	105.70311130805476	pulse	1.0	t		30.0	female	black	2.7345801830481498	neutral	062	sub-11	1.0	5.0	062_neutral	1.0	dominance	128.31486927724836	
17.0	105.75300217244967	rating	2.0		295	30.0	female	black	2.7345801830481498	neutral	062	sub-11	1.0	5.0	062_neutral	1.0	dominance	128.36476014164327	2.499946118916341
17.0	106.39784765448258	pulse	2.0	t		30.0	female	black	2.7345801830481498	neutral	062	sub-11	1.0	5.0	062_neutral	1.0	dominance	129.00960562367618	
17.0	107.09783204858923	pulse	2.0	t		30.0	female	black	2.7345801830481498	neutral	062	sub-11	1.0	5.0	062_neutral	1.0	dominance	129.70959001778283	
17.0	107.69780560610798	response	2.0	y		30.0	female	black	2.7345801830481498	neutral	062	sub-11	1.0	5.0	062_neutral	1.0	dominance	130.30956357530158	
17.0	107.79780165181	pulse	2.0	t		30.0	female	black	2.7345801830481498	neutral	062	sub-11	1.0	5.0	062_neutral	1.0	dominance	130.4095596210036	
17.0	108.25294829136601	fix	3.0		444	30.0	female	black	2.7345801830481498	neutral	062	sub-11	1.0	5.0	062_neutral	1.0	dominance	130.86470626055961	3.7665847332100384
17.0	108.50305975125411	pulse	3.0	t		30.0	female	black	2.7345801830481498	neutral	062	sub-11	1.0	5.0	062_neutral	1.0	dominance	131.11481772044772	
17.0	109.20304022124765	pulse	3.0	t		30.0	female	black	2.7345801830481498	neutral	062	sub-11	1.0	5.0	062_neutral	1.0	dominance	131.81479819044125	
17.0	109.9030222005158	pulse	3.0	t		30.0	female	black	2.7345801830481498	neutral	062	sub-11	1.0	5.0	062_neutral	1.0	dominance	132.5147801697094	
17.0	110.6030123298633	pulse	3.0	t		30.0	female	black	2.7345801830481498	neutral	062	sub-11	1.0	5.0	062_neutral	1.0	dominance	133.2147702990569	
17.0	111.30299159243805	pulse	3.0	t		30.0	female	black	2.7345801830481498	neutral	062	sub-11	1.0	5.0	062_neutral	1.0	dominance	133.91474956163165	
18.0	112.01953302457605	face	0.0		146	28.0	female	white	5.676880222841227	smiling	124	sub-11	1.0	5.0	124_smiling	0.0		134.63129099376965	1.2333117305915948
18.0	112.006006608809	pulse	0.0	t		28.0	female	white	5.676880222841227	smiling	124	sub-11	1.0	5.0	124_smiling	0.0		134.6177645780026	
18.0	112.70297336040767	pulse	0.0	t		28.0	female	white	5.676880222841227	smiling	124	sub-11	1.0	5.0	124_smiling	0.0		135.31473132960127	
18.0	113.25284475516764	fix	1.0		443	28.0	female	white	5.676880222841227	smiling	124	sub-11	1.0	5.0	124_smiling	0.0		135.86460272436125	3.7665874499034544
18.0	113.40295715080447	pulse	1.0	t		28.0	female	white	5.676880222841227	smiling	124	sub-11	1.0	5.0	124_smiling	0.0		136.01471511999807	
18.0	114.10294365789468	pulse	1.0	t		28.0	female	white	5.676880222841227	smiling	124	sub-11	1.0	5.0	124_smiling	0.0		136.7147016270883	
18.0	114.80292593901777	pulse	1.0	t		28.0	female	white	5.676880222841227	smiling	124	sub-11	1.0	5.0	124_smiling	0.0		137.41468390821137	
18.0	115.50290188118925	pulse	1.0	t		28.0	female	white	5.676880222841227	smiling	124	sub-11	1.0	5.0	124_smiling	0.0		138.11465985038285	
18.0	116.20289714206865	pulse	1.0	t		28.0	female	white	5.676880222841227	smiling	124	sub-11	1.0	5.0	124_smiling	0.0		138.81465511126225	
18.0	116.90287821577294	pulse	1.0	t		28.0	female	white	5.676880222841227	smiling	124	sub-11	1.0	5.0	124_smiling	0.0		139.51463618496655	
19.0	117.0194322050711	face	0.0		146	20.0	female	white	3.9502586549940313	neutral	091	sub-11	1.0	5.0	091_neutral	0.0		139.6311901742647	1.2333093157521944
19.0	117.60287166552371	pulse	0.0	t		20.0	female	white	3.9502586549940313	neutral	091	sub-11	1.0	5.0	091_neutral	0.0		140.2146296347173	
19.0	118.25274152082329	fix	1.0		443	20.0	female	white	3.9502586549940313	neutral	091	sub-11	1.0	5.0	091_neutral	0.0		140.8644994900169	3.7665732627274338
19.0	118.30291975099408	pulse	1.0	t		20.0	female	white	3.9502586549940313	neutral	091	sub-11	1.0	5.0	091_neutral	0.0		140.91467772018768	
19.0	119.0028404537361	pulse	1.0	t		20.0	female	white	3.9502586549940313	neutral	091	sub-11	1.0	5.0	091_neutral	0.0		141.6145984229297	
19.0	119.70282213114933	pulse	1.0	t		20.0	female	white	3.9502586549940313	neutral	091	sub-11	1.0	5.0	091_neutral	0.0		142.31458010034294	
19.0	120.40281859944844	pulse	1.0	t		20.0	female	white	3.9502586549940313	neutral	091	sub-11	1.0	5.0	091_neutral	0.0		143.01457656864204	
19.0	121.1028005787166	pulse	1.0	t		20.0	female	white	3.9502586549940313	neutral	091	sub-11	1.0	5.0	091_neutral	0.0		143.7145585479102	
19.0	121.80281304531945	pulse	1.0	t		20.0	female	white	3.9502586549940313	neutral	091	sub-11	1.0	5.0	091_neutral	0.0		144.41457101451306	
20.0	122.01931478355073	face	0.0		145	31.0	male	west_asian	1.9538400318344609	smiling	070	sub-11	1.0	5.0	070_smiling	0.0		144.63107275274433	1.2333244084929902
20.0	122.50276997063884	pulse	0.0	t		31.0	male	west_asian	1.9538400318344609	smiling	070	sub-11	1.0	5.0	070_smiling	0.0		145.11452793983244	
20.0	123.20274500724645	pulse	0.0	t		31.0	male	west_asian	1.9538400318344609	smiling	070	sub-11	1.0	5.0	070_smiling	0.0		145.81450297644005	
20.0	123.25263919204372	fix	1.0		1185	31.0	male	west_asian	1.9538400318344609	smiling	070	sub-11	1.0	5.0	070_smiling	0.0		145.86439716123732	10.016459840783682
20.0	123.90274147554464	pulse	1.0	t		31.0	male	west_asian	1.9538400318344609	smiling	070	sub-11	1.0	5.0	070_smiling	0.0		146.51449944473825	
20.0	124.60272375666773	pulse	1.0	t		31.0	male	west_asian	1.9538400318344609	smiling	070	sub-11	1.0	5.0	070_smiling	0.0		147.21448172586133	
20.0	125.30270301924247	pulse	1.0	t		31.0	male	west_asian	1.9538400318344609	smiling	070	sub-11	1.0	5.0	070_smiling	0.0		147.91446098843608	
20.0	126.0026859040754	pulse	1.0	t		31.0	male	west_asian	1.9538400318344609	smiling	070	sub-11	1.0	5.0	070_smiling	0.0		148.614443873269	
20.0	126.70268207051868	pulse	1.0	t		31.0	male	west_asian	1.9538400318344609	smiling	070	sub-11	1.0	5.0	070_smiling	0.0		149.31444003971228	
20.0	127.40266374793191	pulse	1.0	t		31.0	male	west_asian	1.9538400318344609	smiling	070	sub-11	1.0	5.0	070_smiling	0.0		150.01442171712551	
20.0	128.10264270865173	pulse	1.0	t		31.0	male	west_asian	1.9538400318344609	smiling	070	sub-11	1.0	5.0	070_smiling	0.0		150.71440067784533	
20.0	128.80264672332123	pulse	1.0	t		31.0	male	west_asian	1.9538400318344609	smiling	070	sub-11	1.0	5.0	070_smiling	0.0		151.41440469251484	
20.0	129.502616326542	pulse	1.0	t		31.0	male	west_asian	1.9538400318344609	smiling	070	sub-11	1.0	5.0	070_smiling	0.0		152.11437429573562	
20.0	130.2026203412106	pulse	1.0	t		31.0	male	west_asian	1.9538400318344609	smiling	070	sub-11	1.0	5.0	070_smiling	0.0		152.8143783104042	
20.0	130.90259235926987	pulse	1.0	t		31.0	male	west_asian	1.9538400318344609	smiling	070	sub-11	1.0	5.0	070_smiling	0.0		153.51435032846348	
20.0	131.6025713199906	pulse	1.0	t		31.0	male	west_asian	1.9538400318344609	smiling	070	sub-11	1.0	5.0	070_smiling	0.0		154.2143292891842	
20.0	132.30255994006438	pulse	1.0	t		31.0	male	west_asian	1.9538400318344609	smiling	070	sub-11	1.0	5.0	070_smiling	0.0		154.914317909258	
20.0	133.00254856013726	pulse	1.0	t		31.0	male	west_asian	1.9538400318344609	smiling	070	sub-11	1.0	5.0	070_smiling	0.0		155.61430652933086	
21.0	133.2690990328274	face	0.0		145	24.0	male	white	3.1153999204138483	smiling	012	sub-11	1.0	5.0	012_smiling	0.0		155.880857002021	1.2333078064784786
21.0	133.70253718021104	pulse	0.0	t		24.0	male	white	3.1153999204138483	smiling	012	sub-11	1.0	5.0	012_smiling	0.0		156.31429514940464	
21.0	134.4025191594792	pulse	0.0	t		24.0	male	white	3.1153999204138483	smiling	012	sub-11	1.0	5.0	012_smiling	0.0		157.0142771286728	
21.0	134.50240683930588	fix	1.0		444	24.0	male	white	3.1153999204138483	smiling	012	sub-11	1.0	5.0	012_smiling	0.0		157.11416480849948	3.76658835546732
21.0	135.10250717584404	pulse	1.0	t		24.0	male	white	3.1153999204138483	smiling	012	sub-11	1.0	5.0	012_smiling	0.0		157.71426514503764	
21.0	135.80248341987044	pulse	1.0	t		24.0	male	white	3.1153999204138483	smiling	012	sub-11	1.0	5.0	012_smiling	0.0		158.41424138906405	
21.0	136.50247596405643	pulse	1.0	t		24.0	male	white	3.1153999204138483	smiling	012	sub-11	1.0	5.0	012_smiling	0.0		159.11423393325003	
21.0	137.20245915074338	pulse	1.0	t		24.0	male	white	3.1153999204138483	smiling	012	sub-11	1.0	5.0	012_smiling	0.0		159.81421711993698	
21.0	137.90244716710822	pulse	1.0	t		24.0	male	white	3.1153999204138483	smiling	012	sub-11	1.0	5.0	012_smiling	0.0		160.51420513630183	
22.0	138.2689951947732	face	0.0		145	34.0	male	white	2.651014723438122	smiling	121	sub-11	1.0	5.0	121_smiling	0.0		160.8807531639668	1.233307504624463
22.0	138.60243608903693	pulse	0.0	t		34.0	male	white	2.651014723438122	smiling	121	sub-11	1.0	5.0	121_smiling	0.0		161.21419405823053	
22.0	139.3024183701591	pulse	0.0	t		34.0	male	white	2.651014723438122	smiling	121	sub-11	1.0	5.0	121_smiling	0.0		161.9141763393527	
22.0	139.50230269939766	fix	1.0		444	34.0	male	white	2.651014723438122	smiling	121	sub-11	1.0	5.0	121_smiling	0.0		162.11406066859126	3.766590166595961
22.0	140.00240759394273	pulse	1.0	t		34.0	male	white	2.651014723438122	smiling	121	sub-11	1.0	5.0	121_smiling	0.0		162.61416556313634	
22.0	140.70238776208225	pulse	1.0	t		34.0	male	white	2.651014723438122	smiling	121	sub-11	1.0	5.0	121_smiling	0.0		163.31414573127586	
22.0	141.40237185433398	pulse	1.0	t		34.0	male	white	2.651014723438122	smiling	121	sub-11	1.0	5.0	121_smiling	0.0		164.01412982352758	
22.0	142.10235775771434	pulse	1.0	t		34.0	male	white	2.651014723438122	smiling	121	sub-11	1.0	5.0	121_smiling	0.0		164.71411572690795	
22.0	142.8023575464158	pulse	1.0	t		34.0	male	white	2.651014723438122	smiling	121	sub-11	1.0	5.0	121_smiling	0.0		165.4141155156094	
23.0	143.26889286599362	face	0.0		145	31.0	female	white	2.1822522881018704	smiling	102	sub-11	1.0	5.0	102_smiling	0.0		165.88065083518723	1.2332981471245148
23.0	143.50233711084547	pulse	0.0	t		31.0	female	white	2.1822522881018704	smiling	102	sub-11	1.0	5.0	102_smiling	0.0		166.11409508003908	
23.0	144.2023212030972	pulse	0.0	t		31.0	female	white	2.1822522881018704	smiling	102	sub-11	1.0	5.0	102_smiling	0.0		166.8140791722908	
23.0	144.50219101311814	fix	1.0		444	31.0	female	white	2.1822522881018704	smiling	102	sub-11	1.0	5.0	102_smiling	0.0		167.11394898231174	3.7665965055484776
23.0	144.90231676583153	pulse	1.0	t		31.0	female	white	2.1822522881018704	smiling	102	sub-11	1.0	5.0	102_smiling	0.0		167.51407473502513	
23.0	145.60229210429316	pulse	1.0	t		31.0	female	white	2.1822522881018704	smiling	102	sub-11	1.0	5.0	102_smiling	0.0		168.21405007348676	
23.0	146.30227076315896	pulse	1.0	t		31.0	female	white	2.1822522881018704	smiling	102	sub-11	1.0	5.0	102_smiling	0.0		168.91402873235256	
23.0	147.0022575721032	pulse	1.0	t		31.0	female	white	2.1822522881018704	smiling	102	sub-11	1.0	5.0	102_smiling	0.0		169.6140155412968	
23.0	147.70223955137135	pulse	1.0	t		31.0	female	white	2.1822522881018704	smiling	102	sub-11	1.0	5.0	102_smiling	0.0		170.31399752056495	
24.0	148.2687875186666	face	0.0		145	47.0	male	east_asian	2.171110226820533	smiling	024	sub-11	1.0	5.0	024_smiling	0.0		170.88054548786022	1.2333078064784786
24.0	148.40223601967045	pulse	0.0	t		47.0	male	east_asian	2.171110226820533	smiling	024	sub-11	1.0	5.0	024_smiling	0.0		171.01399398886406	
24.0	149.10221437668042	pulse	0.0	t		47.0	male	east_asian	2.171110226820533	smiling	024	sub-11	1.0	5.0	024_smiling	0.0		171.71397234587403	
24.0	149.5020953251451	fix	1.0		444	47.0	male	east_asian	2.171110226820533	smiling	024	sub-11	1.0	5.0	024_smiling	0.0		172.1138532943387	3.766590166595961
24.0	149.80221959876872	pulse	1.0	t		47.0	male	east_asian	2.171110226820533	smiling	024	sub-11	1.0	5.0	024_smiling	0.0		172.41397756796232	
24.0	150.50218256118387	pulse	1.0	t		47.0	male	east_asian	2.171110226820533	smiling	024	sub-11	1.0	5.0	024_smiling	0.0		173.11394053037748	
24.0	151.202169370129	pulse	1.0	t		47.0	male	east_asian	2.171110226820533	smiling	024	sub-11	1.0	5.0	024_smiling	0.0		173.81392733932262	
24.0	151.9021528586709	pulse	1.0	t		47.0	male	east_asian	2.171110226820533	smiling	024	sub-11	1.0	5.0	024_smiling	0.0		174.5139108278645	
24.0	152.60214510100195	pulse	1.0	t		47.0	male	east_asian	2.171110226820533	smiling	024	sub-11	1.0	5.0	024_smiling	0.0		175.21390307019556	
25.0	153.26868549174105	face	0.0		145	24.0	female	black	3.0955033824114606	smiling	099	sub-11	1.0	5.0	099_smiling	0.0		175.88044346093466	1.2333075046235535
25.0	153.30213432478558	pulse	0.0	t		24.0	female	black	3.0955033824114606	smiling	099	sub-11	1.0	5.0	099_smiling	0.0		175.9138922939792	
25.0	154.00211781332746	pulse	0.0	t		24.0	female	black	3.0955033824114606	smiling	099	sub-11	1.0	5.0	099_smiling	0.0		176.61387578252106	
25.0	154.5019929963646	fix	1.0		443	24.0	female	black	3.0955033824114606	smiling	099	sub-11	1.0	5.0	099_smiling	0.0		177.1137509655582	3.7665895628870203
25.0	154.7021022074341	pulse	1.0	t		24.0	female	black	3.0955033824114606	smiling	099	sub-11	1.0	5.0	099_smiling	0.0		177.3138601766277	
25.0	155.40207996073514	pulse	1.0	t		24.0	female	black	3.0955033824114606	smiling	099	sub-11	1.0	5.0	099_smiling	0.0		178.01383792992874	
25.0	156.10207009008263	pulse	1.0	t		24.0	female	black	3.0955033824114606	smiling	099	sub-11	1.0	5.0	099_smiling	0.0		178.71382805927624	
25.0	156.80205418233436	pulse	1.0	t		24.0	female	black	3.0955033824114606	smiling	099	sub-11	1.0	5.0	099_smiling	0.0		179.41381215152796	
25.0	157.50205578216446	pulse	1.0	t		24.0	female	black	3.0955033824114606	smiling	099	sub-11	1.0	5.0	099_smiling	0.0		180.11381375135807	
25.0	158.20203534659413	pulse	1.0	t		24.0	female	black	3.0955033824114606	smiling	099	sub-11	1.0	5.0	099_smiling	0.0		180.81379331578773	
26.0	158.26858255925163	face	0.0		146	21.0	male	east_asian/white	3.501790688420215	smiling	036	sub-11	1.0	5.0	036_smiling	0.0		180.88034052844523	1.2333062972047628
26.0	158.9020176277172	pulse	0.0	t		21.0	male	east_asian/white	3.501790688420215	smiling	036	sub-11	1.0	5.0	036_smiling	0.0		181.51377559691082	
26.0	159.5018888564564	fix	1.0		443	21.0	male	east_asian/white	3.501790688420215	smiling	036	sub-11	1.0	5.0	036_smiling	0.0		182.11364682565	3.7665907703067205
26.0	159.60200322924265	pulse	1.0	t		21.0	male	east_asian/white	3.501790688420215	smiling	036	sub-11	1.0	5.0	036_smiling	0.0		182.21376119843626	
26.0	160.3019824918174	pulse	1.0	t		21.0	male	east_asian/white	3.501790688420215	smiling	036	sub-11	1.0	5.0	036_smiling	0.0		182.913740461011	
26.0	161.00197111189118	pulse	1.0	t		21.0	male	east_asian/white	3.501790688420215	smiling	036	sub-11	1.0	5.0	036_smiling	0.0		183.61372908108478	
26.0	161.7019564115626	pulse	1.0	t		21.0	male	east_asian/white	3.501790688420215	smiling	036	sub-11	1.0	5.0	036_smiling	0.0		184.3137143807562	
26.0	162.4019426167979	pulse	1.0	t		21.0	male	east_asian/white	3.501790688420215	smiling	036	sub-11	1.0	5.0	036_smiling	0.0		185.0137005859915	
26.0	163.10192429421113	pulse	1.0	t		21.0	male	east_asian/white	3.501790688420215	smiling	036	sub-11	1.0	5.0	036_smiling	0.0		185.71368226340473	
27.0	163.2684796267631	face	0.0		146	31.0	male	west_asian	1.9538400318344609	neutral	070	sub-11	1.0	5.0	070_neutral	1.0	attractiveness	185.88023759595671	1.2333078064784786
27.0	163.80191563097833	pulse	0.0	t		31.0	male	west_asian	1.9538400318344609	neutral	070	sub-11	1.0	5.0	070_neutral	1.0	attractiveness	186.41367360017193	
27.0	164.5017874332416	fix	1.0		176	31.0	male	west_asian	1.9538400318344609	neutral	070	sub-11	1.0	5.0	070_neutral	1.0	attractiveness	187.1135454024352	1.4999699654463257
27.0	164.50973466660616	pulse	1.0	t		31.0	male	west_asian	1.9538400318344609	neutral	070	sub-11	1.0	5.0	070_neutral	1.0	attractiveness	187.12149263579977	
27.0	165.20188381548087	pulse	1.0	t		31.0	male	west_asian	1.9538400318344609	neutral	070	sub-11	1.0	5.0	070_neutral	1.0	attractiveness	187.81364178467447	
27.0	165.9018654928941	pulse	1.0	t		31.0	male	west_asian	1.9538400318344609	neutral	070	sub-11	1.0	5.0	070_neutral	1.0	attractiveness	188.5136234620877	
27.0	166.00175739868791	rating	2.0		295	31.0	male	west_asian	1.9538400318344609	neutral	070	sub-11	1.0	5.0	070_neutral	1.0	attractiveness	188.61351536788152	2.4999455152074006
27.0	166.59663745818943	pulse	2.0	t		31.0	male	west_asian	1.9538400318344609	neutral	070	sub-11	1.0	5.0	070_neutral	1.0	attractiveness	189.20839542738304	
27.0	167.2966016280243	pulse	2.0	t		31.0	male	west_asian	1.9538400318344609	neutral	070	sub-11	1.0	5.0	070_neutral	1.0	attractiveness	189.9083595972179	
27.0	167.64349649290034	response	2.0	e		31.0	male	west_asian	1.9538400318344609	neutral	070	sub-11	1.0	5.0	070_neutral	1.0	attractiveness	190.25525446209394	
27.0	168.00182501416475	pulse	2.0	t		31.0	male	west_asian	1.9538400318344609	neutral	070	sub-11	1.0	5.0	070_neutral	1.0	attractiveness	190.61358298335836	
27.0	168.50170291389531	fix	3.0		443	31.0	male	west_asian	1.9538400318344609	neutral	070	sub-11	1.0	5.0	070_neutral	1.0	attractiveness	191.11346088308892	3.7665892610320952
27.0	168.70181484165732	pulse	3.0	t		31.0	male	west_asian	1.9538400318344609	neutral	070	sub-11	1.0	5.0	070_neutral	1.0	attractiveness	191.31357281085093	
27.0	169.40179772649026	pulse	3.0	t		31.0	male	west_asian	1.9538400318344609	neutral	070	sub-11	1.0	5.0	070_neutral	1.0	attractiveness	192.01355569568386	
27.0	170.1017809131772	pulse	3.0	t		31.0	male	west_asian	1.9538400318344609	neutral	070	sub-11	1.0	5.0	070_neutral	1.0	attractiveness	192.7135388823708	
27.0	170.80176379801014	pulse	3.0	t		31.0	male	west_asian	1.9538400318344609	neutral	070	sub-11	1.0	5.0	070_neutral	1.0	attractiveness	193.41352176720375	
27.0	171.50174547542338	pulse	3.0	t		31.0	male	west_asian	1.9538400318344609	neutral	070	sub-11	1.0	5.0	070_neutral	1.0	attractiveness	194.11350344461698	
27.0	172.20173439735208	pulse	3.0	t		31.0	male	west_asian	1.9538400318344609	neutral	070	sub-11	1.0	5.0	070_neutral	1.0	attractiveness	194.8134923665457	
28.0	172.2682921749274	face	0.0		146	19.0	male	white	3.2522881018702745	smiling	018	sub-11	1.0	5.0	018_smiling	0.0		194.88005014412101	1.2333078064784786
28.0	172.90174324169766	pulse	0.0	t		19.0	male	white	3.2522881018702745	smiling	018	sub-11	1.0	5.0	018_smiling	0.0		195.51350121089126	
28.0	173.5015999814059	fix	1.0		443	19.0	male	white	3.2522881018702745	smiling	018	sub-11	1.0	5.0	018_smiling	0.0		196.1133579505995	3.7665892610320952
28.0	173.60171284491844	pulse	1.0	t		19.0	male	white	3.2522881018702745	smiling	018	sub-11	1.0	5.0	018_smiling	0.0		196.21347081411204	
28.0	174.3016972390251	pulse	1.0	t		19.0	male	white	3.2522881018702745	smiling	018	sub-11	1.0	5.0	018_smiling	0.0		196.9134552082187	
28.0	175.00167650159983	pulse	1.0	t		19.0	male	white	3.2522881018702745	smiling	018	sub-11	1.0	5.0	018_smiling	0.0		197.61343447079344	
28.0	175.70166331054497	pulse	1.0	t		19.0	male	white	3.2522881018702745	smiling	018	sub-11	1.0	5.0	018_smiling	0.0		198.31342127973858	
28.0	176.40164981763428	pulse	1.0	t		19.0	male	white	3.2522881018702745	smiling	018	sub-11	1.0	5.0	018_smiling	0.0		199.01340778682788	
28.0	177.10163330617706	pulse	1.0	t		19.0	male	white	3.2522881018702745	smiling	018	sub-11	1.0	5.0	018_smiling	0.0		199.71339127537067	
29.0	177.26818924243798	face	0.0		146	32.0	male	white	2.389176283326701	smiling	092	sub-11	1.0	5.0	092_smiling	0.0		199.8799472116316	1.2333005619630057
29.0	177.80162464294335	pulse	0.0	t		32.0	male	white	2.389176283326701	smiling	092	sub-11	1.0	5.0	092_smiling	0.0		200.41338261213696	
29.0	178.501489804401	fix	1.0		444	32.0	male	white	2.389176283326701	smiling	092	sub-11	1.0	5.0	092_smiling	0.0		201.1132477735946	3.7665959018386275
29.0	178.50899995200507	pulse	1.0	t		32.0	male	white	2.389176283326701	smiling	092	sub-11	1.0	5.0	092_smiling	0.0		201.12075792119867	
29.0	179.2015864884961	pulse	1.0	t		32.0	male	white	2.389176283326701	smiling	092	sub-11	1.0	5.0	092_smiling	0.0		201.8133444576897	
29.0	179.90158084381164	pulse	1.0	t		32.0	male	white	2.389176283326701	smiling	092	sub-11	1.0	5.0	092_smiling	0.0		202.51333881300525	
29.0	180.60156252122397	pulse	1.0	t		32.0	male	white	2.389176283326701	smiling	092	sub-11	1.0	5.0	092_smiling	0.0		203.21332049041757	
29.0	181.3015478208954	pulse	1.0	t		32.0	male	white	2.389176283326701	smiling	092	sub-11	1.0	5.0	092_smiling	0.0		203.913305790089	
29.0	182.00153281871098	pulse	1.0	t		32.0	male	white	2.389176283326701	smiling	092	sub-11	1.0	5.0	092_smiling	0.0		204.6132907879046	
30.0	182.26808570623962	face	0.0		145	19.0	male	white	2.243931555909272	neutral	130	sub-11	1.0	5.0	130_neutral	0.0		204.87984367543322	1.2333065990587784
30.0	182.70152385362326	pulse	0.0	t		19.0	male	white	2.243931555909272	neutral	130	sub-11	1.0	5.0	130_neutral	0.0		205.31328182281686	
30.0	183.40150160692428	pulse	0.0	t		19.0	male	white	2.243931555909272	neutral	130	sub-11	1.0	5.0	130_neutral	0.0		206.0132595761179	
30.0	183.5013923052984	fix	1.0		444	19.0	male	white	2.243931555909272	neutral	130	sub-11	1.0	5.0	130_neutral	0.0		206.113150274492	3.7665895628870203
30.0	184.10149264183656	pulse	1.0	t		19.0	male	white	2.243931555909272	neutral	130	sub-11	1.0	5.0	130_neutral	0.0		206.71325061103016	
30.0	184.80148790271596	pulse	1.0	t		19.0	male	white	2.243931555909272	neutral	130	sub-11	1.0	5.0	130_neutral	0.0		207.41324587190957	
30.0	185.50145992077523	pulse	1.0	t		19.0	male	white	2.243931555909272	neutral	130	sub-11	1.0	5.0	130_neutral	0.0		208.11321788996884	
30.0	186.20144854084901	pulse	1.0	t		19.0	male	white	2.243931555909272	neutral	130	sub-11	1.0	5.0	130_neutral	0.0		208.81320651004262	
30.0	186.90143746277772	pulse	1.0	t		19.0	male	white	2.243931555909272	neutral	130	sub-11	1.0	5.0	130_neutral	0.0		209.51319543197133	
31.0	187.26798186818542	face	0.0		145	37.0	male	white	3.898925586947871	smiling	101	sub-11	1.0	5.0	101_smiling	0.0		209.87973983737902	1.233306900914613
31.0	187.60142306430316	pulse	0.0	t		37.0	male	white	3.898925586947871	smiling	101	sub-11	1.0	5.0	101_smiling	0.0		210.21318103349677	
31.0	188.30140504357132	pulse	0.0	t		37.0	male	white	3.898925586947871	smiling	101	sub-11	1.0	5.0	101_smiling	0.0		210.91316301276493	
31.0	188.50128876910003	fix	1.0		444	37.0	male	white	3.898925586947871	smiling	101	sub-11	1.0	5.0	101_smiling	0.0		211.11304673829363	3.76658835546732
31.0	189.0013948710648	pulse	1.0	t		37.0	male	white	3.898925586947871	smiling	101	sub-11	1.0	5.0	101_smiling	0.0		211.6131528402584	
31.0	189.70137715218698	pulse	1.0	t		37.0	male	white	3.898925586947871	smiling	101	sub-11	1.0	5.0	101_smiling	0.0		212.31313512138058	
31.0	190.40135913145514	pulse	1.0	t		37.0	male	white	3.898925586947871	smiling	101	sub-11	1.0	5.0	101_smiling	0.0		213.01311710064874	
31.0	191.10134473298058	pulse	1.0	t		37.0	male	white	3.898925586947871	smiling	101	sub-11	1.0	5.0	101_smiling	0.0		213.71310270217418	
31.0	191.80133033450693	pulse	1.0	t		37.0	male	white	3.898925586947871	smiling	101	sub-11	1.0	5.0	101_smiling	0.0		214.41308830370053	
32.0	192.26787712456735	face	0.0		145	20.0	male	black	2.609629924393156	smiling	043	sub-11	1.0	5.0	043_smiling	0.0		214.87963509376095	1.2333087120432538
32.0	192.50132106756428	pulse	0.0	t		20.0	male	black	2.609629924393156	smiling	043	sub-11	1.0	5.0	043_smiling	0.0		215.11307903675788	
32.0	193.20129942457424	pulse	0.0	t		20.0	male	black	2.609629924393156	smiling	043	sub-11	1.0	5.0	043_smiling	0.0		215.81305739376785	
32.0	193.5011858366106	fix	1.0		444	20.0	male	black	2.609629924393156	smiling	043	sub-11	1.0	5.0	043_smiling	0.0		216.1129438058042	3.766588657322245
32.0	193.90129498730857	pulse	1.0	t		20.0	male	black	2.609629924393156	smiling	043	sub-11	1.0	5.0	043_smiling	0.0		216.51305295650218	
32.0	194.60127243875468	pulse	1.0	t		20.0	male	black	2.609629924393156	smiling	043	sub-11	1.0	5.0	043_smiling	0.0		217.21303040794828	
32.0	195.30126196439323	pulse	1.0	t		20.0	male	black	2.609629924393156	smiling	043	sub-11	1.0	5.0	043_smiling	0.0		217.91301993358684	
32.0	196.00126779019047	pulse	1.0	t		20.0	male	black	2.609629924393156	smiling	043	sub-11	1.0	5.0	043_smiling	0.0		218.61302575938407	
32.0	196.7012494676037	pulse	1.0	t		20.0	male	black	2.609629924393156	smiling	043	sub-11	1.0	5.0	043_smiling	0.0		219.3130074367973	
33.0	197.26777449393285	face	0.0		145	24.0	female	east_asian	2.9076800636689217	neutral	034	sub-11	1.0	5.0	034_neutral	0.0		219.87953246312645	1.2333105231718946
33.0	197.40122148566297	pulse	0.0	t		24.0	female	east_asian	2.9076800636689217	neutral	034	sub-11	1.0	5.0	034_neutral	0.0		220.01297945485658	
33.0	198.10120014452787	pulse	0.0	t		24.0	female	east_asian	2.9076800636689217	neutral	034	sub-11	1.0	5.0	034_neutral	0.0		220.71295811372147	
33.0	198.50108501710474	fix	1.0		444	24.0	female	east_asian	2.9076800636689217	neutral	034	sub-11	1.0	5.0	034_neutral	0.0		221.11284298629835	3.7665865443386792
33.0	198.80120868701943	pulse	1.0	t		24.0	female	east_asian	2.9076800636689217	neutral	034	sub-11	1.0	5.0	034_neutral	0.0		221.41296665621303	
33.0	199.50117225314443	pulse	1.0	t		24.0	female	east_asian	2.9076800636689217	neutral	034	sub-11	1.0	5.0	034_neutral	0.0		222.11293022233804	
33.0	200.2011569491051	pulse	1.0	t		24.0	female	east_asian	2.9076800636689217	neutral	034	sub-11	1.0	5.0	034_neutral	0.0		222.8129149182987	
33.0	200.9011407395019	pulse	1.0	t		24.0	female	east_asian	2.9076800636689217	neutral	034	sub-11	1.0	5.0	034_neutral	0.0		223.5128987086955	
33.0	201.60112905772166	pulse	1.0	t		24.0	female	east_asian	2.9076800636689217	neutral	034	sub-11	1.0	5.0	034_neutral	0.0		224.21288702691527	
34.0	202.26767156144342	face	0.0		145	31.0	female	west_asian	2.364902506963788	smiling	006	sub-11	1.0	5.0	006_smiling	0.0		224.87942953063703	1.2333056934949127
34.0	202.30112522416493	pulse	0.0	t		31.0	female	west_asian	2.364902506963788	smiling	006	sub-11	1.0	5.0	006_smiling	0.0		224.91288319335854	
34.0	203.00109663851526	pulse	0.0	t		31.0	female	west_asian	2.364902506963788	smiling	006	sub-11	1.0	5.0	006_smiling	0.0		225.61285460770887	
34.0	203.50097725493833	fix	1.0		443	31.0	female	west_asian	2.364902506963788	smiling	006	sub-11	1.0	5.0	006_smiling	0.0		226.11273522413194	3.7665753757109997
34.0	203.70110216245757	pulse	1.0	t		31.0	female	west_asian	2.364902506963788	smiling	006	sub-11	1.0	5.0	006_smiling	0.0		226.31286013165118	
34.0	204.4010723693882	pulse	1.0	t		31.0	female	west_asian	2.364902506963788	smiling	006	sub-11	1.0	5.0	006_smiling	0.0		227.0128303385818	
34.0	205.10105012268923	pulse	1.0	t		31.0	female	west_asian	2.364902506963788	smiling	006	sub-11	1.0	5.0	006_smiling	0.0		227.71280809188283	
34.0	205.80105323179396	pulse	1.0	t		31.0	female	west_asian	2.364902506963788	smiling	006	sub-11	1.0	5.0	006_smiling	0.0		228.41281120098756	
34.0	206.5010237405786	pulse	1.0	t		31.0	female	west_asian	2.364902506963788	smiling	006	sub-11	1.0	5.0	006_smiling	0.0		229.1127817097722	
34.0	207.20102624597348	pulse	1.0	t		31.0	female	west_asian	2.364902506963788	smiling	006	sub-11	1.0	5.0	006_smiling	0.0		229.81278421516708	
35.0	207.26755263064933	face	0.0		146	40.0	female	west_asian	1.5777954635893354	neutral	038	sub-11	1.0	5.0	038_neutral	0.0		229.87931059984294	1.2333235029291245
35.0	207.90100158443602	pulse	0.0	t		40.0	female	west_asian	1.5777954635893354	neutral	038	sub-11	1.0	5.0	038_neutral	0.0		230.51275955362962	
35.0	208.50087613357846	fix	1.0		443	40.0	female	west_asian	1.5777954635893354	neutral	038	sub-11	1.0	5.0	038_neutral	0.0		231.11263410277206	3.758318137459355
35.0	208.60098597854267	pulse	1.0	t		40.0	female	west_asian	1.5777954635893354	neutral	038	sub-11	1.0	5.0	038_neutral	0.0		231.21274394773627	
35.0	209.30097218377796	pulse	1.0	t		40.0	female	west_asian	1.5777954635893354	neutral	038	sub-11	1.0	5.0	038_neutral	0.0		231.91273015297156	
35.0	210.00095054078793	pulse	1.0	t		40.0	female	west_asian	1.5777954635893354	neutral	038	sub-11	1.0	5.0	038_neutral	0.0		232.61270850998153	
35.0	210.70094006642648	pulse	1.0	t		40.0	female	west_asian	1.5777954635893354	neutral	038	sub-11	1.0	5.0	038_neutral	0.0		233.3126980356201	
35.0	211.40092325311343	pulse	1.0	t		40.0	female	west_asian	1.5777954635893354	neutral	038	sub-11	1.0	5.0	038_neutral	0.0		234.01268122230704	
35.0	212.10090764722008	pulse	1.0	t		40.0	female	west_asian	1.5777954635893354	neutral	038	sub-11	1.0	5.0	038_neutral	0.0		234.7126656164137	
36.0	212.2591942710378	face	0.0		147	23.0	male	white	2.6275368085953046	smiling	141	sub-11	1.0	5.0	141_smiling	0.0		234.87095224023142	1.2415801374700095
36.0	212.8009143785821	pulse	0.0	t		23.0	male	white	2.6275368085953046	smiling	141	sub-11	1.0	5.0	141_smiling	0.0		235.4126723477757	
36.0	213.50077440850782	fix	1.0		444	23.0	male	white	2.6275368085953046	smiling	141	sub-11	1.0	5.0	141_smiling	0.0		236.11253237770143	3.7665859406297386
36.0	213.50833587142915	pulse	1.0	t		23.0	male	white	2.6275368085953046	smiling	141	sub-11	1.0	5.0	141_smiling	0.0		236.12009384062276	
36.0	214.20086897961937	pulse	1.0	t		23.0	male	white	2.6275368085953046	smiling	141	sub-11	1.0	5.0	141_smiling	0.0		236.81262694881298	
36.0	214.90085669412838	pulse	1.0	t		23.0	male	white	2.6275368085953046	smiling	141	sub-11	1.0	5.0	141_smiling	0.0		237.51261466332198	
36.0	215.6008356548482	pulse	1.0	t		23.0	male	white	2.6275368085953046	smiling	141	sub-11	1.0	5.0	141_smiling	0.0		238.2125936240418	
36.0	216.30082125637455	pulse	1.0	t		23.0	male	white	2.6275368085953046	smiling	141	sub-11	1.0	5.0	141_smiling	0.0		238.91257922556815	
36.0	217.00085032499192	pulse	1.0	t		23.0	male	white	2.6275368085953046	smiling	141	sub-11	1.0	5.0	141_smiling	0.0		239.61260829418552	
37.0	217.26736034913756	face	0.0		145	28.0	female	white	5.676880222841227	neutral	124	sub-11	1.0	5.0	124_neutral	0.0		239.87911831833117	1.2333072027686285
37.0	217.7008492081295	pulse	0.0	t		28.0	female	white	5.676880222841227	neutral	124	sub-11	1.0	5.0	124_neutral	0.0		240.31260717732312	
37.0	218.400777155387	pulse	0.0	t		28.0	female	white	5.676880222841227	neutral	124	sub-11	1.0	5.0	124_neutral	0.0		241.0125351245806	
37.0	218.5006675519062	fix	1.0		444	28.0	female	white	5.676880222841227	neutral	124	sub-11	1.0	5.0	124_neutral	0.0		241.1124255210998	3.7665901665968704
37.0	219.10078267933022	pulse	1.0	t		28.0	female	white	5.676880222841227	neutral	124	sub-11	1.0	5.0	124_neutral	0.0		241.71254064852383	
37.0	219.80075379182472	pulse	1.0	t		28.0	female	white	5.676880222841227	neutral	124	sub-11	1.0	5.0	124_neutral	0.0		242.41251176101832	
37.0	220.50073909149614	pulse	1.0	t		28.0	female	white	5.676880222841227	neutral	124	sub-11	1.0	5.0	124_neutral	0.0		243.11249706068975	
37.0	221.20072076890938	pulse	1.0	t		28.0	female	white	5.676880222841227	neutral	124	sub-11	1.0	5.0	124_neutral	0.0		243.81247873810298	
37.0	221.9007087852733	pulse	1.0	t		28.0	female	white	5.676880222841227	neutral	124	sub-11	1.0	5.0	124_neutral	0.0		244.5124667544669	
38.0	222.26725771850306	face	0.0		145	24.0	female	black	3.0955033824114606	neutral	099	sub-11	1.0	5.0	099_neutral	0.0		244.87901568769666	1.2333069009137034
38.0	222.60069921647573	pulse	0.0	t		24.0	female	black	3.0955033824114606	neutral	099	sub-11	1.0	5.0	099_neutral	0.0		245.21245718566934	
38.0	223.30067908276033	pulse	0.0	t		24.0	female	black	3.0955033824114606	neutral	099	sub-11	1.0	5.0	099_neutral	0.0		245.91243705195393	
38.0	223.50056461941676	fix	1.0		444	24.0	female	black	3.0955033824114606	neutral	099	sub-11	1.0	5.0	099_neutral	0.0		246.11232258861037	3.7665898647419453
38.0	224.00067102323646	pulse	1.0	t		24.0	female	black	3.0955033824114606	neutral	099	sub-11	1.0	5.0	099_neutral	0.0		246.61242899243007	
38.0	224.70064998395628	pulse	1.0	t		24.0	female	black	3.0955033824114606	neutral	099	sub-11	1.0	5.0	099_neutral	0.0		247.3124079531499	
38.0	225.40063347249907	pulse	1.0	t		24.0	female	black	3.0955033824114606	neutral	099	sub-11	1.0	5.0	099_neutral	0.0		248.01239144169267	
38.0	226.10061997958837	pulse	1.0	t		24.0	female	black	3.0955033824114606	neutral	099	sub-11	1.0	5.0	099_neutral	0.0		248.71237794878198	
38.0	226.80061252377527	pulse	1.0	t		24.0	female	black	3.0955033824114606	neutral	099	sub-11	1.0	5.0	099_neutral	0.0		249.41237049296888	
39.0	227.2671544841587	face	0.0		145	31.0	female	east_asian	3.395941106247513	smiling	087	sub-11	1.0	5.0	087_smiling	0.0		249.8789124533523	1.2333062972047628
39.0	227.50060114384905	pulse	0.0	t		31.0	female	east_asian	3.395941106247513	smiling	087	sub-11	1.0	5.0	087_smiling	0.0		250.11235911304266	
39.0	228.2005767841656	pulse	0.0	t		31.0	female	east_asian	3.395941106247513	smiling	087	sub-11	1.0	5.0	087_smiling	0.0		250.8123347533592	
39.0	228.50046078136347	fix	1.0		444	31.0	female	east_asian	3.395941106247513	smiling	087	sub-11	1.0	5.0	087_smiling	0.0		251.11221875055708	3.7499235552704704
39.0	228.900571743191	pulse	1.0	t		31.0	female	east_asian	3.395941106247513	smiling	087	sub-11	1.0	5.0	087_smiling	0.0		251.5123297123846	
39.0	229.60055915584508	pulse	1.0	t		31.0	female	east_asian	3.395941106247513	smiling	087	sub-11	1.0	5.0	087_smiling	0.0		252.21231712503868	
39.0	230.3005254386635	pulse	1.0	t		31.0	female	east_asian	3.395941106247513	smiling	087	sub-11	1.0	5.0	087_smiling	0.0		252.9122834078571	
39.0	231.0005170772847	pulse	1.0	t		31.0	female	east_asian	3.395941106247513	smiling	087	sub-11	1.0	5.0	087_smiling	0.0		253.61227504647832	
39.0	231.70050298066508	pulse	1.0	t		31.0	female	east_asian	3.395941106247513	smiling	087	sub-11	1.0	5.0	087_smiling	0.0		254.31226094985868	
40.0	232.25038433663394	fix	0.0		720													254.86214230582755	5.99987563581908
40.0	232.4004958267069	pulse	0.0	t														255.0122537959005	
40.0	233.10049561540836	pulse	0.0	t														255.71225358460197	
40.0	233.80046129451694	pulse	0.0	t														256.41221926371054	
40.0	234.50044900902594	pulse	0.0	t														257.11220697821955	
40.0	235.20042887531054	pulse	0.0	t														257.81218684450414	
40.0	235.90041658981954	pulse	0.0	t														258.51217455901315	
40.0	236.60040702102197	pulse	0.0	t														259.21216499021557	
40.0	237.30038658545163	pulse	0.0	t														259.91214455464524	
40.0	238.00037701665406	pulse	0.0	t														260.61213498584766	
