trial_nr	onset	event_type	phase	response	nr_frames	rating_type	face_id	repetition	session	rating	onset_abs	duration
0.0	0.01183455529553612	cue	0.0		479						170.76508954097108	3.9921303195656037
0.0	4.00396487486114	fix	1.0		120						174.75721986053668	1.0251491091785283
0.0	5.029113984039668	face	0.0		146	trustworthiness	172	1.0	2		175.7823689697152	1.2753772366377234
0.0	6.3044912206773915	rating	1.0		585	trustworthiness	172	1.0	2		177.05774620635293	4.883654844889861
0.0	11.188146065567253	fix	2.0		60	trustworthiness	172	1.0	2	0.5800000000000001	181.9414010512428	0.5167552562893434
1.0	11.704901321856596	face	0.0		147	trustworthiness	038	1.0	2		182.45815630753214	1.2334570237449043
1.0	12.9383583456015	rating	1.0		248	trustworthiness	038	1.0	2		183.69161333127704	2.0752456879154124
1.0	15.013604033516913	fix	2.0		60	trustworthiness	038	1.0	2	1.7800000000000002	185.76685901919245	0.5167443894833923
2.0	15.530348423000305	face	0.0		147	trustworthiness	006	1.0	2		186.28360340867584	1.2334681924062352
2.0	16.76381661540654	rating	1.0		129	trustworthiness	006	1.0	2		187.51707160108208	1.0834483152075336
2.0	17.847264930614074	fix	2.0		59	trustworthiness	006	1.0	2	-0.9300000000000002	188.6005199162896	0.5167528414431217
3.0	18.364017772057196	face	0.0		147	trustworthiness	066	1.0	2		189.11727275773274	1.2334552126108065
3.0	19.597472984668002	rating	1.0		111	trustworthiness	066	1.0	2		190.35072797034354	0.9334556050230276
3.0	20.53092858969103	fix	2.0		60	trustworthiness	066	1.0	2	0.6600000000000001	191.28418357536657	0.5167362393785879
4.0	21.047664829069618	face	0.0		147	trustworthiness	124	1.0	2		191.80091981474516	1.2334594385906712
4.0	22.28112426766029	rating	1.0		186	trustworthiness	124	1.0	2		193.03437925333583	1.5585127689496403
4.0	23.83963703660993	fix	2.0		60	trustworthiness	124	1.0	2	3.3099999999999996	194.59289202228547	0.5167528414435765
5.0	24.356389878053506	face	0.0		147	trustworthiness	126	1.0	2		195.10964486372905	1.233457325600284
5.0	25.58984720365379	rating	1.0		261	trustworthiness	126	1.0	2		196.34310218932933	2.183594685045591
5.0	27.77344188869938	fix	2.0		60	trustworthiness	126	1.0	2	0.6699999999999999	198.52669687437492	0.5167446913387721
6.0	28.290186580038153	face	0.0		147	trustworthiness	024	1.0	2		199.0434415657137	1.233461249724769
6.0	29.523647829762922	rating	1.0		327	trustworthiness	024	1.0	2		200.27690281543846	2.7336515697556933
6.0	32.257299399518615	fix	2.0		60	trustworthiness	024	1.0	2	-0.6499999999999999	203.01055438519415	0.5167480117515879
7.0	32.7740474112702	face	0.0		147	trustworthiness	043	1.0	2		203.52730239694574	1.2334600423023403
7.0	34.00750745357254	rating	1.0		412	trustworthiness	043	1.0	2		204.76076243924808	3.442067699596919
7.0	37.44957515316946	fix	2.0		60	trustworthiness	043	1.0	2	1.04	208.202830138845	0.5167507284531894
8.0	37.96632588162265	face	0.0		147	trustworthiness	036	1.0	2		208.7195808672982	1.233464268282205
8.0	39.19979014990486	rating	1.0		71	trustworthiness	036	1.0	2		209.9530451355804	0.6000698494131029
8.0	39.79985999931796	fix	2.0		60	trustworthiness	036	1.0	2	1.4400000000000004	210.5531149849935	0.5167437857717232
9.0	40.31660378508968	face	0.0		147	trustworthiness	011	1.0	2		211.06985877076522	1.2334582311677877
9.0	41.55006201625747	rating	1.0		132	trustworthiness	011	1.0	2		212.303317001933	1.1084615893128102
9.0	42.65852360557028	fix	2.0		60	trustworthiness	011	1.0	2	0.7199999999999998	213.41177859124582	0.5167492191744714
10.0	43.17527282474475	face	0.0		147	trustworthiness	144	1.0	2		213.9285278104203	1.2334576274561186
10.0	44.40873045220087	rating	1.0		203	trustworthiness	144	1.0	2		215.1619854378764	1.7002053524456642
10.0	46.108935804646535	fix	2.0		60	trustworthiness	144	1.0	2	0.7300000000000004	216.86219079032207	0.5167540488660052
11.0	46.62568985351254	face	0.0		147	trustworthiness	033	1.0	2		217.37894483918808	1.2334558163220208
11.0	47.85914566983456	rating	1.0		68	trustworthiness	033	1.0	2		218.6124006555101	0.5750592920094277
11.0	48.43420496184399	fix	2.0		60	trustworthiness	033	1.0	2	-1.4900000000000002	219.18745994751953	0.5167540488664599
12.0	48.95095901071045	face	0.0		147	trustworthiness	064	1.0	2		219.704213996386	1.2334515903417014
12.0	50.18441060105215	rating	1.0		67	trustworthiness	064	1.0	2		220.9376655867277	0.5667836156339945
12.0	50.751194216686145	fix	2.0		60	trustworthiness	064	1.0	2	-2.06	221.50444920236168	0.5167012241154225
13.0	51.26789544080157	face	0.0		147	trustworthiness	070	1.0	2		222.0211504264771	1.2334585330236223
13.0	52.50135397382519	rating	1.0		59	trustworthiness	070	1.0	2		223.25460895950073	0.5000532775338797
13.0	53.00140725135907	fix	2.0		60	trustworthiness	070	1.0	2	-1.94	223.7546622370346	0.5167519358765276
14.0	53.5181591872356	face	0.0		147	trustworthiness	062	1.0	2		224.27141417291114	1.2334585330231675
14.0	54.751617720258764	rating	1.0		64	trustworthiness	062	1.0	2		225.5048727059343	0.5417259687383194
14.0	55.29334368899708	fix	2.0		60	trustworthiness	062	1.0	2	-1.4700000000000002	226.04659867467262	0.5167760843337419
15.0	55.810119773330825	face	0.0		147	trustworthiness	102	1.0	2		226.56337475900636	1.2334343845659532
15.0	57.04355415789678	rating	1.0		72	trustworthiness	102	1.0	2		227.79680914357232	0.6084028783752728
15.0	57.65195703627205	fix	2.0		60	trustworthiness	102	1.0	2	-2.51	228.4052120219476	0.5167498228861405
16.0	58.16870685915819	face	0.0		147	trustworthiness	030	1.0	2		228.92196184483373	1.2334579293119532
16.0	59.402164788470145	rating	1.0		37	trustworthiness	030	1.0	2		230.15541977414568	0.3167139624270021
16.0	59.71887875089715	fix	2.0		60	trustworthiness	030	1.0	2	0.7599999999999998	230.4721337365727	0.5167374468014714
17.0	60.23561619769862	face	0.0		147	trustworthiness	039	1.0	2		230.98887118337416	1.2334597404465057
17.0	61.469075938145124	rating	1.0		63	trustworthiness	039	1.0	2		232.22233092382066	0.533399580601781
17.0	62.002475518746905	fix	2.0		60	trustworthiness	039	1.0	2	1.1600000000000001	232.75573050442244	0.5168189478454224
18.0	62.51929446659233	face	0.0		147	trustworthiness	137	1.0	2		233.27254945226787	1.2333845783723518
18.0	63.75267904496468	rating	1.0		60	trustworthiness	137	1.0	2		234.50593403064022	0.5083902306209893
18.0	64.26106927558567	fix	2.0		60	trustworthiness	137	1.0	2	1.12	235.0143242612612	0.5167522377319074
19.0	64.77782151331758	face	0.0		147	trustworthiness	061	1.0	2		235.53107649899312	1.2334558163220208
19.0	66.0112773296396	rating	1.0		157	trustworthiness	061	1.0	2		236.76453231531514	1.3168205174952163
19.0	67.32809784713481	fix	2.0		60	trustworthiness	061	1.0	2	-3.21	238.08135283281035	0.5167483136078772
20.0	67.84484616074269	face	0.0		147	trustworthiness	136	1.0	2		238.59810114641823	1.2334591367348366
20.0	69.07830529747753	rating	1.0		418	trustworthiness	136	1.0	2		239.83156028315307	3.4920755327525512
20.0	72.57038083023008	fix	2.0		60	trustworthiness	136	1.0	2	-1.25	243.32363581590562	0.516751634020693
21.0	73.08713246425077	face	0.0		147	trustworthiness	092	1.0	2		243.8403874499263	1.2334567218890697
21.0	74.32058918613984	rating	1.0		55	trustworthiness	092	1.0	2		245.07384417181538	0.4667196524069368
21.0	74.78730883854678	fix	2.0		60	trustworthiness	092	1.0	2	0.96	245.54056382422232	0.5167507284531894
22.0	75.30405956699997	face	0.0		147	trustworthiness	141	1.0	2		246.0573145526755	1.2334600423023403
22.0	76.53751960930231	rating	1.0		232	trustworthiness	141	1.0	2		247.29077459497785	1.9418927742080996
22.0	78.47941238351041	fix	2.0		60	trustworthiness	141	1.0	2	-0.71	249.23266736918595	0.5167480117515879
23.0	78.996160395262	face	0.0		147	trustworthiness	082	1.0	2		249.74941538093753	1.2334600423023403
23.0	80.22962043756434	rating	1.0		57	trustworthiness	082	1.0	2		250.98287542323988	0.483386314042491
23.0	80.71300675160683	fix	2.0		60	trustworthiness	082	1.0	2	1.7699999999999996	251.46626173728237	0.5167534451547908
24.0	81.22976019676162	face	0.0		147	trustworthiness	100	1.0	2		251.98301518243716	1.233465777560923
24.0	82.46322597432254	rating	1.0		65	trustworthiness	100	1.0	2		253.21648095999808	0.5500608088345871
24.0	83.01328678315713	fix	2.0		60	trustworthiness	100	1.0	2	-1.4	253.76654176883267	0.5167495210303059
25.0	83.53003630418743	face	0.0		147	trustworthiness	117	1.0	2		254.28329128986297	1.2334585330231675
25.0	84.7634948372106	rating	1.0		49	trustworthiness	117	1.0	2		255.51674982288614	0.4167051784256728
25.0	85.18020001563627	fix	2.0		60	trustworthiness	117	1.0	2	1.0300000000000002	255.9334550013118	0.5167495210303059
26.0	85.69694953666658	face	0.0		147	trustworthiness	121	1.0	2		256.4502045223421	1.2334600423023403
26.0	86.93040957896892	rating	1.0		79	trustworthiness	121	1.0	2		257.68366456464446	0.6667413256473083
26.0	87.59715090461623	fix	2.0		61	trustworthiness	121	1.0	2	-1.1800000000000002	258.35040589029177	0.525092511231378
27.0	88.1222434158476	face	0.0		146	trustworthiness	091	1.0	2		258.87549840152315	1.2251161465342193
27.0	89.34735956238183	rating	1.0		187	trustworthiness	091	1.0	2		260.10061454805737	1.5668512313145584
27.0	90.91421079369638	fix	2.0		60	trustworthiness	091	1.0	2	0.8799999999999999	261.6674657793719	0.5167531432989563
28.0	91.43096393699534	face	0.0		147	trustworthiness	027	1.0	2		262.1842189226709	1.2334603441581748
28.0	92.66442428115352	rating	1.0		84	trustworthiness	027	1.0	2		263.41767926682905	0.7084073760252068
28.0	93.37283165717872	fix	2.0		60	trustworthiness	027	1.0	2	0.8700000000000001	264.12608664285426	0.516751634020693
29.0	93.88958329119941	face	0.0		147	trustworthiness	087	1.0	2		264.64283827687495	1.2334582311677877
29.0	95.1230415223672	rating	1.0		57	trustworthiness	087	1.0	2		265.87629650804274	0.4833869177541601
29.0	95.60642844012136	fix	2.0		60	trustworthiness	087	1.0	2	1.38	266.3596834257969	0.516750124741975
30.0	96.12317856486334	face	0.0		147	trustworthiness	130	1.0	2		266.8764335505389	1.2334579293119532
30.0	97.35663649417529	rating	1.0		219	trustworthiness	130	1.0	2		268.10989147985083	1.8335540401726576
30.0	99.19019053434795	fix	2.0		60	trustworthiness	130	1.0	2	-0.7799999999999998	269.9434455200235	0.5167468043291592
31.0	99.70693733867711	face	0.0		147	trustworthiness	099	1.0	2		270.46019232435265	1.233463362715156
31.0	100.94040070139226	rating	1.0		54	trustworthiness	099	1.0	2		271.6936556870678	0.4583766622058647
31.0	101.39877736359813	fix	2.0		60	trustworthiness	099	1.0	2	0.96	272.15203234927367	0.5167573692792757
32.0	101.9155347328774	face	0.0		147	trustworthiness	009	1.0	2		272.66878971855294	1.2334515903421561
32.0	103.14898632321956	rating	1.0		47	trustworthiness	009	1.0	2		273.9022413088951	0.4000469687493933
32.0	103.54903329196895	fix	2.0		60	trustworthiness	009	1.0	2	1.17	274.3022882776445	0.516748615463257
33.0	104.06578190743221	face	0.0		147	trustworthiness	018	1.0	2		274.81903689310775	1.2334588348794568
33.0	105.29924074231167	rating	1.0		233	trustworthiness	018	1.0	2		276.0524957279872	1.9502264068814839
33.0	107.24946714919315	fix	2.0		60	trustworthiness	018	1.0	2	0.9000000000000004	278.0027221348687	0.5167534451547908
34.0	107.76622059434794	face	0.0		147	trustworthiness	034	1.0	2		278.5194755800235	1.233454910754972
34.0	108.99967550510291	rating	1.0		82	trustworthiness	034	1.0	2		279.75293049077845	0.6917470533599044
34.0	109.69142255846282	fix	2.0		60	trustworthiness	034	1.0	2	1.42	280.44467754413836	0.5167498228861405
35.0	110.20817238134896	face	0.0		147	trustworthiness	101	1.0	2		280.9614273670245	1.2334585330236223
35.0	111.44163091437258	rating	1.0		150	trustworthiness	101	1.0	2		282.1948859000481	1.2584787498099104
35.0	112.70010966418249	fix	2.0		60	trustworthiness	101	1.0	2	-0.7400000000000002	283.45336464985803	0.5167492191749261
36.0	113.21685888335742	face	0.0		147	trustworthiness	012	1.0	2		283.97011386903296	1.2334594385906712
36.0	114.45031832194809	rating	1.0		99	trustworthiness	012	1.0	2		285.2035733076236	0.8334293737607368
36.0	115.28374769570883	fix	2.0		60	trustworthiness	012	1.0	2	-0.7200000000000002	286.03700268138437	0.5167567655680614
37.0	115.80050446127689	face	0.0		147	trustworthiness	005	1.0	2		286.5537594469524	1.2334506847746525
37.0	117.03395514605154	rating	1.0		54	trustworthiness	005	1.0	2		287.7872101317271	0.4583845104548345
37.0	117.49233965650637	fix	2.0		60	trustworthiness	005	1.0	2	-0.8999999999999999	288.2455946421819	0.5167513321648585
38.0	118.00909098867123	face	0.0		147	trustworthiness	042	1.0	2		288.7623459743468	1.233461249724769
38.0	119.242552238396	rating	1.0		62	trustworthiness	042	1.0	2		289.99580722407154	0.525059608958145
38.0	119.76761184735415	fix	2.0		60	trustworthiness	042	1.0	2	-0.8500000000000001	290.5208668330297	0.516748615463257
39.0	120.2843604628174	face	0.0		147	trustworthiness	044	1.0	2		291.03761544849294	1.2334582311677877
39.0	121.51781869398519	rating	1.0		56	trustworthiness	044	1.0	2		292.27107367966073	0.47505298322494127
39.0	121.99287167721013	fix	2.0		60	trustworthiness	044	1.0	2	-0.7799999999999998	292.7461266628857	0.500060823927015
40.0	122.49293250113715	cue	0.0		480						293.2461874868127	4.0004687819309765
40.0	126.49340128306812	fix	1.0		120						297.24665626874366	1.0168073264003397
40.0	127.51020860946846	face	0.0		147	attractiveness	087	1.0	2		298.263463595144	1.2335134707641373
40.0	128.7437220802326	rating	1.0		290	attractiveness	087	1.0	2		299.49697706590814	2.4252295839132785
40.0	131.16895166414588	fix	2.0		60	attractiveness	087	1.0	2	-1.46	301.9222066498214	0.5167513321648585
41.0	131.68570299631074	face	0.0		147	attractiveness	121	1.0	2		302.4389579819863	1.233457325600284
41.0	132.91916032191102	rating	1.0		123	attractiveness	121	1.0	2		303.67241530758656	1.033454065558999
41.0	133.95261438747002	fix	2.0		60	attractiveness	121	1.0	2	-1.4500000000000002	304.70586937314556	0.5167510303090239
42.0	134.46936541777904	face	0.0		147	attractiveness	039	1.0	2		305.2226204034546	1.2334543070433028
42.0	135.70281972482235	rating	1.0		40	attractiveness	039	1.0	2		306.4560747104979	0.3417039936416586
42.0	136.044523718464	fix	2.0		60	attractiveness	039	1.0	2	0.13999999999999968	306.79777870413955	0.5167908752641779
43.0	136.56131459372818	face	0.0		147	attractiveness	070	1.0	2		307.3145695794037	1.2334198954913518
43.0	137.79473448921954	rating	1.0		90	attractiveness	070	1.0	2		308.5479894748951	0.7584218500073803
43.0	138.55315633922692	fix	2.0		60	attractiveness	070	1.0	2	-1.06	309.30641132490246	0.5167522377319074
44.0	139.06990857695882	face	0.0		147	attractiveness	043	1.0	2		309.82316356263436	1.2334567218890697
44.0	140.3033652988479	rating	1.0		155	attractiveness	043	1.0	2		311.05662028452343	1.3001511391580607
44.0	141.60351643800595	fix	2.0		60	attractiveness	043	1.0	2	-0.2599999999999998	312.3567714236815	0.5167513321648585
45.0	142.1202677701708	face	0.0		147	attractiveness	130	1.0	2		312.87352275584635	1.2334552126103517
45.0	143.35372298278116	rating	1.0		190	attractiveness	130	1.0	2		314.1069779684567	1.5918539404701733
45.0	144.94557692325134	fix	2.0		60	attractiveness	130	1.0	2	-0.77	315.6988319089269	0.5167525395872872
46.0	145.46232946283862	face	0.0		147	attractiveness	011	1.0	2		316.21558444851416	1.2334543070437576
46.0	146.69578376988238	rating	1.0		92	attractiveness	011	1.0	2		317.4490387555579	0.7750963598914495
46.0	147.47088012977383	fix	2.0		60	attractiveness	011	1.0	2	-2.26	318.22413511544937	0.5167452950504412
47.0	147.98762542482427	face	0.0		147	attractiveness	061	1.0	2		318.7408804104998	1.2334570237449043
47.0	149.22108244856918	rating	1.0		187	attractiveness	061	1.0	2		319.9743374342447	1.5668479109017426
47.0	150.78793035947092	fix	2.0		60	attractiveness	061	1.0	2	-3.88	321.54118534514646	0.5167519358760728
48.0	151.304682295347	face	0.0		147	attractiveness	100	1.0	2		322.05793728102253	1.2334585330236223
48.0	152.53814082837062	rating	1.0		74	attractiveness	100	1.0	2		323.29139581404615	0.6250686344442329
48.0	153.16320946281485	fix	2.0		60	attractiveness	100	1.0	2	-0.7599999999999998	323.9164644484904	0.5167519358760728
49.0	153.67996139869092	face	0.0		147	attractiveness	036	1.0	2		324.43321638436646	1.2334561181778554
49.0	154.91341751686878	rating	1.0		156	attractiveness	036	1.0	2		325.6666725025443	1.308487790388881
49.0	156.22190530725766	fix	2.0		60	attractiveness	036	1.0	2	1.1500000000000004	326.9751602929332	0.5167516340202383
50.0	156.7386569412779	face	0.0		147	attractiveness	006	1.0	2		327.49191192695343	1.2334570237449043
50.0	157.9721139650228	rating	1.0		58	attractiveness	006	1.0	2		328.72536895069834	0.49172085228383366
50.0	158.46383481730663	fix	2.0		60	attractiveness	006	1.0	2	-1.2799999999999998	329.2170898029822	0.5167585767017044
51.0	158.98059339400834	face	0.0		147	attractiveness	117	1.0	2		329.7338483796839	1.2334573256007388
51.0	160.21405071960908	rating	1.0		286	attractiveness	117	1.0	2		330.9673057052846	2.391938822298016
51.0	162.6059895419071	fix	2.0		60	attractiveness	117	1.0	2	1.5599999999999996	333.35924452758263	0.5167510303090239
52.0	163.12274057221612	face	0.0		147	attractiveness	030	1.0	2		333.87599555789166	1.2334684942620697
52.0	164.3562090664782	rating	1.0		90	attractiveness	030	1.0	2		335.1094640521537	0.7584076627886134
52.0	165.1146167292668	fix	2.0		60	attractiveness	030	1.0	2	1.33	335.86787171494234	0.5167591804133735
53.0	165.63137590968017	face	0.0		147	attractiveness	082	1.0	2		336.3846308953557	1.233450382918818
53.0	166.864826292599	rating	1.0		84	attractiveness	082	1.0	2		337.61808127827453	0.7084161298416802
53.0	167.57324242244067	fix	2.0		60	attractiveness	082	1.0	2	1.21	338.3264974081162	0.5167477098962081
54.0	168.08999013233688	face	0.0		147	attractiveness	141	1.0	2		338.8432451180124	1.233458834879002
54.0	169.32344896721588	rating	1.0		121	attractiveness	141	1.0	2		340.0767039528914	1.0167840835101742
54.0	170.34023305072606	fix	2.0		60	attractiveness	141	1.0	2	-0.48	341.0934880364016	0.5167510303090239
55.0	170.85698408103508	face	0.0		147	attractiveness	018	1.0	2		341.6102390667106	1.2334591367348366
55.0	172.09044321776992	rating	1.0		56	attractiveness	018	1.0	2		342.84369820344546	0.4750532850807758
55.0	172.5654965028507	fix	2.0		60	attractiveness	018	1.0	2	-0.6499999999999999	343.31875148852623	0.5167510303090239
56.0	173.08224753315972	face	0.0		147	attractiveness	101	1.0	2		343.83550251883526	1.2334573256007388
56.0	174.31570485876045	rating	1.0		44	attractiveness	101	1.0	2		345.068959844436	0.375040335470203
56.0	174.69074519423066	fix	2.0		60	attractiveness	101	1.0	2	0.7199999999999998	345.4440001799062	0.5167522377319074
57.0	175.20749743196257	face	0.0		147	attractiveness	091	1.0	2		345.9607524176381	1.2334570237449043
57.0	176.44095445570747	rating	1.0		154	attractiveness	091	1.0	2		347.194209441383	1.2918187139075599
57.0	177.73277316961503	fix	2.0		60	attractiveness	091	1.0	2	-0.3999999999999999	348.48602815529057	0.5167474080403736
58.0	178.2495205776554	face	0.0		147	attractiveness	172	1.0	2		349.00277556333094	1.2334657775604683
58.0	179.48298635521587	rating	1.0		139	attractiveness	172	1.0	2		350.2362413408914	1.1667955087491464
58.0	180.64978186396502	fix	2.0		60	attractiveness	172	1.0	2	-2.17	351.40303684964056	0.5167477098962081
59.0	181.16652957386123	face	0.0		147	attractiveness	137	1.0	2		351.91978455953677	1.23346034415772
59.0	182.39998991801895	rating	1.0		113	attractiveness	137	1.0	2		353.1532449036945	0.9501089850073186
59.0	183.35009890302626	fix	2.0		60	attractiveness	137	1.0	2	1.0300000000000002	354.1033538887018	0.5167507284531894
60.0	183.86684963147945	face	0.0		147	attractiveness	064	1.0	2		354.620104617155	1.2334585330236223
60.0	185.10030816450308	rating	1.0		63	attractiveness	064	1.0	2		355.8535631501786	0.5333935434873638
60.0	185.63370170799044	fix	2.0		60	attractiveness	064	1.0	2	-1.13	356.386956693666	0.5167495210303059
61.0	186.15045122902075	face	0.0		147	attractiveness	092	1.0	2		356.9037062146963	1.2334573256007388
61.0	187.38390855462148	rating	1.0		209	attractiveness	092	1.0	2		358.137163540297	1.7502062429193757
61.0	189.13411479754086	fix	2.0		60	attractiveness	092	1.0	2	-1.0299999999999998	359.8873697832164	0.5167507284531894
62.0	189.65086552599405	face	0.0		147	attractiveness	144	1.0	2		360.4041205116696	1.233457929312408
62.0	190.88432345530646	rating	1.0		55	attractiveness	144	1.0	2		361.637578440982	0.4667172375611699
62.0	191.35104069286763	fix	2.0		60	attractiveness	144	1.0	2	0.6799999999999997	362.10429567854317	0.5167537470106254
63.0	191.86779443987825	face	0.0		147	attractiveness	009	1.0	2		362.6210494255538	1.233461249724769
63.0	193.10125568960302	rating	1.0		82	attractiveness	009	1.0	2		363.85451067527856	0.6917386013997202
63.0	193.79299429100274	fix	2.0		61	attractiveness	009	1.0	2	1.9100000000000001	364.5462492766783	0.5250876815398442
64.0	194.3180819725426	face	0.0		146	attractiveness	005	1.0	2		365.0713369582181	1.22512339107152
64.0	195.5432053636141	rating	1.0		80	attractiveness	005	1.0	2		366.29646034928965	0.6750761657440307
64.0	196.21828152935814	fix	2.0		60	attractiveness	005	1.0	2	-1.1600000000000001	366.9715365150337	0.5167522377319074
65.0	196.73503376709004	face	0.0		147	attractiveness	099	1.0	2		367.4882887527656	1.2334582311677877
65.0	197.96849199825783	rating	1.0		98	attractiveness	099	1.0	2		368.7217469839334	0.825093024385751
65.0	198.79358502264358	fix	2.0		60	attractiveness	099	1.0	2	-1.44	369.5468400083191	0.5167489173190916
66.0	199.31033393996267	face	0.0		147	attractiveness	044	1.0	2		370.0635889256382	1.2334606460135547
66.0	200.54379458597623	rating	1.0		107	attractiveness	044	1.0	2		371.29704957165177	0.900102962985784
66.0	201.443897548962	fix	2.0		60	attractiveness	044	1.0	2	-1.63	372.19715253463755	0.516772160209257
67.0	201.96066970917127	face	0.0		147	attractiveness	038	1.0	2		372.7139246948468	1.2334727202419344
67.0	203.1941424294132	rating	1.0		157	attractiveness	038	1.0	2		373.94739741508874	1.3167830873867388
67.0	204.51092551679994	fix	2.0		60	attractiveness	038	1.0	2	-3.46	375.2641805024755	0.5167507284531894
68.0	205.02767624525313	face	0.0		147	attractiveness	126	1.0	2		375.7809312309287	1.2334594385906712
68.0	206.2611356838438	rating	1.0		317	attractiveness	126	1.0	2		377.01439066951934	2.650305885491889
68.0	208.9114415693357	fix	2.0		60	attractiveness	126	1.0	2	-0.56	379.66469655501123	0.5167540488664599
69.0	209.42819561820215	face	0.0		147	attractiveness	066	1.0	2		380.1814506038777	1.2334564200332352
69.0	210.6616520382354	rating	1.0		133	attractiveness	066	1.0	2		381.4149070239109	1.1167952219861945
69.0	211.77844726022158	fix	2.0		60	attractiveness	066	1.0	2	1.2400000000000002	382.5317022458971	0.5167504265978096
70.0	212.2951976868194	face	0.0		147	attractiveness	062	1.0	2		383.04845267249493	1.2334576274561186
70.0	213.5286553142755	rating	1.0		91	attractiveness	062	1.0	2		384.28191029995105	0.7667621235068509
70.0	214.29541743778236	fix	2.0		60	attractiveness	062	1.0	2	-2.62	385.0486724234579	0.5167419746376254
71.0	214.81215941242	face	0.0		147	attractiveness	102	1.0	2		385.5654143980955	1.23346034415772
71.0	216.0456197565777	rating	1.0		126	attractiveness	102	1.0	2		386.79887474225325	1.058453152445054
71.0	217.10407290902276	fix	2.0		60	attractiveness	102	1.0	2	-2.8600000000000003	387.8573278946983	0.5167546525776743
72.0	217.62082756160044	face	0.0		147	attractiveness	012	1.0	2		388.374082547276	1.233454910754972
72.0	218.8542824723554	rating	1.0		79	attractiveness	012	1.0	2		389.60753745803095	0.6667437404935299
72.0	219.52102621284894	fix	2.0		60	attractiveness	012	1.0	2	1.0499999999999998	390.2742811985245	0.5167504265973548
73.0	220.0377766394463	face	0.0		147	attractiveness	136	1.0	2		390.79103162512183	1.2334573256007388
73.0	221.27123396504703	rating	1.0		103	attractiveness	136	1.0	2		392.02448895072257	0.8667708471371043
73.0	222.13800481218414	fix	2.0		60	attractiveness	136	1.0	2	-1.85	392.8912597978597	0.5167480117515879
74.0	222.65475282393572	face	0.0		147	attractiveness	124	1.0	2		393.40800780961126	1.2334597404465057
74.0	223.88821256438223	rating	1.0		77	attractiveness	124	1.0	2		394.64146755005777	0.6500716454547728
74.0	224.538284209837	fix	2.0		60	attractiveness	124	1.0	2	4.0	395.29153919551254	0.5167507284531894
75.0	225.0550349382902	face	0.0		147	attractiveness	034	1.0	2		395.80828992396573	1.2334573256007388
75.0	226.28849226389093	rating	1.0		142	attractiveness	034	1.0	2		397.04174724956647	1.1918474203862388
75.0	227.48033968427717	fix	2.0		60	attractiveness	034	1.0	2	0.33000000000000007	398.2335946699527	0.5167145057671405
76.0	227.9970541900443	face	0.0		147	attractiveness	042	1.0	2		398.75030917571985	1.2334521940533705
76.0	229.23050638409768	rating	1.0		37	attractiveness	042	1.0	2		399.9837613697732	0.3167006807752841
76.0	229.54720706487296	fix	2.0		60	attractiveness	042	1.0	2	-1.1800000000000002	400.3004620505485	0.5167519358760728
77.0	230.06395900074904	face	0.0		147	attractiveness	024	1.0	2		400.8172139864246	1.2334579293119532
77.0	231.297416930061	rating	1.0		57	attractiveness	024	1.0	2		402.05067191573653	0.48338782332166375
77.0	231.78080475338265	fix	2.0		60	attractiveness	024	1.0	2	1.1100000000000003	402.5340597390582	0.5167495210303059
78.0	232.29755427441296	face	0.0		147	attractiveness	033	1.0	2		403.0508092600885	1.2334591367348366
78.0	233.5310134111478	rating	1.0		47	attractiveness	033	1.0	2		404.28426839682334	0.4000421390583142
78.0	233.9310555502061	fix	2.0		60	attractiveness	033	1.0	2	-0.81	404.68431053588165	0.5167570674234412
79.0	234.44781261762955	face	0.0		147	attractiveness	027	1.0	2		405.2010676033051	1.233462759003487
79.0	235.68127537663304	rating	1.0		45	attractiveness	027	1.0	2		406.4345303623086	0.383362195771042
79.0	236.06463757240408	fix	2.0		60	attractiveness	027	1.0	2	1.6500000000000004	406.8178925580796	0.5000641443398308
80.0	236.5647017167439	cue	0.0		480						407.31795670241945	4.0004687819309765
80.0	240.5651704986749	fix	1.0		120						411.3184254843504	1.0168565288827267
80.0	241.58202702755761	face	0.0		147	dominance	117	1.0	2		412.33528201323315	1.2334123490982165
80.0	242.81543937665583	rating	1.0		616	dominance	117	1.0	2		413.56869436233137	5.142275165032061
80.0	247.9577145416879	fix	2.0		60	dominance	117	1.0	2	1.4400000000000004	418.71096952736343	0.5167446913392268
81.0	248.47445923302712	face	0.0		147	dominance	064	1.0	2		419.22771421870266	1.2334579293119532
81.0	249.70791716233907	rating	1.0		37	dominance	064	1.0	2		420.4611721480146	0.31670551046681794
81.0	250.0246226728059	fix	2.0		60	dominance	064	1.0	2	0.8799999999999999	420.77787765848143	0.5167510303090239
82.0	250.5413737031149	face	0.0		147	dominance	100	1.0	2		421.29462868879045	1.233495057565051
82.0	251.77486876067996	rating	1.0		94	dominance	100	1.0	2		422.5281237463555	0.7917581918359247
82.0	252.5666269525159	fix	2.0		60	dominance	100	1.0	2	-0.6299999999999999	423.31988193819143	0.5167093742202269
83.0	253.08333632673612	face	0.0		147	dominance	011	1.0	2		423.83659131241166	1.2334585330231675
83.0	254.31679485975928	rating	1.0		55	dominance	011	1.0	2		425.0700498454348	0.46671723756162464
83.0	254.7835120973209	fix	2.0		60	dominance	011	1.0	2	1.0599999999999996	425.53676708299645	0.5167788010348886
84.0	255.3002908983558	face	0.0		147	dominance	066	1.0	2		426.05354588403134	1.2334325734318554
84.0	256.53372347178765	rating	1.0		46	dominance	066	1.0	2		427.2869784574632	0.3917082045290954
84.0	256.92543167631675	fix	2.0		60	dominance	066	1.0	2	1.6900000000000004	427.6786866619923	0.5167462006174901
85.0	257.44217787693424	face	0.0		147	dominance	101	1.0	2		428.1954328626098	1.233469097973284
85.0	258.6756469749075	rating	1.0		105	dominance	101	1.0	2		429.42890196058306	0.8834272456783765
85.0	259.5590742205859	fix	2.0		60	dominance	101	1.0	2	1.33	430.31232920626144	0.5167513321648585
86.0	260.07582555275076	face	0.0		147	dominance	099	1.0	2		430.8290805384263	1.2334579293119532
86.0	261.3092834820627	rating	1.0		67	dominance	099	1.0	2		432.06253846773825	0.5667316964504607
86.0	261.87601517851317	fix	2.0		54	dominance	099	1.0	2	1.58	432.6292701641887	0.5167637082490728
87.0	262.39277888676224	face	0.0		147	dominance	005	1.0	2		433.1460338724378	1.233443138381972
87.0	263.6262220251442	rating	1.0		46	dominance	005	1.0	2		434.37947701081976	0.3917124305089601
87.0	264.0179344556532	fix	2.0		60	dominance	005	1.0	2	-1.2200000000000002	434.7711894413287	0.5167510303090239
88.0	264.5346854859622	face	0.0		147	dominance	009	1.0	2		435.28794047163774	1.2334615515806036
88.0	265.7681470375428	rating	1.0		107	dominance	009	1.0	2		436.52140202321834	0.9001274132988328
88.0	266.66827445084164	fix	2.0		60	dominance	009	1.0	2	2.54	437.4215294365172	0.5167344282444901
89.0	267.1850088790861	face	0.0		147	dominance	082	1.0	2		437.93826386476167	1.2334452513719043
89.0	268.41845413045803	rating	1.0		183	dominance	082	1.0	2		439.17170911613357	1.5335094560832658
89.0	269.9519635865413	fix	2.0		60	dominance	082	1.0	2	-1.0699999999999998	440.70521857221684	0.5167649156719563
90.0	270.46872850221325	face	0.0		147	dominance	042	1.0	2		441.2219834878888	1.2334449495160698
90.0	271.7021734517293	rating	1.0		48	dominance	042	1.0	2		442.45542843740486	0.40837999771201794
90.0	272.11055344944134	fix	2.0		60	dominance	042	1.0	2	0.8099999999999996	442.8638084351169	0.5167513321648585
91.0	272.6273047816062	face	0.0		147	dominance	124	1.0	2		443.38055976728174	1.233457325600284
91.0	273.8607621072065	rating	1.0		184	dominance	124	1.0	2		444.614017092882	1.5418442961795336
91.0	275.402606403386	fix	2.0		60	dominance	124	1.0	2	3.5599999999999996	446.15586138906156	0.5167522377319074
92.0	275.9193586411179	face	0.0		147	dominance	043	1.0	2		446.67261362679346	1.233454910754972
92.0	277.1528135518729	rating	1.0		131	dominance	043	1.0	2		447.90606853754844	1.1001285603506403
92.0	278.25294211222354	fix	2.0		60	dominance	043	1.0	2	-0.6000000000000001	449.0061970978991	0.5167585767017044
93.0	278.76970068892524	face	0.0		147	dominance	102	1.0	2		449.5229556746008	1.2334926427197388
93.0	280.003193331645	rating	1.0		154	dominance	102	1.0	2		450.7564483173205	1.2917752466842103
93.0	281.2949685783292	fix	2.0		60	dominance	102	1.0	2	-1.58	452.04822356400473	0.5167477098962081
94.0	281.8117162882254	face	0.0		147	dominance	062	1.0	2		452.56497127390094	1.233459740446051
94.0	283.04517602867145	rating	1.0		50	dominance	062	1.0	2		453.798431014347	0.4250523946066096
94.0	283.47022842327806	fix	2.0		60	dominance	062	1.0	2	-1.58	454.2234834089536	0.5167446913387721
95.0	283.98697311461683	face	0.0		147	dominance	030	1.0	2		454.74022810029237	1.233458834879002
95.0	285.22043194949583	rating	1.0		213	dominance	030	1.0	2		455.9736869351714	1.7835398680467733
95.0	287.0039718175426	fix	2.0		60	dominance	030	1.0	2	0.8300000000000001	457.75722680321815	0.516751634020693
96.0	287.5207234515633	face	0.0		147	dominance	091	1.0	2		458.27397843723884	1.2334573256007388
96.0	288.75418077716404	rating	1.0		46	dominance	091	1.0	2		459.5074357628396	0.39171061937440754
96.0	289.14589139653845	fix	2.0		60	dominance	091	1.0	2	-1.1099999999999999	459.899146382214	0.5167507284536441
97.0	289.6626421249921	face	0.0		147	dominance	130	1.0	2		460.41589711066763	1.2334579293119532
97.0	290.89610005430404	rating	1.0		120	dominance	130	1.0	2		461.6493550399796	1.0084492434134518
97.0	291.9045492977175	fix	2.0		60	dominance	130	1.0	2	-1.4700000000000002	462.65780428339303	0.5167709527868283
98.0	292.4213202505043	face	0.0		147	dominance	034	1.0	2		463.17457523617986	1.2334449495160698
98.0	293.6547652000204	rating	1.0		232	dominance	034	1.0	2		464.40802018569593	1.9418882463719456
98.0	295.59665344639234	fix	2.0		60	dominance	034	1.0	2	-0.7999999999999998	466.3499084320679	0.5167477098962081
99.0	296.11340115628855	face	0.0		147	dominance	012	1.0	2		466.8666561419641	1.2334585330236223
99.0	297.34685968931217	rating	1.0		45	dominance	012	1.0	2		468.1001146749877	0.38337698670102327
99.0	297.7302366760132	fix	2.0		60	dominance	012	1.0	2	1.1500000000000004	468.48349166168873	0.5167510303090239
100.0	298.2469877063222	face	0.0		147	dominance	024	1.0	2		469.00024269199776	1.233461853436438
100.0	299.48044955975865	rating	1.0		253	dominance	024	1.0	2		470.2337045454342	2.1169087197363297
100.0	301.597358279495	fix	2.0		60	dominance	024	1.0	2	0.9699999999999998	472.3506132651705	0.5167519358760728
101.0	302.11411021537106	face	0.0		147	dominance	038	1.0	2		472.8673652010466	1.2334546088991374
101.0	303.3475648242702	rating	1.0		70	dominance	038	1.0	2		474.10081980994573	0.5917407445754179
101.0	303.9393055688456	fix	2.0		60	dominance	038	1.0	2	-1.3399999999999999	474.69256055452115	0.5167510303090239
102.0	304.45605659915464	face	0.0		147	dominance	121	1.0	2		475.2093115848302	1.2334530996204194
102.0	305.68950969877505	rating	1.0		243	dominance	121	1.0	2		476.4427646844506	2.0335760152693183
102.0	307.7230857140444	fix	2.0		60	dominance	121	1.0	2	0.5099999999999998	478.4763406997199	0.5167437857717232
103.0	308.2398294998161	face	0.0		147	dominance	092	1.0	2		478.99308448549164	1.2334645701380396
103.0	309.47329406995414	rating	1.0		146	dominance	092	1.0	2		480.2265490556297	1.2251354652998998
103.0	310.69842953525404	fix	2.0		60	dominance	092	1.0	2	-0.8999999999999999	481.4516845209296	0.5167492191744714
104.0	311.2151787544285	face	0.0		147	dominance	137	1.0	2		481.96843374010405	1.2334573256007388
104.0	312.44863608002925	rating	1.0		90	dominance	137	1.0	2		483.2018910657048	0.7584197370174479
104.0	313.2070558170467	fix	2.0		60	dominance	137	1.0	2	1.3099999999999996	483.96031080272223	0.516803553203772
105.0	313.72385937025047	face	0.0		147	dominance	006	1.0	2		484.477114355926	1.2334051045613705
105.0	314.95726447481184	rating	1.0		122	dominance	006	1.0	2		485.7105194604874	1.0251183198952276
105.0	315.98238279470706	fix	2.0		60	dominance	006	1.0	2	-1.19	486.7356377803826	0.5167507284531894
106.0	316.49913352316025	face	0.0		147	dominance	136	1.0	2		487.2523885088358	1.2334591367352914
106.0	317.73259265989554	rating	1.0		93	dominance	136	1.0	2		488.4858476455711	0.7834227480279878
106.0	318.51601540792353	fix	2.0		60	dominance	136	1.0	2	-1.08	489.2692703935991	0.5167564637117721
107.0	319.0327718716353	face	0.0		147	dominance	044	1.0	2		489.78602685731084	1.233450986630487
107.0	320.2662228582658	rating	1.0		171	dominance	044	1.0	2		491.01947784394133	1.433500430597178
107.0	321.69972328886297	fix	2.0		60	dominance	044	1.0	2	1.2300000000000004	492.4529782745385	0.5167513321648585
108.0	322.2164746210278	face	0.0		147	dominance	126	1.0	2		492.96972960670337	1.2334576274561186
108.0	323.44993224848395	rating	1.0		47	dominance	126	1.0	2		494.2031872341595	0.4000445539040811
108.0	323.849976802388	fix	2.0		60	dominance	126	1.0	2	1.4699999999999998	494.60323178806357	0.5167564637122268
109.0	324.36673326610025	face	0.0		147	dominance	033	1.0	2		495.1199882517758	1.233451892197536
109.0	325.6001851582978	rating	1.0		172	dominance	033	1.0	2		496.35344014397333	1.4418331577035133
109.0	327.0420183160013	fix	2.0		61	dominance	033	1.0	2	0.79	497.79527330167684	0.5250882852515133
110.0	327.5671066012528	face	0.0		146	dominance	061	1.0	2		498.32036158692836	1.2251209762252984
110.0	328.7922275774781	rating	1.0		144	dominance	061	1.0	2		499.54548256315366	1.2084736333558794
110.0	330.000701210834	fix	2.0		60	dominance	061	1.0	2	0.9299999999999997	500.75395619650953	0.5167510303090239
111.0	330.517452241143	face	0.0		147	dominance	144	1.0	2		501.27070722681856	1.233454910754972
111.0	331.750907151898	rating	1.0		120	dominance	144	1.0	2		502.50416213757353	1.0084519601150532
111.0	332.75935911201304	fix	2.0		60	dominance	144	1.0	2	-0.5299999999999998	503.5126140976886	0.516750124741975
112.0	333.276109236755	face	0.0		147	dominance	172	1.0	2		504.02936422243056	1.2334579293119532
112.0	334.509567166067	rating	1.0		43	dominance	172	1.0	2		505.2628221517425	0.36675620713458557
112.0	334.87632337320156	fix	2.0		60	dominance	172	1.0	2	1.2300000000000004	505.6295783588771	0.5167015259712571
113.0	335.3930248991728	face	0.0		147	dominance	036	1.0	2		506.14627988484835	1.2334579293119532
113.0	336.62648282848477	rating	1.0		48	dominance	036	1.0	2		507.3797378141603	0.40838090327906684
113.0	337.03486373176383	fix	2.0		60	dominance	036	1.0	2	-0.8399999999999999	507.7881187174394	0.5167465024733247
114.0	337.55161023423716	face	0.0		147	dominance	070	1.0	2		508.3048652199127	1.2334983779783215
114.0	338.7851086122155	rating	1.0		108	dominance	070	1.0	2		509.538363597891	0.9083979581268977
114.0	339.6935065703424	fix	2.0		60	dominance	070	1.0	2	0.9900000000000002	510.4467615560179	0.5167510303090239
115.0	340.2102576006514	face	0.0		147	dominance	027	1.0	2		510.96351258632694	1.2334591367352914
115.0	341.4437167373867	rating	1.0		61	dominance	027	1.0	2		512.1969717230622	0.5167256744284714
115.0	341.96044241181517	fix	2.0		60	dominance	027	1.0	2	0.5999999999999996	512.7136973974907	0.5167483136074225
116.0	342.4771907254226	face	0.0		147	dominance	141	1.0	2		513.2304457110981	1.2334597404465057
116.0	343.7106504658691	rating	1.0		231	dominance	141	1.0	2		514.4639054515446	1.9335573304001628
116.0	345.64420779626926	fix	2.0		60	dominance	141	1.0	2	1.04	516.3974627819448	0.516750124741975
117.0	346.16095792101123	face	0.0		147	dominance	018	1.0	2		516.9142129066868	1.2334866056053215
117.0	347.39444452661655	rating	1.0		57	dominance	018	1.0	2		518.1476995122921	0.4833609581623932
117.0	347.87780548477895	fix	2.0		60	dominance	018	1.0	2	-0.9900000000000002	518.6310604704545	0.5167537470106254
118.0	348.3945592317896	face	0.0		147	dominance	087	1.0	2		519.1478142174651	1.2334537033316337
118.0	349.6280129351212	rating	1.0		133	dominance	087	1.0	2		520.3812679207967	1.116796429409078
118.0	350.7448093645303	fix	2.0		60	dominance	087	1.0	2	-0.4700000000000002	521.4980643502058	0.5167498228861405
119.0	351.2615591874164	face	0.0		147	dominance	039	1.0	2		522.014814173092	1.2334582311677877
119.0	352.4950174185842	rating	1.0		55	dominance	039	1.0	2		523.2482724042598	0.4667184449845081
119.0	352.9617358635687	fix	2.0		60	dominance	039	1.0	2	1.21	523.7149908492443	0.5000611257828496
120.0	353.46179698935157	cue	0.0		3600						524.2150519750271	30.00357155686015
120.0	383.4653685462117	fix	1.0		120						554.2186235318873	1.0000860288796503
120.0	384.46545457509137	cue	0.0		480						555.2187095607669	4.000468781930522
120.0	388.4659233570219	fix	1.0		120						559.2191783426974	1.0167997800076591
120.0	389.48272313702955	face	0.0		147	attractiveness	018	2.0	2		560.2359781227051	1.2334663812721374
120.0	390.7161895183017	rating	1.0		201	attractiveness	018	2.0	2		561.4694445039772	1.683530238849471
120.0	392.39971975715116	fix	2.0		60	attractiveness	018	2.0	2	-0.41000000000000014	563.1529747428267	0.5167434839158886
121.0	392.91646324106705	face	0.0		147	attractiveness	082	2.0	2		563.6697182267426	1.2334582311677877
121.0	394.14992147223484	rating	1.0		48	attractiveness	082	2.0	2		564.9031764579104	0.4083793940008036
121.0	394.55830086623564	fix	2.0		60	attractiveness	082	2.0	2	1.4400000000000004	565.3115558519112	0.5167555581447232
122.0	395.07505642438036	face	0.0		147	attractiveness	070	2.0	2		565.8283114100559	1.2334515903417014
122.0	396.30850801472207	rating	1.0		176	attractiveness	070	2.0	2		567.0617630003976	1.47517915891558
122.0	397.78368717363765	fix	2.0		60	attractiveness	070	2.0	2	-2.1100000000000003	568.5369421593132	0.5167431820600541
123.0	398.3004303556977	face	0.0		147	attractiveness	100	2.0	2		569.0536853413732	1.2334992835453704
123.0	399.53392963924307	rating	1.0		117	attractiveness	100	2.0	2		570.2871846249186	0.9834072930152615
123.0	400.51733693225833	fix	2.0		60	attractiveness	100	2.0	2	0.7599999999999998	571.2705919179339	0.5167483136078772
124.0	401.0340852458662	face	0.0		147	attractiveness	101	2.0	2		571.7873402315417	1.2334917371522351
124.0	402.26757698301844	rating	1.0		65	attractiveness	101	2.0	2		573.020831968694	0.5500285102725684
124.0	402.817605493291	fix	2.0		60	attractiveness	101	2.0	2	1.67	573.5708604789666	0.5167534451547908
125.0	403.3343589384458	face	0.0		147	attractiveness	030	2.0	2		574.0876139241213	1.2334561181778554
125.0	404.56781505662366	rating	1.0		79	attractiveness	030	2.0	2		575.3210700422992	0.6667392126578306
125.0	405.2345542692815	fix	2.0		60	attractiveness	030	2.0	2	1.5999999999999996	575.987809254957	0.5167537470101706
126.0	405.75130801629166	face	0.0		147	attractiveness	033	2.0	2		576.5045630019672	1.233454910754972
126.0	406.98476292704663	rating	1.0		48	attractiveness	033	2.0	2		577.7380179127222	0.4083821107019503
126.0	407.3931450377486	fix	2.0		60	attractiveness	033	2.0	2	-1.12	578.1464000234241	0.5167468043291592
127.0	407.90989184207774	face	0.0		147	attractiveness	011	2.0	2		578.6631468277533	1.2334687961179043
127.0	409.14336063819565	rating	1.0		45	attractiveness	011	2.0	2		579.8966156238712	0.3833766848451887
127.0	409.52673732304083	fix	2.0		60	attractiveness	011	2.0	2	-1.7799999999999998	580.2799923087164	0.5167483136078772
128.0	410.0434856366487	face	0.0		147	attractiveness	092	2.0	2		580.7967406223243	1.2334524959087503
128.0	411.27693813255746	rating	1.0		40	attractiveness	092	2.0	2		582.030193118233	0.34170338993044425
128.0	411.6186415224879	fix	2.0		60	attractiveness	092	2.0	2	-0.9900000000000002	582.3718965081634	0.5167507284531894
129.0	412.1353922509411	face	0.0		147	attractiveness	141	2.0	2		582.8886472366166	1.2334591367348366
129.0	413.36885138767593	rating	1.0		45	attractiveness	141	2.0	2		584.1221063733515	0.38337547742276
129.0	413.7522268650987	fix	2.0		59	attractiveness	141	2.0	2	1.3200000000000003	584.5054818507742	0.5167507284531894
130.0	414.2689775935519	face	0.0		147	attractiveness	042	2.0	2		585.0222325792274	1.2334567218890697
130.0	415.50243431544095	rating	1.0		120	attractiveness	042	2.0	2		586.2556893011165	1.0084492434139065
130.0	416.51088355885486	fix	2.0		60	attractiveness	042	2.0	2	0.3700000000000001	587.2641385445304	0.5167510303090239
131.0	417.0276345891639	face	0.0		147	attractiveness	126	2.0	2		587.7808895748394	1.2334567218890697
131.0	418.26109131105295	rating	1.0		147	attractiveness	126	2.0	2		589.0143462967285	1.2334763425110395
131.0	419.494567653564	fix	2.0		60	attractiveness	126	2.0	2	-0.3700000000000001	590.2478226392395	0.5167537470106254
132.0	420.0113214005746	face	0.0		147	attractiveness	009	2.0	2		590.7645763862502	1.2334546088991374
132.0	421.24477600947375	rating	1.0		99	attractiveness	009	2.0	2		591.9980309951493	0.8334284681936879
132.0	422.07820447766744	fix	2.0		60	attractiveness	009	2.0	2	2.5300000000000002	592.831459463343	0.5167498228861405
133.0	422.5949543005536	face	0.0		147	attractiveness	137	2.0	2		593.3482092862291	1.233498679834156
133.0	423.82845298038774	rating	1.0		99	attractiveness	137	2.0	2		594.5817079660633	0.8333901325177067
133.0	424.66184311290544	fix	2.0		60	attractiveness	137	2.0	2	1.2300000000000004	595.415098098581	0.5167519358760728
134.0	425.1785950487815	face	0.0		147	attractiveness	044	2.0	2		595.931850034457	1.23346034415772
134.0	426.41205539293924	rating	1.0		38	attractiveness	044	2.0	2		597.1653103786148	0.3250340115932886
134.0	426.7370894045325	fix	2.0		60	attractiveness	044	2.0	2	-1.58	597.4903443902081	0.516747106184539
135.0	427.25383651071706	face	0.0		147	attractiveness	034	2.0	2		598.0070914963926	1.2334672868391863
135.0	428.48730379755625	rating	1.0		117	attractiveness	034	2.0	2		599.2405587832318	0.9834386860102313
135.0	429.4707424835665	fix	2.0		60	attractiveness	034	2.0	2	-1.1099999999999999	600.223997469242	0.5167501247415203
136.0	429.987492608308	face	0.0		147	attractiveness	130	2.0	2		600.7407475939835	1.2334573256007388
136.0	431.22094993390874	rating	1.0		85	attractiveness	130	2.0	2		601.9742049195843	0.716750064370899
136.0	431.93769999827964	fix	2.0		60	attractiveness	130	2.0	2	-1.21	602.6909549839552	0.5167489173190916
137.0	432.45444891559873	face	0.0		147	attractiveness	099	2.0	2		603.2077039012743	1.2334591367348366
137.0	433.68790805233357	rating	1.0		181	attractiveness	099	2.0	2		604.4411630380091	1.5168415870243734
137.0	435.20474963935794	fix	2.0		60	attractiveness	099	2.0	2	-0.7999999999999998	605.9580046250335	0.516748615463257
138.0	435.7214982548212	face	0.0		147	attractiveness	102	2.0	2		606.4747532404967	1.233461249724769
138.0	436.95495950454597	rating	1.0		57	attractiveness	102	2.0	2		607.7082144902215	0.4833866158987803
138.0	437.43834612044475	fix	2.0		60	attractiveness	102	2.0	2	-2.3899999999999997	608.1916011061203	0.5167975160898095
139.0	437.95514363653456	face	0.0		147	attractiveness	091	2.0	2		608.7083986222101	1.2334120472428367
139.0	439.1885556837774	rating	1.0		68	attractiveness	091	2.0	2		609.9418106694529	0.5750650272680105
139.0	439.7636207110454	fix	2.0		60	attractiveness	091	2.0	2	0.5999999999999996	610.516875696721	0.5167812158806555
140.0	440.28040192692606	face	0.0		147	attractiveness	136	2.0	2		611.0336569126016	1.233428951163205
140.0	441.51383087808927	rating	1.0		57	attractiveness	136	2.0	2		612.2670858637648	0.4833860121871112
140.0	441.9972168902764	fix	2.0		60	attractiveness	136	2.0	2	-1.38	612.7504718759519	0.516750124741975
141.0	442.51396701501835	face	0.0		147	attractiveness	027	2.0	2		613.2672220006939	1.2334582311677877
141.0	443.74742524618614	rating	1.0		121	attractiveness	027	2.0	2		614.5006802318617	1.0167822723756217
141.0	444.76420751856176	fix	2.0		60	attractiveness	027	2.0	2	1.38	615.5174625042373	0.5167576711351103
142.0	445.2809651896969	face	0.0		147	attractiveness	012	2.0	2		616.0342201753724	1.2334425346703028
142.0	446.5144077243672	rating	1.0		74	attractiveness	012	2.0	2		617.2676627100427	0.6250807086726127
142.0	447.1394884330398	fix	2.0		60	attractiveness	012	2.0	2	1.08	617.8927434187153	0.5167504265978096
143.0	447.6562388596376	face	0.0		147	attractiveness	066	2.0	2		618.4094938453131	1.2334778517893028
143.0	448.8897167114269	rating	1.0		88	attractiveness	066	2.0	2		619.6429716971024	0.7417319454812059
143.0	449.6314486569081	fix	2.0		60	attractiveness	066	2.0	2	1.5599999999999996	620.3847036425836	0.5167504265978096
144.0	450.1481990835059	face	0.0		147	attractiveness	087	2.0	2		620.9014540691815	1.2334564200332352
144.0	451.38165550353915	rating	1.0		58	attractiveness	087	2.0	2		622.1349104892147	0.4917238708408149
144.0	451.87337937437997	fix	2.0		60	attractiveness	087	2.0	2	-1.96	622.6266343600555	0.5167480117520427
145.0	452.390127386132	face	0.0		147	attractiveness	117	2.0	2		623.1433823718075	1.2334678905504006
145.0	453.6235952766824	rating	1.0		56	attractiveness	117	2.0	2		624.376850262358	0.4750451349764262
145.0	454.09864041165883	fix	2.0		60	attractiveness	117	2.0	2	1.0	624.8518953973344	0.5167507284531894
146.0	454.615391140112	face	0.0		147	attractiveness	144	2.0	2		625.3686461257876	1.2334588348794568
146.0	455.8488499749915	rating	1.0		85	attractiveness	144	2.0	2		626.602104960667	0.716747951380512
146.0	456.565597926372	fix	2.0		60	attractiveness	144	2.0	2	0.8799999999999999	627.3188529120475	0.5167492191749261
147.0	457.0823471455469	face	0.0		147	attractiveness	039	2.0	2		627.8356021312225	1.2334959631325546
147.0	458.3158431086795	rating	1.0		63	attractiveness	039	2.0	2		629.069098094355	0.5333567170896458
147.0	458.8491998257691	fix	2.0		60	attractiveness	039	2.0	2	-0.5099999999999998	629.6024548114447	0.5167525395872872
148.0	459.3659523653564	face	0.0		147	attractiveness	006	2.0	2		630.119207351032	1.233455514466641
148.0	460.59940787982305	rating	1.0		110	attractiveness	006	2.0	2		631.3526628654986	0.9251059739963239
148.0	461.52451385381937	fix	2.0		60	attractiveness	006	2.0	2	-1.9700000000000002	632.2777688394949	0.5167492191744714
149.0	462.04126307299384	face	0.0		147	attractiveness	024	2.0	2		632.7945180586694	1.2334585330236223
149.0	463.27472160601747	rating	1.0		61	attractiveness	024	2.0	2		634.027976591693	0.5167329189657721
149.0	463.79145452498324	fix	2.0		60	attractiveness	024	2.0	2	0.46999999999999975	634.5447095106588	0.5167498228861405
150.0	464.3082043478694	face	0.0		147	attractiveness	064	2.0	2		635.0614593335449	1.2334518921979907
150.0	465.54165624006737	rating	1.0		410	attractiveness	064	2.0	2		636.2949112257429	3.425398019403474
150.0	468.96705425947084	fix	2.0		60	attractiveness	064	2.0	2	-1.62	639.7203092451464	0.5167528414435765
151.0	469.4838071009144	face	0.0		147	attractiveness	172	2.0	2		640.23706208659	1.2334597404465057
151.0	470.7172668413609	rating	1.0		66	attractiveness	172	2.0	2		641.4705218270365	0.5583935359409224
151.0	471.27566037730185	fix	2.0		61	attractiveness	172	2.0	2	-2.05	642.0289153629774	0.5250891908181075
152.0	471.80074956811995	face	0.0		146	attractiveness	124	2.0	2		642.5540045537955	1.225120372514084
152.0	473.02586994063404	rating	1.0		109	attractiveness	124	2.0	2		643.7791249263096	0.9167720394671051
152.0	473.94264198010114	fix	2.0		60	attractiveness	124	2.0	2	4.0	644.6958969657767	0.5167519358760728
153.0	474.4593939159772	face	0.0		147	attractiveness	043	2.0	2		645.2126489016528	1.2334561181778554
153.0	475.6928500341551	rating	1.0		170	attractiveness	043	2.0	2		646.4461050198306	1.4251948705054929
153.0	477.11804490466056	fix	2.0		60	attractiveness	043	2.0	2	-0.8300000000000001	647.8712998903361	0.5167193354586743
154.0	477.63476424011924	face	0.0		147	attractiveness	005	2.0	2		648.3880192257948	1.2334600423018856
154.0	478.8682242824211	rating	1.0		180	attractiveness	005	2.0	2		649.6214792680967	1.5085070487839403
154.0	480.37673133120506	fix	2.0		60	attractiveness	005	2.0	2	-1.13	651.1299863168806	0.5167534451547908
155.0	480.89348477635986	face	0.0		147	attractiveness	038	2.0	2		651.6467397620354	1.233459740446051
155.0	482.1269445168059	rating	1.0		71	attractiveness	038	2.0	2		652.8801995024814	0.6000659252890728
155.0	482.727010442095	fix	2.0		60	attractiveness	038	2.0	2	-3.71	653.4802654277705	0.5167513321648585
156.0	483.24376177425984	face	0.0		147	attractiveness	061	2.0	2		653.9970167599354	1.2334564200332352
156.0	484.4772181942931	rating	1.0		64	attractiveness	061	2.0	2		655.2304731799686	0.5417259687378646
156.0	485.01894416303094	fix	2.0		60	attractiveness	061	2.0	2	-4.0	655.7721991487065	0.516753143299411
157.0	485.53569730633035	face	0.0		147	attractiveness	036	2.0	2		656.2889522920059	1.233457325600284
157.0	486.76915463193063	rating	1.0		80	attractiveness	036	2.0	2		657.5224096176062	0.6750764675998653
157.0	487.4442310995305	fix	2.0		60	attractiveness	036	2.0	2	0.6699999999999999	658.197486085206	0.5167492191749261
158.0	487.9609803187054	face	0.0		147	attractiveness	121	2.0	2		658.714235304381	1.2334600423018856
158.0	489.1944403610073	rating	1.0		63	attractiveness	121	2.0	2		659.9476953466828	0.5333926379203149
158.0	489.7278329989276	fix	2.0		60	attractiveness	121	2.0	2	-0.98	660.4810879846032	0.5167534451547908
159.0	490.2445864440824	face	0.0		147	attractiveness	062	2.0	2		660.997841429758	1.2334552126103517
159.0	491.47804165669277	rating	1.0		42	attractiveness	062	2.0	2		662.2312966423683	0.35837246641176534
159.0	491.83641412310453	fix	2.0		60	attractiveness	062	2.0	2	-2.1799999999999997	662.5896691087801	0.5000608239274698
160.0	492.336474947032	cue	0.0		480						663.0897299327075	4.000468781930522
160.0	496.3369437289625	fix	1.0		120						667.0901987146381	1.0168169857834073
160.0	497.35376071474593	face	0.0		147	trustworthiness	121	2.0	2		668.1070157004215	1.233453401476254
160.0	498.5872141162222	rating	1.0		72	trustworthiness	121	2.0	2		669.3404691018977	0.6083992561070772
160.0	499.19561337232926	fix	2.0		60	trustworthiness	121	2.0	2	0.21999999999999975	669.9488683580048	0.5167498228861405
161.0	499.7123631952154	face	0.0		147	trustworthiness	038	2.0	2		670.4656181808909	1.2334600423018856
161.0	500.9458232375173	rating	1.0		79	trustworthiness	038	2.0	2		671.6990782231928	0.6667434386376954
161.0	501.612566676155	fix	2.0		60	trustworthiness	038	2.0	2	-3.78	672.3658216618305	0.5167480117520427
162.0	502.129314687907	face	0.0		147	trustworthiness	124	2.0	2		672.8825696735826	1.2334582311677877
162.0	503.3627729190748	rating	1.0		60	trustworthiness	124	2.0	2		674.1160279047504	0.5083905324763691
162.0	503.8711634515512	fix	2.0		60	trustworthiness	124	2.0	2	3.21	674.6244184372267	0.5167534451547908
163.0	504.387916896706	face	0.0		147	trustworthiness	136	2.0	2		675.1411718823815	1.233463362715156
163.0	505.62138025942113	rating	1.0		234	trustworthiness	136	2.0	2		676.3746352450967	1.9585527950175674
163.0	507.5799330544387	fix	2.0		60	trustworthiness	136	2.0	2	-1.0299999999999998	678.3331880401142	0.5167498228861405
164.0	508.09668287732484	face	0.0		147	trustworthiness	091	2.0	2		678.8499378630004	1.2334654757050885
164.0	509.3301483530299	rating	1.0		51	trustworthiness	091	2.0	2		680.0834033387055	0.43337636789692624
164.0	509.76352472092685	fix	2.0		60	trustworthiness	091	2.0	2	1.0999999999999996	680.5167797066024	0.5167507284531894
165.0	510.28027544938004	face	0.0		147	trustworthiness	087	2.0	2		681.0335304350556	1.2334576274565734
165.0	511.5137330768366	rating	1.0		59	trustworthiness	087	2.0	2		682.2669880625122	0.5001033855833157
165.0	512.0138364624199	fix	2.0		60	trustworthiness	087	2.0	2	1.0199999999999996	682.7670914480955	0.5167081667973434
166.0	512.5305446292173	face	0.0		147	trustworthiness	061	2.0	2		683.2837996148928	1.2334540051874683
166.0	513.7639986344047	rating	1.0		50	trustworthiness	061	2.0	2		684.5172536200803	0.4250460556363578
166.0	514.1890446900411	fix	2.0		60	trustworthiness	061	2.0	2	-4.0	684.9422996757166	0.5167513321648585
167.0	514.705796022206	face	0.0		147	trustworthiness	144	2.0	2		685.4590510078815	1.233458834879002
167.0	515.939254857085	rating	1.0		286	trustworthiness	144	2.0	2		686.6925098427605	2.3919454631236476
167.0	518.3312003202086	fix	2.0		60	trustworthiness	144	2.0	2	-0.06000000000000005	689.0844553058841	0.5167552562893434
168.0	518.847955576498	face	0.0		147	trustworthiness	042	2.0	2		689.6012105621735	1.2334512884858668
168.0	520.0814068649838	rating	1.0		68	trustworthiness	042	2.0	2		690.8346618506594	0.5750656309796796
168.0	520.6564724959635	fix	2.0		61	trustworthiness	042	2.0	2	-1.4700000000000002	691.409727481639	0.5250864741169607
169.0	521.1815589700805	face	0.0		146	trustworthiness	099	2.0	2		691.934813955756	1.2251236929268998
169.0	522.4066826630074	rating	1.0		69	trustworthiness	099	2.0	2		693.1599376486829	0.5833971506631315
169.0	522.9900798136705	fix	2.0		60	trustworthiness	099	2.0	2	1.7199999999999998	693.743334799346	0.5167555581447232
170.0	523.5068353718152	face	0.0		147	trustworthiness	043	2.0	2		694.2600903574908	1.2334609478693892
170.0	524.7402963196846	rating	1.0		96	trustworthiness	043	2.0	2		695.4935513053601	0.8084266646060314
170.0	525.5487229842906	fix	2.0		60	trustworthiness	043	2.0	2	1.5499999999999998	696.3019779699662	0.5167425783488397
171.0	526.0654655626395	face	0.0		147	trustworthiness	172	2.0	2		696.818720548315	1.2334582311677877
171.0	527.2989237938073	rating	1.0		149	trustworthiness	172	2.0	2		698.0521787794828	1.2501454189923606
171.0	528.5490692127996	fix	2.0		60	trustworthiness	172	2.0	2	-1.75	699.3023241984752	0.5167546525776743
172.0	529.0658238653773	face	0.0		147	trustworthiness	070	2.0	2		699.8190788510528	1.233452495909205
172.0	530.2992763612865	rating	1.0		86	trustworthiness	070	2.0	2		701.052531346962	0.7250830933326142
172.0	531.0243594546191	fix	2.0		60	trustworthiness	070	2.0	2	-2.9699999999999998	701.7776144402947	0.5167492191749261
173.0	531.541108673794	face	0.0		147	trustworthiness	024	2.0	2		702.2943636594696	1.2334573256007388
173.0	532.7745659993948	rating	1.0		49	trustworthiness	024	2.0	2		703.5278209850703	0.4167688699817518
173.0	533.1913348693765	fix	2.0		60	trustworthiness	024	2.0	2	1.8499999999999996	703.9445898550521	0.5166954888568398
174.0	533.7080303582334	face	0.0		147	trustworthiness	117	2.0	2		704.4612853439089	1.2334660794163028
174.0	534.9414964376497	rating	1.0		60	trustworthiness	117	2.0	2		705.6947514233252	0.5083911361880382
174.0	535.4498875738377	fix	2.0		60	trustworthiness	117	2.0	2	1.1799999999999997	706.2031425595133	0.5167492191749261
175.0	535.9666367930126	face	0.0		147	trustworthiness	018	2.0	2		706.7198917786882	1.2334506847746525
175.0	537.2000874777873	rating	1.0		52	trustworthiness	018	2.0	2		707.9533424634628	0.4417190562421638
175.0	537.6418065340295	fix	2.0		60	trustworthiness	018	2.0	2	0.7800000000000002	708.395061519705	0.5167474080403736
176.0	538.1585539420698	face	0.0		147	trustworthiness	006	2.0	2		708.9118089277454	1.2334645701375848
176.0	539.3920185122074	rating	1.0		103	trustworthiness	006	2.0	2		710.145273497883	0.8667605840428223
176.0	540.2587790962502	fix	2.0		60	trustworthiness	006	2.0	2	-1.92	711.0120340819258	0.5167591804133735
177.0	540.7755382766636	face	0.0		147	trustworthiness	066	2.0	2		711.5287932623391	1.2334485717847201
177.0	542.0089868484483	rating	1.0		45	trustworthiness	066	2.0	2		712.7622418341239	0.3833757792781398
177.0	542.3923626277265	fix	2.0		60	trustworthiness	066	2.0	2	1.3200000000000003	713.145617613402	0.5167528414435765
178.0	542.90911546917	face	0.0		147	trustworthiness	141	2.0	2		713.6623704548456	1.2334564200332352
178.0	544.1425718892033	rating	1.0		37	trustworthiness	141	2.0	2		714.8958268748788	0.3166991714965661
178.0	544.4592710606998	fix	2.0		60	trustworthiness	141	2.0	2	0.7400000000000002	715.2125260463754	0.5167540488664599
179.0	544.9760251095663	face	0.0		147	trustworthiness	005	2.0	2		715.7292800952418	1.2334561181774006
179.0	546.2094812277437	rating	1.0		179	trustworthiness	005	2.0	2		716.9627362134192	1.5001731142547214
179.0	547.7096543419984	fix	2.0		60	trustworthiness	005	2.0	2	0.9699999999999998	718.462909327674	0.5167519358760728
180.0	548.2264062778745	face	0.0		147	trustworthiness	102	2.0	2		718.97966126355	1.2334585330236223
180.0	549.4598648108981	rating	1.0		101	trustworthiness	102	2.0	2		720.2131197965737	0.8500966391079601
180.0	550.3099614500061	fix	2.0		60	trustworthiness	102	2.0	2	-2.42	721.0632164356816	0.5167510303090239
181.0	550.8267124803151	face	0.0		147	trustworthiness	092	2.0	2		721.5799674659906	1.2334591367352914
181.0	552.0601716170504	rating	1.0		238	trustworthiness	092	2.0	2		722.8134266027259	1.9918975888067507
181.0	554.0520692058572	fix	2.0		60	trustworthiness	092	2.0	2	0.7400000000000002	724.8053241915327	0.5167492191744714
182.0	554.5688184250316	face	0.0		147	trustworthiness	039	2.0	2		725.3220734107072	1.2334582311677877
182.0	555.8022766561994	rating	1.0		161	trustworthiness	039	2.0	2		726.555531641875	1.350155651901332
182.0	557.1524323081007	fix	2.0		60	trustworthiness	039	2.0	2	-0.020000000000000018	727.9056872937763	0.5167507284531894
183.0	557.6691830365539	face	0.0		147	trustworthiness	033	2.0	2		728.4224380222295	1.2334585330236223
183.0	558.9026415695776	rating	1.0		176	trustworthiness	033	2.0	2		729.6558965552531	1.47517161252199
183.0	560.3778131820995	fix	2.0		60	trustworthiness	033	2.0	2	-0.7400000000000002	731.1310681677751	0.5167483136078772
184.0	560.8945614957074	face	0.0		147	trustworthiness	009	2.0	2		731.647816481383	1.2334615515806036
184.0	562.128023047288	rating	1.0		50	trustworthiness	009	2.0	2		732.8812780329636	0.4250526964619894
184.0	562.55307574375	fix	2.0		60	trustworthiness	009	2.0	2	0.9900000000000002	733.3063307294256	0.5167516340202383
185.0	563.0698273777703	face	0.0		147	trustworthiness	064	2.0	2		733.8230823634458	1.2334491754963892
185.0	564.3032765532666	rating	1.0		60	trustworthiness	064	2.0	2		735.0565315389422	0.5083917398992526
185.0	564.8116682931659	fix	2.0		60	trustworthiness	064	2.0	2	-1.5499999999999998	735.5649232788414	0.5168017420696742
186.0	565.3284700352356	face	0.0		147	trustworthiness	101	2.0	2		736.0817250209111	1.2334075194071374
186.0	566.5618775546427	rating	1.0		109	trustworthiness	101	2.0	2		737.3151325403182	0.9167711339000562
186.0	567.4786486885428	fix	2.0		60	trustworthiness	101	2.0	2	1.2400000000000002	738.2319036742183	0.5167492191744714
187.0	567.9953979077172	face	0.0		147	trustworthiness	011	2.0	2		738.7486528933928	1.2334606460135547
187.0	569.2288585537308	rating	1.0		268	trustworthiness	011	2.0	2		739.9821135394063	2.2419267933473748
187.0	571.4707853470782	fix	2.0		60	trustworthiness	011	2.0	2	-0.9300000000000002	742.2240403327537	0.5167507284536441
188.0	571.9875360755318	face	0.0		147	trustworthiness	034	2.0	2		742.7407910612073	1.2334555144661863
188.0	573.220991589998	rating	1.0		336	trustworthiness	034	2.0	2		743.9742465756735	2.8086627157777
188.0	576.0296543057757	fix	2.0		60	trustworthiness	034	2.0	2	1.5	746.7829092914512	0.516748615463257
189.0	576.546402921239	face	0.0		147	trustworthiness	126	2.0	2		747.2996579069145	1.2334663812721374
189.0	577.7798693025111	rating	1.0		301	trustworthiness	126	2.0	2		748.5331242881866	2.516952971784576
189.0	580.2968222742957	fix	2.0		60	trustworthiness	126	2.0	2	-0.25	751.0500772599712	0.5167498228861405
190.0	580.8135720971818	face	0.0		147	trustworthiness	027	2.0	2		751.5668270828573	1.2334573256007388
190.0	582.0470294227825	rating	1.0		164	trustworthiness	027	2.0	2		752.8002844084581	1.375161681469308
190.0	583.4221911042519	fix	2.0		60	trustworthiness	027	2.0	2	-0.2400000000000002	754.1754460899274	0.5167540488660052
191.0	583.9389451531179	face	0.0		147	trustworthiness	100	2.0	2		754.6922001387934	1.233454910754972
191.0	585.1724000638728	rating	1.0		92	trustworthiness	100	2.0	2		755.9256550495484	0.775087304220051
191.0	585.9474873680929	fix	2.0		60	trustworthiness	100	2.0	2	-0.52	756.7007423537684	0.516750124741975
192.0	586.4642374928349	face	0.0		147	trustworthiness	012	2.0	2		757.2174924785104	1.2334594385906712
192.0	587.6976969314255	rating	1.0		579	trustworthiness	012	2.0	2		758.4509519171011	4.83390057053748
192.0	592.531597501963	fix	2.0		60	trustworthiness	012	2.0	2	-1.06	763.2848524876385	0.516747106184539
193.0	593.0483446081475	face	0.0		147	trustworthiness	044	2.0	2		763.8015995938231	1.2334582311677877
193.0	594.2818028393153	rating	1.0		282	trustworthiness	044	2.0	2		765.0350578249909	2.3586097250063176
193.0	596.6404125643217	fix	2.0		60	trustworthiness	044	2.0	2	-0.9900000000000002	767.3936675499972	0.516748615463257
194.0	597.1571611797849	face	0.0		147	trustworthiness	082	2.0	2		767.9104161654604	1.2334591367348366
194.0	598.3906203165197	rating	1.0		133	trustworthiness	082	2.0	2		769.1438753021953	1.116795523842029
194.0	599.5074158403618	fix	2.0		60	trustworthiness	082	2.0	2	1.2800000000000002	770.2606708260373	0.5167667268065088
195.0	600.0241825671683	face	0.0		147	trustworthiness	137	2.0	2		770.7774375528438	1.233440723536205
195.0	601.2576232907045	rating	1.0		45	trustworthiness	137	2.0	2		772.01087827638	0.38337608113397437
195.0	601.6409993718385	fix	2.0		60	trustworthiness	137	2.0	2	0.9199999999999999	772.394254357514	0.5167531432989563
196.0	602.1577525151374	face	0.0		147	trustworthiness	030	2.0	2		772.911007500813	1.2334555144661863
196.0	603.3912080296036	rating	1.0		83	trustworthiness	030	2.0	2		774.1444630152791	0.7000812897449578
196.0	604.0912893193486	fix	2.0		60	trustworthiness	030	2.0	2	1.54	774.8445443050241	0.5167570674234412
197.0	604.608046386772	face	0.0		147	trustworthiness	130	2.0	2		775.3613013724475	1.2334506847746525
197.0	605.8414970715467	rating	1.0		72	trustworthiness	130	2.0	2		776.5947520572222	0.608401972808224
197.0	606.4498990443549	fix	2.0		60	trustworthiness	130	2.0	2	1.4000000000000004	777.2031540300304	0.5167528414435765
198.0	606.9666518857985	face	0.0		147	trustworthiness	036	2.0	2		777.719906871474	1.2334564200332352
198.0	608.2001083058317	rating	1.0		99	trustworthiness	036	2.0	2		778.9533632915072	0.8334348071643944
198.0	609.0335431129961	fix	2.0		60	trustworthiness	036	2.0	2	1.92	779.7867980986716	0.5167437857717232
199.0	609.5502868987678	face	0.0		147	trustworthiness	062	2.0	2		780.3035418844433	1.2334594385906712
199.0	610.7837463373585	rating	1.0		112	trustworthiness	062	2.0	2		781.537001323034	0.9417747486218104
199.0	611.7255210859803	fix	2.0		60	trustworthiness	062	2.0	2	-1.81	782.4787760716558	0.5000587109375374
200.0	612.2255797969178	cue	0.0		480						782.9788347825934	4.000469687497571
200.0	616.2260494844154	fix	1.0		120						786.9793044700909	1.0168127598035426
200.0	617.2428622442189	face	0.0		147	dominance	136	2.0	2		787.9961172298945	1.2334540051874683
200.0	618.4763162494064	rating	1.0		82	dominance	136	2.0	2		789.229571235082	0.6917524867631073
200.0	619.1680687361695	fix	2.0		60	dominance	136	2.0	2	1.5700000000000003	789.921323721845	0.5167537470106254
201.0	619.6848224831801	face	0.0		147	dominance	082	2.0	2		790.4380774688557	1.2334488736401
201.0	620.9182713568202	rating	1.0		99	dominance	082	2.0	2		791.6715263424958	0.8334354108756088
201.0	621.7517067676959	fix	2.0		60	dominance	082	2.0	2	-0.9300000000000002	792.5049617533714	0.5167507284531894
202.0	622.268457496149	face	0.0		147	dominance	092	2.0	2		793.0217124818246	1.2334512884863216
202.0	623.5019087846354	rating	1.0		215	dominance	092	2.0	2		794.2551637703109	1.8002158872100154
202.0	625.3021246718454	fix	2.0		60	dominance	092	2.0	2	-1.2400000000000002	796.0553796575209	0.5167519358760728
203.0	625.8188766077214	face	0.0		147	dominance	011	2.0	2		796.572131593397	1.2334506847746525
203.0	627.0523272924961	rating	1.0		120	dominance	011	2.0	2		797.8055822781716	1.0084468285681396
203.0	628.0607741210642	fix	2.0		60	dominance	011	2.0	2	0.9800000000000004	798.8140291067398	0.5167597841245879
204.0	628.5775339051888	face	0.0		147	dominance	027	2.0	2		799.3307888908644	1.2334494773522238
204.0	629.810983382541	rating	1.0		73	dominance	027	2.0	2		800.5642383682166	0.6167374166161608
204.0	630.4277207991572	fix	2.0		60	dominance	027	2.0	2	1.9699999999999998	801.1809757848328	0.5167528414431217
205.0	630.9444736406003	face	0.0		147	dominance	102	2.0	2		801.6977286262759	1.2334555144661863
205.0	632.1779291550665	rating	1.0		139	dominance	102	2.0	2		802.9311841407421	1.1668012440081839
205.0	633.3447303990747	fix	2.0		60	dominance	102	2.0	2	0.4299999999999997	804.0979853847502	0.5167537470101706
206.0	633.8614841460849	face	0.0		147	dominance	044	2.0	2		804.6147391317604	1.2334527977650396
206.0	635.0949369438499	rating	1.0		110	dominance	044	2.0	2		805.8481919295255	0.9251092944091397
206.0	636.020046238259	fix	2.0		60	dominance	044	2.0	2	0.8700000000000001	806.7733012239346	0.5167489173190916
207.0	636.5367951555781	face	0.0		147	dominance	117	2.0	2		807.2900501412537	1.233457325600284
207.0	637.7702524811784	rating	1.0		75	dominance	117	2.0	2		808.523507466854	0.6334073986649855
207.0	638.4036598798434	fix	2.0		60	dominance	117	2.0	2	1.7599999999999998	809.156914865519	0.5167579729904901
208.0	638.9204178528339	face	0.0		147	dominance	141	2.0	2		809.6736728385094	1.2334881148840395
208.0	640.153905967718	rating	1.0		47	dominance	141	2.0	2		810.9071609533935	0.40001708503359623
208.0	640.5539230527515	fix	2.0		60	dominance	141	2.0	2	1.2400000000000002	811.3071780384271	0.5167462006174901
209.0	641.070669253369	face	0.0		147	dominance	130	2.0	2		811.8239242390446	1.233452495909205
209.0	642.3041217492782	rating	1.0		113	dominance	130	2.0	2		813.0573767349538	0.9501068720169314
209.0	643.2542286212952	fix	2.0		60	dominance	130	2.0	2	-0.96	814.0074836069707	0.5167522377319074
210.0	643.7709808590271	face	0.0		147	dominance	070	2.0	2		814.5242358447026	1.2334567218890697
210.0	645.0044375809161	rating	1.0		47	dominance	070	2.0	2		815.7576925665917	0.4000478743168969
210.0	645.404485455233	fix	2.0		60	dominance	070	2.0	2	1.6100000000000003	816.1577404409086	0.5167492191749261
211.0	645.921234674408	face	0.0		147	dominance	064	2.0	2		816.6744896600835	1.2334552126103517
211.0	647.1546898870183	rating	1.0		52	dominance	064	2.0	2		817.9079448726939	0.4417160376851825
211.0	647.5964059247035	fix	2.0		60	dominance	064	2.0	2	1.4699999999999998	818.349660910379	0.5167522377319074
212.0	648.1131581624354	face	0.0		147	dominance	091	2.0	2		818.866413148111	1.2334570237449043
212.0	649.3466151861803	rating	1.0		284	dominance	091	2.0	2		820.0998701718559	2.375276386641872
212.0	651.7218915728222	fix	2.0		60	dominance	091	2.0	2	-1.0299999999999998	822.4751465584977	0.516750124741975
213.0	652.2386416975642	face	0.0		147	dominance	144	2.0	2		822.9918966832397	1.2334582311677877
213.0	653.472099928732	rating	1.0		83	dominance	144	2.0	2		824.2253549144075	0.7000785730433563
213.0	654.1721785017753	fix	2.0		60	dominance	144	2.0	2	0.6799999999999997	824.9254334874508	0.5167534451547908
214.0	654.6889319469301	face	0.0		147	dominance	033	2.0	2		825.4421869326056	1.233455514466641
214.0	655.9223874613967	rating	1.0		119	dominance	033	2.0	2		826.6756424470723	1.0001216478544848
214.0	656.9225091092512	fix	2.0		60	dominance	033	2.0	2	-1.35	827.6757640949268	0.5167449931946066
215.0	657.4392541024458	face	0.0		147	dominance	024	2.0	2		828.1925090881214	1.2334576274561186
215.0	658.672711729902	rating	1.0		113	dominance	024	2.0	2		829.4259667155775	0.9501098905743675
215.0	659.6228216204763	fix	2.0		60	dominance	024	2.0	2	1.5899999999999999	830.3760766061519	0.5167516340202383
216.0	660.1395732544966	face	0.0		147	dominance	172	2.0	2		830.8928282401721	1.23345642003369
216.0	661.3730296745302	rating	1.0		151	dominance	172	2.0	2		832.1262846602058	1.2668129861954185
216.0	662.6398426607257	fix	2.0		60	dominance	172	2.0	2	-0.94	833.3930976464012	0.5167495210303059
217.0	663.156592181756	face	0.0		147	dominance	030	2.0	2		833.9098471674315	1.2334663812721374
217.0	664.3900585630281	rating	1.0		281	dominance	030	2.0	2		835.1433135487036	2.350267640372749
217.0	666.7403262034009	fix	2.0		60	dominance	030	2.0	2	1.0599999999999996	837.4935811890764	0.5167510303090239
218.0	667.2570772337099	face	0.0		147	dominance	126	2.0	2		838.0103322193854	1.2334561181774006
218.0	668.4905333518873	rating	1.0		249	dominance	126	2.0	2		839.2437883375628	2.083575698320601
218.0	670.5741090502079	fix	2.0		60	dominance	126	2.0	2	1.7800000000000002	841.3273640358834	0.516760387836257
219.0	671.0908694380441	face	0.0		147	dominance	018	2.0	2		841.8441244237197	1.2334500810634381
219.0	672.3243195191076	rating	1.0		190	dominance	018	2.0	2		843.0775745047831	1.5918497144898538
219.0	673.9161692335974	fix	2.0		60	dominance	018	2.0	2	-0.7200000000000002	844.669424219273	0.5167477098962081
220.0	674.4329169434936	face	0.0		147	dominance	043	2.0	2		845.1861719291692	1.23346034415772
220.0	675.6663772876514	rating	1.0		237	dominance	043	2.0	2		846.4196322733269	1.9835645598445808
220.0	677.6499418474959	fix	2.0		60	dominance	043	2.0	2	-1.1400000000000001	848.4031968331715	0.5167836307264224
221.0	678.1667254782224	face	0.0		147	dominance	137	2.0	2		848.9199804638979	1.2334307622977576
221.0	679.4001562405201	rating	1.0		153	dominance	137	2.0	2		850.1534112261957	1.2834754218506532
221.0	680.6836316623708	fix	2.0		60	dominance	137	2.0	2	1.5099999999999998	851.4368866480463	0.5167522377319074
222.0	681.2003839001027	face	0.0		147	dominance	124	2.0	2		851.9536388857782	1.2334546088991374
222.0	682.4338385090018	rating	1.0		125	dominance	124	2.0	2		853.1870934946774	1.0501222364732712
222.0	683.4839607454751	fix	2.0		60	dominance	124	2.0	2	3.3099999999999996	854.2372157311506	0.5167513321648585
223.0	684.00071207764	face	0.0		147	dominance	012	2.0	2		854.7539670633155	1.2334600423018856
223.0	685.2341721199418	rating	1.0		142	dominance	012	2.0	2		855.9874271056174	1.1918090847102576
223.0	686.4259812046521	fix	2.0		60	dominance	012	2.0	2	1.37	857.1792361903276	0.5167413709259563
224.0	686.942722575578	face	0.0		147	dominance	042	2.0	2		857.6959775612536	1.2334600423018856
224.0	688.1761826178799	rating	1.0		148	dominance	042	2.0	2		858.9294376035555	1.2418093714732095
224.0	689.4179919893531	fix	2.0		60	dominance	042	2.0	2	1.13	860.1712469750287	0.5167537470106254
225.0	689.9347457363638	face	0.0		147	dominance	036	2.0	2		860.6880007220393	1.2334543070433028
225.0	691.1682000434071	rating	1.0		226	dominance	036	2.0	2		861.9214550290826	1.8919202581710124
225.0	693.0601203015781	fix	2.0		60	dominance	036	2.0	2	-0.69	863.8133752872536	0.5167286929859074
226.0	693.576848994564	face	0.0		147	dominance	062	2.0	2		864.3301039802395	1.2334479680735058
226.0	694.8102969626375	rating	1.0		414	dominance	062	2.0	2		865.563551948313	3.458739190924007
226.0	698.2690361535615	fix	2.0		60	dominance	062	2.0	2	2.13	869.022291139237	0.5167483136074225
227.0	698.7857844671689	face	0.0		147	dominance	061	2.0	2		869.5390394528445	1.233464268282205
227.0	700.0192487354511	rating	1.0		260	dominance	061	2.0	2		870.7725037211267	2.175245657730102
227.0	702.1944943931812	fix	2.0		60	dominance	061	2.0	2	1.88	872.9477493788568	0.5167516340202383
228.0	702.7112460272015	face	0.0		147	dominance	009	2.0	2		873.464501012877	1.2334576274565734
228.0	703.944703654658	rating	1.0		112	dominance	009	2.0	2		874.6979586403336	0.9417744467659759
228.0	704.886478101424	fix	2.0		60	dominance	009	2.0	2	2.2199999999999998	875.6397330870996	0.5167573692792757
229.0	705.4032354707033	face	0.0		147	dominance	039	2.0	2		876.1564904563788	1.2334527977650396
229.0	706.6366882684683	rating	1.0		226	dominance	039	2.0	2		877.3899432541439	1.8918870540419448
229.0	708.5285753225103	fix	2.0		60	dominance	039	2.0	2	0.8300000000000001	879.2818303081858	0.5167489173190916
230.0	709.0453242398294	face	0.0		147	dominance	066	2.0	2		879.7985792255049	1.2334700035407877
230.0	710.2787942433702	rating	1.0		124	dominance	066	2.0	2		881.0320492290457	1.0417756240035487
230.0	711.3205698673737	fix	2.0		60	dominance	066	2.0	2	1.3499999999999996	882.0738248530492	0.5167537470106254
231.0	711.8373236143843	face	0.0		147	dominance	087	2.0	2		882.5905786000599	1.233453401476254
231.0	713.0707770158606	rating	1.0		67	dominance	087	2.0	2		883.8240320015361	0.5667310927387916
231.0	713.6375081085994	fix	2.0		60	dominance	087	2.0	2	-1.94	884.3907630942749	0.5167507284531894
232.0	714.1542588370526	face	0.0		147	dominance	005	2.0	2		884.9075138227281	1.2334814740579532
232.0	715.3877403111105	rating	1.0		105	dominance	005	2.0	2		886.1409952967861	0.8834121528925607
232.0	716.2711524640031	fix	2.0		60	dominance	005	2.0	2	-1.2799999999999998	887.0244074496786	0.5167495210303059
233.0	716.7879019850334	face	0.0		147	dominance	038	2.0	2		887.5411569707089	1.2334585330236223
233.0	718.021360518057	rating	1.0		99	dominance	038	2.0	2		888.7746155037325	0.833427562626639
233.0	718.8547880806836	fix	2.0		60	dominance	038	2.0	2	1.4400000000000004	889.6080430663592	0.516751634020693
234.0	719.3715397147043	face	0.0		147	dominance	121	2.0	2		890.1247947003799	1.2334585330231675
234.0	720.6049982477275	rating	1.0		72	dominance	121	2.0	2		891.358253233403	0.608401067241175
234.0	721.2133993149687	fix	2.0		60	dominance	121	2.0	2	1.0999999999999996	891.9666543006442	0.516751634020693
235.0	721.7301509489894	face	0.0		147	dominance	099	2.0	2		892.4834059346649	1.2334561181774006
235.0	722.9636070671668	rating	1.0		50	dominance	099	2.0	2		893.7168620528423	0.42504726305924123
235.0	723.388654330226	fix	2.0		60	dominance	099	2.0	2	1.9400000000000004	894.1419093159016	0.5167507284531894
236.0	723.9054050586792	face	0.0		147	dominance	101	2.0	2		894.6586600443547	1.2334597404465057
236.0	725.1388647991257	rating	1.0		57	dominance	101	2.0	2		895.8921197848013	0.4833875214658292
236.0	725.6222523205915	fix	2.0		60	dominance	101	2.0	2	2.29	896.3755073062671	0.5167501247415203
237.0	726.1390024453331	face	0.0		147	dominance	006	2.0	2		896.8922574310086	1.23345642003369
237.0	727.3724588653668	rating	1.0		416	dominance	006	2.0	2		898.1257138510423	3.475413700808531
237.0	730.8478725661753	fix	2.0		60	dominance	006	2.0	2	0.8399999999999999	901.6011275518508	0.516748615463257
238.0	731.3646211816385	face	0.0		147	dominance	100	2.0	2		902.1178761673141	1.2334537033320885
238.0	732.5980748849706	rating	1.0		79	dominance	100	2.0	2		903.3513298706462	0.6667419293589774
238.0	733.2648168143296	fix	2.0		60	dominance	100	2.0	2	1.21	904.0180718000051	0.516745596905821
239.0	733.7815624112354	face	0.0		147	dominance	034	2.0	2		904.534817396911	1.2334630608593216
239.0	735.0150254720947	rating	1.0		37	dominance	034	2.0	2		905.7682804577703	0.3167018881981676
239.0	735.3317273602929	fix	2.0		60	dominance	034	2.0	2	0.96	906.0849823459685	0.5000578053700337
