trial_nr	onset	event_type	phase	response	nr_frames	face_age	face_sex	face_eth	attractiveness	expression	face_id	sub_id	ses	run	trial_type	catch	rating_type	onset_abs	duration
-1.0	0.05917670060080127	fix	0.0		713													23.777448419648863	5.9579958712201915
-1.0	0.7006946605652047	pulse	0.0	t														24.418966379613266	
-1.0	1.4007137680309825	pulse	0.0	t														25.118985487079044	
-1.0	2.1006945398221433	pulse	0.0	t														25.818966258870205	
-1.0	2.8006765190366423	pulse	0.0	t														26.518948238084704	
-1.0	3.5006551778351422	pulse	0.0	t														27.218926896883204	
-1.0	4.200636251483957	pulse	0.0	t														27.91890797053202	
-1.0	4.900634229048592	pulse	0.0	t														28.618905948096653	
-1.0	5.600616208263091	pulse	0.0	t														29.318887927311152	
0.0	6.017172571820993	face	0.0		144	25.0	female	west_asian	2.6756864305610826	neutral	064	sub-10	2.0	6.0	064_neutral	0.0		29.735444290869054	1.2333103218661563
0.0	6.300606337583304	pulse	0.0	t		25.0	female	west_asian	2.6756864305610826	neutral	064	sub-10	2.0	6.0	064_neutral	0.0		30.018878056631365	
0.0	7.000594957622525	pulse	0.0	t		25.0	female	west_asian	2.6756864305610826	neutral	064	sub-10	2.0	6.0	064_neutral	0.0		30.718866676670586	
0.0	7.250482893687149	fix	1.0		444	25.0	female	west_asian	2.6756864305610826	neutral	064	sub-10	2.0	6.0	064_neutral	0.0		30.96875461273521	3.7582639794636634
0.0	7.700595651887852	pulse	1.0	t		25.0	female	west_asian	2.6756864305610826	neutral	064	sub-10	2.0	6.0	064_neutral	0.0		31.418867370935914	
0.0	8.40056978285429	pulse	1.0	t		25.0	female	west_asian	2.6756864305610826	neutral	064	sub-10	2.0	6.0	064_neutral	0.0		32.11884150190235	
0.0	9.10056745856491	pulse	1.0	t		25.0	female	west_asian	2.6756864305610826	neutral	064	sub-10	2.0	6.0	064_neutral	0.0		32.81883917761297	
0.0	9.800559097162477	pulse	1.0	t		25.0	female	west_asian	2.6756864305610826	neutral	064	sub-10	2.0	6.0	064_neutral	0.0		33.51883081621054	
0.0	10.500535642971954	pulse	1.0	t		25.0	female	west_asian	2.6756864305610826	neutral	064	sub-10	2.0	6.0	064_neutral	0.0		34.218807362020016	
1.0	11.008746873150812	face	0.0		146	31.0	male	west_asian	1.9538400318344609	smiling	070	sub-10	2.0	6.0	070_smiling	0.0		34.727018592198874	1.2416466712420515
1.0	11.200526677857852	pulse	0.0	t		31.0	male	west_asian	1.9538400318344609	smiling	070	sub-10	2.0	6.0	070_smiling	0.0		34.91879839690591	
1.0	11.900511071915389	pulse	0.0	t		31.0	male	west_asian	1.9538400318344609	smiling	070	sub-10	2.0	6.0	070_smiling	0.0		35.61878279096345	
1.0	12.250393544392864	fix	1.0		444	31.0	male	west_asian	1.9538400318344609	smiling	070	sub-10	2.0	6.0	070_smiling	0.0		35.968665263440926	3.7582633757556323
1.0	12.600501503089617	pulse	1.0	t		31.0	male	west_asian	1.9538400318344609	smiling	070	sub-10	2.0	6.0	070_smiling	0.0		36.31877322213768	
1.0	13.300484387869801	pulse	1.0	t		31.0	male	west_asian	1.9538400318344609	smiling	070	sub-10	2.0	6.0	070_smiling	0.0		37.01875610691786	
1.0	14.00047421533236	pulse	1.0	t		31.0	male	west_asian	1.9538400318344609	smiling	070	sub-10	2.0	6.0	070_smiling	0.0		37.71874593438042	
1.0	14.700462835371582	pulse	1.0	t		31.0	male	west_asian	1.9538400318344609	smiling	070	sub-10	2.0	6.0	070_smiling	0.0		38.41873455441964	
1.0	15.400442701597058	pulse	1.0	t		31.0	male	west_asian	1.9538400318344609	smiling	070	sub-10	2.0	6.0	070_smiling	0.0		39.11871442064512	
2.0	16.008656920148496	face	0.0		146	30.0	female	black	2.7345801830481498	smiling	062	sub-10	2.0	6.0	062_smiling	0.0		39.72692863919656	1.2416415396946832
2.0	16.10045426267243	pulse	0.0	t		30.0	female	black	2.7345801830481498	smiling	062	sub-10	2.0	6.0	062_smiling	0.0		39.81872598172049	
2.0	16.80043111033592	pulse	0.0	t		30.0	female	black	2.7345801830481498	smiling	062	sub-10	2.0	6.0	062_smiling	0.0		40.51870282938398	
2.0	17.25029845984318	fix	1.0		444	30.0	female	black	2.7345801830481498	smiling	062	sub-10	2.0	6.0	062_smiling	0.0		40.96857017889124	3.7582624701863097
2.0	17.50041037284973	pulse	1.0	t		30.0	female	black	2.7345801830481498	smiling	062	sub-10	2.0	6.0	062_smiling	0.0		41.21868209189779	
2.0	18.200408954126033	pulse	1.0	t		30.0	female	black	2.7345801830481498	smiling	062	sub-10	2.0	6.0	062_smiling	0.0		41.918680673174094	
2.0	18.900391235198185	pulse	1.0	t		30.0	female	black	2.7345801830481498	smiling	062	sub-10	2.0	6.0	062_smiling	0.0		42.61866295424625	
2.0	19.600370497708354	pulse	1.0	t		30.0	female	black	2.7345801830481498	smiling	062	sub-10	2.0	6.0	062_smiling	0.0		43.318642216756416	
2.0	20.30035941960523	pulse	1.0	t		30.0	female	black	2.7345801830481498	smiling	062	sub-10	2.0	6.0	062_smiling	0.0		44.01863113865329	
3.0	21.00856093002949	face	0.0		146	26.0	male	white	2.7966573816155993	smiling	117	sub-10	2.0	6.0	117_smiling	1.0	attractiveness	44.72683264907755	1.2416527083551046
3.0	21.00139125300484	pulse	0.0	t		26.0	male	white	2.7966573816155993	smiling	117	sub-10	2.0	6.0	117_smiling	1.0	attractiveness	44.7196629720529	
3.0	21.700336357826018	pulse	0.0	t		26.0	male	white	2.7966573816155993	smiling	117	sub-10	2.0	6.0	117_smiling	1.0	attractiveness	45.41860807687408	
3.0	22.250213638384594	fix	1.0		177	26.0	male	white	2.7966573816155993	smiling	117	sub-10	2.0	6.0	117_smiling	1.0	attractiveness	45.968485357432655	1.5083386132937449
3.0	22.400337957660668	pulse	1.0	t		26.0	male	white	2.7966573816155993	smiling	117	sub-10	2.0	6.0	117_smiling	1.0	attractiveness	46.11860967670873	
3.0	23.10032023873282	pulse	1.0	t		26.0	male	white	2.7966573816155993	smiling	117	sub-10	2.0	6.0	117_smiling	1.0	attractiveness	46.81859195778088	
3.0	23.75855225167834	rating	2.0		293	26.0	male	white	2.7966573816155993	smiling	117	sub-10	2.0	6.0	117_smiling	1.0	attractiveness	47.4768239707264	2.491585620922706
3.0	23.80030614207135	pulse	2.0	t		26.0	male	white	2.7966573816155993	smiling	117	sub-10	2.0	6.0	117_smiling	1.0	attractiveness	47.51857786111941	
3.0	24.500286008293187	pulse	2.0	t		26.0	male	white	2.7966573816155993	smiling	117	sub-10	2.0	6.0	117_smiling	1.0	attractiveness	48.21855772734125	
3.0	24.858614403769025	response	2.0	y		26.0	male	white	2.7966573816155993	smiling	117	sub-10	2.0	6.0	117_smiling	1.0	attractiveness	48.576886122817086	
3.0	25.20026044111364	pulse	2.0	t		26.0	male	white	2.7966573816155993	smiling	117	sub-10	2.0	6.0	117_smiling	1.0	attractiveness	48.9185321601617	
3.0	25.900260229813284	pulse	2.0	t		26.0	male	white	2.7966573816155993	smiling	117	sub-10	2.0	6.0	117_smiling	1.0	attractiveness	49.618531948861346	
3.0	26.250137872601044	fix	3.0		444	26.0	male	white	2.7966573816155993	smiling	117	sub-10	2.0	6.0	117_smiling	1.0	attractiveness	49.968409591649106	3.758270922146039
3.0	26.600245529440144	pulse	3.0	t		26.0	male	white	2.7966573816155993	smiling	117	sub-10	2.0	6.0	117_smiling	1.0	attractiveness	50.318517248488206	
3.0	27.300234149479365	pulse	3.0	t		26.0	male	white	2.7966573816155993	smiling	117	sub-10	2.0	6.0	117_smiling	1.0	attractiveness	51.01850586852743	
3.0	28.000223373230256	pulse	3.0	t		26.0	male	white	2.7966573816155993	smiling	117	sub-10	2.0	6.0	117_smiling	1.0	attractiveness	51.71849509227832	
3.0	28.700211389561446	pulse	3.0	t		26.0	male	white	2.7966573816155993	smiling	117	sub-10	2.0	6.0	117_smiling	1.0	attractiveness	52.41848310860951	
3.0	29.400203028155374	pulse	3.0	t		26.0	male	white	2.7966573816155993	smiling	117	sub-10	2.0	6.0	117_smiling	1.0	attractiveness	53.118474747203436	
4.0	30.008408794747083	face	0.0		146	31.0	female	east_asian	3.395941106247513	smiling	087	sub-10	2.0	6.0	087_smiling	0.0		53.726680513795145	1.2416445582530287
4.0	30.100185912935558	pulse	0.0	t		31.0	female	east_asian	3.395941106247513	smiling	087	sub-10	2.0	6.0	087_smiling	0.0		53.81845763198362	
4.0	30.800181475657155	pulse	0.0	t		31.0	female	east_asian	3.395941106247513	smiling	087	sub-10	2.0	6.0	087_smiling	0.0		54.518453194705216	
4.0	31.250053353000112	fix	1.0		444	31.0	female	east_asian	3.395941106247513	smiling	087	sub-10	2.0	6.0	087_smiling	0.0		54.968325072048174	3.7665921787338448
4.0	31.500165567860677	pulse	1.0	t		31.0	female	east_asian	3.395941106247513	smiling	087	sub-10	2.0	6.0	087_smiling	0.0		55.21843728690874	
4.0	32.20015630089256	pulse	1.0	t		31.0	female	east_asian	3.395941106247513	smiling	087	sub-10	2.0	6.0	087_smiling	0.0		55.91842801994062	
4.0	32.900141298661765	pulse	1.0	t		31.0	female	east_asian	3.395941106247513	smiling	087	sub-10	2.0	6.0	087_smiling	0.0		56.61841301770983	
4.0	33.600142294784746	pulse	1.0	t		31.0	female	east_asian	3.395941106247513	smiling	087	sub-10	2.0	6.0	087_smiling	0.0		57.31841401383281	
4.0	34.30011733131687	pulse	1.0	t		31.0	female	east_asian	3.395941106247513	smiling	087	sub-10	2.0	6.0	087_smiling	0.0		58.01838905036493	
5.0	35.01664553173396	face	0.0		146	21.0	male	black	2.969757262236371	neutral	137	sub-10	2.0	6.0	137_neutral	1.0	dominance	58.73491725078202	1.2333160571251938
5.0	35.00285404581882	pulse	0.0	t		21.0	male	black	2.969757262236371	neutral	137	sub-10	2.0	6.0	137_neutral	1.0	dominance	58.72112576486688	
5.0	35.700088836136274	pulse	0.0	t		21.0	male	black	2.969757262236371	neutral	137	sub-10	2.0	6.0	137_neutral	1.0	dominance	59.418360555184336	
5.0	36.24996158885915	fix	1.0		177	21.0	male	black	2.969757262236371	neutral	137	sub-10	2.0	6.0	137_neutral	1.0	dominance	59.96823330790721	1.499977209892677
5.0	36.40007655060981	pulse	1.0	t		21.0	male	black	2.969757262236371	neutral	137	sub-10	2.0	6.0	137_neutral	1.0	dominance	60.11834826965787	
5.0	37.10006034095932	pulse	1.0	t		21.0	male	black	2.969757262236371	neutral	137	sub-10	2.0	6.0	137_neutral	1.0	dominance	60.81833206000738	
5.0	37.74993879875183	rating	2.0		294	21.0	male	black	2.969757262236371	neutral	137	sub-10	2.0	6.0	137_neutral	1.0	dominance	61.46821051779989	2.4999660412322555
5.0	37.80006435564064	pulse	2.0	t		21.0	male	black	2.969757262236371	neutral	137	sub-10	2.0	6.0	137_neutral	1.0	dominance	61.518336074688705	
5.0	38.500041807015805	pulse	2.0	t		21.0	male	black	2.969757262236371	neutral	137	sub-10	2.0	6.0	137_neutral	1.0	dominance	62.21831352606387	
5.0	38.79482081995593	response	2.0	y		21.0	male	black	2.969757262236371	neutral	137	sub-10	2.0	6.0	137_neutral	1.0	dominance	62.51309253900399	
5.0	39.2000174472596	pulse	2.0	t		21.0	male	black	2.969757262236371	neutral	137	sub-10	2.0	6.0	137_neutral	1.0	dominance	62.91828916630766	
5.0	39.9000102932805	pulse	2.0	t		21.0	male	black	2.969757262236371	neutral	137	sub-10	2.0	6.0	137_neutral	1.0	dominance	63.618282012328564	
5.0	40.24990483998408	fix	3.0		444	21.0	male	black	2.969757262236371	neutral	137	sub-10	2.0	6.0	137_neutral	1.0	dominance	63.968176559032145	3.766584632343438
5.0	40.59999951703139	pulse	3.0	t		21.0	male	black	2.969757262236371	neutral	137	sub-10	2.0	6.0	137_neutral	1.0	dominance	64.31827123607945	
5.0	41.299994777895336	pulse	3.0	t		21.0	male	black	2.969757262236371	neutral	137	sub-10	2.0	6.0	137_neutral	1.0	dominance	65.0182664969434	
5.0	41.99997373855149	pulse	3.0	t		21.0	male	black	2.969757262236371	neutral	137	sub-10	2.0	6.0	137_neutral	1.0	dominance	65.71824545759955	
5.0	42.69995058621862	pulse	3.0	t		21.0	male	black	2.969757262236371	neutral	137	sub-10	2.0	6.0	137_neutral	1.0	dominance	66.41822230526668	
5.0	43.399934376568126	pulse	3.0	t		21.0	male	black	2.969757262236371	neutral	137	sub-10	2.0	6.0	137_neutral	1.0	dominance	67.11820609561619	
6.0	44.01648947232752	face	0.0		145	31.0	female	white	2.1822522881018704	neutral	102	sub-10	2.0	6.0	102_neutral	0.0		67.73476119137558	1.2333088125888025
6.0	44.09993748568013	pulse	0.0	t		31.0	female	white	2.1822522881018704	neutral	102	sub-10	2.0	6.0	102_neutral	0.0		67.81820920472819	
6.0	44.79992218159532	pulse	0.0	t		31.0	female	white	2.1822522881018704	neutral	102	sub-10	2.0	6.0	102_neutral	0.0		68.51819390064338	
6.0	45.249798284916324	fix	1.0		444	31.0	female	white	2.1822522881018704	neutral	102	sub-10	2.0	6.0	102_neutral	0.0		68.96807000396439	3.7665801045077387
6.0	45.49991714060525	pulse	1.0	t		31.0	female	white	2.1822522881018704	neutral	102	sub-10	2.0	6.0	102_neutral	0.0		69.21818885965331	
6.0	46.1999006290971	pulse	1.0	t		31.0	female	white	2.1822522881018704	neutral	102	sub-10	2.0	6.0	102_neutral	0.0		69.91817234814516	
6.0	46.899886230581615	pulse	1.0	t		31.0	female	white	2.1822522881018704	neutral	102	sub-10	2.0	6.0	102_neutral	0.0		70.61815794962968	
6.0	47.59986609680345	pulse	1.0	t		31.0	female	white	2.1822522881018704	neutral	102	sub-10	2.0	6.0	102_neutral	0.0		71.31813781585151	
6.0	48.299862565090734	pulse	1.0	t		31.0	female	white	2.1822522881018704	neutral	102	sub-10	2.0	6.0	102_neutral	0.0		72.0181342841388	
7.0	49.01637838942406	face	0.0		146	26.0	female	white	4.854755272582572	neutral	027	sub-10	2.0	6.0	027_neutral	0.0		72.73465010847212	1.2333362814570137
7.0	49.002375302647124	pulse	0.0	t		26.0	female	white	4.854755272582572	neutral	027	sub-10	2.0	6.0	027_neutral	0.0		72.72064702169519	
7.0	49.69983678661447	pulse	0.0	t		26.0	female	white	4.854755272582572	neutral	027	sub-10	2.0	6.0	027_neutral	0.0		73.41810850566253	
7.0	50.249714670881076	fix	1.0		443	26.0	female	white	4.854755272582572	neutral	027	sub-10	2.0	6.0	027_neutral	0.0		73.96798638992914	3.7665948954381747
7.0	50.39983959387246	pulse	1.0	t		26.0	female	white	4.854755272582572	neutral	027	sub-10	2.0	6.0	027_neutral	0.0		74.11811131292052	
7.0	51.09980074503983	pulse	1.0	t		26.0	female	white	4.854755272582572	neutral	027	sub-10	2.0	6.0	027_neutral	0.0		74.81807246408789	
7.0	51.79982075807493	pulse	1.0	t		26.0	female	white	4.854755272582572	neutral	027	sub-10	2.0	6.0	027_neutral	0.0		75.51809247712299	
7.0	52.499795190895384	pulse	1.0	t		26.0	female	white	4.854755272582572	neutral	027	sub-10	2.0	6.0	027_neutral	0.0		76.21806690994345	
7.0	53.19976630330348	pulse	1.0	t		26.0	female	white	4.854755272582572	neutral	027	sub-10	2.0	6.0	027_neutral	0.0		76.91803802235154	
7.0	53.899756130766036	pulse	1.0	t		26.0	female	white	4.854755272582572	neutral	027	sub-10	2.0	6.0	027_neutral	0.0		77.6180278498141	
8.0	54.01630956631925	face	0.0		146	37.0	male	white	3.898925586947871	neutral	101	sub-10	2.0	6.0	101_neutral	0.0		77.73458128536731	1.233303077329765
8.0	54.59975078791831	pulse	0.0	t		37.0	male	white	3.898925586947871	neutral	101	sub-10	2.0	6.0	101_neutral	0.0		78.31802250696637	
8.0	55.249612643649016	fix	1.0		443	37.0	male	white	3.898925586947871	neutral	101	sub-10	2.0	6.0	101_neutral	0.0		78.96788436269708	3.7666024418322195
8.0	55.29974091723852	pulse	1.0	t		37.0	male	white	3.898925586947871	neutral	101	sub-10	2.0	6.0	101_neutral	0.0		79.01801263628658	
8.0	55.999722896449384	pulse	1.0	t		37.0	male	white	3.898925586947871	neutral	101	sub-10	2.0	6.0	101_neutral	0.0		79.71799461549745	
8.0	56.69969883855083	pulse	1.0	t		37.0	male	white	3.898925586947871	neutral	101	sub-10	2.0	6.0	101_neutral	0.0		80.41797055759889	
8.0	57.39969379756076	pulse	1.0	t		37.0	male	white	3.898925586947871	neutral	101	sub-10	2.0	6.0	101_neutral	0.0		81.11796551660882	
8.0	58.099686643578025	pulse	1.0	t		37.0	male	white	3.898925586947871	neutral	101	sub-10	2.0	6.0	101_neutral	0.0		81.81795836262609	
8.0	58.79967616918657	pulse	1.0	t		37.0	male	white	3.898925586947871	neutral	101	sub-10	2.0	6.0	101_neutral	0.0		82.51794788823463	
9.0	59.016215085481235	face	0.0		145	23.0	male	white	2.6275368085953046	neutral	141	sub-10	2.0	6.0	141_neutral	0.0		82.7344868045293	1.233320584960893
9.0	59.49967324118552	pulse	0.0	t		23.0	male	white	2.6275368085953046	neutral	141	sub-10	2.0	6.0	141_neutral	0.0		83.21794496023358	
9.0	60.19964797585999	pulse	0.0	t		23.0	male	white	2.6275368085953046	neutral	141	sub-10	2.0	6.0	141_neutral	0.0		83.91791969490805	
9.0	60.24953567044213	fix	1.0		445	23.0	male	white	2.6275368085953046	neutral	141	sub-10	2.0	6.0	141_neutral	0.0		83.96780738949019	3.766596102861513
9.0	60.89963719961088	pulse	1.0	t		23.0	male	white	2.6275368085953046	neutral	141	sub-10	2.0	6.0	141_neutral	0.0		84.61790891865894	
9.0	61.59961827325969	pulse	1.0	t		23.0	male	white	2.6275368085953046	neutral	141	sub-10	2.0	6.0	141_neutral	0.0		85.31788999230776	
9.0	62.299610213711276	pulse	1.0	t		23.0	male	white	2.6275368085953046	neutral	141	sub-10	2.0	6.0	141_neutral	0.0		86.01788193275934	
9.0	62.999587665090075	pulse	1.0	t		23.0	male	white	2.6275368085953046	neutral	141	sub-10	2.0	6.0	141_neutral	0.0		86.71785938413814	
9.0	63.6995871519357	pulse	1.0	t		23.0	male	white	2.6275368085953046	neutral	141	sub-10	2.0	6.0	141_neutral	0.0		87.41785887098376	
10.0	64.01613177330364	face	0.0		145	31.0	female	east_asian	3.395941106247513	neutral	087	sub-10	2.0	6.0	087_neutral	0.0		87.7344034923517	1.2333245090849232
10.0	64.39957396083992	pulse	0.0	t		31.0	female	east_asian	3.395941106247513	neutral	087	sub-10	2.0	6.0	087_neutral	0.0		88.11784567988798	
10.0	65.09955895860912	pulse	0.0	t		31.0	female	east_asian	3.395941106247513	neutral	087	sub-10	2.0	6.0	087_neutral	0.0		88.81783067765718	
10.0	65.24945628238856	fix	1.0		445	31.0	female	east_asian	3.395941106247513	neutral	087	sub-10	2.0	6.0	087_neutral	0.0		88.96772800143663	3.7665864434784453
10.0	65.79956116215544	pulse	1.0	t		31.0	female	east_asian	3.395941106247513	neutral	087	sub-10	2.0	6.0	087_neutral	0.0		89.5178328812035	
10.0	66.4995328782752	pulse	1.0	t		31.0	female	east_asian	3.395941106247513	neutral	087	sub-10	2.0	6.0	087_neutral	0.0		90.21780459732327	
10.0	67.19952059274874	pulse	1.0	t		31.0	female	east_asian	3.395941106247513	neutral	087	sub-10	2.0	6.0	087_neutral	0.0		90.9177923117968	
10.0	67.89951343876601	pulse	1.0	t		31.0	female	east_asian	3.395941106247513	neutral	087	sub-10	2.0	6.0	087_neutral	0.0		91.61778515781407	
10.0	68.59949662540384	pulse	1.0	t		31.0	female	east_asian	3.395941106247513	neutral	087	sub-10	2.0	6.0	087_neutral	0.0		92.3177683444519	
11.0	69.01604272586701	face	0.0		145	20.0	female	white	3.9502586549940313	smiling	091	sub-10	2.0	6.0	091_smiling	0.0		92.73431444491507	1.2333136422785174
11.0	69.29949279183711	pulse	0.0	t		20.0	female	white	3.9502586549940313	smiling	091	sub-10	2.0	6.0	091_smiling	0.0		93.01776451088517	
11.0	69.99947235620493	pulse	0.0	t		20.0	female	white	3.9502586549940313	smiling	091	sub-10	2.0	6.0	091_smiling	0.0		93.717744075253	
11.0	70.24935636814553	fix	1.0		444	20.0	female	white	3.9502586549940313	smiling	091	sub-10	2.0	6.0	091_smiling	0.0		93.96762808719359	3.766596706573182
11.0	70.69946610779152	pulse	1.0	t		20.0	female	white	3.9502586549940313	smiling	091	sub-10	2.0	6.0	091_smiling	0.0		94.41773782683958	
11.0	71.399444464736	pulse	1.0	t		20.0	female	white	3.9502586549940313	smiling	091	sub-10	2.0	6.0	091_smiling	0.0		95.11771618378407	
11.0	72.09943006621688	pulse	1.0	t		20.0	female	white	3.9502586549940313	smiling	091	sub-10	2.0	6.0	091_smiling	0.0		95.81770178526494	
11.0	72.7994232140918	pulse	1.0	t		20.0	female	white	3.9502586549940313	smiling	091	sub-10	2.0	6.0	091_smiling	0.0		96.51769493313986	
11.0	73.49940640072964	pulse	1.0	t		20.0	female	white	3.9502586549940313	smiling	091	sub-10	2.0	6.0	091_smiling	0.0		97.2176781197777	
12.0	74.01595307471871	face	0.0		145	36.0	female	white	2.7548746518105847	smiling	011	sub-10	2.0	6.0	011_smiling	0.0		97.73422479376677	1.2333148497018556
12.0	74.19940286901692	pulse	0.0	t		36.0	female	white	2.7548746518105847	smiling	011	sub-10	2.0	6.0	011_smiling	0.0		97.91767458806498	
12.0	74.89938364080808	pulse	0.0	t		36.0	female	white	2.7548746518105847	smiling	011	sub-10	2.0	6.0	011_smiling	0.0		98.61765535985614	
12.0	75.24926792442056	fix	1.0		444	36.0	female	white	2.7548746518105847	smiling	011	sub-10	2.0	6.0	011_smiling	0.0		98.96753964346863	3.766595499149844
12.0	75.599376788683	pulse	1.0	t		36.0	female	white	2.7548746518105847	smiling	011	sub-10	2.0	6.0	011_smiling	0.0		99.31764850773106	
12.0	76.29935574933916	pulse	1.0	t		36.0	female	white	2.7548746518105847	smiling	011	sub-10	2.0	6.0	011_smiling	0.0		100.01762746838722	
12.0	76.99934618051338	pulse	1.0	t		36.0	female	white	2.7548746518105847	smiling	011	sub-10	2.0	6.0	011_smiling	0.0		100.71761789956145	
12.0	77.69933540426427	pulse	1.0	t		36.0	female	white	2.7548746518105847	smiling	011	sub-10	2.0	6.0	011_smiling	0.0		101.41760712331234	
12.0	78.39932221316849	pulse	1.0	t		36.0	female	white	2.7548746518105847	smiling	011	sub-10	2.0	6.0	011_smiling	0.0		102.11759393221655	
13.0	79.01586342357041	face	0.0		145	37.0	male	white	3.898925586947871	smiling	101	sub-10	2.0	6.0	101_smiling	0.0		102.73413514261847	1.2333157552675402
13.0	79.09931354991204	pulse	0.0	t		37.0	male	white	3.898925586947871	smiling	101	sub-10	2.0	6.0	101_smiling	0.0		102.8175852689601	
13.0	79.79930881077598	pulse	0.0	t		37.0	male	white	3.898925586947871	smiling	101	sub-10	2.0	6.0	101_smiling	0.0		103.51758052982404	
13.0	80.24917917883795	fix	1.0		445	37.0	male	white	3.898925586947871	smiling	101	sub-10	2.0	6.0	101_smiling	0.0		103.96745089788601	3.774930641102401
13.0	80.49928807328979	pulse	1.0	t		37.0	male	white	3.898925586947871	smiling	101	sub-10	2.0	6.0	101_smiling	0.0		104.21755979233785	
13.0	81.19930355848555	pulse	1.0	t		37.0	male	white	3.898925586947871	smiling	101	sub-10	2.0	6.0	101_smiling	0.0		104.91757527753362	
13.0	81.89925897439753	pulse	1.0	t		37.0	male	white	3.898925586947871	smiling	101	sub-10	2.0	6.0	101_smiling	0.0		105.61753069344559	
13.0	82.59950024767386	pulse	1.0	t		37.0	male	white	3.898925586947871	smiling	101	sub-10	2.0	6.0	101_smiling	0.0		106.31777196672192	
13.0	83.29922776251624	pulse	1.0	t		37.0	male	white	3.898925586947871	smiling	101	sub-10	2.0	6.0	101_smiling	0.0		107.0174994815643	
13.0	83.99922241966851	pulse	1.0	t		37.0	male	white	3.898925586947871	smiling	101	sub-10	2.0	6.0	101_smiling	0.0		107.71749413871657	
14.0	84.02410981994035	face	0.0		146	26.0	male	white	2.7966573816155993	neutral	117	sub-10	2.0	6.0	117_neutral	0.0		107.74238153898841	1.233319981249224
14.0	84.69921405826608	pulse	0.0	t		26.0	male	white	2.7966573816155993	neutral	117	sub-10	2.0	6.0	117_neutral	0.0		108.41748577731414	
14.0	85.25742980118957	fix	1.0		443	26.0	male	white	2.7966573816155993	neutral	117	sub-10	2.0	6.0	117_neutral	0.0		108.97570152023764	3.7665903676024755
14.0	85.39920992284169	pulse	1.0	t		26.0	male	white	2.7966573816155993	neutral	117	sub-10	2.0	6.0	117_neutral	0.0		109.11748164188975	
14.0	86.0991737907134	pulse	1.0	t		26.0	male	white	2.7966573816155993	neutral	117	sub-10	2.0	6.0	117_neutral	0.0		109.81744550976146	
14.0	86.79918172951875	pulse	1.0	t		26.0	male	white	2.7966573816155993	neutral	117	sub-10	2.0	6.0	117_neutral	0.0		110.51745344856681	
14.0	87.49915555862754	pulse	1.0	t		26.0	male	white	2.7966573816155993	neutral	117	sub-10	2.0	6.0	117_neutral	0.0		111.2174272776756	
14.0	88.19915715846219	pulse	1.0	t		26.0	male	white	2.7966573816155993	neutral	117	sub-10	2.0	6.0	117_neutral	0.0		111.91742887751025	
14.0	88.89913611911834	pulse	1.0	t		26.0	male	white	2.7966573816155993	neutral	117	sub-10	2.0	6.0	117_neutral	0.0		112.6174078381664	
15.0	89.02402016879205	face	0.0		146	19.0	male	white	2.243931555909272	neutral	130	sub-10	2.0	6.0	130_neutral	0.0		112.74229188784011	1.233323905373254
15.0	89.59912473915756	pulse	0.0	t		19.0	male	white	2.243931555909272	neutral	130	sub-10	2.0	6.0	130_neutral	0.0		113.31739645820562	
15.0	90.2573440741653	fix	1.0		443	19.0	male	white	2.243931555909272	neutral	130	sub-10	2.0	6.0	130_neutral	0.0		113.97561579321336	3.76658734904413
15.0	90.29911215177708	pulse	1.0	t		19.0	male	white	2.243931555909272	neutral	130	sub-10	2.0	6.0	130_neutral	0.0		114.01738387082514	
15.0	90.9991007718163	pulse	1.0	t		19.0	male	white	2.243931555909272	neutral	130	sub-10	2.0	6.0	130_neutral	0.0		114.71737249086436	
15.0	91.69908033618412	pulse	1.0	t		19.0	male	white	2.243931555909272	neutral	130	sub-10	2.0	6.0	130_neutral	0.0		115.41735205523219	
15.0	92.39906865436569	pulse	1.0	t		19.0	male	white	2.243931555909272	neutral	130	sub-10	2.0	6.0	130_neutral	0.0		116.11734037341375	
15.0	93.09906029296326	pulse	1.0	t		19.0	male	white	2.243931555909272	neutral	130	sub-10	2.0	6.0	130_neutral	0.0		116.81733201201132	
15.0	93.79905827053153	pulse	1.0	t		19.0	male	white	2.243931555909272	neutral	130	sub-10	2.0	6.0	130_neutral	0.0		117.5173299895796	
16.0	94.02393142320943	face	0.0		145	20.0	male	black	2.609629924393156	smiling	043	sub-10	2.0	6.0	043_smiling	0.0		117.7422031422575	1.233311227435479
16.0	94.49902908108197	pulse	0.0	t		20.0	male	black	2.609629924393156	smiling	043	sub-10	2.0	6.0	043_smiling	0.0		118.21730080013003	
16.0	95.19902283266856	pulse	0.0	t		20.0	male	black	2.609629924393156	smiling	043	sub-10	2.0	6.0	043_smiling	0.0		118.91729455171662	
16.0	95.25724265064491	fix	1.0		445	20.0	male	black	2.609629924393156	smiling	043	sub-10	2.0	6.0	043_smiling	0.0		118.97551436969297	3.766597310281213
16.0	95.89901024528444	pulse	1.0	t		20.0	male	black	2.609629924393156	smiling	043	sub-10	2.0	6.0	043_smiling	0.0		119.6172819643325	
16.0	96.59900188388201	pulse	1.0	t		20.0	male	black	2.609629924393156	smiling	043	sub-10	2.0	6.0	043_smiling	0.0		120.31727360293007	
16.0	97.29899623918027	pulse	1.0	t		20.0	male	black	2.609629924393156	smiling	043	sub-10	2.0	6.0	043_smiling	0.0		121.01726795822833	
16.0	97.99897097385474	pulse	1.0	t		20.0	male	black	2.609629924393156	smiling	043	sub-10	2.0	6.0	043_smiling	0.0		121.7172426929028	
16.0	98.69896049946328	pulse	1.0	t		20.0	male	black	2.609629924393156	smiling	043	sub-10	2.0	6.0	043_smiling	0.0		122.41723221851134	
17.0	99.02383996092613	face	0.0		145	40.0	male	black	2.408674890569041	smiling	061	sub-10	2.0	6.0	061_smiling	0.0		122.74211167997419	1.233317264548532
17.0	99.39894972321417	pulse	0.0	t		40.0	male	black	2.408674890569041	smiling	061	sub-10	2.0	6.0	061_smiling	0.0		123.11722144226223	
17.0	100.09894136181174	pulse	0.0	t		40.0	male	black	2.408674890569041	smiling	061	sub-10	2.0	6.0	061_smiling	0.0		123.8172130808598	
17.0	100.25715722547466	fix	1.0		444	40.0	male	black	2.408674890569041	smiling	061	sub-10	2.0	6.0	061_smiling	0.0		123.97542894452272	3.7665942917265056
17.0	100.798932396694	pulse	1.0	t		40.0	male	black	2.408674890569041	smiling	061	sub-10	2.0	6.0	061_smiling	0.0		124.51720411574206	
17.0	101.49890894250711	pulse	1.0	t		40.0	male	black	2.408674890569041	smiling	061	sub-10	2.0	6.0	061_smiling	0.0		125.21718066155518	
17.0	102.19891416460814	pulse	1.0	t		40.0	male	black	2.408674890569041	smiling	061	sub-10	2.0	6.0	061_smiling	0.0		125.9171858836562	
17.0	102.89888437145055	pulse	1.0	t		40.0	male	black	2.408674890569041	smiling	061	sub-10	2.0	6.0	061_smiling	0.0		126.61715609049861	
17.0	103.59888929169756	pulse	1.0	t		40.0	male	black	2.408674890569041	smiling	061	sub-10	2.0	6.0	061_smiling	0.0		127.31716101074562	
18.0	104.02375151720116	face	0.0		145	24.0	female	east_asian	4.409868682849185	smiling	030	sub-10	2.0	6.0	030_smiling	0.0		127.74202323624922	1.2333115292894945
18.0	104.29885919668232	pulse	0.0	t		24.0	female	east_asian	4.409868682849185	smiling	030	sub-10	2.0	6.0	030_smiling	0.0		128.01713091573038	
18.0	104.99884449630918	pulse	0.0	t		24.0	female	east_asian	4.409868682849185	smiling	030	sub-10	2.0	6.0	030_smiling	0.0		128.71711621535724	
18.0	105.25706304649066	fix	1.0		444	24.0	female	east_asian	4.409868682849185	smiling	030	sub-10	2.0	6.0	030_smiling	0.0		128.97533476553872	3.766598215850536
18.0	105.69883583305273	pulse	1.0	t		24.0	female	east_asian	4.409868682849185	smiling	030	sub-10	2.0	6.0	030_smiling	0.0		129.4171075521008	
18.0	106.39882113267595	pulse	1.0	t		24.0	female	east_asian	4.409868682849185	smiling	030	sub-10	2.0	6.0	030_smiling	0.0		130.117092851724	
18.0	107.09881307313117	pulse	1.0	t		24.0	female	east_asian	4.409868682849185	smiling	030	sub-10	2.0	6.0	030_smiling	0.0		130.81708479217923	
18.0	107.7988080321411	pulse	1.0	t		24.0	female	east_asian	4.409868682849185	smiling	030	sub-10	2.0	6.0	030_smiling	0.0		131.51707975118916	
18.0	108.49878548351626	pulse	1.0	t		24.0	female	east_asian	4.409868682849185	smiling	030	sub-10	2.0	6.0	030_smiling	0.0		132.21705720256432	
19.0	109.0236612623412	face	0.0		145	19.0	male	white	2.243931555909272	smiling	130	sub-10	2.0	6.0	130_smiling	1.0	attractiveness	132.74193298138925	1.23331454784784
19.0	109.19877682025981	pulse	0.0	t		19.0	male	white	2.243931555909272	smiling	130	sub-10	2.0	6.0	130_smiling	1.0	attractiveness	132.91704853930787	
19.0	109.89876332730637	pulse	0.0	t		19.0	male	white	2.243931555909272	smiling	130	sub-10	2.0	6.0	130_smiling	1.0	attractiveness	133.61703504635443	
19.0	110.25697581018903	fix	1.0		177	19.0	male	white	2.243931555909272	smiling	130	sub-10	2.0	6.0	130_smiling	1.0	attractiveness	133.9752475292371	1.4999639282395947
19.0	110.59875073992225	pulse	1.0	t		19.0	male	white	2.243931555909272	smiling	130	sub-10	2.0	6.0	130_smiling	1.0	attractiveness	134.3170224589703	
19.0	111.29874418965483	pulse	1.0	t		19.0	male	white	2.243931555909272	smiling	130	sub-10	2.0	6.0	130_smiling	1.0	attractiveness	135.0170159087029	
19.0	111.75693973842863	rating	2.0		294	19.0	male	white	2.243931555909272	smiling	130	sub-10	2.0	6.0	130_smiling	1.0	attractiveness	135.4752114574767	2.499965135666571
19.0	111.99873160227071	pulse	2.0	t		19.0	male	white	2.243931555909272	smiling	130	sub-10	2.0	6.0	130_smiling	1.0	attractiveness	135.71700332131877	
19.0	112.69870392210214	pulse	2.0	t		19.0	male	white	2.243931555909272	smiling	130	sub-10	2.0	6.0	130_smiling	1.0	attractiveness	136.4169756411502	
19.0	113.12697409866814	response	2.0	w		19.0	male	white	2.243931555909272	smiling	130	sub-10	2.0	6.0	130_smiling	1.0	attractiveness	136.8452458177162	
19.0	113.39868107162329	pulse	2.0	t		19.0	male	white	2.243931555909272	smiling	130	sub-10	2.0	6.0	130_smiling	1.0	attractiveness	137.11695279067135	
19.0	114.09869051970963	pulse	2.0	t		19.0	male	white	2.243931555909272	smiling	130	sub-10	2.0	6.0	130_smiling	1.0	attractiveness	137.8169622387577	
19.0	114.2569048740952	fix	3.0		444	19.0	male	white	2.243931555909272	smiling	130	sub-10	2.0	6.0	130_smiling	1.0	attractiveness	137.97517659314326	3.7665951972921903
19.0	114.79868185644955	pulse	3.0	t		19.0	male	white	2.243931555909272	smiling	130	sub-10	2.0	6.0	130_smiling	1.0	attractiveness	138.5169535754976	
19.0	115.49865779854736	pulse	3.0	t		19.0	male	white	2.243931555909272	smiling	130	sub-10	2.0	6.0	130_smiling	1.0	attractiveness	139.21692951759542	
19.0	116.19864611673256	pulse	3.0	t		19.0	male	white	2.243931555909272	smiling	130	sub-10	2.0	6.0	130_smiling	1.0	attractiveness	139.91691783578062	
19.0	116.89863383120246	pulse	3.0	t		19.0	male	white	2.243931555909272	smiling	130	sub-10	2.0	6.0	130_smiling	1.0	attractiveness	140.61690555025052	
19.0	117.5986143011396	pulse	3.0	t		19.0	male	white	2.243931555909272	smiling	130	sub-10	2.0	6.0	130_smiling	1.0	attractiveness	141.31688602018767	
20.0	118.02350007138739	face	0.0		145	32.0	male	white	2.389176283326701	neutral	092	sub-10	2.0	6.0	092_neutral	1.0	dominance	141.74177179043545	1.233311831147148
20.0	118.29861016571522	pulse	0.0	t		32.0	male	white	2.389176283326701	neutral	092	sub-10	2.0	6.0	092_neutral	1.0	dominance	142.01688188476328	
20.0	118.99860150245513	pulse	0.0	t		32.0	male	white	2.389176283326701	neutral	092	sub-10	2.0	6.0	092_neutral	1.0	dominance	142.7168732215032	
20.0	119.25681190253454	fix	1.0		177	32.0	male	white	2.389176283326701	neutral	092	sub-10	2.0	6.0	092_neutral	1.0	dominance	142.9750836215826	1.4999817377283762
20.0	119.69856838888518	pulse	1.0	t		32.0	male	white	2.389176283326701	neutral	092	sub-10	2.0	6.0	092_neutral	1.0	dominance	143.41684010793324	
20.0	120.39857753511387	pulse	1.0	t		32.0	male	white	2.389176283326701	neutral	092	sub-10	2.0	6.0	092_neutral	1.0	dominance	144.11684925416193	
20.0	120.75679364026291	rating	2.0		294	32.0	male	white	2.389176283326701	neutral	092	sub-10	2.0	6.0	092_neutral	1.0	dominance	144.47506535931097	2.499961815250572
20.0	121.0985661551531	pulse	2.0	t		32.0	male	white	2.389176283326701	neutral	092	sub-10	2.0	6.0	092_neutral	1.0	dominance	144.81683787420116	
20.0	121.79854692694425	pulse	2.0	t		32.0	male	white	2.389176283326701	neutral	092	sub-10	2.0	6.0	092_neutral	1.0	dominance	145.51681864599232	
20.0	121.89020179356521	response	2.0	w		32.0	male	white	2.389176283326701	neutral	092	sub-10	2.0	6.0	092_neutral	1.0	dominance	145.60847351261327	
20.0	122.49852045419539	pulse	2.0	t		32.0	male	white	2.389176283326701	neutral	092	sub-10	2.0	6.0	092_neutral	1.0	dominance	146.21679217324345	
20.0	123.19852567630005	pulse	2.0	t		32.0	male	white	2.389176283326701	neutral	092	sub-10	2.0	6.0	092_neutral	1.0	dominance	146.9167973953481	
20.0	123.25675545551348	fix	3.0		1185	32.0	male	white	2.389176283326701	neutral	092	sub-10	2.0	6.0	092_neutral	1.0	dominance	146.97502717456155	10.016473172119731
20.0	123.8985182204633	pulse	3.0	t		32.0	male	white	2.389176283326701	neutral	092	sub-10	2.0	6.0	092_neutral	1.0	dominance	147.61678993951136	
20.0	124.59849325699543	pulse	3.0	t		32.0	male	white	2.389176283326701	neutral	092	sub-10	2.0	6.0	092_neutral	1.0	dominance	148.3167649760435	
20.0	125.29848610301633	pulse	3.0	t		32.0	male	white	2.389176283326701	neutral	092	sub-10	2.0	6.0	092_neutral	1.0	dominance	149.0167578220644	
20.0	125.99847110078554	pulse	3.0	t		32.0	male	white	2.389176283326701	neutral	092	sub-10	2.0	6.0	092_neutral	1.0	dominance	149.7167428198336	
20.0	126.69845428742337	pulse	3.0	t		32.0	male	white	2.389176283326701	neutral	092	sub-10	2.0	6.0	092_neutral	1.0	dominance	150.41672600647144	
20.0	127.39844622787496	pulse	3.0	t		32.0	male	white	2.389176283326701	neutral	092	sub-10	2.0	6.0	092_neutral	1.0	dominance	151.11671794692302	
20.0	128.09843333863682	pulse	3.0	t		32.0	male	white	2.389176283326701	neutral	092	sub-10	2.0	6.0	092_neutral	1.0	dominance	151.81670505768489	
20.0	128.79841561970534	pulse	3.0	t		32.0	male	white	2.389176283326701	neutral	092	sub-10	2.0	6.0	092_neutral	1.0	dominance	152.5166873387534	
20.0	129.4984090694379	pulse	3.0	t		32.0	male	white	2.389176283326701	neutral	092	sub-10	2.0	6.0	092_neutral	1.0	dominance	153.21668078848597	
20.0	130.19839587834213	pulse	3.0	t		32.0	male	white	2.389176283326701	neutral	092	sub-10	2.0	6.0	092_neutral	1.0	dominance	153.9166675973902	
20.0	130.8983860076587	pulse	3.0	t		32.0	male	white	2.389176283326701	neutral	092	sub-10	2.0	6.0	092_neutral	1.0	dominance	154.61665772670676	
20.0	131.59836919429654	pulse	3.0	t		32.0	male	white	2.389176283326701	neutral	092	sub-10	2.0	6.0	092_neutral	1.0	dominance	155.3166409133446	
20.0	132.29835600320075	pulse	3.0	t		32.0	male	white	2.389176283326701	neutral	092	sub-10	2.0	6.0	092_neutral	1.0	dominance	156.0166277222488	
20.0	132.99834884922166	pulse	3.0	t		32.0	male	white	2.389176283326701	neutral	092	sub-10	2.0	6.0	092_neutral	1.0	dominance	156.71662056826972	
21.0	133.27322862763322	face	0.0		145	20.0	male	black	2.609629924393156	neutral	043	sub-10	2.0	6.0	043_neutral	0.0		156.99150034668128	1.2333223960959003
21.0	133.6983377711149	pulse	0.0	t		20.0	male	black	2.609629924393156	neutral	043	sub-10	2.0	6.0	043_neutral	0.0		157.41660949016295	
21.0	134.39832246703008	pulse	0.0	t		20.0	male	black	2.609629924393156	neutral	043	sub-10	2.0	6.0	043_neutral	0.0		158.11659418607815	
21.0	134.50655102372912	fix	1.0		444	20.0	male	black	2.609629924393156	neutral	043	sub-10	2.0	6.0	043_neutral	0.0		158.22482274277718	3.76658734904413
21.0	135.09830716294528	pulse	1.0	t		20.0	male	black	2.609629924393156	neutral	043	sub-10	2.0	6.0	043_neutral	0.0		158.81657888199334	
21.0	135.79830272566687	pulse	1.0	t		20.0	male	black	2.609629924393156	neutral	043	sub-10	2.0	6.0	043_neutral	0.0		159.51657444471493	
21.0	136.49827987518802	pulse	1.0	t		20.0	male	black	2.609629924393156	neutral	043	sub-10	2.0	6.0	043_neutral	0.0		160.21655159423608	
21.0	137.19826940079656	pulse	1.0	t		20.0	male	black	2.609629924393156	neutral	043	sub-10	2.0	6.0	043_neutral	0.0		160.91654111984462	
21.0	137.8982556059891	pulse	1.0	t		20.0	male	black	2.609629924393156	neutral	043	sub-10	2.0	6.0	043_neutral	0.0		161.61652732503717	
22.0	138.27313837277325	face	0.0		145	54.0	female	white	2.286908077994429	smiling	136	sub-10	2.0	6.0	136_smiling	0.0		161.9914100918213	1.2333257165082614
22.0	138.59824633901735	pulse	0.0	t		54.0	female	white	2.286908077994429	smiling	136	sub-10	2.0	6.0	136_smiling	0.0		162.3165180580654	
22.0	139.29823254421353	pulse	0.0	t		54.0	female	white	2.286908077994429	smiling	136	sub-10	2.0	6.0	136_smiling	0.0		163.0165042632616	
22.0	139.5064640892815	fix	1.0		444	54.0	female	white	2.286908077994429	smiling	136	sub-10	2.0	6.0	136_smiling	0.0		163.22473580832957	3.766585839766776
22.0	139.99822508837678	pulse	1.0	t		54.0	female	white	2.286908077994429	smiling	136	sub-10	2.0	6.0	136_smiling	0.0		163.71649680742485	
22.0	140.69819227666085	pulse	1.0	t		54.0	female	white	2.286908077994429	smiling	136	sub-10	2.0	6.0	136_smiling	0.0		164.4164639957089	
22.0	141.39820081917787	pulse	1.0	t		54.0	female	white	2.286908077994429	smiling	136	sub-10	2.0	6.0	136_smiling	0.0		165.11647253822593	
22.0	142.09817796869902	pulse	1.0	t		54.0	female	white	2.286908077994429	smiling	136	sub-10	2.0	6.0	136_smiling	0.0		165.81644968774708	
22.0	142.7981717202856	pulse	1.0	t		54.0	female	white	2.286908077994429	smiling	136	sub-10	2.0	6.0	136_smiling	0.0		166.51644343933367	
23.0	143.27304992904828	face	0.0		145	24.0	female	black	3.0955033824114606	smiling	099	sub-10	2.0	6.0	099_smiling	0.0		166.99132164809635	1.2333130385668483
23.0	143.49816637743788	pulse	0.0	t		24.0	female	black	3.0955033824114606	smiling	099	sub-10	2.0	6.0	099_smiling	0.0		167.21643809648594	
23.0	144.19815560118877	pulse	0.0	t		24.0	female	black	3.0955033824114606	smiling	099	sub-10	2.0	6.0	099_smiling	0.0		167.91642732023683	
23.0	144.50636296761513	fix	1.0		444	24.0	female	black	3.0955033824114606	smiling	099	sub-10	2.0	6.0	099_smiling	0.0		168.2246346866632	3.766578595230385
23.0	144.89814633422066	pulse	1.0	t		24.0	female	black	3.0955033824114606	smiling	099	sub-10	2.0	6.0	099_smiling	0.0		168.61641805326872	
23.0	145.59811865404845	pulse	1.0	t		24.0	female	black	3.0955033824114606	smiling	099	sub-10	2.0	6.0	099_smiling	0.0		169.3163903730965	
23.0	146.2981175371824	pulse	1.0	t		24.0	female	black	3.0955033824114606	smiling	099	sub-10	2.0	6.0	099_smiling	0.0		170.01638925623047	
23.0	146.99809861083122	pulse	1.0	t		24.0	female	black	3.0955033824114606	smiling	099	sub-10	2.0	6.0	099_smiling	0.0		170.71637032987928	
23.0	147.6980869290128	pulse	1.0	t		24.0	female	black	3.0955033824114606	smiling	099	sub-10	2.0	6.0	099_smiling	0.0		171.41635864806085	
24.0	148.27294156284552	face	0.0		145	24.0	male	white	3.1153999204138483	neutral	012	sub-10	2.0	6.0	012_neutral	0.0		171.99121328189358	1.2333329610446526
24.0	148.39807947317604	pulse	0.0	t		24.0	male	white	3.1153999204138483	neutral	012	sub-10	2.0	6.0	012_neutral	0.0		172.1163511922241	
24.0	149.09806084867887	pulse	0.0	t		24.0	male	white	3.1153999204138483	neutral	012	sub-10	2.0	6.0	012_neutral	0.0		172.81633256772693	
24.0	149.50627452389017	fix	1.0		444	24.0	male	white	3.1153999204138483	neutral	012	sub-10	2.0	6.0	012_neutral	0.0		173.22454624293823	3.766577991518716
24.0	149.79806003367048	pulse	1.0	t		24.0	male	white	3.1153999204138483	neutral	012	sub-10	2.0	6.0	012_neutral	0.0		173.51633175271854	
24.0	150.49803024050925	pulse	1.0	t		24.0	male	white	3.1153999204138483	neutral	012	sub-10	2.0	6.0	012_neutral	0.0		174.2163019595573	
24.0	151.19801735127112	pulse	1.0	t		24.0	male	white	3.1153999204138483	neutral	012	sub-10	2.0	6.0	012_neutral	0.0		174.91628907031918	
24.0	151.89801412141605	pulse	1.0	t		24.0	male	white	3.1153999204138483	neutral	012	sub-10	2.0	6.0	012_neutral	0.0		175.61628584046412	
24.0	152.59798463010884	pulse	1.0	t		24.0	male	white	3.1153999204138483	neutral	012	sub-10	2.0	6.0	012_neutral	0.0		176.3162563491569	
25.0	153.27285251540889	face	0.0		145	28.0	male	east_asian	1.5563072025467568	neutral	005	sub-10	2.0	6.0	005_neutral	0.0		176.99112423445695	1.2333323573329835
25.0	153.29800253015492	pulse	0.0	t		28.0	male	east_asian	1.5563072025467568	neutral	005	sub-10	2.0	6.0	005_neutral	0.0		177.01627424920298	
25.0	153.99797032215065	pulse	0.0	t		28.0	male	east_asian	1.5563072025467568	neutral	005	sub-10	2.0	6.0	005_neutral	0.0		177.7162420411987	
25.0	154.50618487274187	fix	1.0		443	28.0	male	east_asian	1.5563072025467568	neutral	005	sub-10	2.0	6.0	005_neutral	0.0		178.22445659178993	3.766581915642746
25.0	154.69796528116058	pulse	1.0	t		28.0	male	east_asian	1.5563072025467568	neutral	005	sub-10	2.0	6.0	005_neutral	0.0		178.41623700020864	
25.0	155.39794182697005	pulse	1.0	t		28.0	male	east_asian	1.5563072025467568	neutral	005	sub-10	2.0	6.0	005_neutral	0.0		179.11621354601812	
25.0	156.09793195628663	pulse	1.0	t		28.0	male	east_asian	1.5563072025467568	neutral	005	sub-10	2.0	6.0	005_neutral	0.0		179.8162036753347	
25.0	156.79792691529656	pulse	1.0	t		28.0	male	east_asian	1.5563072025467568	neutral	005	sub-10	2.0	6.0	005_neutral	0.0		180.51619863434462	
25.0	157.49790647966438	pulse	1.0	t		28.0	male	east_asian	1.5563072025467568	neutral	005	sub-10	2.0	6.0	005_neutral	0.0		181.21617819871244	
25.0	158.19789842011596	pulse	1.0	t		28.0	male	east_asian	1.5563072025467568	neutral	005	sub-10	2.0	6.0	005_neutral	0.0		181.91617013916402	
26.0	158.27276678838462	face	0.0		146	34.0	male	white	2.651014723438122	smiling	121	sub-10	2.0	6.0	121_smiling	0.0		181.99103850743268	1.2333211886725621
26.0	158.89788764386685	pulse	0.0	t		34.0	male	white	2.651014723438122	smiling	121	sub-10	2.0	6.0	121_smiling	0.0		182.6161593629149	
26.0	159.50608797705718	fix	1.0		443	34.0	male	white	2.651014723438122	smiling	121	sub-10	2.0	6.0	121_smiling	0.0		183.22435969610524	3.7666039511095732
26.0	159.5979671224777	pulse	1.0	t		34.0	male	white	2.651014723438122	smiling	121	sub-10	2.0	6.0	121_smiling	0.0		183.31623884152577	
26.0	160.29794185715582	pulse	1.0	t		34.0	male	white	2.651014723438122	smiling	121	sub-10	2.0	6.0	121_smiling	0.0		184.01621357620388	
26.0	160.9978459575941	pulse	1.0	t		34.0	male	white	2.651014723438122	smiling	121	sub-10	2.0	6.0	121_smiling	0.0		184.71611767664217	
26.0	161.69783548319901	pulse	1.0	t		34.0	male	white	2.651014723438122	smiling	121	sub-10	2.0	6.0	121_smiling	0.0		185.41610720224708	
26.0	162.39781957540254	pulse	1.0	t		34.0	male	white	2.651014723438122	smiling	121	sub-10	2.0	6.0	121_smiling	0.0		186.1160912944506	
26.0	163.09781272327746	pulse	1.0	t		34.0	male	white	2.651014723438122	smiling	121	sub-10	2.0	6.0	121_smiling	0.0		186.81608444232552	
27.0	163.27269192816675	face	0.0		146	20.0	female	white	3.9502586549940313	neutral	091	sub-10	2.0	6.0	091_neutral	0.0		186.9909636472148	1.2416155801001878
27.0	163.79781039899171	pulse	0.0	t		20.0	female	white	3.9502586549940313	neutral	091	sub-10	2.0	6.0	091_neutral	0.0		187.51608211803978	
27.0	164.49779871717328	pulse	0.0	t		20.0	female	white	3.9502586549940313	neutral	091	sub-10	2.0	6.0	091_neutral	0.0		188.21607043622134	
27.0	164.51430750826694	fix	1.0		443	20.0	female	white	3.9502586549940313	neutral	091	sub-10	2.0	6.0	091_neutral	0.0		188.232579227315	3.758297787309857
27.0	165.1977764704061	pulse	1.0	t		20.0	female	white	3.9502586549940313	neutral	091	sub-10	2.0	6.0	091_neutral	0.0		188.91604818945416	
27.0	165.89776448673365	pulse	1.0	t		20.0	female	white	3.9502586549940313	neutral	091	sub-10	2.0	6.0	091_neutral	0.0		189.6160362057817	
27.0	166.59774435295913	pulse	1.0	t		20.0	female	white	3.9502586549940313	neutral	091	sub-10	2.0	6.0	091_neutral	0.0		190.3160160720072	
27.0	167.29772904887432	pulse	1.0	t		20.0	female	white	3.9502586549940313	neutral	091	sub-10	2.0	6.0	091_neutral	0.0		191.01600076792238	
27.0	167.9980687271127	pulse	1.0	t		20.0	female	white	3.9502586549940313	neutral	091	sub-10	2.0	6.0	091_neutral	0.0		191.71634044616076	
28.0	168.2726052955768	face	0.0		145	28.0	male	white	3.9076800636689217	smiling	033	sub-10	2.0	6.0	033_smiling	0.0		191.99087701462486	1.2333106237201719
28.0	168.6977123260658	pulse	0.0	t		28.0	male	white	3.9076800636689217	smiling	033	sub-10	2.0	6.0	033_smiling	0.0		192.41598404511387	
28.0	169.3976940034263	pulse	0.0	t		28.0	male	white	3.9076800636689217	smiling	033	sub-10	2.0	6.0	033_smiling	0.0		193.11596572247436	
28.0	169.50591591929697	fix	1.0		444	28.0	male	white	3.9076800636689217	smiling	033	sub-10	2.0	6.0	033_smiling	0.0		193.22418763834503	3.766597310284851
28.0	170.09768896243622	pulse	1.0	t		28.0	male	white	3.9076800636689217	smiling	033	sub-10	2.0	6.0	033_smiling	0.0		193.81596068148428	
28.0	170.79767396020543	pulse	1.0	t		28.0	male	white	3.9076800636689217	smiling	033	sub-10	2.0	6.0	033_smiling	0.0		194.5159456792535	
28.0	171.49765563756227	pulse	1.0	t		28.0	male	white	3.9076800636689217	smiling	033	sub-10	2.0	6.0	033_smiling	0.0		195.21592735661034	
28.0	172.19764486131317	pulse	1.0	t		28.0	male	white	3.9076800636689217	smiling	033	sub-10	2.0	6.0	033_smiling	0.0		195.91591658036123	
28.0	172.89763317949837	pulse	1.0	t		28.0	male	white	3.9076800636689217	smiling	033	sub-10	2.0	6.0	033_smiling	0.0		196.61590489854643	
29.0	173.27251322958182	face	0.0		145	25.0	female	west_asian	2.6756864305610826	smiling	064	sub-10	2.0	6.0	064_smiling	0.0		196.99078494862988	1.2333100200085028
29.0	173.59762391252661	pulse	0.0	t		25.0	female	west_asian	2.6756864305610826	smiling	064	sub-10	2.0	6.0	064_smiling	0.0		197.31589563157468	
29.0	174.2976131362775	pulse	0.0	t		25.0	female	west_asian	2.6756864305610826	smiling	064	sub-10	2.0	6.0	064_smiling	0.0		198.01588485532557	
29.0	174.50582324959032	fix	1.0		444	25.0	female	west_asian	2.6756864305610826	smiling	064	sub-10	2.0	6.0	064_smiling	0.0		198.22409496863838	3.766602139978204
29.0	174.9976005488934	pulse	1.0	t		25.0	female	west_asian	2.6756864305610826	smiling	064	sub-10	2.0	6.0	064_smiling	0.0		198.71587226794145	
29.0	175.69757830212984	pulse	1.0	t		25.0	female	west_asian	2.6756864305610826	smiling	064	sub-10	2.0	6.0	064_smiling	0.0		199.4158500211779	
29.0	176.39756148876404	pulse	1.0	t		25.0	female	west_asian	2.6756864305610826	smiling	064	sub-10	2.0	6.0	064_smiling	0.0		200.1158332078121	
29.0	177.0975594663323	pulse	1.0	t		25.0	female	west_asian	2.6756864305610826	smiling	064	sub-10	2.0	6.0	064_smiling	0.0		200.81583118538038	
29.0	177.7975541234846	pulse	1.0	t		25.0	female	west_asian	2.6756864305610826	smiling	064	sub-10	2.0	6.0	064_smiling	0.0		201.51582584253265	
30.0	178.27242538956853	face	0.0		145	19.0	female	white	4.298846000795861	neutral	100	sub-10	2.0	6.0	100_neutral	0.0		201.9906971086166	1.2333121329975256
30.0	178.49754787507118	pulse	0.0	t		19.0	female	white	4.298846000795861	neutral	100	sub-10	2.0	6.0	100_neutral	0.0		202.21581959411924	
30.0	179.1975229116033	pulse	0.0	t		19.0	female	white	4.298846000795861	neutral	100	sub-10	2.0	6.0	100_neutral	0.0		202.91579463065136	
30.0	179.50573752256605	fix	1.0		444	19.0	female	white	4.298846000795861	neutral	100	sub-10	2.0	6.0	100_neutral	0.0		203.2240092416141	3.766597310284851
30.0	179.89748708132902	pulse	1.0	t		19.0	female	white	4.298846000795861	neutral	100	sub-10	2.0	6.0	100_neutral	0.0		203.61575880037708	
30.0	180.59749200157967	pulse	1.0	t		19.0	female	white	4.298846000795861	neutral	100	sub-10	2.0	6.0	100_neutral	0.0		204.31576372062773	
30.0	181.2974896772903	pulse	1.0	t		19.0	female	white	4.298846000795861	neutral	100	sub-10	2.0	6.0	100_neutral	0.0		205.01576139633835	
30.0	181.99749157897895	pulse	1.0	t		19.0	female	white	4.298846000795861	neutral	100	sub-10	2.0	6.0	100_neutral	0.0		205.715763298027	
30.0	182.6974521264383	pulse	1.0	t		19.0	female	white	4.298846000795861	neutral	100	sub-10	2.0	6.0	100_neutral	0.0		206.41572384548635	
31.0	183.2723348328509	face	0.0		145	28.0	female	white	5.676880222841227	neutral	124	sub-10	2.0	6.0	124_neutral	0.0		206.99060655189896	1.2333130385668483
31.0	183.39746066895532	pulse	0.0	t		28.0	female	white	5.676880222841227	neutral	124	sub-10	2.0	6.0	124_neutral	0.0		207.11573238800338	
31.0	184.09743751662245	pulse	0.0	t		28.0	female	white	5.676880222841227	neutral	124	sub-10	2.0	6.0	124_neutral	0.0		207.8157092356705	
31.0	184.50564787141775	fix	1.0		444	28.0	female	white	5.676880222841227	neutral	124	sub-10	2.0	6.0	124_neutral	0.0		208.2239195904658	3.766596102861513
31.0	184.7974481721285	pulse	1.0	t		28.0	female	white	5.676880222841227	neutral	124	sub-10	2.0	6.0	124_neutral	0.0		208.51571989117656	
31.0	185.49741083257686	pulse	1.0	t		28.0	female	white	5.676880222841227	neutral	124	sub-10	2.0	6.0	124_neutral	0.0		209.21568255162492	
31.0	186.1973970377694	pulse	1.0	t		28.0	female	white	5.676880222841227	neutral	124	sub-10	2.0	6.0	124_neutral	0.0		209.91566875681747	
31.0	186.89738777079765	pulse	1.0	t		28.0	female	white	5.676880222841227	neutral	124	sub-10	2.0	6.0	124_neutral	0.0		210.6156594898457	
31.0	187.59736914630048	pulse	1.0	t		28.0	female	white	5.676880222841227	neutral	124	sub-10	2.0	6.0	124_neutral	0.0		211.31564086534854	
32.0	188.27224397427926	face	0.0		145	24.0	female	black	3.0955033824114606	neutral	099	sub-10	2.0	6.0	099_neutral	0.0		211.99051569332732	1.2333154534135247
32.0	188.2973804055182	pulse	0.0	t		24.0	female	black	3.0955033824114606	neutral	099	sub-10	2.0	6.0	099_neutral	0.0		212.01565212456626	
32.0	188.99734638637892	pulse	0.0	t		24.0	female	black	3.0955033824114606	neutral	099	sub-10	2.0	6.0	099_neutral	0.0		212.71561810542698	
32.0	189.5055594276928	fix	1.0		443	24.0	female	black	3.0955033824114606	neutral	099	sub-10	2.0	6.0	099_neutral	0.0		213.22383114674085	3.7665976121425047
32.0	189.69736247529	pulse	1.0	t		24.0	female	black	3.0955033824114606	neutral	099	sub-10	2.0	6.0	099_neutral	0.0		213.41563419433805	
32.0	190.39733358769809	pulse	1.0	t		24.0	female	black	3.0955033824114606	neutral	099	sub-10	2.0	6.0	099_neutral	0.0		214.11560530674615	
32.0	191.09731103907325	pulse	1.0	t		24.0	female	black	3.0955033824114606	neutral	099	sub-10	2.0	6.0	099_neutral	0.0		214.8155827581213	
32.0	191.79730147024748	pulse	1.0	t		24.0	female	black	3.0955033824114606	neutral	099	sub-10	2.0	6.0	099_neutral	0.0		215.51557318929554	
32.0	192.4972765067796	pulse	1.0	t		24.0	female	black	3.0955033824114606	neutral	099	sub-10	2.0	6.0	099_neutral	0.0		216.21554822582766	
32.0	193.1972720695012	pulse	1.0	t		24.0	female	black	3.0955033824114606	neutral	099	sub-10	2.0	6.0	099_neutral	0.0		216.91554378854926	
33.0	193.2721570398353	face	0.0		146	31.0	female	west_asian	2.364902506963788	neutral	006	sub-10	2.0	6.0	006_neutral	0.0		216.99042875888335	1.2333121329975256
33.0	193.89725797283972	pulse	0.0	t		31.0	female	west_asian	2.364902506963788	neutral	006	sub-10	2.0	6.0	006_neutral	0.0		217.6155296918878	
33.0	194.50546917283282	fix	1.0		443	31.0	female	west_asian	2.364902506963788	neutral	006	sub-10	2.0	6.0	006_neutral	0.0		218.22374089188088	3.7665991214198584
33.0	194.59724870586797	pulse	1.0	t		31.0	female	west_asian	2.364902506963788	neutral	006	sub-10	2.0	6.0	006_neutral	0.0		218.31552042491603	
33.0	195.29723219435982	pulse	1.0	t		31.0	female	west_asian	2.364902506963788	neutral	006	sub-10	2.0	6.0	006_neutral	0.0		219.01550391340788	
33.0	195.99722051254503	pulse	1.0	t		31.0	female	west_asian	2.364902506963788	neutral	006	sub-10	2.0	6.0	006_neutral	0.0		219.7154922315931	
33.0	196.69719826577784	pulse	1.0	t		31.0	female	west_asian	2.364902506963788	neutral	006	sub-10	2.0	6.0	006_neutral	0.0		220.4154699848259	
33.0	197.39719684705778	pulse	1.0	t		31.0	female	west_asian	2.364902506963788	neutral	006	sub-10	2.0	6.0	006_neutral	0.0		221.11546856610585	
33.0	198.09718335410435	pulse	1.0	t		31.0	female	west_asian	2.364902506963788	neutral	006	sub-10	2.0	6.0	006_neutral	0.0		221.8154550731524	
34.0	198.27206829425268	face	0.0		146	47.0	male	east_asian	2.171110226820533	neutral	024	sub-10	2.0	6.0	024_neutral	0.0		221.99034001330074	1.2416306728882773
34.0	198.79718616136597	pulse	0.0	t		47.0	male	east_asian	2.171110226820533	neutral	024	sub-10	2.0	6.0	024_neutral	0.0		222.51545788041403	
34.0	199.49716029232877	pulse	0.0	t		47.0	male	east_asian	2.171110226820533	neutral	024	sub-10	2.0	6.0	024_neutral	0.0		223.21543201137683	
34.0	199.51369896714095	fix	1.0		443	47.0	male	east_asian	2.171110226820533	neutral	024	sub-10	2.0	6.0	024_neutral	0.0		223.23197068618902	3.749985586389812
34.0	200.19714710123299	pulse	1.0	t		47.0	male	east_asian	2.171110226820533	neutral	024	sub-10	2.0	6.0	024_neutral	0.0		223.91541882028105	
34.0	200.89712787302415	pulse	1.0	t		47.0	male	east_asian	2.171110226820533	neutral	024	sub-10	2.0	6.0	024_neutral	0.0		224.6153995920722	
34.0	201.59711709677504	pulse	1.0	t		47.0	male	east_asian	2.171110226820533	neutral	024	sub-10	2.0	6.0	024_neutral	0.0		225.3153888158231	
34.0	202.2971060186719	pulse	1.0	t		47.0	male	east_asian	2.171110226820533	neutral	024	sub-10	2.0	6.0	024_neutral	0.0		226.01537773771997	
34.0	202.9970937331418	pulse	1.0	t		47.0	male	east_asian	2.171110226820533	neutral	024	sub-10	2.0	6.0	024_neutral	0.0		226.71536545218987	
35.0	203.26368455353077	face	0.0		146	40.0	female	west_asian	1.5777954635893354	smiling	038	sub-10	2.0	6.0	038_smiling	0.0		226.98195627257883	1.241617391235195
35.0	203.69707812720299	pulse	0.0	t		40.0	female	west_asian	1.5777954635893354	smiling	038	sub-10	2.0	6.0	038_smiling	0.0		227.41534984625105	
35.0	204.39707338806693	pulse	0.0	t		40.0	female	west_asian	1.5777954635893354	smiling	038	sub-10	2.0	6.0	038_smiling	0.0		228.115345107115	
35.0	204.50530194476596	fix	1.0		444	40.0	female	west_asian	1.5777954635893354	smiling	038	sub-10	2.0	6.0	038_smiling	0.0		228.22357366381402	3.7665864434784453
35.0	205.09705717841643	pulse	1.0	t		40.0	female	west_asian	1.5777954635893354	smiling	038	sub-10	2.0	6.0	038_smiling	0.0		228.8153288974645	
35.0	205.79707326732387	pulse	1.0	t		40.0	female	west_asian	1.5777954635893354	smiling	038	sub-10	2.0	6.0	038_smiling	0.0		229.51534498637193	
35.0	206.49703139993653	pulse	1.0	t		40.0	female	west_asian	1.5777954635893354	smiling	038	sub-10	2.0	6.0	038_smiling	0.0		230.2153031189846	
35.0	207.19702001997575	pulse	1.0	t		40.0	female	west_asian	1.5777954635893354	smiling	038	sub-10	2.0	6.0	038_smiling	0.0		230.91529173902381	
35.0	207.8970068288836	pulse	1.0	t		40.0	female	west_asian	1.5777954635893354	smiling	038	sub-10	2.0	6.0	038_smiling	0.0		231.61527854793167	
36.0	208.2718883882444	face	0.0		145	21.0	male	black	2.969757262236371	smiling	137	sub-10	2.0	6.0	137_smiling	0.0		231.99016010729247	1.2333208868149086
36.0	208.5970063157256	pulse	0.0	t		21.0	male	black	2.969757262236371	smiling	137	sub-10	2.0	6.0	137_smiling	0.0		232.31527803477366	
36.0	209.29698406896205	pulse	0.0	t		21.0	male	black	2.969757262236371	smiling	137	sub-10	2.0	6.0	137_smiling	0.0		233.0152557880101	
36.0	209.50520927505931	fix	1.0		444	21.0	male	black	2.969757262236371	smiling	137	sub-10	2.0	6.0	137_smiling	0.0		233.22348099410738	3.7665897638908064
36.0	209.9969748019903	pulse	1.0	t		21.0	male	black	2.969757262236371	smiling	137	sub-10	2.0	6.0	137_smiling	0.0		233.71524652103835	
36.0	210.69695557378145	pulse	1.0	t		21.0	male	black	2.969757262236371	smiling	137	sub-10	2.0	6.0	137_smiling	0.0		234.4152272928295	
36.0	211.39694268454332	pulse	1.0	t		21.0	male	black	2.969757262236371	smiling	137	sub-10	2.0	6.0	137_smiling	0.0		235.11521440359138	
36.0	212.0969319082942	pulse	1.0	t		21.0	male	black	2.969757262236371	smiling	137	sub-10	2.0	6.0	137_smiling	0.0		235.81520362734227	
36.0	212.79692475431148	pulse	1.0	t		21.0	male	black	2.969757262236371	smiling	137	sub-10	2.0	6.0	137_smiling	0.0		236.51519647335954	
37.0	213.27179903895012	face	0.0		145	22.0	female	west_asian	3.8205332272184642	neutral	066	sub-10	2.0	6.0	066_neutral	0.0		236.99007075799818	1.233313944136171
37.0	213.49691126136167	pulse	0.0	t		22.0	female	west_asian	3.8205332272184642	neutral	066	sub-10	2.0	6.0	066_neutral	0.0		237.21518298040974	
37.0	214.19689203315284	pulse	0.0	t		22.0	female	west_asian	3.8205332272184642	neutral	066	sub-10	2.0	6.0	066_neutral	0.0		237.9151637522009	
37.0	214.5051129830863	fix	1.0		444	22.0	female	west_asian	3.8205332272184642	neutral	066	sub-10	2.0	6.0	066_neutral	0.0		238.22338470213435	3.76659791399652
37.0	214.89688699216276	pulse	1.0	t		22.0	female	west_asian	3.8205332272184642	neutral	066	sub-10	2.0	6.0	066_neutral	0.0		238.61515871121082	
37.0	215.5968641416839	pulse	1.0	t		22.0	female	west_asian	3.8205332272184642	neutral	066	sub-10	2.0	6.0	066_neutral	0.0		239.31513586073197	
37.0	216.29685457285814	pulse	1.0	t		22.0	female	west_asian	3.8205332272184642	neutral	066	sub-10	2.0	6.0	066_neutral	0.0		240.0151262919062	
37.0	216.99685647455044	pulse	1.0	t		22.0	female	west_asian	3.8205332272184642	neutral	066	sub-10	2.0	6.0	066_neutral	0.0		240.7151281935985	
37.0	217.69683030365923	pulse	1.0	t		22.0	female	west_asian	3.8205332272184642	neutral	066	sub-10	2.0	6.0	066_neutral	0.0		241.4151020227073	
38.0	218.2717108970828	face	0.0		145	27.0	male	black	3.5523278949462798	smiling	042	sub-10	2.0	6.0	042_smiling	0.0		241.98998261613087	1.2333124348551792
38.0	218.39682556452317	pulse	0.0	t		27.0	male	black	3.5523278949462798	smiling	042	sub-10	2.0	6.0	042_smiling	0.0		242.11509728357123	
38.0	219.09680935487268	pulse	0.0	t		27.0	male	black	3.5523278949462798	smiling	042	sub-10	2.0	6.0	042_smiling	0.0		242.81508107392074	
38.0	219.505023331938	fix	1.0		444	27.0	male	black	3.5523278949462798	smiling	042	sub-10	2.0	6.0	042_smiling	0.0		243.22329505098605	3.7665976121388667
38.0	219.79680310645927	pulse	1.0	t		27.0	male	black	3.5523278949462798	smiling	042	sub-10	2.0	6.0	042_smiling	0.0		243.51507482550733	
38.0	220.49678448195846	pulse	1.0	t		27.0	male	black	3.5523278949462798	smiling	042	sub-10	2.0	6.0	042_smiling	0.0		244.21505620100652	
38.0	221.19676283890658	pulse	1.0	t		27.0	male	black	3.5523278949462798	smiling	042	sub-10	2.0	6.0	042_smiling	0.0		244.91503455795464	
38.0	221.89676745729594	pulse	1.0	t		27.0	male	black	3.5523278949462798	smiling	042	sub-10	2.0	6.0	042_smiling	0.0		245.615039176344	
38.0	222.5967418901164	pulse	1.0	t		27.0	male	black	3.5523278949462798	smiling	042	sub-10	2.0	6.0	042_smiling	0.0		246.31501360916445	
39.0	223.27162094407686	face	0.0		145	27.0	female	white	4.181058495821727	smiling	039	sub-10	2.0	6.0	039_smiling	1.0	trustworthiness	246.98989266312492	1.2333142459901865
39.0	223.29675164005675	pulse	0.0	t		27.0	female	white	4.181058495821727	smiling	039	sub-10	2.0	6.0	039_smiling	1.0	trustworthiness	247.01502335910482	
39.0	223.99672697844653	pulse	0.0	t		27.0	female	white	4.181058495821727	smiling	039	sub-10	2.0	6.0	039_smiling	1.0	trustworthiness	247.7149986974946	
39.0	224.50493519006704	fix	1.0		177	27.0	female	white	4.181058495821727	smiling	039	sub-10	2.0	6.0	039_smiling	1.0	trustworthiness	248.2232069091151	1.499971776491293
39.0	224.69671499477408	pulse	1.0	t		27.0	female	white	4.181058495821727	smiling	039	sub-10	2.0	6.0	039_smiling	1.0	trustworthiness	248.41498671382215	
39.0	225.3966945591419	pulse	1.0	t		27.0	female	white	4.181058495821727	smiling	039	sub-10	2.0	6.0	039_smiling	1.0	trustworthiness	249.11496627818997	
39.0	226.00490696655834	rating	2.0		294	27.0	female	white	4.181058495821727	smiling	039	sub-10	2.0	6.0	039_smiling	1.0	trustworthiness	249.7231786856064	2.4999518540134886
39.0	226.09676377465803	pulse	2.0	t		27.0	female	white	4.181058495821727	smiling	039	sub-10	2.0	6.0	039_smiling	1.0	trustworthiness	249.8150354937061	
39.0	226.79667361035536	pulse	2.0	t		27.0	female	white	4.181058495821727	smiling	039	sub-10	2.0	6.0	039_smiling	1.0	trustworthiness	250.51494532940342	
39.0	227.49666494709527	pulse	2.0	t		27.0	female	white	4.181058495821727	smiling	039	sub-10	2.0	6.0	039_smiling	1.0	trustworthiness	251.21493666614333	
39.0	228.01641702695633	response	2.0	b		27.0	female	white	4.181058495821727	smiling	039	sub-10	2.0	6.0	039_smiling	1.0	trustworthiness	251.7346887460044	
39.0	228.19664119105073	pulse	2.0	t		27.0	female	white	4.181058495821727	smiling	039	sub-10	2.0	6.0	039_smiling	1.0	trustworthiness	251.9149129100988	
39.0	228.50485882057183	fix	3.0		444	27.0	female	white	4.181058495821727	smiling	039	sub-10	2.0	6.0	039_smiling	1.0	trustworthiness	252.2231305396199	3.749935176485451
39.0	228.8966400741847	pulse	3.0	t		27.0	female	white	4.181058495821727	smiling	039	sub-10	2.0	6.0	039_smiling	1.0	trustworthiness	252.61491179323275	
39.0	229.59661722370583	pulse	3.0	t		27.0	female	white	4.181058495821727	smiling	039	sub-10	2.0	6.0	039_smiling	1.0	trustworthiness	253.3148889427539	
39.0	230.29660554189104	pulse	3.0	t		27.0	female	white	4.181058495821727	smiling	039	sub-10	2.0	6.0	039_smiling	1.0	trustworthiness	254.0148772609391	
39.0	230.99659295450692	pulse	3.0	t		27.0	female	white	4.181058495821727	smiling	039	sub-10	2.0	6.0	039_smiling	1.0	trustworthiness	254.71486467355498	
39.0	231.69657946155712	pulse	3.0	t		27.0	female	white	4.181058495821727	smiling	039	sub-10	2.0	6.0	039_smiling	1.0	trustworthiness	255.41485118060518	
40.0	232.25479399705728	fix	0.0		720													255.97306571610534	5.999893143074587
40.0	232.39657623169842	pulse	0.0	t														256.1148479507465	
40.0	233.09656304060627	pulse	0.0	t														256.81483475965433	
40.0	233.79655709404688	pulse	0.0	t														257.51482881309494	
40.0	234.49652699903163	pulse	0.0	t														258.2147987180797	
40.0	235.19652105247587	pulse	0.0	t														258.91479277152393	
40.0	235.89651027622676	pulse	0.0	t														259.6147819952748	
40.0	236.59648893502526	pulse	0.0	t														260.3147606540733	
40.0	237.29648208290018	pulse	0.0	t														261.01475380194825	
40.0	237.9964767400561	pulse	0.0	t														261.71474845910416	
