trial_nr	onset	event_type	phase	response	nr_frames	face_age	face_sex	face_eth	attractiveness	expression	face_id	sub_id	ses	run	trial_type	catch	rating_type	onset_abs	duration
-1.0	0.0575666846070817	fix	0.0		714													90.19976660727252	5.966257967786532
-1.0	0.7074335221627734	pulse	0.0	t														90.84963344482821	
-1.0	1.4074133885687843	pulse	0.0	t														91.54961331123422	
-1.0	2.1073866142087354	pulse	0.0	t														92.24958653687418	
-1.0	2.8073734232334573	pulse	0.0	t														92.9495733458989	
-1.0	3.5073587229931036	pulse	0.0	t														93.64955864565854	
-1.0	4.207336476427827	pulse	0.0	t														94.34953639909327	
-1.0	4.907315437274974	pulse	0.0	t														95.04951535994041	
-1.0	5.607302850005453	pulse	0.0	t														95.7495027726709	
0.0	6.023824652393614	face	0.0		144	37.0	male	white	3.898925586947871	neutral	101	sub-14	2.0	5.0	101_neutral	0.0		96.16602457505905	1.2333106239275367
0.0	6.307287847911994	pulse	0.0	t		37.0	male	white	3.898925586947871	neutral	101	sub-14	2.0	5.0	101_neutral	0.0		96.44948777057743	
0.0	7.00725986614043	pulse	0.0	t		37.0	male	white	3.898925586947871	neutral	101	sub-14	2.0	5.0	101_neutral	0.0		97.14945978880587	
0.0	7.257135276321151	fix	1.0		444	37.0	male	white	3.898925586947871	neutral	101	sub-14	2.0	5.0	101_neutral	0.0		97.39933519898659	3.758234775817982
0.0	7.707253617783863	pulse	1.0	t		37.0	male	white	3.898925586947871	neutral	101	sub-14	2.0	5.0	101_neutral	0.0		97.8494535404493	
0.0	8.407228956394647	pulse	1.0	t		37.0	male	white	3.898925586947871	neutral	101	sub-14	2.0	5.0	101_neutral	0.0		98.54942887906009	
0.0	9.107186183826798	pulse	1.0	t		37.0	male	white	3.898925586947871	neutral	101	sub-14	2.0	5.0	101_neutral	0.0		99.24938610649224	
0.0	9.807175105822353	pulse	1.0	t		37.0	male	white	3.898925586947871	neutral	101	sub-14	2.0	5.0	101_neutral	0.0		99.9493750284878	
0.0	10.507169159318437	pulse	1.0	t		37.0	male	white	3.898925586947871	neutral	101	sub-14	2.0	5.0	101_neutral	0.0		100.64936908198388	
1.0	11.015370052139133	face	0.0		146	25.0	female	black	3.858336649423	neutral	126	sub-14	2.0	5.0	126_neutral	0.0		101.15756997480457	1.2416302958977212
1.0	11.207155364636947	pulse	0.0	t		25.0	female	black	3.858336649423	neutral	126	sub-14	2.0	5.0	126_neutral	0.0		101.34935528730239	
1.0	11.907132514365912	pulse	0.0	t		25.0	female	black	3.858336649423	neutral	126	sub-14	2.0	5.0	126_neutral	0.0		102.04933243703135	
1.0	12.257000348036854	fix	1.0		445	25.0	female	black	3.858336649423	neutral	126	sub-14	2.0	5.0	126_neutral	0.0		102.3992002707023	3.7582565092329787
1.0	12.607119927096846	pulse	1.0	t		25.0	female	black	3.858336649423	neutral	126	sub-14	2.0	5.0	126_neutral	0.0		102.74931984976229	
1.0	13.307093454589904	pulse	1.0	t		25.0	female	black	3.858336649423	neutral	126	sub-14	2.0	5.0	126_neutral	0.0		103.44929337725534	
1.0	14.00707754693758	pulse	1.0	t		25.0	female	black	3.858336649423	neutral	126	sub-14	2.0	5.0	126_neutral	0.0		104.14927746960302	
1.0	14.707051074430638	pulse	1.0	t		25.0	female	black	3.858336649423	neutral	126	sub-14	2.0	5.0	126_neutral	0.0		104.84925099709608	
1.0	15.407035770484526	pulse	1.0	t		25.0	female	black	3.858336649423	neutral	126	sub-14	2.0	5.0	126_neutral	0.0		105.54923569314997	
2.0	16.015256857269833	face	0.0		146	20.0	female	white	3.9502586549940313	smiling	091	sub-14	2.0	5.0	091_smiling	0.0		106.15745677993527	1.2416100717473455
2.0	16.107026503597808	pulse	0.0	t		20.0	female	white	3.9502586549940313	smiling	091	sub-14	2.0	5.0	091_smiling	0.0		106.24922642626325	
2.0	16.807000936650184	pulse	0.0	t		20.0	female	white	3.9502586549940313	smiling	091	sub-14	2.0	5.0	091_smiling	0.0		106.94920085931562	
2.0	17.25686692901718	fix	1.0		444	20.0	female	white	3.9502586549940313	smiling	091	sub-14	2.0	5.0	091_smiling	0.0		107.39906685168262	3.758232662847604
2.0	17.506985934556724	pulse	1.0	t		20.0	female	white	3.9502586549940313	smiling	091	sub-14	2.0	5.0	091_smiling	0.0		107.64918585722216	
2.0	18.206964895403416	pulse	1.0	t		20.0	female	white	3.9502586549940313	smiling	091	sub-14	2.0	5.0	091_smiling	0.0		108.34916481806886	
2.0	18.906948987751093	pulse	1.0	t		20.0	female	white	3.9502586549940313	smiling	091	sub-14	2.0	5.0	091_smiling	0.0		109.04914891041653	
2.0	19.606922515244605	pulse	1.0	t		20.0	female	white	3.9502586549940313	smiling	091	sub-14	2.0	5.0	091_smiling	0.0		109.74912243791005	
2.0	20.306902683503267	pulse	1.0	t		20.0	female	white	3.9502586549940313	smiling	091	sub-14	2.0	5.0	091_smiling	0.0		110.44910260616871	
3.0	21.015099591864782	face	0.0		147	40.0	female	west_asian	1.5777954635893354	neutral	038	sub-14	2.0	5.0	038_neutral	0.0		111.15729951453022	1.2416308996034786
3.0	21.008962015122506	pulse	0.0	t		40.0	female	west_asian	1.5777954635893354	neutral	038	sub-14	2.0	5.0	038_neutral	0.0		111.15116193778795	
3.0	21.7068756978465	pulse	0.0	t		40.0	female	west_asian	1.5777954635893354	neutral	038	sub-14	2.0	5.0	038_neutral	0.0		111.84907562051194	
3.0	22.25673049146826	fix	1.0		443	40.0	female	west_asian	1.5777954635893354	neutral	038	sub-14	2.0	5.0	038_neutral	0.0		112.3989304141337	3.76657135155574
3.0	22.40684982904577	pulse	1.0	t		40.0	female	west_asian	1.5777954635893354	neutral	038	sub-14	2.0	5.0	038_neutral	0.0		112.54904975171121	
3.0	23.10683301583458	pulse	1.0	t		40.0	female	west_asian	1.5777954635893354	neutral	038	sub-14	2.0	5.0	038_neutral	0.0		113.24903293850002	
3.0	23.806819523006197	pulse	1.0	t		40.0	female	west_asian	1.5777954635893354	neutral	038	sub-14	2.0	5.0	038_neutral	0.0		113.94901944567164	
3.0	24.506796370882057	pulse	1.0	t		40.0	female	west_asian	1.5777954635893354	neutral	038	sub-14	2.0	5.0	038_neutral	0.0		114.6489962935475	
3.0	25.206773520611023	pulse	1.0	t		40.0	female	west_asian	1.5777954635893354	neutral	038	sub-14	2.0	5.0	038_neutral	0.0		115.34897344327646	
3.0	25.906755801840973	pulse	1.0	t		40.0	female	west_asian	1.5777954635893354	neutral	038	sub-14	2.0	5.0	038_neutral	0.0		116.04895572450641	
4.0	26.023301843024	face	0.0		146	22.0	female	west_asian	3.8205332272184642	neutral	066	sub-14	2.0	5.0	066_neutral	0.0		116.16550176568944	1.2332976442485233
4.0	26.60672812192206	pulse	0.0	t		22.0	female	west_asian	3.8205332272184642	neutral	066	sub-14	2.0	5.0	066_neutral	0.0		116.7489280445875	
4.0	27.256599487272524	fix	1.0		443	22.0	female	west_asian	3.8205332272184642	neutral	066	sub-14	2.0	5.0	066_neutral	0.0		117.39879940993796	3.766570144144225
4.0	27.306758397776775	pulse	1.0	t		22.0	female	west_asian	3.8205332272184642	neutral	066	sub-14	2.0	5.0	066_neutral	0.0		117.44895832044222	
4.0	28.006702645530368	pulse	1.0	t		22.0	female	west_asian	3.8205332272184642	neutral	066	sub-14	2.0	5.0	066_neutral	0.0		118.14890256819581	
4.0	28.70668703973115	pulse	1.0	t		22.0	female	west_asian	3.8205332272184642	neutral	066	sub-14	2.0	5.0	066_neutral	0.0		118.84888696239659	
4.0	29.40667083022572	pulse	1.0	t		22.0	female	west_asian	3.8205332272184642	neutral	066	sub-14	2.0	5.0	066_neutral	0.0		119.54887075289116	
4.0	30.106643452159915	pulse	1.0	t		22.0	female	west_asian	3.8205332272184642	neutral	066	sub-14	2.0	5.0	066_neutral	0.0		120.24884337482536	
4.0	30.80663358156744	pulse	1.0	t		22.0	female	west_asian	3.8205332272184642	neutral	066	sub-14	2.0	5.0	066_neutral	0.0		120.94883350423288	
5.0	31.02316963141675	face	0.0		145	23.0	male	white	2.6275368085953046	smiling	141	sub-14	2.0	5.0	141_smiling	1.0	trustworthiness	121.16536955408219	1.233301568337538
5.0	31.506614051679207	pulse	0.0	t		23.0	male	white	2.6275368085953046	smiling	141	sub-14	2.0	5.0	141_smiling	1.0	trustworthiness	121.64881397434465	
5.0	32.206586371760295	pulse	0.0	t		23.0	male	white	2.6275368085953046	smiling	141	sub-14	2.0	5.0	141_smiling	1.0	trustworthiness	122.34878629442574	
5.0	32.25647119975429	fix	1.0		177	23.0	male	white	2.6275368085953046	smiling	141	sub-14	2.0	5.0	141_smiling	1.0	trustworthiness	122.39867112241973	1.508338839634689
5.0	32.906568652990245	pulse	1.0	t		23.0	male	white	2.6275368085953046	smiling	141	sub-14	2.0	5.0	141_smiling	1.0	trustworthiness	123.04876857565569	
5.0	33.60655817869156	pulse	1.0	t		23.0	male	white	2.6275368085953046	smiling	141	sub-14	2.0	5.0	141_smiling	1.0	trustworthiness	123.748758101357	
5.0	33.764810039388976	rating	2.0		294	23.0	male	white	2.6275368085953046	smiling	141	sub-14	2.0	5.0	141_smiling	1.0	trustworthiness	123.90700996205442	2.4915530969965403
5.0	34.30128731242485	pulse	2.0	t		23.0	male	white	2.6275368085953046	smiling	141	sub-14	2.0	5.0	141_smiling	1.0	trustworthiness	124.44348723509029	
5.0	35.00125661397624	pulse	2.0	t		23.0	male	white	2.6275368085953046	smiling	141	sub-14	2.0	5.0	141_smiling	1.0	trustworthiness	125.14345653664168	
5.0	35.23985751331702	response	2.0	b		23.0	male	white	2.6275368085953046	smiling	141	sub-14	2.0	5.0	141_smiling	1.0	trustworthiness	125.38205743598246	
5.0	35.70649657049762	pulse	2.0	t		23.0	male	white	2.6275368085953046	smiling	141	sub-14	2.0	5.0	141_smiling	1.0	trustworthiness	125.84869649316306	
5.0	36.25636313638552	fix	3.0		443	23.0	male	white	2.6275368085953046	smiling	141	sub-14	2.0	5.0	141_smiling	1.0	trustworthiness	126.39856305905096	3.7665520329646824
5.0	36.39862252408875	pulse	3.0	t		23.0	male	white	2.6275368085953046	smiling	141	sub-14	2.0	5.0	141_smiling	1.0	trustworthiness	126.54082244675419	
5.0	37.10645781257426	pulse	3.0	t		23.0	male	white	2.6275368085953046	smiling	141	sub-14	2.0	5.0	141_smiling	1.0	trustworthiness	127.2486577352397	
5.0	37.806439188244894	pulse	3.0	t		23.0	male	white	2.6275368085953046	smiling	141	sub-14	2.0	5.0	141_smiling	1.0	trustworthiness	127.94863911091034	
5.0	38.506428412093555	pulse	3.0	t		23.0	male	white	2.6275368085953046	smiling	141	sub-14	2.0	5.0	141_smiling	1.0	trustworthiness	128.648628334759	
5.0	39.20640314699858	pulse	3.0	t		23.0	male	white	2.6275368085953046	smiling	141	sub-14	2.0	5.0	141_smiling	1.0	trustworthiness	129.34860306966402	
5.0	39.90639055972906	pulse	3.0	t		23.0	male	white	2.6275368085953046	smiling	141	sub-14	2.0	5.0	141_smiling	1.0	trustworthiness	130.0485904823945	
6.0	40.0229151693502	face	0.0		146	22.0	male	black	2.767608436132113	smiling	044	sub-14	2.0	5.0	044_smiling	0.0		130.16511509201564	1.233320283222838
6.0	40.60637344466477	pulse	0.0	t		22.0	male	black	2.767608436132113	smiling	044	sub-14	2.0	5.0	044_smiling	0.0		130.7485733673302	
6.0	41.25623545257304	fix	1.0		443	22.0	male	black	2.767608436132113	smiling	044	sub-14	2.0	5.0	044_smiling	0.0		131.39843537523848	3.7665613904073325
6.0	41.306353612923886	pulse	1.0	t		22.0	male	black	2.767608436132113	smiling	044	sub-14	2.0	5.0	044_smiling	0.0		131.44855353558933	
6.0	42.00633136635906	pulse	1.0	t		22.0	male	black	2.767608436132113	smiling	044	sub-14	2.0	5.0	044_smiling	0.0		132.1485312890245	
6.0	42.706316364265604	pulse	1.0	t		22.0	male	black	2.767608436132113	smiling	044	sub-14	2.0	5.0	044_smiling	0.0		132.84851628693104	
6.0	43.40628143987533	pulse	1.0	t		22.0	male	black	2.767608436132113	smiling	044	sub-14	2.0	5.0	044_smiling	0.0		133.54848136254077	
6.0	44.10628062487194	pulse	1.0	t		22.0	male	black	2.767608436132113	smiling	044	sub-14	2.0	5.0	044_smiling	0.0		134.24848054753738	
6.0	44.806255359777424	pulse	1.0	t		22.0	male	black	2.767608436132113	smiling	044	sub-14	2.0	5.0	044_smiling	0.0		134.94845528244286	
7.0	45.02279684298037	face	0.0		145	28.0	male	white	3.9076800636689217	smiling	033	sub-14	2.0	5.0	033_smiling	0.0		135.1649967656458	1.2333045868672343
7.0	45.506243074360555	pulse	0.0	t		28.0	male	white	3.9076800636689217	smiling	033	sub-14	2.0	5.0	033_smiling	0.0		135.648442997026	
7.0	46.20623410932694	pulse	0.0	t		28.0	male	white	3.9076800636689217	smiling	033	sub-14	2.0	5.0	033_smiling	0.0		136.34843403199238	
7.0	46.256101429847604	fix	1.0		444	28.0	male	white	3.9076800636689217	smiling	033	sub-14	2.0	5.0	033_smiling	0.0		136.39830135251304	3.766562597819302
7.0	46.906209146085075	pulse	1.0	t		28.0	male	white	3.9076800636689217	smiling	033	sub-14	2.0	5.0	033_smiling	0.0		137.04840906875052	
7.0	47.606198369933736	pulse	1.0	t		28.0	male	white	3.9076800636689217	smiling	033	sub-14	2.0	5.0	033_smiling	0.0		137.74839829259918	
7.0	48.30616042701331	pulse	1.0	t		28.0	male	white	3.9076800636689217	smiling	033	sub-14	2.0	5.0	033_smiling	0.0		138.44836034967875	
7.0	49.00614602862606	pulse	1.0	t		28.0	male	white	3.9076800636689217	smiling	033	sub-14	2.0	5.0	033_smiling	0.0		139.1483459512915	
7.0	49.70612197094306	pulse	1.0	t		28.0	male	white	3.9076800636689217	smiling	033	sub-14	2.0	5.0	033_smiling	0.0		139.8483218936085	
8.0	50.022664027666906	face	0.0		145	31.0	female	east_asian	3.395941106247513	neutral	087	sub-14	2.0	5.0	087_neutral	0.0		140.16486395033235	1.2332967386901146
8.0	50.40610787440892	pulse	0.0	t		31.0	female	east_asian	3.395941106247513	neutral	087	sub-14	2.0	5.0	087_neutral	0.0		140.54830779707436	
8.0	51.106089250080004	pulse	0.0	t		31.0	female	east_asian	3.395941106247513	neutral	087	sub-14	2.0	5.0	087_neutral	0.0		141.24828917274544	
8.0	51.25596076635702	fix	1.0		444	31.0	female	east_asian	3.395941106247513	neutral	087	sub-14	2.0	5.0	087_neutral	0.0		141.39816068902246	3.7582399073189663
8.0	51.80607545539806	pulse	1.0	t		31.0	female	east_asian	3.395941106247513	neutral	087	sub-14	2.0	5.0	087_neutral	0.0		141.9482753780635	
8.0	52.50604958659733	pulse	1.0	t		31.0	female	east_asian	3.395941106247513	neutral	087	sub-14	2.0	5.0	087_neutral	0.0		142.64824950926277	
8.0	53.20603307523925	pulse	1.0	t		31.0	female	east_asian	3.395941106247513	neutral	087	sub-14	2.0	5.0	087_neutral	0.0		143.3482329979047	
8.0	53.90601565832185	pulse	1.0	t		31.0	female	east_asian	3.395941106247513	neutral	087	sub-14	2.0	5.0	087_neutral	0.0		144.0482155809873	
8.0	54.60599612843362	pulse	1.0	t		31.0	female	east_asian	3.395941106247513	neutral	087	sub-14	2.0	5.0	087_neutral	0.0		144.74819605109906	
9.0	55.01420067367599	face	0.0		146	21.0	male	black	2.969757262236371	neutral	137	sub-14	2.0	5.0	137_neutral	0.0		145.15640059634143	1.2416471996639302
9.0	55.30598263560569	pulse	0.0	t		21.0	male	black	2.969757262236371	neutral	137	sub-14	2.0	5.0	137_neutral	0.0		145.44818255827113	
9.0	56.00597457613094	pulse	0.0	t		21.0	male	black	2.969757262236371	neutral	137	sub-14	2.0	5.0	137_neutral	0.0		146.14817449879638	
9.0	56.25584787333992	fix	1.0		444	21.0	male	black	2.969757262236371	neutral	137	sub-14	2.0	5.0	137_neutral	0.0		146.39804779600536	3.76655142925938
9.0	56.705946594359375	pulse	1.0	t		21.0	male	black	2.969757262236371	neutral	137	sub-14	2.0	5.0	137_neutral	0.0		146.84814651702482	
9.0	57.40592012185243	pulse	1.0	t		21.0	male	black	2.969757262236371	neutral	137	sub-14	2.0	5.0	137_neutral	0.0		147.54812004451787	
9.0	58.105901799375715	pulse	1.0	t		21.0	male	black	2.969757262236371	neutral	137	sub-14	2.0	5.0	137_neutral	0.0		148.24810172204116	
9.0	58.805885288017635	pulse	1.0	t		21.0	male	black	2.969757262236371	neutral	137	sub-14	2.0	5.0	137_neutral	0.0		148.94808521068308	
9.0	59.505857004392965	pulse	1.0	t		21.0	male	black	2.969757262236371	neutral	137	sub-14	2.0	5.0	137_neutral	0.0		149.6480569270584	
10.0	60.0223993025993	face	0.0		145	21.0	male	east_asian/white	3.501790688420215	smiling	036	sub-14	2.0	5.0	036_smiling	0.0		150.16459922526474	1.2332973423954172
10.0	60.205838078210945	pulse	0.0	t		21.0	male	east_asian/white	3.501790688420215	smiling	036	sub-14	2.0	5.0	036_smiling	0.0		150.3480380008764	
10.0	60.90581552979256	pulse	0.0	t		21.0	male	east_asian/white	3.501790688420215	smiling	036	sub-14	2.0	5.0	036_smiling	0.0		151.048015452458	
10.0	61.255696644994714	fix	1.0		444	21.0	male	east_asian/white	3.501790688420215	smiling	036	sub-14	2.0	5.0	036_smiling	0.0		151.39789656766015	3.7665677293198314
10.0	61.6058126018188	pulse	1.0	t		21.0	male	east_asian/white	3.501790688420215	smiling	036	sub-14	2.0	5.0	036_smiling	0.0		151.74801252448424	
10.0	62.30578673301807	pulse	1.0	t		21.0	male	east_asian/white	3.501790688420215	smiling	036	sub-14	2.0	5.0	036_smiling	0.0		152.4479866556835	
10.0	63.00577293833703	pulse	1.0	t		21.0	male	east_asian/white	3.501790688420215	smiling	036	sub-14	2.0	5.0	036_smiling	0.0		153.14797286100247	
10.0	63.70575582327274	pulse	1.0	t		21.0	male	east_asian/white	3.501790688420215	smiling	036	sub-14	2.0	5.0	036_smiling	0.0		153.84795574593818	
10.0	64.40573931191466	pulse	1.0	t		21.0	male	east_asian/white	3.501790688420215	smiling	036	sub-14	2.0	5.0	036_smiling	0.0		154.5479392345801	
11.0	65.02226437431455	face	0.0		145	24.0	female	east_asian	2.9076800636689217	smiling	034	sub-14	2.0	5.0	034_smiling	0.0		155.16446429698	1.2332970405432206
11.0	65.10572219685037	pulse	0.0	t		24.0	female	east_asian	2.9076800636689217	smiling	034	sub-14	2.0	5.0	034_smiling	0.0		155.2479221195158	
11.0	65.80569693175494	pulse	0.0	t		24.0	female	east_asian	2.9076800636689217	smiling	034	sub-14	2.0	5.0	034_smiling	0.0		155.94789685442038	
11.0	66.25556141485777	fix	1.0		444	24.0	female	east_asian	2.9076800636689217	smiling	034	sub-14	2.0	5.0	034_smiling	0.0		156.3977613375232	3.7665653144958924
11.0	66.50568192966148	pulse	1.0	t		24.0	female	east_asian	2.9076800636689217	smiling	034	sub-14	2.0	5.0	034_smiling	0.0		156.64788185232692	
11.0	67.19751599141637	pulse	1.0	t		24.0	female	east_asian	2.9076800636689217	smiling	034	sub-14	2.0	5.0	034_smiling	0.0		157.3397159140818	
11.0	67.89754928580078	pulse	1.0	t		24.0	female	east_asian	2.9076800636689217	smiling	034	sub-14	2.0	5.0	034_smiling	0.0		158.03974920846622	
11.0	68.59749081687733	pulse	1.0	t		24.0	female	east_asian	2.9076800636689217	smiling	034	sub-14	2.0	5.0	034_smiling	0.0		158.73969073954277	
11.0	69.29746223140046	pulse	1.0	t		24.0	female	east_asian	2.9076800636689217	smiling	034	sub-14	2.0	5.0	034_smiling	0.0		159.4396621540659	
12.0	70.02212672935366	face	0.0		146	40.0	male	black	2.408674890569041	neutral	061	sub-14	2.0	5.0	061_neutral	0.0		160.1643266520191	1.2333226980463223
12.0	70.00835076282783	pulse	0.0	t		40.0	male	black	2.408674890569041	neutral	061	sub-14	2.0	5.0	061_neutral	0.0		160.15055068549327	
12.0	70.7055777300111	pulse	0.0	t		40.0	male	black	2.408674890569041	neutral	061	sub-14	2.0	5.0	061_neutral	0.0		160.84777765267654	
12.0	71.25544942739998	fix	1.0		443	40.0	male	black	2.408674890569041	neutral	061	sub-14	2.0	5.0	061_neutral	0.0		161.39764935006542	3.7665520329646824
12.0	71.39741420658993	pulse	1.0	t		40.0	male	black	2.408674890569041	neutral	061	sub-14	2.0	5.0	061_neutral	0.0		161.53961412925537	
12.0	72.09736418955072	pulse	1.0	t		40.0	male	black	2.408674890569041	neutral	061	sub-14	2.0	5.0	061_neutral	0.0		162.23956411221616	
12.0	72.79737182643112	pulse	1.0	t		40.0	male	black	2.408674890569041	neutral	061	sub-14	2.0	5.0	061_neutral	0.0		162.93957174909656	
12.0	73.49735772989698	pulse	1.0	t		40.0	male	black	2.408674890569041	neutral	061	sub-14	2.0	5.0	061_neutral	0.0		163.63955765256242	
12.0	74.19734604818586	pulse	1.0	t		40.0	male	black	2.408674890569041	neutral	061	sub-14	2.0	5.0	061_neutral	0.0		164.3395459708513	
12.0	74.89742884645966	pulse	1.0	t		40.0	male	black	2.408674890569041	neutral	061	sub-14	2.0	5.0	061_neutral	0.0		165.0396287691251	
13.0	75.02200146036466	face	0.0		146	27.0	female	white	4.181058495821727	neutral	039	sub-14	2.0	5.0	039_neutral	0.0		165.1642013830301	1.2332946257192816
13.0	75.60543890782355	pulse	0.0	t		27.0	female	white	4.181058495821727	neutral	039	sub-14	2.0	5.0	039_neutral	0.0		165.747638830489	
13.0	76.25529608608394	fix	1.0		444	27.0	female	white	4.181058495821727	neutral	039	sub-14	2.0	5.0	039_neutral	0.0		166.39749600874939	3.7665677293198314
13.0	76.29729289187526	pulse	1.0	t		27.0	female	white	4.181058495821727	neutral	039	sub-14	2.0	5.0	039_neutral	0.0		166.4394928145407	
13.0	76.99726158972135	pulse	1.0	t		27.0	female	white	4.181058495821727	neutral	039	sub-14	2.0	5.0	039_neutral	0.0		167.1394615123868	
13.0	77.69724296539152	pulse	1.0	t		27.0	female	white	4.181058495821727	neutral	039	sub-14	2.0	5.0	039_neutral	0.0		167.83944288805696	
13.0	78.3972300762698	pulse	1.0	t		27.0	female	white	4.181058495821727	neutral	039	sub-14	2.0	5.0	039_neutral	0.0		168.53942999893525	
13.0	79.09719877411499	pulse	1.0	t		27.0	female	white	4.181058495821727	neutral	039	sub-14	2.0	5.0	039_neutral	0.0		169.23939869678043	
13.0	79.79718135719759	pulse	1.0	t		27.0	female	white	4.181058495821727	neutral	039	sub-14	2.0	5.0	039_neutral	0.0		169.93938127986303	
14.0	80.02186381540378	face	0.0		145	19.0	male	white	2.243931555909272	neutral	130	sub-14	2.0	5.0	130_neutral	0.0		170.16406373806922	1.2332994553662502
14.0	80.50530944307866	pulse	0.0	t		19.0	male	white	2.243931555909272	neutral	130	sub-14	2.0	5.0	130_neutral	0.0		170.6475093657441	
14.0	81.19709158612022	pulse	0.0	t		19.0	male	white	2.243931555909272	neutral	130	sub-14	2.0	5.0	130_neutral	0.0		171.33929150878566	
14.0	81.25516327077003	fix	1.0		444	19.0	male	white	2.243931555909272	neutral	130	sub-14	2.0	5.0	130_neutral	0.0		171.39736319343547	3.758361855925614
14.0	81.89713604906501	pulse	1.0	t		19.0	male	white	2.243931555909272	neutral	130	sub-14	2.0	5.0	130_neutral	0.0		172.03933597173045	
14.0	82.59711078396958	pulse	1.0	t		19.0	male	white	2.243931555909272	neutral	130	sub-14	2.0	5.0	130_neutral	0.0		172.73931070663502	
14.0	83.29709034852294	pulse	1.0	t		19.0	male	white	2.243931555909272	neutral	130	sub-14	2.0	5.0	130_neutral	0.0		173.43929027118838	
14.0	83.99712726514281	pulse	1.0	t		19.0	male	white	2.243931555909272	neutral	130	sub-14	2.0	5.0	130_neutral	0.0		174.13932718780825	
14.0	84.697052496158	pulse	1.0	t		19.0	male	white	2.243931555909272	neutral	130	sub-14	2.0	5.0	130_neutral	0.0		174.83925241882343	
15.0	85.01352512669564	face	0.0		146	27.0	female	white	4.181058495821727	smiling	039	sub-14	2.0	5.0	039_smiling	1.0	trustworthiness	175.15572504936108	1.2415222325289506
15.0	85.39698829202825	pulse	0.0	t		27.0	female	white	4.181058495821727	smiling	039	sub-14	2.0	5.0	039_smiling	1.0	trustworthiness	175.5391882146937	
15.0	86.0969802325535	pulse	0.0	t		27.0	female	white	4.181058495821727	smiling	039	sub-14	2.0	5.0	039_smiling	1.0	trustworthiness	176.23918015521895	
15.0	86.25504735922459	fix	1.0		177	27.0	female	white	4.181058495821727	smiling	039	sub-14	2.0	5.0	039_smiling	1.0	trustworthiness	176.39724728189003	1.4999600044793624
15.0	86.79700175467133	pulse	1.0	t		27.0	female	white	4.181058495821727	smiling	039	sub-14	2.0	5.0	039_smiling	1.0	trustworthiness	176.93920167733677	
15.0	87.49708877888679	pulse	1.0	t		27.0	female	white	4.181058495821727	smiling	039	sub-14	2.0	5.0	039_smiling	1.0	trustworthiness	177.63928870155223	
15.0	87.75500736370395	rating	2.0		295	27.0	female	white	4.181058495821727	smiling	039	sub-14	2.0	5.0	039_smiling	1.0	trustworthiness	177.8972072863694	2.4999174432086875
15.0	88.1998625965216	pulse	2.0	t		27.0	female	white	4.181058495821727	smiling	039	sub-14	2.0	5.0	039_smiling	1.0	trustworthiness	178.34206251918704	
15.0	88.89976639597535	pulse	2.0	t		27.0	female	white	4.181058495821727	smiling	039	sub-14	2.0	5.0	039_smiling	1.0	trustworthiness	179.0419663186408	
15.0	89.0467168809173	response	2.0	g		27.0	female	white	4.181058495821727	smiling	039	sub-14	2.0	5.0	039_smiling	1.0	trustworthiness	179.18891680358274	
15.0	89.59691850361833	pulse	2.0	t		27.0	female	white	4.181058495821727	smiling	039	sub-14	2.0	5.0	039_smiling	1.0	trustworthiness	179.73911842628377	
15.0	90.25492480691264	fix	3.0		443	27.0	female	white	4.181058495821727	smiling	039	sub-14	2.0	5.0	039_smiling	1.0	trustworthiness	180.39712472957808	3.7665662200552106
15.0	90.29690229411335	pulse	3.0	t		27.0	female	white	4.181058495821727	smiling	039	sub-14	2.0	5.0	039_smiling	1.0	trustworthiness	180.4391022167788	
15.0	90.99690389393345	pulse	3.0	t		27.0	female	white	4.181058495821727	smiling	039	sub-14	2.0	5.0	039_smiling	1.0	trustworthiness	181.1391038165989	
15.0	91.69689492890029	pulse	3.0	t		27.0	female	white	4.181058495821727	smiling	039	sub-14	2.0	5.0	039_smiling	1.0	trustworthiness	181.83909485156573	
15.0	92.3968530618913	pulse	3.0	t		27.0	female	white	4.181058495821727	smiling	039	sub-14	2.0	5.0	039_smiling	1.0	trustworthiness	182.53905298455675	
15.0	93.0968350412677	pulse	3.0	t		27.0	female	white	4.181058495821727	smiling	039	sub-14	2.0	5.0	039_smiling	1.0	trustworthiness	183.23903496393314	
15.0	93.79681611508568	pulse	3.0	t		27.0	female	white	4.181058495821727	smiling	039	sub-14	2.0	5.0	039_smiling	1.0	trustworthiness	183.93901603775112	
16.0	94.02149102696785	face	0.0		145	31.0	female	east_asian	3.395941106247513	smiling	087	sub-14	2.0	5.0	087_smiling	0.0		184.1636909496333	1.233303077601704
16.0	94.49674436463101	pulse	0.0	t		31.0	female	east_asian	3.395941106247513	smiling	087	sub-14	2.0	5.0	087_smiling	0.0		184.63894428729645	
16.0	95.19671638285945	pulse	0.0	t		31.0	female	east_asian	3.395941106247513	smiling	087	sub-14	2.0	5.0	087_smiling	0.0		185.3389163055249	
16.0	95.25479410456956	fix	1.0		444	31.0	female	east_asian	3.395941106247513	smiling	087	sub-14	2.0	5.0	087_smiling	0.0		185.396994027235	3.766563201525969
16.0	95.8967837866312	pulse	1.0	t		31.0	female	east_asian	3.395941106247513	smiling	087	sub-14	2.0	5.0	087_smiling	0.0		186.03898370929664	
16.0	96.596741315916	pulse	1.0	t		31.0	female	east_asian	3.395941106247513	smiling	087	sub-14	2.0	5.0	087_smiling	0.0		186.73894123858145	
16.0	97.296717258233	pulse	1.0	t		31.0	female	east_asian	3.395941106247513	smiling	087	sub-14	2.0	5.0	087_smiling	0.0		187.43891718089844	
16.0	97.9965301999382	pulse	1.0	t		31.0	female	east_asian	3.395941106247513	smiling	087	sub-14	2.0	5.0	087_smiling	0.0		188.13873012260365	
16.0	98.69668272625222	pulse	1.0	t		31.0	female	east_asian	3.395941106247513	smiling	087	sub-14	2.0	5.0	087_smiling	0.0		188.83888264891766	
17.0	99.02135730609552	face	0.0		145	40.0	male	white	1.868682849184242	smiling	172	sub-14	2.0	5.0	172_smiling	0.0		189.16355722876096	1.2333181702515503
17.0	99.39660976838513	pulse	0.0	t		40.0	male	white	1.868682849184242	smiling	172	sub-14	2.0	5.0	172_smiling	0.0		189.53880969105057	
17.0	100.09660804782379	pulse	0.0	t		40.0	male	white	1.868682849184242	smiling	172	sub-14	2.0	5.0	172_smiling	0.0		190.23880797048923	
17.0	100.25467547634707	fix	1.0		444	40.0	male	white	1.868682849184242	smiling	172	sub-14	2.0	5.0	172_smiling	0.0		190.39687539901252	3.7582426239960114
17.0	100.80477145050372	pulse	1.0	t		40.0	male	white	1.868682849184242	smiling	172	sub-14	2.0	5.0	172_smiling	0.0		190.94697137316916	
17.0	101.49660641781702	pulse	1.0	t		40.0	male	white	1.868682849184242	smiling	172	sub-14	2.0	5.0	172_smiling	0.0		191.63880634048246	
17.0	102.1965871897819	pulse	1.0	t		40.0	male	white	1.868682849184242	smiling	172	sub-14	2.0	5.0	172_smiling	0.0		192.33878711244733	
17.0	102.89657098027692	pulse	1.0	t		40.0	male	white	1.868682849184242	smiling	172	sub-14	2.0	5.0	172_smiling	0.0		193.03877090294236	
17.0	103.59638573309985	pulse	1.0	t		40.0	male	white	1.868682849184242	smiling	172	sub-14	2.0	5.0	172_smiling	0.0		193.7385856557653	
18.0	104.01291810034309	face	0.0		146	54.0	female	white	2.286908077994429	smiling	136	sub-14	2.0	5.0	136_smiling	0.0		194.15511802300853	1.2416067513640883
18.0	104.29635744947518	pulse	0.0	t		54.0	female	white	2.286908077994429	smiling	136	sub-14	2.0	5.0	136_smiling	0.0		194.43855737214062	
18.0	104.99632161952559	pulse	0.0	t		54.0	female	white	2.286908077994429	smiling	136	sub-14	2.0	5.0	136_smiling	0.0		195.13852154219103	
18.0	105.25452485170717	fix	1.0		444	54.0	female	white	2.286908077994429	smiling	136	sub-14	2.0	5.0	136_smiling	0.0		195.39672477437261	3.7665710497030886
18.0	105.69649165331248	pulse	1.0	t		54.0	female	white	2.286908077994429	smiling	136	sub-14	2.0	5.0	136_smiling	0.0		195.83869157597792	
18.0	106.39632512102071	pulse	1.0	t		54.0	female	white	2.286908077994429	smiling	136	sub-14	2.0	5.0	136_smiling	0.0		196.53852504368615	
18.0	107.10459477595123	pulse	1.0	t		54.0	female	white	2.286908077994429	smiling	136	sub-14	2.0	5.0	136_smiling	0.0		197.24679469861667	
18.0	107.8045821886817	pulse	1.0	t		54.0	female	white	2.286908077994429	smiling	136	sub-14	2.0	5.0	136_smiling	0.0		197.94678211134715	
18.0	108.49623242196867	pulse	1.0	t		54.0	female	white	2.286908077994429	smiling	136	sub-14	2.0	5.0	136_smiling	0.0		198.6384323446341	
19.0	109.02109590141026	face	0.0		145	31.0	female	white	2.1822522881018704	neutral	102	sub-14	2.0	5.0	102_neutral	0.0		199.1632958240757	1.2332940220130695
19.0	109.19622496620013	pulse	0.0	t		31.0	female	white	2.1822522881018704	neutral	102	sub-14	2.0	5.0	102_neutral	0.0		199.33842488886557	
19.0	109.8961864195744	pulse	0.0	t		31.0	female	white	2.1822522881018704	neutral	102	sub-14	2.0	5.0	102_neutral	0.0		200.03838634223985	
19.0	110.25438992342333	fix	1.0		444	31.0	female	white	2.1822522881018704	neutral	102	sub-14	2.0	5.0	102_neutral	0.0		200.39658984608877	3.758236586935709
19.0	110.6045179543662	pulse	1.0	t		31.0	female	white	2.1822522881018704	neutral	102	sub-14	2.0	5.0	102_neutral	0.0		200.74671787703164	
19.0	111.2961570190937	pulse	1.0	t		31.0	female	white	2.1822522881018704	neutral	102	sub-14	2.0	5.0	102_neutral	0.0		201.43835694175914	
19.0	112.00445353893974	pulse	1.0	t		31.0	female	white	2.1822522881018704	neutral	102	sub-14	2.0	5.0	102_neutral	0.0		202.14665346160518	
19.0	112.70445362949522	pulse	1.0	t		31.0	female	white	2.1822522881018704	neutral	102	sub-14	2.0	5.0	102_neutral	0.0		202.84665355216066	
19.0	113.40443319404858	pulse	1.0	t		31.0	female	white	2.1822522881018704	neutral	102	sub-14	2.0	5.0	102_neutral	0.0		203.54663311671402	
20.0	114.01262651035904	face	0.0		146	28.0	male	east_asian	1.5563072025467568	neutral	005	sub-14	2.0	5.0	005_neutral	0.0		204.15482643302448	1.2416318051627968
20.0	114.10441396601345	pulse	0.0	t		28.0	male	east_asian	1.5563072025467568	neutral	005	sub-14	2.0	5.0	005_neutral	0.0		204.2466138886789	
20.0	114.80439111574196	pulse	0.0	t		28.0	male	east_asian	1.5563072025467568	neutral	005	sub-14	2.0	5.0	005_neutral	0.0		204.9465910384074	
20.0	115.25425831552184	fix	1.0		1185	28.0	male	east_asian	1.5563072025467568	neutral	005	sub-14	2.0	5.0	005_neutral	0.0		205.39645823818728	10.01640510602374
20.0	115.50437852847335	pulse	1.0	t		28.0	male	east_asian	1.5563072025467568	neutral	005	sub-14	2.0	5.0	005_neutral	0.0		205.6465784511388	
20.0	116.2043577911727	pulse	1.0	t		28.0	male	east_asian	1.5563072025467568	neutral	005	sub-14	2.0	5.0	005_neutral	0.0		206.34655771383814	
20.0	116.90433795943136	pulse	1.0	t		28.0	male	east_asian	1.5563072025467568	neutral	005	sub-14	2.0	5.0	005_neutral	0.0		207.0465378820968	
20.0	117.60431510916078	pulse	1.0	t		28.0	male	east_asian	1.5563072025467568	neutral	005	sub-14	2.0	5.0	005_neutral	0.0		207.74651503182622	
20.0	118.30429557927255	pulse	1.0	t		28.0	male	east_asian	1.5563072025467568	neutral	005	sub-14	2.0	5.0	005_neutral	0.0		208.446495501938	
20.0	119.00427967162068	pulse	1.0	t		28.0	male	east_asian	1.5563072025467568	neutral	005	sub-14	2.0	5.0	005_neutral	0.0		209.14647959428612	
20.0	119.70425802876161	pulse	1.0	t		28.0	male	east_asian	1.5563072025467568	neutral	005	sub-14	2.0	5.0	005_neutral	0.0		209.84645795142706	
20.0	120.40423729146096	pulse	1.0	t		28.0	male	east_asian	1.5563072025467568	neutral	005	sub-14	2.0	5.0	005_neutral	0.0		210.5464372141264	
20.0	121.1042219875153	pulse	1.0	t		28.0	male	east_asian	1.5563072025467568	neutral	005	sub-14	2.0	5.0	005_neutral	0.0		211.24642191018074	
20.0	121.80420366503859	pulse	1.0	t		28.0	male	east_asian	1.5563072025467568	neutral	005	sub-14	2.0	5.0	005_neutral	0.0		211.94640358770403	
20.0	122.50418141847422	pulse	1.0	t		28.0	male	east_asian	1.5563072025467568	neutral	005	sub-14	2.0	5.0	005_neutral	0.0		212.64638134113966	
20.0	123.20416219043818	pulse	1.0	t		28.0	male	east_asian	1.5563072025467568	neutral	005	sub-14	2.0	5.0	005_neutral	0.0		213.34636211310362	
20.0	123.90415292355192	pulse	1.0	t		28.0	male	east_asian	1.5563072025467568	neutral	005	sub-14	2.0	5.0	005_neutral	0.0		214.04635284621736	
20.0	124.60413128069285	pulse	1.0	t		28.0	male	east_asian	1.5563072025467568	neutral	005	sub-14	2.0	5.0	005_neutral	0.0		214.7463312033583	
21.0	125.27066342154558	face	0.0		145	32.0	male	white	2.389176283326701	neutral	092	sub-14	2.0	5.0	092_neutral	0.0		215.41286334421102	1.2333109257806427
21.0	125.30411718415871	pulse	0.0	t		32.0	male	white	2.389176283326701	neutral	092	sub-14	2.0	5.0	092_neutral	0.0		215.44631710682415	
21.0	126.00411033209548	pulse	0.0	t		32.0	male	white	2.389176283326701	neutral	092	sub-14	2.0	5.0	092_neutral	0.0		216.14631025476092	
21.0	126.50397434732622	fix	1.0		443	32.0	male	white	2.389176283326701	neutral	092	sub-14	2.0	5.0	092_neutral	0.0		216.64617426999166	3.766553240376197
21.0	126.70407902994157	pulse	1.0	t		32.0	male	white	2.389176283326701	neutral	092	sub-14	2.0	5.0	092_neutral	0.0		216.846278952607	
21.0	127.40405557596478	pulse	1.0	t		32.0	male	white	2.389176283326701	neutral	092	sub-14	2.0	5.0	092_neutral	0.0		217.54625549863022	
21.0	128.10403574422344	pulse	1.0	t		32.0	male	white	2.389176283326701	neutral	092	sub-14	2.0	5.0	092_neutral	0.0		218.24623566688888	
21.0	128.80398814200726	pulse	1.0	t		32.0	male	white	2.389176283326701	neutral	092	sub-14	2.0	5.0	092_neutral	0.0		218.9461880646727	
21.0	129.50399125109288	pulse	1.0	t		32.0	male	white	2.389176283326701	neutral	092	sub-14	2.0	5.0	092_neutral	0.0		219.64619117375833	
21.0	130.20397685270564	pulse	1.0	t		32.0	male	white	2.389176283326701	neutral	092	sub-14	2.0	5.0	092_neutral	0.0		220.34617677537108	
22.0	130.27052758770242	face	0.0		146	21.0	male	black	2.969757262236371	smiling	137	sub-14	2.0	5.0	137_smiling	0.0		220.41272751036786	1.2333142461629905
22.0	130.90396456728922	pulse	0.0	t		21.0	male	black	2.969757262236371	smiling	137	sub-14	2.0	5.0	137_smiling	0.0		221.04616448995466	
22.0	131.5038418338654	fix	1.0		443	21.0	male	black	2.969757262236371	smiling	137	sub-14	2.0	5.0	137_smiling	0.0		221.64604175653085	3.7665520329646824
22.0	131.6039513763144	pulse	1.0	t		21.0	male	black	2.969757262236371	smiling	137	sub-14	2.0	5.0	137_smiling	0.0		221.74615129897984	
22.0	132.3039276204845	pulse	1.0	t		21.0	male	black	2.969757262236371	smiling	137	sub-14	2.0	5.0	137_smiling	0.0		222.44612754314994	
22.0	133.00390778874316	pulse	1.0	t		21.0	male	black	2.969757262236371	smiling	137	sub-14	2.0	5.0	137_smiling	0.0		223.1461077114086	
22.0	133.70389550332675	pulse	1.0	t		21.0	male	black	2.969757262236371	smiling	137	sub-14	2.0	5.0	137_smiling	0.0		223.8460954259922	
22.0	134.40387386046768	pulse	1.0	t		21.0	male	black	2.969757262236371	smiling	137	sub-14	2.0	5.0	137_smiling	0.0		224.54607378313312	
22.0	135.10384980278468	pulse	1.0	t		21.0	male	black	2.969757262236371	smiling	137	sub-14	2.0	5.0	137_smiling	0.0		225.24604972545012	
23.0	135.2703938668301	face	0.0		146	25.0	female	black	3.858336649423	smiling	126	sub-14	2.0	5.0	126_smiling	0.0		225.41259378949553	1.2333148498692026
23.0	135.80383691366205	pulse	0.0	t		25.0	female	black	3.858336649423	smiling	126	sub-14	2.0	5.0	126_smiling	0.0		225.9460368363275	
23.0	136.5037087166993	fix	1.0		444	25.0	female	black	3.858336649423	smiling	126	sub-14	2.0	5.0	126_smiling	0.0		226.64590863936473	3.7665333180793823
23.0	136.51114909092485	pulse	1.0	t		25.0	female	black	3.858336649423	smiling	126	sub-14	2.0	5.0	126_smiling	0.0		226.6533490135903	
23.0	137.2037972501803	pulse	1.0	t		25.0	female	black	3.858336649423	smiling	126	sub-14	2.0	5.0	126_smiling	0.0		227.34599717284573	
23.0	137.903775003615	pulse	1.0	t		25.0	female	black	3.858336649423	smiling	126	sub-14	2.0	5.0	126_smiling	0.0		228.04597492628045	
23.0	138.60375969966844	pulse	1.0	t		25.0	female	black	3.858336649423	smiling	126	sub-14	2.0	5.0	126_smiling	0.0		228.74595962233388	
23.0	139.30373805680938	pulse	1.0	t		25.0	female	black	3.858336649423	smiling	126	sub-14	2.0	5.0	126_smiling	0.0		229.44593797947482	
23.0	140.00371762136274	pulse	1.0	t		25.0	female	black	3.858336649423	smiling	126	sub-14	2.0	5.0	126_smiling	0.0		230.14591754402818	
24.0	140.27024203477868	face	0.0		145	28.0	male	white	3.9076800636689217	neutral	033	sub-14	2.0	5.0	033_neutral	0.0		230.41244195744412	1.2333338666076088
24.0	140.70370292112239	pulse	0.0	t		28.0	male	white	3.9076800636689217	neutral	033	sub-14	2.0	5.0	033_neutral	0.0		230.84590284378783	
24.0	141.40368459864567	pulse	0.0	t		28.0	male	white	3.9076800636689217	neutral	033	sub-14	2.0	5.0	033_neutral	0.0		231.5458845213111	
24.0	141.50357590138628	fix	1.0		444	28.0	male	white	3.9076800636689217	neutral	033	sub-14	2.0	5.0	033_neutral	0.0		231.64577582405173	3.7665517311115764
24.0	142.10366627616986	pulse	1.0	t		28.0	male	white	3.9076800636689217	neutral	033	sub-14	2.0	5.0	033_neutral	0.0		232.2458661988353	
24.0	142.80364644442852	pulse	1.0	t		28.0	male	white	3.9076800636689217	neutral	033	sub-14	2.0	5.0	033_neutral	0.0		232.94584636709396	
24.0	143.50363234789438	pulse	1.0	t		28.0	male	white	3.9076800636689217	neutral	033	sub-14	2.0	5.0	033_neutral	0.0		233.64583227055982	
24.0	144.20361130874153	pulse	1.0	t		28.0	male	white	3.9076800636689217	neutral	033	sub-14	2.0	5.0	033_neutral	0.0		234.34581123140697	
24.0	144.90359026958777	pulse	1.0	t		28.0	male	white	3.9076800636689217	neutral	033	sub-14	2.0	5.0	033_neutral	0.0		235.0457901922532	
25.0	145.27012763249786	face	0.0		145	47.0	male	east_asian	2.171110226820533	smiling	024	sub-14	2.0	5.0	024_smiling	0.0		235.4123275551633	1.2333054924265525
25.0	145.60358160640772	pulse	0.0	t		47.0	male	east_asian	2.171110226820533	smiling	024	sub-14	2.0	5.0	024_smiling	0.0		235.74578152907316	
25.0	146.30354245607487	pulse	0.0	t		47.0	male	east_asian	2.171110226820533	smiling	024	sub-14	2.0	5.0	024_smiling	0.0		236.4457423787403	
25.0	146.5034331249244	fix	1.0		444	47.0	male	east_asian	2.171110226820533	smiling	024	sub-14	2.0	5.0	024_smiling	0.0		236.64563304758985	3.7665628996719533
25.0	147.00353530215943	pulse	1.0	t		47.0	male	east_asian	2.171110226820533	smiling	024	sub-14	2.0	5.0	024_smiling	0.0		237.14573522482488	
25.0	147.7035154704181	pulse	1.0	t		47.0	male	east_asian	2.171110226820533	smiling	024	sub-14	2.0	5.0	024_smiling	0.0		237.84571539308354	
25.0	148.40350197759017	pulse	1.0	t		47.0	male	east_asian	2.171110226820533	smiling	024	sub-14	2.0	5.0	024_smiling	0.0		238.5457019002556	
25.0	149.103474901377	pulse	1.0	t		47.0	male	east_asian	2.171110226820533	smiling	024	sub-14	2.0	5.0	024_smiling	0.0		239.24567482404245	
25.0	149.80345808816583	pulse	1.0	t		47.0	male	east_asian	2.171110226820533	smiling	024	sub-14	2.0	5.0	024_smiling	0.0		239.94565801083127	
26.0	150.26999602459637	face	0.0		145	27.0	female	white	3.504576203740549	smiling	144	sub-14	2.0	5.0	144_smiling	0.0		240.4121959472618	1.2333148498692026
26.0	150.50344368977858	pulse	0.0	t		27.0	female	white	3.504576203740549	smiling	144	sub-14	2.0	5.0	144_smiling	0.0		240.64564361244402	
26.0	151.20342566915588	pulse	0.0	t		27.0	female	white	3.504576203740549	smiling	144	sub-14	2.0	5.0	144_smiling	0.0		241.34562559182132	
26.0	151.50331087446557	fix	1.0		444	27.0	female	white	3.504576203740549	smiling	144	sub-14	2.0	5.0	144_smiling	0.0		241.645510797131	3.7665517311115764
26.0	151.90341066706242	pulse	1.0	t		27.0	female	white	3.504576203740549	smiling	144	sub-14	2.0	5.0	144_smiling	0.0		242.04561058972786	
26.0	152.60338389270237	pulse	1.0	t		27.0	female	white	3.504576203740549	smiling	144	sub-14	2.0	5.0	144_smiling	0.0		242.7455838153678	
26.0	153.3033688906089	pulse	1.0	t		27.0	female	white	3.504576203740549	smiling	144	sub-14	2.0	5.0	144_smiling	0.0		243.44556881327435	
26.0	154.00335268110393	pulse	1.0	t		27.0	female	white	3.504576203740549	smiling	144	sub-14	2.0	5.0	144_smiling	0.0		244.14555260376937	
26.0	154.7033274160085	pulse	1.0	t		27.0	female	white	3.504576203740549	smiling	144	sub-14	2.0	5.0	144_smiling	0.0		244.84552733867395	
27.0	155.26986260557715	face	0.0		145	36.0	female	white	2.7548746518105847	neutral	011	sub-14	2.0	5.0	011_neutral	0.0		245.4120625282426	1.2333130387505662
27.0	155.4033151305921	pulse	0.0	t		36.0	female	white	2.7548746518105847	neutral	011	sub-14	2.0	5.0	011_neutral	0.0		245.54551505325753	
27.0	156.1032919784684	pulse	0.0	t		36.0	female	white	2.7548746518105847	neutral	011	sub-14	2.0	5.0	011_neutral	0.0		246.24549190113385	
27.0	156.5031756443277	fix	1.0		444	36.0	female	white	2.7548746518105847	neutral	011	sub-14	2.0	5.0	011_neutral	0.0		246.64537556699315	3.7665547496417275
27.0	156.80327667452184	pulse	1.0	t		36.0	female	white	2.7548746518105847	neutral	011	sub-14	2.0	5.0	011_neutral	0.0		246.94547659718728	
27.0	157.50325955945755	pulse	1.0	t		36.0	female	white	2.7548746518105847	neutral	011	sub-14	2.0	5.0	011_neutral	0.0		247.645459482123	
27.0	158.2032267480381	pulse	1.0	t		36.0	female	white	2.7548746518105847	neutral	011	sub-14	2.0	5.0	011_neutral	0.0		248.34542667070355	
27.0	158.9032023885029	pulse	1.0	t		36.0	female	white	2.7548746518105847	neutral	011	sub-14	2.0	5.0	011_neutral	0.0		249.04540231116835	
27.0	159.6032094216771	pulse	1.0	t		36.0	female	white	2.7548746518105847	neutral	011	sub-14	2.0	5.0	011_neutral	0.0		249.74540934434253	
28.0	160.26973039396944	face	0.0		145	22.0	male	black	2.767608436132113	neutral	044	sub-14	2.0	5.0	044_neutral	0.0		250.41193031663488	1.2333127368983696
28.0	160.3032674680062	pulse	0.0	t		22.0	male	black	2.767608436132113	neutral	044	sub-14	2.0	5.0	044_neutral	0.0		250.44546739067164	
28.0	161.003168852636	pulse	0.0	t		22.0	male	black	2.767608436132113	neutral	044	sub-14	2.0	5.0	044_neutral	0.0		251.14536877530145	
28.0	161.5030431308678	fix	1.0		443	22.0	male	black	2.767608436132113	neutral	044	sub-14	2.0	5.0	044_neutral	0.0		251.64524305353325	3.7665541459355154
28.0	161.70314781348316	pulse	1.0	t		22.0	male	black	2.767608436132113	neutral	044	sub-14	2.0	5.0	044_neutral	0.0		251.8453477361486	
28.0	162.40312194468243	pulse	1.0	t		22.0	male	black	2.767608436132113	neutral	044	sub-14	2.0	5.0	044_neutral	0.0		252.54532186734787	
28.0	163.10308158693806	pulse	1.0	t		22.0	male	black	2.767608436132113	neutral	044	sub-14	2.0	5.0	044_neutral	0.0		253.2452815096035	
28.0	163.80308439417058	pulse	1.0	t		22.0	male	black	2.767608436132113	neutral	044	sub-14	2.0	5.0	044_neutral	0.0		253.94528431683602	
28.0	164.50307029763644	pulse	1.0	t		22.0	male	black	2.767608436132113	neutral	044	sub-14	2.0	5.0	044_neutral	0.0		254.64527022030188	
28.0	165.20304654180654	pulse	1.0	t		22.0	male	black	2.767608436132113	neutral	044	sub-14	2.0	5.0	044_neutral	0.0		255.34524646447198	
29.0	165.26959727680332	face	0.0		146	26.0	female	white	4.854755272582572	smiling	027	sub-14	2.0	5.0	027_smiling	0.0		255.41179719946877	1.2333115294859454
29.0	165.90303727491937	pulse	0.0	t		26.0	female	white	4.854755272582572	smiling	027	sub-14	2.0	5.0	027_smiling	0.0		256.0452371975848	
29.0	166.50290880628927	fix	1.0		443	26.0	female	white	4.854755272582572	smiling	027	sub-14	2.0	5.0	027_smiling	0.0		256.6451087289547	3.7665547496417275
29.0	166.6030207635613	pulse	1.0	t		26.0	female	white	4.854755272582572	smiling	027	sub-14	2.0	5.0	027_smiling	0.0		256.74522068622673	
29.0	167.3029921780835	pulse	1.0	t		26.0	female	white	4.854755272582572	smiling	027	sub-14	2.0	5.0	027_smiling	0.0		257.44519210074895	
29.0	168.0029789871087	pulse	1.0	t		26.0	female	white	4.854755272582572	smiling	027	sub-14	2.0	5.0	027_smiling	0.0		258.14517890977413	
29.0	168.70295704239652	pulse	1.0	t		26.0	female	white	4.854755272582572	smiling	027	sub-14	2.0	5.0	027_smiling	0.0		258.84515696506196	
29.0	169.40293630509586	pulse	1.0	t		26.0	female	white	4.854755272582572	smiling	027	sub-14	2.0	5.0	027_smiling	0.0		259.5451362277613	
29.0	170.1029137566784	pulse	1.0	t		26.0	female	white	4.854755272582572	smiling	027	sub-14	2.0	5.0	027_smiling	0.0		260.24511367934383	
30.0	170.269463555931	face	0.0		146	24.0	female	black	3.0955033824114606	smiling	099	sub-14	2.0	5.0	099_smiling	0.0		260.41166347859644	1.2333136424567783
30.0	170.80290569720364	pulse	0.0	t		24.0	female	black	3.0955033824114606	smiling	099	sub-14	2.0	5.0	099_smiling	0.0		260.9451056198691	
30.0	171.50277719838778	fix	1.0		444	24.0	female	black	3.0955033824114606	smiling	099	sub-14	2.0	5.0	099_smiling	0.0		261.6449771210532	3.7665632015250594
30.0	171.51032050448066	pulse	1.0	t		24.0	female	black	3.0955033824114606	smiling	099	sub-14	2.0	5.0	099_smiling	0.0		261.6525204271461	
30.0	172.20286663742718	pulse	1.0	t		24.0	female	black	3.0955033824114606	smiling	099	sub-14	2.0	5.0	099_smiling	0.0		262.3450665600926	
30.0	172.90284529642122	pulse	1.0	t		24.0	female	black	3.0955033824114606	smiling	099	sub-14	2.0	5.0	099_smiling	0.0		263.04504521908666	
30.0	173.6028318035933	pulse	1.0	t		24.0	female	black	3.0955033824114606	smiling	099	sub-14	2.0	5.0	099_smiling	0.0		263.74503172625873	
30.0	174.30280985888112	pulse	1.0	t		24.0	female	black	3.0955033824114606	smiling	099	sub-14	2.0	5.0	099_smiling	0.0		264.44500978154656	
30.0	175.00278580119812	pulse	1.0	t		24.0	female	black	3.0955033824114606	smiling	099	sub-14	2.0	5.0	099_smiling	0.0		265.14498572386356	
31.0	175.26934039991283	face	0.0		145	34.0	male	white	2.651014723438122	smiling	121	sub-14	2.0	5.0	121_smiling	0.0		265.4115403225783	1.2333033794557196
31.0	175.70277774172337	pulse	0.0	t		34.0	male	white	2.651014723438122	smiling	121	sub-14	2.0	5.0	121_smiling	0.0		265.8449776643888	
31.0	176.40275187292264	pulse	0.0	t		34.0	male	white	2.651014723438122	smiling	121	sub-14	2.0	5.0	121_smiling	0.0		266.5449517955881	
31.0	176.50264377936855	fix	1.0		444	34.0	male	white	2.651014723438122	smiling	121	sub-14	2.0	5.0	121_smiling	0.0		266.644843702034	3.7665544477886215
31.0	177.10273505971145	pulse	1.0	t		34.0	male	white	2.651014723438122	smiling	121	sub-14	2.0	5.0	121_smiling	0.0		267.2449349823769	
31.0	177.80271341685238	pulse	1.0	t		34.0	male	white	2.651014723438122	smiling	121	sub-14	2.0	5.0	121_smiling	0.0		267.9449133395178	
31.0	178.50269992402355	pulse	1.0	t		34.0	male	white	2.651014723438122	smiling	121	sub-14	2.0	5.0	121_smiling	0.0		268.644899846689	
31.0	179.20267979043	pulse	1.0	t		34.0	male	white	2.651014723438122	smiling	121	sub-14	2.0	5.0	121_smiling	0.0		269.34487971309545	
31.0	179.90262222706588	pulse	1.0	t		34.0	male	white	2.651014723438122	smiling	121	sub-14	2.0	5.0	121_smiling	0.0		270.0448221497313	
32.0	180.26919822715718	face	0.0		145	19.0	female	white	4.298846000795861	smiling	100	sub-14	2.0	5.0	100_smiling	1.0	attractiveness	270.4113981498226	1.2333118313390514
32.0	180.6026630677743	pulse	0.0	t		19.0	female	white	4.298846000795861	smiling	100	sub-14	2.0	5.0	100_smiling	1.0	attractiveness	270.74486299043974	
32.0	181.30262271002994	pulse	0.0	t		19.0	female	white	4.298846000795861	smiling	100	sub-14	2.0	5.0	100_smiling	1.0	attractiveness	271.4448226326954	
32.0	181.50251005849623	fix	1.0		177	19.0	female	white	4.298846000795861	smiling	100	sub-14	2.0	5.0	100_smiling	1.0	attractiveness	271.64470998116167	1.4999612118917867
32.0	182.00260680237807	pulse	1.0	t		19.0	female	white	4.298846000795861	smiling	100	sub-14	2.0	5.0	100_smiling	1.0	attractiveness	272.1448067250435	
32.0	182.70258365025438	pulse	1.0	t		19.0	female	white	4.298846000795861	smiling	100	sub-14	2.0	5.0	100_smiling	1.0	attractiveness	272.8447835729198	
32.0	183.002471270388	rating	2.0		295	19.0	female	white	4.298846000795861	smiling	100	sub-14	2.0	5.0	100_smiling	1.0	attractiveness	273.14467119305345	2.4999313284452
32.0	183.39732848034237	pulse	2.0	t		19.0	female	white	4.298846000795861	smiling	100	sub-14	2.0	5.0	100_smiling	1.0	attractiveness	273.5395284030078	
32.0	184.08588592794604	response	2.0	g		19.0	female	white	4.298846000795861	smiling	100	sub-14	2.0	5.0	100_smiling	1.0	attractiveness	274.2280858506115	
32.0	184.0971236127216	pulse	2.0	t		19.0	female	white	4.298846000795861	smiling	100	sub-14	2.0	5.0	100_smiling	1.0	attractiveness	274.23932353538703	
32.0	184.80252174020643	pulse	2.0	t		19.0	female	white	4.298846000795861	smiling	100	sub-14	2.0	5.0	100_smiling	1.0	attractiveness	274.94472166287187	
32.0	185.5024025988332	fix	3.0		443	19.0	female	white	4.298846000795861	smiling	100	sub-14	2.0	5.0	100_smiling	1.0	attractiveness	275.64460252149865	3.766556258907258
32.0	185.5103355971305	pulse	3.0	t		19.0	female	white	4.298846000795861	smiling	100	sub-14	2.0	5.0	100_smiling	1.0	attractiveness	275.65253551979595	
32.0	186.2024965656683	pulse	3.0	t		19.0	female	white	4.298846000795861	smiling	100	sub-14	2.0	5.0	100_smiling	1.0	attractiveness	276.34469648833374	
32.0	186.90247099871976	pulse	3.0	t		19.0	female	white	4.298846000795861	smiling	100	sub-14	2.0	5.0	100_smiling	1.0	attractiveness	277.0446709213852	
32.0	187.60245418550858	pulse	3.0	t		19.0	female	white	4.298846000795861	smiling	100	sub-14	2.0	5.0	100_smiling	1.0	attractiveness	277.744654108174	
32.0	188.30243314635572	pulse	3.0	t		19.0	female	white	4.298846000795861	smiling	100	sub-14	2.0	5.0	100_smiling	1.0	attractiveness	278.44463306902117	
32.0	189.0024202572331	pulse	3.0	t		19.0	female	white	4.298846000795861	smiling	100	sub-14	2.0	5.0	100_smiling	1.0	attractiveness	279.14462017989854	
33.0	189.26895885774047	face	0.0		145	24.0	male	white	3.1153999204138483	smiling	012	sub-14	2.0	5.0	012_smiling	0.0		279.4111587804059	1.233312435044354
33.0	189.7024025384626	pulse	0.0	t		24.0	male	white	3.1153999204138483	smiling	012	sub-14	2.0	5.0	012_smiling	0.0		279.84460246112803	
33.0	190.40237425483792	pulse	0.0	t		24.0	male	white	3.1153999204138483	smiling	012	sub-14	2.0	5.0	012_smiling	0.0		280.54457417750336	
33.0	190.50227129278483	fix	1.0		444	24.0	male	white	3.1153999204138483	smiling	012	sub-14	2.0	5.0	012_smiling	0.0		280.64447121545027	3.7665526366708946
33.0	191.10236649721628	pulse	1.0	t		24.0	male	white	3.1153999204138483	smiling	012	sub-14	2.0	5.0	012_smiling	0.0		281.2445664198817	
33.0	191.80234153397487	pulse	1.0	t		24.0	male	white	3.1153999204138483	smiling	012	sub-14	2.0	5.0	012_smiling	0.0		281.9445414566403	
33.0	192.50232290964595	pulse	1.0	t		24.0	male	white	3.1153999204138483	smiling	012	sub-14	2.0	5.0	012_smiling	0.0		282.6445228323114	
33.0	193.20231303905257	pulse	1.0	t		24.0	male	white	3.1153999204138483	smiling	012	sub-14	2.0	5.0	012_smiling	0.0		283.344512961718	
33.0	193.902302866607	pulse	1.0	t		24.0	male	white	3.1153999204138483	smiling	012	sub-14	2.0	5.0	012_smiling	0.0		284.0445027892724	
34.0	194.26882392945572	face	0.0		145	22.0	female	white	4.614007162753682	neutral	009	sub-14	2.0	5.0	009_neutral	0.0		284.41102385212116	1.2333154535754147
34.0	194.60227579039474	pulse	0.0	t		22.0	female	white	4.614007162753682	neutral	009	sub-14	2.0	5.0	009_neutral	0.0		284.7444757130602	
34.0	195.30224660121075	pulse	0.0	t		22.0	female	white	4.614007162753682	neutral	009	sub-14	2.0	5.0	009_neutral	0.0		285.4444465238762	
34.0	195.50213938303114	fix	1.0		444	22.0	female	white	4.614007162753682	neutral	009	sub-14	2.0	5.0	009_neutral	0.0		285.6443393056966	3.766552938523091
34.0	196.00233151245538	pulse	1.0	t		22.0	female	white	4.614007162753682	neutral	009	sub-14	2.0	5.0	009_neutral	0.0		286.1445314351208	
34.0	196.70220995625823	pulse	1.0	t		22.0	female	white	4.614007162753682	neutral	009	sub-14	2.0	5.0	009_neutral	0.0		286.84440987892367	
34.0	197.40216688183773	pulse	1.0	t		22.0	female	white	4.614007162753682	neutral	009	sub-14	2.0	5.0	009_neutral	0.0		287.54436680450317	
34.0	198.10217542427745	pulse	1.0	t		22.0	female	white	4.614007162753682	neutral	009	sub-14	2.0	5.0	009_neutral	0.0		288.2443753469429	
34.0	198.80215649809543	pulse	1.0	t		22.0	female	white	4.614007162753682	neutral	009	sub-14	2.0	5.0	009_neutral	0.0		288.94435642076087	
35.0	199.26869232155423	face	0.0		145	20.0	male	black	2.609629924393156	smiling	043	sub-14	2.0	5.0	043_smiling	0.0		289.41089224421967	1.2333130387514757
35.0	199.5021433071197	pulse	0.0	t		20.0	male	black	2.609629924393156	smiling	043	sub-14	2.0	5.0	043_smiling	0.0		289.64434322978514	
35.0	200.20211502349503	pulse	0.0	t		20.0	male	black	2.609629924393156	smiling	043	sub-14	2.0	5.0	043_smiling	0.0		290.34431494616047	
35.0	200.5020053603057	fix	1.0		444	20.0	male	black	2.609629924393156	smiling	043	sub-14	2.0	5.0	043_smiling	0.0		290.64420528297114	3.7665517311115764
35.0	200.90210424734323	pulse	1.0	t		20.0	male	black	2.609629924393156	smiling	043	sub-14	2.0	5.0	043_smiling	0.0		291.0443041700087	
35.0	201.60208320819038	pulse	1.0	t		20.0	male	black	2.609629924393156	smiling	043	sub-14	2.0	5.0	043_smiling	0.0		291.7442831308558	
35.0	202.30207213018548	pulse	1.0	t		20.0	male	black	2.609629924393156	smiling	043	sub-14	2.0	5.0	043_smiling	0.0		292.4442720528509	
35.0	203.00204082803157	pulse	1.0	t		20.0	male	black	2.609629924393156	smiling	043	sub-14	2.0	5.0	043_smiling	0.0		293.144240750697	
35.0	203.70203095743818	pulse	1.0	t		20.0	male	black	2.609629924393156	smiling	043	sub-14	2.0	5.0	043_smiling	0.0		293.8442308801036	
36.0	204.26855709141728	face	0.0		145	24.0	female	east_asian	4.409868682849185	neutral	030	sub-14	2.0	5.0	030_neutral	0.0		294.4107570140827	1.2333151517223087
36.0	204.40201263496238	pulse	0.0	t		24.0	female	east_asian	4.409868682849185	neutral	030	sub-14	2.0	5.0	030_neutral	0.0		294.5442125576278	
36.0	205.10198646430854	pulse	0.0	t		24.0	female	east_asian	4.409868682849185	neutral	030	sub-14	2.0	5.0	030_neutral	0.0		295.244186386974	
36.0	205.5018722431396	fix	1.0		444	24.0	female	east_asian	4.409868682849185	neutral	030	sub-14	2.0	5.0	030_neutral	0.0		295.644072165805	3.7665520329646824
36.0	205.80197599000985	pulse	1.0	t		24.0	female	east_asian	4.409868682849185	neutral	030	sub-14	2.0	5.0	030_neutral	0.0		295.9441759126753	
36.0	206.5019552527101	pulse	1.0	t		24.0	female	east_asian	4.409868682849185	neutral	030	sub-14	2.0	5.0	030_neutral	0.0		296.64415517537554	
36.0	207.20196047476657	pulse	1.0	t		24.0	female	east_asian	4.409868682849185	neutral	030	sub-14	2.0	5.0	030_neutral	0.0		297.344160397432	
36.0	207.90191830590447	pulse	1.0	t		24.0	female	east_asian	4.409868682849185	neutral	030	sub-14	2.0	5.0	030_neutral	0.0		298.0441182285699	
36.0	208.60189877601624	pulse	1.0	t		24.0	female	east_asian	4.409868682849185	neutral	030	sub-14	2.0	5.0	030_neutral	0.0		298.7440986986817	
37.0	209.26842427610427	face	0.0		145	27.0	male	black	3.5523278949462798	neutral	042	sub-14	2.0	5.0	042_neutral	1.0	dominance	299.4106241987697	1.2333163591338234
37.0	209.30188075539354	pulse	0.0	t		27.0	male	black	3.5523278949462798	neutral	042	sub-14	2.0	5.0	042_neutral	1.0	dominance	299.444080678059	
37.0	210.0018609236522	pulse	0.0	t		27.0	male	black	3.5523278949462798	neutral	042	sub-14	2.0	5.0	042_neutral	1.0	dominance	300.14406084631764	
37.0	210.5017406352381	fix	1.0		177	27.0	male	black	3.5523278949462798	neutral	042	sub-14	2.0	5.0	042_neutral	1.0	dominance	300.64394055790353	1.4999578915085294
37.0	210.7018429030286	pulse	1.0	t		27.0	male	black	3.5523278949462798	neutral	042	sub-14	2.0	5.0	042_neutral	1.0	dominance	300.84404282569403	
37.0	211.40182850464134	pulse	1.0	t		27.0	male	black	3.5523278949462798	neutral	042	sub-14	2.0	5.0	042_neutral	1.0	dominance	301.5440284273068	
37.0	212.00169852674662	rating	2.0		294	27.0	male	black	3.5523278949462798	neutral	042	sub-14	2.0	5.0	042_neutral	1.0	dominance	302.14389844941206	2.499918348767096
37.0	212.09656699581774	pulse	2.0	t		27.0	male	black	3.5523278949462798	neutral	042	sub-14	2.0	5.0	042_neutral	1.0	dominance	302.2387669184832	
37.0	212.7965024898349	pulse	2.0	t		27.0	male	black	3.5523278949462798	neutral	042	sub-14	2.0	5.0	042_neutral	1.0	dominance	302.93870241250033	
37.0	213.49652823789438	pulse	2.0	t		27.0	male	black	3.5523278949462798	neutral	042	sub-14	2.0	5.0	042_neutral	1.0	dominance	303.6387281605598	
37.0	213.90482092420734	response	2.0	y		27.0	male	black	3.5523278949462798	neutral	042	sub-14	2.0	5.0	042_neutral	1.0	dominance	304.0470208468728	
37.0	214.19646916526472	pulse	2.0	t		27.0	male	black	3.5523278949462798	neutral	042	sub-14	2.0	5.0	042_neutral	1.0	dominance	304.33866908793016	
37.0	214.50161687551372	fix	3.0		444	27.0	male	black	3.5523278949462798	neutral	042	sub-14	2.0	5.0	042_neutral	1.0	dominance	304.64381679817916	3.7665538440824093
37.0	214.90171968664072	pulse	3.0	t		27.0	male	black	3.5523278949462798	neutral	042	sub-14	2.0	5.0	042_neutral	1.0	dominance	305.04391960930616	
37.0	215.60174090690543	pulse	3.0	t		27.0	male	black	3.5523278949462798	neutral	042	sub-14	2.0	5.0	042_neutral	1.0	dominance	305.7439408295709	
37.0	216.30169028616	pulse	3.0	t		27.0	male	black	3.5523278949462798	neutral	042	sub-14	2.0	5.0	042_neutral	1.0	dominance	306.44389020882545	
37.0	217.00167075627178	pulse	3.0	t		27.0	male	black	3.5523278949462798	neutral	042	sub-14	2.0	5.0	042_neutral	1.0	dominance	307.1438706789372	
37.0	217.7016551504721	pulse	3.0	t		27.0	male	black	3.5523278949462798	neutral	042	sub-14	2.0	5.0	042_neutral	1.0	dominance	307.84385507313755	
38.0	218.26817071959613	face	0.0		145	26.0	female	white	4.854755272582572	neutral	027	sub-14	2.0	5.0	027_neutral	0.0		308.41037064226157	1.2333287351066247
38.0	218.40164135579107	pulse	0.0	t		26.0	female	white	4.854755272582572	neutral	027	sub-14	2.0	5.0	027_neutral	0.0		308.5438412784565	
38.0	219.10160975178314	pulse	0.0	t		26.0	female	white	4.854755272582572	neutral	027	sub-14	2.0	5.0	027_neutral	0.0		309.2438096744486	
38.0	219.50149945470275	fix	1.0		444	26.0	female	white	4.854755272582572	neutral	027	sub-14	2.0	5.0	027_neutral	0.0		309.6436993773682	3.7665517311115764
38.0	219.80160622010317	pulse	1.0	t		26.0	female	white	4.854755272582572	neutral	027	sub-14	2.0	5.0	027_neutral	0.0		309.9438061427686	
38.0	220.50158608650963	pulse	1.0	t		26.0	female	white	4.854755272582572	neutral	027	sub-14	2.0	5.0	027_neutral	0.0		310.6437860091751	
38.0	221.201560519562	pulse	1.0	t		26.0	female	white	4.854755272582572	neutral	027	sub-14	2.0	5.0	027_neutral	0.0		311.34376044222745	
38.0	221.90154189523219	pulse	1.0	t		26.0	female	white	4.854755272582572	neutral	027	sub-14	2.0	5.0	027_neutral	0.0		312.0437418178976	
38.0	222.59351812974364	pulse	1.0	t		26.0	female	white	4.854755272582572	neutral	027	sub-14	2.0	5.0	027_neutral	0.0		312.7357180524091	
39.0	223.26805118581433	face	0.0		145	24.0	male	white	3.1153999204138483	neutral	012	sub-14	2.0	5.0	012_neutral	1.0	attractiveness	313.41025110847977	1.2333136424567783
39.0	223.301539359667	pulse	0.0	t		24.0	male	white	3.1153999204138483	neutral	012	sub-14	2.0	5.0	012_neutral	1.0	attractiveness	313.44373928233244	
39.0	224.00150081304128	pulse	0.0	t		24.0	male	white	3.1153999204138483	neutral	012	sub-14	2.0	5.0	012_neutral	1.0	attractiveness	314.1437007357067	
39.0	224.5013648282711	fix	1.0		177	24.0	male	white	3.1153999204138483	neutral	012	sub-14	2.0	5.0	012_neutral	1.0	attractiveness	314.64356475093655	1.4999418933011839
39.0	224.70148369797698	pulse	1.0	t		24.0	male	white	3.1153999204138483	neutral	012	sub-14	2.0	5.0	012_neutral	1.0	attractiveness	314.8436836206424	
39.0	225.40144364208572	pulse	1.0	t		24.0	male	white	3.1153999204138483	neutral	012	sub-14	2.0	5.0	012_neutral	1.0	attractiveness	315.54364356475116	
39.0	226.0013067215723	rating	2.0		294	24.0	male	white	3.1153999204138483	neutral	012	sub-14	2.0	5.0	012_neutral	1.0	attractiveness	316.14350664423773	2.4999512507429245
39.0	226.09623314641613	pulse	2.0	t		24.0	male	white	3.1153999204138483	neutral	012	sub-14	2.0	5.0	012_neutral	1.0	attractiveness	316.23843306908157	
39.0	226.79618644975926	pulse	2.0	t		24.0	male	white	3.1153999204138483	neutral	012	sub-14	2.0	5.0	012_neutral	1.0	attractiveness	316.9383863724247	
39.0	227.49615394019293	pulse	2.0	t		24.0	male	white	3.1153999204138483	neutral	012	sub-14	2.0	5.0	012_neutral	1.0	attractiveness	317.63835386285837	
39.0	227.5181004633141	response	2.0	y		24.0	male	white	3.1153999204138483	neutral	012	sub-14	2.0	5.0	012_neutral	1.0	attractiveness	317.66030038597955	
39.0	228.2013655225337	pulse	2.0	t		24.0	male	white	3.1153999204138483	neutral	012	sub-14	2.0	5.0	012_neutral	1.0	attractiveness	318.34356544519915	
39.0	228.50125797231522	fix	3.0		444	24.0	male	white	3.1153999204138483	neutral	012	sub-14	2.0	5.0	012_neutral	1.0	attractiveness	318.64345789498066	3.749884616696363
39.0	228.90135836861737	pulse	3.0	t		24.0	male	white	3.1153999204138483	neutral	012	sub-14	2.0	5.0	012_neutral	1.0	attractiveness	319.0435582912828	
39.0	229.60134698876027	pulse	3.0	t		24.0	male	white	3.1153999204138483	neutral	012	sub-14	2.0	5.0	012_neutral	1.0	attractiveness	319.7435469114257	
39.0	230.30131629031166	pulse	3.0	t		24.0	male	white	3.1153999204138483	neutral	012	sub-14	2.0	5.0	012_neutral	1.0	attractiveness	320.4435162129771	
39.0	231.00130008080578	pulse	3.0	t		24.0	male	white	3.1153999204138483	neutral	012	sub-14	2.0	5.0	012_neutral	1.0	attractiveness	321.1435000034712	
39.0	231.70126636382793	pulse	3.0	t		24.0	male	white	3.1153999204138483	neutral	012	sub-14	2.0	5.0	012_neutral	1.0	attractiveness	321.84346628649337	
40.0	232.25114258901158	fix	0.0		720													322.393342511677	5.999838810505935
40.0	232.4012791322093	pulse	0.0	t														322.54347905487475	
40.0	233.09323001106895	pulse	0.0	t														323.2354299337344	
40.0	233.7932026330036	pulse	0.0	t														323.93540255566904	
40.0	234.50124137040075	pulse	0.0	t														324.6434412930662	
40.0	235.20163326613056	pulse	0.0	t														325.343833188796	
40.0	235.90116789938384	pulse	0.0	t														326.0433678220493	
40.0	236.60115531211432	pulse	0.0	t														326.74335523477976	
40.0	237.30112612293124	pulse	0.0	t														327.4433260455967	
40.0	238.00111021527846	pulse	0.0	t														328.1433101379439	
