trial_nr	onset	event_type	phase	response	nr_frames	face_age	face_sex	face_eth	attractiveness	expression	face_id	sub_id	ses	run	trial_type	catch	rating_type	onset_abs	duration
-1.0	0.05788340609979059	fix	0.0		714													110.2987893741647	5.9659523936024925
-1.0	0.7073799697645882	pulse	0.0	t														110.9482859378295	
-1.0	1.4073934325660957	pulse	0.0	t														111.648299400631	
-1.0	2.107339883217719	pulse	0.0	t														112.34824585128263	
-1.0	2.8073367439083086	pulse	0.0	t														113.04824271197322	
-1.0	3.5073281711829623	pulse	0.0	t														113.74823413924787	
-1.0	4.207320805882773	pulse	0.0	t														114.44822677394768	
-1.0	4.907298045900461	pulse	0.0	t														115.14820401396537	
-1.0	5.607301849293435	pulse	0.0	t														115.84820781735834	
0.0	6.023835799702283	face	0.0		144	19.0	male	white	2.243931555909272	neutral	130	sub-09	1.0	1.0	130_neutral	0.0		116.26474176776719	1.2333317838019866
0.0	6.307297200703033	pulse	0.0	t		19.0	male	white	2.243931555909272	neutral	130	sub-09	1.0	1.0	130_neutral	0.0		116.54820316876794	
0.0	7.007267196162502	pulse	0.0	t		19.0	male	white	2.243931555909272	neutral	130	sub-09	1.0	1.0	130_neutral	0.0		117.24817316422741	
0.0	7.25716758350427	fix	1.0		445	19.0	male	white	2.243931555909272	neutral	130	sub-09	1.0	1.0	130_neutral	0.0		117.49807355156918	3.7582639264528552
0.0	7.707274319976932	pulse	1.0	t		19.0	male	white	2.243931555909272	neutral	130	sub-09	1.0	1.0	130_neutral	0.0		117.94818028804184	
0.0	8.407265445393932	pulse	1.0	t		19.0	male	white	2.243931555909272	neutral	130	sub-09	1.0	1.0	130_neutral	0.0		118.64817141345884	
0.0	9.107245402119588	pulse	1.0	t		19.0	male	white	2.243931555909272	neutral	130	sub-09	1.0	1.0	130_neutral	0.0		119.3481513701845	
0.0	9.807241659098509	pulse	1.0	t		19.0	male	white	2.243931555909272	neutral	130	sub-09	1.0	1.0	130_neutral	0.0		120.04814762716342	
0.0	10.507229162238218	pulse	1.0	t		19.0	male	white	2.243931555909272	neutral	130	sub-09	1.0	1.0	130_neutral	0.0		120.74813513030313	
1.0	11.015431509957125	face	0.0		146	26.0	male	white	2.7966573816155993	smiling	117	sub-09	1.0	1.0	117_smiling	0.0		121.25633747802203	1.241662722408364
1.0	11.207222400651517	pulse	0.0	t		26.0	male	white	2.7966573816155993	smiling	117	sub-09	1.0	1.0	117_smiling	0.0		121.44812836871643	
1.0	11.907205979656283	pulse	0.0	t		26.0	male	white	2.7966573816155993	smiling	117	sub-09	1.0	1.0	117_smiling	0.0		122.14811194772119	
1.0	12.257094232365489	fix	1.0		443	26.0	male	white	2.7966573816155993	smiling	117	sub-09	1.0	1.0	117_smiling	0.0		122.4980002004304	3.7665936576322565
1.0	12.607198312500259	pulse	1.0	t		26.0	male	white	2.7966573816155993	smiling	117	sub-09	1.0	1.0	117_smiling	0.0		122.84810428056517	
1.0	13.132172111352702	response	1.0	y		26.0	male	white	2.7966573816155993	smiling	117	sub-09	1.0	1.0	117_smiling	0.0		123.37307807941761	
1.0	13.307177665512427	pulse	1.0	t		26.0	male	white	2.7966573816155993	smiling	117	sub-09	1.0	1.0	117_smiling	0.0		123.54808363357733	
1.0	14.007166074221459	pulse	1.0	t		26.0	male	white	2.7966573816155993	smiling	117	sub-09	1.0	1.0	117_smiling	0.0		124.24807204228637	
1.0	14.707159614492411	pulse	1.0	t		26.0	male	white	2.7966573816155993	smiling	117	sub-09	1.0	1.0	117_smiling	0.0		124.94806558255732	
1.0	15.407155267757844	pulse	1.0	t		26.0	male	white	2.7966573816155993	smiling	117	sub-09	1.0	1.0	117_smiling	0.0		125.64806123582275	
2.0	16.023687889997746	face	0.0		145	34.0	male	white	2.651014723438122	smiling	121	sub-09	1.0	1.0	121_smiling	0.0		126.26459385806265	1.2333293689516722
2.0	16.10714609131901	pulse	0.0	t		34.0	male	white	2.651014723438122	smiling	121	sub-09	1.0	1.0	121_smiling	0.0		126.34805205938392	
2.0	16.80713510374153	pulse	0.0	t		34.0	male	white	2.651014723438122	smiling	121	sub-09	1.0	1.0	121_smiling	0.0		127.04804107180644	
2.0	17.257017258949418	fix	1.0		444	34.0	male	white	2.651014723438122	smiling	121	sub-09	1.0	1.0	121_smiling	0.0		127.49792322701433	3.7582624171700445
2.0	17.50712834215483	pulse	1.0	t		34.0	male	white	2.651014723438122	smiling	121	sub-09	1.0	1.0	121_smiling	0.0		127.74803431021974	
2.0	18.20710226174924	pulse	1.0	t		34.0	male	white	2.651014723438122	smiling	121	sub-09	1.0	1.0	121_smiling	0.0		128.44800822981415	
2.0	18.907094292737384	pulse	1.0	t		34.0	male	white	2.651014723438122	smiling	121	sub-09	1.0	1.0	121_smiling	0.0		129.1480002608023	
2.0	19.607093266424272	pulse	1.0	t		34.0	male	white	2.651014723438122	smiling	121	sub-09	1.0	1.0	121_smiling	0.0		129.84799923448918	
2.0	20.30708348627377	pulse	1.0	t		34.0	male	white	2.651014723438122	smiling	121	sub-09	1.0	1.0	121_smiling	0.0		130.54798945433868	
3.0	21.015279676119462	face	0.0		147	47.0	male	east_asian	2.171110226820533	smiling	024	sub-09	1.0	1.0	024_smiling	0.0		131.25618564418437	1.2416636279776867
3.0	21.009101276489673	pulse	0.0	t		47.0	male	east_asian	2.171110226820533	smiling	024	sub-09	1.0	1.0	024_smiling	0.0		131.25000724455458	
3.0	21.7070651333961	pulse	0.0	t		47.0	male	east_asian	2.171110226820533	smiling	024	sub-09	1.0	1.0	024_smiling	0.0		131.947971101461	
3.0	22.25694330409715	fix	1.0		443	47.0	male	east_asian	2.171110226820533	smiling	024	sub-09	1.0	1.0	024_smiling	0.0		132.49784927216206	3.766595468770902
3.0	22.40705203282232	pulse	1.0	t		47.0	male	east_asian	2.171110226820533	smiling	024	sub-09	1.0	1.0	024_smiling	0.0		132.64795800088723	
3.0	23.107026556130222	pulse	1.0	t		47.0	male	east_asian	2.171110226820533	smiling	024	sub-09	1.0	1.0	024_smiling	0.0		133.34793252419513	
3.0	23.807021605682166	pulse	1.0	t		47.0	male	east_asian	2.171110226820533	smiling	024	sub-09	1.0	1.0	024_smiling	0.0		134.04792757374707	
3.0	24.507016957091764	pulse	1.0	t		47.0	male	east_asian	2.171110226820533	smiling	024	sub-09	1.0	1.0	024_smiling	0.0		134.74792292515667	
3.0	25.20700415837564	pulse	1.0	t		47.0	male	east_asian	2.171110226820533	smiling	024	sub-09	1.0	1.0	024_smiling	0.0		135.44791012644055	
3.0	25.907002226493205	pulse	1.0	t		47.0	male	east_asian	2.171110226820533	smiling	024	sub-09	1.0	1.0	024_smiling	0.0		136.1479081945581	
4.0	26.02353877286805	face	0.0		146	19.0	female	white	4.298846000795861	smiling	100	sub-09	1.0	1.0	100_smiling	0.0		136.26444474093296	1.233328161524696
4.0	26.606990333344584	pulse	0.0	t		19.0	female	white	4.298846000795861	smiling	100	sub-09	1.0	1.0	100_smiling	0.0		136.8478963014095	
4.0	27.256866934392747	fix	1.0		443	19.0	female	white	4.298846000795861	smiling	100	sub-09	1.0	1.0	100_smiling	0.0		137.49777290245765	3.7665942613439256
4.0	27.306980855049915	pulse	1.0	t		19.0	female	white	4.298846000795861	smiling	100	sub-09	1.0	1.0	100_smiling	0.0		137.54788682311482	
4.0	28.006963830341192	pulse	1.0	t		19.0	female	white	4.298846000795861	smiling	100	sub-09	1.0	1.0	100_smiling	0.0		138.2478697984061	
4.0	28.70694982419809	pulse	1.0	t		19.0	female	white	4.298846000795861	smiling	100	sub-09	1.0	1.0	100_smiling	0.0		138.947855792263	
4.0	29.406945477463523	pulse	1.0	t		19.0	female	white	4.298846000795861	smiling	100	sub-09	1.0	1.0	100_smiling	0.0		139.64785144552843	
4.0	30.10693207503391	pulse	1.0	t		19.0	female	white	4.298846000795861	smiling	100	sub-09	1.0	1.0	100_smiling	0.0		140.34783804309882	
4.0	30.806922596737422	pulse	1.0	t		19.0	female	white	4.298846000795861	smiling	100	sub-09	1.0	1.0	100_smiling	0.0		141.04782856480233	
5.0	31.023461195736672	face	0.0		145	40.0	female	west_asian	1.5777954635893354	smiling	038	sub-09	1.0	1.0	038_smiling	0.0		141.26436716380158	1.2333317838038056
5.0	31.50691794814702	pulse	0.0	t		40.0	female	west_asian	1.5777954635893354	smiling	038	sub-09	1.0	1.0	038_smiling	0.0		141.74782391621193	
5.0	32.20689518816471	pulse	0.0	t		40.0	female	west_asian	1.5777954635893354	smiling	038	sub-09	1.0	1.0	038_smiling	0.0		142.44780115622962	
5.0	32.25679297954048	fix	1.0		445	40.0	female	west_asian	1.5777954635893354	smiling	038	sub-09	1.0	1.0	038_smiling	0.0		142.4976989476054	3.758261511600722
5.0	32.90689385999576	pulse	1.0	t		40.0	female	west_asian	1.5777954635893354	smiling	038	sub-09	1.0	1.0	038_smiling	0.0		143.14779982806067	
5.0	33.60687623157355	pulse	1.0	t		40.0	female	west_asian	1.5777954635893354	smiling	038	sub-09	1.0	1.0	038_smiling	0.0		143.84778219963846	
5.0	34.30686886627336	pulse	1.0	t		40.0	female	west_asian	1.5777954635893354	smiling	038	sub-09	1.0	1.0	038_smiling	0.0		144.54777483433827	
5.0	35.006844295152405	pulse	1.0	t		40.0	female	west_asian	1.5777954635893354	smiling	038	sub-09	1.0	1.0	038_smiling	0.0		145.2477502632173	
5.0	35.7068468911184	pulse	1.0	t		40.0	female	west_asian	1.5777954635893354	smiling	038	sub-09	1.0	1.0	038_smiling	0.0		145.9477528591833	
6.0	36.0150544911412	face	0.0		146	31.0	female	west_asian	2.364902506963788	neutral	006	sub-09	1.0	1.0	006_neutral	1.0	dominance	146.2559604592061	1.2416624205507105
6.0	36.406863674341366	pulse	0.0	t		31.0	female	west_asian	2.364902506963788	neutral	006	sub-09	1.0	1.0	006_neutral	1.0	dominance	146.64776964240627	
6.0	37.10681012499117	pulse	0.0	t		31.0	female	west_asian	2.364902506963788	neutral	006	sub-09	1.0	1.0	006_neutral	1.0	dominance	147.34771609305608	
6.0	37.25671691169191	fix	1.0		177	31.0	female	west_asian	2.364902506963788	neutral	006	sub-09	1.0	1.0	006_neutral	1.0	dominance	147.49762287975682	1.5083396924455883
6.0	37.80682298408101	pulse	1.0	t		31.0	female	west_asian	2.364902506963788	neutral	006	sub-09	1.0	1.0	006_neutral	1.0	dominance	148.04772895214592	
6.0	38.50680354452015	pulse	1.0	t		31.0	female	west_asian	2.364902506963788	neutral	006	sub-09	1.0	1.0	006_neutral	1.0	dominance	148.74770951258506	
6.0	38.7650566041375	rating	2.0		295	31.0	female	west_asian	2.364902506963788	neutral	006	sub-09	1.0	1.0	006_neutral	1.0	dominance	149.0059625722024	2.4916038603823836
6.0	39.20157768338322	pulse	2.0	t		31.0	female	west_asian	2.364902506963788	neutral	006	sub-09	1.0	1.0	006_neutral	1.0	dominance	149.44248365144813	
6.0	39.90155733825304	pulse	2.0	t		31.0	female	west_asian	2.364902506963788	neutral	006	sub-09	1.0	1.0	006_neutral	1.0	dominance	150.14246330631795	
6.0	40.60163268164433	pulse	2.0	t		31.0	female	west_asian	2.364902506963788	neutral	006	sub-09	1.0	1.0	006_neutral	1.0	dominance	150.84253864970924	
6.0	41.25666046451988	fix	3.0		442	31.0	female	west_asian	2.364902506963788	neutral	006	sub-09	1.0	1.0	006_neutral	1.0	dominance	151.4975664325848	3.7665924502052803
6.0	41.30676563133784	pulse	3.0	t		31.0	female	west_asian	2.364902506963788	neutral	006	sub-09	1.0	1.0	006_neutral	1.0	dominance	151.54767159940275	
6.0	41.765092525065484	response	3.0	n		31.0	female	west_asian	2.364902506963788	neutral	006	sub-09	1.0	1.0	006_neutral	1.0	dominance	152.0059984931304	
6.0	42.00672777852742	pulse	3.0	t		31.0	female	west_asian	2.364902506963788	neutral	006	sub-09	1.0	1.0	006_neutral	1.0	dominance	152.24763374659233	
6.0	42.70673701533815	pulse	3.0	t		31.0	female	west_asian	2.364902506963788	neutral	006	sub-09	1.0	1.0	006_neutral	1.0	dominance	152.94764298340306	
6.0	43.4067378001655	pulse	3.0	t		31.0	female	west_asian	2.364902506963788	neutral	006	sub-09	1.0	1.0	006_neutral	1.0	dominance	153.6476437682304	
6.0	44.10671866246048	pulse	3.0	t		31.0	female	west_asian	2.364902506963788	neutral	006	sub-09	1.0	1.0	006_neutral	1.0	dominance	154.3476246305254	
6.0	44.80675325521952	pulse	3.0	t		31.0	female	west_asian	2.364902506963788	neutral	006	sub-09	1.0	1.0	006_neutral	1.0	dominance	155.04765922328443	
7.0	45.02325291472516	face	0.0		145	24.0	male	white	3.1153999204138483	neutral	012	sub-09	1.0	1.0	012_neutral	0.0		155.26415888279007	1.2333284633823496
7.0	45.50670695042754	pulse	0.0	t		24.0	male	white	3.1153999204138483	neutral	012	sub-09	1.0	1.0	012_neutral	0.0		155.74761291849245	
7.0	46.20668781272252	pulse	0.0	t		24.0	male	white	3.1153999204138483	neutral	012	sub-09	1.0	1.0	012_neutral	0.0		156.44759378078743	
7.0	46.25658137810751	fix	1.0		444	24.0	male	white	3.1153999204138483	neutral	012	sub-09	1.0	1.0	012_neutral	0.0		156.49748734617242	3.7582630208835326
7.0	46.90668044742233	pulse	1.0	t		24.0	male	white	3.1153999204138483	neutral	012	sub-09	1.0	1.0	012_neutral	0.0		157.14758641548724	
7.0	47.606668252417876	pulse	1.0	t		24.0	male	white	3.1153999204138483	neutral	012	sub-09	1.0	1.0	012_neutral	0.0		157.84757422048278	
7.0	48.30665817040972	pulse	1.0	t		24.0	male	white	3.1153999204138483	neutral	012	sub-09	1.0	1.0	012_neutral	0.0		158.54756413847463	
7.0	49.006637523423706	pulse	1.0	t		24.0	male	white	3.1153999204138483	neutral	012	sub-09	1.0	1.0	012_neutral	0.0		159.2475434914886	
7.0	49.70663619525476	pulse	1.0	t		24.0	male	white	3.1153999204138483	neutral	012	sub-09	1.0	1.0	012_neutral	0.0		159.94754216331967	
8.0	50.014844398991045	face	0.0		146	27.0	female	white	4.181058495821727	smiling	039	sub-09	1.0	1.0	039_smiling	0.0		160.25575036705595	1.2416609112678998
8.0	50.40663365965884	pulse	0.0	t		27.0	female	white	4.181058495821727	smiling	039	sub-09	1.0	1.0	039_smiling	0.0		160.64753962772375	
8.0	51.1066099941072	pulse	0.0	t		27.0	female	white	4.181058495821727	smiling	039	sub-09	1.0	1.0	039_smiling	0.0		161.3475159621721	
8.0	51.256505310258945	fix	1.0		445	27.0	female	white	4.181058495821727	smiling	039	sub-09	1.0	1.0	039_smiling	0.0		161.49741127832385	3.7665951669150672
8.0	51.80660806222477	pulse	1.0	t		27.0	female	white	4.181058495821727	smiling	039	sub-09	1.0	1.0	039_smiling	0.0		162.04751403028968	
8.0	52.50659496165099	pulse	1.0	t		27.0	female	white	4.181058495821727	smiling	039	sub-09	1.0	1.0	039_smiling	0.0		162.7475009297159	
8.0	53.20657884251159	pulse	1.0	t		27.0	female	white	4.181058495821727	smiling	039	sub-09	1.0	1.0	039_smiling	0.0		163.4474848105765	
8.0	53.90657026978624	pulse	1.0	t		27.0	female	white	4.181058495821727	smiling	039	sub-09	1.0	1.0	039_smiling	0.0		164.14747623785115	
8.0	54.606563810057196	pulse	1.0	t		27.0	female	white	4.181058495821727	smiling	039	sub-09	1.0	1.0	039_smiling	0.0		164.8474697781221	
9.0	55.02310047717401	face	0.0		145	34.0	male	white	2.651014723438122	neutral	121	sub-09	1.0	1.0	121_neutral	0.0		165.26400644523892	1.2333335949424509
9.0	55.306559161464975	pulse	0.0	t		34.0	male	white	2.651014723438122	neutral	121	sub-09	1.0	1.0	121_neutral	0.0		165.54746512952988	
9.0	56.00653308106121	pulse	0.0	t		34.0	male	white	2.651014723438122	neutral	121	sub-09	1.0	1.0	121_neutral	0.0		166.24743904912611	
9.0	56.25643407211646	fix	1.0		444	34.0	male	white	2.651014723438122	neutral	121	sub-09	1.0	1.0	121_neutral	0.0		166.49734004018137	3.7665918464917922
9.0	56.706537186310015	pulse	1.0	t		34.0	male	white	2.651014723438122	neutral	121	sub-09	1.0	1.0	121_neutral	0.0		166.94744315437492	
9.0	57.40651623746635	pulse	1.0	t		34.0	male	white	2.651014723438122	neutral	121	sub-09	1.0	1.0	121_neutral	0.0		167.64742220553126	
9.0	58.10649317562638	pulse	1.0	t		34.0	male	white	2.651014723438122	neutral	121	sub-09	1.0	1.0	121_neutral	0.0		168.3473991436913	
9.0	58.80649637530587	pulse	1.0	t		34.0	male	white	2.651014723438122	neutral	121	sub-09	1.0	1.0	121_neutral	0.0		169.04740234337078	
9.0	59.506492330428955	pulse	1.0	t		34.0	male	white	2.651014723438122	neutral	121	sub-09	1.0	1.0	121_neutral	0.0		169.74739829849386	
10.0	60.023025918608255	face	0.0		145	40.0	female	west_asian	1.5777954635893354	neutral	038	sub-09	1.0	1.0	038_neutral	0.0		170.26393188667316	1.2333302745209949
10.0	60.206490096690686	pulse	0.0	t		40.0	female	west_asian	1.5777954635893354	neutral	038	sub-09	1.0	1.0	038_neutral	0.0		170.4473960647556	
10.0	60.90645888472318	pulse	0.0	t		40.0	female	west_asian	1.5777954635893354	neutral	038	sub-09	1.0	1.0	038_neutral	0.0		171.1473648527881	
10.0	61.25635619312925	fix	1.0		444	40.0	female	west_asian	1.5777954635893354	neutral	038	sub-09	1.0	1.0	038_neutral	0.0		171.49726216119416	3.766594563201579
10.0	61.60646540482412	pulse	1.0	t		40.0	female	west_asian	1.5777954635893354	neutral	038	sub-09	1.0	1.0	038_neutral	0.0		171.84737137288903	
10.0	62.30644566340743	pulse	1.0	t		40.0	female	west_asian	1.5777954635893354	neutral	038	sub-09	1.0	1.0	038_neutral	0.0		172.54735163147234	
10.0	63.00643105355084	pulse	1.0	t		40.0	female	west_asian	1.5777954635893354	neutral	038	sub-09	1.0	1.0	038_neutral	0.0		173.24733702161575	
10.0	63.70642187711201	pulse	1.0	t		40.0	female	west_asian	1.5777954635893354	neutral	038	sub-09	1.0	1.0	038_neutral	0.0		173.94732784517691	
10.0	64.40641662480812	pulse	1.0	t		40.0	female	west_asian	1.5777954635893354	neutral	038	sub-09	1.0	1.0	038_neutral	0.0		174.64732259287302	
11.0	65.02295075633083	face	0.0		145	31.0	female	west_asian	2.364902506963788	smiling	006	sub-09	1.0	1.0	006_smiling	0.0		175.26385672439574	1.2333287652381841
11.0	65.1064125799312	pulse	0.0	t		31.0	female	west_asian	2.364902506963788	smiling	006	sub-09	1.0	1.0	006_smiling	0.0		175.3473185479961	
11.0	65.80639314037035	pulse	0.0	t		31.0	female	west_asian	2.364902506963788	smiling	006	sub-09	1.0	1.0	006_smiling	0.0		176.04729910843525	
11.0	66.25627952156901	fix	1.0		444	31.0	female	west_asian	2.364902506963788	smiling	006	sub-09	1.0	1.0	006_smiling	0.0		176.49718548963392	3.766604524465947
11.0	66.5063918122014	pulse	1.0	t		31.0	female	west_asian	2.364902506963788	smiling	006	sub-09	1.0	1.0	006_smiling	0.0		176.7472977802663	
11.0	67.20636814664795	pulse	1.0	t		31.0	female	west_asian	2.364902506963788	smiling	006	sub-09	1.0	1.0	006_smiling	0.0		177.44727411471285	
11.0	67.90636078134958	pulse	1.0	t		31.0	female	west_asian	2.364902506963788	smiling	006	sub-09	1.0	1.0	006_smiling	0.0		178.14726674941448	
11.0	68.60635311419173	pulse	1.0	t		31.0	female	west_asian	2.364902506963788	smiling	006	sub-09	1.0	1.0	006_smiling	0.0		178.84725908225664	
11.0	69.30634333404123	pulse	1.0	t		31.0	female	west_asian	2.364902506963788	smiling	006	sub-09	1.0	1.0	006_smiling	0.0		179.54724930210614	
12.0	70.02288404603496	face	0.0		146	36.0	female	white	2.7548746518105847	neutral	011	sub-09	1.0	1.0	011_neutral	0.0		180.26379001409987	1.2333230299645948
12.0	70.00923258408511	pulse	0.0	t		36.0	female	white	2.7548746518105847	neutral	011	sub-09	1.0	1.0	011_neutral	0.0		180.25013855215002	
12.0	70.70632618858872	pulse	0.0	t		36.0	female	white	2.7548746518105847	neutral	011	sub-09	1.0	1.0	011_neutral	0.0		180.94723215665363	
12.0	71.25620707599955	fix	1.0		443	36.0	female	white	2.7548746518105847	neutral	011	sub-09	1.0	1.0	011_neutral	0.0		181.49711304406446	3.766593355774603
12.0	71.40634508480798	pulse	1.0	t		36.0	female	white	2.7548746518105847	neutral	011	sub-09	1.0	1.0	011_neutral	0.0		181.6472510528729	
12.0	72.10630904313803	pulse	1.0	t		36.0	female	white	2.7548746518105847	neutral	011	sub-09	1.0	1.0	011_neutral	0.0		182.34721501120293	
12.0	72.80628356644593	pulse	1.0	t		36.0	female	white	2.7548746518105847	neutral	011	sub-09	1.0	1.0	011_neutral	0.0		183.04718953451084	
12.0	73.50629431253947	pulse	1.0	t		36.0	female	white	2.7548746518105847	neutral	011	sub-09	1.0	1.0	011_neutral	0.0		183.74720028060437	
12.0	74.20626581728175	pulse	1.0	t		36.0	female	white	2.7548746518105847	neutral	011	sub-09	1.0	1.0	011_neutral	0.0		184.44717178534665	
12.0	74.90624728329021	pulse	1.0	t		36.0	female	white	2.7548746518105847	neutral	011	sub-09	1.0	1.0	011_neutral	0.0		185.14715325135512	
13.0	75.02280043177416	face	0.0		146	24.0	female	east_asian	4.409868682849185	smiling	030	sub-09	1.0	1.0	030_smiling	0.0		185.26370639983907	1.2333311800903175
13.0	75.60625410524881	pulse	0.0	t		24.0	female	east_asian	4.409868682849185	smiling	030	sub-09	1.0	1.0	030_smiling	0.0		185.84716007331372	
13.0	76.25613161186448	fix	1.0		443	24.0	female	east_asian	4.409868682849185	smiling	030	sub-09	1.0	1.0	030_smiling	0.0		186.49703757992938	3.7665930539187684
13.0	76.30625821049762	pulse	1.0	t		24.0	female	east_asian	4.409868682849185	smiling	030	sub-09	1.0	1.0	030_smiling	0.0		186.54716417856253	
13.0	77.00622669667428	pulse	1.0	t		24.0	female	east_asian	4.409868682849185	smiling	030	sub-09	1.0	1.0	030_smiling	0.0		187.24713266473918	
13.0	77.70621057753488	pulse	1.0	t		24.0	female	east_asian	4.409868682849185	smiling	030	sub-09	1.0	1.0	030_smiling	0.0		187.94711654559978	
13.0	78.3980917233348	pulse	1.0	t		24.0	female	east_asian	4.409868682849185	smiling	030	sub-09	1.0	1.0	030_smiling	0.0		188.6389976913997	
13.0	79.10619313022653	pulse	1.0	t		24.0	female	east_asian	4.409868682849185	smiling	030	sub-09	1.0	1.0	030_smiling	0.0		189.34709909829144	
13.0	79.80618697235332	pulse	1.0	t		24.0	female	east_asian	4.409868682849185	smiling	030	sub-09	1.0	1.0	030_smiling	0.0		190.04709294041822	
14.0	80.02272466578324	face	0.0		145	27.0	female	white	4.181058495821727	neutral	039	sub-09	1.0	1.0	039_neutral	0.0		190.26363063384815	1.2333296708075068
14.0	80.50617960705495	pulse	0.0	t		27.0	female	white	4.181058495821727	neutral	039	sub-09	1.0	1.0	039_neutral	0.0		190.74708557511985	
14.0	81.20617676960319	pulse	0.0	t		27.0	female	white	4.181058495821727	neutral	039	sub-09	1.0	1.0	039_neutral	0.0		191.4470827376681	
14.0	81.25605433659075	fix	1.0		445	27.0	female	white	4.181058495821727	neutral	039	sub-09	1.0	1.0	039_neutral	0.0		191.49696030465566	3.766594563201579
14.0	81.90615914118098	pulse	1.0	t		27.0	female	white	4.181058495821727	neutral	039	sub-09	1.0	1.0	039_neutral	0.0		192.1470651092459	
14.0	82.60613939976429	pulse	1.0	t		27.0	female	white	4.181058495821727	neutral	039	sub-09	1.0	1.0	039_neutral	0.0		192.8470453678292	
14.0	83.30612388433656	pulse	1.0	t		27.0	female	white	4.181058495821727	neutral	039	sub-09	1.0	1.0	039_neutral	0.0		193.54702985240147	
14.0	84.00611259490324	pulse	1.0	t		27.0	female	white	4.181058495821727	neutral	039	sub-09	1.0	1.0	039_neutral	0.0		194.24701856296815	
14.0	84.70611005930732	pulse	1.0	t		27.0	female	white	4.181058495821727	neutral	039	sub-09	1.0	1.0	039_neutral	0.0		194.94701602737223	
15.0	85.02264889979233	face	0.0		145	24.0	male	white	3.1153999204138483	smiling	012	sub-09	1.0	1.0	012_smiling	0.0		195.26355486785724	1.2333296708075068
15.0	85.4061247295358	pulse	0.0	t		24.0	male	white	3.1153999204138483	smiling	012	sub-09	1.0	1.0	012_smiling	0.0		195.6470306976007	
15.0	86.10607842474201	pulse	0.0	t		24.0	male	white	3.1153999204138483	smiling	012	sub-09	1.0	1.0	012_smiling	0.0		196.34698439280692	
15.0	86.25597857059984	fix	1.0		444	24.0	male	white	3.1153999204138483	smiling	012	sub-09	1.0	1.0	012_smiling	0.0		196.49688453866474	3.766596676197878
15.0	86.80608675598342	pulse	1.0	t		24.0	male	white	3.1153999204138483	smiling	012	sub-09	1.0	1.0	012_smiling	0.0		197.04699272404832	
15.0	87.49792322701433	pulse	1.0	t		24.0	male	white	3.1153999204138483	smiling	012	sub-09	1.0	1.0	012_smiling	0.0		197.73882919507923	
15.0	88.19790740973258	pulse	1.0	t		24.0	male	white	3.1153999204138483	smiling	012	sub-09	1.0	1.0	012_smiling	0.0		198.4388133777975	
15.0	88.89796826400925	pulse	1.0	t		24.0	male	white	3.1153999204138483	smiling	012	sub-09	1.0	1.0	012_smiling	0.0		199.13887423207416	
15.0	89.5979020366849	pulse	1.0	t		24.0	male	white	3.1153999204138483	smiling	012	sub-09	1.0	1.0	012_smiling	0.0		199.8388080047498	
16.0	90.02257524679771	face	0.0		145	22.0	female	west_asian	3.8205332272184642	neutral	066	sub-09	1.0	1.0	066_neutral	0.0		200.26348121486262	1.233331481946152
16.0	90.30603181809238	pulse	0.0	t		22.0	female	west_asian	3.8205332272184642	neutral	066	sub-09	1.0	1.0	066_neutral	0.0		200.5469377861573	
16.0	91.00601086924871	pulse	0.0	t		22.0	female	west_asian	3.8205332272184642	neutral	066	sub-09	1.0	1.0	066_neutral	0.0		201.24691683731362	
16.0	91.25590672874387	fix	1.0		444	22.0	female	west_asian	3.8205332272184642	neutral	066	sub-09	1.0	1.0	066_neutral	0.0		201.49681269680877	3.7665936576322565
16.0	91.69787209251626	pulse	1.0	t		22.0	female	west_asian	3.8205332272184642	neutral	066	sub-09	1.0	1.0	066_neutral	0.0		201.93877806058117	
16.0	92.39787680147856	pulse	1.0	t		22.0	female	west_asian	3.8205332272184642	neutral	066	sub-09	1.0	1.0	066_neutral	0.0		202.63878276954347	
16.0	93.09783743938715	pulse	1.0	t		22.0	female	west_asian	3.8205332272184642	neutral	066	sub-09	1.0	1.0	066_neutral	0.0		203.33874340745206	
16.0	93.79783580936055	pulse	1.0	t		22.0	female	west_asian	3.8205332272184642	neutral	066	sub-09	1.0	1.0	066_neutral	0.0		204.03874177742546	
16.0	94.49784685730992	pulse	1.0	t		22.0	female	west_asian	3.8205332272184642	neutral	066	sub-09	1.0	1.0	066_neutral	0.0		204.73875282537483	
17.0	95.02250038637612	face	0.0		145	28.0	male	white	3.9076800636689217	neutral	033	sub-09	1.0	1.0	033_neutral	0.0		205.26340635444103	1.2333305763768294
17.0	95.20595762175617	pulse	0.0	t		28.0	male	white	3.9076800636689217	neutral	033	sub-09	1.0	1.0	033_neutral	0.0		205.44686358982108	
17.0	95.9059345599162	pulse	0.0	t		28.0	male	white	3.9076800636689217	neutral	033	sub-09	1.0	1.0	033_neutral	0.0		206.1468405279811	
17.0	96.25583096275295	fix	1.0		444	28.0	male	white	3.9076800636689217	neutral	033	sub-09	1.0	1.0	033_neutral	0.0		206.49673693081786	3.7665942613439256
17.0	96.59780604630578	pulse	1.0	t		28.0	male	white	3.9076800636689217	neutral	033	sub-09	1.0	1.0	033_neutral	0.0		206.83871201437069	
17.0	97.29783792235685	pulse	1.0	t		28.0	male	white	3.9076800636689217	neutral	033	sub-09	1.0	1.0	033_neutral	0.0		207.53874389042176	
17.0	97.99777109131901	pulse	1.0	t		28.0	male	white	3.9076800636689217	neutral	033	sub-09	1.0	1.0	033_neutral	0.0		208.23867705938392	
17.0	98.69775859445872	pulse	1.0	t		28.0	male	white	3.9076800636689217	neutral	033	sub-09	1.0	1.0	033_neutral	0.0		208.93866456252363	
17.0	99.39773824932854	pulse	1.0	t		28.0	male	white	3.9076800636689217	neutral	033	sub-09	1.0	1.0	033_neutral	0.0		209.63864421739345	
18.0	100.02242522409688	face	0.0		145	20.0	male	black	3.1070433744528456	neutral	082	sub-09	1.0	1.0	082_neutral	0.0		210.2633311921618	1.2333266522418853
18.0	100.09775623997666	pulse	0.0	t		20.0	male	black	3.1070433744528456	neutral	082	sub-09	1.0	1.0	082_neutral	0.0		210.33866220804157	
18.0	100.79767009012176	pulse	0.0	t		20.0	male	black	3.1070433744528456	neutral	082	sub-09	1.0	1.0	082_neutral	0.0		211.03857605818666	
18.0	101.25575187633876	fix	1.0		444	20.0	male	black	3.1070433744528456	neutral	082	sub-09	1.0	1.0	082_neutral	0.0		211.49665784440367	3.7665915446359577
18.0	101.49773275553889	pulse	1.0	t		20.0	male	black	3.1070433744528456	neutral	082	sub-09	1.0	1.0	082_neutral	0.0		211.7386387236038	
18.0	102.19769852500758	pulse	1.0	t		20.0	male	black	3.1070433744528456	neutral	082	sub-09	1.0	1.0	082_neutral	0.0		212.4386044930725	
18.0	102.89768723557245	pulse	1.0	t		20.0	male	black	3.1070433744528456	neutral	082	sub-09	1.0	1.0	082_neutral	0.0		213.13859320363736	
18.0	103.59767413499867	pulse	1.0	t		20.0	male	black	3.1070433744528456	neutral	082	sub-09	1.0	1.0	082_neutral	0.0		213.83858010306358	
18.0	104.29768095695727	pulse	1.0	t		20.0	male	black	3.1070433744528456	neutral	082	sub-09	1.0	1.0	082_neutral	0.0		214.53858692502217	
19.0	105.02234342097472	face	0.0		146	24.0	female	black	3.0955033824114606	neutral	099	sub-09	1.0	1.0	099_neutral	0.0		215.26324938903963	1.2333345005135925
19.0	105.00865090653497	pulse	0.0	t		24.0	female	black	3.0955033824114606	neutral	099	sub-09	1.0	1.0	099_neutral	0.0		215.24955687459988	
19.0	105.69760766618856	pulse	0.0	t		24.0	female	black	3.0955033824114606	neutral	099	sub-09	1.0	1.0	099_neutral	0.0		215.93851363425347	
19.0	106.25567792148831	fix	1.0		443	24.0	female	black	3.0955033824114606	neutral	099	sub-09	1.0	1.0	099_neutral	0.0		216.49658388955322	3.766597883623035
19.0	106.39765493692357	pulse	1.0	t		24.0	female	black	3.0955033824114606	neutral	099	sub-09	1.0	1.0	099_neutral	0.0		216.63856090498848	
19.0	107.09762553609653	pulse	1.0	t		24.0	female	black	3.0955033824114606	neutral	099	sub-09	1.0	1.0	099_neutral	0.0		217.33853150416144	
19.0	107.79762541535456	pulse	1.0	t		24.0	female	black	3.0955033824114606	neutral	099	sub-09	1.0	1.0	099_neutral	0.0		218.03853138341947	
19.0	108.49761201292313	pulse	1.0	t		24.0	female	black	3.0955033824114606	neutral	099	sub-09	1.0	1.0	099_neutral	0.0		218.73851798098804	
19.0	109.1976043457671	pulse	1.0	t		24.0	female	black	3.0955033824114606	neutral	099	sub-09	1.0	1.0	099_neutral	0.0		219.438510313832	
19.0	109.89759184890681	pulse	1.0	t		24.0	female	black	3.0955033824114606	neutral	099	sub-09	1.0	1.0	099_neutral	0.0		220.13849781697172	
20.0	110.02227580511135	face	0.0		146	37.0	male	white	3.898925586947871	neutral	101	sub-09	1.0	1.0	101_neutral	1.0	attractiveness	220.26318177317626	1.2333299726633413
20.0	110.59753135685605	pulse	0.0	t		37.0	male	white	3.898925586947871	neutral	101	sub-09	1.0	1.0	101_neutral	1.0	attractiveness	220.83843732492096	
20.0	111.25560577777469	fix	1.0		176	37.0	male	white	3.898925586947871	neutral	101	sub-09	1.0	1.0	101_neutral	1.0	attractiveness	221.4965117458396	1.4999785681866342
20.0	111.29757560902544	pulse	1.0	t		37.0	male	white	3.898925586947871	neutral	101	sub-09	1.0	1.0	101_neutral	1.0	attractiveness	221.53848157709035	
20.0	111.99756190473818	pulse	1.0	t		37.0	male	white	3.898925586947871	neutral	101	sub-09	1.0	1.0	101_neutral	1.0	attractiveness	222.23846787280308	
20.0	112.70568957314936	pulse	1.0	t		37.0	male	white	3.898925586947871	neutral	101	sub-09	1.0	1.0	101_neutral	1.0	attractiveness	222.94659554121426	
20.0	112.75558434596132	rating	2.0		295	37.0	male	white	3.898925586947871	neutral	101	sub-09	1.0	1.0	101_neutral	1.0	attractiveness	222.99649031402623	2.499957438227284
20.0	113.40047548441908	pulse	2.0	t		37.0	male	white	3.898925586947871	neutral	101	sub-09	1.0	1.0	101_neutral	1.0	attractiveness	223.64138145248398	
20.0	114.10046117641832	pulse	2.0	t		37.0	male	white	3.898925586947871	neutral	101	sub-09	1.0	1.0	101_neutral	1.0	attractiveness	224.34136714448323	
20.0	114.68066264754634	response	2.0	b		37.0	male	white	3.898925586947871	neutral	101	sub-09	1.0	1.0	101_neutral	1.0	attractiveness	224.92156861561125	
20.0	114.80043056816612	pulse	2.0	t		37.0	male	white	3.898925586947871	neutral	101	sub-09	1.0	1.0	101_neutral	1.0	attractiveness	225.04133653623103	
20.0	115.25554178418861	fix	3.0		1185	37.0	male	white	3.898925586947871	neutral	101	sub-09	1.0	1.0	101_neutral	1.0	attractiveness	225.49644775225352	10.016501893243912
20.0	115.49751179655323	pulse	3.0	t		37.0	male	white	3.898925586947871	neutral	101	sub-09	1.0	1.0	101_neutral	1.0	attractiveness	225.73841776461813	
20.0	116.19748994213842	pulse	3.0	t		37.0	male	white	3.898925586947871	neutral	101	sub-09	1.0	1.0	101_neutral	1.0	attractiveness	226.43839591020333	
20.0	116.89748650097499	pulse	3.0	t		37.0	male	white	3.898925586947871	neutral	101	sub-09	1.0	1.0	101_neutral	1.0	attractiveness	227.1383924690399	
20.0	117.59747521153986	pulse	3.0	t		37.0	male	white	3.898925586947871	neutral	101	sub-09	1.0	1.0	101_neutral	1.0	attractiveness	227.83838117960477	
20.0	118.29746422396238	pulse	3.0	t		37.0	male	white	3.898925586947871	neutral	101	sub-09	1.0	1.0	101_neutral	1.0	attractiveness	228.5383701920273	
20.0	119.00558313853435	pulse	3.0	t		37.0	male	white	3.898925586947871	neutral	101	sub-09	1.0	1.0	101_neutral	1.0	attractiveness	229.24648910659926	
20.0	119.69744315437492	pulse	3.0	t		37.0	male	white	3.898925586947871	neutral	101	sub-09	1.0	1.0	101_neutral	1.0	attractiveness	229.93834912243983	
20.0	120.397404395997	pulse	3.0	t		37.0	male	white	3.898925586947871	neutral	101	sub-09	1.0	1.0	101_neutral	1.0	attractiveness	230.6383103640619	
20.0	121.09742057550648	pulse	3.0	t		37.0	male	white	3.898925586947871	neutral	101	sub-09	1.0	1.0	101_neutral	1.0	attractiveness	231.33832654357138	
20.0	121.79741441763326	pulse	3.0	t		37.0	male	white	3.898925586947871	neutral	101	sub-09	1.0	1.0	101_neutral	1.0	attractiveness	232.03832038569817	
20.0	122.50553786005366	pulse	3.0	t		37.0	male	white	3.898925586947871	neutral	101	sub-09	1.0	1.0	101_neutral	1.0	attractiveness	232.74644382811857	
20.0	123.19740149817335	pulse	3.0	t		37.0	male	white	3.898925586947871	neutral	101	sub-09	1.0	1.0	101_neutral	1.0	attractiveness	233.43830746623826	
20.0	123.89717800359176	pulse	3.0	t		37.0	male	white	3.898925586947871	neutral	101	sub-09	1.0	1.0	101_neutral	1.0	attractiveness	234.13808397165667	
20.0	124.6055070103157	pulse	3.0	t		37.0	male	white	3.898925586947871	neutral	101	sub-09	1.0	1.0	101_neutral	1.0	attractiveness	234.8464129783806	
21.0	125.27204367743252	face	0.0		145	30.0	female	black	2.7345801830481498	smiling	062	sub-09	1.0	1.0	062_smiling	0.0		235.51294964549743	1.2333335949424509
21.0	125.30550628586025	pulse	0.0	t		30.0	female	black	2.7345801830481498	smiling	062	sub-09	1.0	1.0	062_smiling	0.0		235.54641225392515	
21.0	125.99717703765236	pulse	0.0	t		30.0	female	black	2.7345801830481498	smiling	062	sub-09	1.0	1.0	062_smiling	0.0		236.23808300571727	
21.0	126.50537727237497	fix	1.0		443	30.0	female	black	2.7345801830481498	smiling	062	sub-09	1.0	1.0	062_smiling	0.0		236.74628324043988	3.7665924502052803
21.0	126.70546982159067	pulse	1.0	t		30.0	female	black	2.7345801830481498	smiling	062	sub-09	1.0	1.0	062_smiling	0.0		236.94637578965558	
21.0	127.40546909713339	pulse	1.0	t		30.0	female	black	2.7345801830481498	smiling	062	sub-09	1.0	1.0	062_smiling	0.0		237.6463750651983	
21.0	128.10545207242467	pulse	1.0	t		30.0	female	black	2.7345801830481498	smiling	062	sub-09	1.0	1.0	062_smiling	0.0		238.34635804048958	
21.0	128.8054483294036	pulse	1.0	t		30.0	female	black	2.7345801830481498	smiling	062	sub-09	1.0	1.0	062_smiling	0.0		239.0463542974685	
21.0	129.50543854925309	pulse	1.0	t		30.0	female	black	2.7345801830481498	smiling	062	sub-09	1.0	1.0	062_smiling	0.0		239.746344517318	
21.0	130.2054239393965	pulse	1.0	t		30.0	female	black	2.7345801830481498	smiling	062	sub-09	1.0	1.0	062_smiling	0.0		240.4463299074614	
22.0	130.27196972258025	face	0.0		146	54.0	female	white	2.286908077994429	neutral	136	sub-09	1.0	1.0	136_neutral	0.0		240.51287569064516	1.2333369153657259
22.0	130.90542321494104	pulse	0.0	t		54.0	female	white	2.286908077994429	neutral	136	sub-09	1.0	1.0	136_neutral	0.0		241.14632918300595	
22.0	131.50530663794598	fix	1.0		443	54.0	female	white	2.286908077994429	neutral	136	sub-09	1.0	1.0	136_neutral	0.0		241.7462126060109	3.7665882242126827
22.0	131.6054104162231	pulse	1.0	t		54.0	female	white	2.286908077994429	neutral	136	sub-09	1.0	1.0	136_neutral	0.0		241.846316384288	
22.0	132.30539037294875	pulse	1.0	t		54.0	female	white	2.286908077994429	neutral	136	sub-09	1.0	1.0	136_neutral	0.0		242.54629634101366	
22.0	133.00537606494981	pulse	1.0	t		54.0	female	white	2.286908077994429	neutral	136	sub-09	1.0	1.0	136_neutral	0.0		243.24628203301472	
22.0	133.70536990707478	pulse	1.0	t		54.0	female	white	2.286908077994429	neutral	136	sub-09	1.0	1.0	136_neutral	0.0		243.9462758751397	
22.0	134.40536646591136	pulse	1.0	t		54.0	female	white	2.286908077994429	neutral	136	sub-09	1.0	1.0	136_neutral	0.0		244.64627243397626	
22.0	135.10534823377566	pulse	1.0	t		54.0	female	white	2.286908077994429	neutral	136	sub-09	1.0	1.0	136_neutral	0.0		245.34625420184057	
23.0	135.27189486215866	face	0.0		146	24.0	female	east_asian	2.9076800636689217	neutral	034	sub-09	1.0	1.0	034_neutral	0.0		245.51280083022357	1.2333311800903175
23.0	135.80534660375088	pulse	0.0	t		24.0	female	east_asian	2.9076800636689217	neutral	034	sub-09	1.0	1.0	034_neutral	0.0		246.04625257181578	
23.0	136.50522604224898	fix	1.0		444	24.0	female	east_asian	2.9076800636689217	neutral	034	sub-09	1.0	1.0	034_neutral	0.0		246.7461320103139	3.7582443057781347
23.0	136.51273955334727	pulse	1.0	t		24.0	female	east_asian	2.9076800636689217	neutral	034	sub-09	1.0	1.0	034_neutral	0.0		246.75364552141218	
23.0	137.2053246285941	pulse	1.0	t		24.0	female	east_asian	2.9076800636689217	neutral	034	sub-09	1.0	1.0	034_neutral	0.0		247.446230596659	
23.0	137.90530367975043	pulse	1.0	t		24.0	female	east_asian	2.9076800636689217	neutral	034	sub-09	1.0	1.0	034_neutral	0.0		248.14620964781534	
23.0	138.60529329588644	pulse	1.0	t		24.0	female	east_asian	2.9076800636689217	neutral	034	sub-09	1.0	1.0	034_neutral	0.0		248.84619926395135	
23.0	139.30528743986906	pulse	1.0	t		24.0	female	east_asian	2.9076800636689217	neutral	034	sub-09	1.0	1.0	034_neutral	0.0		249.54619340793397	
23.0	140.00528037642653	pulse	1.0	t		24.0	female	east_asian	2.9076800636689217	neutral	034	sub-09	1.0	1.0	034_neutral	0.0		250.24618634449143	
24.0	140.2634703480271	face	0.0		146	26.0	female	white	4.854755272582572	smiling	027	sub-09	1.0	1.0	027_smiling	0.0		250.50437631609202	1.2416778152346524
24.0	140.70527240741285	pulse	0.0	t		26.0	female	white	4.854755272582572	smiling	027	sub-09	1.0	1.0	027_smiling	0.0		250.94617837547776	
24.0	141.40527047553223	pulse	0.0	t		26.0	female	white	4.854755272582572	smiling	027	sub-09	1.0	1.0	027_smiling	0.0		251.64617644359714	
24.0	141.50514816326177	fix	1.0		444	26.0	female	white	4.854755272582572	smiling	027	sub-09	1.0	1.0	027_smiling	0.0		251.74605413132667	3.7665963743420434
24.0	142.10524892297508	pulse	1.0	t		26.0	female	white	4.854755272582572	smiling	027	sub-09	1.0	1.0	027_smiling	0.0		252.34615489104	
24.0	142.80522978527006	pulse	1.0	t		26.0	female	white	4.854755272582572	smiling	027	sub-09	1.0	1.0	027_smiling	0.0		253.04613575333497	
24.0	143.5052160809828	pulse	1.0	t		26.0	female	white	4.854755272582572	smiling	027	sub-09	1.0	1.0	027_smiling	0.0		253.7461220490477	
24.0	144.2052123379617	pulse	1.0	t		26.0	female	white	4.854755272582572	smiling	027	sub-09	1.0	1.0	027_smiling	0.0		254.44611830602662	
24.0	144.90520738751547	pulse	1.0	t		26.0	female	white	4.854755272582572	smiling	027	sub-09	1.0	1.0	027_smiling	0.0		255.14611335558038	
25.0	145.2717445376038	face	0.0		145	26.0	female	white	4.854755272582572	neutral	027	sub-09	1.0	1.0	027_neutral	1.0	trustworthiness	255.51265050566872	1.233331481946152
25.0	145.60520002221529	pulse	0.0	t		26.0	female	white	4.854755272582572	neutral	027	sub-09	1.0	1.0	027_neutral	1.0	trustworthiness	255.8461059902802	
25.0	146.3051854123587	pulse	0.0	t		26.0	female	white	4.854755272582572	neutral	027	sub-09	1.0	1.0	027_neutral	1.0	trustworthiness	256.5460913804236	
25.0	146.50507601954996	fix	1.0		177	26.0	female	white	4.854755272582572	neutral	027	sub-09	1.0	1.0	027_neutral	1.0	trustworthiness	256.74598198761487	1.4999764551903354
25.0	147.00517925448548	pulse	1.0	t		26.0	female	white	4.854755272582572	neutral	027	sub-09	1.0	1.0	027_neutral	1.0	trustworthiness	257.2460852225504	
25.0	147.70516041863812	pulse	1.0	t		26.0	female	white	4.854755272582572	neutral	027	sub-09	1.0	1.0	027_neutral	1.0	trustworthiness	257.946066386703	
25.0	148.0050524747403	rating	2.0		295	26.0	female	white	4.854755272582572	neutral	027	sub-09	1.0	1.0	027_neutral	1.0	trustworthiness	258.2459584428052	2.499961966075716
25.0	148.39994451876737	pulse	2.0	t		26.0	female	white	4.854755272582572	neutral	027	sub-09	1.0	1.0	027_neutral	1.0	trustworthiness	258.6408504868323	
25.0	149.09990847709742	pulse	2.0	t		26.0	female	white	4.854755272582572	neutral	027	sub-09	1.0	1.0	027_neutral	1.0	trustworthiness	259.3408144451623	
25.0	149.7999349197289	pulse	2.0	t		26.0	female	white	4.854755272582572	neutral	027	sub-09	1.0	1.0	027_neutral	1.0	trustworthiness	260.0408408877938	
25.0	150.2301293877863	response	2.0	e		26.0	female	white	4.854755272582572	neutral	027	sub-09	1.0	1.0	027_neutral	1.0	trustworthiness	260.4710353558512	
25.0	150.505014440816	fix	3.0		444	26.0	female	white	4.854755272582572	neutral	027	sub-09	1.0	1.0	027_neutral	1.0	trustworthiness	260.7459204088809	3.758314638351294
25.0	150.51288293520338	pulse	3.0	t		26.0	female	white	4.854755272582572	neutral	027	sub-09	1.0	1.0	027_neutral	1.0	trustworthiness	260.7537889032683	
25.0	151.20510880117035	pulse	3.0	t		26.0	female	white	4.854755272582572	neutral	027	sub-09	1.0	1.0	027_neutral	1.0	trustworthiness	261.44601476923526	
25.0	151.9051032470088	pulse	3.0	t		26.0	female	white	4.854755272582572	neutral	027	sub-09	1.0	1.0	027_neutral	1.0	trustworthiness	262.1460092150737	
25.0	152.6050883352964	pulse	3.0	t		26.0	female	white	4.854755272582572	neutral	027	sub-09	1.0	1.0	027_neutral	1.0	trustworthiness	262.8459943033613	
25.0	153.30507493286677	pulse	3.0	t		26.0	female	white	4.854755272582572	neutral	027	sub-09	1.0	1.0	027_neutral	1.0	trustworthiness	263.5459809009317	
25.0	154.00505851186972	pulse	3.0	t		26.0	female	white	4.854755272582572	neutral	027	sub-09	1.0	1.0	027_neutral	1.0	trustworthiness	264.2459644799346	
26.0	154.2633290791673	face	0.0		146	31.0	female	white	2.1822522881018704	smiling	102	sub-09	1.0	1.0	102_smiling	0.0		264.5042350472322	1.2416080863749812
26.0	154.70506261711853	pulse	0.0	t		31.0	female	white	2.1822522881018704	smiling	102	sub-09	1.0	1.0	102_smiling	0.0		264.94596858518344	
26.0	155.40504710169262	pulse	0.0	t		31.0	female	white	2.1822522881018704	smiling	102	sub-09	1.0	1.0	102_smiling	0.0		265.6459530697575	
26.0	155.5049371655423	fix	1.0		444	31.0	female	white	2.1822522881018704	smiling	102	sub-09	1.0	1.0	102_smiling	0.0		265.7458431336072	3.7665969780537125
26.0	156.10503671782863	pulse	1.0	t		31.0	female	white	2.1822522881018704	smiling	102	sub-09	1.0	1.0	102_smiling	0.0		266.34594268589353	
26.0	156.80502361725485	pulse	1.0	t		31.0	female	white	2.1822522881018704	smiling	102	sub-09	1.0	1.0	102_smiling	0.0		267.04592958531975	
26.0	157.5050114222504	pulse	1.0	t		31.0	female	white	2.1822522881018704	smiling	102	sub-09	1.0	1.0	102_smiling	0.0		267.7459173903153	
26.0	158.2050103959391	pulse	1.0	t		31.0	female	white	2.1822522881018704	smiling	102	sub-09	1.0	1.0	102_smiling	0.0		268.445916364004	
26.0	158.90498733409913	pulse	1.0	t		31.0	female	white	2.1822522881018704	smiling	102	sub-09	1.0	1.0	102_smiling	0.0		269.14589330216404	
27.0	159.271534143596	face	0.0		145	31.0	male	west_asian	1.9538400318344609	smiling	070	sub-09	1.0	1.0	070_smiling	0.0		269.5124401116609	1.2333157854063757
27.0	159.60498842078232	pulse	0.0	t		31.0	male	west_asian	1.9538400318344609	smiling	070	sub-09	1.0	1.0	070_smiling	0.0		269.8458943888472	
27.0	160.3049677737945	pulse	0.0	t		31.0	male	west_asian	1.9538400318344609	smiling	070	sub-09	1.0	1.0	070_smiling	0.0		270.5458737418594	
27.0	160.50484992900238	fix	1.0		444	31.0	male	west_asian	1.9538400318344609	smiling	070	sub-09	1.0	1.0	070_smiling	0.0		270.7457558970673	3.7666075430333876
27.0	161.00496855862184	pulse	1.0	t		31.0	male	west_asian	1.9538400318344609	smiling	070	sub-09	1.0	1.0	070_smiling	0.0		271.24587452668675	
27.0	161.70495455247874	pulse	1.0	t		31.0	male	west_asian	1.9538400318344609	smiling	070	sub-09	1.0	1.0	070_smiling	0.0		271.94586052054365	
27.0	162.40493843333934	pulse	1.0	t		31.0	male	west_asian	1.9538400318344609	smiling	070	sub-09	1.0	1.0	070_smiling	0.0		272.64584440140425	
27.0	163.10492623833488	pulse	1.0	t		31.0	male	west_asian	1.9538400318344609	smiling	070	sub-09	1.0	1.0	070_smiling	0.0		273.3458322063998	
27.0	163.8049158544709	pulse	1.0	t		31.0	male	west_asian	1.9538400318344609	smiling	070	sub-09	1.0	1.0	070_smiling	0.0		274.0458218225358	
28.0	164.27145747203576	face	0.0		145	21.0	male	black	2.969757262236371	neutral	137	sub-09	1.0	1.0	137_neutral	0.0		274.51236344010067	1.2333311800884985
28.0	164.50491905415038	pulse	0.0	t		21.0	male	black	2.969757262236371	neutral	137	sub-09	1.0	1.0	137_neutral	0.0		274.7458250222153	
28.0	165.20489750159322	pulse	0.0	t		21.0	male	black	2.969757262236371	neutral	137	sub-09	1.0	1.0	137_neutral	0.0		275.44580346965813	
28.0	165.50478865212426	fix	1.0		444	21.0	male	black	2.969757262236371	neutral	137	sub-09	1.0	1.0	137_neutral	0.0		275.74569462018917	3.7665951669150672
28.0	165.9048919474335	pulse	1.0	t		21.0	male	black	2.969757262236371	neutral	137	sub-09	1.0	1.0	137_neutral	0.0		276.1457979154984	
28.0	166.60488428027566	pulse	1.0	t		21.0	male	black	2.969757262236371	neutral	137	sub-09	1.0	1.0	137_neutral	0.0		276.84579024834056	
28.0	167.30491223219178	pulse	1.0	t		21.0	male	black	2.969757262236371	neutral	137	sub-09	1.0	1.0	137_neutral	0.0		277.5458182002567	
28.0	168.00485204199867	pulse	1.0	t		21.0	male	black	2.969757262236371	neutral	137	sub-09	1.0	1.0	137_neutral	0.0		278.2457580100636	
28.0	168.70484588412546	pulse	1.0	t		21.0	male	black	2.969757262236371	neutral	137	sub-09	1.0	1.0	137_neutral	0.0		278.94575185219037	
29.0	169.27138381903933	face	0.0		145	20.0	male	black	2.609629924393156	smiling	043	sub-09	1.0	1.0	043_smiling	1.0	attractiveness	279.51228978710424	1.2333311800903175
29.0	169.40484274481605	pulse	0.0	t		20.0	male	black	2.609629924393156	smiling	043	sub-09	1.0	1.0	043_smiling	1.0	attractiveness	279.64574871288096	
29.0	170.10481515512947	pulse	0.0	t		20.0	male	black	2.609629924393156	smiling	043	sub-09	1.0	1.0	043_smiling	1.0	attractiveness	280.3457211231944	
29.0	170.50471499912965	fix	1.0		177	20.0	male	black	2.609629924393156	smiling	043	sub-09	1.0	1.0	043_smiling	1.0	attractiveness	280.74562096719455	1.4999752477633592
29.0	170.8048180529513	pulse	1.0	t		20.0	male	black	2.609629924393156	smiling	043	sub-09	1.0	1.0	043_smiling	1.0	attractiveness	281.0457240210162	
29.0	171.50480525423518	pulse	1.0	t		20.0	male	black	2.609629924393156	smiling	043	sub-09	1.0	1.0	043_smiling	1.0	attractiveness	281.7457112223001	
29.0	172.004690246893	rating	2.0		294	20.0	male	black	2.609629924393156	smiling	043	sub-09	1.0	1.0	043_smiling	1.0	attractiveness	282.2455962149579	2.4999631735026924
29.0	172.1995573575714	pulse	2.0	t		20.0	male	black	2.609629924393156	smiling	043	sub-09	1.0	1.0	043_smiling	1.0	attractiveness	282.4404633256363	
29.0	172.8995665943803	pulse	2.0	t		20.0	male	black	2.609629924393156	smiling	043	sub-09	1.0	1.0	043_smiling	1.0	attractiveness	283.1404725624452	
29.0	173.50477989828505	response	2.0	b		20.0	male	black	2.609629924393156	smiling	043	sub-09	1.0	1.0	043_smiling	1.0	attractiveness	283.74568586634996	
29.0	173.59954111769002	pulse	2.0	t		20.0	male	black	2.609629924393156	smiling	043	sub-09	1.0	1.0	043_smiling	1.0	attractiveness	283.84044708575493	
29.0	174.30477066147614	pulse	2.0	t		20.0	male	black	2.609629924393156	smiling	043	sub-09	1.0	1.0	043_smiling	1.0	attractiveness	284.54567662954105	
29.0	174.5046534203957	fix	3.0		444	20.0	male	black	2.609629924393156	smiling	043	sub-09	1.0	1.0	043_smiling	1.0	attractiveness	284.7455593884606	3.766595468770902
29.0	175.00475665533122	pulse	3.0	t		20.0	male	black	2.609629924393156	smiling	043	sub-09	1.0	1.0	043_smiling	1.0	attractiveness	285.24566262339613	
29.0	175.7047432529016	pulse	3.0	t		20.0	male	black	2.609629924393156	smiling	043	sub-09	1.0	1.0	043_smiling	1.0	attractiveness	285.9456492209665	
29.0	176.40473015232783	pulse	3.0	t		20.0	male	black	2.609629924393156	smiling	043	sub-09	1.0	1.0	043_smiling	1.0	attractiveness	286.64563612039274	
29.0	177.10469682736584	pulse	3.0	t		20.0	male	black	2.609629924393156	smiling	043	sub-09	1.0	1.0	043_smiling	1.0	attractiveness	287.34560279543075	
29.0	177.80470546046308	pulse	3.0	t		20.0	male	black	2.609629924393156	smiling	043	sub-09	1.0	1.0	043_smiling	1.0	attractiveness	288.045611428528	
30.0	178.2712488891666	face	0.0		145	37.0	male	white	3.898925586947871	smiling	101	sub-09	1.0	1.0	101_smiling	0.0		288.5121548572315	1.2333263503860508
30.0	178.50470594343278	pulse	0.0	t		37.0	male	white	3.898925586947871	smiling	101	sub-09	1.0	1.0	101_smiling	0.0		288.7456119114977	
30.0	179.20468529644677	pulse	0.0	t		37.0	male	white	3.898925586947871	smiling	101	sub-09	1.0	1.0	101_smiling	0.0		289.4455912645117	
30.0	179.50457523955265	fix	1.0		444	37.0	male	white	3.898925586947871	smiling	101	sub-09	1.0	1.0	101_smiling	0.0		289.74548120761756	3.758262719027698
30.0	179.9046809497122	pulse	1.0	t		37.0	male	white	3.898925586947871	smiling	101	sub-09	1.0	1.0	101_smiling	0.0		290.1455869177771	
30.0	180.60466996213472	pulse	1.0	t		37.0	male	white	3.898925586947871	smiling	101	sub-09	1.0	1.0	101_smiling	0.0		290.84557593019963	
30.0	181.30465686156094	pulse	1.0	t		37.0	male	white	3.898925586947871	smiling	101	sub-09	1.0	1.0	101_smiling	0.0		291.54556282962585	
30.0	182.00464919440492	pulse	1.0	t		37.0	male	white	3.898925586947871	smiling	101	sub-09	1.0	1.0	101_smiling	0.0		292.2455551624698	
30.0	182.70463186783854	pulse	1.0	t		37.0	male	white	3.898925586947871	smiling	101	sub-09	1.0	1.0	101_smiling	0.0		292.94553783590345	
31.0	183.26283795858035	face	0.0		146	32.0	male	white	2.389176283326701	neutral	092	sub-09	1.0	1.0	092_neutral	0.0		293.50374392664526	1.2416636279758677
31.0	183.40464653806703	pulse	0.0	t		32.0	male	white	2.389176283326701	neutral	092	sub-09	1.0	1.0	092_neutral	0.0		293.64555250613193	
31.0	184.10461442053202	pulse	0.0	t		32.0	male	white	2.389176283326701	neutral	092	sub-09	1.0	1.0	092_neutral	0.0		294.3455203885969	
31.0	184.50450158655622	fix	1.0		444	32.0	male	white	2.389176283326701	neutral	092	sub-09	1.0	1.0	092_neutral	0.0		294.7454075546211	3.766598789194177
31.0	184.80460856451464	pulse	1.0	t		32.0	male	white	2.389176283326701	neutral	092	sub-09	1.0	1.0	092_neutral	0.0		295.04551453257955	
31.0	185.50459968993164	pulse	1.0	t		32.0	male	white	2.389176283326701	neutral	092	sub-09	1.0	1.0	092_neutral	0.0		295.74550565799655	
31.0	186.20458266522292	pulse	1.0	t		32.0	male	white	2.389176283326701	neutral	092	sub-09	1.0	1.0	092_neutral	0.0		296.4454886332878	
31.0	186.90457529992455	pulse	1.0	t		32.0	male	white	2.389176283326701	neutral	092	sub-09	1.0	1.0	092_neutral	0.0		297.14548126798945	
31.0	187.60456280306244	pulse	1.0	t		32.0	male	white	2.389176283326701	neutral	092	sub-09	1.0	1.0	092_neutral	0.0		297.84546877112734	
32.0	188.2711003757504	face	0.0		145	31.0	female	white	2.1822522881018704	neutral	102	sub-09	1.0	1.0	102_neutral	0.0		298.5120063438153	1.2333257466725627
32.0	188.30456419160328	pulse	0.0	t		31.0	female	white	2.1822522881018704	neutral	102	sub-09	1.0	1.0	102_neutral	0.0		298.5454701596682	
32.0	189.00454565761174	pulse	0.0	t		31.0	female	white	2.1822522881018704	neutral	102	sub-09	1.0	1.0	102_neutral	0.0		299.24545162567665	
32.0	189.50442612242296	fix	1.0		443	31.0	female	white	2.1822522881018704	neutral	102	sub-09	1.0	1.0	102_neutral	0.0		299.74533209048786	3.7665975817672006
32.0	189.70453799045572	pulse	1.0	t		31.0	female	white	2.1822522881018704	neutral	102	sub-09	1.0	1.0	102_neutral	0.0		299.9454439585206	
32.0	190.40452488988194	pulse	1.0	t		31.0	female	white	2.1822522881018704	neutral	102	sub-09	1.0	1.0	102_neutral	0.0		300.64543085794685	
32.0	191.10450665774624	pulse	1.0	t		31.0	female	white	2.1822522881018704	neutral	102	sub-09	1.0	1.0	102_neutral	0.0		301.34541262581115	
32.0	191.80449899059022	pulse	1.0	t		31.0	female	white	2.1822522881018704	neutral	102	sub-09	1.0	1.0	102_neutral	0.0		302.0454049586551	
32.0	192.50448981415138	pulse	1.0	t		31.0	female	white	2.1822522881018704	neutral	102	sub-09	1.0	1.0	102_neutral	0.0		302.7453957822163	
32.0	193.20447278944266	pulse	1.0	t		31.0	female	white	2.1822522881018704	neutral	102	sub-09	1.0	1.0	102_neutral	0.0		303.44537875750757	
33.0	193.27102370419016	face	0.0		146	24.0	female	east_asian	2.9076800636689217	smiling	034	sub-09	1.0	1.0	034_smiling	0.0		303.51192967225506	1.233317596545021
33.0	193.90446934827924	pulse	0.0	t		24.0	female	east_asian	2.9076800636689217	smiling	034	sub-09	1.0	1.0	034_smiling	0.0		304.14537531634414	
33.0	194.50434130073518	fix	1.0		443	24.0	female	east_asian	2.9076800636689217	smiling	034	sub-09	1.0	1.0	034_smiling	0.0		304.7452472688001	3.7666063356064114
33.0	194.60446439783118	pulse	1.0	t		24.0	female	east_asian	2.9076800636689217	smiling	034	sub-09	1.0	1.0	034_smiling	0.0		304.8453703658961	
33.0	195.30444888240527	pulse	1.0	t		24.0	female	east_asian	2.9076800636689217	smiling	034	sub-09	1.0	1.0	034_smiling	0.0		305.5453548504702	
33.0	196.00443215955238	pulse	1.0	t		24.0	female	east_asian	2.9076800636689217	smiling	034	sub-09	1.0	1.0	034_smiling	0.0		306.2453381276173	
33.0	196.70442811467547	pulse	1.0	t		24.0	female	east_asian	2.9076800636689217	smiling	034	sub-09	1.0	1.0	034_smiling	0.0		306.9453340827404	
33.0	197.40441471224585	pulse	1.0	t		24.0	female	east_asian	2.9076800636689217	smiling	034	sub-09	1.0	1.0	034_smiling	0.0		307.64532068031076	
33.0	198.1043925559752	pulse	1.0	t		24.0	female	east_asian	2.9076800636689217	smiling	034	sub-09	1.0	1.0	034_smiling	0.0		308.3452985240401	
34.0	198.2709476363416	face	0.0		146	40.0	male	black	2.408674890569041	smiling	061	sub-09	1.0	1.0	061_smiling	0.0		308.5118536044065	1.2333305763768294
34.0	198.80439847236266	pulse	0.0	t		40.0	male	black	2.408674890569041	smiling	061	sub-09	1.0	1.0	061_smiling	0.0		309.04530444042757	
34.0	199.50427821271842	fix	1.0		444	40.0	male	black	2.408674890569041	smiling	061	sub-09	1.0	1.0	061_smiling	0.0		309.7451841807833	3.7665948650574137
34.0	199.5118385115802	pulse	1.0	t		40.0	male	black	2.408674890569041	smiling	061	sub-09	1.0	1.0	061_smiling	0.0		309.7527444796451	
34.0	200.2043764972077	pulse	1.0	t		40.0	male	black	2.408674890569041	smiling	061	sub-09	1.0	1.0	061_smiling	0.0		310.4452824652726	
34.0	200.90436943376517	pulse	1.0	t		40.0	male	black	2.408674890569041	smiling	061	sub-09	1.0	1.0	061_smiling	0.0		311.1452754018301	
34.0	201.60435331462577	pulse	1.0	t		40.0	male	black	2.408674890569041	smiling	061	sub-09	1.0	1.0	061_smiling	0.0		311.8452592826907	
34.0	202.30435168459917	pulse	1.0	t		40.0	male	black	2.408674890569041	smiling	061	sub-09	1.0	1.0	061_smiling	0.0		312.5452576526641	
34.0	203.00432228377394	pulse	1.0	t		40.0	male	black	2.408674890569041	smiling	061	sub-09	1.0	1.0	061_smiling	0.0		313.24522825183885	
35.0	203.27087307777583	face	0.0		145	47.0	male	east_asian	2.171110226820533	neutral	024	sub-09	1.0	1.0	024_neutral	1.0	trustworthiness	313.51177904584074	1.2333278596688615
35.0	203.70432397417062	pulse	0.0	t		47.0	male	east_asian	2.171110226820533	neutral	024	sub-09	1.0	1.0	024_neutral	1.0	trustworthiness	313.9452299422355	
35.0	204.40431751443975	pulse	0.0	t		47.0	male	east_asian	2.171110226820533	neutral	024	sub-09	1.0	1.0	024_neutral	1.0	trustworthiness	314.64522348250466	
35.0	204.5042009374447	fix	1.0		177	47.0	male	east_asian	2.171110226820533	neutral	024	sub-09	1.0	1.0	024_neutral	1.0	trustworthiness	314.7451069055096	1.4999803793252795
35.0	205.10430803614508	pulse	1.0	t		47.0	male	east_asian	2.171110226820533	neutral	024	sub-09	1.0	1.0	024_neutral	1.0	trustworthiness	315.34521400421	
35.0	205.80428950215355	pulse	1.0	t		47.0	male	east_asian	2.171110226820533	neutral	024	sub-09	1.0	1.0	024_neutral	1.0	trustworthiness	316.04519547021846	
35.0	206.00418131676997	rating	2.0		295	47.0	male	east_asian	2.171110226820533	neutral	024	sub-09	1.0	1.0	024_neutral	1.0	trustworthiness	316.2450872848349	2.499960758650559
35.0	206.49904854819033	pulse	2.0	t		47.0	male	east_asian	2.171110226820533	neutral	024	sub-09	1.0	1.0	024_neutral	1.0	trustworthiness	316.73995451625524	
35.0	207.19905778499924	pulse	2.0	t		47.0	male	east_asian	2.171110226820533	neutral	024	sub-09	1.0	1.0	024_neutral	1.0	trustworthiness	317.43996375306415	
35.0	207.89592650638406	response	2.0	w		47.0	male	east_asian	2.171110226820533	neutral	024	sub-09	1.0	1.0	024_neutral	1.0	trustworthiness	318.13683247444897	
35.0	207.90719571653426	pulse	2.0	t		47.0	male	east_asian	2.171110226820533	neutral	024	sub-09	1.0	1.0	024_neutral	1.0	trustworthiness	318.14810168459917	
35.0	208.50414207542053	fix	3.0		443	47.0	male	east_asian	2.171110226820533	neutral	024	sub-09	1.0	1.0	024_neutral	1.0	trustworthiness	318.74504804348544	3.7665948650574137
35.0	208.60425430568102	pulse	3.0	t		47.0	male	east_asian	2.171110226820533	neutral	024	sub-09	1.0	1.0	024_neutral	1.0	trustworthiness	318.84516027374593	
35.0	209.3042372809723	pulse	3.0	t		47.0	male	east_asian	2.171110226820533	neutral	024	sub-09	1.0	1.0	024_neutral	1.0	trustworthiness	319.5451432490372	
35.0	210.00422085997707	pulse	3.0	t		47.0	male	east_asian	2.171110226820533	neutral	024	sub-09	1.0	1.0	024_neutral	1.0	trustworthiness	320.245126828042	
35.0	210.70421681509833	pulse	3.0	t		47.0	male	east_asian	2.171110226820533	neutral	024	sub-09	1.0	1.0	024_neutral	1.0	trustworthiness	320.94512278316324	
35.0	211.4041883198406	pulse	3.0	t		47.0	male	east_asian	2.171110226820533	neutral	024	sub-09	1.0	1.0	024_neutral	1.0	trustworthiness	321.6450942879055	
35.0	212.1041942362299	pulse	3.0	t		47.0	male	east_asian	2.171110226820533	neutral	024	sub-09	1.0	1.0	024_neutral	1.0	trustworthiness	322.3451002042948	
36.0	212.27073694047795	face	0.0		146	32.0	male	white	2.389176283326701	smiling	092	sub-09	1.0	1.0	092_smiling	0.0		322.51164290854285	1.2333293689498532
36.0	212.8041910969223	pulse	0.0	t		32.0	male	white	2.389176283326701	smiling	092	sub-09	1.0	1.0	092_smiling	0.0		323.0450970649872	
36.0	213.5040663094278	fix	1.0		444	32.0	male	white	2.389176283326701	smiling	092	sub-09	1.0	1.0	092_smiling	0.0		323.7449722774927	3.758263926454674
36.0	213.51157197225803	pulse	1.0	t		32.0	male	white	2.389176283326701	smiling	092	sub-09	1.0	1.0	092_smiling	0.0		323.75247794032293	
36.0	214.20416580134406	pulse	1.0	t		32.0	male	white	2.389176283326701	smiling	092	sub-09	1.0	1.0	092_smiling	0.0		324.44507176940897	
36.0	214.90414334321758	pulse	1.0	t		32.0	male	white	2.389176283326701	smiling	092	sub-09	1.0	1.0	092_smiling	0.0		325.1450493112825	
36.0	215.6041474484664	pulse	1.0	t		32.0	male	white	2.389176283326701	smiling	092	sub-09	1.0	1.0	092_smiling	0.0		325.8450534165313	
36.0	216.3041334423233	pulse	1.0	t		32.0	male	white	2.389176283326701	smiling	092	sub-09	1.0	1.0	092_smiling	0.0		326.5450394103882	
36.0	217.0041360382893	pulse	1.0	t		32.0	male	white	2.389176283326701	smiling	092	sub-09	1.0	1.0	092_smiling	0.0		327.2450420063542	
37.0	217.26233023588247	face	0.0		146	22.0	female	west_asian	3.8205332272184642	smiling	066	sub-09	1.0	1.0	066_smiling	0.0		327.5032362039474	1.2416657409721665
37.0	217.70411659872843	pulse	0.0	t		22.0	female	west_asian	3.8205332272184642	smiling	066	sub-09	1.0	1.0	066_smiling	0.0		327.94502256679334	
37.0	218.40410229072768	pulse	0.0	t		22.0	female	west_asian	3.8205332272184642	smiling	066	sub-09	1.0	1.0	066_smiling	0.0		328.6450082587926	
37.0	218.50399597685464	fix	1.0		444	22.0	female	west_asian	3.8205332272184642	smiling	066	sub-09	1.0	1.0	066_smiling	0.0		328.74490194491955	3.7665924502070993
37.0	219.10409432171582	pulse	1.0	t		22.0	female	west_asian	3.8205332272184642	smiling	066	sub-09	1.0	1.0	066_smiling	0.0		329.3450002897807	
37.0	219.80408122114204	pulse	1.0	t		22.0	female	west_asian	3.8205332272184642	smiling	066	sub-09	1.0	1.0	066_smiling	0.0		330.04498718920695	
37.0	220.5040741576995	pulse	1.0	t		22.0	female	west_asian	3.8205332272184642	smiling	066	sub-09	1.0	1.0	066_smiling	0.0		330.7449801257644	
37.0	221.20405471813683	pulse	1.0	t		22.0	female	west_asian	3.8205332272184642	smiling	066	sub-09	1.0	1.0	066_smiling	0.0		331.44496068620174	
37.0	221.90404373055935	pulse	1.0	t		22.0	female	west_asian	3.8205332272184642	smiling	066	sub-09	1.0	1.0	066_smiling	0.0		332.14494969862426	
38.0	222.27058842706174	face	0.0		145	21.0	male	east_asian/white	3.501790688420215	smiling	036	sub-09	1.0	1.0	036_smiling	0.0		332.51149439512665	1.2333266522418853
38.0	222.60404149682108	pulse	0.0	t		21.0	male	east_asian/white	3.501790688420215	smiling	036	sub-09	1.0	1.0	036_smiling	0.0		332.844947464886	
38.0	223.30402960367428	pulse	0.0	t		21.0	male	east_asian/white	3.501790688420215	smiling	036	sub-09	1.0	1.0	036_smiling	0.0		333.5449355717392	
38.0	223.50391507930362	fix	1.0		444	21.0	male	east_asian/white	3.501790688420215	smiling	036	sub-09	1.0	1.0	036_smiling	0.0		333.74482104736853	3.7665975817653816
38.0	224.00401891795264	pulse	1.0	t		21.0	male	east_asian/white	3.501790688420215	smiling	036	sub-09	1.0	1.0	036_smiling	0.0		334.24492488601754	
38.0	224.70400521366537	pulse	1.0	t		21.0	male	east_asian/white	3.501790688420215	smiling	036	sub-09	1.0	1.0	036_smiling	0.0		334.9449111817303	
38.0	225.40399181123576	pulse	1.0	t		21.0	male	east_asian/white	3.501790688420215	smiling	036	sub-09	1.0	1.0	036_smiling	0.0		335.64489777930066	
38.0	226.10397991808713	pulse	1.0	t		21.0	male	east_asian/white	3.501790688420215	smiling	036	sub-09	1.0	1.0	036_smiling	0.0		336.34488588615204	
38.0	226.80397587321022	pulse	1.0	t		21.0	male	east_asian/white	3.501790688420215	smiling	036	sub-09	1.0	1.0	036_smiling	0.0		337.0448818412751	
39.0	227.270512661069	face	0.0		145	40.0	male	white	1.868682849184242	neutral	172	sub-09	1.0	1.0	172_neutral	0.0		337.5114186291339	1.233308842707629
39.0	227.50397001719284	pulse	0.0	t		40.0	male	white	1.868682849184242	neutral	172	sub-09	1.0	1.0	172_neutral	0.0		337.74487598525775	
39.0	228.20392884396097	pulse	0.0	t		40.0	male	white	1.868682849184242	neutral	172	sub-09	1.0	1.0	172_neutral	0.0		338.4448348120259	
39.0	228.50382150377663	fix	1.0		444	40.0	male	white	1.868682849184242	neutral	172	sub-09	1.0	1.0	172_neutral	0.0		338.74472747184154	3.7499622679315507
39.0	228.90395045689002	pulse	1.0	t		40.0	male	white	1.868682849184242	neutral	172	sub-09	1.0	1.0	172_neutral	0.0		339.1448564249549	
39.0	229.60393554517577	pulse	1.0	t		40.0	male	white	1.868682849184242	neutral	172	sub-09	1.0	1.0	172_neutral	0.0		339.8448415132407	
39.0	230.3039218408885	pulse	1.0	t		40.0	male	white	1.868682849184242	neutral	172	sub-09	1.0	1.0	172_neutral	0.0		340.5448278089534	
39.0	231.00390541989327	pulse	1.0	t		40.0	male	white	1.868682849184242	neutral	172	sub-09	1.0	1.0	172_neutral	0.0		341.2448113879582	
39.0	231.70390409172433	pulse	1.0	t		40.0	male	white	1.868682849184242	neutral	172	sub-09	1.0	1.0	172_neutral	0.0		341.94481005978923	
40.0	232.25378377170819	fix	0.0		720													342.4946897397731	5.999906424473011
40.0	232.40389733013762	pulse	0.0	t														342.64480329820253	
40.0	233.10387336272834	pulse	0.0	t														343.34477933079324	
40.0	233.80386237515086	pulse	0.0	t														344.04476834321576	
40.0	234.50386074512608	pulse	0.0	t														344.744766713191	
40.0	235.2038461352695	pulse	0.0	t														345.4447521033344	
40.0	235.90382971427425	pulse	0.0	t														346.14473568233916	
40.0	236.6038283861053	pulse	0.0	t														346.8447343541702	
40.0	237.3038216245186	pulse	0.0	t														347.5447275925835	
40.0	238.00379584597067	pulse	0.0	t														348.2447018140356	
