trial_nr	onset	event_type	phase	response	nr_frames	face_age	face_sex	face_eth	attractiveness	expression	face_id	sub_id	ses	run	trial_type	catch	rating_type	onset_abs	duration
-1.0	0.05588311734209128	fix	0.0		714													25.315322315062986	5.966296201379919
-1.0	0.7057745555885049	pulse	0.0	t														25.9652137533094	
-1.0	1.4057468755863738	pulse	0.0	t														26.665186073307268	
-1.0	2.1057252326618254	pulse	0.0	t														27.36516443038272	
-1.0	2.805722908386997	pulse	0.0	t														28.06516210610789	
-1.0	3.505710622933293	pulse	0.0	t														28.765149820654187	
-1.0	4.205675094729486	pulse	0.0	t														29.46511429245038	
-1.0	4.905662809275782	pulse	0.0	t														30.165102006996676	
-1.0	5.60565173123814	pulse	0.0	t														30.865090928959034	
0.0	6.02217931872201	face	0.0		144	20.0	female	white	3.9502586549940313	neutral	091	sub-13	1.0	4.0	091_neutral	0.0		31.281618516442904	1.2333291375643967
0.0	6.305636125391175	pulse	0.0	t		20.0	female	white	3.9502586549940313	neutral	091	sub-13	1.0	4.0	091_neutral	0.0		31.56507532311207	
0.0	7.005625349207548	pulse	0.0	t		20.0	female	white	3.9502586549940313	neutral	091	sub-13	1.0	4.0	091_neutral	0.0		32.26506454692844	
0.0	7.255508456286407	fix	1.0		445	20.0	female	white	3.9502586549940313	neutral	091	sub-13	1.0	4.0	091_neutral	0.0		32.5149476540073	3.758216840368732
0.0	7.705609743361492	pulse	1.0	t		20.0	female	white	3.9502586549940313	neutral	091	sub-13	1.0	4.0	091_neutral	0.0		32.96504894108239	
0.0	8.405579648527237	pulse	1.0	t		20.0	female	white	3.9502586549940313	neutral	091	sub-13	1.0	4.0	091_neutral	0.0		33.66501884624813	
0.0	9.105567664927548	pulse	1.0	t		20.0	female	white	3.9502586549940313	neutral	091	sub-13	1.0	4.0	091_neutral	0.0		34.36500686264844	
0.0	9.805537570094202	pulse	1.0	t		20.0	female	white	3.9502586549940313	neutral	091	sub-13	1.0	4.0	091_neutral	0.0		35.0649767678151	
0.0	10.505544905144234	pulse	1.0	t		20.0	female	white	3.9502586549940313	neutral	091	sub-13	1.0	4.0	091_neutral	0.0		35.76498410286513	
1.0	11.013725296655139	face	0.0		146	27.0	female	white	3.504576203740549	smiling	144	sub-13	1.0	4.0	144_smiling	0.0		36.27316449437603	1.2416669458807519
1.0	11.205526884466963	pulse	0.0	t		27.0	female	white	3.504576203740549	smiling	144	sub-13	1.0	4.0	144_smiling	0.0		36.46496608218786	
1.0	11.905501317442031	pulse	0.0	t		27.0	female	white	3.504576203740549	smiling	144	sub-13	1.0	4.0	144_smiling	0.0		37.164940515162925	
1.0	12.25539224253589	fix	1.0		444	27.0	female	white	3.504576203740549	smiling	144	sub-13	1.0	4.0	144_smiling	0.0		37.514831440256785	3.7582277071087447
1.0	12.60545703547541	pulse	1.0	t		27.0	female	white	3.504576203740549	smiling	144	sub-13	1.0	4.0	144_smiling	0.0		37.864896233196305	
1.0	13.305469803894994	pulse	1.0	t		27.0	female	white	3.504576203740549	smiling	144	sub-13	1.0	4.0	144_smiling	0.0		38.56490900161589	
1.0	14.005456914733259	pulse	1.0	t		27.0	female	white	3.504576203740549	smiling	144	sub-13	1.0	4.0	144_smiling	0.0		39.26489611245415	
1.0	14.705438290347956	pulse	1.0	t		27.0	female	white	3.504576203740549	smiling	144	sub-13	1.0	4.0	144_smiling	0.0		39.96487748806885	
1.0	15.405425703040237	pulse	1.0	t		27.0	female	white	3.504576203740549	smiling	144	sub-13	1.0	4.0	144_smiling	0.0		40.66486490076113	
2.0	16.013619949644635	face	0.0		146	54.0	female	white	2.286908077994429	neutral	136	sub-13	1.0	4.0	136_neutral	0.0		41.27305914736553	1.2416509476252031
2.0	16.10543635848353	pulse	0.0	t		54.0	female	white	2.286908077994429	neutral	136	sub-13	1.0	4.0	136_neutral	0.0		41.364875556204424	
2.0	16.80539147280888	pulse	0.0	t		54.0	female	white	2.286908077994429	neutral	136	sub-13	1.0	4.0	136_neutral	0.0		42.06483067052977	
2.0	17.25527089726984	fix	1.0		444	54.0	female	white	2.286908077994429	neutral	136	sub-13	1.0	4.0	136_neutral	0.0		42.51471009499073	3.758202955089473
2.0	17.505378281794037	pulse	1.0	t		54.0	female	white	2.286908077994429	neutral	136	sub-13	1.0	4.0	136_neutral	0.0		42.76481747951493	
2.0	18.205365694486318	pulse	1.0	t		54.0	female	white	2.286908077994429	neutral	136	sub-13	1.0	4.0	136_neutral	0.0		43.46480489220721	
2.0	18.90533499594494	pulse	1.0	t		54.0	female	white	2.286908077994429	neutral	136	sub-13	1.0	4.0	136_neutral	0.0		44.164774193665835	
2.0	19.605314560436454	pulse	1.0	t		54.0	female	white	2.286908077994429	neutral	136	sub-13	1.0	4.0	136_neutral	0.0		44.86475375815735	
2.0	20.305322801047623	pulse	1.0	t		54.0	female	white	2.286908077994429	neutral	136	sub-13	1.0	4.0	136_neutral	0.0		45.56476199876852	
3.0	21.01347385235931	face	0.0		146	30.0	female	black	2.7345801830481498	neutral	062	sub-13	1.0	4.0	062_neutral	0.0		46.272913050080206	1.2416708699820447
3.0	21.00657226487965	pulse	0.0	t		30.0	female	black	2.7345801830481498	neutral	062	sub-13	1.0	4.0	062_neutral	0.0		46.266011462600545	
3.0	21.705265629919268	pulse	0.0	t		30.0	female	black	2.7345801830481498	neutral	062	sub-13	1.0	4.0	062_neutral	0.0		46.96470482764016	
3.0	22.255144722341356	fix	1.0		443	30.0	female	black	2.7345801830481498	neutral	062	sub-13	1.0	4.0	062_neutral	0.0		47.51458392006225	3.7582391775567885
3.0	22.405277190923698	pulse	1.0	t		30.0	female	black	2.7345801830481498	neutral	062	sub-13	1.0	4.0	062_neutral	0.0		47.66471638864459	
3.0	23.10523472008026	pulse	1.0	t		30.0	female	black	2.7345801830481498	neutral	062	sub-13	1.0	4.0	062_neutral	0.0		48.364673917801156	
3.0	23.805229377267096	pulse	1.0	t		30.0	female	black	2.7345801830481498	neutral	062	sub-13	1.0	4.0	062_neutral	0.0		49.06466857498799	
3.0	24.505218299228545	pulse	1.0	t		30.0	female	black	2.7345801830481498	neutral	062	sub-13	1.0	4.0	062_neutral	0.0		49.76465749694944	
3.0	25.205184280294816	pulse	1.0	t		30.0	female	black	2.7345801830481498	neutral	062	sub-13	1.0	4.0	062_neutral	0.0		50.46462347801571	
3.0	25.90517984304188	pulse	1.0	t		30.0	female	black	2.7345801830481498	neutral	062	sub-13	1.0	4.0	062_neutral	0.0		51.16461904076277	
4.0	26.013383899898145	face	0.0		147	40.0	female	west_asian	1.5777954635893354	neutral	038	sub-13	1.0	4.0	038_neutral	0.0		51.27282309761904	1.2416346475147293
4.0	26.605154276016947	pulse	0.0	t		40.0	female	west_asian	1.5777954635893354	neutral	038	sub-13	1.0	4.0	038_neutral	0.0		51.86459347373784	
4.0	27.255018547412874	fix	1.0		443	40.0	female	west_asian	1.5777954635893354	neutral	038	sub-13	1.0	4.0	038_neutral	0.0		52.51445774513377	3.7582434035111874
4.0	27.305134142362476	pulse	1.0	t		40.0	female	west_asian	1.5777954635893354	neutral	038	sub-13	1.0	4.0	038_neutral	0.0		52.56457334008337	
4.0	28.00515506083775	pulse	1.0	t		40.0	female	west_asian	1.5777954635893354	neutral	038	sub-13	1.0	4.0	038_neutral	0.0		53.264594258558645	
4.0	28.705118627071897	pulse	1.0	t		40.0	female	west_asian	1.5777954635893354	neutral	038	sub-13	1.0	4.0	038_neutral	0.0		53.96455782479279	
4.0	29.405083400722106	pulse	1.0	t		40.0	female	west_asian	1.5777954635893354	neutral	038	sub-13	1.0	4.0	038_neutral	0.0		54.664522598443	
4.0	30.105070209707264	pulse	1.0	t		40.0	female	west_asian	1.5777954635893354	neutral	038	sub-13	1.0	4.0	038_neutral	0.0		55.36450940742816	
4.0	30.805056414984392	pulse	1.0	t		40.0	female	west_asian	1.5777954635893354	neutral	038	sub-13	1.0	4.0	038_neutral	0.0		56.06449561270529	
5.0	31.01326195092406	face	0.0		146	19.0	male	white	2.243931555909272	smiling	130	sub-13	1.0	4.0	130_smiling	0.0		56.272701148644956	1.2416578902648325
5.0	31.50504412953069	pulse	0.0	t		19.0	male	white	2.243931555909272	smiling	130	sub-13	1.0	4.0	130_smiling	0.0		56.76448332725158	
5.0	32.205032447785015	pulse	0.0	t		19.0	male	white	2.243931555909272	smiling	130	sub-13	1.0	4.0	130_smiling	0.0		57.46447164550591	
5.0	32.254919841188894	fix	1.0		444	19.0	male	white	2.243931555909272	smiling	130	sub-13	1.0	4.0	130_smiling	0.0		57.51435903890979	3.7665531394168283
5.0	32.905005371490006	pulse	1.0	t		19.0	male	white	2.243931555909272	smiling	130	sub-13	1.0	4.0	130_smiling	0.0		58.1644445692109	
5.0	33.604999123114794	pulse	1.0	t		19.0	male	white	2.243931555909272	smiling	130	sub-13	1.0	4.0	130_smiling	0.0		58.86443832083569	
5.0	34.30498291356071	pulse	1.0	t		19.0	male	white	2.243931555909272	smiling	130	sub-13	1.0	4.0	130_smiling	0.0		59.5644221112816	
5.0	35.00495704468176	pulse	1.0	t		19.0	male	white	2.243931555909272	smiling	130	sub-13	1.0	4.0	130_smiling	0.0		60.264396242402654	
5.0	35.704930270240766	pulse	1.0	t		19.0	male	white	2.243931555909272	smiling	130	sub-13	1.0	4.0	130_smiling	0.0		60.96436946796166	
6.0	36.02147298060572	face	0.0		145	31.0	male	west_asian	1.9538400318344609	smiling	070	sub-13	1.0	4.0	070_smiling	0.0		61.280912178326616	1.2333140448690756
6.0	36.40493669972875	pulse	0.0	t		31.0	male	west_asian	1.9538400318344609	smiling	070	sub-13	1.0	4.0	070_smiling	0.0		61.664375897449645	
6.0	37.10492079202868	pulse	0.0	t		31.0	male	west_asian	1.9538400318344609	smiling	070	sub-13	1.0	4.0	070_smiling	0.0		62.36435998974957	
6.0	37.2547870254748	fix	1.0		445	31.0	male	west_asian	1.9538400318344609	smiling	070	sub-13	1.0	4.0	070_smiling	0.0		62.51422622319569	3.7665996249161253
6.0	37.804889187926165	pulse	1.0	t		31.0	male	west_asian	1.9538400318344609	smiling	070	sub-13	1.0	4.0	070_smiling	0.0		63.06432838564706	
6.0	38.50488505252724	pulse	1.0	t		31.0	male	west_asian	1.9538400318344609	smiling	070	sub-13	1.0	4.0	070_smiling	0.0		63.76432425024814	
6.0	39.20487970971317	pulse	1.0	t		31.0	male	west_asian	1.9538400318344609	smiling	070	sub-13	1.0	4.0	070_smiling	0.0		64.46431890743406	
6.0	39.904862594597944	pulse	1.0	t		31.0	male	west_asian	1.9538400318344609	smiling	070	sub-13	1.0	4.0	070_smiling	0.0		65.16430179231884	
6.0	40.60482284043974	pulse	1.0	t		31.0	male	west_asian	1.9538400318344609	smiling	070	sub-13	1.0	4.0	070_smiling	0.0		65.86426203816063	
7.0	41.02138665039092	face	0.0		145	21.0	male	east_asian/white	3.501790688420215	neutral	036	sub-13	1.0	4.0	036_neutral	1.0	trustworthiness	66.28082584811182	1.233284463187374
7.0	41.30480814015482	pulse	0.0	t		21.0	male	east_asian/white	3.501790688420215	neutral	036	sub-13	1.0	4.0	036_neutral	1.0	trustworthiness	66.56424733787571	
7.0	42.00478046015269	pulse	0.0	t		21.0	male	east_asian/white	3.501790688420215	neutral	036	sub-13	1.0	4.0	036_neutral	1.0	trustworthiness	67.26421965787358	
7.0	42.2546711135783	fix	1.0		177	21.0	male	east_asian/white	3.501790688420215	neutral	036	sub-13	1.0	4.0	036_neutral	1.0	trustworthiness	67.51411031129919	1.508328601773428
7.0	42.70478507851658	pulse	1.0	t		21.0	male	east_asian/white	3.501790688420215	neutral	036	sub-13	1.0	4.0	036_neutral	1.0	trustworthiness	67.96422427623747	
7.0	43.404760417053694	pulse	1.0	t		21.0	male	east_asian/white	3.501790688420215	neutral	036	sub-13	1.0	4.0	036_neutral	1.0	trustworthiness	68.66419961477459	
7.0	43.762999715351725	rating	2.0		293	21.0	male	east_asian/white	3.501790688420215	neutral	036	sub-13	1.0	4.0	036_neutral	1.0	trustworthiness	69.02243891307262	2.4915717864414546
7.0	44.099692682548266	pulse	2.0	t		21.0	male	east_asian/white	3.501790688420215	neutral	036	sub-13	1.0	4.0	036_neutral	1.0	trustworthiness	69.35913188026916	
7.0	44.799600103959165	pulse	2.0	t		21.0	male	east_asian/white	3.501790688420215	neutral	036	sub-13	1.0	4.0	036_neutral	1.0	trustworthiness	70.05903930168006	
7.0	44.81556636393725	response	2.0	b		21.0	male	east_asian/white	3.501790688420215	neutral	036	sub-13	1.0	4.0	036_neutral	1.0	trustworthiness	70.07500556165814	
7.0	45.50470726058302	pulse	2.0	t		21.0	male	east_asian/white	3.501790688420215	neutral	036	sub-13	1.0	4.0	036_neutral	1.0	trustworthiness	70.76414645830391	
7.0	46.20468954175885	pulse	2.0	t		21.0	male	east_asian/white	3.501790688420215	neutral	036	sub-13	1.0	4.0	036_neutral	1.0	trustworthiness	71.46412873947975	
7.0	46.25457150179318	fix	3.0		444	21.0	male	east_asian/white	3.501790688420215	neutral	036	sub-13	1.0	4.0	036_neutral	1.0	trustworthiness	71.51401069951407	3.7665664209871466
7.0	46.90467665259712	pulse	3.0	t		21.0	male	east_asian/white	3.501790688420215	neutral	036	sub-13	1.0	4.0	036_neutral	1.0	trustworthiness	72.16411585031801	
7.0	47.604674630176305	pulse	3.0	t		21.0	male	east_asian/white	3.501790688420215	neutral	036	sub-13	1.0	4.0	036_neutral	1.0	trustworthiness	72.8641138278972	
7.0	48.304640007534545	pulse	3.0	t		21.0	male	east_asian/white	3.501790688420215	neutral	036	sub-13	1.0	4.0	036_neutral	1.0	trustworthiness	73.56407920525544	
7.0	49.00462379798046	pulse	3.0	t		21.0	male	east_asian/white	3.501790688420215	neutral	036	sub-13	1.0	4.0	036_neutral	1.0	trustworthiness	74.26406299570135	
7.0	49.70461815331237	pulse	3.0	t		21.0	male	east_asian/white	3.501790688420215	neutral	036	sub-13	1.0	4.0	036_neutral	1.0	trustworthiness	74.96405735103326	
8.0	50.021137922780326	face	0.0		145	28.0	female	white	5.676880222841227	smiling	124	sub-13	1.0	4.0	124_smiling	0.0		75.28057712050122	1.2333321561036428
8.0	50.40458202140144	pulse	0.0	t		28.0	female	white	5.676880222841227	smiling	124	sub-13	1.0	4.0	124_smiling	0.0		75.66402121912233	
8.0	51.1045733581941	pulse	0.0	t		28.0	female	white	5.676880222841227	smiling	124	sub-13	1.0	4.0	124_smiling	0.0		76.364012555915	
8.0	51.25447007888397	fix	1.0		444	28.0	female	white	5.676880222841227	smiling	124	sub-13	1.0	4.0	124_smiling	0.0		76.51390927660486	3.7665649117179782
8.0	51.804559261617214	pulse	1.0	t		28.0	female	white	5.676880222841227	smiling	124	sub-13	1.0	4.0	124_smiling	0.0		77.06399845933811	
8.0	52.50454214650108	pulse	1.0	t		28.0	female	white	5.676880222841227	smiling	124	sub-13	1.0	4.0	124_smiling	0.0		77.76398134422197	
8.0	53.20452593694699	pulse	1.0	t		28.0	female	white	5.676880222841227	smiling	124	sub-13	1.0	4.0	124_smiling	0.0		78.46396513466789	
8.0	53.90450670885366	pulse	1.0	t		28.0	female	white	5.676880222841227	smiling	124	sub-13	1.0	4.0	124_smiling	0.0		79.16394590657455	
8.0	54.604535173676595	pulse	1.0	t		28.0	female	white	5.676880222841227	smiling	124	sub-13	1.0	4.0	124_smiling	0.0		79.86397437139749	
9.0	55.02103499060195	face	0.0		145	37.0	male	white	3.898925586947871	smiling	101	sub-13	1.0	4.0	101_smiling	0.0		80.28047418832284	1.2333131393079384
9.0	55.30447761013875	pulse	0.0	t		37.0	male	white	3.898925586947871	smiling	101	sub-13	1.0	4.0	101_smiling	0.0		80.56391680785964	
9.0	56.004469248785426	pulse	0.0	t		37.0	male	white	3.898925586947871	smiling	101	sub-13	1.0	4.0	101_smiling	0.0		81.26390844650632	
9.0	56.254348129909886	fix	1.0		444	37.0	male	white	3.898925586947871	smiling	101	sub-13	1.0	4.0	101_smiling	0.0		81.51378732763078	3.766571552503592
9.0	56.70444790771489	pulse	1.0	t		37.0	male	white	3.898925586947871	smiling	101	sub-13	1.0	4.0	101_smiling	0.0		81.96388710543579	
9.0	57.40442566108322	pulse	1.0	t		37.0	male	white	3.898925586947871	smiling	101	sub-13	1.0	4.0	101_smiling	0.0		82.66386485880412	
9.0	58.104435109109545	pulse	1.0	t		37.0	male	white	3.898925586947871	smiling	101	sub-13	1.0	4.0	101_smiling	0.0		83.36387430683044	
9.0	58.804394147536186	pulse	1.0	t		37.0	male	white	3.898925586947871	smiling	101	sub-13	1.0	4.0	101_smiling	0.0		84.06383334525708	
9.0	59.504385786182866	pulse	1.0	t		37.0	male	white	3.898925586947871	smiling	101	sub-13	1.0	4.0	101_smiling	0.0		84.76382498390376	
10.0	60.02091968241348	face	0.0		145	22.0	female	white	4.614007162753682	smiling	009	sub-13	1.0	4.0	009_smiling	0.0		85.28035888013437	1.2333161578471845
10.0	60.20436535067438	pulse	0.0	t		22.0	female	white	4.614007162753682	smiling	009	sub-13	1.0	4.0	009_smiling	0.0		85.46380454839527	
10.0	60.90436030971432	pulse	0.0	t		22.0	female	white	4.614007162753682	smiling	009	sub-13	1.0	4.0	009_smiling	0.0		86.16379950743521	
10.0	61.25423584026066	fix	1.0		444	22.0	female	white	4.614007162753682	smiling	009	sub-13	1.0	4.0	009_smiling	0.0		86.51367503798156	3.7582289145238974
10.0	61.604340477913865	pulse	1.0	t		22.0	female	white	4.614007162753682	smiling	009	sub-13	1.0	4.0	009_smiling	0.0		86.86377967563476	
10.0	62.30430555341809	pulse	1.0	t		22.0	female	white	4.614007162753682	smiling	009	sub-13	1.0	4.0	009_smiling	0.0		87.56374475113898	
10.0	63.004298097626815	pulse	1.0	t		22.0	female	white	4.614007162753682	smiling	009	sub-13	1.0	4.0	009_smiling	0.0		88.26373729534771	
10.0	63.70427766211742	pulse	1.0	t		22.0	female	white	4.614007162753682	smiling	009	sub-13	1.0	4.0	009_smiling	0.0		88.96371685983831	
10.0	64.40427322486539	pulse	1.0	t		22.0	female	white	4.614007162753682	smiling	009	sub-13	1.0	4.0	009_smiling	0.0		89.66371242258629	
11.0	65.01246475478456	face	0.0		146	27.0	male	black	3.5523278949462798	neutral	042	sub-13	1.0	4.0	042_neutral	0.0		90.27190395250545	1.2416367604919287
11.0	65.10424826154849	pulse	0.0	t		27.0	male	black	3.5523278949462798	neutral	042	sub-13	1.0	4.0	042_neutral	0.0		90.36368745926939	
11.0	65.80424020204919	pulse	0.0	t		27.0	male	black	3.5523278949462798	neutral	042	sub-13	1.0	4.0	042_neutral	0.0		91.06367939977008	
11.0	66.25410151527649	fix	1.0		444	27.0	male	black	3.5523278949462798	neutral	042	sub-13	1.0	4.0	042_neutral	0.0		91.51354071299738	3.766562195033657
11.0	66.50422429434911	pulse	1.0	t		27.0	male	black	3.5523278949462798	neutral	042	sub-13	1.0	4.0	042_neutral	0.0		91.76366349207001	
11.0	67.20421200889541	pulse	1.0	t		27.0	male	black	3.5523278949462798	neutral	042	sub-13	1.0	4.0	042_neutral	0.0		92.4636512066163	
11.0	67.90418976226283	pulse	1.0	t		27.0	male	black	3.5523278949462798	neutral	042	sub-13	1.0	4.0	042_neutral	0.0		93.16362895998373	
11.0	68.60416449709192	pulse	1.0	t		27.0	male	black	3.5523278949462798	neutral	042	sub-13	1.0	4.0	042_neutral	0.0		93.86360369481281	
11.0	69.3041455708526	pulse	1.0	t		27.0	male	black	3.5523278949462798	neutral	042	sub-13	1.0	4.0	042_neutral	0.0		94.56358476857349	
12.0	70.02066371031015	face	0.0		145	22.0	male	black	2.767608436132113	smiling	044	sub-13	1.0	4.0	044_smiling	1.0	attractiveness	95.28010290803104	1.2333188745315056
12.0	70.007081492402	pulse	0.0	t		22.0	male	black	2.767608436132113	smiling	044	sub-13	1.0	4.0	044_smiling	1.0	attractiveness	95.26652069012289	
12.0	70.70409866275713	pulse	0.0	t		22.0	male	black	2.767608436132113	smiling	044	sub-13	1.0	4.0	044_smiling	1.0	attractiveness	95.96353786047803	
12.0	71.25398258484165	fix	1.0		177	22.0	male	black	2.767608436132113	smiling	044	sub-13	1.0	4.0	044_smiling	1.0	attractiveness	96.51342178256255	1.4999856619397178
12.0	71.40409664033632	pulse	1.0	t		22.0	male	black	2.767608436132113	smiling	044	sub-13	1.0	4.0	044_smiling	1.0	attractiveness	96.66353583805721	
12.0	72.1040756011198	pulse	1.0	t		22.0	male	black	2.767608436132113	smiling	044	sub-13	1.0	4.0	044_smiling	1.0	attractiveness	97.3635147988407	
12.0	72.75396824678137	rating	2.0		294	22.0	male	black	2.767608436132113	smiling	044	sub-13	1.0	4.0	044_smiling	1.0	attractiveness	98.01340744450226	2.4999264985763148
12.0	72.79907518003347	pulse	2.0	t		22.0	male	black	2.767608436132113	smiling	044	sub-13	1.0	4.0	044_smiling	1.0	attractiveness	98.05851437775436	
12.0	73.49899346818347	pulse	2.0	t		22.0	male	black	2.767608436132113	smiling	044	sub-13	1.0	4.0	044_smiling	1.0	attractiveness	98.75843266590437	
12.0	73.75403857873971	response	2.0	n		22.0	male	black	2.767608436132113	smiling	044	sub-13	1.0	4.0	044_smiling	1.0	attractiveness	99.0134777764606	
12.0	74.20403542436634	pulse	2.0	t		22.0	male	black	2.767608436132113	smiling	044	sub-13	1.0	4.0	044_smiling	1.0	attractiveness	99.46347462208723	
12.0	74.90402766672105	pulse	2.0	t		22.0	male	black	2.767608436132113	smiling	044	sub-13	1.0	4.0	044_smiling	1.0	attractiveness	100.16346686444194	
12.0	75.25389474535768	fix	3.0		444	22.0	male	black	2.767608436132113	smiling	044	sub-13	1.0	4.0	044_smiling	1.0	attractiveness	100.51333394307858	3.7665588746403955
12.0	75.60403409620903	pulse	3.0	t		22.0	male	black	2.767608436132113	smiling	044	sub-13	1.0	4.0	044_smiling	1.0	attractiveness	100.86347329392993	
12.0	76.30398136233362	pulse	3.0	t		22.0	male	black	2.767608436132113	smiling	044	sub-13	1.0	4.0	044_smiling	1.0	attractiveness	101.56342056005451	
12.0	77.00396153053225	pulse	3.0	t		22.0	male	black	2.767608436132113	smiling	044	sub-13	1.0	4.0	044_smiling	1.0	attractiveness	102.26340072825315	
12.0	77.70394320800096	pulse	3.0	t		22.0	male	black	2.767608436132113	smiling	044	sub-13	1.0	4.0	044_smiling	1.0	attractiveness	102.96338240572186	
12.0	78.40395537271252	pulse	3.0	t		22.0	male	black	2.767608436132113	smiling	044	sub-13	1.0	4.0	044_smiling	1.0	attractiveness	103.66339457043341	
13.0	79.02045361999808	face	0.0		145	20.0	female	white	3.9502586549940313	smiling	091	sub-13	1.0	4.0	091_smiling	0.0		104.27989281771897	1.2333122337458917
13.0	79.10391561855522	pulse	0.0	t		20.0	female	white	3.9502586549940313	smiling	091	sub-13	1.0	4.0	091_smiling	0.0		104.36335481627611	
13.0	79.80391208686433	pulse	0.0	t		20.0	female	white	3.9502586549940313	smiling	091	sub-13	1.0	4.0	091_smiling	0.0		105.06335128458522	
13.0	80.25376585374397	fix	1.0		444	20.0	female	white	3.9502586549940313	smiling	091	sub-13	1.0	4.0	091_smiling	0.0		105.51320505146487	3.76658272109853
13.0	80.50388380315417	pulse	1.0	t		20.0	female	white	3.9502586549940313	smiling	091	sub-13	1.0	4.0	091_smiling	0.0		105.76332300087506	
13.0	81.20387815848608	pulse	1.0	t		20.0	female	white	3.9502586549940313	smiling	091	sub-13	1.0	4.0	091_smiling	0.0		106.46331735620697	
13.0	81.90385923224676	pulse	1.0	t		20.0	female	white	3.9502586549940313	smiling	091	sub-13	1.0	4.0	091_smiling	0.0		107.16329842996765	
13.0	82.60384966347829	pulse	1.0	t		20.0	female	white	3.9502586549940313	smiling	091	sub-13	1.0	4.0	091_smiling	0.0		107.86328886119918	
13.0	83.30381987049896	pulse	1.0	t		20.0	female	white	3.9502586549940313	smiling	091	sub-13	1.0	4.0	091_smiling	0.0		108.56325906821985	
14.0	84.0203485748425	face	0.0		146	21.0	male	black	2.969757262236371	neutral	137	sub-13	1.0	4.0	137_neutral	0.0		109.2797877725634	1.2333237041939356
14.0	84.00662539116547	pulse	0.0	t		21.0	male	black	2.969757262236371	neutral	137	sub-13	1.0	4.0	137_neutral	0.0		109.26606458888637	
14.0	84.70378654582873	pulse	0.0	t		21.0	male	black	2.969757262236371	neutral	137	sub-13	1.0	4.0	137_neutral	0.0		109.96322574354963	
14.0	85.25367227903644	fix	1.0		443	21.0	male	black	2.969757262236371	neutral	137	sub-13	1.0	4.0	137_neutral	0.0		110.51311147675733	3.766560987617595
14.0	85.40378180672269	pulse	1.0	t		21.0	male	black	2.969757262236371	neutral	137	sub-13	1.0	4.0	137_neutral	0.0		110.66322100444359	
14.0	86.10375141003533	pulse	1.0	t		21.0	male	black	2.969757262236371	neutral	137	sub-13	1.0	4.0	137_neutral	0.0		111.36319060775622	
14.0	86.80372705042555	pulse	1.0	t		21.0	male	black	2.969757262236371	neutral	137	sub-13	1.0	4.0	137_neutral	0.0		112.06316624814644	
14.0	87.50373589474475	pulse	1.0	t		21.0	male	black	2.969757262236371	neutral	137	sub-13	1.0	4.0	137_neutral	0.0		112.76317509246564	
14.0	88.20371093142785	pulse	1.0	t		21.0	male	black	2.969757262236371	neutral	137	sub-13	1.0	4.0	137_neutral	0.0		113.46315012914874	
14.0	88.90369653299695	pulse	1.0	t		21.0	male	black	2.969757262236371	neutral	137	sub-13	1.0	4.0	137_neutral	0.0		114.16313573071784	
15.0	89.02023326665403	face	0.0		146	19.0	male	white	2.243931555909272	neutral	130	sub-13	1.0	4.0	130_neutral	0.0		114.27967246437493	1.2333034799830784
15.0	89.60367217338717	pulse	0.0	t		19.0	male	white	2.243931555909272	neutral	130	sub-13	1.0	4.0	130_neutral	0.0		114.86311137110806	
15.0	90.25353674663711	fix	1.0		443	19.0	male	white	2.243931555909272	neutral	130	sub-13	1.0	4.0	130_neutral	0.0		115.512975944358	3.766579400705268
15.0	90.30365354900187	pulse	1.0	t		19.0	male	white	2.243931555909272	neutral	130	sub-13	1.0	4.0	130_neutral	0.0		115.56309274672276	
15.0	91.00364367837938	pulse	1.0	t		19.0	male	white	2.243931555909272	neutral	130	sub-13	1.0	4.0	130_neutral	0.0		116.26308287610027	
15.0	91.7036193187705	pulse	1.0	t		19.0	male	white	2.243931555909272	neutral	130	sub-13	1.0	4.0	130_neutral	0.0		116.9630585164914	
15.0	92.4036194093269	pulse	1.0	t		19.0	male	white	2.243931555909272	neutral	130	sub-13	1.0	4.0	130_neutral	0.0		117.66305860704779	
15.0	93.1035884089315	pulse	1.0	t		19.0	male	white	2.243931555909272	neutral	130	sub-13	1.0	4.0	130_neutral	0.0		118.3630276066524	
15.0	93.80358004757818	pulse	1.0	t		19.0	male	white	2.243931555909272	neutral	130	sub-13	1.0	4.0	130_neutral	0.0		119.06301924529907	
16.0	94.02011614734238	face	0.0		145	34.0	male	white	2.651014723438122	neutral	121	sub-13	1.0	4.0	121_neutral	0.0		119.27955534506327	1.2333197800935523
16.0	94.50356746027137	pulse	0.0	t		34.0	male	white	2.651014723438122	neutral	121	sub-13	1.0	4.0	121_neutral	0.0		119.76300665799226	
16.0	95.20354672290796	pulse	0.0	t		34.0	male	white	2.651014723438122	neutral	121	sub-13	1.0	4.0	121_neutral	0.0		120.46298592062885	
16.0	95.25343592743593	fix	1.0		445	34.0	male	white	2.651014723438122	neutral	121	sub-13	1.0	4.0	121_neutral	0.0		120.51287512515682	3.7665356318902923
16.0	95.90353504116229	pulse	1.0	t		34.0	male	white	2.651014723438122	neutral	121	sub-13	1.0	4.0	121_neutral	0.0		121.16297423888318	
16.0	96.60351339823865	pulse	1.0	t		34.0	male	white	2.651014723438122	neutral	121	sub-13	1.0	4.0	121_neutral	0.0		121.86295259595954	
16.0	97.3034857182356	pulse	1.0	t		34.0	male	white	2.651014723438122	neutral	121	sub-13	1.0	4.0	121_neutral	0.0		122.5629249159565	
16.0	98.00348007356843	pulse	1.0	t		34.0	male	white	2.651014723438122	neutral	121	sub-13	1.0	4.0	121_neutral	0.0		123.26291927128932	
16.0	98.70345812878986	pulse	1.0	t		34.0	male	white	2.651014723438122	neutral	121	sub-13	1.0	4.0	121_neutral	0.0		123.96289732651076	
17.0	99.01997155932622	face	0.0		145	25.0	female	black	3.858336649423	neutral	126	sub-13	1.0	4.0	126_neutral	0.0		124.27941075704712	1.2333321561027333
17.0	99.40345006929056	pulse	0.0	t		25.0	female	black	3.858336649423	neutral	126	sub-13	1.0	4.0	126_neutral	0.0		124.66288926701145	
17.0	100.10343084119813	pulse	0.0	t		25.0	female	black	3.858336649423	neutral	126	sub-13	1.0	4.0	126_neutral	0.0		125.36287003891903	
17.0	100.25330371542896	fix	1.0		444	25.0	female	black	3.858336649423	neutral	126	sub-13	1.0	4.0	126_neutral	0.0		125.51274291314985	3.7665618931796416
17.0	100.80340678344237	pulse	1.0	t		25.0	female	black	3.858336649423	neutral	126	sub-13	1.0	4.0	126_neutral	0.0		126.06284598116326	
17.0	101.50340898697596	pulse	1.0	t		25.0	female	black	3.858336649423	neutral	126	sub-13	1.0	4.0	126_neutral	0.0		126.76284818469685	
17.0	102.20338402365815	pulse	1.0	t		25.0	female	black	3.858336649423	neutral	126	sub-13	1.0	4.0	126_neutral	0.0		127.46282322137904	
17.0	102.90336389000367	pulse	1.0	t		25.0	female	black	3.858336649423	neutral	126	sub-13	1.0	4.0	126_neutral	0.0		128.16280308772457	
17.0	103.60334315264117	pulse	1.0	t		25.0	female	black	3.858336649423	neutral	126	sub-13	1.0	4.0	126_neutral	0.0		128.86278235036207	
18.0	104.0198656086086	face	0.0		145	32.0	male	white	2.389176283326701	neutral	092	sub-13	1.0	4.0	092_neutral	0.0		129.2793048063295	1.23332340233992
18.0	104.30332483010898	pulse	0.0	t		32.0	male	white	2.389176283326701	neutral	092	sub-13	1.0	4.0	092_neutral	0.0		129.56276402782987	
18.0	105.00328718892888	pulse	0.0	t		32.0	male	white	2.389176283326701	neutral	092	sub-13	1.0	4.0	092_neutral	0.0		130.26272638664977	
18.0	105.25318901094852	fix	1.0		444	32.0	male	white	2.389176283326701	neutral	092	sub-13	1.0	4.0	092_neutral	0.0		130.5126282086694	3.7665594783484266
18.0	105.70330418330286	pulse	1.0	t		32.0	male	white	2.389176283326701	neutral	092	sub-13	1.0	4.0	092_neutral	0.0		130.96274338102376	
18.0	106.40328555891756	pulse	1.0	t		32.0	male	white	2.389176283326701	neutral	092	sub-13	1.0	4.0	092_neutral	0.0		131.66272475663845	
18.0	107.10326482155506	pulse	1.0	t		32.0	male	white	2.389176283326701	neutral	092	sub-13	1.0	4.0	092_neutral	0.0		132.36270401927595	
18.0	107.80325796947182	pulse	1.0	t		32.0	male	white	2.389176283326701	neutral	092	sub-13	1.0	4.0	092_neutral	0.0		133.0626971671927	
18.0	108.50326077671252	pulse	1.0	t		32.0	male	white	2.389176283326701	neutral	092	sub-13	1.0	4.0	092_neutral	0.0		133.76269997443342	
19.0	109.01974848929694	face	0.0		145	27.0	male	black	3.5523278949462798	smiling	042	sub-13	1.0	4.0	042_smiling	1.0	dominance	134.27918768701784	1.2333164597002906
19.0	109.20320894839824	pulse	0.0	t		27.0	male	black	3.5523278949462798	smiling	042	sub-13	1.0	4.0	042_smiling	1.0	dominance	134.46264814611914	
19.0	109.90319847406863	pulse	0.0	t		27.0	male	black	3.5523278949462798	smiling	042	sub-13	1.0	4.0	042_smiling	1.0	dominance	135.16263767178953	
19.0	110.25306494899723	fix	1.0		177	27.0	male	black	3.5523278949462798	smiling	042	sub-13	1.0	4.0	042_smiling	1.0	dominance	135.51250414671813	1.4999841526705495
19.0	110.60317834041325	pulse	1.0	t		27.0	male	black	3.5523278949462798	smiling	042	sub-13	1.0	4.0	042_smiling	1.0	dominance	135.86261753813415	
19.0	111.30317450686925	pulse	1.0	t		27.0	male	black	3.5523278949462798	smiling	042	sub-13	1.0	4.0	042_smiling	1.0	dominance	136.56261370459015	
19.0	111.75304910166778	rating	2.0		294	27.0	male	black	3.5523278949462798	smiling	042	sub-13	1.0	4.0	042_smiling	1.0	dominance	137.01248829938868	2.499924687453131
19.0	111.99801380136432	pulse	2.0	t		27.0	male	black	3.5523278949462798	smiling	042	sub-13	1.0	4.0	042_smiling	1.0	dominance	137.25745299908522	
19.0	112.6979462766476	pulse	2.0	t		27.0	male	black	3.5523278949462798	smiling	042	sub-13	1.0	4.0	042_smiling	1.0	dominance	137.9573854743685	
19.0	112.95312450477104	response	2.0	b		27.0	male	black	3.5523278949462798	smiling	042	sub-13	1.0	4.0	042_smiling	1.0	dominance	138.21256370249193	
19.0	113.40310535214121	pulse	2.0	t		27.0	male	black	3.5523278949462798	smiling	042	sub-13	1.0	4.0	042_smiling	1.0	dominance	138.6625445498621	
19.0	114.10308702960992	pulse	2.0	t		27.0	male	black	3.5523278949462798	smiling	042	sub-13	1.0	4.0	042_smiling	1.0	dominance	139.36252622733082	
19.0	114.25297378912092	fix	3.0		444	27.0	male	black	3.5523278949462798	smiling	042	sub-13	1.0	4.0	042_smiling	1.0	dominance	139.5124129868418	3.7665697413804082
19.0	114.8030825923579	pulse	3.0	t		27.0	male	black	3.5523278949462798	smiling	042	sub-13	1.0	4.0	042_smiling	1.0	dominance	140.0625217900788	
19.0	115.50306668465782	pulse	3.0	t		27.0	male	black	3.5523278949462798	smiling	042	sub-13	1.0	4.0	042_smiling	1.0	dominance	140.76250588237872	
19.0	116.203041419486	pulse	3.0	t		27.0	male	black	3.5523278949462798	smiling	042	sub-13	1.0	4.0	042_smiling	1.0	dominance	141.4624806172069	
19.0	116.90303698223397	pulse	3.0	t		27.0	male	black	3.5523278949462798	smiling	042	sub-13	1.0	4.0	042_smiling	1.0	dominance	142.16247617995487	
19.0	117.60302379121913	pulse	3.0	t		27.0	male	black	3.5523278949462798	smiling	042	sub-13	1.0	4.0	042_smiling	1.0	dominance	142.86246298894002	
20.0	118.01954353050132	face	0.0		145	31.0	female	east_asian	3.395941106247513	neutral	087	sub-13	1.0	4.0	087_neutral	0.0		143.27898272822222	1.233326420879166
20.0	118.30299490380094	pulse	0.0	t		31.0	female	east_asian	3.395941106247513	neutral	087	sub-13	1.0	4.0	087_neutral	0.0		143.56243410152183	
20.0	119.00298080722405	pulse	0.0	t		31.0	female	east_asian	3.395941106247513	neutral	087	sub-13	1.0	4.0	087_neutral	0.0		144.26242000494494	
20.0	119.25286995138049	fix	1.0		1185	31.0	female	east_asian	3.395941106247513	neutral	087	sub-13	1.0	4.0	087_neutral	0.0		144.51230914910138	10.016415720430814
20.0	119.7029507123907	pulse	1.0	t		31.0	female	east_asian	3.395941106247513	neutral	087	sub-13	1.0	4.0	087_neutral	0.0		144.9623899101116	
20.0	120.40295140665421	pulse	1.0	t		31.0	female	east_asian	3.395941106247513	neutral	087	sub-13	1.0	4.0	087_neutral	0.0		145.6623906043751	
20.0	121.10292221738291	pulse	1.0	t		31.0	female	east_asian	3.395941106247513	neutral	087	sub-13	1.0	4.0	087_neutral	0.0		146.3623614151038	
20.0	121.80288850030229	pulse	1.0	t		31.0	female	east_asian	3.395941106247513	neutral	087	sub-13	1.0	4.0	087_neutral	0.0		147.06232769802318	
20.0	122.50292602074205	pulse	1.0	t		31.0	female	east_asian	3.395941106247513	neutral	087	sub-13	1.0	4.0	087_neutral	0.0		147.76236521846295	
20.0	123.20288717214589	pulse	1.0	t		31.0	female	east_asian	3.395941106247513	neutral	087	sub-13	1.0	4.0	087_neutral	0.0		148.4623263698668	
20.0	123.90287458483817	pulse	1.0	t		31.0	female	east_asian	3.395941106247513	neutral	087	sub-13	1.0	4.0	087_neutral	0.0		149.16231378255907	
20.0	124.60285354562166	pulse	1.0	t		31.0	female	east_asian	3.395941106247513	neutral	087	sub-13	1.0	4.0	087_neutral	0.0		149.86229274334255	
20.0	125.30287869005133	pulse	1.0	t		31.0	female	east_asian	3.395941106247513	neutral	087	sub-13	1.0	4.0	087_neutral	0.0		150.56231788777222	
20.0	126.00282142836659	pulse	1.0	t		31.0	female	east_asian	3.395941106247513	neutral	087	sub-13	1.0	4.0	087_neutral	0.0		151.26226062608748	
20.0	126.70279344651044	pulse	1.0	t		31.0	female	east_asian	3.395941106247513	neutral	087	sub-13	1.0	4.0	087_neutral	0.0		151.96223264423134	
20.0	127.40277542583317	pulse	1.0	t		31.0	female	east_asian	3.395941106247513	neutral	087	sub-13	1.0	4.0	087_neutral	0.0		152.66221462355406	
20.0	128.10277310155834	pulse	1.0	t		31.0	female	east_asian	3.395941106247513	neutral	087	sub-13	1.0	4.0	087_neutral	0.0		153.36221229927924	
20.0	128.80274693082538	pulse	1.0	t		31.0	female	east_asian	3.395941106247513	neutral	087	sub-13	1.0	4.0	087_neutral	0.0		154.06218612854627	
21.0	129.2692856718113	face	0.0		145	40.0	male	white	1.868682849184242	smiling	172	sub-13	1.0	4.0	172_smiling	0.0		154.5287248695322	1.2333206856546894
21.0	129.5027412861573	pulse	0.0	t		40.0	male	white	1.868682849184242	smiling	172	sub-13	1.0	4.0	172_smiling	0.0		154.76218048387818	
21.0	130.2027081727847	pulse	0.0	t		40.0	male	white	1.868682849184242	smiling	172	sub-13	1.0	4.0	172_smiling	0.0		155.4621473705056	
21.0	130.502606357466	fix	1.0		444	40.0	male	white	1.868682849184242	smiling	172	sub-13	1.0	4.0	172_smiling	0.0		155.7620455551869	3.766540763406738
21.0	130.90271369671154	pulse	1.0	t		40.0	male	white	1.868682849184242	smiling	172	sub-13	1.0	4.0	172_smiling	0.0		156.16215289443244	
21.0	131.60269567603336	pulse	1.0	t		40.0	male	white	1.868682849184242	smiling	172	sub-13	1.0	4.0	172_smiling	0.0		156.86213487375426	
21.0	132.30266195895365	pulse	1.0	t		40.0	male	white	1.868682849184242	smiling	172	sub-13	1.0	4.0	172_smiling	0.0		157.56210115667454	
21.0	133.00264725866873	pulse	1.0	t		40.0	male	white	1.868682849184242	smiling	172	sub-13	1.0	4.0	172_smiling	0.0		158.26208645638962	
21.0	133.7026425195627	pulse	1.0	t		40.0	male	white	1.868682849184242	smiling	172	sub-13	1.0	4.0	172_smiling	0.0		158.96208171728358	
22.0	134.26914712087273	face	0.0		145	24.0	female	east_asian	2.9076800636689217	neutral	034	sub-13	1.0	4.0	034_neutral	0.0		159.52858631859363	1.2333409098655466
22.0	134.40262993225497	pulse	0.0	t		24.0	female	east_asian	2.9076800636689217	neutral	034	sub-13	1.0	4.0	034_neutral	0.0		159.66206912997586	
22.0	135.1025995355676	pulse	0.0	t		24.0	female	east_asian	2.9076800636689217	neutral	034	sub-13	1.0	4.0	034_neutral	0.0		160.3620387332885	
22.0	135.50248803073828	fix	1.0		444	24.0	female	east_asian	2.9076800636689217	neutral	034	sub-13	1.0	4.0	034_neutral	0.0		160.76192722845917	3.766545593069168
22.0	135.80258574084473	pulse	1.0	t		24.0	female	east_asian	2.9076800636689217	neutral	034	sub-13	1.0	4.0	034_neutral	0.0		161.06202493856563	
22.0	136.5025767757843	pulse	1.0	t		24.0	female	east_asian	2.9076800636689217	neutral	034	sub-13	1.0	4.0	034_neutral	0.0		161.76201597350519	
22.0	137.2025503031973	pulse	1.0	t		24.0	female	east_asian	2.9076800636689217	neutral	034	sub-13	1.0	4.0	034_neutral	0.0		162.4619895009182	
22.0	137.9025292639808	pulse	1.0	t		24.0	female	east_asian	2.9076800636689217	neutral	034	sub-13	1.0	4.0	034_neutral	0.0		163.1619684617017	
22.0	138.6025317693684	pulse	1.0	t		24.0	female	east_asian	2.9076800636689217	neutral	034	sub-13	1.0	4.0	034_neutral	0.0		163.8619709670893	
23.0	139.26903362380745	face	0.0		145	20.0	male	black	3.1070433744528456	smiling	082	sub-13	1.0	4.0	082_smiling	0.0		164.52847282152834	1.233325515318029
23.0	139.30249261891822	pulse	0.0	t		20.0	male	black	3.1070433744528456	smiling	082	sub-13	1.0	4.0	082_smiling	0.0		164.56193181663912	
23.0	140.0024818427337	pulse	0.0	t		20.0	male	black	3.1070433744528456	smiling	082	sub-13	1.0	4.0	082_smiling	0.0		165.26192104045458	
23.0	140.50235913912547	fix	1.0		443	20.0	male	black	3.1070433744528456	smiling	082	sub-13	1.0	4.0	082_smiling	0.0		165.76179833684637	3.7665754766039754
23.0	140.70249672413047	pulse	1.0	t		20.0	male	black	3.1070433744528456	smiling	082	sub-13	1.0	4.0	082_smiling	0.0		165.96193592185136	
23.0	141.40245485699506	pulse	1.0	t		20.0	male	black	3.1070433744528456	smiling	082	sub-13	1.0	4.0	082_smiling	0.0		166.66189405471596	
23.0	142.1024452882266	pulse	1.0	t		20.0	male	black	3.1070433744528456	smiling	082	sub-13	1.0	4.0	082_smiling	0.0		167.36188448594748	
23.0	142.80242938052652	pulse	1.0	t		20.0	male	black	3.1070433744528456	smiling	082	sub-13	1.0	4.0	082_smiling	0.0		168.0618685782474	
23.0	143.50240351164757	pulse	1.0	t		20.0	male	black	3.1070433744528456	smiling	082	sub-13	1.0	4.0	082_smiling	0.0		168.76184270936847	
23.0	144.20238730209348	pulse	1.0	t		20.0	male	black	3.1070433744528456	smiling	082	sub-13	1.0	4.0	082_smiling	0.0		169.46182649981438	
24.0	144.26893461572945	face	0.0		146	31.0	female	west_asian	2.364902506963788	smiling	006	sub-13	1.0	4.0	006_smiling	0.0		169.52837381345034	1.2333249116099978
24.0	144.90237894074107	pulse	0.0	t		31.0	female	west_asian	2.364902506963788	smiling	006	sub-13	1.0	4.0	006_smiling	0.0		170.16181813846197	
24.0	145.50225952733945	fix	1.0		443	31.0	female	west_asian	2.364902506963788	smiling	006	sub-13	1.0	4.0	006_smiling	0.0		170.76169872506034	3.76655857278638
24.0	145.60236031635486	pulse	1.0	t		31.0	female	west_asian	2.364902506963788	smiling	006	sub-13	1.0	4.0	006_smiling	0.0		170.86179951407576	
24.0	146.30234712534002	pulse	1.0	t		31.0	female	west_asian	2.364902506963788	smiling	006	sub-13	1.0	4.0	006_smiling	0.0		171.56178632306091	
24.0	147.00231612494463	pulse	1.0	t		31.0	female	west_asian	2.364902506963788	smiling	006	sub-13	1.0	4.0	006_smiling	0.0		172.26175532266552	
24.0	147.70230987656942	pulse	1.0	t		31.0	female	west_asian	2.364902506963788	smiling	006	sub-13	1.0	4.0	006_smiling	0.0		172.9617490742903	
24.0	148.40229879853086	pulse	1.0	t		31.0	female	west_asian	2.364902506963788	smiling	006	sub-13	1.0	4.0	006_smiling	0.0		173.66173799625176	
24.0	149.10227594819116	pulse	1.0	t		31.0	female	west_asian	2.364902506963788	smiling	006	sub-13	1.0	4.0	006_smiling	0.0		174.36171514591206	
25.0	149.26881810012583	face	0.0		146	40.0	male	black	2.408674890569041	neutral	061	sub-13	1.0	4.0	061_neutral	0.0		174.52825729784672	1.2333188745315056
25.0	149.8022579275139	pulse	0.0	t		40.0	male	black	2.408674890569041	neutral	061	sub-13	1.0	4.0	061_neutral	0.0		175.0616971252348	
25.0	150.50213697465733	fix	1.0		444	40.0	male	black	2.408674890569041	neutral	061	sub-13	1.0	4.0	061_neutral	0.0		175.76157617237823	3.7665606857635794
25.0	150.5095514119066	pulse	1.0	t		40.0	male	black	2.408674890569041	neutral	061	sub-13	1.0	4.0	061_neutral	0.0		175.7689906096275	
25.0	151.20224090295414	pulse	1.0	t		40.0	male	black	2.408674890569041	neutral	061	sub-13	1.0	4.0	061_neutral	0.0		176.46168010067504	
25.0	151.90219662098752	pulse	1.0	t		40.0	male	black	2.408674890569041	neutral	061	sub-13	1.0	4.0	061_neutral	0.0		177.16163581870842	
25.0	152.6021967115439	pulse	1.0	t		40.0	male	black	2.408674890569041	neutral	061	sub-13	1.0	4.0	061_neutral	0.0		177.8616359092648	
25.0	153.30217295564216	pulse	1.0	t		40.0	male	black	2.408674890569041	neutral	061	sub-13	1.0	4.0	061_neutral	0.0		178.56161215336306	
25.0	154.00216821653612	pulse	1.0	t		40.0	male	black	2.408674890569041	neutral	061	sub-13	1.0	4.0	061_neutral	0.0		179.261607414257	
26.0	154.2686976604209	face	0.0		145	36.0	female	white	2.7548746518105847	smiling	011	sub-13	1.0	4.0	011_smiling	1.0	attractiveness	179.5281368581418	1.2332983484675424
26.0	154.70215442181234	pulse	0.0	t		36.0	female	white	2.7548746518105847	smiling	011	sub-13	1.0	4.0	011_smiling	1.0	attractiveness	179.96159361953323	
26.0	155.40212915664142	pulse	0.0	t		36.0	female	white	2.7548746518105847	smiling	011	sub-13	1.0	4.0	011_smiling	1.0	attractiveness	180.66156835436232	
26.0	155.50199600888845	fix	1.0		177	36.0	female	white	2.7548746518105847	smiling	011	sub-13	1.0	4.0	011_smiling	1.0	attractiveness	180.76143520660935	1.4999944157025311
26.0	156.10211687118772	pulse	1.0	t		36.0	female	white	2.7548746518105847	smiling	011	sub-13	1.0	4.0	011_smiling	1.0	attractiveness	181.3615560689086	
26.0	156.80211515062092	pulse	1.0	t		36.0	female	white	2.7548746518105847	smiling	011	sub-13	1.0	4.0	011_smiling	1.0	attractiveness	182.06155434834182	
26.0	157.00199042459099	rating	2.0		295	36.0	female	white	2.7548746518105847	smiling	011	sub-13	1.0	4.0	011_smiling	1.0	attractiveness	182.26142962231188	2.4999153299822865
26.0	157.49696682112517	pulse	2.0	t		36.0	female	white	2.7548746518105847	smiling	011	sub-13	1.0	4.0	011_smiling	1.0	attractiveness	182.75640601884606	
26.0	158.1969041260718	pulse	2.0	t		36.0	female	white	2.7548746518105847	smiling	011	sub-13	1.0	4.0	011_smiling	1.0	attractiveness	183.45634332379268	
26.0	158.2686973585678	response	2.0	w		36.0	female	white	2.7548746518105847	smiling	011	sub-13	1.0	4.0	011_smiling	1.0	attractiveness	183.5281365562887	
26.0	158.90204539218576	pulse	2.0	t		36.0	female	white	2.7548746518105847	smiling	011	sub-13	1.0	4.0	011_smiling	1.0	attractiveness	184.16148458990665	
26.0	159.50190575457327	fix	3.0		443	36.0	female	white	2.7548746518105847	smiling	011	sub-13	1.0	4.0	011_smiling	1.0	attractiveness	184.76134495229417	3.766580608120421
26.0	159.60203220117	pulse	3.0	t		36.0	female	white	2.7548746518105847	smiling	011	sub-13	1.0	4.0	011_smiling	1.0	attractiveness	184.8614713988909	
26.0	160.3020027100447	pulse	3.0	t		36.0	female	white	2.7548746518105847	smiling	011	sub-13	1.0	4.0	011_smiling	1.0	attractiveness	185.56144190776558	
26.0	161.00199133015303	pulse	3.0	t		36.0	female	white	2.7548746518105847	smiling	011	sub-13	1.0	4.0	011_smiling	1.0	attractiveness	186.26143052787393	
26.0	161.70198327065373	pulse	3.0	t		36.0	female	white	2.7548746518105847	smiling	011	sub-13	1.0	4.0	011_smiling	1.0	attractiveness	186.96142246837462	
26.0	162.40196917407684	pulse	3.0	t		36.0	female	white	2.7548746518105847	smiling	011	sub-13	1.0	4.0	011_smiling	1.0	attractiveness	187.66140837179773	
26.0	163.10196503867792	pulse	3.0	t		36.0	female	white	2.7548746518105847	smiling	011	sub-13	1.0	4.0	011_smiling	1.0	attractiveness	188.3614042363988	
27.0	163.2684863626937	face	0.0		146	40.0	male	black	2.408674890569041	smiling	061	sub-13	1.0	4.0	061_smiling	0.0		188.5279255604146	1.2333055929602779
27.0	163.80193826423783	pulse	0.0	t		40.0	male	black	2.408674890569041	smiling	061	sub-13	1.0	4.0	061_smiling	0.0		189.06137746195873	
27.0	164.50179195565397	fix	1.0		444	40.0	male	black	2.408674890569041	smiling	061	sub-13	1.0	4.0	061_smiling	0.0		189.76123115337487	3.7665691376732866
27.0	164.50930117502685	pulse	1.0	t		40.0	male	black	2.408674890569041	smiling	061	sub-13	1.0	4.0	061_smiling	0.0		189.76874037274774	
27.0	165.20188954501918	pulse	1.0	t		40.0	male	black	2.408674890569041	smiling	061	sub-13	1.0	4.0	061_smiling	0.0		190.46132874274008	
27.0	165.9018733354651	pulse	1.0	t		40.0	male	black	2.408674890569041	smiling	061	sub-13	1.0	4.0	061_smiling	0.0		191.161312533186	
27.0	166.60186587967382	pulse	1.0	t		40.0	male	black	2.408674890569041	smiling	061	sub-13	1.0	4.0	061_smiling	0.0		191.86130507739472	
27.0	167.3018448404573	pulse	1.0	t		40.0	male	black	2.408674890569041	smiling	061	sub-13	1.0	4.0	061_smiling	0.0		192.5612840381782	
27.0	168.00183104573352	pulse	1.0	t		40.0	male	black	2.408674890569041	smiling	061	sub-13	1.0	4.0	061_smiling	0.0		193.26127024345442	
28.0	168.26836109332726	face	0.0		145	22.0	female	white	4.614007162753682	neutral	009	sub-13	1.0	4.0	009_neutral	0.0		193.52780029104815	1.233328835710381
28.0	168.70183023072877	pulse	0.0	t		22.0	female	white	4.614007162753682	neutral	009	sub-13	1.0	4.0	009_neutral	0.0		193.96126942844967	
28.0	169.40179590994012	pulse	0.0	t		22.0	female	white	4.614007162753682	neutral	009	sub-13	1.0	4.0	009_neutral	0.0		194.661235107661	
28.0	169.50168992903764	fix	1.0		444	22.0	female	white	4.614007162753682	neutral	009	sub-13	1.0	4.0	009_neutral	0.0		194.76112912675853	3.7665631005947944
28.0	170.10177517257762	pulse	1.0	t		22.0	female	white	4.614007162753682	neutral	009	sub-13	1.0	4.0	009_neutral	0.0		195.3612143702985	
28.0	170.80177465942597	pulse	1.0	t		22.0	female	white	4.614007162753682	neutral	009	sub-13	1.0	4.0	009_neutral	0.0		196.06121385714687	
28.0	171.50173188672943	pulse	1.0	t		22.0	female	white	4.614007162753682	neutral	009	sub-13	1.0	4.0	009_neutral	0.0		196.76117108445032	
28.0	172.2017235253761	pulse	1.0	t		22.0	female	white	4.614007162753682	neutral	009	sub-13	1.0	4.0	009_neutral	0.0		197.461162723097	
28.0	172.90170791953005	pulse	1.0	t		22.0	female	white	4.614007162753682	neutral	009	sub-13	1.0	4.0	009_neutral	0.0		198.16114711725095	
29.0	173.26825302963243	face	0.0		145	30.0	female	black	2.7345801830481498	smiling	062	sub-13	1.0	4.0	062_smiling	1.0	dominance	198.52769222735333	1.2333200819475678
29.0	173.60169503036832	pulse	0.0	t		30.0	female	black	2.7345801830481498	smiling	062	sub-13	1.0	4.0	062_smiling	1.0	dominance	198.8611342280892	
29.0	174.30167489671385	pulse	0.0	t		30.0	female	black	2.7345801830481498	smiling	062	sub-13	1.0	4.0	062_smiling	1.0	dominance	199.56111409443474	
29.0	174.50157311158	fix	1.0		177	30.0	female	black	2.7345801830481498	smiling	062	sub-13	1.0	4.0	062_smiling	1.0	dominance	199.7610123093009	1.4999488357643713
29.0	175.00167740210054	pulse	1.0	t		30.0	female	black	2.7345801830481498	smiling	062	sub-13	1.0	4.0	062_smiling	1.0	dominance	200.26111659982143	
29.0	175.7016581740072	pulse	1.0	t		30.0	female	black	2.7345801830481498	smiling	062	sub-13	1.0	4.0	062_smiling	1.0	dominance	200.9610973717281	
29.0	176.00152194734437	rating	2.0		295	30.0	female	black	2.7345801830481498	smiling	062	sub-13	1.0	4.0	062_smiling	1.0	dominance	201.26096114506527	2.499943704247926
29.0	176.3964600386198	pulse	2.0	t		30.0	female	black	2.7345801830481498	smiling	062	sub-13	1.0	4.0	062_smiling	1.0	dominance	201.6558992363407	
29.0	176.90994913460054	response	2.0	d		30.0	female	black	2.7345801830481498	smiling	062	sub-13	1.0	4.0	062_smiling	1.0	dominance	202.16938833232143	
29.0	177.09642179373077	pulse	2.0	t		30.0	female	black	2.7345801830481498	smiling	062	sub-13	1.0	4.0	062_smiling	1.0	dominance	202.35586099145166	
29.0	177.80158811371803	pulse	2.0	t		30.0	female	black	2.7345801830481498	smiling	062	sub-13	1.0	4.0	062_smiling	1.0	dominance	203.06102731143892	
29.0	178.5014656515923	fix	3.0		443	30.0	female	black	2.7345801830481498	smiling	062	sub-13	1.0	4.0	062_smiling	1.0	dominance	203.7609048493132	3.7665751747508693
29.0	178.50942191658578	pulse	3.0	t		30.0	female	black	2.7345801830481498	smiling	062	sub-13	1.0	4.0	062_smiling	1.0	dominance	203.76886111430667	
29.0	179.2015611279803	pulse	3.0	t		30.0	female	black	2.7345801830481498	smiling	062	sub-13	1.0	4.0	062_smiling	1.0	dominance	204.4610003257012	
29.0	179.9015382776397	pulse	3.0	t		30.0	female	black	2.7345801830481498	smiling	062	sub-13	1.0	4.0	062_smiling	1.0	dominance	205.1609774753606	
29.0	180.60152659589403	pulse	3.0	t		30.0	female	black	2.7345801830481498	smiling	062	sub-13	1.0	4.0	062_smiling	1.0	dominance	205.86096579361492	
29.0	181.301511593756	pulse	3.0	t		30.0	female	black	2.7345801830481498	smiling	062	sub-13	1.0	4.0	062_smiling	1.0	dominance	206.5609507914769	
29.0	182.00149206380866	pulse	3.0	t		30.0	female	black	2.7345801830481498	smiling	062	sub-13	1.0	4.0	062_smiling	1.0	dominance	207.26093126152955	
30.0	182.26804082634317	face	0.0		145	19.0	male	white	3.2522881018702745	neutral	018	sub-13	1.0	4.0	018_neutral	0.0		207.52748002406406	1.2333025744219412
30.0	182.7014891358258	pulse	0.0	t		19.0	male	white	3.2522881018702745	neutral	018	sub-13	1.0	4.0	018_neutral	0.0		207.9609283335467	
30.0	183.40146930402443	pulse	0.0	t		19.0	male	white	3.2522881018702745	neutral	018	sub-13	1.0	4.0	018_neutral	0.0		208.66090850174533	
30.0	183.5013434007651	fix	1.0		444	19.0	male	white	3.2522881018702745	neutral	018	sub-13	1.0	4.0	018_neutral	0.0		208.760782598486	3.7665784951432215
30.0	184.1014476611008	pulse	1.0	t		19.0	male	white	3.2522881018702745	neutral	018	sub-13	1.0	4.0	018_neutral	0.0		209.3608868588217	
30.0	184.80143718677027	pulse	1.0	t		19.0	male	white	3.2522881018702745	neutral	018	sub-13	1.0	4.0	018_neutral	0.0		210.06087638449117	
30.0	185.50141795867694	pulse	1.0	t		19.0	male	white	3.2522881018702745	neutral	018	sub-13	1.0	4.0	018_neutral	0.0		210.76085715639783	
30.0	186.20138484530435	pulse	1.0	t		19.0	male	white	3.2522881018702745	neutral	018	sub-13	1.0	4.0	018_neutral	0.0		211.46082404302524	
30.0	186.90137618209792	pulse	1.0	t		19.0	male	white	3.2522881018702745	neutral	018	sub-13	1.0	4.0	018_neutral	0.0		212.1608153798188	
31.0	187.26792189590833	face	0.0		145	24.0	female	east_asian	2.9076800636689217	smiling	034	sub-13	1.0	4.0	034_smiling	0.0		212.52736109362922	1.2333107244767234
31.0	187.6013762726543	pulse	0.0	t		24.0	female	east_asian	2.9076800636689217	smiling	034	sub-13	1.0	4.0	034_smiling	0.0		212.8608154703752	
31.0	188.30134859265218	pulse	0.0	t		24.0	female	east_asian	2.9076800636689217	smiling	034	sub-13	1.0	4.0	034_smiling	0.0		213.56078779037307	
31.0	188.50123262038505	fix	1.0		444	24.0	female	east_asian	2.9076800636689217	smiling	034	sub-13	1.0	4.0	034_smiling	0.0		213.76067181810595	3.7583614283848874
31.0	189.00133419422127	pulse	1.0	t		24.0	female	east_asian	2.9076800636689217	smiling	034	sub-13	1.0	4.0	034_smiling	0.0		214.26077339194217	
31.0	189.7013122494427	pulse	1.0	t		24.0	female	east_asian	2.9076800636689217	smiling	034	sub-13	1.0	4.0	034_smiling	0.0		214.9607514471636	
31.0	190.401289097249	pulse	1.0	t		24.0	female	east_asian	2.9076800636689217	smiling	034	sub-13	1.0	4.0	034_smiling	0.0		215.66072829496989	
31.0	191.10127983033453	pulse	1.0	t		24.0	female	east_asian	2.9076800636689217	smiling	034	sub-13	1.0	4.0	034_smiling	0.0		216.36071902805543	
31.0	191.8012732801044	pulse	1.0	t		24.0	female	east_asian	2.9076800636689217	smiling	034	sub-13	1.0	4.0	034_smiling	0.0		217.0607124778253	
32.0	192.25959404876994	face	0.0		146	26.0	male	white	2.7966573816155993	neutral	117	sub-13	1.0	4.0	117_neutral	0.0		217.51903324649084	1.2415308097743036
32.0	192.5012612965047	pulse	0.0	t		26.0	male	white	2.7966573816155993	neutral	117	sub-13	1.0	4.0	117_neutral	0.0		217.7607004942256	
32.0	193.20124569065865	pulse	0.0	t		26.0	male	white	2.7966573816155993	neutral	117	sub-13	1.0	4.0	117_neutral	0.0		218.46068488837955	
32.0	193.50112485854424	fix	1.0		444	26.0	male	white	2.7966573816155993	neutral	117	sub-13	1.0	4.0	117_neutral	0.0		218.76056405626514	3.766562798740779
32.0	193.9012240477341	pulse	1.0	t		26.0	male	white	2.7966573816155993	neutral	117	sub-13	1.0	4.0	117_neutral	0.0		219.160663245455	
32.0	194.60120723447199	pulse	1.0	t		26.0	male	white	2.7966573816155993	neutral	117	sub-13	1.0	4.0	117_neutral	0.0		219.86064643219288	
32.0	195.30118347857024	pulse	1.0	t		26.0	male	white	2.7966573816155993	neutral	117	sub-13	1.0	4.0	117_neutral	0.0		220.56062267629113	
32.0	196.00116545789297	pulse	1.0	t		26.0	male	white	2.7966573816155993	neutral	117	sub-13	1.0	4.0	117_neutral	0.0		221.26060465561386	
32.0	196.70114592794562	pulse	1.0	t		26.0	male	white	2.7966573816155993	neutral	117	sub-13	1.0	4.0	117_neutral	0.0		221.9605851256665	
33.0	197.26768765728502	face	0.0		145	24.0	male	white	3.1153999204138483	smiling	012	sub-13	1.0	4.0	012_smiling	0.0		222.52712685500592	1.2333200819475678
33.0	197.40113877400836	pulse	0.0	t		24.0	male	white	3.1153999204138483	smiling	012	sub-13	1.0	4.0	012_smiling	0.0		222.66057797172925	
33.0	198.10112377187033	pulse	0.0	t		24.0	male	white	3.1153999204138483	smiling	012	sub-13	1.0	4.0	012_smiling	0.0		223.36056296959123	
33.0	198.5010077392326	fix	1.0		444	24.0	male	white	3.1153999204138483	smiling	012	sub-13	1.0	4.0	012_smiling	0.0		223.76044693695349	3.7583396949039525
33.0	198.80111178827065	pulse	1.0	t		24.0	male	white	3.1153999204138483	smiling	012	sub-13	1.0	4.0	012_smiling	0.0		224.06055098599154	
33.0	199.5010925601773	pulse	1.0	t		24.0	male	white	3.1153999204138483	smiling	012	sub-13	1.0	4.0	012_smiling	0.0		224.7605317578982	
33.0	200.20106699315238	pulse	1.0	t		24.0	male	white	3.1153999204138483	smiling	012	sub-13	1.0	4.0	012_smiling	0.0		225.46050619087328	
33.0	200.90106285775346	pulse	1.0	t		24.0	male	white	3.1153999204138483	smiling	012	sub-13	1.0	4.0	012_smiling	0.0		226.16050205547435	
33.0	201.60104634634536	pulse	1.0	t		24.0	male	white	3.1153999204138483	smiling	012	sub-13	1.0	4.0	012_smiling	0.0		226.86048554406625	
34.0	202.25934743413654	face	0.0		146	28.0	male	east_asian	1.5563072025467568	neutral	005	sub-13	1.0	4.0	005_neutral	0.0		227.51878663185744	1.2415123966866304
34.0	202.3010219867365	pulse	0.0	t		28.0	male	east_asian	1.5563072025467568	neutral	005	sub-13	1.0	4.0	005_neutral	0.0		227.56046118445738	
34.0	203.00101936060764	pulse	0.0	t		28.0	male	east_asian	1.5563072025467568	neutral	005	sub-13	1.0	4.0	005_neutral	0.0		228.26045855832854	
34.0	203.50085983082317	fix	1.0		443	28.0	male	east_asian	1.5563072025467568	neutral	005	sub-13	1.0	4.0	005_neutral	0.0		228.76029902854407	3.7665896637381593
34.0	203.70099077504346	pulse	1.0	t		28.0	male	east_asian	1.5563072025467568	neutral	005	sub-13	1.0	4.0	005_neutral	0.0		228.96042997276436	
34.0	204.40096701914172	pulse	1.0	t		28.0	male	east_asian	1.5563072025467568	neutral	005	sub-13	1.0	4.0	005_neutral	0.0		229.6604062168626	
34.0	205.1009565448112	pulse	1.0	t		28.0	male	east_asian	1.5563072025467568	neutral	005	sub-13	1.0	4.0	005_neutral	0.0		230.3603957425321	
34.0	205.80093731671877	pulse	1.0	t		28.0	male	east_asian	1.5563072025467568	neutral	005	sub-13	1.0	4.0	005_neutral	0.0		231.06037651443967	
34.0	206.5009195978946	pulse	1.0	t		28.0	male	east_asian	1.5563072025467568	neutral	005	sub-13	1.0	4.0	005_neutral	0.0		231.7603587956155	
34.0	207.20090821800295	pulse	1.0	t		28.0	male	east_asian	1.5563072025467568	neutral	005	sub-13	1.0	4.0	005_neutral	0.0		232.46034741572385	
35.0	207.26744949456133	face	0.0		146	28.0	male	east_asian	1.5563072025467568	smiling	005	sub-13	1.0	4.0	005_smiling	0.0		232.52688869228223	1.2333384950343316
35.0	207.90089351771803	pulse	0.0	t		28.0	male	east_asian	1.5563072025467568	smiling	005	sub-13	1.0	4.0	005_smiling	0.0		233.16033271543893	
35.0	208.50078798959566	fix	1.0		443	28.0	male	east_asian	1.5563072025467568	smiling	005	sub-13	1.0	4.0	005_smiling	0.0		233.76022718731656	3.7665087668938213
35.0	208.60088576007274	pulse	1.0	t		28.0	male	east_asian	1.5563072025467568	smiling	005	sub-13	1.0	4.0	005_smiling	0.0		233.86032495779364	
35.0	209.30085445782424	pulse	1.0	t		28.0	male	east_asian	1.5563072025467568	smiling	005	sub-13	1.0	4.0	005_smiling	0.0		234.56029365554514	
35.0	210.00083221119166	pulse	1.0	t		28.0	male	east_asian	1.5563072025467568	smiling	005	sub-13	1.0	4.0	005_smiling	0.0		235.26027140891256	
35.0	210.7008289813548	pulse	1.0	t		28.0	male	east_asian	1.5563072025467568	smiling	005	sub-13	1.0	4.0	005_smiling	0.0		235.96026817907568	
35.0	211.40081790331715	pulse	1.0	t		28.0	male	east_asian	1.5563072025467568	smiling	005	sub-13	1.0	4.0	005_smiling	0.0		236.66025710103804	
35.0	212.10078931775297	pulse	1.0	t		28.0	male	east_asian	1.5563072025467568	smiling	005	sub-13	1.0	4.0	005_smiling	0.0		237.36022851547386	
36.0	212.2672967564895	face	0.0		146	19.0	female	white	4.298846000795861	neutral	100	sub-13	1.0	4.0	100_neutral	0.0		237.52673595421038	1.2333463432360077
36.0	212.80077099522168	pulse	0.0	t		19.0	female	white	4.298846000795861	neutral	100	sub-13	1.0	4.0	100_neutral	0.0		238.06021019294258	
36.0	213.5006430997255	fix	1.0		444	19.0	female	white	4.298846000795861	neutral	100	sub-13	1.0	4.0	100_neutral	0.0		238.7600822974464	3.758365956193302
36.0	213.50819367308213	pulse	1.0	t		19.0	female	white	4.298846000795861	neutral	100	sub-13	1.0	4.0	100_neutral	0.0		238.76763287080303	
36.0	214.20073767055146	pulse	1.0	t		19.0	female	white	4.298846000795861	neutral	100	sub-13	1.0	4.0	100_neutral	0.0		239.46017686827236	
36.0	214.90073142217625	pulse	1.0	t		19.0	female	white	4.298846000795861	neutral	100	sub-13	1.0	4.0	100_neutral	0.0		240.16017061989714	
36.0	215.60070645885844	pulse	1.0	t		19.0	female	white	4.298846000795861	neutral	100	sub-13	1.0	4.0	100_neutral	0.0		240.86014565657933	
36.0	216.30068874003518	pulse	1.0	t		19.0	female	white	4.298846000795861	neutral	100	sub-13	1.0	4.0	100_neutral	0.0		241.56012793775608	
36.0	217.00067102121102	pulse	1.0	t		19.0	female	white	4.298846000795861	neutral	100	sub-13	1.0	4.0	100_neutral	0.0		242.2601102189319	
37.0	217.2590090559188	face	0.0		146	27.0	female	white	4.181058495821727	smiling	039	sub-13	1.0	4.0	039_smiling	0.0		242.5184482536397	1.2415286967971042
37.0	217.70065511351095	pulse	0.0	t		27.0	female	white	4.181058495821727	smiling	039	sub-13	1.0	4.0	039_smiling	0.0		242.96009431123184	
37.0	218.4006461484505	pulse	0.0	t		27.0	female	white	4.181058495821727	smiling	039	sub-13	1.0	4.0	039_smiling	0.0		243.6600853461714	
37.0	218.5005377527159	fix	1.0		444	27.0	female	white	4.181058495821727	smiling	039	sub-13	1.0	4.0	039_smiling	0.0		243.7599769504368	3.7665452912151522
37.0	219.10064050378242	pulse	1.0	t		27.0	female	white	4.181058495821727	smiling	039	sub-13	1.0	4.0	039_smiling	0.0		244.3600797015033	
37.0	219.80061795529673	pulse	1.0	t		27.0	female	white	4.181058495821727	smiling	039	sub-13	1.0	4.0	039_smiling	0.0		245.06005715301762	
37.0	220.50058695490134	pulse	1.0	t		27.0	female	white	4.181058495821727	smiling	039	sub-13	1.0	4.0	039_smiling	0.0		245.76002615262223	
37.0	221.20057285832445	pulse	1.0	t		27.0	female	white	4.181058495821727	smiling	039	sub-13	1.0	4.0	039_smiling	0.0		246.46001205604534	
37.0	221.90056359141	pulse	1.0	t		27.0	female	white	4.181058495821727	smiling	039	sub-13	1.0	4.0	039_smiling	0.0		247.16000278913089	
38.0	222.26708304393105	face	0.0		145	27.0	female	white	3.504576203740549	neutral	144	sub-13	1.0	4.0	144_neutral	0.0		247.52652224165195	1.2333375894731944
38.0	222.60055009854023	pulse	0.0	t		27.0	female	white	3.504576203740549	neutral	144	sub-13	1.0	4.0	144_neutral	0.0		247.85998929626112	
38.0	223.30052755005454	pulse	0.0	t		27.0	female	white	3.504576203740549	neutral	144	sub-13	1.0	4.0	144_neutral	0.0		248.55996674777543	
38.0	223.50042063340425	fix	1.0		444	27.0	female	white	3.504576203740549	neutral	144	sub-13	1.0	4.0	144_neutral	0.0		248.75985983112514	3.7665627987416883
38.0	224.0005083219612	pulse	1.0	t		27.0	female	white	3.504576203740549	neutral	144	sub-13	1.0	4.0	144_neutral	0.0		249.2599475196821	
38.0	224.70046253072542	pulse	1.0	t		27.0	female	white	3.504576203740549	neutral	144	sub-13	1.0	4.0	144_neutral	0.0		249.9599017284463	
38.0	225.400475299145	pulse	1.0	t		27.0	female	white	3.504576203740549	neutral	144	sub-13	1.0	4.0	144_neutral	0.0		250.6599144968659	
38.0	226.100471465601	pulse	1.0	t		27.0	female	white	3.504576203740549	neutral	144	sub-13	1.0	4.0	144_neutral	0.0		251.3599106633219	
38.0	226.80046008570844	pulse	1.0	t		27.0	female	white	3.504576203740549	neutral	144	sub-13	1.0	4.0	144_neutral	0.0		252.05989928342933	
39.0	227.26698343214593	face	0.0		145	25.0	female	west_asian	2.6756864305610826	smiling	064	sub-13	1.0	4.0	064_smiling	0.0		252.52642262986683	1.2332926132421562
39.0	227.50043059458312	pulse	0.0	t		25.0	female	west_asian	2.6756864305610826	smiling	064	sub-13	1.0	4.0	064_smiling	0.0		252.75986979230402	
39.0	228.20042585547708	pulse	0.0	t		25.0	female	west_asian	2.6756864305610826	smiling	064	sub-13	1.0	4.0	064_smiling	0.0		253.45986505319797	
39.0	228.5002760453881	fix	1.0		444	25.0	female	west_asian	2.6756864305610826	smiling	064	sub-13	1.0	4.0	064_smiling	0.0		253.75971524310899	3.749936686145702
39.0	228.90048239271164	pulse	1.0	t		25.0	female	west_asian	2.6756864305610826	smiling	064	sub-13	1.0	4.0	064_smiling	0.0		254.15992159043253	
39.0	229.6003895122676	pulse	1.0	t		25.0	female	west_asian	2.6756864305610826	smiling	064	sub-13	1.0	4.0	064_smiling	0.0		254.8598287099885	
39.0	230.30035851187222	pulse	1.0	t		25.0	female	west_asian	2.6756864305610826	smiling	064	sub-13	1.0	4.0	064_smiling	0.0		255.5597977095931	
39.0	231.00035135793496	pulse	1.0	t		25.0	female	west_asian	2.6756864305610826	smiling	064	sub-13	1.0	4.0	064_smiling	0.0		256.25979055565585	
39.0	231.70032820574124	pulse	1.0	t		25.0	female	west_asian	2.6756864305610826	smiling	064	sub-13	1.0	4.0	064_smiling	0.0		256.95976740346214	
40.0	232.2502127315338	fix	0.0		720													257.5096519292547	5.999858128668166
40.0	232.40031169433314	pulse	0.0	t														257.65975089205403	
40.0	233.10030574781194	pulse	0.0	t														258.35974494553284	
40.0	233.80029104752703	pulse	0.0	t														259.0597302452479	
40.0	234.50025008595276	pulse	0.0	t														259.75968928367365	
40.0	235.20025379875642	pulse	0.0	t														260.4596929964773	
40.0	235.90023607993226	pulse	0.0	t														261.15967527765315	
40.0	236.60022379447855	pulse	0.0	t														261.85966299219945	
40.0	237.3001936996452	pulse	0.0	t														262.5596328973661	
40.0	238.00018262160756	pulse	0.0	t														263.25962181932846	
