trial_nr	onset	event_type	phase	response	nr_frames	trial_type	stim_name	task_probe	onset_abs	duration
0.0	0.05986010194874325	baseline	0.0		40.0		baseline	0.0	97.58528103220169	0.3413779894658546
0.0	0.4012380914145979	ISI	1.0		11.0		baseline	0.0	97.92665902166755	0.09999936610302029
1.0	0.5012374575176182	baseline	0.0		48.0		baseline	0.0	98.02665838777057	0.3999941439988106
1.0	0.701345763349309	pulse	0.0	t			baseline	0.0	98.22676669360226	
1.0	0.9012316015164288	ISI	1.0		11.0		baseline	0.0	98.42665253176938	0.09999725311308794
2.0	1.0012288546295167	baseline	0.0		48.0		baseline	0.0	98.52664978488247	0.3999666751287805
2.0	1.4011955297582972	ISI	1.0		11.0		baseline	0.0	98.92661646001125	0.10000751620736992
2.0	1.4057360434744623	pulse	1.0	t			baseline	0.0	98.93115697372741	
3.0	1.5012030459656671	baseline	0.0		48.0		baseline	0.0	99.02662397621862	0.39999263472054736
3.0	1.9011956806862145	ISI	1.0		11.0		baseline	0.0	99.42661661093916	0.09999574383436993
4.0	2.0011914245205844	baseline	0.0		48.0		baseline	0.0	99.52661235477353	0.3999938421434308
4.0	2.101301269816304	pulse	0.0	t			baseline	0.0	99.62672220006925	
4.0	2.401185266664015	ISI	1.0		11.0		baseline	0.0	99.92660619691696	0.0999996679584001
5.0	2.5011849346224153	baseline	0.0		48.0		baseline	0.0	100.02660586487536	0.3999953514221488
5.0	2.8012886824330963	pulse	0.0	t			baseline	0.0	100.32670961268605	
5.0	2.901180286044564	ISI	1.0		11.0		baseline	0.0	100.42660121629751	0.09999876239135119
6.0	3.0011790484359153	baseline	0.0		48.0		baseline	0.0	100.52659997868886	0.399989012451897
6.0	3.4011680608878123	ISI	1.0		11.0		baseline	0.0	100.92658899114076	0.09999634754603903
7.0	3.5011644084338513	baseline	0.0		47.0		baseline	0.0	101.0265853386868	0.399987503173179
7.0	3.5053001336314082	pulse	0.0	t			baseline	0.0	101.03072106388436	
7.0	3.9011519116070303	ISI	1.0		11.0		baseline	0.0	101.42657284185998	0.09999423455565193
8.0	4.001146146162682	baseline	0.0		48.0		baseline	0.0	101.52656707641563	0.39999414399926536
8.0	4.201252640860275	pulse	0.0	t			baseline	0.0	101.72667357111322	
8.0	4.401140290161948	ISI	1.0		11.0		baseline	0.0	101.9265612204149	0.09999664940141884
9.0	4.5011369395633665	baseline	0.0		48.0		baseline	0.0	102.02655786981632	0.3999983699791301
9.0	4.9011353095424965	ISI	1.0		11.0		baseline	0.0	102.42655623979545	0.09999212156571957
9.0	4.9056242059309625	pulse	1.0	t			baseline	0.0	102.43104513618391	
10.0	5.001127431108216	baseline	0.0		48.0		baseline	0.0	102.52654836136117	0.3999971625562466
10.0	5.401124593664463	ISI	1.0		11.0		baseline	0.0	102.92654552391741	0.09998306589432104
11.0	5.501107659558784	baseline	0.0		48.0		baseline	0.0	103.02652858981173	0.4000167831777617
11.0	5.601242860735056	pulse	0.0	t			baseline	0.0	103.126663790988	
11.0	5.9011244427365455	ISI	1.0		2.0		baseline	0.0	103.4265453729895	0.12499603814376314
12.0	6.026120480880309	word	0.0		45.0	character	word-105.jpg	0.0	103.55154141113326	0.374945552774534
12.0	6.301195559943608	pulse	0.0	t		character	word-105.jpg	0.0	103.82661649019656	
12.0	6.401066033654843	ISI	1.0		5.0	character	word-105.jpg	0.0	103.92648696390779	0.11668685578342775
13.0	6.51775288943827	word	0.0		46.0	character	word-114.jpg	0.0	104.04317381969122	0.3833024283389932
13.0	6.9010553177772636	ISI	1.0		6.0	character	word-114.jpg	0.0	104.42647624803021	0.11667900753445792
14.0	7.0177343253117215	word	0.0		45.0	character	word-144.jpg	0.0	104.54315525556467	0.3833163137014708
14.0	7.009389825832386	pulse	0.0	t		character	word-144.jpg	0.0	104.53481075608534	
14.0	7.401050639013192	ISI	1.0		7.0	character	word-144.jpg	0.0	104.92647156926614	0.11668564836054429
15.0	7.517736287373737	word	0.0		46.0	character	word-116.jpg	0.0	105.04315721762669	0.383290957821373
15.0	7.701153481256824	pulse	0.0	t		character	word-116.jpg	0.0	105.22657441150977	
15.0	7.90102724519511	ISI	1.0		4.0	character	word-116.jpg	0.0	105.42644817544806	0.11669530774361192
16.0	8.017722552938721	word	0.0		46.0	character	word-104.jpg	0.0	105.54314348319167	0.3833066543188579
16.0	8.40102920725758	ISI	1.0		7.0	character	word-104.jpg	0.0	105.92645013751053	0.1166892706287399
16.0	8.437078326427127	pulse	1.0	t		character	word-104.jpg	0.0	105.96249925668008	
17.0	8.51771847788632	word	0.0		46.0	character	word-10.jpg	0.0	106.04313940813927	0.38330152277148954
17.0	8.901020000657809	ISI	1.0		7.0	character	word-10.jpg	0.0	106.42644093091076	0.1166886669179803
18.0	9.01770866757579	word	0.0		46.0	character	word-6.jpg	0.0	106.54312959782874	0.383302730194373
18.0	9.101129513912838	pulse	0.0	t		character	word-6.jpg	0.0	106.62655044416579	
18.0	9.401011397770162	ISI	1.0		7.0	character	word-6.jpg	0.0	106.92643232802311	0.116688365061691
19.0	9.517699762831853	word	0.0		46.0	character	word-110.jpg	0.0	107.0431206930848	0.383302730194373
19.0	9.801112398693476	pulse	0.0	t		character	word-110.jpg	0.0	107.32653332894643	
19.0	9.901002493026226	ISI	1.0		8.0	character	word-110.jpg	0.0	107.42642342327918	0.11668685578342775
20.0	10.017689348809654	word	0.0		46.0	character	word-110.jpg	1.0	107.5431102790626	0.3833036357614219
20.0	10.400992984571076	ISI	1.0		7.0	character	word-110.jpg	1.0	107.92641391482402	0.11668202609189393
21.0	10.51767501066297	word	0.0		45.0	character	word-69.jpg	0.0	108.04309594091592	0.383312993288655
21.0	10.509359791188217	pulse	0.0	t		character	word-69.jpg	0.0	108.03478072144117	
21.0	10.6427748871738	response	0.0	b		character	word-69.jpg	0.0	108.16819581742675	
21.0	10.900988003951625	ISI	1.0		6.0	character	word-69.jpg	0.0	108.42640893420457	0.11668142238067958
22.0	11.017669426332304	word	0.0		46.0	character	word-76.jpg	0.0	108.54309035658525	0.3833090691646248
22.0	11.201104731558189	pulse	0.0	t		character	word-76.jpg	0.0	108.72652566181114	
22.0	11.400978495496929	ISI	1.0		7.0	character	word-76.jpg	0.0	108.92639942574988	0.11669711887770973
23.0	11.517675614374639	word	0.0		46.0	character	word-51.jpg	0.0	109.04309654462759	0.38329156153258737
23.0	11.900967175907226	ISI	1.0		3.0	character	word-51.jpg	0.0	109.42638810616018	0.11668625207175864
23.0	11.971263637463835	pulse	1.0	t		character	word-51.jpg	0.0	109.49668456771678	
24.0	12.017653427978985	adult	0.0		46.0	face	adult-51.jpg	0.0	109.54307435823193	0.3833389528808766
24.0	12.400992380859861	ISI	1.0		0.0	face	adult-51.jpg	0.0	109.92641331111281	0.14168956493813312
25.0	12.542681945797995	adult	0.0		43.0	face	adult-13.jpg	0.0	110.06810287605094	0.35829156907948345
25.0	12.601111855352883	pulse	0.0	t		face	adult-13.jpg	0.0	110.12653278560583	
25.0	12.900973514877478	ISI	1.0		4.0	face	adult-13.jpg	0.0	110.42639444513043	0.11669772258892408
26.0	13.017671237466402	adult	0.0		46.0	face	adult-21.jpg	0.0	110.54309216771935	0.3832692242099256
26.0	13.301051876621841	pulse	0.0	t		face	adult-21.jpg	0.0	110.82647280687479	
26.0	13.400940461676328	ISI	1.0		7.0	face	adult-21.jpg	0.0	110.92636139192928	0.11669047805162336
27.0	13.517630939727951	adult	0.0		46.0	face	adult-65.jpg	0.0	111.0430518699809	0.38330212648315864
27.0	13.90093306621111	ISI	1.0		7.0	face	adult-65.jpg	0.0	111.42635399646406	0.11667900753445792
28.0	14.017612073745568	adult	0.0		45.0	face	adult-2.jpg	0.0	111.54303300399852	0.38331027658750827
28.0	14.009247953644717	pulse	0.0	t		face	adult-2.jpg	0.0	111.53466888389767	
28.0	14.400922350333076	ISI	1.0		4.0	face	adult-2.jpg	0.0	111.92634328058602	0.11669108176329246
29.0	14.517613432096368	adult	0.0		46.0	face	adult-35.jpg	0.0	112.04303436234932	0.3833018246273241
29.0	14.70103122969067	pulse	0.0	t		face	adult-35.jpg	0.0	112.22645215994362	
29.0	14.900915256723692	ISI	1.0		8.0	face	adult-35.jpg	0.0	112.42633618697664	0.11668564836054429
30.0	15.017600905084237	adult	0.0		46.0	face	adult-35.jpg	1.0	112.54302183533719	0.3832963912241212
30.0	15.400897296308358	ISI	1.0		4.0	face	adult-35.jpg	1.0	112.9263182265613	0.11669621331066082
30.0	15.450471966508303	pulse	1.0	t		face	adult-35.jpg	1.0	112.97589289676125	
30.0	15.459353467310848	response	1.0	b		face	adult-35.jpg	1.0	112.9847743975638	
31.0	15.517593509619019	adult	0.0		46.0	face	adult-112.jpg	0.0	113.04301443987197	0.38330484318430535
31.0	15.900898352803324	ISI	1.0		7.0	face	adult-112.jpg	0.0	113.42631928305627	0.11668504464932994
32.0	16.017583397452654	adult	0.0		46.0	face	adult-38.jpg	0.0	113.5430043277056	0.38330423947263625
32.0	16.101043485032733	pulse	0.0	t		face	adult-38.jpg	0.0	113.62646441528568	
32.0	16.40088763692529	ISI	1.0		7.0	face	adult-38.jpg	0.0	113.92630856717824	0.11669017619624356
33.0	16.517577813121534	adult	0.0		46.0	face	adult-103.jpg	0.0	114.04299874337448	0.38330061720444064
33.0	16.80099165640604	pulse	0.0	t		face	adult-103.jpg	0.0	114.32641258665899	
33.0	16.900878430325974	ISI	1.0		5.0	face	adult-103.jpg	0.0	114.42629936057892	0.11668172423605938
34.0	17.017560154562034	adult	0.0		46.0	face	adult-125.jpg	0.0	114.54298108481498	0.3833114840103917
34.0	17.400871638572426	ISI	1.0		7.0	face	adult-125.jpg	0.0	114.92629256882537	0.11668081866901048
35.0	17.517552457241436	adult	0.0		45.0	face	adult-78.jpg	0.0	115.04297338749438	0.38328069472709103
35.0	17.509274667875616	pulse	0.0	t		face	adult-78.jpg	0.0	115.03469559812856	
35.0	17.900833151968527	ISI	1.0		11.0	face	adult-78.jpg	0.0	115.42625408222148	0.10002532569433242
36.0	18.00085847766286	baseline	0.0		48.0		baseline	0.0	115.52627940791581	0.3999944458550999
36.0	18.20097010390782	pulse	0.0	t			baseline	0.0	115.72639103416077	
36.0	18.40085292351796	ISI	1.0		11.0		baseline	0.0	115.92627385377091	0.0999836696055354
37.0	18.500836593123495	baseline	0.0		48.0		baseline	0.0	116.02625752337644	0.40001014235213006
37.0	18.900846735475625	ISI	1.0		11.0		baseline	0.0	116.42626766572857	0.09999725311308794
37.0	18.905318727943722	pulse	1.0	t			baseline	0.0	116.43073965819667	
38.0	19.000843988588713	baseline	0.0		48.0		baseline	0.0	116.52626491884166	0.40006266524687817
38.0	19.40090665383559	ISI	1.0		11.0		baseline	0.0	116.92632758408854	0.09999483826732103
39.0	19.500901492102912	baseline	0.0		48.0		baseline	0.0	117.02632242235586	0.39999686070041207
39.0	19.601035184000466	pulse	0.0	t			baseline	0.0	117.12645611425341	
39.0	19.900898352803324	ISI	1.0		11.0		baseline	0.0	117.42631928305627	0.09999634754603903
40.0	20.000894700349363	baseline	0.0		48.0		baseline	0.0	117.52631563060231	0.39999293657592716
40.0	20.301001768572405	pulse	0.0	t			baseline	0.0	117.82642269882535	
40.0	20.40088763692529	ISI	1.0		11.0		baseline	0.0	117.92630856717824	0.09999966795885484
41.0	20.500887304884145	baseline	0.0		48.0		baseline	0.0	118.0263082351371	0.3999914272976639
41.0	20.90087873218181	ISI	1.0		11.0		baseline	0.0	118.42629966243476	0.09999785682430229
42.0	21.00087658900611	baseline	0.0		47.0		baseline	0.0	118.52629751925906	0.3999929365763819
42.0	21.004808259738184	pulse	0.0	t			baseline	0.0	118.53022918999113	
42.0	21.400869525582493	ISI	1.0		11.0		baseline	0.0	118.92629045583544	0.09999815868013684
43.0	21.50086768426263	baseline	0.0		48.0		baseline	0.0	119.02628861451558	0.3999914272976639
43.0	21.700963312154272	pulse	0.0	t			baseline	0.0	119.22638424240722	
43.0	21.900859111560294	ISI	1.0		11.0		baseline	0.0	119.42628004181324	0.10001808115748645
44.0	22.00087719271778	baseline	0.0		48.0		baseline	0.0	119.52629812297073	0.39996908997409264
44.0	22.400846282691873	ISI	1.0		11.0		baseline	0.0	119.92626721294482	0.09997823620278723
44.0	22.405289900722437	pulse	1.0	t			baseline	0.0	119.93071083097539	
45.0	22.50082451889466	baseline	0.0		48.0		baseline	0.0	120.02624544914761	0.4000047089493819
45.0	22.900829227844042	ISI	1.0		11.0		baseline	0.0	120.42625015809699	0.09999815868013684
46.0	23.00082738652418	baseline	0.0		48.0		baseline	0.0	120.52624831677713	0.4000225184363444
46.0	23.100954135740267	pulse	0.0	t			baseline	0.0	120.62637506599322	
46.0	23.400849904960523	ISI	1.0		11.0		baseline	0.0	120.92627083521347	0.0999833677501556
47.0	23.50083327271068	baseline	0.0		48.0		baseline	0.0	121.02625420296363	0.3999811642029272
47.0	23.800925851859574	pulse	0.0	t			baseline	0.0	121.32634678211252	
47.0	23.900814436913606	ISI	1.0		4.0		baseline	0.0	121.42623536716656	0.11666210361454432
48.0	24.01747654052815	word	0.0		46.0	character	word-8.jpg	0.0	121.5428974707811	0.38326922420947085
48.0	24.40074576473762	ISI	1.0		6.0	character	word-8.jpg	0.0	121.92616669499057	0.11667447969921341
49.0	24.517420244436835	word	0.0		45.0	character	word-88.jpg	0.0	122.04284117468978	0.38330876730879027
49.0	24.510988302788974	pulse	0.0	t		character	word-88.jpg	0.0	122.03640923304192	
49.0	24.900729011745625	ISI	1.0		7.0	character	word-88.jpg	0.0	122.42614994199857	0.11669349660905937
50.0	25.017422508354684	word	0.0		46.0	character	word-124.jpg	0.0	122.54284343860763	0.3833066543188579
50.0	25.200842720794753	pulse	0.0	t		character	word-124.jpg	0.0	122.7262636510477	
50.0	25.400729162673542	ISI	1.0		7.0	character	word-124.jpg	0.0	122.92615009292649	0.116688365061691
51.0	25.517417527735233	word	0.0		46.0	character	word-79.jpg	0.0	123.04283845798818	0.3833033339060421
51.0	25.900720861641275	ISI	1.0		6.0	character	word-79.jpg	0.0	123.42614179189422	0.11668504464887519
51.0	25.945092142967496	pulse	1.0	t		character	word-79.jpg	0.0	123.47051307322045	
52.0	26.01740590629015	word	0.0		46.0	character	word-93.jpg	0.0	123.5428268365431	0.38330725803007226
52.0	26.400713164320223	ISI	1.0		5.0	character	word-93.jpg	0.0	123.92613409457317	0.11668685578342775
53.0	26.51740002010365	word	0.0		46.0	character	word-125.jpg	0.0	124.0428209503566	0.38330303205020755
53.0	26.600807886644816	pulse	0.0	t		character	word-125.jpg	0.0	124.12622881689776	
53.0	26.900703052153858	ISI	1.0		5.0	character	word-125.jpg	0.0	124.4261239824068	0.11668504464887519
54.0	27.017388096802733	word	0.0		46.0	character	word-29.jpg	0.0	124.54280902705568	0.38330303205020755
54.0	27.300804354932552	pulse	0.0	t		character	word-29.jpg	0.0	124.8262252851855	
54.0	27.40069112885294	ISI	1.0		7.0	character	word-29.jpg	0.0	124.92611205910589	0.1166892706287399
55.0	27.51738039948168	word	0.0		46.0	character	word-91.jpg	0.0	125.04280132973463	0.3833033339060421
55.0	27.900683733387723	ISI	1.0		3.0	character	word-91.jpg	0.0	125.42610466364067	0.11668112052484503
56.0	28.017364853912568	word	0.0		45.0	character	word-109.jpg	0.0	125.54278578416552	0.38330967287583917
56.0	28.010744554296252	pulse	0.0	t		character	word-109.jpg	0.0	125.5361654845492	
56.0	28.400674526788407	ISI	1.0		7.0	character	word-109.jpg	0.0	125.92609545704136	0.1166874594946421
57.0	28.51736198628305	word	0.0		46.0	character	word-20.jpg	0.0	126.042782916536	0.3833036357614219
57.0	28.700780387588566	pulse	0.0	t		character	word-20.jpg	0.0	126.22620131784151	
57.0	28.90066562204447	ISI	1.0		7.0	character	word-20.jpg	0.0	126.42608655229742	0.1166880632063112
58.0	29.017353685250782	word	0.0		46.0	character	word-95.jpg	0.0	126.54277461550373	0.383304239473091
58.0	29.400657924723873	ISI	1.0		7.0	character	word-95.jpg	0.0	126.92607885497682	0.116688365061691
58.0	29.440714480411316	pulse	1.0	t		character	word-95.jpg	0.0	126.96613541066426	
59.0	29.517346289785564	word	0.0		46.0	character	word-134.jpg	0.0	127.04276722003851	0.3833009190602752
59.0	29.90064720884584	ISI	1.0		3.0	character	word-134.jpg	0.0	127.42606813909879	0.1166874594946421
60.0	30.01733466834048	car	0.0		46.0	object	car-5.jpg	0.0	127.54275559859343	0.3833374436021586
60.0	30.100778757567696	pulse	0.0	t		object	car-5.jpg	0.0	127.62619968782064	
60.0	30.40067211194264	ISI	1.0		7.0	object	car-5.jpg	0.0	127.92609304219559	0.11669923186764208
61.0	30.517371343810282	car	0.0		46.0	object	car-138.jpg	0.0	128.04279227406323	0.3832610741051212
61.0	30.800745040284255	pulse	0.0	t		object	car-138.jpg	0.0	128.3261659705372	
61.0	30.900632417915403	ISI	1.0		5.0	object	car-138.jpg	0.0	128.42605334816835	0.11668323351477738
62.0	31.01731565143018	car	0.0		46.0	object	car-77.jpg	0.0	128.54273658168313	0.38330725803007226
62.0	31.400622909460253	ISI	1.0		7.0	object	car-77.jpg	0.0	128.9260438397132	0.11668142238067958
63.0	31.517304331840933	car	0.0		45.0	object	car-54.jpg	0.0	129.04272526209388	0.38330967287583917
63.0	31.511122326728128	pulse	0.0	t		object	car-54.jpg	0.0	129.03654325698108	
63.0	31.900614004716772	ISI	1.0		7.0	object	car-54.jpg	0.0	129.42603493496972	0.11668625207175864
64.0	32.01730025678853	car	0.0		46.0	object	car-137.jpg	0.0	129.54272118704148	0.3833051450401399
64.0	32.200834570690404	pulse	0.0	t		object	car-137.jpg	0.0	129.72625550094335	
64.0	32.40060540182867	ISI	1.0		7.0	object	car-137.jpg	0.0	129.92602633208162	0.1166874594946421
65.0	32.51729286132331	car	0.0		46.0	object	car-50.jpg	0.0	130.04271379157626	0.3833051450401399
65.0	32.90059800636345	ISI	1.0		7.0	object	car-50.jpg	0.0	130.4260189366164	0.11668444093766084
65.0	32.94070104783168	pulse	1.0	t		object	car-50.jpg	0.0	130.46612197808463	
66.0	33.01728244730111	car	0.0		46.0	object	car-112.jpg	0.0	130.54270337755406	0.38330605060764356
66.0	33.40058849790876	ISI	1.0		7.0	object	car-112.jpg	0.0	130.9260094281617	0.1166874594946421
67.0	33.5172759574034	car	0.0		46.0	object	car-6.jpg	0.0	131.04269688765635	0.38330152277148954
67.0	33.600695596317564	pulse	0.0	t		object	car-6.jpg	0.0	131.1261165265705	
67.0	33.90057748017489	ISI	1.0		7.0	object	car-6.jpg	0.0	131.42599841042784	0.11668474279304064
68.0	34.01726222296793	car	0.0		46.0	object	car-26.jpg	0.0	131.54268315322088	0.383307258030527
68.0	34.300681499655184	pulse	0.0	t		object	car-26.jpg	0.0	131.82610242990813	
68.0	34.400569480998456	ISI	1.0		6.0	object	car-26.jpg	0.0	131.9259904112514	0.116686855782973
69.0	34.51725633678143	car	0.0		46.0	object	car-44.jpg	0.0	132.04267726703438	0.38330454132892555
69.0	34.900560878110355	ISI	1.0		8.0	object	car-44.jpg	0.0	132.4259818083633	0.11667780011157447
70.0	35.01723867822193	car	0.0		45.0	object	car-40.jpg	0.0	132.54265960847488	0.38331389885615863
70.0	35.00895998328906	pulse	0.0	t		object	car-40.jpg	0.0	132.534380913542	
70.0	35.40055257707809	ISI	1.0		4.0	object	car-40.jpg	0.0	132.92597350733104	0.116688365061691
71.0	35.51724094213978	car	0.0		46.0	object	car-125.jpg	0.0	133.04266187239273	0.3833024283389932
71.0	35.7006557211771	pulse	0.0	t		object	car-125.jpg	0.0	133.22607665143005	
71.0	35.90054337047877	ISI	1.0		6.0	object	car-125.jpg	0.0	133.42596430073172	0.11668625207175864
72.0	36.01722962255053	house	0.0		46.0	place	house-67.jpg	0.0	133.54265055280348	0.3833033339060421
72.0	36.40053295645657	ISI	1.0		7.0	place	house-67.jpg	0.0	133.92595388670952	0.11669017619578881
72.0	36.437349392862416	pulse	1.0	t		place	house-67.jpg	0.0	133.96277032311536	
73.0	36.51722313265236	house	0.0		46.0	place	house-27.jpg	0.0	134.0426440629053	0.3833332176222939
73.0	36.900556350274655	ISI	1.0		7.0	place	house-27.jpg	0.0	134.4259772805276	0.1166889687733601
74.0	37.017245319048016	house	0.0		46.0	place	house-39.jpg	0.0	134.54266624930096	0.3832607722492867
74.0	37.10063567795714	pulse	0.0	t		place	house-39.jpg	0.0	134.6260566082101	
74.0	37.4005060912973	ISI	1.0		8.0	place	house-39.jpg	0.0	134.92592702155025	0.11670074114636009
75.0	37.51720683244366	house	0.0		46.0	place	house-39.jpg	1.0	135.0426277626966	0.38329910792572264
75.0	37.80062067572817	pulse	0.0	t		place	house-39.jpg	1.0	135.32604160598112	
75.0	37.900505940369385	ISI	1.0		5.0	place	house-39.jpg	1.0	135.42592687062233	0.11668745949509685
76.0	38.01719339986448	house	0.0		46.0	place	house-6.jpg	0.0	135.54261433011743	0.38330333390558735
76.0	38.167279081610104	response	0.0	b		place	house-6.jpg	0.0	135.69270001186305	
76.0	38.40049673377007	ISI	1.0		7.0	place	house-6.jpg	0.0	135.92591766402302	0.11666723516145794
77.0	38.51716396893153	house	0.0		45.0	place	house-32.jpg	0.0	136.04258489918448	0.383317521124809
77.0	38.50895530452544	pulse	0.0	t		place	house-32.jpg	0.0	136.0343762347784	
77.0	38.900481490056336	ISI	1.0		7.0	place	house-32.jpg	0.0	136.42590242030928	0.11669591145482627
78.0	39.01717740151116	house	0.0		46.0	place	house-69.jpg	0.0	136.5425983317641	0.3832843169957414
78.0	39.20058523786656	pulse	0.0	t		place	house-69.jpg	0.0	136.7260061681195	
78.0	39.400461718506904	ISI	1.0		4.0	place	house-69.jpg	0.0	136.92588264875985	0.11670798568366081
79.0	39.517169704190565	house	0.0		46.0	place	house-11.jpg	0.0	137.0425906344435	0.3833084654529557
79.0	39.90047816964352	ISI	1.0		7.0	place	house-11.jpg	0.0	137.42589909989647	0.1166874594946421
79.0	39.93665618120531	pulse	1.0	t		place	house-11.jpg	0.0	137.46207711145826	
80.0	40.01716562913816	house	0.0		46.0	place	house-73.jpg	0.0	137.5425865593911	0.3832979005028392
80.0	40.400463529641	ISI	1.0		7.0	place	house-73.jpg	0.0	137.92588445989395	0.11668866691752555
81.0	40.51715219655853	house	0.0		46.0	place	house-105.jpg	0.0	138.04257312681148	0.38330514504059465
81.0	40.60056881691571	pulse	0.0	t		place	house-105.jpg	0.0	138.12598974716866	
81.0	40.90045734159912	ISI	1.0		6.0	place	house-105.jpg	0.0	138.42587827185207	0.11668413908182629
82.0	41.01714148068095	house	0.0		46.0	place	house-140.jpg	0.0	138.5425624109339	0.3833036357614219
82.0	41.300665803158154	pulse	0.0	t		place	house-140.jpg	0.0	138.8260867334111	
82.0	41.40044511644237	ISI	1.0		7.0	place	house-140.jpg	0.0	138.92586604669532	0.116688365061691
83.0	41.51713348150406	house	0.0		46.0	place	house-82.jpg	0.0	139.042554411757	0.38330212648315864
83.0	41.90043560798722	ISI	1.0		3.0	place	house-82.jpg	0.0	139.42585653824017	0.11668232794727373
84.0	42.01711793593449	body	0.0		45.0	body	body-117.jpg	0.0	139.54253886618744	0.3833096728762939
84.0	42.00887968966799	pulse	0.0	t		body	body-117.jpg	0.0	139.53430061992094	
84.0	42.40042760881079	ISI	1.0		7.0	body	body-117.jpg	0.0	139.92584853906374	0.116686855782973
85.0	42.51711446459376	body	0.0		46.0	body	body-128.jpg	0.0	140.0425353948467	0.383304239473091
85.0	42.70053648816838	pulse	0.0	t		body	body-128.jpg	0.0	140.22595741842133	
85.0	42.90041870406685	ISI	1.0		6.0	body	body-128.jpg	0.0	140.4258396343198	0.1166871576392623
86.0	43.01710586170611	body	0.0		46.0	body	body-30.jpg	0.0	140.54252679195906	0.38333472690055714
86.0	43.40044058860667	ISI	1.0		7.0	body	body-30.jpg	0.0	140.92586151885962	0.11668866691752555
86.0	43.43845931633905	pulse	1.0	t		body	body-30.jpg	0.0	140.963880246592	
87.0	43.517129255524196	body	0.0		46.0	body	body-68.jpg	0.0	141.04255018577715	0.38326982792113995
87.0	43.900399083445336	ISI	1.0		7.0	body	body-68.jpg	0.0	141.42582001369829	0.116688365061691
88.0	44.01708744850703	body	0.0		46.0	body	body-68.jpg	1.0	141.54250837875998	0.3833033339060421
88.0	44.10050859669991	pulse	0.0	t		body	body-68.jpg	1.0	141.62592952695286	
88.0	44.40039078241307	ISI	1.0		5.0	body	body-68.jpg	1.0	141.92581171266602	0.11669047805162336
88.0	44.48382702339177	response	1.0	b		body	body-68.jpg	1.0	142.00924795364472	
89.0	44.51708126046469	body	0.0		46.0	body	body-55.jpg	0.0	142.04250219071764	0.38330695617469246
89.0	44.80047337013775	pulse	0.0	t		body	body-55.jpg	0.0	142.3258943003907	
89.0	44.900388216639385	ISI	1.0		7.0	body	body-55.jpg	0.0	142.42580914689233	0.11668081866901048
90.0	45.017069035308396	body	0.0		46.0	body	body-77.jpg	0.0	142.54248996556134	0.38330484318430535
90.0	45.4003738784927	ISI	1.0		6.0	body	body-77.jpg	0.0	142.92579480874565	0.11668262980310828
91.0	45.51705650829581	body	0.0		45.0	body	body-63.jpg	0.0	143.04247743854876	0.38331088029917737
91.0	45.50877841707461	pulse	0.0	t		body	body-63.jpg	0.0	143.03419934732756	
91.0	45.90036738859499	ISI	1.0		7.0	body	body-63.jpg	0.0	143.42578831884794	0.11668444093720609
92.0	46.01705182953219	body	0.0		46.0	body	body-71.jpg	0.0	143.54247275978514	0.38330454132892555
92.0	46.200473249395145	pulse	0.0	t		body	body-71.jpg	0.0	143.7258941796481	
92.0	46.40035637086112	ISI	1.0		6.0	body	body-71.jpg	0.0	143.92577730111407	0.11669108176329246
93.0	46.51704745262441	body	0.0		46.0	body	body-8.jpg	0.0	144.04246838287736	0.3833003153486061
93.0	46.90034776797302	ISI	1.0		6.0	body	body-8.jpg	0.0	144.42576869822597	0.1166874594946421
93.0	46.94330817567152	pulse	1.0	t		body	body-8.jpg	0.0	144.46872910592447	
94.0	47.01703522746766	body	0.0		46.0	body	body-42.jpg	0.0	144.5424561577206	0.38330212648315864
94.0	47.40033735395082	ISI	1.0		7.0	body	body-42.jpg	0.0	144.92575828420377	0.116689874340409
95.0	47.51702722829123	body	0.0		46.0	body	body-34.jpg	0.0	145.04244815854418	0.3833024283389932
95.0	47.600447169061226	pulse	0.0	t		body	body-34.jpg	0.0	145.12586809931418	
95.0	47.90032965663022	ISI	1.0		6.0	body	body-34.jpg	0.0	145.42575058688317	0.116686855782973
96.0	48.01701651241319	house	0.0		46.0	place	house-29.jpg	0.0	145.54243744266614	0.3833048431847601
96.0	48.300433676110515	pulse	0.0	t		place	house-29.jpg	0.0	145.82585460636346	
96.0	48.40032135559795	ISI	1.0		6.0	place	house-29.jpg	0.0	145.9257422858509	0.11668715763880755
97.0	48.51700851323676	house	0.0		46.0	place	house-46.jpg	0.0	146.0424294434897	0.3833066543188579
97.0	48.90031516755562	ISI	1.0		6.0	place	house-46.jpg	0.0	146.42573609780857	0.11667840382324357
98.0	49.01699357137886	house	0.0		45.0	place	house-124.jpg	0.0	146.5424145016318	0.38330906916417007
98.0	49.00881811110139	pulse	0.0	t		place	house-124.jpg	0.0	146.53423904135434	
98.0	49.40030264054303	ISI	1.0		6.0	place	house-124.jpg	0.0	146.92572357079598	0.1166886669179803
99.0	49.51699130746101	house	0.0		46.0	place	house-38.jpg	0.0	147.04241223771396	0.3833353306117715
99.0	49.70044502588553	pulse	0.0	t		place	house-38.jpg	0.0	147.22586595613848	
99.0	49.900326638072784	ISI	1.0		7.0	place	house-38.jpg	0.0	147.42574756832573	0.11668836506214575
100.0	50.01701500313493	house	0.0		46.0	place	house-48.jpg	0.0	147.54243593338788	0.38327073348818885
100.0	50.40028573662312	ISI	1.0		7.0	place	house-48.jpg	0.0	147.92570666687607	0.11669259104201046
100.0	50.43904340715426	pulse	1.0	t		place	house-48.jpg	0.0	147.9644643374072	
101.0	50.51697832766513	house	0.0		46.0	place	house-113.jpg	0.0	148.04239925791808	0.38329820235867373
101.0	50.9002765300238	ISI	1.0		7.0	place	house-113.jpg	0.0	148.42569746027675	0.11668262980310828
102.0	51.01695915982691	house	0.0		46.0	place	house-58.jpg	0.0	148.54238009007986	0.38330876730879027
102.0	51.10040173977541	pulse	0.0	t		place	house-58.jpg	0.0	148.62582267002836	
102.0	51.4002679271357	ISI	1.0		6.0	place	house-58.jpg	0.0	148.92568885738865	0.11668866691752555
103.0	51.51695659405323	house	0.0		46.0	place	house-110.jpg	0.0	149.04237752430618	0.3833018246273241
103.0	51.800373455894714	pulse	0.0	t		place	house-110.jpg	0.0	149.32579438614766	
103.0	51.90025841868055	ISI	1.0		7.0	place	house-110.jpg	0.0	149.4256793489335	0.11668564836054429
104.0	52.016944067041095	house	0.0		46.0	place	house-110.jpg	1.0	149.54236499729404	0.3833093710200046
104.0	52.4002534380611	ISI	1.0		7.0	place	house-110.jpg	1.0	149.92567436831405	0.11667900753445792
105.0	52.51693244559556	house	0.0		45.0	place	house-126.jpg	0.0	150.0423533758485	0.38330846545341046
105.0	52.508440640525805	pulse	0.0	t		place	house-126.jpg	0.0	150.03386157077875	
105.0	52.66706129270915	response	0.0	b		place	house-126.jpg	0.0	150.1924822229621	
105.0	52.90024091104897	ISI	1.0		5.0	place	house-126.jpg	0.0	150.42566184130192	0.1166699518630594
106.0	53.01691086291203	house	0.0		46.0	place	house-94.jpg	0.0	150.54233179316498	0.3833226526717226
106.0	53.20035039411778	pulse	0.0	t		place	house-94.jpg	0.0	150.72577132437073	
106.0	53.40023351558375	ISI	1.0		7.0	place	house-94.jpg	0.0	150.9256544458367	0.11668715763880755
107.0	53.51692067322256	house	0.0		46.0	place	house-111.jpg	0.0	151.0423416034755	0.38330393761725645
107.0	53.900224610839814	ISI	1.0		6.0	place	house-111.jpg	0.0	151.42564554109276	0.1166889687733601
107.0	53.9432269764834	pulse	1.0	t		place	house-111.jpg	0.0	151.46864790673635	
108.0	54.016913579613174	house	0.0		46.0	place	house-144.jpg	0.0	151.54233450986612	0.38330152277148954
108.0	54.400215102384664	ISI	1.0		7.0	place	house-144.jpg	0.0	151.9256360326376	0.11668836506214575
109.0	54.51690346744681	house	0.0		46.0	place	house-21.jpg	0.0	152.04232439769976	0.38330242833853845
109.0	54.60032280450514	pulse	0.0	t		place	house-21.jpg	0.0	152.1257437347581	
109.0	54.90020589578535	ISI	1.0		7.0	place	house-21.jpg	0.0	152.4256268260383	0.11668413908182629
110.0	55.016890034867174	house	0.0		46.0	place	house-141.jpg	0.0	152.54231096512012	0.3832957875129068
110.0	55.30029421876861	pulse	0.0	t		place	house-141.jpg	0.0	152.82571514902156	
110.0	55.40018582238008	ISI	1.0		5.0	place	house-141.jpg	0.0	152.92560675263303	0.11670013743514573
111.0	55.51688595981523	house	0.0		46.0	place	house-56.jpg	0.0	153.04230689006818	0.38330152277148954
111.0	55.900187482586716	ISI	1.0		6.0	place	house-56.jpg	0.0	153.42560841283967	0.11668202609189393
112.0	56.01686950867861	house	0.0		45.0	place	house-76.jpg	0.0	153.54229043893156	0.3833250675174895
112.0	56.00872725253021	pulse	0.0	t		place	house-76.jpg	0.0	153.53414818278316	
112.0	56.4001945761961	ISI	1.0		7.0	place	house-76.jpg	0.0	153.92561550644905	0.11669108176329246
113.0	56.51688565795939	house	0.0		46.0	place	house-55.jpg	0.0	154.04230658821234	0.3832803928712565
113.0	56.70028504235506	pulse	0.0	t		place	house-55.jpg	0.0	154.225705972608	
113.0	56.90016605083065	ISI	1.0		5.0	place	house-55.jpg	0.0	154.4255869810836	0.1166904780520781
114.0	57.01685652888273	house	0.0		46.0	place	house-103.jpg	0.0	154.54227745913568	0.38330725803007226
114.0	57.4001637869128	ISI	1.0		7.0	place	house-103.jpg	0.0	154.92558471716575	0.11669500588777737
114.0	57.43466438624728	pulse	1.0	t		place	house-103.jpg	0.0	154.96008531650023	
115.0	57.516858792800576	house	0.0		46.0	place	house-98.jpg	0.0	155.04227972305353	0.3832933726671399
115.0	57.900152165467716	ISI	1.0		7.0	place	house-98.jpg	0.0	155.42557309572067	0.1166874594946421
116.0	58.01683962496236	house	0.0		46.0	place	house-83.jpg	0.0	155.5422605552153	0.383304239473091
116.0	58.10026167872229	pulse	0.0	t		place	house-83.jpg	0.0	155.62568260897524	
116.0	58.40014386443545	ISI	1.0		5.0	place	house-83.jpg	0.0	155.9255647946884	0.11668142238022483
117.0	58.516825286815674	house	0.0		46.0	place	house-109.jpg	0.0	156.04224621706862	0.38330937102045937
117.0	58.800246978348696	pulse	0.0	t		place	house-109.jpg	0.0	156.32566790860164	
117.0	58.900134657836134	ISI	1.0		5.0	place	house-109.jpg	0.0	156.42555558808908	0.11668444093720609
118.0	59.01681909877334	house	0.0		46.0	place	house-25.jpg	0.0	156.5422400290263	0.38330635246302336
118.0	59.40012545123636	ISI	1.0		7.0	place	house-25.jpg	0.0	156.9255463814893	0.11667689454452557
119.0	59.51680234578089	house	0.0		45.0	place	house-120.jpg	0.0	157.04222327603384	0.383319030403527
119.0	59.508948965555646	pulse	0.0	t		place	house-120.jpg	0.0	157.0343698958086	
119.0	59.900121376184416	ISI	1.0		7.0	place	house-120.jpg	0.0	157.42554230643736	0.11668353537015719
120.0	60.01680491155457	car	0.0		46.0	object	car-58.jpg	0.0	157.54222584180752	0.38330393761725645
120.0	60.20022784069624	pulse	0.0	t		object	car-58.jpg	0.0	157.7256487709492	
120.0	60.40010884917183	ISI	1.0		6.0	object	car-58.jpg	0.0	157.92552977942478	0.11668293165894283
121.0	60.51679178083077	car	0.0		46.0	object	car-31.jpg	0.0	158.04221271108372	0.38330846545341046
121.0	60.90010024628418	ISI	1.0		8.0	object	car-31.jpg	0.0	158.42552117653713	0.11668625207175864
121.0	60.93194572271932	pulse	1.0	t		object	car-31.jpg	0.0	158.45736665297227	
122.0	61.01678649835594	car	0.0		46.0	object	car-31.jpg	1.0	158.5422074286089	0.38330574875135426
122.0	61.400092247107295	ISI	1.0		7.0	object	car-31.jpg	1.0	158.92551317736024	0.11666874444017594
123.0	61.51676099154747	car	0.0		46.0	object	car-30.jpg	0.0	159.04218192180042	0.38332023782641045
123.0	61.60020236407354	pulse	0.0	t		object	car-30.jpg	0.0	159.1256232943265	
123.0	61.65850036267966	response	0.0	b		object	car-30.jpg	0.0	159.1839212929326	
123.0	61.90008122937388	ISI	1.0		6.0	object	car-30.jpg	0.0	159.42550215962683	0.116686855782973
124.0	62.016768085156855	car	0.0		46.0	object	car-132.jpg	0.0	159.5421890154098	0.38330786174174136
124.0	62.300184041431294	pulse	0.0	t		object	car-132.jpg	0.0	159.82560497168424	
124.0	62.400075946898596	ISI	1.0		6.0	object	car-132.jpg	0.0	159.92549687715155	0.11668293165894283
125.0	62.51675887855754	car	0.0		46.0	object	car-130.jpg	0.0	160.0421798088105	0.38333472690055714
125.0	62.900093605458096	ISI	1.0		6.0	object	car-130.jpg	0.0	160.42551453571105	0.11668293165894283
126.0	63.01677653711704	car	0.0		45.0	object	car-96.jpg	0.0	160.54219746737	0.3833135970003241
126.0	63.00446112566215	pulse	0.0	t		object	car-96.jpg	0.0	160.5298820559151	
126.0	63.40009013411736	ISI	1.0		6.0	object	car-96.jpg	0.0	160.9255110643703	0.11667659268914576
127.0	63.51676672680651	car	0.0		46.0	object	car-45.jpg	0.0	161.04218765705946	0.3833108802987226
127.0	63.70019358007221	pulse	0.0	t		object	car-45.jpg	0.0	161.22561451032516	
127.0	63.90007760710523	ISI	1.0		6.0	object	car-45.jpg	0.0	161.42549853735818	0.1166880632063112
128.0	64.01676567031154	car	0.0		46.0	object	car-2.jpg	0.0	161.5421866005645	0.38330423947263625
128.0	64.40006990978418	ISI	1.0		6.0	object	car-2.jpg	0.0	161.92549084003713	0.11668172423605938
128.0	64.44775435947577	pulse	1.0	t		object	car-2.jpg	0.0	161.97317528972872	
129.0	64.51675163402024	car	0.0		46.0	object	car-124.jpg	0.0	162.0421725642732	0.3833090691646248
129.0	64.90006070318486	ISI	1.0		5.0	object	car-124.jpg	0.0	162.4254816334378	0.11669077990791266
130.0	65.01675148309278	car	0.0		46.0	object	car-122.jpg	0.0	162.54217241334572	0.38330333390558735
130.0	65.10016749973829	pulse	0.0	t		object	car-122.jpg	0.0	162.62558842999124	
130.0	65.40005481699836	ISI	1.0		5.0	object	car-122.jpg	0.0	162.9254757472513	0.1166708574301083
131.0	65.51672567442847	car	0.0		46.0	object	car-69.jpg	0.0	163.04214660468142	0.3833169174131399
131.0	65.65015767433442	response	0.0	b		object	car-69.jpg	0.0	163.17557860458737	
131.0	65.8001238212155	pulse	0.0	t		object	car-69.jpg	0.0	163.32554475146844	
131.0	65.90004259184161	ISI	1.0		6.0	object	car-69.jpg	0.0	163.42546352209456	0.11669319475367956
132.0	66.01673578659529	adult	0.0		46.0	face	adult-80.jpg	0.0	163.54215671684824	0.38329759864700463
132.0	66.4000333852423	ISI	1.0		1.0	face	adult-80.jpg	0.0	163.92545431549524	0.11666663145024359
133.0	66.51670001669254	adult	0.0		45.0	face	adult-89.jpg	0.0	164.0421209469455	0.3833250675174895
133.0	66.50489202469998	pulse	0.0	t		face	adult-89.jpg	0.0	164.03031295495293	
133.0	66.90002508421003	ISI	1.0		6.0	face	adult-89.jpg	0.0	164.42544601446298	0.11667357413170976
134.0	67.01669865834174	adult	0.0		46.0	face	adult-8.jpg	0.0	164.5421195885947	0.38331872854769244
134.0	67.20013094501064	pulse	0.0	t		face	adult-8.jpg	0.0	164.7255518752636	
134.0	67.40001738688943	ISI	1.0		7.0	face	adult-8.jpg	0.0	164.92543831714238	0.11668323351477738
135.0	67.51670062040421	adult	0.0		46.0	face	adult-94.jpg	0.0	165.04212155065716	0.3832752613238881
135.0	67.8999758817281	ISI	1.0		6.0	face	adult-94.jpg	0.0	165.42539681198105	0.11667508341042776
135.0	67.9416989828369	pulse	1.0	t		face	adult-94.jpg	0.0	165.46711991308985	
136.0	68.01665096513852	adult	0.0		46.0	face	adult-69.jpg	0.0	165.54207189539147	0.3833163137014708
136.0	68.39996727884	ISI	1.0		7.0	face	adult-69.jpg	0.0	165.92538820909294	0.1166871576392623
137.0	68.51665443647926	adult	0.0		46.0	face	adult-69.jpg	1.0	166.0420753667322	0.38330333390558735
137.0	68.60007498096047	pulse	0.0	t		face	adult-69.jpg	1.0	166.12549591121342	
137.0	68.89995777038484	ISI	1.0		7.0	face	adult-69.jpg	1.0	166.4253787006378	0.1166874594946421
138.0	69.01664522987949	adult	0.0		46.0	face	adult-86.jpg	0.0	166.54206616013244	0.38330273019482775
138.0	69.23339906744695	response	0.0	b		face	adult-86.jpg	0.0	166.7588199976999	
138.0	69.30004065996536	pulse	0.0	t		face	adult-86.jpg	0.0	166.8254615902183	
138.0	69.39994796007431	ISI	1.0		5.0	face	adult-86.jpg	0.0	166.92536889032726	0.11669047805162336
139.0	69.51663843812594	adult	0.0		46.0	face	adult-39.jpg	0.0	167.0420593683789	0.38330303205020755
139.0	69.89994147017615	ISI	1.0		6.0	face	adult-39.jpg	0.0	167.4253624004291	0.11667900753445792
140.0	70.0166204777106	adult	0.0		45.0	face	adult-37.jpg	0.0	167.54204140796355	0.3833096728762939
140.0	70.00840698361299	pulse	0.0	t		face	adult-37.jpg	0.0	167.53382791386593	
140.0	70.3999301505869	ISI	1.0		7.0	face	adult-37.jpg	0.0	167.92535108083985	0.11668957248457446
141.0	70.51661972307147	adult	0.0		46.0	face	adult-111.jpg	0.0	168.04204065332442	0.38330484318430535
141.0	70.70003661509872	pulse	0.0	t		face	adult-111.jpg	0.0	168.22545754535167	
141.0	70.89992456625578	ISI	1.0		7.0	face	adult-111.jpg	0.0	168.42534549650873	0.11668323351477738
142.0	71.01660779977055	adult	0.0		46.0	face	adult-122.jpg	0.0	168.5420287300235	0.38330484318430535
142.0	71.39991264295486	ISI	1.0		6.0	face	adult-122.jpg	0.0	168.9253335732078	0.1166871576392623
142.0	71.44091702559808	pulse	1.0	t		face	adult-122.jpg	0.0	168.96633795585103	
143.0	71.51659980059412	adult	0.0		46.0	face	adult-10.jpg	0.0	169.04202073084707	0.383304239473091
143.0	71.89990404006721	ISI	1.0		6.0	face	adult-10.jpg	0.0	169.42532497032016	0.11669470403194282
144.0	72.01659874409916	body	0.0		46.0	body	body-35.jpg	0.0	169.5420196743521	0.3832972967911701
144.0	72.10001385517762	pulse	0.0	t		body	body-35.jpg	0.0	169.62543478543057	
144.0	72.39989604089033	ISI	1.0		6.0	body	body-35.jpg	0.0	169.92531697114327	0.11668534650470974
145.0	72.51658138739504	body	0.0		46.0	body	body-84.jpg	0.0	170.04200231764798	0.3833120877220608
145.0	72.79999794738114	pulse	0.0	t		body	body-84.jpg	0.0	170.3254188776341	
145.0	72.8998934751171	ISI	1.0		7.0	body	body-84.jpg	0.0	170.42531440537005	0.11667961124567228
146.0	73.01657308636277	body	0.0		46.0	body	body-39.jpg	0.0	170.54199401661572	0.3832779780259443
146.0	73.39985106438871	ISI	1.0		6.0	body	body-39.jpg	0.0	170.92527199464166	0.1167058726932737
147.0	73.51655693708199	body	0.0		45.0	body	body-59.jpg	0.0	171.04197786733494	0.3833365380351097
147.0	73.50832955762144	pulse	0.0	t		body	body-59.jpg	0.0	171.03375048787439	
147.0	73.8998934751171	ISI	1.0		1.0	body	body-59.jpg	0.0	171.42531440537005	0.11669681702187518
148.0	74.01659029213897	body	0.0		46.0	body	body-125.jpg	0.0	171.54201122239192	0.3832704316323543
148.0	74.19997579117125	pulse	0.0	t		body	body-125.jpg	0.0	171.7253967214242	
148.0	74.39986072377133	ISI	1.0		7.0	body	body-125.jpg	0.0	171.92528165402427	0.11668504464932994
149.0	74.51654576842066	body	0.0		46.0	body	body-118.jpg	0.0	172.0419666986736	0.3833075598859068
149.0	74.89985332830656	ISI	1.0		6.0	body	body-118.jpg	0.0	172.4252742585595	0.11668202609143918
149.0	74.94320192245868	pulse	1.0	t		body	body-118.jpg	0.0	172.46862285271163	
150.0	75.016535354398	body	0.0		46.0	body	body-20.jpg	0.0	172.54195628465095	0.38330605060764356
150.0	75.39984140500565	ISI	1.0		5.0	body	body-20.jpg	0.0	172.9252623352586	0.1166889687733601
150.0	75.45085381399213	response	1.0	b		body	body-20.jpg	0.0	172.97627474424507	
151.0	75.516530373779	body	0.0		46.0	body	body-144.jpg	0.0	173.04195130403195	0.3833036357614219
151.0	75.59992284567852	pulse	0.0	t		body	body-144.jpg	0.0	173.12534377593147	
151.0	75.89983400954043	ISI	1.0		7.0	body	body-144.jpg	0.0	173.42525493979338	0.11668444093766084
152.0	76.01651845047809	body	0.0		46.0	body	body-6.jpg	0.0	173.54193938073104	0.38330544689597446
152.0	76.29993772716534	pulse	0.0	t		body	body-6.jpg	0.0	173.8253586574183	
152.0	76.39982389737406	ISI	1.0		7.0	body	body-6.jpg	0.0	173.925244827627	0.11668896877290535
153.0	76.51651286614697	body	0.0		46.0	body	body-25.jpg	0.0	174.04193379639992	0.38330303205020755
153.0	76.89981589819718	ISI	1.0		4.0	body	body-25.jpg	0.0	174.42523682845012	0.11667840382324357
154.0	77.01649430202042	body	0.0		45.0	body	body-113.jpg	0.0	174.54191523227337	0.3833117858662263
154.0	77.00458428279535	pulse	0.0	t		body	body-113.jpg	0.0	174.5300052130483	
154.0	77.39980608788665	ISI	1.0		5.0	body	body-113.jpg	0.0	174.9252270181396	0.10833450805512257
155.0	77.50814059594177	body	0.0		47.0	body	body-86.jpg	0.0	175.03356152619472	0.39165809647965943
155.0	77.69991315610969	pulse	0.0	t		body	body-86.jpg	0.0	175.22533408636264	
155.0	77.89979869242143	ISI	1.0		6.0	body	body-86.jpg	0.0	175.42521962267438	0.10835171383087072
156.0	78.0081504062523	adult	0.0		47.0	face	adult-113.jpg	0.0	175.53357133650525	0.39164270183846384
156.0	78.39979310809076	ISI	1.0		4.0	face	adult-113.jpg	0.0	175.9252140383437	0.10835473238830673
156.0	78.45795557347901	pulse	1.0	t		face	adult-113.jpg	0.0	175.98337650373196	
157.0	78.50814784047907	adult	0.0		47.0	face	adult-83.jpg	0.0	176.03356877073202	0.39163213688789256
157.0	78.89977997736696	ISI	1.0		2.0	face	adult-83.jpg	0.0	176.4252009076199	0.10836137321393835
158.0	79.0081413505809	adult	0.0		47.0	face	adult-72.jpg	0.0	176.53356228083385	0.3916291183309113
158.0	79.09988767948698	pulse	0.0	t		face	adult-72.jpg	0.0	176.62530860973993	
158.0	79.39977046891181	ISI	1.0		6.0	face	adult-72.jpg	0.0	176.92519139916476	0.10833148949768656
159.0	79.5081019584095	adult	0.0		47.0	face	adult-123.jpg	0.0	177.03352288866245	0.3916608131812609
159.0	79.79987690323787	pulse	0.0	t		face	adult-123.jpg	0.0	177.32529783349082	
159.0	79.89976277159076	ISI	1.0		5.0	face	adult-123.jpg	0.0	177.4251837018437	0.10836499548304346
160.0	80.0081277670738	adult	0.0		47.0	face	adult-3.jpg	0.0	177.53354869732675	0.391656889056776
160.0	80.39978465613058	ISI	1.0		5.0	face	adult-3.jpg	0.0	177.92520558638353	0.1166874594946421
161.0	80.51647211562522	adult	0.0		45.0	face	adult-116.jpg	0.0	178.04189304587817	0.38330333390558735
161.0	80.50414976148886	pulse	0.0	t		face	adult-116.jpg	0.0	178.0295706917418	
161.0	80.89977544953081	ISI	1.0		6.0	face	adult-116.jpg	0.0	178.42519637978376	0.1166895724850292
162.0	81.01646502201584	adult	0.0		46.0	face	adult-118.jpg	0.0	178.54188595226879	0.38330242833853845
162.0	81.19988131033142	pulse	0.0	t		face	adult-118.jpg	0.0	178.72530224058437	
162.0	81.39976745035437	ISI	1.0		6.0	face	adult-118.jpg	0.0	178.92518838060732	0.11669621331066082
163.0	81.51646366366504	adult	0.0		46.0	face	adult-108.jpg	0.0	179.04188459391798	0.3832622815280047
163.0	81.89972594519304	ISI	1.0		7.0	face	adult-108.jpg	0.0	179.425146875446	0.11668504464932994
163.0	81.93419424596595	pulse	1.0	t		face	adult-108.jpg	0.0	179.4596151762189	
164.0	82.01641098984237	adult	0.0		46.0	face	adult-97.jpg	0.0	179.54183192009532	0.3833105784428881
164.0	82.39972156828526	ISI	1.0		7.0	face	adult-97.jpg	0.0	179.9251424985382	0.11668685578342775
165.0	82.51640842406869	adult	0.0		46.0	face	adult-32.jpg	0.0	180.04182935432164	0.38330001349277154
165.0	82.5998262518483	pulse	0.0	t		face	adult-32.jpg	0.0	180.12524718210125	
165.0	82.89970843756146	ISI	1.0		7.0	face	adult-32.jpg	0.0	180.4251293678144	0.11667206485299175
166.0	83.01638050241445	adult	0.0		46.0	face	adult-30.jpg	0.0	180.5418014326674	0.38331782298064354
166.0	83.29981215518637	pulse	0.0	t		face	adult-30.jpg	0.0	180.82523308543932	
166.0	83.3996983253951	ISI	1.0		7.0	face	adult-30.jpg	0.0	180.92511925564804	0.1166892706287399
167.0	83.51638759602383	adult	0.0		46.0	face	adult-132.jpg	0.0	181.04180852627678	0.38330605060764356
167.0	83.89969364663148	ISI	1.0		5.0	face	adult-132.jpg	0.0	181.42511457688443	0.11668232794727373
168.0	84.01637597457875	adult	0.0		45.0	face	adult-98.jpg	0.0	181.5417969048317	0.38330846545341046
168.0	84.008107844596	pulse	0.0	t		face	adult-98.jpg	0.0	181.53352877484895	
168.0	84.39968444003216	ISI	1.0		7.0	face	adult-98.jpg	0.0	181.9251053702851	0.11668655392713845
169.0	84.5163709939593	adult	0.0		46.0	face	adult-67.jpg	0.0	182.04179192421225	0.3833018246273241
169.0	84.69978939526527	pulse	0.0	t		face	adult-67.jpg	0.0	182.22521032551822	
169.0	84.89967281858662	ISI	1.0		7.0	face	adult-67.jpg	0.0	182.42509374883957	0.11666361289326233
170.0	85.01633643147989	adult	0.0		46.0	face	adult-131.jpg	0.0	182.54175736173283	0.3833274823632564
170.0	85.39966391384314	ISI	1.0		6.0	face	adult-131.jpg	0.0	182.9250848440961	0.11668534650470974
170.0	85.44458427072095	pulse	1.0	t		face	adult-131.jpg	0.0	182.9700052009739	
171.0	85.51634926034785	adult	0.0		46.0	face	adult-140.jpg	0.0	183.0417701906008	0.38330786174174136
171.0	85.8996571220896	ISI	1.0		7.0	face	adult-140.jpg	0.0	183.42507805234254	0.1166859502159241
172.0	86.01634307230552	adult	0.0		46.0	face	adult-139.jpg	0.0	183.54176400255847	0.38330242833853845
172.0	86.09980617844303	pulse	0.0	t		face	adult-139.jpg	0.0	183.62522710869598	
172.0	86.39964550064406	ISI	1.0		6.0	face	adult-139.jpg	0.0	183.925066430897	0.1166886669179803
173.0	86.51633416756204	adult	0.0		46.0	face	adult-6.jpg	0.0	184.04175509781498	0.3833036357614219
173.0	86.79974650156782	pulse	0.0	t		face	adult-6.jpg	0.0	184.32516743182077	
173.0	86.89963780332346	ISI	1.0		7.0	face	adult-6.jpg	0.0	184.4250587335764	0.1166859502159241
174.0	87.01632375353938	adult	0.0		46.0	face	adult-6.jpg	1.0	184.54174468379233	0.38330514504059465
174.0	87.39962889857998	ISI	1.0		5.0	face	adult-6.jpg	1.0	184.92504982883293	0.11668262980310828
175.0	87.51631152838308	adult	0.0		45.0	face	adult-46.jpg	0.0	185.04173245863603	0.3833407640149744
175.0	87.50614744263294	pulse	0.0	t		face	adult-46.jpg	0.0	185.03156837288589	
175.0	87.6331001095432	response	0.0	b		face	adult-46.jpg	0.0	185.15852103979614	
175.0	87.89965229239806	ISI	1.0		7.0	face	adult-46.jpg	0.0	185.425073222651	0.11668866691752555
176.0	88.01634095931558	adult	0.0		46.0	face	adult-19.jpg	0.0	185.54176188956853	0.3833036357614219
176.0	88.19976086989982	pulse	0.0	t		face	adult-19.jpg	0.0	185.72518180015277	
176.0	88.399644595077	ISI	1.0		6.0	face	adult-19.jpg	0.0	185.92506552532996	0.11668836506214575
177.0	88.51633296013915	adult	0.0		46.0	face	adult-25.jpg	0.0	186.0417538903921	0.3833018246273241
177.0	88.89963478476648	ISI	1.0		7.0	face	adult-25.jpg	0.0	186.42505571501943	0.1166877613500219
177.0	88.93736252358622	pulse	1.0	t		face	adult-25.jpg	0.0	186.46278345383917	
178.0	89.0163225461165	adult	0.0		46.0	face	adult-48.jpg	0.0	186.54174347636945	0.38330786174174136
178.0	89.39963040785824	ISI	1.0		6.0	face	adult-48.jpg	0.0	186.9250513381112	0.11668383722599174
179.0	89.51631424508423	adult	0.0		46.0	face	adult-40.jpg	0.0	187.04173517533718	0.3832975986474594
179.0	89.59974173224737	pulse	0.0	t		face	adult-40.jpg	0.0	187.12516266250032	
179.0	89.89961184373169	ISI	1.0		6.0	face	adult-40.jpg	0.0	187.42503277398464	0.11669228918617591
180.0	90.01630413291787	house	0.0		46.0	place	house-102.jpg	0.0	187.54172506317082	0.38327556317972267
180.0	90.29972340960512	pulse	0.0	t		place	house-102.jpg	0.0	187.82514433985807	
180.0	90.39957969609759	ISI	1.0		6.0	place	house-102.jpg	0.0	187.92500062635054	0.11671462650929243
181.0	90.51629432260688	house	0.0		46.0	place	house-123.jpg	0.0	188.04171525285983	0.38329427823464357
181.0	90.89958860084153	ISI	1.0		3.0	place	house-123.jpg	0.0	188.42500953109447	0.11669923186764208
182.0	91.01628783270917	house	0.0		45.0	place	house-130.jpg	0.0	188.54170876296212	0.3833211433930046
182.0	91.00602836055214	pulse	0.0	t		place	house-130.jpg	0.0	188.53144929080509	
182.0	91.39960897610217	ISI	1.0		6.0	place	house-130.jpg	0.0	188.92502990635512	0.11666904629601049
183.0	91.51627802239818	house	0.0		46.0	place	house-79.jpg	0.0	189.04169895265113	0.38330242833853845
183.0	91.6996991404053	pulse	0.0	t		place	house-79.jpg	0.0	189.22512007065825	
183.0	91.89958045073672	ISI	1.0		7.0	place	house-79.jpg	0.0	189.42500138098967	0.1166910817637472
184.0	92.01627153250047	house	0.0		46.0	place	house-15.jpg	0.0	189.54169246275342	0.3832686204982565
184.0	92.39954015299872	ISI	1.0		5.0	place	house-15.jpg	0.0	189.92496108325167	0.11668534650470974
184.0	92.44859080167134	pulse	1.0	t		place	house-15.jpg	0.0	189.9740117319243	
185.0	92.51622549950343	house	0.0		46.0	place	house-128.jpg	0.0	190.04164642975638	0.3833051450401399
185.0	92.89953064454357	ISI	1.0		5.0	place	house-128.jpg	0.0	190.42495157479652	0.116688365061691
186.0	93.01621900960527	house	0.0		46.0	place	house-7.jpg	0.0	190.54163993985821	0.383302730194373
186.0	93.0996673248128	pulse	0.0	t		place	house-7.jpg	0.0	190.62508825506575	
186.0	93.39952173979964	ISI	1.0		7.0	place	house-7.jpg	0.0	190.9249426700526	0.1166880632063112
187.0	93.51620980300595	house	0.0		46.0	place	house-40.jpg	0.0	191.0416307332589	0.38330484318430535
187.0	93.7996290796932	pulse	0.0	t		place	house-40.jpg	0.0	191.32505000994615	
187.0	93.89951464619026	ISI	1.0		7.0	place	house-40.jpg	0.0	191.4249355764432	0.11668444093766084
188.0	94.01619908712792	house	0.0		46.0	place	house-44.jpg	0.0	191.54162001738086	0.38330635246302336
188.0	94.39950543959094	ISI	1.0		6.0	place	house-44.jpg	0.0	191.9249263698439	0.11668021495734138
189.0	94.51618565454828	house	0.0		45.0	place	house-97.jpg	0.0	192.04160658480123	0.3833111821545572
189.0	94.50622501955286	pulse	0.0	t		place	house-97.jpg	0.0	192.0316459498058	
189.0	94.89949683670284	ISI	1.0		7.0	place	house-97.jpg	0.0	192.4249177669558	0.1166865539275932
190.0	95.01618339063043	house	0.0		46.0	place	house-104.jpg	0.0	192.54160432088338	0.38330363576187665
190.0	95.19960420678217	pulse	0.0	t		place	house-104.jpg	0.0	192.72502513703512	
190.0	95.39948702639231	ISI	1.0		4.0	place	house-104.jpg	0.0	192.92490795664526	0.116688365061691
191.0	95.516175391454	house	0.0		46.0	place	house-62.jpg	0.0	193.04159632170695	0.38330212648315864
191.0	95.89947751793716	ISI	1.0		6.0	place	house-62.jpg	0.0	193.4248984481901	0.116686855782973
191.0	95.9402539995126	pulse	1.0	t		place	house-62.jpg	0.0	193.46567492976556	
192.0	96.01616437372013	adult	0.0		46.0	face	adult-124.jpg	0.0	193.54158530397308	0.38330635246302336
192.0	96.39947072618315	ISI	1.0		6.0	face	adult-124.jpg	0.0	193.9248916564361	0.11668534650470974
193.0	96.51615607268786	adult	0.0		46.0	face	adult-1.jpg	0.0	194.0415770029408	0.38330544689597446
193.0	96.59957782459242	pulse	0.0	t		face	adult-1.jpg	0.0	194.12499875484536	
193.0	96.89946151958384	ISI	1.0		6.0	face	adult-1.jpg	0.0	194.4248824498368	0.11668383722599174
194.0	97.01614535680983	adult	0.0		46.0	face	adult-31.jpg	0.0	194.54156628706278	0.3833048431847601
194.0	97.29956523720875	pulse	0.0	t		face	adult-31.jpg	0.0	194.8249861674617	
194.0	97.39945019999459	ISI	1.0		6.0	face	adult-31.jpg	0.0	194.92487113024754	0.11668866691752555
195.0	97.51613886691212	adult	0.0		46.0	face	adult-20.jpg	0.0	195.04155979716506	0.383302730194373
195.0	97.89944159710649	ISI	1.0		7.0	face	adult-20.jpg	0.0	195.42486252735944	0.11668112052484503
196.0	98.01612271763133	adult	0.0		45.0	face	adult-100.jpg	0.0	195.54154364788428	0.3833410658703542
196.0	98.00609265582034	pulse	0.0	t		face	adult-100.jpg	0.0	195.5315135860733	
196.0	98.39946378350169	ISI	1.0		3.0	face	adult-100.jpg	0.0	195.92488471375464	0.11669349660905937
197.0	98.51615728011075	adult	0.0		46.0	face	adult-120.jpg	0.0	196.0415782103637	0.38329971163739174
197.0	98.69957326657095	pulse	0.0	t		face	adult-120.jpg	0.0	196.2249941968239	
197.0	98.89945699174814	ISI	1.0		7.0	face	adult-120.jpg	0.0	196.4248779220011	0.11668866691752555
198.0	99.01614565866566	adult	0.0		46.0	face	adult-130.jpg	0.0	196.5415665889186	0.3833000134932263
198.0	99.39944567215889	ISI	1.0		6.0	face	adult-130.jpg	0.0	196.92486660241184	0.11669228918617591
198.0	99.44584663133537	pulse	1.0	t		face	adult-130.jpg	0.0	196.97126756158832	
199.0	99.51613796134507	adult	0.0		46.0	face	adult-90.jpg	0.0	197.04155889159802	0.38330001349277154
199.0	99.89943797483784	ISI	1.0		6.0	face	adult-90.jpg	0.0	197.4248589050908	0.116688365061691
200.0	100.01612633989953	adult	0.0		46.0	face	adult-44.jpg	0.0	197.54154727015248	0.38330514504059465
200.0	100.09954839365946	pulse	0.0	t		face	adult-44.jpg	0.0	197.6249693239124	
200.0	100.39943148494012	ISI	1.0		6.0	face	adult-44.jpg	0.0	197.92485241519307	0.1166874594946421
201.0	100.51611894443477	adult	0.0		46.0	face	adult-138.jpg	0.0	198.04153987468771	0.3833051450401399
201.0	100.79953339143049	pulse	0.0	t		face	adult-138.jpg	0.0	198.32495432168344	
201.0	100.8994240894749	ISI	1.0		7.0	face	adult-138.jpg	0.0	198.42484501972785	0.11668444093766084
202.0	101.01610853041257	adult	0.0		46.0	face	adult-101.jpg	0.0	198.54152946066552	0.3833036357614219
202.0	101.39941216617399	ISI	1.0		7.0	face	adult-101.jpg	0.0	198.92483309642694	0.11668715763880755
203.0	101.5160993238128	adult	0.0		45.0	face	adult-93.jpg	0.0	199.04152025406574	0.3833033339060421
203.0	101.50599560920682	pulse	0.0	t		face	adult-93.jpg	0.0	199.03141653945977	
203.0	101.89940265771884	ISI	1.0		6.0	face	adult-93.jpg	0.0	199.4248235879718	0.11668081866901048
204.0	102.01608347638785	car	0.0		46.0	object	car-42.jpg	0.0	199.5415044066408	0.3833108802987226
204.0	102.19950912223067	pulse	0.0	t		object	car-42.jpg	0.0	199.72493005248361	
204.0	102.39939435668657	ISI	1.0		6.0	object	car-42.jpg	0.0	199.92481528693952	0.11668504464887519
205.0	102.51607940133545	car	0.0		46.0	object	car-41.jpg	0.0	200.0415003315884	0.38330725803007226
205.0	102.89938665936552	ISI	1.0		6.0	object	car-41.jpg	0.0	200.42480758961847	0.11668836506214575
205.0	102.93990052646632	pulse	1.0	t		object	car-41.jpg	0.0	200.46532145671927	
206.0	103.01607502442766	car	0.0		46.0	object	car-78.jpg	0.0	200.5414959546806	0.38330333390558735
206.0	103.39937835833325	ISI	1.0		3.0	object	car-78.jpg	0.0	200.9247992885862	0.11668595021637884
207.0	103.51606430854963	car	0.0		46.0	object	car-109.jpg	0.0	201.04148523880258	0.38330212648315864
207.0	103.59948636230956	pulse	0.0	t		object	car-109.jpg	0.0	201.1249072925625	
207.0	103.89936643503279	ISI	1.0		7.0	object	car-109.jpg	0.0	201.42478736528574	0.11669168547450681
208.0	104.0160581205073	car	0.0		46.0	object	car-24.jpg	0.0	201.54147905076024	0.3833009190602752
208.0	104.29947136008013	pulse	0.0	t		object	car-24.jpg	0.0	201.82489229033308	
208.0	104.39935903956757	ISI	1.0		6.0	object	car-24.jpg	0.0	201.92477996982052	0.11668866691752555
209.0	104.5160477064851	car	0.0		46.0	object	car-53.jpg	0.0	202.04146863673805	0.38330393761725645
209.0	104.89935164410235	ISI	1.0		7.0	object	car-53.jpg	0.0	202.4247725743553	0.11667900753445792
210.0	105.01603065163681	car	0.0		45.0	object	car-53.jpg	1.0	202.54145158188976	0.3833090691646248
210.0	105.0059166739361	pulse	0.0	t		object	car-53.jpg	1.0	202.53133760418905	
210.0	105.39933972080144	ISI	1.0		4.0	object	car-53.jpg	1.0	202.92476065105438	0.11668232794772848
211.0	105.51602204874916	car	0.0		45.0	object	car-66.jpg	0.0	203.0414429790021	0.38330967287583917
211.0	105.50582294773585	response	0.0	b		object	car-66.jpg	0.0	203.0312438779888	
211.0	105.69944286490045	pulse	0.0	t		object	car-66.jpg	0.0	203.2248637951534	
211.0	105.899331721625	ISI	1.0		6.0	object	car-66.jpg	0.0	203.42475265187795	0.1166880632063112
212.0	106.01601978483131	car	0.0		46.0	object	car-13.jpg	0.0	203.54144071508426	0.3833036357614219
212.0	106.39932342059274	ISI	1.0		7.0	object	car-13.jpg	0.0	203.92474435084569	0.11669017619624356
212.0	106.43905880179591	pulse	1.0	t		object	car-13.jpg	0.0	203.96447973204886	
213.0	106.51601359678898	car	0.0		46.0	object	car-28.jpg	0.0	204.04143452704193	0.3833009190602752
213.0	106.89931451584926	ISI	1.0		7.0	object	car-28.jpg	0.0	204.4247354461022	0.116689874340409
214.0	107.01600439018966	car	0.0		46.0	object	car-128.jpg	0.0	204.5414253204426	0.38329820235867373
214.0	107.09942312353633	pulse	0.0	t		object	car-128.jpg	0.0	204.62484405378927	
214.0	107.39930259254834	ISI	1.0		7.0	object	car-128.jpg	0.0	204.9247235228013	0.11669379846443917
215.0	107.51599639101278	car	0.0		46.0	object	car-127.jpg	0.0	205.04141732126573	0.3832628852396738
215.0	107.79936586150689	pulse	0.0	t		object	car-127.jpg	0.0	205.32478679175983	
215.0	107.89925927625245	ISI	1.0		6.0	object	car-127.jpg	0.0	205.4246802065054	0.11669108176329246
216.0	108.01595035801574	word	0.0		46.0	character	word-96.jpg	0.0	205.5413712882687	0.3833217471046737
216.0	108.39927210512042	ISI	1.0		3.0	character	word-96.jpg	0.0	205.92469303537337	0.11666421660447668
217.0	108.5159363217249	word	0.0		45.0	character	word-129.jpg	0.0	206.04135725197784	0.38330937102045937
217.0	108.50581630690976	pulse	0.0	t		character	word-129.jpg	0.0	206.0312372371627	
217.0	108.89924569274535	ISI	1.0		6.0	character	word-129.jpg	0.0	206.4246666229983	0.1166859502159241
218.0	109.01593164296128	word	0.0		46.0	character	word-82.jpg	0.0	206.54135257321423	0.383307258030527
218.0	109.19935547767	pulse	0.0	t		character	word-82.jpg	0.0	206.72477640792295	
218.0	109.3992389009918	ISI	1.0		6.0	character	word-82.jpg	0.0	206.92465983124475	0.11668564836008954
219.0	109.5159245493519	word	0.0		46.0	character	word-106.jpg	0.0	207.04134547960484	0.38330605060764356
219.0	109.89923059995954	ISI	1.0		6.0	character	word-106.jpg	0.0	207.4246515302125	0.11671070238480752
219.0	109.94667084837465	pulse	1.0	t		character	word-106.jpg	0.0	207.4720917786276	
220.0	110.01594130234434	word	0.0		46.0	character	word-15.jpg	0.0	207.5413622325973	0.38327978916004213
220.0	110.39922109150439	ISI	1.0		6.0	character	word-15.jpg	0.0	207.92464202175734	0.11668625207175864
221.0	110.51590734357615	word	0.0		46.0	character	word-54.jpg	0.0	208.0413282738291	0.3833036357614219
221.0	110.59933211403722	pulse	0.0	t		character	word-54.jpg	0.0	208.12475304429017	
221.0	110.89921097933757	ISI	1.0		6.0	character	word-54.jpg	0.0	208.42463190959052	0.1166880632063112
222.0	111.01589904254388	word	0.0		46.0	character	word-126.jpg	0.0	208.54131997279683	0.3833036357614219
222.0	111.2993153006737	pulse	0.0	t		character	word-126.jpg	0.0	208.82473623092665	
222.0	111.3992026783053	ISI	1.0		4.0	character	word-126.jpg	0.0	208.92462360855825	0.11668625207175864
223.0	111.51588893037706	word	0.0		46.0	character	word-118.jpg	0.0	209.04130986063	0.38330454132892555
223.0	111.89919347170598	ISI	1.0		6.0	character	word-118.jpg	0.0	209.42461440195893	0.11668021495734138
224.0	112.01587368666333	word	0.0		45.0	character	word-138.jpg	0.0	209.54129461691628	0.3833105784433428
224.0	112.00571895844087	pulse	0.0	t		character	word-138.jpg	0.0	209.53113988869382	
224.0	112.39918426510667	ISI	1.0		6.0	character	word-138.jpg	0.0	209.92460519535962	0.11668806320585645
225.0	112.51587232831253	word	0.0		46.0	character	word-141.jpg	0.0	210.04129325856547	0.38330454132892555
225.0	112.69929284260843	pulse	0.0	t		character	word-141.jpg	0.0	210.22471377286138	
225.0	112.89917686964145	ISI	1.0		6.0	character	word-141.jpg	0.0	210.4245977998944	0.11668504464887519
226.0	113.01586191429033	word	0.0		46.0	character	word-18.jpg	0.0	210.54128284454328	0.38330454132892555
226.0	113.39916645561925	ISI	1.0		5.0	character	word-18.jpg	0.0	210.9245873858722	0.1166892706287399
226.0	113.45103673855738	pulse	1.0	t		character	word-18.jpg	0.0	210.97645766881033	
227.0	113.51585572624799	word	0.0		46.0	character	word-64.jpg	0.0	211.04127665650094	0.3833332176222939
227.0	113.89918894387029	ISI	1.0		7.0	character	word-64.jpg	0.0	211.42460987412323	0.11669017619624356
228.0	114.01587912006653	word	0.0		46.0	character	word-63.jpg	0.0	211.54130005031948	0.38330242833853845
228.0	114.09930087197063	pulse	0.0	t		character	word-63.jpg	0.0	211.62472180222358	
228.0	114.39918154840507	ISI	1.0		6.0	character	word-63.jpg	0.0	211.92460247865802	0.11667266856466085
229.0	114.51585421696973	word	0.0		46.0	character	word-47.jpg	0.0	212.04127514722268	0.38331721926897444
229.0	114.79928526602998	pulse	0.0	t		character	word-47.jpg	0.0	212.32470619628293	
229.0	114.8991714362387	ISI	1.0		6.0	character	word-47.jpg	0.0	212.42459236649165	0.11668866691752555
230.0	115.01586010315623	word	0.0		46.0	character	word-41.jpg	0.0	212.54128103340918	0.383304239473091
230.0	115.39916434262932	ISI	1.0		7.0	character	word-41.jpg	0.0	212.92458527288227	0.11668202609143918
231.0	115.51584636872076	word	0.0		45.0	character	word-4.jpg	0.0	213.0412672989737	0.38330876730879027
231.0	115.50597840343062	pulse	0.0	t		character	word-4.jpg	0.0	213.03139933368357	
231.0	115.89915513602955	ISI	1.0		6.0	character	word-4.jpg	0.0	213.4245760662825	0.11668745949509685
232.0	116.01584259552465	word	0.0		46.0	character	word-123.jpg	0.0	213.5412635257776	0.3833045413284708
232.0	116.199273071059	pulse	0.0	t		character	word-123.jpg	0.0	213.72469400131195	
232.0	116.39914713685312	ISI	1.0		6.0	character	word-123.jpg	0.0	213.92456806710607	0.11668625207175864
233.0	116.51583338892488	word	0.0		46.0	character	word-62.jpg	0.0	214.04125431917782	0.38330393761725645
233.0	116.89913732654213	ISI	1.0		6.0	character	word-62.jpg	0.0	214.42455825679508	0.1166904780520781
233.0	116.94137388422814	pulse	1.0	t		character	word-62.jpg	0.0	214.4667948144811	
234.0	117.01582780459421	word	0.0		47.0	character	word-5.jpg	0.0	214.54124873484716	0.391631835032058
234.0	117.40745963962627	ISI	1.0		5.0	character	word-5.jpg	0.0	214.93288056987922	0.10835412867709238
235.0	117.51581376830336	word	0.0		47.0	character	word-83.jpg	0.0	215.0412346985563	0.3916372684352609
235.0	117.59923672763034	pulse	0.0	t		character	word-83.jpg	0.0	215.1246576578833	
235.0	117.90745103673862	ISI	1.0		5.0	character	word-83.jpg	0.0	215.43287196699157	0.10835835465695709
236.0	118.01580939139558	word	0.0		47.0	character	word-13.jpg	0.0	215.54123032164853	0.39160285688330987
236.0	118.299193049108	pulse	0.0	t		character	word-13.jpg	0.0	215.82461397936095	
236.0	118.40741224827889	ISI	1.0		6.0	character	word-13.jpg	0.0	215.93283317853184	0.11668564836008954
237.0	118.52409789663898	word	0.0		46.0	character	word-17.jpg	0.0	216.04951882689193	0.3833048431847601
237.0	118.90740273982374	ISI	1.0		7.0	character	word-17.jpg	0.0	216.4328236700767	0.11680578693631105
237.0	118.9991738208987	pulse	1.0	t		character	word-17.jpg	0.0	216.52459475115165	
238.0	119.02420852676005	word	0.0		46.0	character	word-19.jpg	0.0	216.549629457013	0.3831847046085386
238.0	119.40739323136859	ISI	1.0		7.0	character	word-19.jpg	0.0	216.93281416162154	0.11669198733034136
239.0	119.52408521869893	word	0.0		46.0	character	word-43.jpg	0.0	217.04950614895188	0.38329759864700463
239.0	119.69917904300246	pulse	0.0	t		character	word-43.jpg	0.0	217.2245999732554	
239.0	119.90738281734593	ISI	1.0		3.0	character	word-43.jpg	0.0	217.43280374759888	0.1166886669179803
240.0	120.02407148426391	body	0.0		46.0	body	body-135.jpg	0.0	217.54949241451686	0.38330333390558735
240.0	120.39915257025632	pulse	0.0	t		body	body-135.jpg	0.0	217.92457350050927	
240.0	120.4073748181695	ISI	1.0		6.0	body	body-135.jpg	0.0	217.93279574842245	0.1166880632063112
241.0	120.52406288137581	body	0.0		46.0	body	body-85.jpg	0.0	218.04948381162876	0.38330635246302336
241.0	120.90736923383884	ISI	1.0		8.0	body	body-85.jpg	0.0	218.43279016409178	0.11668444093766084
242.0	121.0240536747765	body	0.0		46.0	body	body-85.jpg	1.0	218.54947460502945	0.38330242833853845
242.0	121.09914662369829	pulse	0.0	t		body	body-85.jpg	1.0	218.62456755395124	
242.0	121.40735610311503	ISI	1.0		7.0	body	body-85.jpg	1.0	218.93277703336798	0.11669138361912701
243.0	121.52404748673416	body	0.0		46.0	body	body-138.jpg	0.0	219.0494684169871	0.38330242833853845
243.0	121.6158001546105	response	0.0	b		body	body-138.jpg	0.0	219.14122108486345	
243.0	121.79909992661896	pulse	0.0	t		body	body-138.jpg	0.0	219.3245208568719	
243.0	121.9073499150727	ISI	1.0		6.0	body	body-138.jpg	0.0	219.43277084532565	0.11670677826077736
244.0	122.02405669333348	body	0.0		46.0	body	body-50.jpg	0.0	219.54947762358643	0.38328310957285794
244.0	122.40733980290634	ISI	1.0		7.0	body	body-50.jpg	0.0	219.93276073315928	0.12502290330257892
244.0	122.4991344287273	pulse	1.0	t		body	body-50.jpg	0.0	220.02455535898025	
245.0	122.53236270620891	body	0.0		45.0	body	body-69.jpg	0.0	220.05778363646186	0.37496939937636853
245.0	122.90733210558528	ISI	1.0		7.0	body	body-69.jpg	0.0	220.43275303583823	0.1166880632063112
246.0	123.0240201687916	body	0.0		46.0	body	body-37.jpg	0.0	220.54944109904454	0.38330303205020755
246.0	123.19910433371251	pulse	0.0	t		body	body-37.jpg	0.0	220.72452526396546	
246.0	123.4073232008418	ISI	1.0		6.0	body	body-37.jpg	0.0	220.93274413109475	0.11668625207175864
247.0	123.52400945291356	body	0.0		46.0	body	body-67.jpg	0.0	221.0494303831665	0.383304239473091
247.0	123.89908993519475	pulse	0.0	t		body	body-67.jpg	0.0	221.4245108654477	
247.0	123.90731369238665	ISI	1.0		7.0	body	body-67.jpg	0.0	221.4327346226396	0.1166859502159241
248.0	124.02399964260258	body	0.0		46.0	body	body-116.jpg	0.0	221.54942057285552	0.3833356324680608
248.0	124.40733527507064	ISI	1.0		7.0	body	body-116.jpg	0.0	221.93275620532359	0.1166723667088263
249.0	124.52400764177946	body	0.0		46.0	body	body-90.jpg	0.0	222.0494285720324	0.38328914668682046
249.0	124.59906829213969	pulse	0.0	t		body	body-90.jpg	0.0	222.12448922239264	
249.0	124.90729678846628	ISI	1.0		6.0	body	body-90.jpg	0.0	222.43271771871923	0.11668685578342775
250.0	125.02398364424971	body	0.0		46.0	body	body-18.jpg	0.0	222.54940457450266	0.3833033339060421
250.0	125.2990789476462	pulse	0.0	t		body	body-18.jpg	0.0	222.82449987789914	
250.0	125.40728697815575	ISI	1.0		6.0	body	body-18.jpg	0.0	222.9327079084087	0.1166865539275932
251.0	125.52397353208335	body	0.0		46.0	body	body-126.jpg	0.0	223.0493944623363	0.38330393761725645
251.0	125.9072774697006	ISI	1.0		7.0	body	body-126.jpg	0.0	223.43269839995355	0.12502048845681202
251.0	125.99906575655132	pulse	1.0	t		body	body-126.jpg	0.0	223.52448668680427	
252.0	126.03229795815741	word	0.0		45.0	character	word-103.jpg	0.0	223.55771888841036	0.374969097520534
252.0	126.40726705567795	ISI	1.0		8.0	character	word-103.jpg	0.0	223.9326879859309	0.11669198733079611
253.0	126.52395904300874	word	0.0		46.0	character	word-103.jpg	1.0	224.0493799732617	0.38330242833853845
253.0	126.69904200050632	pulse	0.0	t		character	word-103.jpg	1.0	224.22446293075927	
253.0	126.90726147134728	ISI	1.0		5.0	character	word-103.jpg	1.0	224.43268240160023	0.11668444093766084
254.0	127.02394591228494	word	0.0		46.0	character	word-50.jpg	0.0	224.5493668425379	0.38330574875135426
254.0	127.11569858016128	response	0.0	b		character	word-50.jpg	0.0	224.64111951041423	
254.0	127.39900345353135	pulse	0.0	t		character	word-50.jpg	0.0	224.9244243837843	
254.0	127.4072516610363	ISI	1.0		7.0	character	word-50.jpg	0.0	224.93267259128925	0.11669077990791266
255.0	127.52394244094421	word	0.0		46.0	character	word-48.jpg	0.0	225.04936337119716	0.383302730194373
255.0	127.90724517113858	ISI	1.0		5.0	character	word-48.jpg	0.0	225.43266610139153	0.10834869527388946
256.0	128.01559386641247	word	0.0		47.0	character	word-102.jpg	0.0	225.54101479666542	0.3916387777139789
256.0	128.09902105171977	pulse	0.0	t		character	word-102.jpg	0.0	225.62444198197272	
256.0	128.40723264412645	ISI	1.0		6.0	character	word-102.jpg	0.0	225.9326535743794	0.10835443053247218
257.0	128.51558707465892	word	0.0		47.0	character	word-112.jpg	0.0	226.04100800491187	0.3916372684352609
257.0	128.799006653202	pulse	0.0	t		character	word-112.jpg	0.0	226.32442758345496	
257.0	128.90722434309419	ISI	1.0		5.0	character	word-112.jpg	0.0	226.43264527334713	0.10835805280112254
258.0	129.0155823958953	word	0.0		47.0	character	word-42.jpg	0.0	226.54100332614826	0.39163123132084365
258.0	129.40721362721615	ISI	1.0		2.0	character	word-42.jpg	0.0	226.9326345574691	0.11667961124567228
258.0	129.49899466953002	pulse	1.0	t		character	word-42.jpg	0.0	227.02441559978297	
259.0	129.52389323846182	word	0.0		46.0	character	word-99.jpg	0.0	227.04931416871477	0.38331933225936154
259.0	129.90721257072119	ISI	1.0		6.0	character	word-99.jpg	0.0	227.43263350097413	0.10833239506473546
260.0	130.01554496578592	word	0.0		47.0	character	word-31.jpg	0.0	227.54096589603887	0.391648135241212
260.0	130.19897906358938	pulse	0.0	t		character	word-31.jpg	0.0	227.72439999384233	
260.0	130.40719310102713	ISI	1.0		5.0	character	word-31.jpg	0.0	227.93261403128008	0.10835714723407364
261.0	130.5155502482612	word	0.0		47.0	character	word-3.jpg	0.0	228.04097117851416	0.3916707744197083
261.0	130.899000284046	pulse	0.0	t		character	word-3.jpg	0.0	228.42442121429895	
261.0	130.90722102268091	ISI	1.0		6.0	character	word-3.jpg	0.0	228.43264195293386	0.11668987434086375
262.0	131.02391089702178	word	0.0		46.0	character	word-117.jpg	0.0	228.54933182727473	0.38330001349277154
262.0	131.40721091051455	ISI	1.0		5.0	character	word-117.jpg	0.0	228.9326318407675	0.11669500588777737
263.0	131.52390591640233	word	0.0		46.0	character	word-100.jpg	0.0	229.04932684665528	0.3832994097815572
263.0	131.59898618738407	pulse	0.0	t		character	word-100.jpg	0.0	229.12440711763702	
263.0	131.90720532618388	ISI	1.0		2.0	character	word-100.jpg	0.0	229.43262625643683	0.11668564836008954
264.0	132.02389097454397	house	0.0		46.0	place	house-65.jpg	0.0	229.54931190479692	0.3832710353440234
264.0	132.29894281071756	pulse	0.0	t		place	house-65.jpg	0.0	229.8243637409705	
264.0	132.407162009888	ISI	1.0		6.0	place	house-65.jpg	0.0	229.93258294014095	0.11666844258479614
265.0	132.5238304524728	house	0.0		46.0	place	house-22.jpg	0.0	230.04925138272574	0.38332325638293696
265.0	132.90715370885573	ISI	1.0		6.0	place	house-22.jpg	0.0	230.43257463910868	0.11669017619624356
265.0	132.99892418621948	pulse	1.0	t		place	house-22.jpg	0.0	230.52434511647243	
266.0	133.02384388505197	house	0.0		46.0	place	house-91.jpg	0.0	230.54926481530492	0.3833003153486061
266.0	133.40714420040058	ISI	1.0		7.0	place	house-91.jpg	0.0	230.93256513065353	0.1166895724850292
267.0	133.5238337728856	house	0.0		46.0	place	house-24.jpg	0.0	231.04925470313856	0.383302730194373
267.0	133.69891733409486	pulse	0.0	t		place	house-24.jpg	0.0	231.2243382643478	
267.0	133.90713650307998	ISI	1.0		8.0	place	house-24.jpg	0.0	231.43255743333293	0.11668323351477738
268.0	134.02381973659476	house	0.0		46.0	place	house-72.jpg	0.0	231.5492406668477	0.38330816359712117
268.0	134.39890263372126	pulse	0.0	t		place	house-72.jpg	0.0	231.9243235639742	
268.0	134.40712790019188	ISI	1.0		4.0	place	house-72.jpg	0.0	231.93254883044483	0.11668685578342775
269.0	134.5238147559753	house	0.0		46.0	place	house-117.jpg	0.0	232.04923568622826	0.38330303205020755
269.0	134.90711778802552	ISI	1.0		6.0	place	house-117.jpg	0.0	232.43253871827847	0.11670043929052554
270.0	135.02381822731604	house	0.0		46.0	place	house-112.jpg	0.0	232.549239157569	0.38329216524425647
270.0	135.09889849829779	pulse	0.0	t		place	house-112.jpg	0.0	232.62431942855073	
270.0	135.4071103925603	ISI	1.0		7.0	place	house-112.jpg	0.0	232.93253132281325	0.116688365061691
271.0	135.523798757622	house	0.0		46.0	place	house-112.jpg	1.0	233.04921968787494	0.38330031534906084
271.0	135.79887836452144	pulse	0.0	t		place	house-112.jpg	1.0	233.3242992947744	
271.0	135.90709907297105	ISI	1.0		5.0	place	house-112.jpg	1.0	233.432520003224	0.1166874594946421
272.0	136.0237865324657	house	0.0		46.0	place	house-60.jpg	0.0	233.54920746271864	0.383292467100091
272.0	136.40707899956578	ISI	1.0		7.0	place	house-60.jpg	0.0	233.93249992981873	0.12503437381974436
272.0	136.49886336229247	pulse	1.0	t		place	house-60.jpg	0.0	234.02428429254542	
273.0	136.53211337338553	house	0.0		45.0	place	house-43.jpg	0.0	234.05753430363848	0.3749690975209887
273.0	136.90708247090652	ISI	1.0		6.0	place	house-43.jpg	0.0	234.43250340115947	0.11668806320585645
274.0	137.02377053411237	house	0.0		46.0	place	house-84.jpg	0.0	234.54919146436532	0.3833018246273241
274.0	137.19885318975457	pulse	0.0	t		place	house-84.jpg	0.0	234.72427412000752	
274.0	137.4070723587397	ISI	1.0		6.0	place	house-84.jpg	0.0	234.93249328899265	0.11669530774361192
275.0	137.5237676664833	house	0.0		46.0	place	house-54.jpg	0.0	235.04918859673626	0.383299711636937
275.0	137.89884090422674	pulse	0.0	t		place	house-54.jpg	0.0	235.4242618344797	
275.0	137.90706737812025	ISI	1.0		11.0	place	house-54.jpg	0.0	235.4324883083732	0.09999604569020448
276.0	138.00706342381045	baseline	0.0		48.0		baseline	0.0	235.5324843540634	0.4000635708143818
276.0	138.40712699462483	ISI	1.0		11.0		baseline	0.0	235.93254792487778	0.09997763249111813
277.0	138.50710462711595	baseline	0.0		48.0		baseline	0.0	236.0325255573689	0.4000128590537315
277.0	138.59890166778314	pulse	0.0	t			baseline	0.0	236.1243225980361	
277.0	138.90711748616968	ISI	1.0		11.0		baseline	0.0	236.43253841642263	0.10000057352590375
278.0	139.00711805969559	baseline	0.0		48.0		baseline	0.0	236.53253898994853	0.3999923328647128
278.0	139.298882137718	pulse	0.0	t			baseline	0.0	236.82430306797096	
278.0	139.4071103925603	ISI	1.0		11.0		baseline	0.0	236.93253132281325	0.09997733063573833
279.0	139.50708772319604	baseline	0.0		48.0		baseline	0.0	237.03250865344899	0.4000116516303933
279.0	139.90709937482643	ISI	1.0		11.0		baseline	0.0	237.43252030507938	0.09999846053597139
279.0	139.99887287074762	pulse	1.0	t			baseline	0.0	237.52429380100057	
280.0	140.0070978353624	baseline	0.0		48.0		baseline	0.0	237.53251876561535	0.3999814660587617
280.0	140.40707930142116	ISI	1.0		11.0		baseline	0.0	237.9325002316741	0.0999857825959225
281.0	140.50706508401709	baseline	0.0		48.0		baseline	0.0	238.03248601427003	0.39999625698874297
281.0	140.69885364253832	pulse	0.0	t			baseline	0.0	238.22427457279127	
281.0	140.90706134100583	ISI	1.0		11.0		baseline	0.0	238.43248227125878	0.10000600692910666
282.0	141.00706734793494	baseline	0.0		48.0		baseline	0.0	238.53248827818788	0.39999504956631426
282.0	141.39883894216473	pulse	0.0	t			baseline	0.0	238.92425987241768	
282.0	141.40706239750125	ISI	1.0		11.0		baseline	0.0	238.9324833277542	0.09998487702841885
283.0	141.50704727452967	baseline	0.0		48.0		baseline	0.0	239.03246820478262	0.4000167831777617
283.0	141.90706405770743	ISI	1.0		11.0		baseline	0.0	239.43248498796038	0.10000389393871956
284.0	142.00706795164615	baseline	0.0		48.0		baseline	0.0	239.5324888818991	0.39998629575029554
284.0	142.09882907148267	pulse	0.0	t			baseline	0.0	239.62425000173562	
284.0	142.40705424739645	ISI	1.0		11.0		baseline	0.0	239.9324751776494	0.09997914177029088
285.0	142.50703338916674	baseline	0.0		48.0		baseline	0.0	240.03245431941968	0.4000113497750135
285.0	142.79883006760656	pulse	0.0	t			baseline	0.0	240.3242509978595	
285.0	142.90704473894175	ISI	1.0		11.0		baseline	0.0	240.4324656691947	0.1000011772371181
286.0	143.00704591617887	baseline	0.0		48.0		baseline	0.0	240.53246684643182	0.3999923328647128
286.0	143.40703824904358	ISI	1.0		11.0		baseline	0.0	240.93245917929653	0.10000057352590375
286.0	143.49881325424303	pulse	1.0	t			baseline	0.0	241.02423418449598	
287.0	143.50703882256948	baseline	0.0		48.0		baseline	0.0	241.03245975282243	0.39999021987478045
287.0	143.90702904244426	ISI	1.0		4.0		baseline	0.0	241.4324499726972	0.11664852010699178
288.0	144.02367756255126	body	0.0		46.0	body	body-105.jpg	0.0	241.5490984928042	0.38325654626942196
288.0	144.19873063633304	pulse	0.0	t		body	body-105.jpg	0.0	241.724151566586	
288.0	144.40693410882068	ISI	1.0		3.0	body	body-105.jpg	0.0	241.93235503907363	0.11671160795231117
289.0	144.523645716773	body	0.0		46.0	body	body-103.jpg	0.0	242.04906664702594	0.38329729679162483
289.0	144.89872167121803	pulse	0.0	t		body	body-103.jpg	0.0	242.42414260147098	
289.0	144.90694301356461	ISI	1.0		6.0	body	body-103.jpg	0.0	242.43236394381756	0.11668323351432264
290.0	145.02362624707894	body	0.0		46.0	body	body-64.jpg	0.0	242.5490471773319	0.38330454132892555
290.0	145.40693078840786	ISI	1.0		5.0	body	body-64.jpg	0.0	242.9323517186608	0.11666723516145794
291.0	145.52359802356932	body	0.0		46.0	body	body-136.jpg	0.0	243.04901895382227	0.3833256712291586
291.0	145.59870576342155	pulse	0.0	t		body	body-136.jpg	0.0	243.1241266936745	
291.0	145.90692369479848	ISI	1.0		7.0	body	body-136.jpg	0.0	243.43234462505143	0.11668444093766084
292.0	146.02360813573614	body	0.0		46.0	body	body-136.jpg	1.0	243.5490290659891	0.38330484318430535
292.0	146.29869166675962	pulse	0.0	t		body	body-136.jpg	1.0	243.82411259701257	
292.0	146.40691297892045	ISI	1.0		5.0	body	body-136.jpg	1.0	243.9323339091734	0.1166880632063112
293.0	146.52360104212676	body	0.0		46.0	body	body-28.jpg	0.0	244.0490219723797	0.3833021264827039
293.0	146.60701404021484	response	0.0	b		body	body-28.jpg	0.0	244.13243497046778	
293.0	146.90690316860946	ISI	1.0		6.0	body	body-28.jpg	0.0	244.4323240988624	0.12504674990441345
293.0	146.99867787195353	pulse	1.0	t		body	body-28.jpg	0.0	244.52409880220648	
294.0	147.03194991851387	body	0.0		45.0	body	body-91.jpg	0.0	244.55737084876682	0.37493830823768803
294.0	147.40688822675156	ISI	1.0		7.0	body	body-91.jpg	0.0	244.9323091570045	0.11669410032072847
295.0	147.5235823270723	body	0.0		46.0	body	body-3.jpg	0.0	245.04900325732524	0.38329850421405354
295.0	147.69866709570442	pulse	0.0	t		body	body-3.jpg	0.0	245.22408802595737	
295.0	147.90688083128634	ISI	1.0		7.0	body	body-3.jpg	0.0	245.4323017615393	0.11668293165894283
296.0	148.0235637629453	body	0.0		46.0	body	body-43.jpg	0.0	245.54898469319824	0.3833142007119932
296.0	148.39865631945486	pulse	0.0	t		body	body-43.jpg	0.0	245.9240772497078	
296.0	148.40687796365728	ISI	1.0		6.0	body	body-43.jpg	0.0	245.93229889391023	0.11668021495734138
297.0	148.52355817861462	body	0.0		46.0	body	body-36.jpg	0.0	246.04897910886757	0.3833084654529557
297.0	148.90686664406758	ISI	1.0		6.0	body	body-36.jpg	0.0	246.43228757432053	0.11668685578342775
298.0	149.023553499851	body	0.0		46.0	body	body-101.jpg	0.0	246.54897443010395	0.3833051450401399
298.0	149.09866425826067	pulse	0.0	t		body	body-101.jpg	0.0	246.62408518851362	
298.0	149.40685864489114	ISI	1.0		5.0	body	body-101.jpg	0.0	246.9322795751441	0.1085793130428101
299.0	149.51543795793395	body	0.0		46.0	body	body-57.jpg	0.0	247.0408588881869	0.3914132914919719
299.0	149.7986148444793	pulse	0.0	t		body	body-57.jpg	0.0	247.32403577473224	
299.0	149.90685124942593	ISI	1.0		5.0	body	body-57.jpg	0.0	247.43227217967888	0.11668504464932994
300.0	150.02353629407526	body	0.0		46.0	body	body-24.jpg	0.0	247.5489572243282	0.38333804731337295
300.0	150.40687434138863	ISI	1.0		6.0	body	body-24.jpg	0.0	247.93229527164158	0.12502380886962783
300.0	150.49868919154278	pulse	1.0	t		body	body-24.jpg	0.0	248.02411012179573	
301.0	150.53189815025826	body	0.0		45.0	body	body-81.jpg	0.0	248.0573190805112	0.3749697012322031
301.0	150.90686785149046	ISI	1.0		6.0	body	body-81.jpg	0.0	248.4322887817434	0.11668474279349539
302.0	151.02355259428396	body	0.0		46.0	body	body-142.jpg	0.0	248.5489735245369	0.38330242833853845
302.0	151.19864038147307	pulse	0.0	t		body	body-142.jpg	0.0	248.72406131172602	
302.0	151.4068550226225	ISI	1.0		6.0	body	body-142.jpg	0.0	248.93227595287544	0.1166880632063112
303.0	151.5235430858288	body	0.0		46.0	body	body-104.jpg	0.0	249.04896401608175	0.38330635246302336
303.0	151.8986244736766	pulse	0.0	t		body	body-104.jpg	0.0	249.42404540392954	
303.0	151.90684943829183	ISI	1.0		6.0	body	body-104.jpg	0.0	249.43227036854478	0.11668776135047665
304.0	152.0235371996423	body	0.0		46.0	body	body-49.jpg	0.0	249.54895812989525	0.383302730194373
304.0	152.40683992983668	ISI	1.0		6.0	body	body-49.jpg	0.0	249.93226086008963	0.11668866691752555
305.0	152.5235285967542	body	0.0		46.0	body	body-140.jpg	0.0	250.04894952700715	0.3833003153486061
305.0	152.59867587970575	pulse	0.0	t		body	body-140.jpg	0.0	250.1240968099587	
305.0	152.9068289121028	ISI	1.0		6.0	body	body-140.jpg	0.0	250.43224984235576	0.11668776135047665
306.0	153.0235166734533	body	0.0		46.0	body	body-11.jpg	0.0	250.54893760370624	0.3833033339060421
306.0	153.29861559911888	pulse	0.0	t		body	body-11.jpg	0.0	250.82403652937182	
306.0	153.40682000735933	ISI	1.0		3.0	body	body-11.jpg	0.0	250.93224093761228	0.11667900753445792
307.0	153.5234990148938	body	0.0		46.0	body	body-124.jpg	0.0	251.04891994514674	0.38331480442320753
307.0	153.7985912997333	response	0.0	b		body	body-124.jpg	0.0	251.32401222998624	
307.0	153.906813819317	ISI	1.0		6.0	body	body-124.jpg	0.0	251.43223474956994	0.12502260144674437
307.0	153.99859033379516	pulse	1.0	t		body	body-124.jpg	0.0	251.5240112640481	
308.0	154.03183642076374	body	0.0		45.0	body	body-75.jpg	0.0	251.5572573510167	0.37496547525233836
308.0	154.40680189601608	ISI	1.0		7.0	body	body-75.jpg	0.0	251.93222282626903	0.11668232794772848
309.0	154.5234842239638	body	0.0		46.0	body	body-58.jpg	0.0	252.04890515421675	0.383277676169655
309.0	154.69854212743667	pulse	0.0	t		body	body-58.jpg	0.0	252.22396305768962	
309.0	154.90676190013346	ISI	1.0		7.0	body	body-58.jpg	0.0	252.4321828303864	0.11668776135047665
310.0	155.02344966148394	body	0.0		46.0	body	body-2.jpg	0.0	252.5488705917369	0.3832918633884219
310.0	155.39853286046628	pulse	0.0	t		body	body-2.jpg	0.0	252.92395379071922	
310.0	155.40674152487236	ISI	1.0		7.0	body	body-2.jpg	0.0	252.9321624551253	0.11669923186764208
311.0	155.52344075674	body	0.0		46.0	body	body-26.jpg	0.0	253.04886168699295	0.38330122091610974
311.0	155.9067419776561	ISI	1.0		5.0	body	body-26.jpg	0.0	253.43216290790906	0.116689874340409
312.0	156.02343185199652	car	0.0		46.0	object	car-55.jpg	0.0	253.54885278224947	0.38330333390558735
312.0	156.09856192917186	pulse	0.0	t		object	car-55.jpg	0.0	253.6239828594248	
312.0	156.4067351859021	ISI	1.0		4.0	object	car-55.jpg	0.0	253.93215611615506	0.11668595021637884
313.0	156.5234211361185	car	0.0		46.0	object	car-11.jpg	0.0	254.04884206637144	0.38330635246302336
313.0	156.79850798755524	pulse	0.0	t		object	car-11.jpg	0.0	254.3239289178082	
313.0	156.9067274885815	ISI	1.0		7.0	object	car-11.jpg	0.0	254.43214841883446	0.11668504464887519
314.0	157.02341253323038	car	0.0		46.0	object	car-62.jpg	0.0	254.54883346348333	0.3833048431847601
314.0	157.40671737641514	ISI	1.0		7.0	object	car-62.jpg	0.0	254.9321383066681	0.12502109216802637
314.0	157.4984902686242	pulse	1.0	t		object	car-62.jpg	0.0	255.02391119887716	
315.0	157.53173846858317	car	0.0		45.0	object	car-52.jpg	0.0	255.05715939883612	0.3749697012322031
315.0	157.90670816981537	ISI	1.0		7.0	object	car-52.jpg	0.0	255.43212910006832	0.11669077990791266
316.0	158.0233989497233	car	0.0		46.0	object	car-126.jpg	0.0	255.54881987997624	0.3832994097815572
316.0	158.19848854804695	pulse	0.0	t		object	car-126.jpg	0.0	255.7239094782999	
316.0	158.40669835950484	ISI	1.0		7.0	object	car-126.jpg	0.0	255.9321192897578	0.11666270732575867
317.0	158.5233610668306	car	0.0		46.0	object	car-22.jpg	0.0	256.04878199708355	0.3833329157660046
317.0	158.89846358457908	pulse	0.0	t		object	car-22.jpg	0.0	256.423884514832	
317.0	158.9066939825966	ISI	1.0		8.0	object	car-22.jpg	0.0	256.43211491284956	0.1166720648534465
318.0	159.02336604745005	car	0.0		46.0	object	car-22.jpg	1.0	256.548786977703	0.3833163137014708
318.0	159.40668236115152	ISI	1.0		6.0	object	car-22.jpg	1.0	256.9321032914045	0.11669289289784501
319.0	159.52337525404937	car	0.0		46.0	object	car-32.jpg	0.0	257.0487961843023	0.38329759864700463
319.0	159.5984639769913	pulse	0.0	t		object	car-32.jpg	0.0	257.12388490724425	
319.0	159.74009317078617	response	0.0	b		object	car-32.jpg	0.0	257.2655141010391	
319.0	159.90667285269637	ISI	1.0		7.0	object	car-32.jpg	0.0	257.4320937829493	0.11667719640036012
320.0	160.02335004909673	car	0.0		46.0	object	car-133.jpg	0.0	257.5487709793497	0.38331329514448953
320.0	160.29844354135912	pulse	0.0	t		object	car-133.jpg	0.0	257.82386447161207	
320.0	160.40666334424122	ISI	1.0		7.0	object	car-133.jpg	0.0	257.9320842744942	0.1166889687733601
321.0	160.52335231301458	car	0.0		46.0	object	car-144.jpg	0.0	258.04877324326753	0.38333382133350824
321.0	160.9066861343481	ISI	1.0		7.0	object	car-144.jpg	0.0	258.43210706460104	0.12500962165086094
321.0	160.99849223068668	pulse	1.0	t		object	car-144.jpg	0.0	258.5239131609396	
322.0	161.03169575599895	car	0.0		45.0	object	car-60.jpg	0.0	258.5571166862519	0.3749817754610376
322.0	161.40667753146	ISI	1.0		5.0	object	car-60.jpg	0.0	258.93209846171294	0.11668534650470974
323.0	161.5233628779647	car	0.0		46.0	object	car-1.jpg	0.0	259.04878380821765	0.383307258030527
323.0	161.69848447299455	pulse	0.0	t		object	car-1.jpg	0.0	259.2239054032475	
323.0	161.90667013599523	ISI	1.0		11.0	object	car-1.jpg	0.0	259.4320910662482	0.1000361925002835
324.0	162.0067063284955	baseline	0.0		48.0		baseline	0.0	259.53212725874846	0.39999323843221646
324.0	162.39847580973537	pulse	0.0	t			baseline	0.0	259.9238967399883	
324.0	162.40669956692773	ISI	1.0		11.0		baseline	0.0	259.9321204971807	0.09997612321240013
325.0	162.50667569014013	baseline	0.0		48.0		baseline	0.0	260.0320966203931	0.40001346276494587
325.0	162.90668915290507	ISI	1.0		11.0		baseline	0.0	260.432110083158	0.09999544197899013
326.0	163.00668459488406	baseline	0.0		48.0		baseline	0.0	260.532105525137	0.39999535142169407
326.0	163.09847137245652	pulse	0.0	t			baseline	0.0	260.62389230270946	
326.0	163.40667994630576	ISI	1.0		11.0		baseline	0.0	260.9321008765587	0.09997883991445633
327.0	163.5066587862202	baseline	0.0		48.0		baseline	0.0	261.03207971647316	0.40001104791917896
327.0	163.7984533516701	pulse	0.0	t			baseline	0.0	261.32387428192305	
327.0	163.9066698341394	ISI	1.0		11.0		baseline	0.0	261.43209076439234	0.1000026865158361
328.0	164.00667252065523	baseline	0.0		48.0		baseline	0.0	261.5320934509082	0.39997844750178047
328.0	164.406650968157	ISI	1.0		11.0		baseline	0.0	261.93207189840996	0.10001898672453535
328.0	164.49843563273953	pulse	1.0	t			baseline	0.0	262.0238565629925	
329.0	164.50666995488154	baseline	0.0		48.0		baseline	0.0	262.0320908851345	0.39997935306882937
329.0	164.90664930795037	ISI	1.0		11.0		baseline	0.0	262.4320702382033	0.10000389393871956
330.0	165.0066532018891	baseline	0.0		48.0		baseline	0.0	262.53207413214204	0.399989012451897
330.0	165.19842455463458	pulse	0.0	t			baseline	0.0	262.72384548488753	
330.0	165.406642214341	ISI	1.0		11.0		baseline	0.0	262.93206314459394	0.09998004733688504
331.0	165.50662226167788	baseline	0.0		48.0		baseline	0.0	263.0320431919308	0.400015575755333
331.0	165.89841075982804	pulse	0.0	t			baseline	0.0	263.423831690081	
331.0	165.9066378374332	ISI	1.0		11.0		baseline	0.0	263.43205876768616	0.09999423455565193
332.0	166.00663207198886	baseline	0.0		48.0		baseline	0.0	263.5320530022418	0.39999263472054736
332.0	166.4066247067094	ISI	1.0		11.0		baseline	0.0	263.93204563696236	0.09998004733688504
333.0	166.5066047540463	baseline	0.0		48.0		baseline	0.0	264.03202568429924	0.4000113497750135
333.0	166.59840632254918	pulse	0.0	t			baseline	0.0	264.12382725280213	
333.0	166.9066161038213	ISI	1.0		11.0		baseline	0.0	264.43203703407426	0.09999815868013684
334.0	167.00661426250144	baseline	0.0		48.0		baseline	0.0	264.5320351927544	0.3999956532775286
334.0	167.2983886036186	pulse	0.0	t			baseline	0.0	264.82380953387155	
334.0	167.40660991577897	ISI	1.0		11.0		baseline	0.0	264.9320308460319	0.09997823620278723
335.0	167.50658815198176	baseline	0.0		48.0		baseline	0.0	265.0320090822347	0.4000113497750135
335.0	167.90659950175677	ISI	1.0		7.0		baseline	0.0	265.4320204320097	0.12498577504948116
335.0	167.99844604676173	pulse	1.0	t			baseline	0.0	265.5238669770147	
336.0	168.03158527680625	house	0.0		45.0	place	house-45.jpg	0.0	265.5570062070592	0.3749675882422707
336.0	168.40655286504852	ISI	1.0		5.0	place	house-45.jpg	0.0	265.9319737953015	0.11669077990745791
337.0	168.52324364495598	house	0.0		46.0	place	house-13.jpg	0.0	266.04866457520893	0.3833009190602752
337.0	168.69832720616523	pulse	0.0	t		place	house-13.jpg	0.0	266.2237481364182	
337.0	168.90654456401626	ISI	1.0		6.0	place	house-13.jpg	0.0	266.4319654942692	0.11668776135047665
338.0	169.02323232536673	house	0.0		46.0	place	house-26.jpg	0.0	266.5486532556197	0.3833045413284708
338.0	169.39831824105067	pulse	0.0	t		place	house-26.jpg	0.0	266.9237391713036	
338.0	169.4065368666952	ISI	1.0		6.0	place	house-26.jpg	0.0	266.93195779694815	0.11668383722644649
339.0	169.52322070392165	house	0.0		46.0	place	house-138.jpg	0.0	267.0486416341746	0.3833069561742377
339.0	169.9065276600959	ISI	1.0		6.0	place	house-138.jpg	0.0	267.43194859034884	0.11668595021637884
340.0	170.02321361031227	house	0.0		46.0	place	house-63.jpg	0.0	267.5486345405652	0.3833030320497528
340.0	170.09831320006015	pulse	0.0	t		place	house-63.jpg	0.0	267.6237341303131	
340.0	170.40651664236202	ISI	1.0		6.0	place	house-63.jpg	0.0	267.93193757261497	0.11669349660905937
341.0	170.52321013897108	house	0.0		46.0	place	house-75.jpg	0.0	268.04863106922403	0.3832994097815572
341.0	170.79829125514925	pulse	0.0	t		place	house-75.jpg	0.0	268.3237121854022	
341.0	170.90650954875264	ISI	1.0		7.0	place	house-75.jpg	0.0	268.4319304790056	0.1166871576392623
342.0	171.0231967063919	house	0.0		46.0	place	house-121.jpg	0.0	268.54861763664485	0.3833018246273241
342.0	171.40649853101922	ISI	1.0		7.0	place	house-121.jpg	0.0	268.9319194612722	0.12502531814834583
342.0	171.49831157003928	pulse	1.0	t		place	house-121.jpg	0.0	269.0237325002922	
343.0	171.53152384916757	house	0.0		45.0	place	house-121.jpg	1.0	269.0569447794205	0.37496668267476707
343.0	171.90649053184234	ISI	1.0		5.0	place	house-121.jpg	1.0	269.4319114620953	0.1166880632063112
344.0	172.02317859504865	house	0.0		46.0	place	house-92.jpg	0.0	269.5485995253016	0.38330484318430535
344.0	172.1815982113235	response	0.0	b		place	house-92.jpg	0.0	269.70701914157644	
344.0	172.1982440449151	pulse	0.0	t		place	house-92.jpg	0.0	269.72366497516805	
344.0	172.40648343823295	ISI	1.0		7.0	place	house-92.jpg	0.0	269.9319043684859	0.11668444093766084
345.0	172.52316787917061	house	0.0		46.0	place	house-28.jpg	0.0	270.04858880942356	0.38330937102045937
345.0	172.8982495688747	pulse	0.0	t		place	house-28.jpg	0.0	270.42367049912764	
345.0	172.90647725019107	ISI	1.0		3.0	place	house-28.jpg	0.0	270.431898180444	0.11668293165894283
346.0	173.02316018185002	house	0.0		46.0	place	house-18.jpg	0.0	270.54858111210297	0.38330484318430535
346.0	173.40646502503432	ISI	1.0		7.0	place	house-18.jpg	0.0	270.93188595528727	0.1166880632063112
347.0	173.52315308824063	house	0.0		46.0	place	house-93.jpg	0.0	271.0485740184936	0.38330303205020755
347.0	173.59824332046128	pulse	0.0	t		place	house-93.jpg	0.0	271.1236642507142	
347.0	173.90645612029084	ISI	1.0		5.0	place	house-93.jpg	0.0	271.4318770505438	0.11669077990745791
348.0	174.0231469001983	word	0.0		46.0	character	word-133.jpg	0.0	271.54856783045125	0.3833003153486061
348.0	174.2982256015307	pulse	0.0	t		character	word-133.jpg	0.0	271.82364653178365	
348.0	174.4064472155469	ISI	1.0		7.0	character	word-133.jpg	0.0	271.93186814579985	0.11668504464887519
349.0	174.52313226019578	word	0.0		46.0	character	word-133.jpg	1.0	272.04855319044873	0.38330605060764356
349.0	174.90643831080342	ISI	1.0		5.0	character	word-133.jpg	1.0	272.4318592410564	0.12502199773553002
349.0	174.9982401811617	pulse	1.0	t		character	word-133.jpg	1.0	272.52366111141464	
350.0	175.03146030853895	word	0.0		45.0	character	word-119.jpg	0.0	272.5568812387919	0.3749697012322031
350.0	175.40643000977116	ISI	1.0		6.0	character	word-119.jpg	0.0	272.9318509400241	0.11665999062415722
351.0	175.5230900003953	word	0.0		46.0	character	word-40.jpg	0.0	273.04851093064826	0.38333080277607223
351.0	175.69819197480365	pulse	0.0	t		character	word-40.jpg	0.0	273.2236129050566	
351.0	175.9064208031714	ISI	1.0		7.0	character	word-40.jpg	0.0	273.43184173342433	0.11667719640036012
352.0	176.02309799957175	word	0.0		46.0	character	word-22.jpg	0.0	273.5485189298247	0.3833151062790421
352.0	176.39819930989734	pulse	0.0	t		character	word-22.jpg	0.0	273.9236202401503	
352.0	176.4064131058508	ISI	1.0		6.0	character	word-22.jpg	0.0	273.93183403610374	0.11669772258937883
353.0	176.52311082844017	word	0.0		46.0	character	word-84.jpg	0.0	274.0485317586931	0.3832918633884219
353.0	176.9064026918286	ISI	1.0		4.0	character	word-84.jpg	0.0	274.43182362208154	0.11668866691752555
354.0	177.02309135874611	word	0.0		46.0	character	word-90.jpg	0.0	274.54851228899906	0.38330303205020755
354.0	177.09818491137958	pulse	0.0	t		character	word-90.jpg	0.0	274.6236058416325	
354.0	177.40639439079632	ISI	1.0		7.0	character	word-90.jpg	0.0	274.93181532104927	0.11668444093766084
355.0	177.52307883173398	word	0.0		46.0	character	word-120.jpg	0.0	275.04849976198693	0.38330423947263625
355.0	177.79816387203618	pulse	0.0	t		character	word-120.jpg	0.0	275.32358480228913	
355.0	177.90638307120662	ISI	1.0		6.0	character	word-120.jpg	0.0	275.43180400145957	0.1166865539275932
356.0	178.0230696251342	word	0.0		46.0	character	word-32.jpg	0.0	275.54849055538716	0.383305748751809
356.0	178.40637537388602	ISI	1.0		6.0	character	word-32.jpg	0.0	275.93179630413897	0.12502562000418038
356.0	178.4982041094031	pulse	1.0	t		character	word-32.jpg	0.0	276.02362503965605	
357.0	178.5314009938902	word	0.0		45.0	character	word-85.jpg	0.0	276.05682192414315	0.3749660789635527
357.0	178.90636707285375	ISI	1.0		6.0	character	word-85.jpg	0.0	276.4317880031067	0.1166880632063112
358.0	179.02305513606007	word	0.0		46.0	character	word-136.jpg	0.0	276.548476066313	0.383302730194373
358.0	179.19814563995078	pulse	0.0	t		character	word-136.jpg	0.0	276.72356657020373	
358.0	179.40635786625444	ISI	1.0		7.0	character	word-136.jpg	0.0	276.9317787965074	0.11668564836008954
359.0	179.52304351461453	word	0.0		46.0	character	word-23.jpg	0.0	277.0484644448675	0.3833081635975759
359.0	179.89812822287558	pulse	0.0	t		character	word-23.jpg	0.0	277.42354915312853	
359.0	179.9063516782121	ISI	1.0		11.0	character	word-23.jpg	0.0	277.43177260846505	0.10002864610760298
360.0	180.0063803243197	baseline	0.0		48.0		baseline	0.0	277.53180125457266	0.40000018111368263
360.0	180.4063805054334	ISI	1.0		11.0		baseline	0.0	277.93180143568634	0.09997250094374976
361.0	180.50635300637714	baseline	0.0		48.0		baseline	0.0	278.0317739366301	0.4000065200834797
361.0	180.59815548044708	pulse	0.0	t			baseline	0.0	278.1235764107	
361.0	180.90635952646062	ISI	1.0		11.0		baseline	0.0	278.43178045671357	0.10000872363025337
362.0	181.00636825009087	baseline	0.0		48.0		baseline	0.0	278.5317891803438	0.39995852502443086
362.0	181.29812991326753	pulse	0.0	t			baseline	0.0	278.8235508435205	
362.0	181.4063267751153	ISI	1.0		11.0		baseline	0.0	278.93174770536825	0.10003709806778716
363.0	181.5063638731831	baseline	0.0		48.0		baseline	0.0	279.03178480343604	0.3999856920390812
363.0	181.90634956522217	ISI	1.0		11.0		baseline	0.0	279.4317704954751	0.10000238466000155
363.0	181.9981257778445	pulse	1.0	t			baseline	0.0	279.52354670809746	
364.0	182.00635194988217	baseline	0.0		48.0		baseline	0.0	279.5317728801351	0.3999896161635661
364.0	182.40634156604574	ISI	1.0		11.0		baseline	0.0	279.9317624962987	0.09997853805816703
365.0	182.5063201041039	baseline	0.0		48.0		baseline	0.0	280.03174103435686	0.40001255719789697
365.0	182.69810353107778	pulse	0.0	t			baseline	0.0	280.2235244613307	
365.0	182.9063326613018	ISI	1.0		11.0		baseline	0.0	280.43175359155475	0.09999876239180594
366.0	183.0063314236936	baseline	0.0		48.0		baseline	0.0	280.53175235394656	0.39999203100887826
366.0	183.39810271606757	pulse	0.0	t			baseline	0.0	280.9235236463205	
366.0	183.4063234547025	ISI	1.0		11.0		baseline	0.0	280.93174438495544	0.09999151785405047
367.0	183.50631497255654	baseline	0.0		48.0		baseline	0.0	281.0317359028095	0.40000108668073153
367.0	183.90631605923727	ISI	1.0		11.0		baseline	0.0	281.4317369894902	0.09999755496892249
368.0	184.0063136142062	baseline	0.0		48.0		baseline	0.0	281.53173454445914	0.3999805604917128
368.0	184.0980922416743	pulse	0.0	t			baseline	0.0	281.62351317192724	
368.0	184.4062941746979	ISI	1.0		11.0		baseline	0.0	281.93171510495085	0.09998970671995266
369.0	184.50628388141786	baseline	0.0		48.0		baseline	0.0	282.0317048116708	0.40001346276494587
369.0	184.79807331532038	pulse	0.0	t			baseline	0.0	282.32349424557333	
369.0	184.9062973441828	ISI	1.0		11.0		baseline	0.0	282.43171827443575	0.09999785682430229
370.0	185.0062952010071	baseline	0.0		48.0		baseline	0.0	282.53171613126005	0.39999112544182935
370.0	185.40628632644894	ISI	1.0		11.0		baseline	0.0	282.9317072567019	0.09998699001880595
370.0	185.49806616133992	pulse	1.0	t			baseline	0.0	283.02348709159287	
371.0	185.50627331646774	baseline	0.0		48.0		baseline	0.0	283.0316942467207	0.40000470894892715
371.0	185.90627802541667	ISI	1.0		5.0		baseline	0.0	283.4316989556696	0.11665848134589396
372.0	186.02293650676256	car	0.0		46.0	object	car-143.jpg	0.0	283.5483574370155	0.38329729679162483
372.0	186.1980218791059	pulse	0.0	t		object	car-143.jpg	0.0	283.72344280935886	
372.0	186.4062338035542	ISI	1.0		6.0	object	car-143.jpg	0.0	283.93165473380714	0.1166892706287399
373.0	186.52292307418293	car	0.0		46.0	object	car-136.jpg	0.0	284.0483440044359	0.383302730194373
373.0	186.89800083976252	pulse	0.0	t		object	car-136.jpg	0.0	284.42342177001547	
373.0	186.9062258043773	ISI	1.0		7.0	object	car-136.jpg	0.0	284.43164673463025	0.1166871576392623
374.0	187.02291296201656	car	0.0		46.0	object	car-18.jpg	0.0	284.5483338922695	0.38330242833853845
374.0	187.4062153903551	ISI	1.0		7.0	object	car-18.jpg	0.0	284.93163632060805	0.11669077990791266
375.0	187.522906170263	car	0.0		46.0	object	car-141.jpg	0.0	285.04832710051596	0.38330091905982044
375.0	187.59799368578206	pulse	0.0	t		object	car-141.jpg	0.0	285.123414616035	
375.0	187.90620708932283	ISI	1.0		6.0	object	car-141.jpg	0.0	285.4316280195758	0.11668927062919465
376.0	188.02289635995203	car	0.0		46.0	object	car-63.jpg	0.0	285.548317290205	0.38330242833853845
376.0	188.2979780798414	pulse	0.0	t		object	car-63.jpg	0.0	285.82339901009436	
376.0	188.40619878829057	ISI	1.0		6.0	object	car-63.jpg	0.0	285.9316197185435	0.1166886669179803
377.0	188.52288745520855	car	0.0		46.0	object	car-115.jpg	0.0	286.0483083854615	0.38330182462686935
377.0	188.90618927983542	ISI	1.0		5.0	object	car-115.jpg	0.0	286.43161021008837	0.12502380887008258
377.0	188.99799869658682	pulse	1.0	t		object	car-115.jpg	0.0	286.52341962683977	
378.0	189.0312130887055	car	0.0		45.0	object	car-118.jpg	0.0	286.55663401895845	0.3749669845306016
378.0	189.4061800732361	ISI	1.0		7.0	object	car-118.jpg	0.0	286.93160100348905	0.11668866691752555
379.0	189.52286874015363	car	0.0		46.0	object	car-142.jpg	0.0	287.0482896704066	0.38330122091610974
379.0	189.69796739414915	pulse	0.0	t		object	car-142.jpg	0.0	287.2233883244021	
379.0	189.90616996106974	ISI	1.0		6.0	object	car-142.jpg	0.0	287.4315908913227	0.11668957248457446
380.0	190.0228595335543	car	0.0		46.0	object	car-87.jpg	0.0	287.54828046380726	0.38330454132892555
380.0	190.39794484552658	pulse	0.0	t		object	car-87.jpg	0.0	287.92336577577953	
380.0	190.40616407488324	ISI	1.0		6.0	object	car-87.jpg	0.0	287.9315850051362	0.11667387598708956
381.0	190.52283795087033	car	0.0		46.0	object	car-134.jpg	0.0	288.0482588811233	0.38331480442320753
381.0	190.90615275529353	ISI	1.0		7.0	object	car-134.jpg	0.0	288.4315736855465	0.1166871576392623
382.0	191.0228399129328	car	0.0		46.0	object	car-131.jpg	0.0	288.54826084318574	0.3833045413284708
382.0	191.09793074886466	pulse	0.0	t		object	car-131.jpg	0.0	288.6233516791176	
382.0	191.40614445426127	ISI	1.0		7.0	object	car-131.jpg	0.0	288.9315653845142	0.1166895724850292
383.0	191.5228340267463	car	0.0		46.0	object	car-111.jpg	0.0	289.04825495699924	0.38330303205020755
383.0	191.79791423735696	pulse	0.0	t		object	car-111.jpg	0.0	289.3233351676099	
383.0	191.9061370587965	ISI	1.0		6.0	object	car-111.jpg	0.0	289.43155798904945	0.11669711887770973
384.0	192.0228341776742	car	0.0		46.0	object	car-35.jpg	0.0	289.54825510792716	0.3832927689554708
384.0	192.40612694662968	ISI	1.0		6.0	object	car-35.jpg	0.0	289.93154787688263	0.12502471443713148
384.0	192.4979396837939	pulse	1.0	t		object	car-35.jpg	0.0	290.02336061404685	
385.0	192.53115166106681	car	0.0		45.0	object	car-48.jpg	0.0	290.05657259131976	0.3749669845306016
385.0	192.90611864559742	ISI	1.0		7.0	object	car-48.jpg	0.0	290.43153957585037	0.11669228918617591
386.0	193.0228109347836	car	0.0		46.0	object	car-20.jpg	0.0	290.54823186503654	0.3832951838016925
386.0	193.1978845347544	pulse	0.0	t		object	car-20.jpg	0.0	290.72330546500734	
386.0	193.40610611858529	ISI	1.0		6.0	object	car-20.jpg	0.0	290.93152704883823	0.11669470403194282
387.0	193.52280082261723	car	0.0		46.0	object	car-108.jpg	0.0	291.0482217528702	0.38330152277148954
387.0	193.89787828634098	pulse	0.0	t		object	car-108.jpg	0.0	291.42329921659393	
387.0	193.90610234538872	ISI	1.0		7.0	object	car-108.jpg	0.0	291.43152327564167	0.1166865539275932
388.0	194.0227888993163	car	0.0		46.0	object	car-17.jpg	0.0	291.54820982956926	0.3833033339060421
