trial_nr	onset	event_type	phase	response	nr_frames	trial_type	stim_name	task_probe	onset_abs	duration
0.0	0.05542205188157823	baseline	0.0		699		baseline	0.0	38.06645937290796	5.849631027776923
0.0	-18.968561519972354	response	0.0	b			baseline	0.0	19.042475801054024	
0.0	-18.955643643496842	response	0.0	g			baseline	0.0	19.055393677529537	
0.0	-14.849662420676395	response	0.0	b			baseline	0.0	23.161374900349983	
0.0	-9.576819180821076	response	0.0	b			baseline	0.0	28.434218140205303	
0.0	0.7052961331492043	pulse	0.0	t			baseline	0.0	38.71633345417558	
0.0	1.405259397419286	pulse	0.0	t			baseline	0.0	39.416296718445665	
0.0	2.1052443952348767	pulse	0.0	t			baseline	0.0	40.116281716261255	
0.0	2.805269237886023	pulse	0.0	t			baseline	0.0	40.8163065589124	
0.0	3.5052213335275155	pulse	0.0	t			baseline	0.0	41.516258654553894	
0.0	4.205194257151561	pulse	0.0	t			baseline	0.0	42.21623157817794	
0.0	4.9051967625464385	pulse	0.0	t			baseline	0.0	42.91623408357282	
0.0	5.605169082460634	pulse	0.0	t			baseline	0.0	43.61620640348701	
0.0	5.905053079658501	ISI	1.0		7		baseline	0.0	43.91609040068488	0.1250186018023669
1.0	6.030071681460868	house	0.0		45	place	house-64.jpg	0.0	44.04110900248725	0.3749254041304084
1.0	6.305114839151429	pulse	0.0	t		place	house-64.jpg	0.0	44.31615216017781	
1.0	6.404997085591276	ISI	1.0		355	place	house-64.jpg	0.0	44.416034406617655	3.0166337091532114
1.0	7.005095007290947	pulse	1.0	t		place	house-64.jpg	0.0	45.016132328317326	
1.0	7.705078495832822	pulse	1.0	t		place	house-64.jpg	0.0	45.7161158168592	
1.0	8.405065304777963	pulse	1.0	t		place	house-64.jpg	0.0	46.41610262580434	
1.0	9.105043661787931	pulse	1.0	t		place	house-64.jpg	0.0	47.11608098281431	
2.0	9.421630794744488	adult	0.0		46	face	adult-35.jpg	0.0	47.432668115770866	0.3832949323705179
2.0	9.804925727115005	ISI	1.0		351	face	adult-35.jpg	0.0	47.815963048141384	3.0166705354395162
2.0	9.87743155366752	pulse	1.0	t		face	adult-35.jpg	0.0	47.8884688746939	
2.0	10.505023316773986	pulse	1.0	t		face	adult-35.jpg	0.0	48.516060637800365	
2.0	11.204990203302259	pulse	1.0	t		face	adult-35.jpg	0.0	49.21602752432864	
2.0	11.904990595712661	pulse	1.0	t		face	adult-35.jpg	0.0	49.91602791673904	
2.0	12.60504441642479	pulse	1.0	t		face	adult-35.jpg	0.0	50.61608173745117	
3.0	12.821596262554522	limb	0.0		46	body	limb-115.jpg	0.0	50.8326335835809	0.38328798970997013
3.0	13.204884252264492	ISI	1.0		235	body	limb-115.jpg	0.0	51.21592157329087	2.0166560464085705
3.0	13.305040884723894	pulse	1.0	t		body	limb-115.jpg	0.0	51.31607820575027	
3.0	14.005018638024922	pulse	1.0	t		body	limb-115.jpg	0.0	52.0160559590513	
3.0	14.705007258098703	pulse	1.0	t		body	limb-115.jpg	0.0	52.71604457912508	
4.0	15.221540298673062	limb	0.0		46	body	limb-115.jpg	1.0	53.23257761969944	0.38326172834149475
4.0	15.404924036728517	pulse	0.0	t		body	limb-115.jpg	1.0	53.415961357754895	
4.0	15.604802027014557	ISI	1.0		234	body	limb-115.jpg	1.0	53.615839348040936	2.0166587631019866
4.0	16.104908732689182	pulse	1.0	t		body	limb-115.jpg	1.0	54.11594605371556	
4.0	16.804887995263925	pulse	1.0	t		body	limb-115.jpg	1.0	54.815925316290304	
4.0	17.50486967267716	pulse	1.0	t		body	limb-115.jpg	1.0	55.51590699370354	
5.0	17.621460790116544	number	0.0		46	character	number-127.jpg	0.0	55.63249811114292	0.3832916119681613
5.0	18.004752402084705	ISI	1.0		235	character	number-127.jpg	0.0	56.015789723111084	2.016659366810927
5.0	18.20486644283119	pulse	1.0	t		character	number-127.jpg	0.0	56.21590376385757	
5.0	18.904844196131307	pulse	1.0	t		character	number-127.jpg	0.0	56.915881517157686	
5.0	19.33820235199164	response	1.0	b		character	number-127.jpg	0.0	57.34923967301802	
5.0	19.60482587354454	pulse	1.0	t		character	number-127.jpg	0.0	57.61586319457092	
6.0	20.021411768895632	house	0.0		46	place	house-29.jpg	0.0	58.03244908992201	0.3832949323714274
6.0	20.304816908456814	pulse	0.0	t		place	house-29.jpg	0.0	58.31585422948319	
6.0	20.40470670126706	ISI	1.0		233	place	house-29.jpg	0.0	58.41574402229344	2.0166865337432682
6.0	21.004808848933862	pulse	1.0	t		place	house-29.jpg	0.0	59.01584616996024	
6.0	21.704848180615045	pulse	1.0	t		place	house-29.jpg	0.0	59.715885501641424	
7.0	22.421393235010328	number	0.0		45	character	number-35.jpg	0.0	60.43243055603671	0.3832867822911794
7.0	22.41296967476046	pulse	0.0	t		character	number-35.jpg	0.0	60.42400699578684	
7.0	22.804680017301507	ISI	1.0		235	character	number-35.jpg	0.0	60.815717338327886	2.0166663094723845
7.0	23.10482481705276	pulse	1.0	t		character	number-35.jpg	0.0	61.11586213807914	
7.0	23.804834265108184	pulse	1.0	t		character	number-35.jpg	0.0	61.81587158613456	
7.0	24.504813527682927	pulse	1.0	t		character	number-35.jpg	0.0	62.515850848709306	
8.0	24.82134632677389	car	0.0		46	object	car-44.jpg	0.0	62.83238364780027	0.3832584079391381
8.0	25.20460473471303	ISI	1.0		355	object	car-44.jpg	0.0	63.21564205573941	3.016635218426927
8.0	25.237774955769964	pulse	1.0	t		object	car-44.jpg	0.0	63.24881227679634	
8.0	25.904702626226936	pulse	1.0	t		object	car-44.jpg	0.0	63.915739947253314	
8.0	26.60468249251153	pulse	1.0	t		object	car-44.jpg	0.0	64.61571981353791	
8.0	27.30467111258531	pulse	1.0	t		object	car-44.jpg	0.0	65.31570843361169	
8.0	28.0046561104009	pulse	1.0	t		object	car-44.jpg	0.0	66.01569343142728	
9.0	28.221239953139957	adult	0.0		46	face	adult-92.jpg	0.0	66.23227727416634	0.38329342309680214
9.0	28.60453337623676	ISI	1.0		234	face	adult-92.jpg	0.0	66.61557069726314	2.016659064956002
9.0	28.704649560151665	pulse	1.0	t		face	adult-92.jpg	0.0	66.71568688117804	
9.0	29.404624596759277	pulse	1.0	t		face	adult-92.jpg	0.0	67.41566191778566	
9.0	30.104612009414268	pulse	1.0	t		face	adult-92.jpg	0.0	68.11564933044065	
10.0	30.62119244119276	car	0.0		46	object	car-13.jpg	0.0	68.63222976221914	0.38332240115869354
10.0	30.804600327633125	pulse	0.0	t		object	car-13.jpg	0.0	68.8156376486595	
10.0	31.004514842351455	ISI	1.0		235	object	car-13.jpg	0.0	69.01555216337783	2.016664196487909
10.0	31.504668939230214	pulse	1.0	t		object	car-13.jpg	0.0	69.5157062602566	
10.0	32.20463461833879	pulse	1.0	t		object	car-13.jpg	0.0	70.21567193936517	
10.0	32.904623540267494	pulse	1.0	t		object	car-13.jpg	0.0	70.91566086129387	
11.0	33.021179038839364	number	0.0		46	character	number-134.jpg	0.0	71.03221635986574	0.38325538939170656
11.0	33.40443442823107	ISI	1.0		236	character	number-134.jpg	0.0	71.41547174925745	2.0166596686658522
11.0	33.60454394115459	pulse	1.0	t		character	number-134.jpg	0.0	71.61558126218097	
11.0	34.304518675907275	pulse	1.0	t		character	number-134.jpg	0.0	72.31555599693365	
11.0	35.00450971081955	pulse	1.0	t		character	number-134.jpg	0.0	73.01554703184593	
12.0	35.42109409689692	adult	0.0		46	face	adult-7.jpg	0.0	73.4321314179233	0.3832894989845954
12.0	35.70449833089333	pulse	0.0	t		face	adult-7.jpg	0.0	73.71553565191971	
12.0	35.80438359588152	ISI	1.0		955	face	adult-7.jpg	0.0	73.8154209169079	8.016568508513956
12.0	36.40448513983847	pulse	1.0	t		face	adult-7.jpg	0.0	74.41552246086485	
12.0	37.10446470426814	pulse	1.0	t		face	adult-7.jpg	0.0	75.11550202529452	
12.0	37.804463587404825	pulse	1.0	t		face	adult-7.jpg	0.0	75.8155009084312	
12.0	38.504440736996	pulse	1.0	t		face	adult-7.jpg	0.0	76.51547805802238	
12.0	39.20451055601279	pulse	1.0	t		face	adult-7.jpg	0.0	77.21554787703917	
12.0	39.90447834810493	pulse	1.0	t		face	adult-7.jpg	0.0	77.91551566913131	
12.0	40.604462440356656	pulse	1.0	t		face	adult-7.jpg	0.0	78.61549976138303	
12.0	41.3044480418821	pulse	1.0	t		face	adult-7.jpg	0.0	79.31548536290848	
12.0	42.00443454897231	pulse	1.0	t		face	adult-7.jpg	0.0	80.01547186999869	
12.0	42.7044180375151	pulse	1.0	t		face	adult-7.jpg	0.0	80.71545535854148	
12.0	43.40441027984616	pulse	1.0	t		face	adult-7.jpg	0.0	81.41544760087254	
13.0	43.820952104395474	limb	0.0		46	body	limb-19.jpg	0.0	81.83198942542185	0.3832565968104973
13.0	44.10432283250884	pulse	0.0	t		body	limb-19.jpg	0.0	82.11536015353522	
13.0	44.20420870120597	ISI	1.0		234	body	limb-19.jpg	0.0	82.21524602223235	2.0166539334250047
13.0	44.80431175443664	pulse	1.0	t		body	limb-19.jpg	0.0	82.81534907546302	
13.0	45.50430369491369	pulse	1.0	t		body	limb-19.jpg	0.0	83.51534101594007	
14.0	46.220862634630976	adult	0.0		45	face	adult-11.jpg	0.0	84.23189995565735	0.383297950918859
14.0	46.213075082459	pulse	0.0	t		face	adult-11.jpg	0.0	84.22411240348538	
14.0	46.604160585549835	ISI	1.0		594	face	adult-11.jpg	0.0	84.61519790657621	5.016613183025584
14.0	46.90426674788523	pulse	1.0	t		face	adult-11.jpg	0.0	84.91530406891161	
14.0	47.604245406750124	pulse	1.0	t		face	adult-11.jpg	0.0	85.6152827277765	
14.0	48.30423704537225	pulse	1.0	t		face	adult-11.jpg	0.0	86.31527436639863	
14.0	49.00421570423714	pulse	1.0	t		face	adult-11.jpg	0.0	87.01525302526352	
14.0	49.70420190947243	pulse	1.0	t		face	adult-11.jpg	0.0	87.71523923049881	
14.0	50.40425814502305	pulse	1.0	t		face	adult-11.jpg	0.0	88.41529546604943	
14.0	51.10424012429121	pulse	1.0	t		face	adult-11.jpg	0.0	89.11527744531759	
15.0	51.62077376857542	number	0.0		46	character	number-132.jpg	0.0	89.6318110896018	0.3832744062437996
15.0	51.80417803275759	pulse	0.0	t		character	number-132.jpg	0.0	89.81521535378397	
15.0	52.00404817481922	ISI	1.0		833	character	number-132.jpg	0.0	90.0150854958456	7.016588129076808
15.0	52.504159710170825	pulse	1.0	t		character	number-132.jpg	0.0	90.5151970311972	
15.0	53.20413444492351	pulse	1.0	t		character	number-132.jpg	0.0	91.21517176594989	
15.0	53.90412185757759	pulse	1.0	t		character	number-132.jpg	0.0	91.91515917860397	
15.0	54.60409236636315	pulse	1.0	t		character	number-132.jpg	0.0	92.61512968738953	
15.0	55.30407283635759	pulse	1.0	t		character	number-132.jpg	0.0	93.31511015738397	
15.0	56.00407353062292	pulse	1.0	t		character	number-132.jpg	0.0	94.0151108516493	
15.0	56.70407150819574	pulse	1.0	t		character	number-132.jpg	0.0	94.71510882922212	
15.0	57.40405288375405	pulse	1.0	t		character	number-132.jpg	0.0	95.41509020478043	
15.0	58.10411243970793	pulse	1.0	t		character	number-132.jpg	0.0	96.11514976073431	
15.0	58.80408838187941	pulse	1.0	t		character	number-132.jpg	0.0	96.81512570290579	
16.0	59.020636303896026	number	0.0		46	character	number-47.jpg	0.0	97.0316736249224	0.3832578042301975
16.0	59.403894108126224	ISI	1.0		236	character	number-47.jpg	0.0	97.4149314291526	2.016658763101077
16.0	59.50401421615334	pulse	1.0	t		character	number-47.jpg	0.0	97.51505153717972	
16.0	60.20398774348723	pulse	1.0	t		character	number-47.jpg	0.0	98.21502506451361	
16.0	60.9039673079169	pulse	1.0	t		character	number-47.jpg	0.0	98.91500462894328	
17.0	61.4205528712273	number	0.0		46	character	number-10.jpg	0.0	99.43159019225368	0.3832904045493706
17.0	61.60396287065123	pulse	0.0	t		character	number-10.jpg	0.0	99.61500019167761	
17.0	61.80384327577667	ISI	1.0		354	character	number-10.jpg	0.0	99.81488059680305	3.016620729395072
17.0	62.303946359193105	pulse	1.0	t		character	number-10.jpg	0.0	100.31498368021948	
17.0	63.00393105515377	pulse	1.0	t		character	number-10.jpg	0.0	101.01496837618015	
17.0	63.70391303442193	pulse	1.0	t		character	number-10.jpg	0.0	101.71495035544831	
17.0	64.40389742852858	pulse	1.0	t		character	number-10.jpg	0.0	102.41493474955496	
18.0	64.82046400517174	car	0.0		46	object	car-113.jpg	0.0	102.83150132619812	0.38334021059290535
18.0	65.10391925263139	pulse	0.0	t		object	car-113.jpg	0.0	103.11495657365776	
18.0	65.20380421576465	ISI	1.0		356	object	car-113.jpg	0.0	103.21484153679103	3.016638538829284
18.0	65.80393986931449	pulse	1.0	t		object	car-113.jpg	0.0	103.81497719034087	
18.0	66.50391973559908	pulse	1.0	t		object	car-113.jpg	0.0	104.51495705662546	
18.0	67.20390775196302	pulse	1.0	t		object	car-113.jpg	0.0	105.2149450729894	
18.0	67.90389727760157	pulse	1.0	t		object	car-113.jpg	0.0	105.91493459862795	
19.0	68.22044275459393	car	0.0		46	object	car-109.jpg	0.0	106.23148007562031	0.38326021906777896
19.0	68.60370297366171	ISI	1.0		712	object	car-109.jpg	0.0	106.61474029468809	6.016607447784736
19.0	68.66923474674786	pulse	1.0	t		object	car-109.jpg	0.0	106.68027206777424	
19.0	69.30379694106341	pulse	1.0	t		object	car-109.jpg	0.0	107.31483426208979	
19.0	70.00378435371749	pulse	1.0	t		object	car-109.jpg	0.0	108.01482167474387	
19.0	70.70376542742179	pulse	1.0	t		object	car-109.jpg	0.0	108.71480274844816	
19.0	71.40374831225381	pulse	1.0	t		object	car-109.jpg	0.0	109.41478563328019	
19.0	72.10374810095527	pulse	1.0	t		object	car-109.jpg	0.0	110.11478542198165	
19.0	72.80372223199811	pulse	1.0	t		object	car-109.jpg	0.0	110.81475955302449	
19.0	73.50371266320144	pulse	1.0	t		object	car-109.jpg	0.0	111.51474998422782	
19.0	74.20369313319497	pulse	1.0	t		object	car-109.jpg	0.0	112.21473045422135	
20.0	74.62031042144645	limb	0.0		46	body	limb-3.jpg	0.0	112.63134774247283	0.3832584079391381
20.0	74.90368899778423	pulse	0.0	t		body	limb-3.jpg	0.0	112.91472631881061	
20.0	75.00356882938559	ISI	1.0		355	body	limb-3.jpg	0.0	113.01460615041196	3.0166222386696973
20.0	75.60367127890731	pulse	1.0	t		body	limb-3.jpg	0.0	113.61470859993369	
20.0	76.3036499377722	pulse	1.0	t		body	limb-3.jpg	0.0	114.31468725879859	
20.0	77.00363342631408	pulse	1.0	t		body	limb-3.jpg	0.0	115.01467074734046	
20.0	77.70361540558224	pulse	1.0	t		body	limb-3.jpg	0.0	115.71465272660862	
21.0	78.02019106805528	house	0.0		46	place	house-1.jpg	0.0	116.03122838908166	0.383311534385939
21.0	78.40350260244122	ISI	1.0		234	place	house-1.jpg	0.0	116.4145399234676	2.016636425845718
21.0	78.45137164333664	pulse	1.0	t		place	house-1.jpg	0.0	116.46240896436302	
21.0	79.10359777726171	pulse	1.0	t		place	house-1.jpg	0.0	117.11463509828809	
21.0	79.80358217136836	pulse	1.0	t		place	house-1.jpg	0.0	117.81461949239474	
22.0	80.42013902828694	adult	0.0		46	face	adult-122.jpg	0.0	118.43117634931332	0.38334383284927753
22.0	80.50357048958722	pulse	0.0	t		face	adult-122.jpg	0.0	118.5146078106136	
22.0	80.80348286113622	ISI	1.0		234	face	adult-122.jpg	0.0	118.8145201821626	2.0166596686658522
22.0	81.20362612142799	pulse	1.0	t		face	adult-122.jpg	0.0	119.21466344245437	
22.0	81.9036050821478	pulse	1.0	t		face	adult-122.jpg	0.0	119.91464240317418	
22.0	82.60358706141596	pulse	1.0	t		face	adult-122.jpg	0.0	120.61462438244234	
23.0	82.82014252980207	car	0.0		46	object	car-64.jpg	0.0	120.83117985082845	0.38325478568185645
23.0	83.20339731548393	ISI	1.0		354	object	car-64.jpg	0.0	121.2144346365103	3.0166195219771907
23.0	83.3035168198021	pulse	1.0	t		object	car-64.jpg	0.0	121.31455414082848	
23.0	84.0034942712482	pulse	1.0	t		object	car-64.jpg	0.0	122.01453159227458	
23.0	84.70348741914404	pulse	1.0	t		object	car-64.jpg	0.0	122.71452474017042	
23.0	85.40346064462301	pulse	1.0	t		object	car-64.jpg	0.0	123.41449796564939	
23.0	86.10344835913202	pulse	1.0	t		object	car-64.jpg	0.0	124.1144856801584	
24.0	86.22001683746112	adult	0.0		46	face	adult-109.jpg	0.0	124.2310541584875	0.3833163640620114
24.0	86.60333320152313	ISI	1.0		235	face	adult-109.jpg	0.0	124.6143705225495	2.0166545371339453
24.0	86.80344663855976	pulse	1.0	t		face	adult-109.jpg	0.0	124.81448395958614	
24.0	87.50341805290918	pulse	1.0	t		face	adult-109.jpg	0.0	125.51445537393556	
24.0	88.20341150265995	pulse	1.0	t		face	adult-109.jpg	0.0	126.21444882368633	
25.0	88.61998773865707	adult	0.0		46	face	adult-109.jpg	1.0	126.63102505968345	0.3833190807554274
25.0	88.90342427111864	pulse	0.0	t		face	adult-109.jpg	1.0	126.91446159214502	
25.0	89.0033068194125	ISI	1.0		235	face	adult-109.jpg	1.0	127.01434414043888	2.0166605742306274
25.0	89.04171512694029	response	1.0	b		face	adult-109.jpg	1.0	127.05275244796667	
25.0	89.60341379675629	pulse	1.0	t		face	adult-109.jpg	1.0	127.61445111778266	
25.0	90.30344346908441	pulse	1.0	t		face	adult-109.jpg	1.0	128.3144807901108	
26.0	91.01996739364313	house	0.0		45	place	house-48.jpg	0.0	129.0310047146695	0.38329613979021815
26.0	91.00877673037485	pulse	0.0	t		place	house-48.jpg	0.0	129.01981405140123	
26.0	91.40326353343335	ISI	1.0		353	place	house-48.jpg	0.0	129.41430085445973	3.016634614717077
26.0	91.70340440907239	pulse	1.0	t		place	house-48.jpg	0.0	129.71444173009877	
26.0	92.40339484027481	pulse	1.0	t		place	house-48.jpg	0.0	130.4144321613012	
26.0	93.10337561212327	pulse	1.0	t		place	house-48.jpg	0.0	131.11441293314965	
26.0	93.80336060993977	pulse	1.0	t		place	house-48.jpg	0.0	131.81439793096615	
27.0	94.41989814815042	car	0.0		46	object	car-50.jpg	0.0	132.4309354691768	0.38329070640338614
27.0	94.50330817775921	pulse	0.0	t		object	car-50.jpg	0.0	132.5143454987856	
27.0	94.80318885455381	ISI	1.0		234	object	car-50.jpg	0.0	132.8142261755802	2.0166611779404775
27.0	95.2033324167005	pulse	1.0	t		object	car-50.jpg	0.0	133.21436973772688	
27.0	95.90330986814661	pulse	1.0	t		object	car-50.jpg	0.0	133.914347189173	
27.0	96.60329456410727	pulse	1.0	t		object	car-50.jpg	0.0	134.61433188513365	
28.0	96.81985003249429	adult	0.0		46	face	adult-51.jpg	0.0	134.83088735352067	0.3832888952747453
28.0	97.20313892776903	ISI	1.0		353	face	adult-51.jpg	0.0	135.2141762487954	3.0166406518128497
28.0	97.30329405095472	pulse	1.0	t		face	adult-51.jpg	0.0	135.3143313719811	
28.0	98.00327301167454	pulse	1.0	t		face	adult-51.jpg	0.0	136.01431033270092	
28.0	98.70325619836149	pulse	1.0	t		face	adult-51.jpg	0.0	136.71429351938787	
28.0	99.403236366501	pulse	1.0	t		face	adult-51.jpg	0.0	137.41427368752738	
28.0	100.10322830697714	pulse	1.0	t		face	adult-51.jpg	0.0	138.11426562800352	
29.0	100.21977957958188	adult	0.0		46	face	adult-31.jpg	0.0	138.23081690060826	0.3832876878559546
29.0	100.60306726743784	ISI	1.0		232	face	adult-31.jpg	0.0	138.61410458846422	2.0166632909240434
29.0	100.80321753076078	pulse	1.0	t		face	adult-31.jpg	0.0	138.81425485178715	
29.0	101.50320735825426	pulse	1.0	t		face	adult-31.jpg	0.0	139.51424467928064	
29.0	102.20317967816845	pulse	1.0	t		face	adult-31.jpg	0.0	140.21421699919483	
30.0	102.61973055836188	number	0.0		46	character	number-95.jpg	0.0	140.63076787938826	0.38328738600012
30.0	102.90313207566487	pulse	0.0	t		character	number-95.jpg	0.0	140.91416939669125	
30.0	103.003017944362	ISI	1.0		226	character	number-95.jpg	0.0	141.01405526538838	2.0166575556822863
30.0	103.60315782387988	pulse	1.0	t		character	number-95.jpg	0.0	141.61419514490626	
30.0	104.30313527532599	pulse	1.0	t		character	number-95.jpg	0.0	142.31417259635236	
31.0	105.01967550004429	number	0.0		45	character	number-58.jpg	0.0	143.03071282107067	0.38329342309771164
31.0	105.00694386798477	pulse	0.0	t		character	number-58.jpg	0.0	143.01798118901115	
31.0	105.402968923142	ISI	1.0		472	character	number-58.jpg	0.0	143.41400624416838	4.016620427541056
31.0	105.70310859136134	pulse	1.0	t		character	number-58.jpg	0.0	143.71414591238772	
31.0	106.40311502086843	pulse	1.0	t		character	number-58.jpg	0.0	144.4141523418948	
31.0	107.1030858315089	pulse	1.0	t		character	number-58.jpg	0.0	145.11412315253529	
31.0	107.80307052746957	pulse	1.0	t		character	number-58.jpg	0.0	145.81410784849595	
31.0	108.50305250673773	pulse	1.0	t		character	number-58.jpg	0.0	146.5140898277641	
31.0	109.20303448600589	pulse	1.0	t		character	number-58.jpg	0.0	147.21407180703227	
32.0	109.41958935068305	adult	0.0		46	face	adult-6.jpg	0.0	147.43062667170943	0.3832867822911794
32.0	109.80287613297423	ISI	1.0		234	face	adult-6.jpg	0.0	147.8139134540006	2.0166436703611907
32.0	109.90304604704488	pulse	1.0	t		face	adult-6.jpg	0.0	147.91408336807126	
32.0	110.60301202800838	pulse	1.0	t		face	adult-6.jpg	0.0	148.61404934903476	
32.0	111.30299551655025	pulse	1.0	t		face	adult-6.jpg	0.0	149.31403283757663	
33.0	111.81951980333542	adult	0.0		46	face	adult-138.jpg	0.0	149.8305571243618	0.38330730841789773
33.0	112.00296753460952	pulse	0.0	t		face	adult-138.jpg	0.0	150.0140048556359	
33.0	112.20282711175332	ISI	1.0		593	face	adult-138.jpg	0.0	150.2138644327797	5.016597486575847
33.0	112.70296732331099	pulse	1.0	t		face	adult-138.jpg	0.0	150.71400464433736	
33.0	113.40295443411105	pulse	1.0	t		face	adult-138.jpg	0.0	151.41399175513743	
33.0	114.10293339483087	pulse	1.0	t		face	adult-138.jpg	0.0	152.11397071585725	
33.0	114.80292533530701	pulse	1.0	t		face	adult-138.jpg	0.0	152.8139626563334	
33.0	115.50290671086623	pulse	1.0	t		face	adult-138.jpg	0.0	153.5139440318926	
33.0	116.20288959569825	pulse	1.0	t		face	adult-138.jpg	0.0	154.21392691672463	
33.0	116.90287459351475	pulse	1.0	t		face	adult-138.jpg	0.0	154.91391191454113	
34.0	117.21942459832917	house	0.0		46	place	house-40.jpg	0.0	155.23046191935555	0.38329131011323625
34.0	117.6027159084424	ISI	1.0		470	place	house-40.jpg	0.0	155.61375322946878	4.01661771084764
34.0	117.67838879563169	pulse	1.0	t		place	house-40.jpg	0.0	155.68942611665807	
34.0	118.30285304108111	pulse	1.0	t		place	house-40.jpg	0.0	156.3138903621075	
34.0	119.00283713333283	pulse	1.0	t		place	house-40.jpg	0.0	157.0138744543592	
34.0	119.70281760332637	pulse	1.0	t		place	house-40.jpg	0.0	157.71385492435275	
34.0	120.40289587427833	pulse	1.0	t		place	house-40.jpg	0.0	158.4139331953047	
34.0	121.10278458041103	pulse	1.0	t		place	house-40.jpg	0.0	159.1138219014374	
35.0	121.61933361929005	limb	0.0		46	body	limb-41.jpg	0.0	159.63037094031642	0.3832572005203474
35.0	121.80271041468495	pulse	0.0	t		body	limb-41.jpg	0.0	159.81374773571133	
35.0	122.0025908198104	ISI	1.0		714	body	limb-41.jpg	0.0	160.01362814083677	6.0166101644772425
35.0	122.50269450693668	pulse	1.0	t		body	limb-41.jpg	0.0	160.51373182796306	
35.0	123.20269006967101	pulse	1.0	t		body	limb-41.jpg	0.0	161.2137273906974	
35.0	123.90266721926218	pulse	1.0	t		body	limb-41.jpg	0.0	161.91370454028856	
35.0	124.60264225586889	pulse	1.0	t		body	limb-41.jpg	0.0	162.61367957689527	
35.0	125.30263661118443	pulse	1.0	t		body	limb-41.jpg	0.0	163.3136739322108	
35.0	126.00262040158123	pulse	1.0	t		body	limb-41.jpg	0.0	164.0136577226076	
35.0	126.70260177713953	pulse	1.0	t		body	limb-41.jpg	0.0	164.7136390981659	
35.0	127.40258949164854	pulse	1.0	t		body	limb-41.jpg	0.0	165.41362681267492	
36.0	128.01920098428764	adult	0.0		46	face	adult-97.jpg	0.0	166.03023830531401	0.38325810608421307
36.0	128.1025790172871	pulse	0.0	t		face	adult-97.jpg	0.0	166.11361633831348	
36.0	128.40245909037185	ISI	1.0		471	face	adult-97.jpg	0.0	166.41349641139823	4.01660533480117
36.0	128.80256341139375	pulse	1.0	t		face	adult-97.jpg	0.0	166.81360073242013	
36.0	129.50254629622577	pulse	1.0	t		face	adult-97.jpg	0.0	167.51358361725215	
36.0	130.20252948291363	pulse	1.0	t		face	adult-97.jpg	0.0	168.21356680394	
36.0	130.90251146218088	pulse	1.0	t		face	adult-97.jpg	0.0	168.91354878320726	
36.0	131.60249766741617	pulse	1.0	t		face	adult-97.jpg	0.0	169.61353498844255	
36.0	132.30248568378101	pulse	1.0	t		face	adult-97.jpg	0.0	170.3135230048074	
37.0	132.41906442517302	number	0.0		46	character	number-15.jpg	0.0	170.4301017461994	0.3833027805958409
37.0	132.80236720576886	ISI	1.0		235	character	number-15.jpg	0.0	170.81340452679524	2.0166632909240434
37.0	133.00247611498344	pulse	1.0	t		character	number-15.jpg	0.0	171.01351343600982	
37.0	133.70246020723516	pulse	1.0	t		character	number-15.jpg	0.0	171.71349752826154	
37.0	134.4025104056891	pulse	1.0	t		character	number-15.jpg	0.0	172.41354772671548	
38.0	134.8190304966929	house	0.0		46	place	house-96.jpg	0.0	172.83006781771928	0.3832876878550451
38.0	135.10243684367288	pulse	0.0	t		place	house-96.jpg	0.0	173.11347416469926	
38.0	135.20231818454795	ISI	1.0		234	place	house-96.jpg	0.0	173.21335550557433	2.016644877780891
38.0	135.80243814164896	pulse	1.0	t		place	house-96.jpg	0.0	173.81347546267534	
38.0	136.502397179951	pulse	1.0	t		place	house-96.jpg	0.0	174.51343450097738	
39.0	137.21896306232884	car	0.0		45	object	car-24.jpg	0.0	175.23000038335522	0.38330428986955667
39.0	137.21117128418973	pulse	0.0	t		object	car-24.jpg	0.0	175.2222086052161	
39.0	137.6022673521984	ISI	1.0		596	object	car-24.jpg	0.0	175.61330467322477	5.01663008689502
39.0	137.90238136275912	pulse	1.0	t		object	car-24.jpg	0.0	175.9134186837855	
39.0	138.60235760678643	pulse	1.0	t		object	car-24.jpg	0.0	176.6133949278128	
39.0	139.30234381202172	pulse	1.0	t		object	car-24.jpg	0.0	177.3133811330481	
39.0	140.0023248857251	pulse	1.0	t		object	car-24.jpg	0.0	178.01336220675148	
39.0	140.7023050538637	pulse	1.0	t		object	car-24.jpg	0.0	178.7133423748901	
39.0	141.40236883578473	pulse	1.0	t		object	car-24.jpg	0.0	179.4134061568111	
39.0	142.10235534287494	pulse	1.0	t		object	car-24.jpg	0.0	180.11339266390132	
40.0	142.61889743909342	adult	0.0		46	face	adult-119.jpg	0.0	180.6299347601198	0.3832523708433655
40.0	142.80227363077847	pulse	0.0	t		face	adult-119.jpg	0.0	180.81331095180485	
40.0	143.00214980993678	ISI	1.0		474	face	adult-119.jpg	0.0	181.01318713096316	4.016618918267341
40.0	143.5022604397236	pulse	1.0	t		face	adult-119.jpg	0.0	181.51329776075	
40.0	144.20223789116972	pulse	1.0	t		face	adult-119.jpg	0.0	182.2132752121961	
40.0	144.90222379455008	pulse	1.0	t		face	adult-119.jpg	0.0	182.91326111557646	
40.0	145.602211810914	pulse	1.0	t		face	adult-119.jpg	0.0	183.6132491319404	
40.0	146.30219469574695	pulse	1.0	t		face	adult-119.jpg	0.0	184.31323201677333	
41.0	147.01876872820412	limb	0.0		45	body	limb-91.jpg	0.0	185.0298060492305	0.38329463051559287
41.0	147.01100260772364	pulse	0.0	t		body	limb-91.jpg	0.0	185.02203992875002	
41.0	147.40206335871972	ISI	1.0		356	body	limb-91.jpg	0.0	185.4131006797461	3.0166542352799297
41.0	147.70216348395934	pulse	1.0	t		body	limb-91.jpg	0.0	185.71320080498572	
41.0	148.40215331145282	pulse	1.0	t		body	limb-91.jpg	0.0	186.4131906324792	
41.0	149.10220592474525	pulse	1.0	t		body	limb-91.jpg	0.0	187.11324324577163	
41.0	149.80219182812561	pulse	1.0	t		body	limb-91.jpg	0.0	187.813229149152	
42.0	150.41871759399965	car	0.0		46	object	car-100.jpg	0.0	188.42975491502602	0.3832750099536497
42.0	150.50211645498075	pulse	0.0	t		object	car-100.jpg	0.0	188.51315377600713	
42.0	150.8019926039533	ISI	1.0		236	object	car-100.jpg	0.0	188.81302992497967	2.0166605742306274
42.0	151.20210899916674	pulse	1.0	t		object	car-100.jpg	0.0	189.21314632019312	
42.0	151.90207648940395	pulse	1.0	t		object	car-100.jpg	0.0	189.91311381043033	
42.0	152.6020620909294	pulse	1.0	t		object	car-100.jpg	0.0	190.61309941195577	
43.0	152.81865317818392	car	0.0		46	object	car-100.jpg	1.0	190.8296904992103	0.383289800838611
43.0	153.20194297902253	ISI	1.0		235	object	car-100.jpg	1.0	191.2129803000489	2.0166617816503276
43.0	153.30205916293835	pulse	1.0	t		object	car-100.jpg	1.0	191.31309648396473	
43.0	153.49370315779288	response	1.0	b		object	car-100.jpg	1.0	191.50474047881926	
43.0	154.0020182012404	pulse	1.0	t		object	car-100.jpg	1.0	192.01305552226677	
43.0	154.70202040478125	pulse	1.0	t		object	car-100.jpg	1.0	192.71305772580763	
44.0	155.21860476067286	limb	0.0		46	body	limb-90.jpg	0.0	193.22964208169924	0.3832867822911794
44.0	155.40201294896724	pulse	0.0	t		body	limb-90.jpg	0.0	193.41305026999362	
44.0	155.60189154296404	ISI	1.0		476	body	limb-90.jpg	0.0	193.61292886399042	4.016649707456963
44.0	156.1020000597664	pulse	1.0	t		body	limb-90.jpg	0.0	194.11303738079278	
44.0	156.8020523712048	pulse	1.0	t		body	limb-90.jpg	0.0	194.8130896922312	
44.0	157.5020500469227	pulse	1.0	t		body	limb-90.jpg	0.0	195.51308736794908	
44.0	158.2020223668369	pulse	1.0	t		body	limb-90.jpg	0.0	196.21305968786328	
44.0	158.90200525166983	pulse	1.0	t		body	limb-90.jpg	0.0	196.9130425726962	
45.0	159.618541250421	house	0.0		45	place	house-119.jpg	0.0	197.62957857144738	0.38329191382308636
45.0	159.61073649252558	pulse	0.0	t		place	house-119.jpg	0.0	197.62177381355195	
45.0	160.0018331642441	ISI	1.0		354	place	house-119.jpg	0.0	198.01287048527047	3.0166409536677747
45.0	160.30197796399534	pulse	1.0	t		place	house-119.jpg	0.0	198.31301528502172	
45.0	161.00195813213395	pulse	1.0	t		place	house-119.jpg	0.0	199.01299545316033	
45.0	161.7019476577725	pulse	1.0	t		place	house-119.jpg	0.0	199.7129849787989	
45.0	162.4019287314759	pulse	1.0	t		place	house-119.jpg	0.0	200.41296605250227	
46.0	163.01847411791186	car	0.0		46	object	car-5.jpg	0.0	201.02951143893824	0.3832559931006472
46.0	163.10188263824693	pulse	0.0	t		object	car-5.jpg	0.0	201.1129199592733	
46.0	163.4017301110125	ISI	1.0		354	object	car-5.jpg	0.0	201.4127674320389	3.016637935120343
46.0	163.80183714872783	pulse	1.0	t		object	car-5.jpg	0.0	201.8128744697542	
46.0	164.5018103742059	pulse	1.0	t		object	car-5.jpg	0.0	202.51284769523227	
46.0	165.20180472952143	pulse	1.0	t		object	car-5.jpg	0.0	203.2128420505478	
46.0	165.90178882177315	pulse	1.0	t		object	car-5.jpg	0.0	203.91282614279953	
47.0	166.41836804613285	number	0.0		46	character	number-28.jpg	0.0	204.42940536715923	0.383292517532027
47.0	166.6017783474108	pulse	0.0	t		character	number-28.jpg	0.0	204.61281566843718	
47.0	166.80166056366488	ISI	1.0		353	character	number-28.jpg	0.0	204.81269788469126	3.0166687243108754
47.0	167.30176183595268	pulse	1.0	t		character	number-28.jpg	0.0	205.31279915697905	
47.0	168.0017447207856	pulse	1.0	t		character	number-28.jpg	0.0	206.012782041812	
47.0	168.70172881303733	pulse	1.0	t		character	number-28.jpg	0.0	206.7127661340637	
47.0	169.4017817281847	pulse	1.0	t		character	number-28.jpg	0.0	207.41281904921107	
48.0	169.81832928797576	limb	0.0		46	body	limb-113.jpg	0.0	207.82936660900214	0.38327048213159287
48.0	170.10170514762012	pulse	0.0	t		body	limb-113.jpg	0.0	208.1127424686465	
48.0	170.20159977010735	ISI	1.0		234	body	limb-113.jpg	0.0	208.21263709113373	2.0166424629414905
48.0	170.8017064455962	pulse	1.0	t		body	limb-113.jpg	0.0	208.8127437666226	
48.0	170.94357126233535	response	1.0	b		body	limb-113.jpg	0.0	208.95460858336173	
48.0	171.501657031964	pulse	1.0	t		body	limb-113.jpg	0.0	209.51269435299037	
49.0	172.21824223304884	house	0.0		45	place	house-140.jpg	0.0	210.22927955407522	0.3832970453549933
49.0	172.2104145341882	pulse	0.0	t		place	house-140.jpg	0.0	210.22145185521458	
49.0	172.60153927840383	ISI	1.0		233	place	house-140.jpg	0.0	210.6125765994302	2.0166572538273613
49.0	172.90164544073923	pulse	1.0	t		place	house-140.jpg	0.0	210.9126827617656	
49.0	173.60163074040975	pulse	1.0	t		place	house-140.jpg	0.0	211.61266806143612	
49.0	174.30161030483941	pulse	1.0	t		place	house-140.jpg	0.0	212.3126476258658	
50.0	174.6181965322312	house	0.0		46	place	house-135.jpg	0.0	212.62923385325757	0.38328587672640424
50.0	175.0014824089576	ISI	1.0		234	place	house-135.jpg	0.0	213.01251972998398	2.0167001172103483
50.0	175.04832182310565	pulse	1.0	t		place	house-135.jpg	0.0	213.05935914413203	
50.0	175.70158603571326	pulse	1.0	t		place	house-135.jpg	0.0	213.71262335673964	
50.0	176.4016335174747	pulse	1.0	t		place	house-135.jpg	0.0	214.41267083850107	
51.0	177.01818252616795	limb	0.0		46	body	limb-13.jpg	0.0	215.02921984719433	0.3832550875367815
51.0	177.10156357771575	pulse	0.0	t		body	limb-13.jpg	0.0	215.11260089874213	
51.0	177.40143761370473	ISI	1.0		233	body	limb-13.jpg	0.0	215.4124749347311	2.016659366810927
51.0	177.80154193472572	pulse	1.0	t		body	limb-13.jpg	0.0	215.8125792557521	
51.0	178.50154353455673	pulse	1.0	t		body	limb-13.jpg	0.0	216.5125808555831	
51.0	179.20150860995545	pulse	1.0	t		body	limb-13.jpg	0.0	217.21254593098183	
52.0	179.41809698051566	house	0.0		46	place	house-32.jpg	0.0	217.42913430154204	0.3832916119681613
52.0	179.80138859248382	ISI	1.0		355	place	house-32.jpg	0.0	217.8124259135102	3.016634614717077
52.0	179.90149994672265	pulse	1.0	t		place	house-32.jpg	0.0	217.91253726774903	
52.0	180.6014843408284	pulse	1.0	t		place	house-32.jpg	0.0	218.61252166185477	
52.0	181.30146420711299	pulse	1.0	t		place	house-32.jpg	0.0	219.31250152813936	
52.0	182.00144890307456	pulse	1.0	t		place	house-32.jpg	0.0	220.01248622410094	
52.0	182.70143269347136	pulse	1.0	t		place	house-32.jpg	0.0	220.71247001449774	
53.0	182.8180232072009	car	0.0		46	object	car-53.jpg	0.0	220.82906052822727	0.38332843825446616
53.0	183.20135164545536	ISI	1.0		231	object	car-53.jpg	0.0	221.21238896648174	2.0166581593921364
53.0	183.40149828652102	pulse	1.0	t		object	car-53.jpg	0.0	221.4125356075474	
53.0	184.10147845465963	pulse	1.0	t		object	car-53.jpg	0.0	222.112515775686	
53.0	184.80146526360477	pulse	1.0	t		object	car-53.jpg	0.0	222.81250258463115	
54.0	185.2180098048475	limb	0.0		46	body	limb-25.jpg	0.0	223.22904712587388	0.38330036575734994
54.0	185.50142249077908	pulse	0.0	t		body	limb-25.jpg	0.0	223.51245981180546	
54.0	185.60131017060485	ISI	1.0		234	body	limb-25.jpg	0.0	223.61234749163123	2.0166457833447566
54.0	186.20144039076877	pulse	1.0	t		body	limb-25.jpg	0.0	224.21247771179515	
54.0	186.9014157292313	pulse	1.0	t		body	limb-25.jpg	0.0	224.91245305025768	
55.0	187.6179559539496	house	0.0		45	place	house-37.jpg	0.0	225.62899327497598	0.38329553608036804
55.0	187.60635989967523	pulse	0.0	t		place	house-37.jpg	0.0	225.6173972207016	
55.0	188.00125149002997	ISI	1.0		474	place	house-37.jpg	0.0	226.01228881105635	4.0166183145574905
55.0	188.30139568607137	pulse	1.0	t		place	house-37.jpg	0.0	226.31243300709775	
55.0	189.00137645792074	pulse	1.0	t		place	house-37.jpg	0.0	227.01241377894712	
55.0	189.7013596446077	pulse	1.0	t		place	house-37.jpg	0.0	227.71239696563407	
55.0	190.40133739790872	pulse	1.0	t		place	house-37.jpg	0.0	228.4123747189351	
55.0	191.10132390499894	pulse	1.0	t		place	house-37.jpg	0.0	229.1123612260253	
55.0	191.8013149399112	pulse	1.0	t		place	house-37.jpg	0.0	229.8123522609376	
56.0	192.01786980458746	house	0.0		46	place	house-108.jpg	0.0	230.02890712561384	0.3832894989845954
56.0	192.40115930357206	ISI	1.0		234	place	house-108.jpg	0.0	230.41219662459844	2.0166605742306274
56.0	192.50131412490282	pulse	1.0	t		place	house-108.jpg	0.0	230.5123514459292	
56.0	193.20129580231605	pulse	1.0	t		place	house-108.jpg	0.0	231.21233312334243	
56.0	193.9012814038415	pulse	1.0	t		place	house-108.jpg	0.0	231.91231872486787	
57.0	194.41781987780269	limb	0.0		46	body	limb-130.jpg	0.0	232.42885719882906	0.3832882915648952
57.0	194.601228367952	pulse	0.0	t		body	limb-130.jpg	0.0	232.61226568897837	
57.0	194.80110816936758	ISI	1.0		472	body	limb-130.jpg	0.0	232.81214549039396	4.016614692300209
57.0	195.30124928649002	pulse	1.0	t		body	limb-130.jpg	0.0	233.3122866075164	
57.0	196.00123186946803	pulse	1.0	t		body	limb-130.jpg	0.0	234.0122691904944	
57.0	196.7012114338977	pulse	1.0	t		body	limb-130.jpg	0.0	234.71224875492408	
57.0	197.40120065768042	pulse	1.0	t		body	limb-130.jpg	0.0	235.4122379787068	
57.0	198.10119259815747	pulse	1.0	t		body	limb-130.jpg	0.0	236.11222991918385	
58.0	198.8177228616678	number	0.0		45	character	number-119.jpg	0.0	236.82876018269417	0.38329281938695203
58.0	198.8052336190185	pulse	0.0	t		character	number-119.jpg	0.0	236.8162709400449	
58.0	199.20101568105474	ISI	1.0		352	character	number-119.jpg	0.0	237.21205300208112	3.01662948318517
58.0	199.5011668197567	pulse	1.0	t		character	number-119.jpg	0.0	237.51220414078307	
58.0	200.20114396934787	pulse	1.0	t		character	number-119.jpg	0.0	238.21218129037425	
58.0	200.90112866530944	pulse	1.0	t		character	number-119.jpg	0.0	238.91216598633582	
58.0	201.60111336127102	pulse	1.0	t		character	number-119.jpg	0.0	239.6121506822974	
59.0	202.2176451642399	limb	0.0		46	body	limb-6.jpg	0.0	240.2286824852663	0.383300667612275
59.0	202.30110379247344	pulse	0.0	t		body	limb-6.jpg	0.0	240.31214111349982	
59.0	202.6009458318522	ISI	1.0		232	body	limb-6.jpg	0.0	240.61198315287857	2.0166608760855524
59.0	203.0010881865801	pulse	1.0	t		body	limb-6.jpg	0.0	241.01212550760647	
59.0	203.70107046770227	pulse	1.0	t		body	limb-6.jpg	0.0	241.71210778872864	
59.0	204.40105305068028	pulse	1.0	t		body	limb-6.jpg	0.0	242.41209037170665	
60.0	204.61760670793774	house	0.0		46	place	house-75.jpg	0.0	242.62864402896412	0.38328859341982024
60.0	205.00089530135756	ISI	1.0		352	place	house-75.jpg	0.0	243.01193262238394	3.016640048103909
60.0	205.10104710413998	pulse	1.0	t		place	house-75.jpg	0.0	243.11208442516636	
60.0	205.8010387427621	pulse	1.0	t		place	house-75.jpg	0.0	243.81207606378848	
60.0	206.50100894969273	pulse	1.0	t		place	house-75.jpg	0.0	244.5120462707191	
60.0	207.2010036068623	pulse	1.0	t		place	house-75.jpg	0.0	245.21204092788867	
60.0	207.90098588798537	pulse	1.0	t		place	house-75.jpg	0.0	245.91202320901175	
61.0	208.01753534946147	limb	0.0		46	body	limb-107.jpg	0.0	246.02857267048785	0.38329010269353603
61.0	208.400825452155	ISI	1.0		475	body	limb-107.jpg	0.0	246.41186277318138	4.01661771084855
61.0	208.60095549120615	pulse	1.0	t		body	limb-107.jpg	0.0	246.61199281223253	
61.0	209.3009576947461	pulse	1.0	t		body	limb-107.jpg	0.0	247.31199501577248	
61.0	210.00096744465645	pulse	1.0	t		body	limb-107.jpg	0.0	248.01200476568283	
61.0	210.70119573744705	pulse	1.0	t		body	limb-107.jpg	0.0	248.71223305847343	
61.0	211.40090936779143	pulse	1.0	t		body	limb-107.jpg	0.0	249.4119466888178	
61.0	212.10089496931778	pulse	1.0	t		body	limb-107.jpg	0.0	250.11193229034416	
62.0	212.41744316300355	car	0.0		46	object	car-11.jpg	0.0	250.42848048402993	0.38326021906777896
62.0	212.80070338207133	ISI	1.0		235	object	car-11.jpg	0.0	250.8117407030977	2.0166557445536455
62.0	212.83629900650521	pulse	1.0	t		object	car-11.jpg	0.0	250.8473363275316	
62.0	213.50080731068192	pulse	1.0	t		object	car-11.jpg	0.0	251.5118446317083	
62.0	214.20078385656325	pulse	1.0	t		object	car-11.jpg	0.0	252.21182117758963	
63.0	214.81735912662498	number	0.0		46	character	number-91.jpg	0.0	252.82839644765136	0.3832916119681613
63.0	214.90077670260416	pulse	0.0	t		character	number-91.jpg	0.0	252.91181402363054	
63.0	215.20065073859314	ISI	1.0		235	character	number-91.jpg	0.0	253.21168805961952	2.016639746248984
63.0	215.60075777630755	pulse	1.0	t		character	number-91.jpg	0.0	253.61179509733392	
63.0	216.30073552960857	pulse	1.0	t		character	number-91.jpg	0.0	254.31177285063495	
63.0	217.00072535710115	pulse	1.0	t		character	number-91.jpg	0.0	255.01176267812752	
64.0	217.21729048484212	car	0.0		46	object	car-94.jpg	0.0	255.2283278058685	0.38331123253010446
64.0	217.60060171737223	ISI	1.0		593	object	car-94.jpg	0.0	255.6116390383986	5.016624351653263
64.0	217.70072182540025	pulse	1.0	t		object	car-94.jpg	0.0	255.71175914642663	
64.0	218.4006959564431	pulse	1.0	t		object	car-94.jpg	0.0	256.41173327746947	
64.0	219.10074796602657	pulse	1.0	t		object	car-94.jpg	0.0	257.11178528705295	
64.0	219.80073749166422	pulse	1.0	t		object	car-94.jpg	0.0	257.8117748126906	
64.0	220.5007158486751	pulse	1.0	t		object	car-94.jpg	0.0	258.5117531697015	
64.0	221.20071563737656	pulse	1.0	t		object	car-94.jpg	0.0	259.21175295840294	
64.0	221.9006921832579	pulse	1.0	t		object	car-94.jpg	0.0	259.91172950428427	
65.0	222.6172260690255	number	0.0		45	character	number-39.jpg	0.0	260.62826339005187	0.38329402680665225
65.0	222.60938176815034	pulse	0.0	t		character	number-39.jpg	0.0	260.6204190891767	
65.0	223.00052009583214	ISI	1.0		239	character	number-39.jpg	0.0	261.0115574168585	1.999997887016434
65.0	223.30066580114817	pulse	1.0	t		character	number-39.jpg	0.0	261.31170312217455	
65.0	224.00064717670648	pulse	1.0	t		character	number-39.jpg	0.0	262.01168449773286	
65.0	224.70063187266715	pulse	1.0	t		character	number-39.jpg	0.0	262.7116691936935	
66.0	225.00051798284858	baseline	0.0		708		baseline	0.0	263.01155530387496	5.899875062295905
66.0	225.40061022967802	pulse	0.0	t			baseline	0.0	263.4116475507044	
66.0	226.10059824604195	pulse	0.0	t			baseline	0.0	264.11163556706833	
66.0	226.800590186519	pulse	0.0	t			baseline	0.0	264.8116275075454	
66.0	227.500596917881	pulse	0.0	t			baseline	0.0	265.5116342389074	
66.0	228.20056320069853	pulse	0.0	t			baseline	0.0	266.2116005217249	
66.0	228.90054487811176	pulse	0.0	t			baseline	0.0	266.91158219913814	
66.0	229.60052232955786	pulse	0.0	t			baseline	0.0	267.61155965058424	
66.0	230.30051819414712	pulse	0.0	t			baseline	0.0	268.3115555151735	
66.0	230.90039304514448	ISI	1.0		12		baseline	0.0	268.91143036617086	0.1000051013461416
