trial_nr	onset	event_type	phase	response	nr_frames	trial_type	stim_name	task_probe	onset_abs	duration
0.0	0.05479144826358606	baseline	0.0		41.0		baseline	0.0	92.32135087662664	0.3486408012868196
0.0	0.4034322495504057	ISI	1.0		11.0		baseline	0.0	92.66999167791346	0.1000072142865065
1.0	0.5034394638369122	baseline	0.0		48.0		baseline	0.0	92.76999889219996	0.399984786609366
1.0	0.7035492779527885	pulse	0.0	t			baseline	0.0	92.97010870631584	
1.0	0.9034242504462782	ISI	1.0		11.0		baseline	0.0	93.16998367880933	0.09999514016681132
2.0	1.0034193906130895	baseline	0.0		48.0		baseline	0.0	93.26997881897614	0.39996697728338404
2.0	1.4033863678964735	ISI	1.0		11.0		baseline	0.0	93.66994579625953	0.10000630872764305
2.0	1.4080149815672485	pulse	1.0	t			baseline	0.0	93.6745744099303	
3.0	1.5033926766241166	baseline	0.0		48.0		baseline	0.0	93.76995210498717	0.39997995696194266
3.0	1.9033726335860592	ISI	1.0		11.0		baseline	0.0	94.16993206194911	0.09999815869650774
4.0	2.003370792282567	baseline	0.0		48.0		baseline	0.0	94.26993022064562	0.39998780513951715
4.0	2.103485164378526	pulse	0.0	t			baseline	0.0	94.37004459274158	
4.0	2.403358597422084	ISI	1.0		11.0		baseline	0.0	94.66991802578514	0.09999846054961381
5.0	2.503357057971698	baseline	0.0		48.0		baseline	0.0	94.76991648633475	0.3999920310811831
5.0	2.803455975194993	pulse	0.0	t			baseline	0.0	95.07001540355805	
5.0	2.903349089052881	ISI	1.0		11.0		baseline	0.0	95.16990851741593	0.10000238463862843
6.0	3.0033514736915095	baseline	0.0		48.0		baseline	0.0	95.26991090205456	0.39998206993277563
6.0	3.403333543624285	ISI	1.0		11.0		baseline	0.0	95.66989297198734	0.09999785684385643
7.0	3.5033314004681415	baseline	0.0		47.0		baseline	0.0	95.7698908288312	0.399989314404138
7.0	3.5074966698070966	pulse	0.0	t			baseline	0.0	95.77405609817015	
7.0	3.9033207148722795	ISI	1.0		11.0		baseline	0.0	96.16988014323533	0.10000027166779546
8.0	4.003320986540075	baseline	0.0		48.0		baseline	0.0	96.26988041490313	0.39998659772754763
8.0	4.203437743274662	pulse	0.0	t			baseline	0.0	96.46999717163771	
8.0	4.403307584267623	ISI	1.0		11.0		baseline	0.0	96.66986701263068	0.09999906425582594
9.0	4.5033066485234485	baseline	0.0		48.0		baseline	0.0	96.7698660768865	0.39999474775777344
9.0	4.903301396281222	ISI	1.0		11.0		baseline	0.0	97.16986082464427	0.09999846055006856
9.0	4.9077733482531585	pulse	1.0	t			baseline	0.0	97.17433277661621	
10.0	5.0032998568312905	baseline	0.0		48.0		baseline	0.0	97.26985928519434	0.39999233293428915
10.0	5.40329218976558	ISI	1.0		11.0		baseline	0.0	97.66985161812863	0.09999755499075036
11.0	5.50328974475633	baseline	0.0		48.0		baseline	0.0	97.76984917311938	0.39997905140262446
11.0	5.60340441870494	pulse	0.0	t			baseline	0.0	97.869963847068	
11.0	5.9032687961589545	ISI	1.0		2.0		baseline	0.0	98.169828224522	0.12500969702705333
12.0	6.028278493186008	word	0.0		45.0	character	word-74.jpg	0.0	98.29483792154906	0.37494064815700767
12.0	6.303335384927323	pulse	0.0	t		character	word-74.jpg	0.0	98.56989481329038	
12.0	6.4032191413430155	ISI	1.0		6.0	character	word-74.jpg	0.0	98.66977856970607	0.11668730837982366
13.0	6.519906449722839	word	0.0		46.0	character	word-31.jpg	0.0	98.78646587808589	0.38328627948385474
13.0	6.903192729206694	ISI	1.0		7.0	character	word-31.jpg	0.0	99.16975215756975	0.11669153432194435
14.0	7.019884263528638	word	0.0		45.0	character	word-70.jpg	0.0	99.28644369189169	0.38329684433847433
14.0	7.012049367452164	pulse	0.0	t		character	word-70.jpg	0.0	99.27860879581522	
14.0	7.403181107867113	ISI	1.0		6.0	character	word-70.jpg	0.0	99.66974053623017	0.11669757138133718
15.0	7.51987867924845	word	0.0		46.0	character	word-131.jpg	0.0	99.7864381076115	0.3832980517499891
15.0	7.703300249239874	pulse	0.0	t		character	word-131.jpg	0.0	99.96985967760293	
15.0	7.903176730998439	ISI	1.0		7.0	character	word-131.jpg	0.0	100.16973615936149	0.11667583796679537
16.0	8.019852568965234	word	0.0		46.0	character	word-90.jpg	0.0	100.28641199732829	0.38330499436870014
16.0	8.403157563333934	ISI	1.0		7.0	character	word-90.jpg	0.0	100.66971699169699	0.1166646694064184
16.0	8.441788406491014	pulse	1.0	t		character	word-90.jpg	0.0	100.70834783485407	
17.0	8.519822232740353	word	0.0		46.0	character	word-125.jpg	0.0	100.7863816611034	0.3833143518113502
17.0	8.903136584551703	ISI	1.0		8.0	character	word-125.jpg	0.0	101.16969601291476	0.11669455285164076
18.0	9.019831137403344	word	0.0		46.0	character	word-125.jpg	1.0	101.2863905657664	0.3832968443380196
18.0	9.103268433935227	pulse	0.0	t		character	word-125.jpg	1.0	101.36982786229828	
18.0	9.403127981741363	ISI	1.0		7.0	character	word-125.jpg	1.0	101.66968741010442	0.11671115476610794
19.0	9.519839136507471	word	0.0		45.0	character	word-23.jpg	0.0	101.78639856487052	0.38328748689582426
19.0	9.524151106396857	response	0.0	b		character	word-23.jpg	0.0	101.79071053475991	
19.0	9.803225963220484	pulse	0.0	t		character	word-23.jpg	0.0	102.06978539158354	
19.0	9.903126623403296	ISI	1.0		5.0	character	word-23.jpg	0.0	102.16968605176635	0.11668338429080904
20.0	10.019810007694105	word	0.0		46.0	character	word-44.jpg	0.0	102.28636943605716	0.3832911091317328
20.0	10.403101116825837	ISI	1.0		4.0	character	word-44.jpg	0.0	102.66966054518889	0.11668942135111138
21.0	10.519790538176949	word	0.0		45.0	character	word-108.jpg	0.0	102.78634996654	0.3832962406322622
21.0	10.511371556574431	pulse	0.0	t		character	word-108.jpg	0.0	102.77793098493748	
21.0	10.903086778809211	ISI	1.0		7.0	character	word-108.jpg	0.0	103.16964620717226	0.11669726952823112
22.0	11.019784048337442	word	0.0		46.0	character	word-127.jpg	0.0	103.2863434767005	0.3833022776921098
22.0	11.203194449768944	pulse	0.0	t		character	word-127.jpg	0.0	103.469753878132	
22.0	11.403086326029552	ISI	1.0		7.0	character	word-127.jpg	0.0	103.6696457543926	0.11668459170323331
23.0	11.519770917732785	word	0.0		46.0	character	word-61.jpg	0.0	103.78633034609584	0.38328809060158164
23.0	11.903059008334367	ISI	1.0		7.0	character	word-61.jpg	0.0	104.16961843669742	0.11669606211671635
23.0	11.94170403858152	pulse	1.0	t		character	word-61.jpg	0.0	104.20826346694457	
24.0	12.019755070451083	adult	0.0		46.0	face	adult-2.jpg	0.0	104.28631449881414	0.3833279351956662
24.0	12.40308300564675	ISI	1.0		3.0	face	adult-2.jpg	0.0	104.6696424340098	0.11669757138133718
25.0	12.519780577028087	adult	0.0		46.0	face	adult-80.jpg	0.0	104.78634000539114	0.3832527738027238
25.0	12.603156899257556	pulse	0.0	t		face	adult-80.jpg	0.0	104.86971632762061	
25.0	12.90303335083081	ISI	1.0		7.0	face	adult-80.jpg	0.0	105.16959277919386	0.11669545841050422
26.0	13.019728809241315	adult	0.0		46.0	face	adult-6.jpg	0.0	105.28628823760437	0.3832929202494597
26.0	13.303140689752126	pulse	0.0	t		face	adult-6.jpg	0.0	105.56970011811518	
26.0	13.403021729490774	ISI	1.0		5.0	face	adult-6.jpg	0.0	105.66958115785383	0.1166951565578529
27.0	13.519716886048627	adult	0.0		46.0	face	adult-31.jpg	0.0	105.78627631441168	0.3832859776307487
27.0	13.903002863679376	ISI	1.0		7.0	face	adult-31.jpg	0.0	106.16956229204243	0.11669817508754932
28.0	14.019701038766925	adult	0.0		45.0	face	adult-30.jpg	0.0	106.28626046712998	0.38328084612976454
28.0	14.011269379338955	pulse	0.0	t		face	adult-30.jpg	0.0	106.27782880770201	
28.0	14.40298188489669	ISI	1.0		6.0	face	adult-30.jpg	0.0	106.66954131325974	0.11671206032497139
29.0	14.519693945221661	adult	0.0		46.0	face	adult-17.jpg	0.0	106.78625337358471	0.38329986286817075
29.0	14.703114005948464	pulse	0.0	t		face	adult-17.jpg	0.0	106.96967343431152	
29.0	14.902993808089832	ISI	1.0		7.0	face	adult-17.jpg	0.0	107.16955323645288	0.11668278058505166
30.0	15.019676588674884	adult	0.0		46.0	face	adult-14.jpg	0.0	107.28623601703794	0.3833019758390037
30.0	15.402978564513887	ISI	1.0		7.0	face	adult-14.jpg	0.0	107.66953799287694	0.11668489355633938
30.0	15.437296532222263	pulse	1.0	t		face	adult-14.jpg	0.0	107.70385596058532	
31.0	15.519663458070227	adult	0.0		46.0	face	adult-28.jpg	0.0	107.78622288643328	0.3832992591619586
31.0	15.902962717232185	ISI	1.0		6.0	face	adult-28.jpg	0.0	108.16952214559524	0.11668730838027841
32.0	16.019650025612464	adult	0.0		46.0	face	adult-114.jpg	0.0	108.28620945397552	0.38329080727862674
32.0	16.10306407946473	pulse	0.0	t		face	adult-114.jpg	0.0	108.36962350782778	
32.0	16.40294083289109	ISI	1.0		6.0	face	adult-114.jpg	0.0	108.66950026125414	0.1166960621162616
33.0	16.519636895007352	adult	0.0		46.0	face	adult-75.jpg	0.0	108.7861963233704	0.3832880906020364
33.0	16.803044247723392	pulse	0.0	t		face	adult-75.jpg	0.0	109.06960367608644	
33.0	16.90292498560939	ISI	1.0		6.0	face	adult-75.jpg	0.0	109.16948441397244	0.1166987787933067
34.0	17.019623764402695	adult	0.0		46.0	face	adult-7.jpg	0.0	109.28618319276575	0.3832905054255207
34.0	17.402914269828216	ISI	1.0		6.0	face	adult-7.jpg	0.0	109.66947369819127	0.11668942135065663
35.0	17.519603691178872	adult	0.0		45.0	face	adult-11.jpg	0.0	109.78616311954192	0.38329684433847433
35.0	17.51104404608577	pulse	0.0	t		face	adult-11.jpg	0.0	109.77760347444882	
35.0	17.902900535517347	ISI	1.0		6.0	face	adult-11.jpg	0.0	110.1694599638804	0.1166987787933067
36.0	18.019599314310653	body	0.0		46.0	body	body-26.jpg	0.0	110.2861587426737	0.38328114798332535
36.0	18.203006395359353	pulse	0.0	t		body	body-26.jpg	0.0	110.4695658237224	
36.0	18.40288046229398	ISI	1.0		5.0	body	body-26.jpg	0.0	110.66943989065703	0.11670391029429084
36.0	18.48632741812162	response	1.0	b		body	body-26.jpg	0.0	110.75288684648467	
37.0	18.51958437258827	body	0.0		46.0	body	body-48.jpg	0.0	110.78614380095132	0.38333095372536263
37.0	18.902915326313632	ISI	1.0		3.0	body	body-48.jpg	0.0	111.16947475467668	0.11669123246883828
37.0	18.973576695259453	pulse	1.0	t		body	body-48.jpg	0.0	111.2401361236225	
38.0	19.01960655878247	body	0.0		46.0	body	body-119.jpg	0.0	111.28616598714552	0.3832554904793142
38.0	19.402862049261785	ISI	1.0		6.0	body	body-119.jpg	0.0	111.66942147762484	0.11669636396936767
39.0	19.519558413231152	body	0.0		46.0	body	body-25.jpg	0.0	111.7861178415942	0.38329020357286936
39.0	19.603023782090986	pulse	0.0	t		body	body-25.jpg	0.0	111.86958321045404	
39.0	19.90284861680402	ISI	1.0		7.0	body	body-25.jpg	0.0	112.16940804516707	0.11669576026361028
40.0	20.019544377067632	body	0.0		46.0	body	body-37.jpg	0.0	112.28610380543068	0.38328929801355116
40.0	20.30296229463829	pulse	0.0	t		body	body-37.jpg	0.0	112.56952172300134	
40.0	20.402833675081183	ISI	1.0		7.0	body	body-37.jpg	0.0	112.66939310344424	0.11669636396936767
41.0	20.51953003905055	body	0.0		46.0	body	body-138.jpg	0.0	112.7860894674136	0.3832892980140059
41.0	20.902819337064557	ISI	1.0		6.0	body	body-138.jpg	0.0	113.16937876542761	0.11669274173345912
42.0	21.019512078798016	body	0.0		45.0	body	body-80.jpg	0.0	113.28607150716107	0.3832865813369608
42.0	21.011185162356014	pulse	0.0	t		body	body-80.jpg	0.0	113.27774459071907	
42.0	21.402798660134977	ISI	1.0		5.0	body	body-80.jpg	0.0	113.66935808849803	0.1167060232651238
43.0	21.5195046834001	body	0.0		46.0	body	body-93.jpg	0.0	113.78606411176315	0.38329141098438413
43.0	21.702919310773268	pulse	0.0	t		body	body-93.jpg	0.0	113.96947873913632	
43.0	21.902796094384485	ISI	1.0		7.0	body	body-93.jpg	0.0	114.16935552274754	0.1166969676755798
44.0	22.019493062060064	body	0.0		46.0	body	body-139.jpg	0.0	114.28605249042312	0.3832871850427182
44.0	22.402780247102783	ISI	1.0		3.0	body	body-139.jpg	0.0	114.66933967546584	0.11669606211671635
44.0	22.472860247199606	pulse	1.0	t		body	body-139.jpg	0.0	114.73941967556266	
45.0	22.5194763092195	body	0.0		46.0	body	body-52.jpg	0.0	114.78603573758255	0.38329080727862674
45.0	22.902767116498126	ISI	1.0		7.0	body	body-52.jpg	0.0	115.16932654486118	0.11669636396936767
46.0	23.019463480467493	body	0.0		46.0	body	body-94.jpg	0.0	115.28602290883055	0.3832895998666572
46.0	23.10288749546862	pulse	0.0	t		body	body-94.jpg	0.0	115.36944692383167	
46.0	23.40275308033415	ISI	1.0		7.0	body	body-94.jpg	0.0	115.6693125086972	0.11669757138179193
47.0	23.519450651715943	body	0.0		46.0	body	body-41.jpg	0.0	115.786010080079	0.38329865545620123
47.0	23.802859211843952	pulse	0.0	t		body	body-41.jpg	0.0	116.069418640207	
47.0	23.902749307172144	ISI	1.0		7.0	body	body-41.jpg	0.0	116.1693087355352	0.11668308243815773
48.0	24.0194323896103	body	0.0		46.0	body	body-21.jpg	0.0	116.28599181797335	0.38329382580832316
48.0	24.344510848747177	response	0.0	b		body	body-21.jpg	0.0	116.61107027711023	
48.0	24.402726215418625	ISI	1.0		7.0	body	body-21.jpg	0.0	116.66928564378168	0.11668217687929427
49.0	24.51940839229792	body	0.0		45.0	body	body-112.jpg	0.0	116.78596782066097	0.38330559807491227
49.0	24.510966168015784	pulse	0.0	t		body	body-112.jpg	0.0	116.77752559637884	
49.0	24.90271399037283	ISI	1.0		6.0	body	body-112.jpg	0.0	117.16927341873588	0.1166960621162616
50.0	25.019410052489093	body	0.0		46.0	body	body-47.jpg	0.0	117.28596948085215	0.38333035002006
50.0	25.202856978131877	pulse	0.0	t		body	body-47.jpg	0.0	117.46941640649493	
50.0	25.402740402509153	ISI	1.0		6.0	body	body-47.jpg	0.0	117.6692998308722	0.12502388411712673
51.0	25.52776428662628	body	0.0		45.0	body	body-7.jpg	0.0	117.79432371498933	0.3749566463652627
51.0	25.902720932991542	ISI	1.0		6.0	body	body-7.jpg	0.0	118.1692803613546	0.1166987787933067
51.0	25.94940068599135	pulse	1.0	t		body	body-7.jpg	0.0	118.2159601143544	
52.0	26.01941971178485	body	0.0		46.0	body	body-60.jpg	0.0	118.2859791401479	0.3832539812142386
52.0	26.402673692999088	ISI	1.0		7.0	body	body-60.jpg	0.0	118.66923312136214	0.11671417329580436
53.0	26.519387866294892	body	0.0		46.0	body	body-3.jpg	0.0	118.78594729465794	0.3832729979526448
53.0	26.602798599764355	pulse	0.0	t		body	body-3.jpg	0.0	118.86935802812741	
53.0	26.902660864247537	ISI	1.0		7.0	body	body-3.jpg	0.0	119.16922029261059	0.1166960621162616
54.0	27.0193569263638	body	0.0		46.0	body	body-10.jpg	0.0	119.28591635472685	0.38329473136764136
54.0	27.30276729760999	pulse	0.0	t		body	body-10.jpg	0.0	119.56932672597304	
54.0	27.40265165773144	ISI	1.0		6.0	body	body-10.jpg	0.0	119.66921108609449	0.11669093061573221
55.0	27.519342588347172	body	0.0		46.0	body	body-2.jpg	0.0	119.78590201671022	0.3832929202494597
55.0	27.90263550859663	ISI	1.0		6.0	body	body-2.jpg	0.0	120.16919493695968	0.11669153432194435
56.0	28.019327042918576	body	0.0		45.0	body	body-46.jpg	0.0	120.28588647128163	0.38329110913127806
56.0	28.011035745128538	pulse	0.0	t		body	body-46.jpg	0.0	120.27759517349159	
56.0	28.402618152049854	ISI	1.0		7.0	body	body-46.jpg	0.0	120.6691775804129	0.11669877879376145
57.0	28.519316930843615	body	0.0		46.0	body	body-89.jpg	0.0	120.78587635920667	0.38328929801355116
57.0	28.70272401189186	pulse	0.0	t		body	body-89.jpg	0.0	120.96928344025491	
57.0	28.902606228857167	ISI	1.0		6.0	body	body-89.jpg	0.0	121.16916565722022	0.11669968435217015
58.0	29.019305913209337	body	0.0		46.0	body	body-11.jpg	0.0	121.28586534157239	0.3832895998666572
58.0	29.402595513075994	ISI	1.0		7.0	body	body-11.jpg	0.0	121.66915494143905	0.1166951565578529
58.0	29.436916801167172	pulse	1.0	t		body	body-11.jpg	0.0	121.70347622953022	
59.0	29.519290669633847	body	0.0		46.0	body	body-70.jpg	0.0	121.7858500979969	0.3832932221025658
59.0	29.73602684801199	response	0.0	b		body	body-70.jpg	0.0	122.00258627637504	
59.0	29.902583891736413	ISI	1.0		8.0	body	body-70.jpg	0.0	122.16914332009947	0.11669243988035305
60.0	30.019276331616766	car	0.0		46.0	object	car-103.jpg	0.0	122.28583575997982	0.38329080727862674
60.0	30.102714835561073	pulse	0.0	t		object	car-103.jpg	0.0	122.36927426392413	
60.0	30.402567138895392	ISI	1.0		5.0	object	car-103.jpg	0.0	122.66912656725844	0.11669485470474683
61.0	30.51926199360014	car	0.0		46.0	object	car-48.jpg	0.0	122.78582142196319	0.3832932221025658
61.0	30.802663611109438	pulse	0.0	t		object	car-48.jpg	0.0	123.06922303947249	
61.0	30.902555215702705	ISI	1.0		7.0	object	car-48.jpg	0.0	123.16911464406576	0.11669485470474683
62.0	31.019250070407452	car	0.0		46.0	object	car-102.jpg	0.0	123.2858094987705	0.3832669608927972
62.0	31.40251703130025	ISI	1.0		8.0	object	car-102.jpg	0.0	123.6690764596633	0.11671477700156174
63.0	31.51923180830181	car	0.0		45.0	object	car-102.jpg	1.0	123.78579123666486	0.38329080727862674
63.0	31.51207427032341	pulse	0.0	t		object	car-102.jpg	1.0	123.77863369868646	
63.0	31.902522615580438	ISI	1.0		5.0	object	car-102.jpg	1.0	124.16908204394349	0.11669908064641277
64.0	32.01922169622685	car	0.0		46.0	object	car-124.jpg	0.0	124.2857811245899	0.3833240111066516
64.0	32.15268056015475	response	0.0	b		object	car-124.jpg	0.0	124.4192399885178	
64.0	32.20264990698388	pulse	0.0	t		object	car-124.jpg	0.0	124.46920933534693	
64.0	32.4025457073335	ISI	1.0		7.0	object	car-124.jpg	0.0	124.66910513569655	0.11670058991148835
65.0	32.51924629724499	car	0.0		46.0	object	car-114.jpg	0.0	124.78580572560804	0.38325428306734466
65.0	32.902500580312335	ISI	1.0		6.0	object	car-114.jpg	0.0	125.16906000867539	0.11669938249951883
65.0	32.94322477391961	pulse	1.0	t		object	car-114.jpg	0.0	125.20978420228266	
66.0	33.019199962811854	car	0.0		46.0	object	car-69.jpg	0.0	125.2857593911749	0.3832877887489303
66.0	33.402487751560784	ISI	1.0		7.0	object	car-69.jpg	0.0	125.66904717992384	0.11669908064595802
67.0	33.51918683220674	car	0.0		46.0	object	car-119.jpg	0.0	125.7857462605698	0.3832971461915804
67.0	33.602618695385445	pulse	0.0	t		object	car-119.jpg	0.0	125.8691781237485	
67.0	33.90248397839832	ISI	1.0		6.0	object	car-119.jpg	0.0	126.16904340676138	0.11668851579179318
68.0	34.019172494190116	car	0.0		46.0	object	car-29.jpg	0.0	126.28573192255317	0.3832871850427182
68.0	34.30257682837646	pulse	0.0	t		object	car-29.jpg	0.0	126.56913625673951	
68.0	34.402459679232834	ISI	1.0		6.0	object	car-29.jpg	0.0	126.66901910759589	0.11669757138179193
68.0	34.48589757947093	response	1.0	b		object	car-29.jpg	0.0	126.75245700783398	
69.0	34.519157250614626	car	0.0		46.0	object	car-142.jpg	0.0	126.78571667897768	0.3832889961604451
69.0	34.90244624677507	ISI	1.0		7.0	object	car-142.jpg	0.0	127.16900567513812	0.11669213802770173
70.0	35.01913838480277	car	0.0		45.0	object	car-53.jpg	0.0	127.28569781316583	0.38329412766142923
70.0	35.01315626234782	pulse	0.0	t		object	car-53.jpg	0.0	127.27971569071087	
70.0	35.4024325124642	ISI	1.0		7.0	object	car-53.jpg	0.0	127.66899194082725	0.11669726952868587
71.0	35.51912978199289	car	0.0		46.0	object	car-81.jpg	0.0	127.78568921035594	0.38329080727862674
71.0	35.702538674159314	pulse	0.0	t		object	car-81.jpg	0.0	127.96909810252237	
71.0	35.902420589271514	ISI	1.0		7.0	object	car-81.jpg	0.0	128.16898001763457	0.11669666582247373
72.0	36.01911725509399	car	0.0		46.0	object	car-70.jpg	0.0	128.28567668345704	0.3832899017197633
72.0	36.40240715681375	ISI	1.0		6.0	object	car-70.jpg	0.0	128.6689665851768	0.11669908064641277
72.0	36.444121428211474	pulse	1.0	t		object	car-70.jpg	0.0	128.71068085657453	
73.0	36.519106237460164	car	0.0		46.0	object	car-1.jpg	0.0	128.78566566582322	0.38328627948385474
73.0	36.86918053857198	response	0.0	b		object	car-1.jpg	0.0	129.13573996693503	
73.0	36.90239251694402	ISI	1.0		4.0	object	car-1.jpg	0.0	129.16895194530707	0.11669726952823112
74.0	37.01908978647225	car	0.0		46.0	object	car-95.jpg	0.0	129.2856492148353	0.38329382580832316
74.0	37.10250414217762	pulse	0.0	t		object	car-95.jpg	0.0	129.36906357054067	
74.0	37.40238361228057	ISI	1.0		8.0	object	car-95.jpg	0.0	129.66894304064363	0.11669334543967125
75.0	37.519076957720245	car	0.0		46.0	object	car-95.jpg	1.0	129.7856363860833	0.3832880906020364
75.0	37.80248672526022	pulse	0.0	t		object	car-95.jpg	1.0	130.06904615362328	
75.0	37.90236504832228	ISI	1.0		7.0	object	car-95.jpg	1.0	130.16892447668533	0.11668640282096021
76.0	38.01905145114324	car	0.0		46.0	object	car-141.jpg	0.0	130.2856108795063	0.38330499436870014
76.0	38.40235644551194	ISI	1.0		7.0	object	car-141.jpg	0.0	130.668915873875	0.11668730838027841
77.0	38.51904375389222	car	0.0		45.0	object	car-5.jpg	0.0	130.78560318225527	0.3833282370487723
77.0	38.510736156041276	pulse	0.0	t		object	car-5.jpg	0.0	130.77729558440433	
77.0	38.90237199094099	ISI	1.0		5.0	object	car-5.jpg	0.0	131.16893141930404	0.11668278058505166
78.0	39.019054771526044	car	0.0		46.0	object	car-135.jpg	0.0	131.2856141998891	0.3832717905406753
78.0	39.202472719282014	pulse	0.0	t		object	car-135.jpg	0.0	131.46903214764507	
78.0	39.40232656206672	ISI	1.0		7.0	object	car-135.jpg	0.0	131.66888599042977	0.11669908064641277
79.0	39.51902564271313	car	0.0		46.0	object	car-30.jpg	0.0	131.78558507107618	0.3832883924546877
79.0	39.90231403516782	ISI	1.0		7.0	object	car-30.jpg	0.0	132.16887346353087	0.11669787323444325
79.0	39.94082081674787	pulse	1.0	t		object	car-30.jpg	0.0	132.20738024511093	
80.0	40.01901190840226	car	0.0		46.0	object	car-12.jpg	0.0	132.28557133676532	0.3832871850427182
80.0	40.40229909344498	ISI	1.0		7.0	object	car-12.jpg	0.0	132.66885852180803	0.11669847694020063
81.0	40.51899757038518	car	0.0		46.0	object	car-79.jpg	0.0	132.78555699874823	0.38328839245514246
81.0	40.60241554832646	pulse	0.0	t		object	car-79.jpg	0.0	132.86897497668951	
81.0	40.902285962840324	ISI	1.0		7.0	object	car-79.jpg	0.0	133.16884539120338	0.11669968435217015
82.0	41.018985647192494	car	0.0		46.0	object	car-91.jpg	0.0	133.28554507555555	0.38327692204120467
82.0	41.30239933882149	pulse	0.0	t		object	car-91.jpg	0.0	133.56895876718454	
82.0	41.4022625692337	ISI	1.0		7.0	object	car-91.jpg	0.0	133.66882199759675	0.11670723067709332
83.0	41.51896979991079	car	0.0		46.0	object	car-60.jpg	0.0	133.78552922827384	0.38329080727862674
83.0	41.552566640837995	response	0.0	b		object	car-60.jpg	0.0	133.81912606920105	
83.0	41.90226060718942	ISI	1.0		3.0	object	car-60.jpg	0.0	134.16882003555247	0.11669153432194435
84.0	42.01895214151136	body	0.0		45.0	body	body-65.jpg	0.0	134.28551156987442	0.38329322210211103
84.0	42.01022919395291	pulse	0.0	t		body	body-65.jpg	0.0	134.27678862231596	
84.0	42.402245363613474	ISI	1.0		6.0	body	body-65.jpg	0.0	134.66880479197653	0.1166924398808078
85.0	42.51893780349428	body	0.0		46.0	body	body-81.jpg	0.0	134.78549723185733	0.3833046925160488
85.0	42.70237899392987	pulse	0.0	t		body	body-81.jpg	0.0	134.96893842229292	
85.0	42.90224249601033	ISI	1.0		6.0	body	body-81.jpg	0.0	135.16880192437338	0.10833322516918997
86.0	43.01057572117952	body	0.0		46.0	body	body-85.jpg	0.0	135.27713514954257	0.39165394607880444
86.0	43.00630963294361	response	0.0	b		body	body-85.jpg	0.0	135.27286906130666	
86.0	43.402229667258325	ISI	1.0		6.0	body	body-85.jpg	0.0	135.66878909562138	0.10835314746645963
86.0	43.44539011630695	pulse	1.0	t		body	body-85.jpg	0.0	135.71194954467	
87.0	43.510582814724785	body	0.0		47.0	body	body-71.jpg	0.0	135.77714224308784	0.39162345892736994
87.0	43.902206273652155	ISI	1.0		5.0	body	body-71.jpg	0.0	136.1687657020152	0.10836190120289757
88.0	44.01056817485505	body	0.0		47.0	body	body-53.jpg	0.0	136.2771276032181	0.3916255718982029
88.0	44.102330274858105	pulse	0.0	t		body	body-53.jpg	0.0	136.36888970322116	
88.0	44.402193746753255	ISI	1.0		6.0	body	body-53.jpg	0.0	136.6687531751163	0.10836552343880612
89.0	44.51055927019206	body	0.0		47.0	body	body-127.jpg	0.0	136.7771186985551	0.39162044039721877
89.0	44.80229535046783	pulse	0.0	t		body	body-127.jpg	0.0	137.06885477883088	
89.0	44.90217971058928	ISI	1.0		5.0	body	body-127.jpg	0.0	137.16873913895233	0.10836401417418529
90.0	45.010543724763465	body	0.0		47.0	body	body-34.jpg	0.0	137.27710315312652	0.3916578701673643
90.0	45.40220159493083	ISI	1.0		6.0	body	body-34.jpg	0.0	137.66876102329388	0.11668821393914186
91.0	45.51888980886997	body	0.0		45.0	body	body-34.jpg	1.0	137.78544923723302	0.38329382580832316
91.0	45.5070221569149	pulse	0.0	t		body	body-34.jpg	1.0	137.77358158527795	
91.0	45.902183634678295	ISI	1.0		5.0	body	body-34.jpg	1.0	138.16874306304135	0.11670179732300312
92.0	46.0188854320013	body	0.0		46.0	body	body-32.jpg	0.0	138.28544486036435	0.38329080727862674
92.0	46.14397300709879	response	0.0	b		body	body-32.jpg	0.0	138.41053243546185	
92.0	46.202270779635	pulse	0.0	t		body	body-32.jpg	0.0	138.46883020799805	
92.0	46.402176239279925	ISI	1.0		6.0	body	body-32.jpg	0.0	138.66873566764298	0.11669636396982241
93.0	46.51887260324975	body	0.0		46.0	body	body-78.jpg	0.0	138.7854320316128	0.38328477021877916
93.0	46.902157373468526	ISI	1.0		4.0	body	body-78.jpg	0.0	139.16871680183158	0.11668640282096021
93.0	46.96419993413565	pulse	1.0	t		body	body-78.jpg	0.0	139.2307593624987	
94.0	47.018843776289486	body	0.0		46.0	body	body-40.jpg	0.0	139.28540320465254	0.3832699794229484
94.0	47.402113755712435	ISI	1.0		7.0	body	body-40.jpg	0.0	139.6686731840755	0.11669545841050422
95.0	47.51880921412294	body	0.0		46.0	body	body-86.jpg	0.0	139.785368642486	0.38328748689582426
95.0	47.60222930503505	pulse	0.0	t		body	body-86.jpg	0.0	139.8687887333981	
95.0	47.90209670101876	ISI	1.0		2.0	body	body-86.jpg	0.0	140.16865612938182	0.11669938249906409
96.0	48.01879608351783	word	0.0		46.0	character	word-51.jpg	0.0	140.28535551188088	0.38330529622226095
96.0	48.3022146047947	pulse	0.0	t		character	word-51.jpg	0.0	140.56877403315775	
96.0	48.40210137974009	ISI	1.0		7.0	character	word-51.jpg	0.0	140.66866080810314	0.11668157317308214
97.0	48.51878295291317	word	0.0		46.0	character	word-115.jpg	0.0	140.78534238127622	0.3832923165437023
97.0	48.90207526945687	ISI	1.0		7.0	character	word-115.jpg	0.0	141.16863469781993	0.1166897232037627
98.0	49.018764992660635	word	0.0		45.0	character	word-143.jpg	0.0	141.2853244210237	0.38330167398589765
98.0	49.011122980641176	pulse	0.0	t		character	word-143.jpg	0.0	141.27768240900423	
98.0	49.40206666664653	ISI	1.0		7.0	character	word-143.jpg	0.0	141.66862609500959	0.11668096946732476
99.0	49.51874763611386	word	0.0		46.0	character	word-34.jpg	0.0	141.7853070644769	0.38329865545620123
99.0	49.70216558386983	pulse	0.0	t		character	word-34.jpg	0.0	141.96872501223288	
99.0	49.90204629157006	ISI	1.0		6.0	character	word-34.jpg	0.0	142.1686057199331	0.11670391029429084
100.0	50.01875020186435	word	0.0		46.0	character	word-99.jpg	0.0	142.2853096302274	0.3832832609537036
100.0	50.40203346281805	ISI	1.0		7.0	character	word-99.jpg	0.0	142.6685928911811	0.1166951565578529
100.0	50.434806848802964	pulse	1.0	t		character	word-99.jpg	0.0	142.70136627716602	
101.0	50.518728619375906	word	0.0		46.0	character	word-99.jpg	1.0	142.78528804773896	0.38329201469059626
101.0	50.8854703367565	response	0.0	b		character	word-99.jpg	1.0	143.15202976511955	
101.0	50.9020206340665	ISI	1.0		5.0	character	word-99.jpg	1.0	143.16858006242956	0.1166924398808078
102.0	51.01871307394731	word	0.0		46.0	character	word-7.jpg	0.0	143.28527250231036	0.3833007684270342
102.0	51.10210448882572	pulse	0.0	t		character	word-7.jpg	0.0	143.36866391718877	
102.0	51.402013842374345	ISI	1.0		4.0	character	word-7.jpg	0.0	143.6685732707374	0.11667764908452227
103.0	51.51869149145887	word	0.0		46.0	character	word-8.jpg	0.0	143.78525091982192	0.3833013721327916
103.0	51.80212118129566	pulse	0.0	t		character	word-8.jpg	0.0	144.0686806096587	
103.0	51.90199286359166	ISI	1.0		7.0	character	word-8.jpg	0.0	144.1685522919547	0.11669334543967125
104.0	52.01868620903133	word	0.0		46.0	character	word-110.jpg	0.0	144.28524563739438	0.38329201469059626
104.0	52.401978223721926	ISI	1.0		7.0	character	word-110.jpg	0.0	144.66853765208498	0.11669183617459566
105.0	52.51867005989652	word	0.0		45.0	character	word-87.jpg	0.0	144.78522948825957	0.38329654248536826
105.0	52.510365782428835	pulse	0.0	t		character	word-87.jpg	0.0	144.7769252107919	
105.0	52.90196660238189	ISI	1.0		5.0	character	word-87.jpg	0.0	145.16852603074494	0.11670089176459442
106.0	53.018667494146484	word	0.0		46.0	character	word-35.jpg	0.0	145.28522692250954	0.3833176721941527
106.0	53.20210355308154	pulse	0.0	t		character	word-35.jpg	0.0	145.4686629814446	
106.0	53.40198516634064	ISI	1.0		7.0	character	word-35.jpg	0.0	145.6685445947037	0.11669968435217015
107.0	53.51868485069281	word	0.0		46.0	character	word-14.jpg	0.0	145.78524427905586	0.38325398121469334
107.0	53.9019388319075	ISI	1.0		3.0	character	word-14.jpg	0.0	146.16849826027055	0.1167033065880787
107.0	53.96804131522185	pulse	1.0	t		character	word-14.jpg	0.0	146.2346007435849	
108.0	54.01864213849558	body	0.0		46.0	body	body-16.jpg	0.0	146.28520156685863	0.38328477021877916
108.0	54.40192690871436	ISI	1.0		6.0	body	body-16.jpg	0.0	146.6684863370774	0.11668278058550641
109.0	54.518609689299865	body	0.0		46.0	body	body-75.jpg	0.0	146.78516911766292	0.38330318325097323
109.0	54.60204577842023	pulse	0.0	t		body	body-75.jpg	0.0	146.8686052067833	
109.0	54.90191287255084	ISI	1.0		6.0	body	body-75.jpg	0.0	147.1684723009139	0.1166987787933067
110.0	55.018611651344145	body	0.0		46.0	body	body-12.jpg	0.0	147.2851710797072	0.3832877887489303
110.0	55.30202685223776	pulse	0.0	t		body	body-12.jpg	0.0	147.5685862806008	
110.0	55.401899440093075	ISI	1.0		6.0	body	body-12.jpg	0.0	147.66845886845613	0.11669576026361028
111.0	55.518595200356685	body	0.0		46.0	body	body-38.jpg	0.0	147.78515462871974	0.38329080727862674
111.0	55.87700034199952	response	0.0	b		body	body-38.jpg	0.0	148.14355977036257	
111.0	55.90188600763531	ISI	1.0		7.0	body	body-38.jpg	0.0	148.16844543599836	0.11667764908406753
112.0	56.01856365671938	body	0.0		45.0	body	body-49.jpg	0.0	148.28512308508243	0.3833095221639269
112.0	56.01220693471032	pulse	0.0	t		body	body-49.jpg	0.0	148.27876636307337	
112.0	56.40187317888331	ISI	1.0		6.0	body	body-49.jpg	0.0	148.66843260724636	0.11671115476565319
113.0	56.51858433364896	body	0.0		46.0	body	body-128.jpg	0.0	148.785143762012	0.3832865813369608
113.0	56.70197752946024	pulse	0.0	t		body	body-128.jpg	0.0	148.9685369578233	
113.0	56.90187091498592	ISI	1.0		7.0	body	body-128.jpg	0.0	149.16843034334897	0.10832628255047894
114.0	57.0101971975364	body	0.0		47.0	body	body-128.jpg	1.0	149.27675662589945	0.3916542479319105
114.0	57.40185144546831	ISI	1.0		3.0	body	body-128.jpg	1.0	149.66841087383136	0.10836220305600364
114.0	57.46778760778807	pulse	1.0	t		body	body-128.jpg	1.0	149.73434703615112	
115.0	57.510213648524314	body	0.0		47.0	body	body-30.jpg	0.0	149.77677307688737	0.39161862927949187
115.0	57.901832277803805	ISI	1.0		6.0	body	body-30.jpg	0.0	150.16839170616686	0.10836974938047206
116.0	58.01020202718428	body	0.0		47.0	body	body-20.jpg	0.0	150.27676145554733	0.3916240626331273
116.0	58.10194963824415	pulse	0.0	t		body	body-20.jpg	0.0	150.3685090666072	
116.0	58.401826089817405	ISI	1.0		3.0	body	body-20.jpg	0.0	150.66838551818046	0.10834348817115824
117.0	58.51016957798856	body	0.0		47.0	body	body-122.jpg	0.0	150.77672900635162	0.39163583489971643
117.0	58.80195516215417	pulse	0.0	t		body	body-122.jpg	0.0	151.06851459051722	
117.0	58.90180541288828	ISI	1.0		5.0	body	body-122.jpg	0.0	151.16836484125133	0.10835012893630847
118.0	59.01015554182459	body	0.0		47.0	body	body-67.jpg	0.0	151.27671497018764	0.3916391552825189
118.0	59.40179469710711	ISI	1.0		6.0	body	body-67.jpg	0.0	151.66835412547016	0.10834318631805218
119.0	59.51013788342516	body	0.0		46.0	body	body-95.jpg	0.0	151.7766973117882	0.39167960358236087
119.0	59.5052560150998	pulse	0.0	t		body	body-95.jpg	0.0	151.77181544346286	
119.0	59.90181748700752	ISI	1.0		11.0	body	body-95.jpg	0.0	152.16837691537057	0.10003890884991051
120.0	60.00185639585743	baseline	0.0		48.0		baseline	0.0	152.26841582422048	0.39997784399065495
120.0	60.20195534326558	pulse	0.0	t			baseline	0.0	152.46851477162863	
120.0	60.401834239848085	ISI	1.0		11.0		baseline	0.0	152.66839366821114	0.10000510131567353
121.0	60.50183934116376	baseline	0.0		48.0		baseline	0.0	152.7683987695268	0.39998659772754763
121.0	60.90182593889131	ISI	1.0		11.0		baseline	0.0	153.16838536725436	0.09999574387256871
121.0	60.90642949876428	pulse	1.0	t			baseline	0.0	153.17298892712734	
122.0	61.001821682763875	baseline	0.0		48.0		baseline	0.0	153.26838111112693	0.39998780513951715
122.0	61.40180948790339	ISI	1.0		11.0		baseline	0.0	153.66836891626645	0.09999634757878084
123.0	61.50180583548217	baseline	0.0		48.0		baseline	0.0	153.76836526384523	0.3999881069926232
123.0	61.601942242846235	pulse	0.0	t			baseline	0.0	153.8685016712093	
123.0	61.9017939424748	ISI	1.0		11.0		baseline	0.0	154.16835337083785	0.09999695128499297
124.0	62.00179089375979	baseline	0.0		48.0		baseline	0.0	154.26835032212284	0.3999905218161075
124.0	62.30191063883876	pulse	0.0	t			baseline	0.0	154.56847006720182	
124.0	62.4017814155759	ISI	1.0		11.0		baseline	0.0	154.66834084393895	0.09999755499075036
125.0	62.50177897056665	baseline	0.0		48.0		baseline	0.0	154.7683383989297	0.39998901255148667
125.0	62.901767983118134	ISI	1.0		11.0		baseline	0.0	155.1683274114812	0.09999664943188691
126.0	63.00176463255002	baseline	0.0		47.0		baseline	0.0	155.26832406091307	0.39999112552231963
126.0	63.00604853011191	pulse	0.0	t			baseline	0.0	155.27260795847496	
126.0	63.40175575807234	ISI	1.0		11.0		baseline	0.0	155.6683151864354	0.10001325134589933
127.0	63.50176900941824	baseline	0.0		48.0		baseline	0.0	155.7683284377813	0.39996878840111094
127.0	63.701871880915405	pulse	0.0	t			baseline	0.0	155.96843130927846	
127.0	63.90173779781935	ISI	1.0		11.0		baseline	0.0	156.1682972261824	0.10000329019749188
128.0	64.00174108801684	baseline	0.0		48.0		baseline	0.0	156.2683005163799	0.39998659772754763
128.0	64.40172768574439	ISI	1.0		11.0		baseline	0.0	156.66828711410744	0.09999664943188691
128.0	64.4063804476541	pulse	1.0	t			baseline	0.0	156.67293987601715	
129.0	64.50172433517628	baseline	0.0		48.0		baseline	0.0	156.76828376353933	0.39999052181656225
129.0	64.90171485699284	ISI	1.0		11.0		baseline	0.0	157.1682742853559	0.09999725313764429
130.0	65.00171211013048	baseline	0.0		48.0		baseline	0.0	157.26827153849354	0.3999899181103501
130.0	65.1018454989644	pulse	0.0	t			baseline	0.0	157.36840492732745	
130.0	65.40170202824083	ISI	1.0		11.0		baseline	0.0	157.6682614566039	0.09999966796158333
131.0	65.50170169620242	baseline	0.0		48.0		baseline	0.0	157.76826112456547	0.39998267363898776
131.0	65.80179759489602	pulse	0.0	t			baseline	0.0	158.06835702325907	
131.0	65.9016843698414	ISI	1.0		4.0		baseline	0.0	158.16824379820446	0.11666949905384172
132.0	66.01835386889525	house	0.0		46.0	place	house-143.jpg	0.0	158.2849132972583	0.3832793368651437
132.0	66.40163320576039	ISI	1.0		2.0	place	house-143.jpg	0.0	158.66819263412344	0.11671688997239471
133.0	66.51835009573279	house	0.0		45.0	place	house-94.jpg	0.0	158.78490952409584	0.38327571462923515
133.0	66.50617606299784	pulse	0.0	t		place	house-94.jpg	0.0	158.7727354913609	
133.0	66.90162581036202	ISI	1.0		7.0	place	house-94.jpg	0.0	159.16818523872507	0.11669847694065538
134.0	67.01832428730268	house	0.0		46.0	place	house-46.jpg	0.0	159.28488371566573	0.38325428306734466
134.0	67.20170691825933	pulse	0.0	t		place	house-46.jpg	0.0	159.46826634662239	
134.0	67.40157857037002	ISI	1.0		7.0	place	house-46.jpg	0.0	159.66813799873307	0.11669636396936767
135.0	67.51827493433939	house	0.0		46.0	place	house-17.jpg	0.0	159.78483436270244	0.3832926183968084
135.0	67.9015675527362	ISI	1.0		5.0	place	house-17.jpg	0.0	160.16812698109925	0.11669515655739815
135.0	67.95611027413997	pulse	1.0	t		place	house-17.jpg	0.0	160.22266970250303	
136.0	68.0182627092936	house	0.0		46.0	place	house-92.jpg	0.0	160.28482213765665	0.38329201469059626
136.0	68.40155472398419	ISI	1.0		5.0	place	house-92.jpg	0.0	160.66811415234724	0.1166755361136893
137.0	68.51823026009788	house	0.0		46.0	place	house-134.jpg	0.0	160.78478968846093	0.38330891845771475
137.0	68.60167993260211	pulse	0.0	t		place	house-134.jpg	0.0	160.86823936096516	
137.0	68.9015391785556	ISI	1.0		6.0	place	house-134.jpg	0.0	161.16809860691865	0.11669576026361028
138.0	69.0182349388192	house	0.0		46.0	place	house-69.jpg	0.0	161.28479436718226	0.38329080727862674
138.0	69.30164983785971	pulse	0.0	t		place	house-69.jpg	0.0	161.56820926622277	
138.0	69.40152574609783	ISI	1.0		7.0	place	house-69.jpg	0.0	161.66808517446088	0.11669757138133718
139.0	69.51822331747917	house	0.0		46.0	place	house-6.jpg	0.0	161.78478274584222	0.3832886943077938
139.0	69.90151201178696	ISI	1.0		7.0	place	house-6.jpg	0.0	162.16807144015002	0.11669213802770173
140.0	70.01820414981466	house	0.0		45.0	place	house-125.jpg	0.0	162.28476357817772	0.3832974480442317
140.0	70.01005170439794	pulse	0.0	t		place	house-125.jpg	0.0	162.276611132761	
140.0	70.4015015978589	ISI	1.0		7.0	place	house-125.jpg	0.0	162.66806102622195	0.1166851954089907
141.0	70.51818679326789	house	0.0		46.0	place	house-75.jpg	0.0	162.78474622163094	0.38329835360309517
141.0	70.70163160593938	pulse	0.0	t		place	house-75.jpg	0.0	162.96819103430244	
141.0	70.90148514687098	ISI	1.0		7.0	place	house-75.jpg	0.0	163.16804457523403	0.11668036576156737
142.0	71.01816551263255	house	0.0		46.0	place	house-99.jpg	0.0	163.2847249409956	0.38330740919263917
142.0	71.40147292182519	ISI	1.0		6.0	place	house-99.jpg	0.0	163.66803235018824	0.11668338429126379
142.0	71.44639709786452	pulse	1.0	t		place	house-99.jpg	0.0	163.71295652622757	
143.0	71.51815630611645	house	0.0		46.0	place	house-4.jpg	0.0	163.7847157344795	0.38330318325097323
143.0	71.90145948936743	ISI	1.0		6.0	place	house-4.jpg	0.0	164.16801891773048	0.11668338429126379
144.0	72.01814287365869	body	0.0		46.0	body	body-103.jpg	0.0	164.28470230202174	0.38330439066294275
144.0	72.10156960533641	pulse	0.0	t		body	body-103.jpg	0.0	164.36812903369946	
144.0	72.40144726432163	ISI	1.0		6.0	body	body-103.jpg	0.0	164.66800669268468	0.11669515655739815
145.0	72.51814242087903	body	0.0		46.0	body	body-98.jpg	0.0	164.78470184924208	0.3832905054255207
145.0	72.80155128286015	pulse	0.0	t		body	body-98.jpg	0.0	165.0681107112232	
145.0	72.90143292630455	ISI	1.0		3.0	body	body-98.jpg	0.0	165.1679923546676	0.11669817508754932
146.0	73.0181311013921	body	0.0		46.0	body	body-131.jpg	0.0	165.28469052975515	0.3833203888711978
146.0	73.4014514902633	ISI	1.0		7.0	body	body-131.jpg	0.0	165.66801091862635	0.11669032690997483
147.0	73.51814181717327	body	0.0		45.0	body	body-131.jpg	1.0	165.78470124553633	0.3832947313671866
147.0	73.51047837359192	pulse	0.0	t		body	body-131.jpg	1.0	165.77703780195498	
147.0	73.90143654854046	ISI	1.0		5.0	body	body-131.jpg	1.0	166.1679959769035	0.11669998620527622
147.0	73.95766874110086	response	1.0	b		body	body-131.jpg	1.0	166.2242281694639	
148.0	74.01813653474574	body	0.0		46.0	body	body-17.jpg	0.0	166.2846959631088	0.38328899616089984
148.0	74.201525806468	pulse	0.0	t		body	body-17.jpg	0.0	166.46808523483105	
148.0	74.40142553090664	ISI	1.0		7.0	body	body-17.jpg	0.0	166.6679849592697	0.11669817508754932
149.0	74.51812370599419	body	0.0		46.0	body	body-97.jpg	0.0	166.78468313435724	0.3832895998666572
149.0	74.90141330586084	ISI	1.0		7.0	body	body-97.jpg	0.0	167.1679727342239	0.11669576026361028
149.0	74.93926536831668	pulse	1.0	t		body	body-97.jpg	0.0	167.20582479667974	
150.0	75.01810906612445	body	0.0		46.0	body	body-15.jpg	0.0	167.2846684944875	0.3832826572479462
150.0	75.4013917233724	ISI	1.0		7.0	body	body-15.jpg	0.0	167.66795115173545	0.11670541955891167
151.0	75.51809714293131	body	0.0		46.0	body	body-137.jpg	0.0	167.78465657129436	0.3832962406322622
151.0	75.60151693199032	pulse	0.0	t		body	body-137.jpg	0.0	167.86807636035337	
151.0	75.90139338356357	ISI	1.0		7.0	body	body-137.jpg	0.0	168.16795281192663	0.11669002505686876
152.0	76.01808340862044	body	0.0		46.0	body	body-22.jpg	0.0	168.2846428369835	0.3832974480442317
152.0	76.30148985577762	pulse	0.0	t		body	body-22.jpg	0.0	168.56804928414067	
152.0	76.40138085666467	ISI	1.0		6.0	body	body-22.jpg	0.0	168.66794028502773	0.1166755361136893
153.0	76.51805639277836	body	0.0		46.0	body	body-123.jpg	0.0	168.78461582114141	0.3832717905406753
153.0	76.90132818331904	ISI	1.0		7.0	body	body-123.jpg	0.0	169.1678876116821	0.11667312128975027
154.0	77.01800130460879	body	0.0		45.0	body	body-133.jpg	0.0	169.28456073297184	0.3833116351343051
154.0	77.00792454641305	pulse	0.0	t		body	body-133.jpg	0.0	169.2744839747761	
154.0	77.4013129397431	ISI	1.0		6.0	body	body-133.jpg	0.0	169.66787236810615	0.11669334543967125
155.0	77.51800628518276	body	0.0		46.0	body	body-43.jpg	0.0	169.78456571354582	0.3832926183968084
155.0	77.70142151626214	pulse	0.0	t		body	body-43.jpg	0.0	169.9679809446252	
155.0	77.90129890357957	ISI	1.0		6.0	body	body-43.jpg	0.0	170.16785833194263	0.1166969676755798
156.0	78.01799587125515	adult	0.0		46.0	face	adult-71.jpg	0.0	170.2845552996182	0.3832895998666572
156.0	78.40128547112181	ISI	1.0		6.0	face	adult-71.jpg	0.0	170.66784489948486	0.1166960621162616
156.0	78.44429137144198	pulse	1.0	t		face	adult-71.jpg	0.0	170.71085079980503	
157.0	78.51798153323807	adult	0.0		46.0	face	adult-44.jpg	0.0	170.78454096160112	0.38329020357286936
157.0	78.90127173681094	ISI	1.0		6.0	face	adult-44.jpg	0.0	171.167831165174	0.11669817508709457
158.0	79.01796991189804	adult	0.0		46.0	face	adult-12.jpg	0.0	171.2845293402611	0.38328839245514246
158.0	79.10137943795598	pulse	0.0	t		face	adult-12.jpg	0.0	171.36793886631904	
158.0	79.40125830435318	ISI	1.0		6.0	face	adult-12.jpg	0.0	171.66781773271623	0.11669666582247373
159.0	79.51795497017565	adult	0.0		46.0	face	adult-138.jpg	0.0	171.7845143985387	0.38329080727862674
159.0	79.80136473771563	pulse	0.0	t		face	adult-138.jpg	0.0	172.06792416607868	
159.0	79.90124577745428	ISI	1.0		6.0	face	adult-138.jpg	0.0	172.16780520581733	0.11669636396936767
160.0	80.01794214142365	adult	0.0		46.0	face	adult-66.jpg	0.0	172.2845015697867	0.3832902035724146
160.0	80.40123234499606	ISI	1.0		2.0	face	adult-66.jpg	0.0	172.6677917733591	0.11668911949800531
161.0	80.51792146449407	adult	0.0		45.0	face	adult-89.jpg	0.0	172.78448089285712	0.3833034851040793
161.0	80.50777769493607	pulse	0.0	t		face	adult-89.jpg	0.0	172.77433712329912	
161.0	80.90122494959815	ISI	1.0		6.0	face	adult-89.jpg	0.0	173.1677843779612	0.11669032690997483
162.0	81.01791527650812	adult	0.0		46.0	face	adult-134.jpg	0.0	173.28447470487117	0.3832968443380196
162.0	81.20132839461621	pulse	0.0	t		face	adult-134.jpg	0.0	173.46788782297926	
162.0	81.40121212084614	ISI	1.0		6.0	face	adult-134.jpg	0.0	173.6677715492092	0.11668278058550641
163.0	81.51789490143165	adult	0.0		46.0	face	adult-143.jpg	0.0	173.7844543297947	0.3832871850427182
163.0	81.90118208647436	ISI	1.0		7.0	face	adult-143.jpg	0.0	174.16774151483742	0.11670662697088119
163.0	81.93840448360334	pulse	1.0	t		face	adult-143.jpg	0.0	174.2049639119664	
164.0	82.01788871344525	adult	0.0		46.0	face	adult-70.jpg	0.0	174.2844481418083	0.3832956369265048
164.0	82.40118435037175	ISI	1.0		6.0	face	adult-70.jpg	0.0	174.6677437787348	0.11669213802770173
165.0	82.51787648839945	adult	0.0		46.0	face	adult-99.jpg	0.0	174.7844359167625	0.38331857775301614
165.0	82.56799253577947	response	0.0	b		face	adult-99.jpg	0.0	174.83455196414252	
165.0	82.6012769588674	pulse	0.0	t		face	adult-99.jpg	0.0	174.86783638723045	
165.0	82.90119506615247	ISI	1.0		6.0	face	adult-99.jpg	0.0	175.16775449451552	0.11670300473542738
166.0	83.0178980708879	adult	0.0		46.0	face	adult-29.jpg	0.0	175.28445749925095	0.3832859776307487
166.0	83.30131508289924	pulse	0.0	t		face	adult-29.jpg	0.0	175.5678745112623	
166.0	83.40118404851864	ISI	1.0		6.0	face	adult-29.jpg	0.0	175.6677434768817	0.11669726952868587
167.0	83.51788131804733	adult	0.0		46.0	face	adult-85.jpg	0.0	175.78444074641038	0.3832883924546877
167.0	83.90116971050202	ISI	1.0		6.0	face	adult-85.jpg	0.0	176.16772913886507	0.11668187502618821
168.0	84.0178515855282	house	0.0		45.0	place	house-126.jpg	0.0	176.28441101389126	0.38330499436870014
168.0	84.00780169224845	pulse	0.0	t		place	house-126.jpg	0.0	176.2743611206115	
168.0	84.4011565798969	ISI	1.0		6.0	place	house-126.jpg	0.0	176.66771600825996	0.11670089176459442
169.0	84.5178574716615	house	0.0		46.0	place	house-121.jpg	0.0	176.78441690002455	0.3832760164823412
169.0	84.70126877865141	pulse	0.0	t		place	house-121.jpg	0.0	176.96782820701446	
169.0	84.90113348814384	ISI	1.0		6.0	place	house-121.jpg	0.0	177.1676929165069	0.11672836038587775
170.0	85.01786184852972	house	0.0		46.0	place	house-50.jpg	0.0	177.28442127689277	0.3832702812755997
170.0	85.40113212980532	ISI	1.0		5.0	place	house-50.jpg	0.0	177.66769155816837	0.11669726952823112
170.0	85.453276327391	pulse	1.0	t		place	house-50.jpg	0.0	177.71983575575405	
171.0	85.51782939933355	house	0.0		46.0	place	house-96.jpg	0.0	177.7843888276966	0.3832865813369608
171.0	85.534573788113	response	0.0	b		place	house-96.jpg	0.0	177.80113321647605	
171.0	85.90111598067051	ISI	1.0		6.0	place	house-96.jpg	0.0	178.16767540903356	0.11670511770626035
172.0	86.01782109837677	house	0.0		46.0	place	house-41.jpg	0.0	178.28438052673982	0.3832850720718852
172.0	86.10127318570494	pulse	0.0	t		place	house-41.jpg	0.0	178.367832614068	
172.0	86.40110617044866	ISI	1.0		6.0	place	house-41.jpg	0.0	178.6676655988117	0.11670240102921525
173.0	86.51780857147787	house	0.0		46.0	place	house-9.jpg	0.0	178.78436799984092	0.3832823553948401
173.0	86.80122196125376	pulse	0.0	t		place	house-9.jpg	0.0	179.0677813896168	
173.0	86.90109092687271	ISI	1.0		6.0	place	house-9.jpg	0.0	179.16765035523576	0.11668700652717234
174.0	87.01777793339988	house	0.0		46.0	place	house-127.jpg	0.0	179.28433736176294	0.3832992591619586
174.0	87.40107719256184	ISI	1.0		5.0	place	house-127.jpg	0.0	179.6676366209249	0.11669153432194435
175.0	87.51776872688379	house	0.0		45.0	place	house-142.jpg	0.0	179.78432815524684	0.38329382580832316
175.0	87.50765755744806	pulse	0.0	t		place	house-142.jpg	0.0	179.7742169858111	
175.0	87.90106255269211	ISI	1.0		6.0	place	house-142.jpg	0.0	180.16762198105516	0.11670270288232132
176.0	88.01776525557443	house	0.0		46.0	place	house-87.jpg	0.0	180.28432468393748	0.3832929202494597
176.0	88.20117112921116	pulse	0.0	t		place	house-87.jpg	0.0	180.4677305575742	
176.0	88.40105817582389	ISI	1.0		6.0	place	house-87.jpg	0.0	180.66761760418694	0.1166906287630809
177.0	88.51774880458697	house	0.0		46.0	place	house-83.jpg	0.0	180.78430823295002	0.3832895998666572
177.0	88.90103840445363	ISI	1.0		5.0	place	house-83.jpg	0.0	181.16759783281668	0.1166851954089907
177.0	88.95007412000041	pulse	1.0	t		place	house-83.jpg	0.0	181.21663354836346	
178.0	89.01772359986262	house	0.0		46.0	place	house-100.jpg	0.0	181.28428302822567	0.3832989573093073
178.0	89.40102255717193	ISI	1.0		7.0	place	house-100.jpg	0.0	181.66758198553498	0.11669938249906409
179.0	89.51772193967099	house	0.0		46.0	place	house-82.jpg	0.0	181.78428136803404	0.38327963871824977
179.0	89.60118247888295	pulse	0.0	t		place	house-82.jpg	0.0	181.867741907246	
179.0	89.90100157838924	ISI	1.0		11.0	place	house-82.jpg	0.0	182.1675610067523	0.10005007741028749
180.0	90.00105165579953	baseline	0.0		48.0		baseline	0.0	182.26761108416258	0.3999796551088366
180.0	90.30116717493684	pulse	0.0	t			baseline	0.0	182.5677266032999	
180.0	90.40103131090837	ISI	1.0		11.0		baseline	0.0	182.66759073927142	0.09999393275484181
181.0	90.50102524366321	baseline	0.0		48.0		baseline	0.0	182.76758467202626	0.39999686072906115
181.0	90.90102210439227	ISI	1.0		11.0		baseline	0.0	183.16758153275532	0.09999695128499297
182.0	91.00101905567726	baseline	0.0		47.0		baseline	0.0	183.2675784840403	0.3999875032864111
182.0	91.00539350913459	pulse	0.0	t			baseline	0.0	183.27195293749764	
182.0	91.40100655896367	ISI	1.0		11.0		baseline	0.0	183.66756598732673	0.09999604572567478
183.0	91.50100260468935	baseline	0.0		48.0		baseline	0.0	183.7675620330524	0.39999172922853177
183.0	91.70111181509947	pulse	0.0	t			baseline	0.0	183.96767124346252	
183.0	91.90099433391788	ISI	1.0		11.0		baseline	0.0	184.16755376228093	0.10002774028907879
184.0	92.00102207420696	baseline	0.0		48.0		baseline	0.0	184.26758150257	0.39995761984073397
184.0	92.40097969404769	ISI	1.0		11.0		baseline	0.0	184.66753912241074	0.09999876240317462
184.0	92.40566354681505	pulse	1.0	t			baseline	0.0	184.6722229751781	
185.0	92.50097845645087	baseline	0.0		48.0		baseline	0.0	184.76753788481392	0.39998689958019895
185.0	92.90096535603107	ISI	1.0		11.0		baseline	0.0	185.16752478439412	0.09999846054961381
186.0	93.00096381658068	baseline	0.0		48.0		baseline	0.0	185.26752324494373	0.3999887106983806
186.0	93.10109901653277	pulse	0.0	t			baseline	0.0	185.36765844489582	
186.0	93.40095252727906	ISI	1.0		11.0		baseline	0.0	185.6675119556421	0.09999725313809904
187.0	93.50094978041716	baseline	0.0		48.0		baseline	0.0	185.7675092087802	0.399991729228077
187.0	93.8010671106722	pulse	0.0	t			baseline	0.0	186.06762653903525	
187.0	93.90094150964524	ISI	1.0		11.0		baseline	0.0	186.1675009380083	0.09999514016681132
188.0	94.00093664981205	baseline	0.0		48.0		baseline	0.0	186.2674960781751	0.39997693843224624
188.0	94.4009135882443	ISI	1.0		11.0		baseline	0.0	186.66747301660735	0.10000962910999078
189.0	94.50092321735428	baseline	0.0		47.0		baseline	0.0	186.76748264571734	0.39998961625724405
189.0	94.50506343289544	pulse	0.0	t			baseline	0.0	186.7716228612585	
189.0	94.90091283361153	ISI	1.0		11.0		baseline	0.0	187.16747226197458	0.09999815869696249
190.0	95.00091099230849	baseline	0.0		48.0		baseline	0.0	187.26747042067154	0.3999887106983806
190.0	95.20101778789467	pulse	0.0	t			baseline	0.0	187.46757721625772	
190.0	95.40089970300687	ISI	1.0		11.0		baseline	0.0	187.66745913136992	0.10001898655264085
191.0	95.50091868955951	baseline	0.0		48.0		baseline	0.0	187.76747811792256	0.3999684865484596
191.0	95.90088717610797	ISI	1.0		5.0		baseline	0.0	188.16744660447102	0.11666617867103923
191.0	95.95166941302568	pulse	1.0	t			baseline	0.0	188.21822884138874	
192.0	96.01755335477901	car	0.0		46.0	object	car-27.jpg	0.0	188.28411278314206	0.3832832609541583
192.0	96.40083661573317	ISI	1.0		7.0	object	car-27.jpg	0.0	188.66739604409622	0.11669515655739815
193.0	96.51753177229057	car	0.0		46.0	object	car-27.jpg	1.0	188.78409120065362	0.38325971642143486
193.0	96.60091745196223	pulse	0.0	t		object	car-27.jpg	1.0	188.86747688032528	
193.0	96.900791488712	ISI	1.0		5.0	object	car-27.jpg	1.0	189.16735091707505	0.11668942135065663
194.0	97.01748091006266	car	0.0		45.0	object	car-44.jpg	0.0	189.2840403384257	0.3832977498973378
194.0	97.02202047710307	response	0.0	b		object	car-44.jpg	0.0	189.28857990546612	
194.0	97.30086683121681	pulse	0.0	t		object	car-44.jpg	0.0	189.56742625957986	
194.0	97.40077865996	ISI	1.0		7.0	object	car-44.jpg	0.0	189.66733808832305	0.11670028805838228
195.0	97.51747894801838	car	0.0		46.0	object	car-126.jpg	0.0	189.78403837638143	0.38328748689582426
195.0	97.9007664349142	ISI	1.0		6.0	object	car-126.jpg	0.0	190.16732586327726	0.11667764908406753
196.0	98.01744408399827	car	0.0		45.0	object	car-111.jpg	0.0	190.28400351236132	0.3833092203108208
196.0	98.00797797439145	pulse	0.0	t		object	car-111.jpg	0.0	190.2745374027545	
196.0	98.40075330430909	ISI	1.0		6.0	object	car-111.jpg	0.0	190.66731273267214	0.11669304358656518
197.0	98.51744634789566	car	0.0		45.0	object	car-92.jpg	0.0	190.7840057762587	0.3832932221025658
197.0	98.50711422207496	response	0.0	b		object	car-92.jpg	0.0	190.773673650438	
197.0	98.70085554191519	pulse	0.0	t		object	car-92.jpg	0.0	190.96741497027824	
197.0	98.90073956999822	ISI	1.0		7.0	object	car-92.jpg	0.0	191.16729899836128	0.11669998620527622
198.0	99.0174395562035	car	0.0		46.0	object	car-49.jpg	0.0	191.28399898456655	0.3832886943077938
198.0	99.40072825051129	ISI	1.0		5.0	object	car-49.jpg	0.0	191.66728767887435	0.11669817508754932
198.0	99.45122885859428	pulse	1.0	t		object	car-49.jpg	0.0	191.71778828695733	
199.0	99.51742642559884	car	0.0		46.0	object	car-58.jpg	0.0	191.7839858539619	0.3832841665130218
199.0	99.90071059211186	ISI	1.0		5.0	object	car-58.jpg	0.0	192.16727002047492	0.11670209917610919
200.0	100.01741269128797	car	0.0		46.0	object	car-101.jpg	0.0	192.28397211965103	0.3832841665130218
200.0	100.10082704699334	pulse	0.0	t		object	car-101.jpg	0.0	192.3673864753564	
200.0	100.400696857801	ISI	1.0		6.0	object	car-101.jpg	0.0	192.66725628616405	0.1167033065880787
201.0	100.51740016438907	car	0.0		46.0	object	car-84.jpg	0.0	192.78395959275213	0.3832850720718852
201.0	100.80080721525246	pulse	0.0	t		object	car-84.jpg	0.0	193.06736664361551	
201.0	100.90068523646096	ISI	1.0		7.0	object	car-84.jpg	0.0	193.167244664824	0.11670058991148835
202.0	101.01738582637245	car	0.0		46.0	object	car-96.jpg	0.0	193.2839452547355	0.3832865813369608
202.0	101.40067240770941	ISI	1.0		6.0	object	car-96.jpg	0.0	193.66723183607246	0.1166960621162616
203.0	101.51736846982567	car	0.0		45.0	object	car-82.jpg	0.0	193.78392789818872	0.3832899017197633
203.0	101.5075099513383	pulse	0.0	t		object	car-82.jpg	0.0	193.77406937970136	
203.0	101.90065837154543	ISI	1.0		6.0	object	car-82.jpg	0.0	194.16721779990849	0.11669606211671635
204.0	102.01735443366215	adult	0.0		46.0	face	adult-133.jpg	0.0	194.2839138620252	0.3832886943077938
204.0	102.20076453324009	pulse	0.0	t		face	adult-133.jpg	0.0	194.46732396160314	
204.0	102.40064312796994	ISI	1.0		7.0	face	adult-133.jpg	0.0	194.667202556333	0.1167024010287605
205.0	102.5173455289987	adult	0.0		46.0	face	adult-144.jpg	0.0	194.78390495736176	0.3833282370487723
205.0	102.90067376604748	ISI	1.0		4.0	face	adult-144.jpg	0.0	195.16723319441053	0.11669334543967125
205.0	102.95982185844241	pulse	1.0	t		face	adult-144.jpg	0.0	195.22638128680546	
206.0	103.01736711148715	adult	0.0		46.0	face	adult-79.jpg	0.0	195.2839265398502	0.3832808461302193
206.0	103.40064795761737	ISI	1.0		6.0	face	adult-79.jpg	0.0	195.66720738598042	0.11670240102921525
207.0	103.51735035864658	adult	0.0		46.0	face	adult-55.jpg	0.0	195.78390978700963	0.3832775257474168
207.0	103.60076048841029	pulse	0.0	t		face	adult-55.jpg	0.0	195.86731991677334	
207.0	103.900627884394	ISI	1.0		6.0	face	adult-55.jpg	0.0	196.16718731275705	0.11671145661875926
208.0	104.01733934101276	adult	0.0		46.0	face	adult-54.jpg	0.0	196.2838987693758	0.3832823553948401
208.0	104.30073975111009	pulse	0.0	t		face	adult-54.jpg	0.0	196.56729917947314	
208.0	104.4006216964076	ISI	1.0		7.0	face	adult-54.jpg	0.0	196.66718112477065	0.1167060232651238
209.0	104.51732771967272	adult	0.0		46.0	face	adult-63.jpg	0.0	196.78388714803577	0.3832892980140059
209.0	104.90061701768673	ISI	1.0		7.0	face	adult-63.jpg	0.0	197.16717644604978	0.11668549726164201
210.0	105.01730251494837	adult	0.0		45.0	face	adult-63.jpg	1.0	197.28386194331142	0.38329292024991446
210.0	105.00850621711515	pulse	0.0	t		face	adult-63.jpg	1.0	197.2750656454782	
210.0	105.40059543519828	ISI	1.0		5.0	face	adult-63.jpg	1.0	197.66715486356134	0.12502026188121818
210.0	105.49242213174011	response	1.0	b		face	adult-63.jpg	1.0	197.75898156010317	
211.0	105.5256156970795	adult	0.0		45.0	face	adult-43.jpg	0.0	197.79217512544255	0.37497113530844217
211.0	105.70068076903681	pulse	0.0	t		face	adult-43.jpg	0.0	197.96724019739986	
211.0	105.90058683238794	ISI	1.0		7.0	face	adult-43.jpg	0.0	198.167146260751	0.11668459170323331
212.0	106.01727142409118	adult	0.0		46.0	face	adult-50.jpg	0.0	198.28383085245423	0.38330167398589765
212.0	106.40057309807707	ISI	1.0		6.0	face	adult-50.jpg	0.0	198.66713252644013	0.11670723067709332
212.0	106.44275373233677	pulse	1.0	t		face	adult-50.jpg	0.0	198.70931316069982	
213.0	106.51728032875417	adult	0.0		46.0	face	adult-109.jpg	0.0	198.78383975711722	0.38327511092347777
213.0	106.90055543967765	ISI	1.0		7.0	face	adult-109.jpg	0.0	199.1671148680407	0.11670451400004822
214.0	107.0172599536777	adult	0.0		46.0	face	adult-52.jpg	0.0	199.28381938204075	0.3832793368651437
214.0	107.10066797047057	pulse	0.0	t		face	adult-52.jpg	0.0	199.36722739883362	
214.0	107.40053929054284	ISI	1.0		6.0	face	adult-52.jpg	0.0	199.6670987189059	0.1166969676755798
215.0	107.51723625821842	adult	0.0		46.0	face	adult-51.jpg	0.0	199.78379568658147	0.38329201469059626
215.0	107.80064874243544	pulse	0.0	t		face	adult-51.jpg	0.0	200.0672081707985	
215.0	107.90052827290901	ISI	1.0		11.0	face	adult-51.jpg	0.0	200.16708770127207	0.10003347549582031
216.0	108.00056174840483	baseline	0.0		48.0		baseline	0.0	200.2671211767679	0.39999082366921357
216.0	108.40055257207405	ISI	1.0		11.0		baseline	0.0	200.6671120004371	0.09999846055006856
217.0	108.50055103262412	baseline	0.0		47.0		baseline	0.0	200.76711046098717	0.399987201433305
217.0	108.50491703419766	pulse	0.0	t			baseline	0.0	200.7714764625607	
217.0	108.90053823405742	ISI	1.0		11.0		baseline	0.0	201.16709766242047	0.09999906425582594
218.0	109.00053729831325	baseline	0.0		48.0		baseline	0.0	201.2670967266763	0.39999112552231963
218.0	109.20064711242912	pulse	0.0	t			baseline	0.0	201.46720654079218	
218.0	109.40052842383557	ISI	1.0		11.0		baseline	0.0	201.66708785219862	0.09999785684385643
219.0	109.50052628067942	baseline	0.0		48.0		baseline	0.0	201.76708570904248	0.3999878051390624
219.0	109.90051408581849	ISI	1.0		11.0		baseline	0.0	202.16707351418154	0.09999664943188691
219.0	109.90528517409848	pulse	1.0	t			baseline	0.0	202.17184460246153	
220.0	110.00051073525037	baseline	0.0		48.0		baseline	0.0	202.26707016361343	0.39998780513951715
220.0	110.40049854038989	ISI	1.0		11.0		baseline	0.0	202.66705796875294	0.09999846054961381
221.0	110.5004970009395	baseline	0.0		48.0		baseline	0.0	202.76705642930256	0.39998750328686583
221.0	110.60060654338804	pulse	0.0	t			baseline	0.0	202.8671659717511	
221.0	110.90048450422637	ISI	1.0		11.0		baseline	0.0	203.16704393258942	0.10002079767036776
222.0	111.00050530189674	baseline	0.0		48.0		baseline	0.0	203.2670647302598	0.39996637357762665
222.0	111.30059788020708	pulse	0.0	t			baseline	0.0	203.56715730857013	
222.0	111.40047167547436	ISI	1.0		11.0		baseline	0.0	203.66703110383742	0.09999755499075036
223.0	111.50046923046511	baseline	0.0		48.0		baseline	0.0	203.76702865882817	0.39998961625724405
223.0	111.90045884672236	ISI	1.0		11.0		baseline	0.0	204.1670182750854	0.09999755499075036
224.0	112.00045640171311	baseline	0.0		47.0		baseline	0.0	204.26701583007616	0.3999965588759551
224.0	112.00482572366991	pulse	0.0	t			baseline	0.0	204.27138515203296	
224.0	112.40045296058906	ISI	1.0		11.0		baseline	0.0	204.66701238895212	0.09998819754855504
225.0	112.50044115813762	baseline	0.0		48.0		baseline	0.0	204.76700058650067	0.39999082366921357
225.0	112.7005512741066	pulse	0.0	t			baseline	0.0	204.96711070246965	
225.0	112.90043198180683	ISI	1.0		11.0		baseline	0.0	205.16699141016989	0.09999695128499297
226.0	113.00042893309183	baseline	0.0		48.0		baseline	0.0	205.26698836145488	0.399982673638533
226.0	113.40041160673036	ISI	1.0		11.0		baseline	0.0	205.6669710350934	0.10000419575635533
226.0	113.40518088389217	pulse	1.0	t			baseline	0.0	205.67174031225522	
227.0	113.50041580248671	baseline	0.0		48.0		baseline	0.0	205.76697523084977	0.3999899181103501
227.0	113.90040572059706	ISI	1.0		7.0		baseline	0.0	206.16696514896012	0.11666346199399413
228.0	114.01706918259106	adult	0.0		46.0	face	adult-141.jpg	0.0	206.2836286109541	0.3832923165437023
228.0	114.10048233088446	pulse	0.0	t		face	adult-141.jpg	0.0	206.3670417592475	
228.0	114.40036149913476	ISI	1.0		5.0	face	adult-141.jpg	0.0	206.6669209274978	0.11669545841050422
229.0	114.51705695754526	adult	0.0		46.0	face	adult-88.jpg	0.0	206.78361638590832	0.38328567577809736
229.0	114.80046310284933	pulse	0.0	t		face	adult-88.jpg	0.0	207.0670225312124	
229.0	114.90034263332336	ISI	1.0		7.0	face	adult-88.jpg	0.0	207.16690206168641	0.11670028805838228
230.0	115.01704292138174	adult	0.0		46.0	face	adult-65.jpg	0.0	207.2836023497448	0.3832868831896121
230.0	115.40032980457136	ISI	1.0		6.0	face	adult-65.jpg	0.0	207.6668892329344	0.11669213802770173
231.0	115.51702194259906	adult	0.0		45.0	face	adult-83.jpg	0.0	207.7835813709621	0.3832917128374902
231.0	115.5083297840456	pulse	0.0	t		face	adult-83.jpg	0.0	207.77488921240865	
231.0	115.90031365543655	ISI	1.0		6.0	face	adult-83.jpg	0.0	208.1668730837996	0.11669938249951883
232.0	116.01701303793607	adult	0.0		46.0	face	adult-64.jpg	0.0	208.28357246629912	0.38324522747780065
232.0	116.20038902812712	pulse	0.0	t		face	adult-64.jpg	0.0	208.46694845649017	
232.0	116.40025826541387	ISI	1.0		7.0	face	adult-64.jpg	0.0	208.66681769377692	0.11671115476565319
233.0	116.51696942017952	adult	0.0		46.0	face	adult-132.jpg	0.0	208.78352884854257	0.3832911091317328
233.0	116.90026052931125	ISI	1.0		6.0	face	adult-132.jpg	0.0	209.1668199576743	0.11667976205535524
233.0	116.94348678231063	pulse	1.0	t		face	adult-132.jpg	0.0	209.21004621067368	
234.0	117.01694029136661	adult	0.0		46.0	face	adult-60.jpg	0.0	209.28349971972966	0.38330378695718537
234.0	117.4002440783238	ISI	1.0		7.0	face	adult-60.jpg	0.0	209.66680350668685	0.11669545841050422
235.0	117.5169395367343	adult	0.0		46.0	face	adult-45.jpg	0.0	209.78349896509735	0.3832895998666572
235.0	117.60035419429278	pulse	0.0	t		face	adult-45.jpg	0.0	209.86691362265583	
235.0	117.90022913660096	ISI	1.0		8.0	face	adult-45.jpg	0.0	210.166788564964	0.11669726952823112
236.0	118.01692640612919	adult	0.0		46.0	face	adult-45.jpg	1.0	210.28348583449224	0.38329080727862674
236.0	118.3003352681103	pulse	0.0	t		face	adult-45.jpg	1.0	210.56689469647335	
236.0	118.40021721340781	ISI	1.0		7.0	face	adult-45.jpg	1.0	210.66677664177087	0.11669726952868587
237.0	118.5169144829365	adult	0.0		46.0	face	adult-131.jpg	0.0	210.78347391129955	0.3832911091317328
237.0	118.57532726146019	response	0.0	b		face	adult-131.jpg	0.0	210.84188668982324	
237.0	118.90020559206823	ISI	1.0		3.0	face	adult-131.jpg	0.0	211.16676502043128	0.11668821393868711
238.0	119.01689380600692	adult	0.0		45.0	face	adult-101.jpg	0.0	211.28345323436997	0.3832971461915804
238.0	119.00869940302528	pulse	0.0	t		face	adult-101.jpg	0.0	211.27525883138833	
238.0	119.4001909521985	ISI	1.0		7.0	face	adult-101.jpg	0.0	211.66675038056155	0.11669545841050422
239.0	119.516886410609	adult	0.0		46.0	face	adult-130.jpg	0.0	211.78344583897206	0.38329110913127806
239.0	119.70031311210141	pulse	0.0	t		face	adult-130.jpg	0.0	211.96687254046446	
239.0	119.90017751974028	ISI	1.0		7.0	face	adult-130.jpg	0.0	212.16673694810333	0.1166969676755798
240.0	120.01687448741586	adult	0.0		46.0	face	adult-140.jpg	0.0	212.28343391577891	0.3832895998666572
240.0	120.40016408728252	ISI	1.0		4.0	face	adult-140.jpg	0.0	212.66672351564557	0.11669938249951883
240.0	120.46061799568997	pulse	1.0	t		face	adult-140.jpg	0.0	212.72717742405302	
241.0	120.51686346978204	adult	0.0		46.0	face	adult-118.jpg	0.0	212.7834228981451	0.3832895998666572
241.0	120.9001530696487	ISI	1.0		7.0	face	adult-118.jpg	0.0	213.16671249801175	0.11667946020224917
242.0	121.01683252985094	adult	0.0		46.0	face	adult-125.jpg	0.0	213.283391958214	0.38330439066294275
242.0	121.10025895967601	pulse	0.0	t		face	adult-125.jpg	0.0	213.36681838803906	
242.0	121.40013692051389	ISI	1.0		7.0	face	adult-125.jpg	0.0	213.66669634887694	0.11669998620527622
243.0	121.51683690671916	adult	0.0		46.0	face	adult-103.jpg	0.0	213.78339633508222	0.3832865813369608
243.0	121.80025512614293	pulse	0.0	t		face	adult-103.jpg	0.0	214.06681455450598	
243.0	121.90012348805612	ISI	1.0		5.0	face	adult-103.jpg	0.0	214.16668291641918	0.11668096946732476
244.0	122.01680445752345	adult	0.0		46.0	face	adult-120.jpg	0.0	214.2833638858865	0.38333759449142235
244.0	122.40014205201487	ISI	1.0		7.0	face	adult-120.jpg	0.0	214.66670148037792	0.11667855464338572
245.0	122.51682060665826	adult	0.0		45.0	face	adult-15.jpg	0.0	214.7833800350213	0.38330771104574524
245.0	122.5085875664945	pulse	0.0	t		face	adult-15.jpg	0.0	214.77514699485755	
245.0	122.900128317704	ISI	1.0		7.0	face	adult-15.jpg	0.0	215.16668774606705	0.11671688997239471
246.0	123.0168452076764	adult	0.0		46.0	face	adult-95.jpg	0.0	215.28340463603945	0.3832364737413627
246.0	123.20020369039412	pulse	0.0	t		face	adult-95.jpg	0.0	215.46676311875717	
246.0	123.40008168141776	ISI	1.0		7.0	face	adult-95.jpg	0.0	215.6666411097808	0.11669998620527622
247.0	123.51678166762304	adult	0.0		46.0	face	adult-97.jpg	0.0	215.7833410959861	0.3832905054255207
247.0	123.90007217304856	ISI	1.0		6.0	face	adult-97.jpg	0.0	216.1666316014116	0.11668066761467344
247.0	123.94562450514968	pulse	1.0	t		face	adult-97.jpg	0.0	216.21218393351273	
248.0	124.01675284066323	adult	0.0		46.0	face	adult-113.jpg	0.0	216.28331226902628	0.38330439066294275
248.0	124.40005723132617	ISI	1.0		6.0	face	adult-113.jpg	0.0	216.66661665968923	0.1166960621162616
249.0	124.51675329344243	adult	0.0		46.0	face	adult-39.jpg	0.0	216.7833127218055	0.3832911091317328
249.0	124.6001640269119	pulse	0.0	t		face	adult-39.jpg	0.0	216.86672345527495	
249.0	124.90004440257417	ISI	1.0		7.0	face	adult-39.jpg	0.0	217.16660383093722	0.11668428985012724
250.0	125.0167286924243	adult	0.0		46.0	face	adult-78.jpg	0.0	217.28328812078735	0.3833001647212768
250.0	125.30014993037776	pulse	0.0	t		face	adult-78.jpg	0.0	217.5667093587408	
250.0	125.40002885714557	ISI	1.0		6.0	face	adult-78.jpg	0.0	217.66658828550862	0.10836461787948792
251.0	125.50839347502506	adult	0.0		47.0	face	adult-38.jpg	0.0	217.7749529033881	0.391623760780476
251.0	125.87513006090512	response	0.0	b		face	adult-38.jpg	0.0	218.14168948926817	
251.0	125.90001723580554	ISI	1.0		4.0	face	adult-38.jpg	0.0	218.1665766641686	0.10835465673108047
252.0	126.00837189253662	word	0.0		46.0	character	word-92.jpg	0.0	218.27493132089967	0.3916316089580505
252.0	126.00367355082653	pulse	0.0	t		character	word-92.jpg	0.0	218.2702329791896	
252.0	126.40000350149467	ISI	1.0		4.0	character	word-92.jpg	0.0	218.66656292985772	0.10835948637895854
253.0	126.50836298787362	word	0.0		47.0	character	word-85.jpg	0.0	218.77492241623668	0.3916267793101724
253.0	126.7001114743075	pulse	0.0	t		character	word-85.jpg	0.0	218.96667090267056	
253.0	126.8999897671838	ISI	1.0		4.0	character	word-85.jpg	0.0	219.16654919554685	0.10836401417373054
254.0	127.00835378135753	word	0.0		47.0	character	word-48.jpg	0.0	219.27491320972058	0.3916243644862334
254.0	127.39997814584376	ISI	1.0		6.0	character	word-48.jpg	0.0	219.6665375742068	0.10836129749714019
254.0	127.44691568129292	pulse	1.0	t		character	word-48.jpg	0.0	219.71347510965597	
255.0	127.5083394433409	word	0.0		47.0	character	word-144.jpg	0.0	219.77489887170395	0.3916243644862334
255.0	127.89996380782713	ISI	1.0		6.0	character	word-144.jpg	0.0	220.1665232361902	0.10836009008517067
256.0	128.0083238979123	word	0.0		47.0	character	word-122.jpg	0.0	220.27488332627536	0.39162798672214194
256.0	128.10007422564922	pulse	0.0	t		character	word-122.jpg	0.0	220.36663365401228	
256.0	128.39995188463445	ISI	1.0		5.0	character	word-122.jpg	0.0	220.6665113129975	0.10834771411236943
257.0	128.50829959874682	word	0.0		47.0	character	word-71.jpg	0.0	220.77485902710987	0.3916376460178981
257.0	128.80004594202455	pulse	0.0	t		character	word-71.jpg	0.0	221.0666053703876	
257.0	128.89993724476471	ISI	1.0		6.0	character	word-71.jpg	0.0	221.16649667312777	0.10836431602638186
258.0	129.0083015607911	word	0.0		47.0	character	word-79.jpg	0.0	221.27486098915415	0.39165485163812264
258.0	129.39995641242922	ISI	1.0		5.0	character	word-79.jpg	0.0	221.66651584079227	0.11668278058505166
259.0	129.51663919301427	word	0.0		45.0	character	word-57.jpg	0.0	221.78319862137732	0.38330589992801833
259.0	129.50608460154353	pulse	0.0	t		character	word-57.jpg	0.0	221.7726440299066	
259.0	129.8999450929423	ISI	1.0		6.0	character	word-57.jpg	0.0	222.16650452130534	0.11669757138133718
260.0	130.01664266432363	word	0.0		46.0	character	word-41.jpg	0.0	222.28320209268668	0.38325307565537514
260.0	130.20003072863392	pulse	0.0	t		character	word-41.jpg	0.0	222.46659015699697	
260.0	130.399895739979	ISI	1.0		6.0	character	word-41.jpg	0.0	222.66645516834205	0.11670360844118477
261.0	130.5165993484202	word	0.0		46.0	character	word-104.jpg	0.0	222.78315877678324	0.3832853739249913
261.0	130.89988472234518	ISI	1.0		6.0	character	word-104.jpg	0.0	223.16644415070823	0.11669998620527622
261.0	130.94079244256727	pulse	1.0	t		character	word-104.jpg	0.0	223.20735187093032	
262.0	131.01658470855045	word	0.0		46.0	character	word-133.jpg	0.0	223.2831441369135	0.3832868831896121
262.0	131.39987159174007	ISI	1.0		7.0	character	word-133.jpg	0.0	223.66643102010312	0.11670240102921525
263.0	131.51657399276928	word	0.0		46.0	character	word-66.jpg	0.0	223.78313342113233	0.3832832609541583
263.0	131.6000061578011	pulse	0.0	t		character	word-66.jpg	0.0	223.86656558616414	
263.0	131.89985725372344	ISI	1.0		6.0	character	word-66.jpg	0.0	224.1664166820865	0.11670270288232132
264.0	132.01655995660576	car	0.0		46.0	object	car-4.jpg	0.0	224.2831193849688	0.3832889961604451
264.0	132.09996616228045	response	0.0	b		object	car-4.jpg	0.0	224.3665255906435	
264.0	132.2999673093218	pulse	0.0	t		object	car-4.jpg	0.0	224.56652673768485	
264.0	132.3998489527662	ISI	1.0		5.0	object	car-4.jpg	0.0	224.66640838112926	0.1166782527907344
265.0	132.51652720555694	car	0.0		46.0	object	car-32.jpg	0.0	224.78308663392	0.38330922031036607
265.0	132.8998364258673	ISI	1.0		6.0	object	car-32.jpg	0.0	225.16639585423036	0.11668428985012724
266.0	133.01652071571743	car	0.0		45.0	object	car-6.jpg	0.0	225.2830801440805	0.3832847702192339
266.0	133.00833416091382	pulse	0.0	t		object	car-6.jpg	0.0	225.27489358927687	
266.0	133.39980548593667	ISI	1.0		7.0	object	car-6.jpg	0.0	225.66636491429972	0.11673741597542175
267.0	133.5165429019121	car	0.0		46.0	object	car-35.jpg	0.0	225.78310233027514	0.38325699974438976
267.0	133.6999194958089	pulse	0.0	t		object	car-35.jpg	0.0	225.96647892417195	
267.0	133.89979990165648	ISI	1.0		7.0	object	car-35.jpg	0.0	226.16635933001953	0.11670541955891167
268.0	134.0165053212154	car	0.0		46.0	object	car-78.jpg	0.0	226.28306474957844	0.3832977498973378
268.0	134.39980307111273	ISI	1.0		7.0	object	car-78.jpg	0.0	226.66636249947578	0.11668881764489925
268.0	134.439963705197	pulse	1.0	t		object	car-78.jpg	0.0	226.70652313356004	
269.0	134.51649188875763	car	0.0		46.0	object	car-54.jpg	0.0	226.78305131712068	0.3832844683656731
269.0	134.8997763571233	ISI	1.0		3.0	object	car-54.jpg	0.0	227.16633578548635	0.11670391029429084
270.0	135.0164802674176	car	0.0		46.0	object	car-99.jpg	0.0	227.28303969578064	0.3832835628072644
270.0	135.09988556753342	pulse	0.0	t		object	car-99.jpg	0.0	227.36644499589647	
270.0	135.39976383022486	ISI	1.0		6.0	object	car-99.jpg	0.0	227.6663232585879	0.11668096946687001
271.0	135.51644479969173	car	0.0		46.0	object	car-139.jpg	0.0	227.78300422805478	0.38330589992801833
271.0	135.7998663394983	pulse	0.0	t		object	car-139.jpg	0.0	228.06642576786135	
271.0	135.89975069961974	ISI	1.0		6.0	object	car-139.jpg	0.0	228.1663101279828	0.11670300473542738
272.0	136.01645370435517	car	0.0		46.0	object	car-7.jpg	0.0	228.28301313271822	0.3833161629290771
272.0	136.39976986728425	ISI	1.0		7.0	object	car-7.jpg	0.0	228.6663292956473	0.11668640282096021
273.0	136.5164562701052	car	0.0		45.0	object	car-100.jpg	0.0	228.78301569846826	0.3833068054868818
273.0	136.50827484680212	pulse	0.0	t		object	car-100.jpg	0.0	228.77483427516518	
273.0	136.8997630755921	ISI	1.0		7.0	object	car-100.jpg	0.0	229.16632250395514	0.11669545841050422
274.0	137.0164585340026	car	0.0		46.0	object	car-72.jpg	0.0	229.28301796236565	0.38325247194961776
274.0	137.19984840943107	pulse	0.0	t		object	car-72.jpg	0.0	229.46640783779412	
274.0	137.3997110059522	ISI	1.0		4.0	object	car-72.jpg	0.0	229.66627043431527	0.11669636396936767
275.0	137.51640736992158	car	0.0		46.0	object	car-97.jpg	0.0	229.78296679828463	0.38329080727862674
275.0	137.8996981772002	ISI	1.0		11.0	object	car-97.jpg	0.0	230.16625760556326	0.09999091422560014
275.0	137.90428543701228	pulse	1.0	t		object	car-97.jpg	0.0	230.17084486537533	
276.0	137.9996890914258	baseline	0.0		48.0		baseline	0.0	230.26624851978886	0.39999414405201605
276.0	138.39968323547782	ISI	1.0		11.0		baseline	0.0	230.66624266384088	0.09999725313764429
277.0	138.49968048861547	baseline	0.0		48.0		baseline	0.0	230.76623991697852	0.39998931440459273
277.0	138.599828366393	pulse	0.0	t			baseline	0.0	230.86638779475606	
277.0	138.89966980302006	ISI	1.0		11.0		baseline	0.0	231.1662292313831	0.09999664943143216
278.0	138.9996664524515	baseline	0.0		48.0		baseline	0.0	231.26622588081455	0.39999172922853177
278.0	139.29978378270698	pulse	0.0	t			baseline	0.0	231.56634321107003	
278.0	139.39965818168002	ISI	1.0		11.0		baseline	0.0	231.66621761004308	0.09999544201991739
279.0	139.49965362369994	baseline	0.0		48.0		baseline	0.0	231.766213052063	0.4000056144654991
279.0	139.89965923816544	ISI	1.0		11.0		baseline	0.0	232.1662186665285	0.09998517901840387
280.0	139.99964441718384	baseline	0.0		47.0		baseline	0.0	232.2662038455469	0.39998780513951715
280.0	140.00411365247874	pulse	0.0	t			baseline	0.0	232.2706730808418	
280.0	140.39963222232336	ISI	1.0		11.0		baseline	0.0	232.66619165068641	0.09999483831370526
281.0	140.49962706063707	baseline	0.0		48.0		baseline	0.0	232.76618648900012	0.39998840884527453
281.0	140.6997432136659	pulse	0.0	t			baseline	0.0	232.96630264202895	
281.0	140.89961546948234	ISI	1.0		11.0		baseline	0.0	233.1661748978454	0.09999664943188691
282.0	140.99961211891423	baseline	0.0		48.0		baseline	0.0	233.26617154727728	0.39999233293428915
282.0	141.39960445184852	ISI	1.0		11.0		baseline	0.0	233.66616388021157	0.09999514016726607
282.0	141.404343543712	pulse	1.0	t			baseline	0.0	233.67090297207506	
283.0	141.49959959201578	baseline	0.0		48.0		baseline	0.0	233.76615902037884	0.39999082366921357
283.0	141.899590415685	ISI	1.0		11.0		baseline	0.0	234.16614984404805	0.09999634757878084
284.0	141.99958676326378	baseline	0.0		48.0		baseline	0.0	234.26614619162683	0.39998780513951715
284.0	142.09969992794777	pulse	0.0	t			baseline	0.0	234.36625935631082	
284.0	142.3995745684033	ISI	1.0		11.0		baseline	0.0	234.66613399676635	0.09999846054961381
285.0	142.4995730289529	baseline	0.0		48.0		baseline	0.0	234.76613245731596	0.399989314404138
285.0	142.7996816054715	pulse	0.0	t			baseline	0.0	235.06624103383456	
285.0	142.89956234335705	ISI	1.0		11.0		baseline	0.0	235.1661217717201	0.10002653287756402
286.0	142.9995888762346	baseline	0.0		48.0		baseline	0.0	235.26614830459766	0.4000309701164042
286.0	143.39961984635102	ISI	1.0		11.0		baseline	0.0	235.66617927471407	0.09999483831370526
287.0	143.49961468466472	baseline	0.0		47.0		baseline	0.0	235.76617411302777	0.39999052181656225
287.0	143.5040320012463	pulse	0.0	t			baseline	0.0	235.77059142960934	
287.0	143.89960520648128	ISI	1.0		5.0		baseline	0.0	236.16616463484434	0.11664897305081467
288.0	144.0162541795321	body	0.0		46.0	body	body-27.jpg	0.0	236.28281360789515	0.38326816830476673
288.0	144.19968208843648	pulse	0.0	t		body	body-27.jpg	0.0	236.46624151679953	
288.0	144.39952234783686	ISI	1.0		7.0	body	body-27.jpg	0.0	236.66608177619992	0.11668308243815773
289.0	144.51620543027502	body	0.0		46.0	body	body-27.jpg	1.0	236.78276485863807	0.38330771104574524
289.0	144.89951314132077	ISI	1.0		5.0	body	body-27.jpg	1.0	237.16607256968382	0.11666497125906972
289.0	144.94886519879583	pulse	1.0	t		body	body-27.jpg	1.0	237.21542462715888	
289.0	144.99126618573428	response	1.0	b		body	body-27.jpg	1.0	237.25782561409733	
290.0	145.01617811257984	body	0.0		46.0	body	body-135.jpg	0.0	237.2827375409429	0.3833182759003648
290.0	145.3994963884802	ISI	1.0		7.0	body	body-135.jpg	0.0	237.66605581684325	0.11669334543967125
291.0	145.51618973391987	body	0.0		46.0	body	body-14.jpg	0.0	237.78274916228293	0.38329141098438413
291.0	145.5996394064241	pulse	0.0	t		body	body-14.jpg	0.0	237.86619883478716	
291.0	145.89948114490426	ISI	1.0		5.0	body	body-14.jpg	0.0	238.1660405732673	0.11669787323444325
292.0	146.0161790181387	body	0.0		46.0	body	body-5.jpg	0.0	238.28273844650175	0.3832883924546877
292.0	146.29958576714898	pulse	0.0	t		body	body-5.jpg	0.0	238.56614519551204	
292.0	146.3994674105934	ISI	1.0		6.0	body	body-5.jpg	0.0	238.66602683895644	0.1085104128715102
293.0	146.5079778234649	body	0.0		47.0	body	body-29.jpg	0.0	238.77453725182795	0.3914782676415598
293.0	146.89945609110646	ISI	1.0		5.0	body	body-29.jpg	0.0	239.1660155194695	0.1083570715550195
294.0	147.00781316266148	body	0.0		46.0	body	body-66.jpg	0.0	239.27437259102453	0.39162738301638456
294.0	147.00310667092072	pulse	0.0	t		body	body-66.jpg	0.0	239.26966609928377	
294.0	147.39944054567786	ISI	1.0		6.0	body	body-66.jpg	0.0	239.66599997404091	0.10832628255047894
295.0	147.50776682822834	body	0.0		47.0	body	body-102.jpg	0.0	239.7743262565914	0.391662096109485
295.0	147.69955334813812	pulse	0.0	t		body	body-102.jpg	0.0	239.96611277650118	
295.0	147.89942892433783	ISI	1.0		6.0	body	body-102.jpg	0.0	240.16598835270088	0.1083615993497915
296.0	148.00779052368762	body	0.0		47.0	body	body-96.jpg	0.0	240.27434995205067	0.39162466633933946
296.0	148.39941519002696	ISI	1.0		5.0	body	body-96.jpg	0.0	240.66597461839	0.11670300473542738
296.0	148.45111566372498	pulse	1.0	t		body	body-96.jpg	0.0	240.71767509208803	
297.0	148.51611819476238	body	0.0		46.0	body	body-134.jpg	0.0	240.78267762312544	0.3832883924546877
297.0	148.89940658721707	ISI	1.0		3.0	body	body-134.jpg	0.0	241.16596601558012	0.1166924398808078
298.0	149.01609902709788	body	0.0		46.0	body	body-62.jpg	0.0	241.28265845546093	0.38329654248536826
298.0	149.0995170050387	pulse	0.0	t		body	body-62.jpg	0.0	241.36607643340176	
298.0	149.39939556958325	ISI	1.0		6.0	body	body-62.jpg	0.0	241.6659549979463	0.10835676970191344
299.0	149.50775233928516	body	0.0		47.0	body	body-79.jpg	0.0	241.77431176764821	0.3916270811632785
299.0	149.7994932492088	pulse	0.0	t		body	body-79.jpg	0.0	242.06605267757186	
299.0	149.89937942044844	ISI	1.0		1.0	body	body-79.jpg	0.0	242.1659388488115	0.10835797711388295
300.0	150.00773739756232	house	0.0		47.0	place	house-58.jpg	0.0	242.27429682592538	0.3916536442261531
300.0	150.39939104178848	ISI	1.0		5.0	place	house-58.jpg	0.0	242.66595047015153	0.11669455285118602
301.0	150.51608559463966	house	0.0		45.0	place	house-34.jpg	0.0	242.78264502300271	0.38327058312870577
301.0	150.505132557229	pulse	0.0	t		place	house-34.jpg	0.0	242.77169198559204	
301.0	150.89935617776837	ISI	1.0		6.0	place	house-34.jpg	0.0	243.16591560613142	0.11671266403072877
302.0	151.0160688417991	house	0.0		46.0	place	house-131.jpg	0.0	243.28262827016215	0.3832805442771132
302.0	151.19944603940212	pulse	0.0	t		place	house-131.jpg	0.0	243.46600546776517	
302.0	151.3993493860762	ISI	1.0		7.0	place	house-131.jpg	0.0	243.66590881443926	0.11667885649649179
303.0	151.5160282425727	house	0.0		46.0	place	house-7.jpg	0.0	243.78258767093575	0.3832950332202927
303.0	151.899323275793	ISI	1.0		5.0	place	house-7.jpg	0.0	244.16588270415605	0.11669545841050422
303.0	151.95633092867183	pulse	1.0	t		place	house-7.jpg	0.0	244.22289035703488	
304.0	152.0160187342035	house	0.0		46.0	place	house-128.jpg	0.0	244.28257816256655	0.3832950332207474
304.0	152.39931376742425	ISI	1.0		7.0	place	house-128.jpg	0.0	244.6658731957873	0.11667795093717359
305.0	152.51599171836142	house	0.0		46.0	place	house-14.jpg	0.0	244.78255114672447	0.3833034851040793
305.0	152.59942086486308	pulse	0.0	t		place	house-14.jpg	0.0	244.86598029322613	
305.0	152.8992952034655	ISI	1.0		5.0	place	house-14.jpg	0.0	245.16585463182855	0.11669757138133718
306.0	153.01599277484684	house	0.0		46.0	place	house-52.jpg	0.0	245.2825522032099	0.3832899017197633
306.0	153.29940556091697	pulse	0.0	t		place	house-52.jpg	0.0	245.56596498928002	
306.0	153.3992826765666	ISI	1.0		7.0	place	house-52.jpg	0.0	245.66584210492965	0.1166987787933067
307.0	153.5159814553599	house	0.0		46.0	place	house-51.jpg	0.0	245.78254088372296	0.3832868831900669
307.0	153.89926833854997	ISI	1.0		6.0	place	house-51.jpg	0.0	246.16582776691303	0.11669062876262615
308.0	154.0159589673126	house	0.0		45.0	place	house-49.jpg	0.0	246.28251839567565	0.3832962406322622
308.0	154.00752489306115	pulse	0.0	t		place	house-49.jpg	0.0	246.2740843214242	
308.0	154.39925520794486	ISI	1.0		6.0	place	house-49.jpg	0.0	246.6658146363079	0.11670028805838228
309.0	154.51595549600324	house	0.0		46.0	place	house-90.jpg	0.0	246.7825149243663	0.38328567577809736
309.0	154.6993628789046	pulse	0.0	t		place	house-90.jpg	0.0	246.96592230726765	
309.0	154.89924117178134	ISI	1.0		7.0	place	house-90.jpg	0.0	247.1658006001444	0.11669968435217015
310.0	155.0159408561335	house	0.0		46.0	place	house-90.jpg	1.0	247.28250028449656	0.3832911091317328
310.0	155.39923196526524	ISI	1.0		5.0	place	house-90.jpg	1.0	247.6657913936283	0.11669757138133718
310.0	155.45057444132317	pulse	1.0	t		place	house-90.jpg	1.0	247.71713386968622	
311.0	155.51592953664658	house	0.0		46.0	place	house-24.jpg	0.0	247.78248896500963	0.38328627948385474
311.0	155.55773889173497	response	0.0	b		place	house-24.jpg	0.0	247.82429832009802	
311.0	155.89921581613044	ISI	1.0		6.0	place	house-24.jpg	0.0	248.1657752444935	0.11669908064641277
312.0	156.01591489677685	word	0.0		46.0	character	word-123.jpg	0.0	248.2824743251399	0.38328627948385474
312.0	156.09940471572827	pulse	0.0	t		character	word-123.jpg	0.0	248.36596414409132	
312.0	156.3992011762607	ISI	1.0		6.0	character	word-123.jpg	0.0	248.66576060462376	0.11670994735368367
313.0	156.5159111236144	word	0.0		46.0	character	word-32.jpg	0.0	248.78247055197744	0.3832763183354473
313.0	156.79931485409497	pulse	0.0	t		character	word-32.jpg	0.0	249.06587428245803	
313.0	156.89918744194983	ISI	1.0		7.0	character	word-32.jpg	0.0	249.1657468703129	0.11668579911520283
314.0	157.01587324106504	word	0.0		46.0	character	word-114.jpg	0.0	249.2824326694281	0.3833324629904382
314.0	157.39920570405548	ISI	1.0		6.0	character	word-114.jpg	0.0	249.66576513241853	0.11670360844118477
315.0	157.51590931249666	word	0.0		45.0	character	word-50.jpg	0.0	249.7824687408597	0.3832841665130218
315.0	157.5057241890795	pulse	0.0	t		character	word-50.jpg	0.0	249.77228361744255	
315.0	157.89919347900968	ISI	1.0		6.0	character	word-50.jpg	0.0	250.16575290737273	0.11669908064641277
316.0	158.0158925596561	word	0.0		46.0	character	word-58.jpg	0.0	250.28245198801915	0.3832895998666572
316.0	158.1993008481163	pulse	0.0	t		character	word-58.jpg	0.0	250.46586027647936	
316.0	158.39918215952275	ISI	1.0		3.0	character	word-58.jpg	0.0	250.6657415878858	0.11670451400004822
317.0	158.5158866735228	word	0.0		46.0	character	word-2.jpg	0.0	250.78244610188585	0.38328024242400716
317.0	158.8991669159468	ISI	1.0		6.0	character	word-2.jpg	0.0	251.16572634430986	0.11669817508754932
317.0	158.94321239794726	pulse	1.0	t		character	word-2.jpg	0.0	251.20977182631032	
318.0	159.01586509103436	word	0.0		46.0	character	word-10.jpg	0.0	251.2824245193974	0.3832899017197633
318.0	159.39915499275412	ISI	1.0		7.0	character	word-10.jpg	0.0	251.66571442111717	0.11668308243815773
319.0	159.51583807519228	word	0.0		46.0	character	word-118.jpg	0.0	251.78239750355533	0.3833007684270342
319.0	159.59933755343945	pulse	0.0	t		character	word-118.jpg	0.0	251.8658969818025	
319.0	159.8991388436193	ISI	1.0		6.0	character	word-118.jpg	0.0	252.16569827198236	0.12502418597068754
319.0	159.99095859754289	response	1.0	b		character	word-118.jpg	0.0	252.25751802590594	
320.0	160.02416302959	word	0.0		45.0	character	word-82.jpg	0.0	252.29072245795305	0.37496268342465555
320.0	160.29922988247972	pulse	0.0	t		character	word-82.jpg	0.0	252.56578931084277	
320.0	160.39912571301466	ISI	1.0		7.0	character	word-82.jpg	0.0	252.6656851413777	0.11670632511777512
321.0	160.51583203813243	word	0.0		47.0	character	word-12.jpg	0.0	252.78239146649548	0.3916210441034309
321.0	160.90745308223586	ISI	1.0		3.0	character	word-12.jpg	0.0	253.1740125105989	0.10836733455653302
322.0	161.0158204167924	word	0.0		46.0	character	word-81.jpg	0.0	253.28237984515545	0.39161500704403807
322.0	161.00559001542797	pulse	0.0	t		character	word-81.jpg	0.0	253.27214944379102	
322.0	161.40743542383643	ISI	1.0		6.0	character	word-81.jpg	0.0	253.67399485219948	0.11669757138133718
323.0	161.52413299521777	word	0.0		46.0	character	word-134.jpg	0.0	253.79069242358082	0.38328809060158164
323.0	161.69921225426515	pulse	0.0	t		character	word-134.jpg	0.0	253.9657716826282	
323.0	161.90742108581935	ISI	1.0		5.0	character	word-134.jpg	0.0	254.1739805141824	0.10836220305645838
324.0	162.0157832888758	house	0.0		47.0	place	house-106.jpg	0.0	254.28234271723886	0.3915926699228294
324.0	162.39916102981397	pulse	0.0	t		place	house-106.jpg	0.0	254.66572045817702	
324.0	162.40737595879864	ISI	1.0		7.0	place	house-106.jpg	0.0	254.6739353871617	0.11669304358656518
325.0	162.5240690023852	house	0.0		46.0	place	house-103.jpg	0.0	254.79062843074826	0.38330046657392813
325.0	162.90736946895913	ISI	1.0		6.0	place	house-103.jpg	0.0	255.17392889732218	0.11668881764489925
326.0	163.02405828660403	house	0.0		46.0	place	house-36.jpg	0.0	255.29061771496708	0.38328839245514246
326.0	163.09914964995596	pulse	0.0	t		place	house-36.jpg	0.0	255.36570907831901	
326.0	163.34911621973833	response	0.0	b		place	house-36.jpg	0.0	255.6156756481014	
326.0	163.40734667905917	ISI	1.0		6.0	place	house-36.jpg	0.0	255.67390610742223	0.11668851579179318
327.0	163.52403519485097	house	0.0		46.0	place	house-72.jpg	0.0	255.79059462321402	0.383299862867716
327.0	163.79909812365213	pulse	0.0	t		place	house-72.jpg	0.0	256.0656575520152	
327.0	163.90733505771868	ISI	1.0		6.0	place	house-72.jpg	0.0	256.17389448608174	0.11669485470520158
328.0	164.02402991242388	house	0.0		46.0	place	house-113.jpg	0.0	256.29058934078694	0.383290807278172
328.0	164.40732071970206	ISI	1.0		7.0	place	house-113.jpg	0.0	256.6738801480651	0.11668549726164201
328.0	164.4991235698585	pulse	1.0	t		place	house-113.jpg	0.0	256.76568299822156	
329.0	164.5240062169637	house	0.0		46.0	place	house-85.jpg	0.0	256.79056564532675	0.38330137213324633
329.0	164.90730758909694	ISI	1.0		3.0	place	house-85.jpg	0.0	257.17386701746	0.11669576026361028
330.0	165.02400334936056	house	0.0		46.0	place	house-2.jpg	0.0	257.2905627777236	0.3832905054259754
330.0	165.19908351396725	pulse	0.0	t		place	house-2.jpg	0.0	257.4656429423303	
330.0	165.40729385478653	ISI	1.0		7.0	place	house-2.jpg	0.0	257.6738532831496	0.11669576026361028
331.0	165.52398961505014	house	0.0		46.0	place	house-73.jpg	0.0	257.7905490434132	0.38329382580832316
331.0	165.8990627766675	pulse	0.0	t		place	house-73.jpg	0.0	258.16562220503056	
331.0	165.90728344085846	ISI	1.0		6.0	place	house-73.jpg	0.0	258.1738428692215	0.11669364729277731
332.0	166.02397708815124	house	0.0		46.0	place	house-28.jpg	0.0	258.2905365165143	0.3832899017197633
332.0	166.407266989871	ISI	1.0		6.0	place	house-28.jpg	0.0	258.67382641823406	0.11669938249906409
333.0	166.52396637237007	house	0.0		46.0	place	house-97.jpg	0.0	258.7905258007331	0.3832772238947655
333.0	166.59904354863238	pulse	0.0	t		place	house-97.jpg	0.0	258.86560297699543	
333.0	166.90724359626483	ISI	1.0		6.0	place	house-97.jpg	0.0	259.1738030246279	0.116714777001107
334.0	167.02395837326594	house	0.0		46.0	place	house-62.jpg	0.0	259.290517801629	0.38328295910105226
334.0	167.29902311318483	pulse	0.0	t		place	house-62.jpg	0.0	259.5655825415479	
334.0	167.407241332367	ISI	1.0		7.0	place	house-62.jpg	0.0	259.67380076073005	0.11669757138133718
335.0	167.52393890374833	house	0.0		46.0	place	house-45.jpg	0.0	259.7904983321114	0.38328839245514246
335.0	167.90722729620347	ISI	1.0		7.0	place	house-45.jpg	0.0	260.1737867245665	0.11668036576065788
335.0	167.99925925277466	pulse	1.0	t		place	house-45.jpg	0.0	260.2658186811377	
336.0	168.02390766196413	house	0.0		46.0	place	house-81.jpg	0.0	260.2904670903272	0.38333759449142235
336.0	168.40724525645555	ISI	1.0		5.0	place	house-81.jpg	0.0	260.6738046848186	0.11668610096876364
337.0	168.52393135742432	house	0.0		46.0	place	house-124.jpg	0.0	260.79049078578737	0.3832696775689328
337.0	168.67424388091194	response	0.0	b		place	house-124.jpg	0.0	260.940803309275	
337.0	168.69896775334792	pulse	0.0	t		place	house-124.jpg	0.0	260.96552718171097	
337.0	168.90720103499325	ISI	1.0		7.0	place	house-124.jpg	0.0	261.1737604633563	0.11667613981990144
338.0	169.02387717481315	house	0.0		46.0	place	house-38.jpg	0.0	261.2904366031762	0.3833119369874112
338.0	169.3989675420503	pulse	0.0	t		place	house-38.jpg	0.0	261.66552697041334	
338.0	169.40718911180056	ISI	1.0		6.0	place	house-38.jpg	0.0	261.6737485401636	0.11669334543967125
339.0	169.52388245724023	house	0.0		46.0	place	house-110.jpg	0.0	261.7904418856033	0.38329110913127806
339.0	169.9071735663715	ISI	1.0		7.0	place	house-110.jpg	0.0	262.17373299473456	0.11669817508754932
340.0	170.02387174145906	house	0.0		46.0	place	house-86.jpg	0.0	262.2904311698221	0.38327843130628025
340.0	170.09895435107455	pulse	0.0	t		place	house-86.jpg	0.0	262.3655137794376	
340.0	170.40715017276534	ISI	1.0		7.0	place	house-86.jpg	0.0	262.6737096011284	0.11671326773648616
341.0	170.52386344050183	house	0.0		46.0	place	house-80.jpg	0.0	262.7904228688649	0.3832826572488557
341.0	170.74060565593982	response	0.0	b		place	house-80.jpg	0.0	263.00716508430287	
341.0	170.7989215396551	pulse	0.0	t		place	house-80.jpg	0.0	263.06548096801816	
341.0	170.90714609775068	ISI	1.0		3.0	place	house-80.jpg	0.0	263.17370552611374	0.11669757138133718
342.0	171.02384366913202	house	0.0		46.0	place	house-144.jpg	0.0	263.2904030974951	0.38328929801355116
342.0	171.40713296714557	ISI	1.0		6.0	place	house-144.jpg	0.0	263.6736923955086	0.11669757138133718
342.0	171.49898954713308	pulse	1.0	t		place	house-144.jpg	0.0	263.76554897549613	
343.0	171.5238305385269	house	0.0		46.0	place	house-22.jpg	0.0	263.79038996688996	0.3832859776312034
343.0	171.9071165161581	ISI	1.0		6.0	place	house-22.jpg	0.0	264.17367594452116	0.11670541955845692
344.0	172.02382193571657	house	0.0		46.0	place	house-120.jpg	0.0	264.2903813640796	0.3832932221030205
344.0	172.1988978743816	pulse	0.0	t		place	house-120.jpg	0.0	264.46545730274465	
344.0	172.4071151578196	ISI	1.0		7.0	place	house-120.jpg	0.0	264.67367458618264	0.11669274173345912
345.0	172.52380789955305	house	0.0		46.0	place	house-120.jpg	1.0	264.7903673279161	0.38328869430733903
345.0	172.8988855889652	pulse	0.0	t		place	house-120.jpg	1.0	265.16544501732824	
345.0	172.9070965938604	ISI	1.0		7.0	place	house-120.jpg	1.0	265.17365602222344	0.11669213802815648
346.0	173.02378873188854	house	0.0		46.0	place	house-16.jpg	0.0	265.2903481602516	0.3832950332207474
346.0	173.3155311510768	response	0.0	b		place	house-16.jpg	0.0	265.58209057943986	
346.0	173.4070837651093	ISI	1.0		7.0	place	house-16.jpg	0.0	265.67364319347234	0.11668036576065788
347.0	173.52376413086995	house	0.0		46.0	place	house-119.jpg	0.0	265.790323559233	0.38330227769256453
347.0	173.59885519236968	pulse	0.0	t		place	house-119.jpg	0.0	265.86541462073274	
347.0	173.9070664085625	ISI	1.0		7.0	place	house-119.jpg	0.0	266.17362583692557	0.11668791208558105
348.0	174.0237543206481	car	0.0		46.0	object	car-131.jpg	0.0	266.29031374901115	0.3833025795447611
348.0	174.29883777545228	pulse	0.0	t		object	car-131.jpg	0.0	266.56539720381534	
348.0	174.40705690019286	ISI	1.0		6.0	object	car-131.jpg	0.0	266.6736163285559	0.11669696767603455
349.0	174.5237538678689	car	0.0		46.0	object	car-108.jpg	0.0	266.79031329623194	0.3833255203717272
349.0	174.90707938824062	ISI	1.0		6.0	object	car-108.jpg	0.0	267.17363881660367	0.1250262989415205
349.0	174.99895649423115	pulse	1.0	t		object	car-108.jpg	0.0	267.2655159225942	
350.0	175.03210568718214	car	0.0		45.0	object	car-56.jpg	0.0	267.2986651155452	0.3749527222762481
350.0	175.4070584094584	ISI	1.0		7.0	object	car-56.jpg	0.0	267.67361783782144	0.11670451400004822
351.0	175.52376292345843	car	0.0		46.0	object	car-50.jpg	0.0	267.7903223518215	0.383281751688628
351.0	175.69883765471104	pulse	0.0	t		object	car-50.jpg	0.0	267.9653970830741	
351.0	175.90704467514706	ISI	1.0		7.0	object	car-50.jpg	0.0	268.1736041035101	0.11669455285209551
352.0	176.02373922799916	car	0.0		46.0	object	car-138.jpg	0.0	268.2902986563622	0.38329563692605007
352.0	176.39881601185198	pulse	0.0	t		object	car-138.jpg	0.0	268.66537544021503	
352.0	176.4070348649252	ISI	1.0		7.0	object	car-138.jpg	0.0	268.67359429328826	0.11671870109057636
353.0	176.52375356601578	car	0.0		46.0	object	car-138.jpg	1.0	268.79031299437884	0.3832669608927972
353.0	176.90702052690858	ISI	1.0		5.0	object	car-138.jpg	1.0	269.17357995527163	0.11668489355633938
354.0	177.02370542046492	car	0.0		46.0	object	car-23.jpg	0.0	269.290264848828	0.38329835360309517
354.0	177.0988067449657	pulse	0.0	t		object	car-23.jpg	0.0	269.36536617332877	
354.0	177.24045155999147	response	0.0	b		object	car-23.jpg	0.0	269.5070109883545	
354.0	177.40700377406802	ISI	1.0		6.0	object	car-23.jpg	0.0	269.67356320243107	0.11670209917610919
355.0	177.52370587324413	car	0.0		46.0	object	car-90.jpg	0.0	269.7902653016072	0.38325307565537514
355.0	177.7987506908662	pulse	0.0	t		object	car-90.jpg	0.0	270.06531011922925	
355.0	177.9069589488995	ISI	1.0		6.0	object	car-90.jpg	0.0	270.17351837726255	0.11669726952823112
356.0	178.02365621842773	car	0.0		46.0	object	car-83.jpg	0.0	270.2902156467908	0.3832895998666572
356.0	178.4069458182944	ISI	1.0		7.0	object	car-83.jpg	0.0	270.67350524665744	0.11669817508754932
356.0	178.49873810359668	pulse	1.0	t		object	car-83.jpg	0.0	270.76529753195973	
357.0	178.52364399338194	car	0.0		46.0	object	car-110.jpg	0.0	270.790203421745	0.38330016472173156
357.0	178.90694415810367	ISI	1.0		4.0	object	car-110.jpg	0.0	271.1735035864667	0.11668640282096021
358.0	179.02363056092463	car	0.0		46.0	object	car-37.jpg	0.0	271.2901899892877	0.3832923165437023
358.0	179.19870649958875	pulse	0.0	t		object	car-37.jpg	0.0	271.4652659279518	
358.0	179.40692287746833	ISI	1.0		6.0	object	car-37.jpg	0.0	271.6734823058314	0.11669606211580685
359.0	179.52361893958414	car	0.0		46.0	object	car-68.jpg	0.0	271.7901783679472	0.38330288139877666
359.0	179.8986917993484	pulse	0.0	t		object	car-68.jpg	0.0	272.16525122771145	
359.0	179.90692182098292	ISI	1.0		6.0	object	car-68.jpg	0.0	272.17348124934597	0.11668610096785414
360.0	180.02360792195077	house	0.0		46.0	place	house-78.jpg	0.0	272.2901673503138	0.3832980517499891
360.0	180.40690597370076	ISI	1.0		7.0	place	house-78.jpg	0.0	272.6734654020638	0.11668368614391511
361.0	180.52358965984467	house	0.0		46.0	place	house-137.jpg	0.0	272.7901490882077	0.38329020357286936
361.0	180.5986855509923	pulse	0.0	t		place	house-137.jpg	0.0	272.86524497935534	
361.0	180.90687986341754	ISI	1.0		2.0	place	house-137.jpg	0.0	273.1734392917806	0.11669726952823112
362.0	181.02357713294577	house	0.0		46.0	place	house-33.jpg	0.0	273.2901365613088	0.3832905054259754
362.0	181.29865153216042	pulse	0.0	t		place	house-33.jpg	0.0	273.5652109605235	
362.0	181.40686763837175	ISI	1.0		7.0	place	house-33.jpg	0.0	273.6734270667348	0.11669576026361028
363.0	181.52356339863536	house	0.0		46.0	place	house-79.jpg	0.0	273.7901228269984	0.38330046657392813
363.0	181.9068638652093	ISI	1.0		6.0	place	house-79.jpg	0.0	274.17342329357234	0.11668519540944544
363.0	181.99863653006696	pulse	1.0	t		place	house-79.jpg	0.0	274.26519595843	
364.0	182.02354906061873	house	0.0		46.0	place	house-91.jpg	0.0	274.2901084889818	0.3833016739854429
364.0	182.40685073460418	ISI	1.0		7.0	place	house-91.jpg	0.0	274.67341016296723	0.11668459170323331
365.0	182.5235353263074	house	0.0		46.0	place	house-67.jpg	0.0	274.79009475467046	0.3832935239561266
365.0	182.69861307609017	pulse	0.0	t		place	house-67.jpg	0.0	274.9651725044532	
365.0	182.90682885026354	ISI	1.0		6.0	place	house-67.jpg	0.0	275.1733882786266	0.11669243988035305
366.0	183.0235212901439	house	0.0		46.0	place	house-37.jpg	0.0	275.29008071850694	0.3832917128374902
366.0	183.39859596102588	pulse	0.0	t		place	house-37.jpg	0.0	275.66515538938893	
366.0	183.40681300298138	ISI	1.0		7.0	place	house-37.jpg	0.0	275.67337243134443	0.11669757138133718
367.0	183.52351057436272	house	0.0		46.0	place	house-37.jpg	1.0	275.79007000272577	0.38331948331233434
367.0	183.90683005767505	ISI	1.0		6.0	place	house-37.jpg	1.0	276.1733894860381	0.11668640282096021
367.0	183.94827779288744	response	1.0	b		place	house-37.jpg	1.0	276.2148372212505	
368.0	184.023516460496	house	0.0		46.0	place	house-56.jpg	0.0	276.29007588885906	0.38330107028014027
368.0	184.09862502946862	pulse	0.0	t		place	house-56.jpg	0.0	276.3651844578317	
368.0	184.40681753077615	ISI	1.0		6.0	place	house-56.jpg	0.0	276.6733769591392	0.11668549726255151
369.0	184.5235030280387	house	0.0		46.0	place	house-68.jpg	0.0	276.79006245640176	0.38330197583854897
369.0	184.79860187734494	pulse	0.0	t		place	house-68.jpg	0.0	277.065161305708	
369.0	184.90680500387725	ISI	1.0		6.0	place	house-68.jpg	0.0	277.1733644322403	0.11668670467406628
370.0	185.02349170855132	house	0.0		46.0	place	house-20.jpg	0.0	277.29005113691437	0.38330046657392813
370.0	185.40679217512525	ISI	1.0		5.0	place	house-20.jpg	0.0	277.6733516034883	0.12503143044250464
370.0	185.4986013641942	pulse	1.0	t		place	house-20.jpg	0.0	277.76516079255725	
371.0	185.53182360556775	house	0.0		45.0	place	house-5.jpg	0.0	277.7983830339308	0.3749563445117019
371.0	185.90677995007945	ISI	1.0		6.0	place	house-5.jpg	0.0	278.1733393784425	0.11669757138133718
372.0	186.0234775214608	adult	0.0		46.0	face	adult-67.jpg	0.0	278.29003694982384	0.3832880906020364
372.0	186.19855074344878	pulse	0.0	t		face	adult-67.jpg	0.0	278.46511017181183	
372.0	186.40676561206283	ISI	1.0		6.0	face	adult-67.jpg	0.0	278.6733250404259	0.11670119361770048
373.0	186.52346680568053	adult	0.0		46.0	face	adult-112.jpg	0.0	278.7900262340436	0.3832862794834
373.0	186.8985463062104	pulse	0.0	t		face	adult-112.jpg	0.0	279.16510573457344	
373.0	186.90675308516393	ISI	1.0		7.0	face	adult-112.jpg	0.0	279.173312513527	0.11669817508754932
374.0	187.02345126025148	adult	0.0		46.0	face	adult-73.jpg	0.0	279.29001068861453	0.383254584919996
374.0	187.40670584517147	ISI	1.0		3.0	face	adult-73.jpg	0.0	279.6732652735345	0.11669757138133718
375.0	187.5234034165528	adult	0.0		46.0	face	adult-92.jpg	0.0	279.78996284491586	0.38329563692695956
375.0	187.59848632802232	pulse	0.0	t		face	adult-92.jpg	0.0	279.86504575638537	
375.0	187.90669905347977	ISI	1.0		7.0	face	adult-92.jpg	0.0	280.1732584818428	0.11669002505641402
376.0	188.02338907853618	adult	0.0		46.0	face	adult-119.jpg	0.0	280.28994850689924	0.38328929801355116
376.0	188.29846498701545	pulse	0.0	t		face	adult-119.jpg	0.0	280.5650244153785	
376.0	188.40667837654973	ISI	1.0		7.0	face	adult-119.jpg	0.0	280.6732378049128	0.11669757138224668
377.0	188.52337594793198	adult	0.0		46.0	face	adult-119.jpg	1.0	280.78993537629503	0.38329020357195986
377.0	188.90666615150394	ISI	1.0		5.0	face	adult-119.jpg	1.0	281.173225579867	0.11669666582292848
377.0	188.98178528533072	response	1.0	b		face	adult-119.jpg	1.0	281.24834471369377	
377.0	188.99843972192093	pulse	1.0	t		face	adult-119.jpg	1.0	281.264999150284	
378.0	189.02336281732687	adult	0.0		46.0	face	adult-26.jpg	0.0	281.2899222456899	0.38329020357286936
378.0	189.40665302089974	ISI	1.0		7.0	face	adult-26.jpg	0.0	281.6732124492628	0.11669757138133718
379.0	189.52335059228108	adult	0.0		46.0	face	adult-32.jpg	0.0	281.78991002064413	0.38328839245423296
379.0	189.69842954947535	pulse	0.0	t		face	adult-32.jpg	0.0	281.9649889778384	
379.0	189.9066389847353	ISI	1.0		6.0	face	adult-32.jpg	0.0	282.17319841309836	0.11669636396982241
380.0	190.02333534870513	adult	0.0		46.0	face	adult-10.jpg	0.0	282.2898947770682	0.38329141098438413
380.0	190.39840669920477	pulse	0.0	t		face	adult-10.jpg	0.0	282.6649661275678	
380.0	190.40662675968952	ISI	1.0		6.0	face	adult-10.jpg	0.0	282.67318618805257	0.11668247873240034
381.0	190.52330923842192	adult	0.0		46.0	face	adult-127.jpg	0.0	282.78986866678497	0.38331314439983544
381.0	190.90662238282175	ISI	1.0		7.0	face	adult-127.jpg	0.0	283.1731818111848	0.11667312128975027
382.0	191.0232955041115	adult	0.0		46.0	face	adult-128.jpg	0.0	283.28985493247455	0.38330922031036607
382.0	191.09838777302275	pulse	0.0	t		face	adult-128.jpg	0.0	283.3649472013858	
382.0	191.39837349537584	response	0.0	b		face	adult-128.jpg	0.0	283.6649329237389	
382.0	191.40660472442187	ISI	1.0		7.0	face	adult-128.jpg	0.0	283.6731641527849	0.11669304358656518
383.0	191.52329776800843	adult	0.0		46.0	face	adult-33.jpg	0.0	283.7898571963715	0.3832886943082485
383.0	191.79836371533975	pulse	0.0	t		face	adult-33.jpg	0.0	284.0649231437028	
383.0	191.90658646231668	ISI	1.0		7.0	face	adult-33.jpg	0.0	284.17314589067973	0.11669576026270079
384.0	192.02328222257938	car	0.0		46.0	object	car-74.jpg	0.0	284.28984165094244	0.38328929801446066
384.0	192.40657152059384	ISI	1.0		7.0	object	car-74.jpg	0.0	284.6731309489569	0.11670028805838228
