trial_nr	onset	event_type	phase	response	nr_frames	face_age	face_sex	face_eth	attractiveness	expression	face_id	sub_id	ses	run	trial_type	catch	rating_type	onset_abs	duration
-1.0	0.0571629518744885	fix	0.0		714													23.54149923933437	5.966211272367218
-1.0	0.7069758035322593	pulse	0.0	t														24.19131209099214	
-1.0	1.4069519572112767	pulse	0.0	t														24.89128824467116	
-1.0	2.10693656274816	pulse	0.0	t														25.591272850208043	
-1.0	2.806907584941655	pulse	0.0	t														26.291243872401537	
-1.0	3.5068695515692525	pulse	0.0	t														26.991205839029135	
-1.0	4.206862307117262	pulse	0.0	t														27.691198594577145	
-1.0	4.906859288596024	pulse	0.0	t														28.391195576055907	
-1.0	5.606841479318973	pulse	0.0	t														29.091177766778856	
0.0	6.0233742242417065	face	0.0		144	25.0	female	west_asian	2.6756864305610826	smiling	064	sub-10	1.0	4.0	064_smiling	1.0	attractiveness	29.50771051170159	1.233290973410476
0.0	6.3068106903956505	pulse	0.0	t		25.0	female	west_asian	2.6756864305610826	smiling	064	sub-10	1.0	4.0	064_smiling	1.0	attractiveness	29.791146977855533	
0.0	7.006779901475966	pulse	0.0	t		25.0	female	west_asian	2.6756864305610826	smiling	064	sub-10	1.0	4.0	064_smiling	1.0	attractiveness	30.491116188935848	
0.0	7.2566651976521825	fix	1.0		177	25.0	female	west_asian	2.6756864305610826	smiling	064	sub-10	1.0	4.0	064_smiling	1.0	attractiveness	30.741001485112065	1.5083099901021342
0.0	7.706770845910796	pulse	1.0	t		25.0	female	west_asian	2.6756864305610826	smiling	064	sub-10	1.0	4.0	064_smiling	1.0	attractiveness	31.19110713337068	
0.0	8.406754545892909	pulse	1.0	t		25.0	female	west_asian	2.6756864305610826	smiling	064	sub-10	1.0	4.0	064_smiling	1.0	attractiveness	31.89109083335279	
0.0	8.764975187754317	rating	2.0		293	25.0	female	west_asian	2.6756864305610826	smiling	064	sub-10	1.0	4.0	064_smiling	1.0	attractiveness	32.2493114752142	2.4915740986689343
0.0	9.101563594213076	pulse	2.0	t		25.0	female	west_asian	2.6756864305610826	smiling	064	sub-10	1.0	4.0	064_smiling	1.0	attractiveness	32.58589988167296	
0.0	9.801449192244036	pulse	2.0	t		25.0	female	west_asian	2.6756864305610826	smiling	064	sub-10	1.0	4.0	064_smiling	1.0	attractiveness	33.28578547970392	
0.0	10.426404819976597	response	2.0	y		25.0	female	west_asian	2.6756864305610826	smiling	064	sub-10	1.0	4.0	064_smiling	1.0	attractiveness	33.91074110743648	
0.0	10.50139365144787	pulse	2.0	t		25.0	female	west_asian	2.6756864305610826	smiling	064	sub-10	1.0	4.0	064_smiling	1.0	attractiveness	33.98572993890775	
0.0	11.206651312455506	pulse	2.0	t		25.0	female	west_asian	2.6756864305610826	smiling	064	sub-10	1.0	4.0	064_smiling	1.0	attractiveness	34.69098759991539	
0.0	11.256549286423251	fix	3.0		444	25.0	female	west_asian	2.6756864305610826	smiling	064	sub-10	1.0	4.0	064_smiling	1.0	attractiveness	34.74088557388313	3.7582025307274307
0.0	11.906641653185943	pulse	3.0	t		25.0	female	west_asian	2.6756864305610826	smiling	064	sub-10	1.0	4.0	064_smiling	1.0	attractiveness	35.390977940645826	
0.0	12.606639238369098	pulse	3.0	t		25.0	female	west_asian	2.6756864305610826	smiling	064	sub-10	1.0	4.0	064_smiling	1.0	attractiveness	36.09097552582898	
0.0	13.306598790179123	pulse	3.0	t		25.0	female	west_asian	2.6756864305610826	smiling	064	sub-10	1.0	4.0	064_smiling	1.0	attractiveness	36.790935077639006	
0.0	14.006574038299732	pulse	3.0	t		25.0	female	west_asian	2.6756864305610826	smiling	064	sub-10	1.0	4.0	064_smiling	1.0	attractiveness	37.490910325759614	
0.0	14.706560153099417	pulse	3.0	t		25.0	female	west_asian	2.6756864305610826	smiling	064	sub-10	1.0	4.0	064_smiling	1.0	attractiveness	38.1908964405593	
1.0	15.014751817150682	face	0.0		146	19.0	male	white	3.2522881018702745	neutral	018	sub-10	1.0	4.0	018_neutral	0.0		38.499088104610564	1.2416474487472442
1.0	15.406536004928057	pulse	0.0	t		19.0	male	white	3.2522881018702745	neutral	018	sub-10	1.0	4.0	018_neutral	0.0		38.89087229238794	
1.0	16.106515478979418	pulse	0.0	t		19.0	male	white	3.2522881018702745	neutral	018	sub-10	1.0	4.0	018_neutral	0.0		39.5908517664393	
1.0	16.256399265897926	fix	1.0		445	19.0	male	white	3.2522881018702745	neutral	018	sub-10	1.0	4.0	018_neutral	0.0		39.74073555335781	3.7582197363008163
1.0	16.806497669702367	pulse	1.0	t		19.0	male	white	3.2522881018702745	neutral	018	sub-10	1.0	4.0	018_neutral	0.0		40.29083395716225	
1.0	17.50646446596511	pulse	1.0	t		19.0	male	white	3.2522881018702745	neutral	018	sub-10	1.0	4.0	018_neutral	0.0		40.99080075342499	
1.0	18.206449071501993	pulse	1.0	t		19.0	male	white	3.2522881018702745	neutral	018	sub-10	1.0	4.0	018_neutral	0.0		41.690785358961875	
1.0	18.90642884740737	pulse	1.0	t		19.0	male	white	3.2522881018702745	neutral	018	sub-10	1.0	4.0	018_neutral	0.0		42.39076513486725	
1.0	19.606419188137806	pulse	1.0	t		19.0	male	white	3.2522881018702745	neutral	018	sub-10	1.0	4.0	018_neutral	0.0		43.09075547559769	
2.0	20.014619002198742	face	0.0		146	22.0	male	black	2.767608436132113	neutral	044	sub-10	1.0	4.0	044_neutral	0.0		43.498955289658625	1.2416308468746138
2.0	20.306400473305985	pulse	0.0	t		22.0	male	black	2.767608436132113	neutral	044	sub-10	1.0	4.0	044_neutral	0.0		43.79073676076587	
2.0	21.00637783439379	pulse	0.0	t		22.0	male	black	2.767608436132113	neutral	044	sub-10	1.0	4.0	044_neutral	0.0		44.49071412185367	
2.0	21.256249849073356	fix	1.0		444	22.0	male	black	2.767608436132113	neutral	044	sub-10	1.0	4.0	044_neutral	0.0		44.74058613653324	3.758218528895668
2.0	21.706350667696825	pulse	1.0	t		22.0	male	black	2.767608436132113	neutral	044	sub-10	1.0	4.0	044_neutral	0.0		45.19068695515671	
2.0	22.406318369514338	pulse	1.0	t		22.0	male	black	2.767608436132113	neutral	044	sub-10	1.0	4.0	044_neutral	0.0		45.89065465697422	
2.0	23.1062993528285	pulse	1.0	t		22.0	male	black	2.767608436132113	neutral	044	sub-10	1.0	4.0	044_neutral	0.0		46.59063564028838	
2.0	23.806278525029484	pulse	1.0	t		22.0	male	black	2.767608436132113	neutral	044	sub-10	1.0	4.0	044_neutral	0.0		47.290614812489366	
2.0	24.50626977131833	pulse	1.0	t		22.0	male	black	2.767608436132113	neutral	044	sub-10	1.0	4.0	044_neutral	0.0		47.99060605877821	
3.0	25.014468377969024	face	0.0		146	28.0	female	white	5.676880222841227	smiling	124	sub-10	1.0	4.0	124_smiling	0.0		48.498804665428906	1.241629941319843
3.0	25.206258300935588	pulse	0.0	t		28.0	female	white	5.676880222841227	smiling	124	sub-10	1.0	4.0	124_smiling	0.0		48.69059458839547	
3.0	25.90623234164741	pulse	0.0	t		28.0	female	white	5.676880222841227	smiling	124	sub-10	1.0	4.0	124_smiling	0.0		49.39056862910729	
3.0	26.256098319288867	fix	1.0		444	28.0	female	white	5.676880222841227	smiling	124	sub-10	1.0	4.0	124_smiling	0.0		49.74043460674875	3.758205247395381
3.0	26.606197326796973	pulse	1.0	t		28.0	female	white	5.676880222841227	smiling	124	sub-10	1.0	4.0	124_smiling	0.0		50.090533614256856	
3.0	27.306168047136453	pulse	1.0	t		28.0	female	white	5.676880222841227	smiling	124	sub-10	1.0	4.0	124_smiling	0.0		50.790504334596335	
3.0	28.006154161939776	pulse	1.0	t		28.0	female	white	5.676880222841227	smiling	124	sub-10	1.0	4.0	124_smiling	0.0		51.49049044939966	
3.0	28.706138163772266	pulse	1.0	t		28.0	female	white	5.676880222841227	smiling	124	sub-10	1.0	4.0	124_smiling	0.0		52.19047445123215	
3.0	29.406123976721574	pulse	1.0	t		28.0	female	white	5.676880222841227	smiling	124	sub-10	1.0	4.0	124_smiling	0.0		52.890460264181456	
4.0	30.014303566684248	face	0.0		146	19.0	male	white	2.243931555909272	smiling	130	sub-10	1.0	4.0	130_smiling	0.0		53.49863985414413	1.2416492598604236
4.0	30.106100734104984	pulse	0.0	t		19.0	male	white	2.243931555909272	smiling	130	sub-10	1.0	4.0	130_smiling	0.0		53.59043702156487	
4.0	30.806075076670822	pulse	0.0	t		19.0	male	white	2.243931555909272	smiling	130	sub-10	1.0	4.0	130_smiling	0.0		54.290411364130705	
4.0	31.25595282654467	fix	1.0		444	19.0	male	white	2.243931555909272	smiling	130	sub-10	1.0	4.0	130_smiling	0.0		54.740289114004554	3.76653425418408
4.0	31.50607326555837	pulse	1.0	t		19.0	male	white	2.243931555909272	smiling	130	sub-10	1.0	4.0	130_smiling	0.0		54.99040955301825	
4.0	32.206031006255216	pulse	1.0	t		19.0	male	white	2.243931555909272	smiling	130	sub-10	1.0	4.0	130_smiling	0.0		55.6903672937151	
4.0	32.90601108401097	pulse	1.0	t		19.0	male	white	2.243931555909272	smiling	130	sub-10	1.0	4.0	130_smiling	0.0		56.39034737147085	
4.0	33.60598512472643	pulse	1.0	t		19.0	male	white	2.243931555909272	smiling	130	sub-10	1.0	4.0	130_smiling	0.0		57.09032141218631	
4.0	34.305959769142646	pulse	1.0	t		19.0	male	white	2.243931555909272	smiling	130	sub-10	1.0	4.0	130_smiling	0.0		57.79029605660253	
5.0	35.02248708072875	face	0.0		146	47.0	male	east_asian	2.171110226820533	neutral	024	sub-10	1.0	4.0	024_neutral	1.0	trustworthiness	58.506823368188634	1.2333154234365793
5.0	35.00871205718431	pulse	0.0	t		47.0	male	east_asian	2.171110226820533	neutral	024	sub-10	1.0	4.0	024_neutral	1.0	trustworthiness	58.493048344644194	
5.0	35.70592807466528	pulse	0.0	t		47.0	male	east_asian	2.171110226820533	neutral	024	sub-10	1.0	4.0	024_neutral	1.0	trustworthiness	59.19026436212516	
5.0	36.25580250416533	fix	1.0		177	47.0	male	east_asian	2.171110226820533	neutral	024	sub-10	1.0	4.0	024_neutral	1.0	trustworthiness	59.74013879162521	1.4999595518092974
5.0	36.405915095023374	pulse	1.0	t		47.0	male	east_asian	2.171110226820533	neutral	024	sub-10	1.0	4.0	024_neutral	1.0	trustworthiness	59.89025138248326	
5.0	37.105888230180426	pulse	1.0	t		47.0	male	east_asian	2.171110226820533	neutral	024	sub-10	1.0	4.0	024_neutral	1.0	trustworthiness	60.59022451764031	
5.0	37.75576205597463	rating	2.0		294	47.0	male	east_asian	2.171110226820533	neutral	024	sub-10	1.0	4.0	024_neutral	1.0	trustworthiness	61.24009834343451	2.4999375166044047
5.0	37.80070391924892	pulse	2.0	t		47.0	male	east_asian	2.171110226820533	neutral	024	sub-10	1.0	4.0	024_neutral	1.0	trustworthiness	61.2850402067088	
5.0	38.500683695154294	pulse	2.0	t		47.0	male	east_asian	2.171110226820533	neutral	024	sub-10	1.0	4.0	024_neutral	1.0	trustworthiness	61.985019982614176	
5.0	39.080845367174334	response	2.0	e		47.0	male	east_asian	2.171110226820533	neutral	024	sub-10	1.0	4.0	024_neutral	1.0	trustworthiness	62.565181654634216	
5.0	39.20053669315166	pulse	2.0	t		47.0	male	east_asian	2.171110226820533	neutral	024	sub-10	1.0	4.0	024_neutral	1.0	trustworthiness	62.684872980611544	
5.0	39.90581759677298	pulse	2.0	t		47.0	male	east_asian	2.171110226820533	neutral	024	sub-10	1.0	4.0	024_neutral	1.0	trustworthiness	63.39015388423286	
5.0	40.25569957257903	fix	3.0		444	47.0	male	east_asian	2.171110226820533	neutral	024	sub-10	1.0	4.0	024_neutral	1.0	trustworthiness	63.740035860038915	3.7665206708370533
5.0	40.60580129675873	pulse	3.0	t		47.0	male	east_asian	2.171110226820533	neutral	024	sub-10	1.0	4.0	024_neutral	1.0	trustworthiness	64.09013758421861	
5.0	41.3057551133752	pulse	3.0	t		47.0	male	east_asian	2.171110226820533	neutral	024	sub-10	1.0	4.0	024_neutral	1.0	trustworthiness	64.79009140083508	
5.0	42.005745454105636	pulse	3.0	t		47.0	male	east_asian	2.171110226820533	neutral	024	sub-10	1.0	4.0	024_neutral	1.0	trustworthiness	65.49008174156552	
5.0	42.70573398372653	pulse	3.0	t		47.0	male	east_asian	2.171110226820533	neutral	024	sub-10	1.0	4.0	024_neutral	1.0	trustworthiness	66.19007027118641	
5.0	43.40569776146367	pulse	3.0	t		47.0	male	east_asian	2.171110226820533	neutral	024	sub-10	1.0	4.0	024_neutral	1.0	trustworthiness	66.89003404892355	
6.0	44.022220243416086	face	0.0		145	24.0	female	east_asian	2.9076800636689217	smiling	034	sub-10	1.0	4.0	034_smiling	0.0		67.50655653087597	1.2333175364001363
6.0	44.105683876266994	pulse	0.0	t		24.0	female	east_asian	2.9076800636689217	smiling	034	sub-10	1.0	4.0	034_smiling	0.0		67.59002016372688	
6.0	44.805660633650405	pulse	0.0	t		24.0	female	east_asian	2.9076800636689217	smiling	034	sub-10	1.0	4.0	034_smiling	0.0		68.28999692111029	
6.0	45.25553777981622	fix	1.0		444	24.0	female	east_asian	2.9076800636689217	smiling	034	sub-10	1.0	4.0	034_smiling	0.0		68.7398740672761	3.7665324430709006
6.0	45.505655200311594	pulse	1.0	t		24.0	female	east_asian	2.9076800636689217	smiling	034	sub-10	1.0	4.0	034_smiling	0.0		68.98999148777148	
6.0	46.205626826205844	pulse	1.0	t		24.0	female	east_asian	2.9076800636689217	smiling	034	sub-10	1.0	4.0	034_smiling	0.0		69.68996311366573	
6.0	46.90559603728616	pulse	1.0	t		24.0	female	east_asian	2.9076800636689217	smiling	034	sub-10	1.0	4.0	034_smiling	0.0		70.38993232474604	
6.0	47.60557309651995	pulse	1.0	t		24.0	female	east_asian	2.9076800636689217	smiling	034	sub-10	1.0	4.0	034_smiling	0.0		71.08990938397983	
6.0	48.30554592982662	pulse	1.0	t		24.0	female	east_asian	2.9076800636689217	smiling	034	sub-10	1.0	4.0	034_smiling	0.0		71.7898822172865	
7.0	49.02207022288712	face	0.0		146	27.0	female	white	4.181058495821727	neutral	039	sub-10	1.0	4.0	039_neutral	0.0		72.506406510347	1.2333314216048166
7.0	49.008364021636226	pulse	0.0	t		27.0	female	white	4.181058495821727	neutral	039	sub-10	1.0	4.0	039_neutral	0.0		72.49270030909611	
7.0	49.70553174277302	pulse	0.0	t		27.0	female	white	4.181058495821727	neutral	039	sub-10	1.0	4.0	039_neutral	0.0		73.1898680302329	
7.0	50.25540164449194	fix	1.0		443	27.0	female	white	4.181058495821727	neutral	039	sub-10	1.0	4.0	039_neutral	0.0		73.73973793195182	3.766539083819225
7.0	50.405507896452036	pulse	1.0	t		27.0	female	white	4.181058495821727	neutral	039	sub-10	1.0	4.0	039_neutral	0.0		73.88984418391192	
7.0	51.10547167419281	pulse	1.0	t		27.0	female	white	4.181058495821727	neutral	039	sub-10	1.0	4.0	039_neutral	0.0		74.5898079616527	
7.0	51.805453563065385	pulse	1.0	t		27.0	female	white	4.181058495821727	neutral	039	sub-10	1.0	4.0	039_neutral	0.0		75.28978985052527	
7.0	52.50544179082863	pulse	1.0	t		27.0	female	white	4.181058495821727	neutral	039	sub-10	1.0	4.0	039_neutral	0.0		75.98977807828851	
7.0	53.2054236797012	pulse	1.0	t		27.0	female	white	4.181058495821727	neutral	039	sub-10	1.0	4.0	039_neutral	0.0		76.68975996716108	
7.0	53.90539319263189	pulse	1.0	t		27.0	female	white	4.181058495821727	neutral	039	sub-10	1.0	4.0	039_neutral	0.0		77.38972948009177	
8.0	54.021940728311165	face	0.0		146	32.0	male	white	2.389176283326701	neutral	092	sub-10	1.0	4.0	092_neutral	0.0		77.50627701577105	1.2333108956554497
8.0	54.60538172224915	pulse	0.0	t		32.0	male	white	2.389176283326701	neutral	092	sub-10	1.0	4.0	092_neutral	0.0		78.08971800970903	
8.0	55.255251623966615	fix	1.0		443	32.0	male	white	2.389176283326701	neutral	092	sub-10	1.0	4.0	092_neutral	0.0		78.7395879114265	3.7665233875050035
8.0	55.30536300741369	pulse	1.0	t		32.0	male	white	2.389176283326701	neutral	092	sub-10	1.0	4.0	092_neutral	0.0		78.78969929487357	
8.0	56.00533161478961	pulse	1.0	t		32.0	male	white	2.389176283326701	neutral	092	sub-10	1.0	4.0	092_neutral	0.0		79.4896679022495	
8.0	56.70530625920583	pulse	1.0	t		32.0	male	white	2.389176283326701	neutral	092	sub-10	1.0	4.0	092_neutral	0.0		80.18964254666571	
8.0	57.40527033880062	pulse	1.0	t		32.0	male	white	2.389176283326701	neutral	092	sub-10	1.0	4.0	092_neutral	0.0		80.8896066262605	
8.0	58.10526128323545	pulse	1.0	t		32.0	male	white	2.389176283326701	neutral	092	sub-10	1.0	4.0	092_neutral	0.0		81.58959757069533	
8.0	58.805242870254006	pulse	1.0	t		32.0	male	white	2.389176283326701	neutral	092	sub-10	1.0	4.0	092_neutral	0.0		82.28957915771389	
9.0	59.02177501147162	face	0.0		145	30.0	female	black	2.7345801830481498	neutral	062	sub-10	1.0	4.0	062_neutral	0.0		82.5061112989315	1.2333154234365793
9.0	59.50523954987875	pulse	0.0	t		30.0	female	black	2.7345801830481498	neutral	062	sub-10	1.0	4.0	062_neutral	0.0		82.98957583733863	
9.0	60.20520242206112	pulse	0.0	t		30.0	female	black	2.7345801830481498	neutral	062	sub-10	1.0	4.0	062_neutral	0.0		83.689538709521	
9.0	60.2550904349082	fix	1.0		445	30.0	female	black	2.7345801830481498	neutral	062	sub-10	1.0	4.0	062_neutral	0.0		83.73942672236808	3.7665381782644545
9.0	60.905183103524905	pulse	1.0	t		30.0	female	black	2.7345801830481498	neutral	062	sub-10	1.0	4.0	062_neutral	0.0		84.38951939098479	
9.0	61.60519064982873	pulse	1.0	t		30.0	female	black	2.7345801830481498	neutral	062	sub-10	1.0	4.0	062_neutral	0.0		85.08952693728861	
9.0	62.305135109028924	pulse	1.0	t		30.0	female	black	2.7345801830481498	neutral	062	sub-10	1.0	4.0	062_neutral	0.0		85.7894713964888	
9.0	63.00512997754413	pulse	1.0	t		30.0	female	black	2.7345801830481498	neutral	062	sub-10	1.0	4.0	062_neutral	0.0		86.48946626500401	
9.0	63.70509707565725	pulse	1.0	t		30.0	female	black	2.7345801830481498	neutral	062	sub-10	1.0	4.0	062_neutral	0.0		87.18943336311713	
10.0	64.02162861317265	face	0.0		145	26.0	male	white	2.7966573816155993	neutral	117	sub-10	1.0	4.0	117_neutral	0.0		87.50596490063253	1.2333296104879992
10.0	64.40509677380396	pulse	0.0	t		26.0	male	white	2.7966573816155993	neutral	117	sub-10	1.0	4.0	117_neutral	0.0		87.88943306126384	
10.0	65.10507081451942	pulse	0.0	t		26.0	male	white	2.7966573816155993	neutral	117	sub-10	1.0	4.0	117_neutral	0.0		88.5894071019793	
10.0	65.25495822366065	fix	1.0		445	26.0	male	white	2.7966573816155993	neutral	117	sub-10	1.0	4.0	117_neutral	0.0		88.73929451112053	3.7665197652786446
10.0	65.8050644756222	pulse	1.0	t		26.0	male	white	2.7966573816155993	neutral	117	sub-10	1.0	4.0	117_neutral	0.0		89.28940076308209	
10.0	66.50501497186997	pulse	1.0	t		26.0	male	white	2.7966573816155993	neutral	117	sub-10	1.0	4.0	117_neutral	0.0		89.98935125932985	
10.0	67.205004407042	pulse	1.0	t		26.0	male	white	2.7966573816155993	neutral	117	sub-10	1.0	4.0	117_neutral	0.0		90.68934069450188	
10.0	67.90498780517373	pulse	1.0	t		26.0	male	white	2.7966573816155993	neutral	117	sub-10	1.0	4.0	117_neutral	0.0		91.38932409263361	
10.0	68.60495188476489	pulse	1.0	t		26.0	male	white	2.7966573816155993	neutral	117	sub-10	1.0	4.0	117_neutral	0.0		92.08928817222477	
11.0	69.0214779889393	face	0.0		145	22.0	female	white	4.614007162753682	neutral	009	sub-10	1.0	4.0	009_neutral	0.0		92.50581427639918	1.2333326290136029
11.0	69.30493588660102	pulse	0.0	t		22.0	female	white	4.614007162753682	neutral	009	sub-10	1.0	4.0	009_neutral	0.0		92.7892721740609	
11.0	70.00492381251388	pulse	0.0	t		22.0	female	white	4.614007162753682	neutral	009	sub-10	1.0	4.0	009_neutral	0.0		93.48926009997376	
11.0	70.2548106179529	fix	1.0		445	22.0	female	white	4.614007162753682	neutral	009	sub-10	1.0	4.0	009_neutral	0.0		93.73914690541278	3.7665182560194808
11.0	70.70490449397403	pulse	1.0	t		22.0	female	white	4.614007162753682	neutral	009	sub-10	1.0	4.0	009_neutral	0.0		94.18924078143391	
11.0	71.40487461061275	pulse	1.0	t		22.0	female	white	4.614007162753682	neutral	009	sub-10	1.0	4.0	009_neutral	0.0		94.88921089807263	
11.0	72.10485408466411	pulse	1.0	t		22.0	female	white	4.614007162753682	neutral	009	sub-10	1.0	4.0	009_neutral	0.0		95.589190372124	
11.0	72.80483204945631	pulse	1.0	t		22.0	female	white	4.614007162753682	neutral	009	sub-10	1.0	4.0	009_neutral	0.0		96.28916833691619	
11.0	73.50479914756943	pulse	1.0	t		22.0	female	white	4.614007162753682	neutral	009	sub-10	1.0	4.0	009_neutral	0.0		96.98913543502931	
12.0	74.02132887397238	face	0.0		145	21.0	male	black	2.969757262236371	smiling	137	sub-10	1.0	4.0	137_smiling	0.0		97.50566516143226	1.2333338364187512
12.0	74.20478979015388	pulse	0.0	t		21.0	male	black	2.969757262236371	smiling	137	sub-10	1.0	4.0	137_smiling	0.0		97.68912607761376	
12.0	74.90478103643909	pulse	0.0	t		21.0	male	black	2.969757262236371	smiling	137	sub-10	1.0	4.0	137_smiling	0.0		98.38911732389897	
12.0	75.25466271039113	fix	1.0		444	21.0	male	black	2.969757262236371	smiling	137	sub-10	1.0	4.0	137_smiling	0.0		98.73899899785101	3.766514633793122
12.0	75.60474904011062	pulse	1.0	t		21.0	male	black	2.969757262236371	smiling	137	sub-10	1.0	4.0	137_smiling	0.0		99.0890853275705	
12.0	76.30471583637336	pulse	1.0	t		21.0	male	black	2.969757262236371	smiling	137	sub-10	1.0	4.0	137_smiling	0.0		99.78905212383324	
12.0	77.00471794933765	pulse	1.0	t		21.0	male	black	2.969757262236371	smiling	137	sub-10	1.0	4.0	137_smiling	0.0		100.48905423679753	
12.0	77.70469229190348	pulse	1.0	t		21.0	male	black	2.969757262236371	smiling	137	sub-10	1.0	4.0	137_smiling	0.0		101.18902857936337	
12.0	78.40465606964426	pulse	1.0	t		21.0	male	black	2.969757262236371	smiling	137	sub-10	1.0	4.0	137_smiling	0.0		101.88899235710414	
13.0	79.02117734418425	face	0.0		145	19.0	male	white	2.243931555909272	neutral	130	sub-10	1.0	4.0	130_neutral	0.0		102.50551363164413	1.2333341382727667
13.0	79.10466754002482	pulse	0.0	t		19.0	male	white	2.243931555909272	neutral	130	sub-10	1.0	4.0	130_neutral	0.0		102.5890038274847	
13.0	79.80463192146999	pulse	0.0	t		19.0	male	white	2.243931555909272	neutral	130	sub-10	1.0	4.0	130_neutral	0.0		103.28896820892987	
13.0	80.25451148245702	fix	1.0		444	19.0	male	white	2.243931555909272	neutral	130	sub-10	1.0	4.0	130_neutral	0.0		103.7388477699169	3.7665206708370533
13.0	80.50461381034256	pulse	1.0	t		19.0	male	white	2.243931555909272	neutral	130	sub-10	1.0	4.0	130_neutral	0.0		103.98895009780244	
13.0	81.20458634179522	pulse	1.0	t		19.0	male	white	2.243931555909272	neutral	130	sub-10	1.0	4.0	130_neutral	0.0		104.6889226292551	
13.0	81.90457004177733	pulse	1.0	t		19.0	male	white	2.243931555909272	neutral	130	sub-10	1.0	4.0	130_neutral	0.0		105.38890632923722	
13.0	82.60454619545635	pulse	1.0	t		19.0	male	white	2.243931555909272	neutral	130	sub-10	1.0	4.0	130_neutral	0.0		106.08888248291623	
13.0	83.30458151215862	pulse	1.0	t		19.0	male	white	2.243931555909272	neutral	130	sub-10	1.0	4.0	130_neutral	0.0		106.7889177996185	
14.0	84.02103215329407	face	0.0		146	27.0	male	black	3.5523278949462798	neutral	042	sub-10	1.0	4.0	042_neutral	0.0		107.50536844075395	1.2333160271409724
14.0	84.00732987611991	pulse	0.0	t		27.0	male	black	3.5523278949462798	neutral	042	sub-10	1.0	4.0	042_neutral	0.0		107.4916661635798	
14.0	84.7044891453952	pulse	0.0	t		27.0	male	black	3.5523278949462798	neutral	042	sub-10	1.0	4.0	042_neutral	0.0		108.18882543285508	
14.0	85.25434818043504	fix	1.0		443	27.0	male	black	3.5523278949462798	neutral	042	sub-10	1.0	4.0	042_neutral	0.0		108.73868446789493	3.7665375745600613
14.0	85.40445714906673	pulse	1.0	t		27.0	male	black	3.5523278949462798	neutral	042	sub-10	1.0	4.0	042_neutral	0.0		108.88879343652661	
14.0	86.10442937866901	pulse	1.0	t		27.0	male	black	3.5523278949462798	neutral	042	sub-10	1.0	4.0	042_neutral	0.0		109.5887656661289	
14.0	86.80443752867723	pulse	1.0	t		27.0	male	black	3.5523278949462798	neutral	042	sub-10	1.0	4.0	042_neutral	0.0		110.28877381613711	
14.0	87.5043922508521	pulse	1.0	t		27.0	male	black	3.5523278949462798	neutral	042	sub-10	1.0	4.0	042_neutral	0.0		110.98872853831199	
14.0	88.20437866750581	pulse	1.0	t		27.0	male	black	3.5523278949462798	neutral	042	sub-10	1.0	4.0	042_neutral	0.0		111.68871495496569	
14.0	88.90435542488922	pulse	1.0	t		27.0	male	black	3.5523278949462798	neutral	042	sub-10	1.0	4.0	042_neutral	0.0		112.3886917123491	
15.0	89.0208857549951	face	0.0		146	37.0	male	white	3.898925586947871	neutral	101	sub-10	1.0	4.0	101_neutral	0.0		112.50522204245499	1.2333133104730223
15.0	89.60434878414162	pulse	0.0	t		37.0	male	white	3.898925586947871	neutral	101	sub-10	1.0	4.0	101_neutral	0.0		113.0886850716015	
15.0	90.25419906546813	fix	1.0		443	37.0	male	white	3.898925586947871	neutral	101	sub-10	1.0	4.0	101_neutral	0.0		113.73853535292801	3.766537272702408
15.0	90.30432433411625	pulse	1.0	t		37.0	male	white	3.898925586947871	neutral	101	sub-10	1.0	4.0	101_neutral	0.0		113.78866062157613	
15.0	91.00429143222937	pulse	1.0	t		37.0	male	white	3.898925586947871	neutral	101	sub-10	1.0	4.0	101_neutral	0.0		114.48862771968925	
15.0	91.70426909516755	pulse	1.0	t		37.0	male	white	3.898925586947871	neutral	101	sub-10	1.0	4.0	101_neutral	0.0		115.18860538262743	
15.0	92.40424404143778	pulse	1.0	t		37.0	male	white	3.898925586947871	neutral	101	sub-10	1.0	4.0	101_neutral	0.0		115.88858032889766	
15.0	93.10422351549278	pulse	1.0	t		37.0	male	white	3.898925586947871	neutral	101	sub-10	1.0	4.0	101_neutral	0.0		116.58855980295266	
15.0	93.80420480065732	pulse	1.0	t		37.0	male	white	3.898925586947871	neutral	101	sub-10	1.0	4.0	101_neutral	0.0		117.2885410881172	
16.0	94.02073633817054	face	0.0		145	27.0	female	white	4.181058495821727	smiling	039	sub-10	1.0	4.0	039_smiling	0.0		117.50507262563042	1.2333154234402173
16.0	94.50420178213608	pulse	0.0	t		27.0	female	white	4.181058495821727	smiling	039	sub-10	1.0	4.0	039_smiling	0.0		117.98853806959596	
16.0	95.20416254135489	pulse	0.0	t		27.0	female	white	4.181058495821727	smiling	039	sub-10	1.0	4.0	039_smiling	0.0		118.68849882881477	
16.0	95.25405176161075	fix	1.0		444	27.0	female	white	4.181058495821727	smiling	039	sub-10	1.0	4.0	039_smiling	0.0		118.73838804907064	3.766538480114832
16.0	95.90414593948663	pulse	1.0	t		27.0	female	white	4.181058495821727	smiling	039	sub-10	1.0	4.0	039_smiling	0.0		119.38848222694651	
16.0	96.60415469319923	pulse	1.0	t		27.0	female	white	4.181058495821727	smiling	039	sub-10	1.0	4.0	039_smiling	0.0		120.08849098065912	
16.0	97.30410247277541	pulse	1.0	t		27.0	female	white	4.181058495821727	smiling	039	sub-10	1.0	4.0	039_smiling	0.0		120.7884387602353	
16.0	98.00407832460041	pulse	1.0	t		27.0	female	white	4.181058495821727	smiling	039	sub-10	1.0	4.0	039_smiling	0.0		121.4884146120603	
16.0	98.70405930791458	pulse	1.0	t		27.0	female	white	4.181058495821727	smiling	039	sub-10	1.0	4.0	039_smiling	0.0		122.18839559537446	
17.0	99.02059024172559	face	0.0		145	27.0	female	white	3.504576203740549	neutral	144	sub-10	1.0	4.0	144_neutral	1.0	trustworthiness	122.50492652918547	1.2333256864112627
17.0	99.40404663012305	pulse	0.0	t		27.0	female	white	3.504576203740549	neutral	144	sub-10	1.0	4.0	144_neutral	1.0	trustworthiness	122.88838291758293	
17.0	100.1040273115832	pulse	0.0	t		27.0	female	white	3.504576203740549	neutral	144	sub-10	1.0	4.0	144_neutral	1.0	trustworthiness	123.58836359904308	
17.0	100.25391592813685	fix	1.0		177	27.0	female	white	3.504576203740549	neutral	144	sub-10	1.0	4.0	144_neutral	1.0	trustworthiness	123.73825221559673	1.4999456666082551
17.0	100.8040040689666	pulse	1.0	t		27.0	female	white	3.504576203740549	neutral	144	sub-10	1.0	4.0	144_neutral	1.0	trustworthiness	124.28834035642649	
17.0	101.50397780782805	pulse	1.0	t		27.0	female	white	3.504576203740549	neutral	144	sub-10	1.0	4.0	144_neutral	1.0	trustworthiness	124.98831409528793	
17.0	101.7538615947451	rating	2.0		295	27.0	female	white	3.504576203740549	neutral	144	sub-10	1.0	4.0	144_neutral	1.0	trustworthiness	125.23819788220499	2.4999227258485917
17.0	102.19866853010171	pulse	2.0	t		27.0	female	white	3.504576203740549	neutral	144	sub-10	1.0	4.0	144_neutral	1.0	trustworthiness	125.6830048175616	
17.0	102.8986386467368	pulse	2.0	t		27.0	female	white	3.504576203740549	neutral	144	sub-10	1.0	4.0	144_neutral	1.0	trustworthiness	126.38297493419668	
17.0	103.0872624423464	response	2.0	b		27.0	female	white	3.504576203740549	neutral	144	sub-10	1.0	4.0	144_neutral	1.0	trustworthiness	126.57159872980628	
17.0	103.60391622998941	pulse	2.0	t		27.0	female	white	3.504576203740549	neutral	144	sub-10	1.0	4.0	144_neutral	1.0	trustworthiness	127.08825251744929	
17.0	104.2537843205937	fix	3.0		443	27.0	female	white	3.504576203740549	neutral	144	sub-10	1.0	4.0	144_neutral	1.0	trustworthiness	127.73812060805358	3.758205851099774
17.0	104.30388906329244	pulse	3.0	t		27.0	female	white	3.504576203740549	neutral	144	sub-10	1.0	4.0	144_neutral	1.0	trustworthiness	127.78822535075233	
17.0	105.00388423365803	pulse	3.0	t		27.0	female	white	3.504576203740549	neutral	144	sub-10	1.0	4.0	144_neutral	1.0	trustworthiness	128.4882205211179	
17.0	105.70386551882257	pulse	3.0	t		27.0	female	white	3.504576203740549	neutral	144	sub-10	1.0	4.0	144_neutral	1.0	trustworthiness	129.18820180628245	
17.0	106.40383231508531	pulse	3.0	t		27.0	female	white	3.504576203740549	neutral	144	sub-10	1.0	4.0	144_neutral	1.0	trustworthiness	129.8881686025452	
17.0	107.10381661877182	pulse	3.0	t		27.0	female	white	3.504576203740549	neutral	144	sub-10	1.0	4.0	144_neutral	1.0	trustworthiness	130.5881529062317	
17.0	107.80378522614774	pulse	3.0	t		27.0	female	white	3.504576203740549	neutral	144	sub-10	1.0	4.0	144_neutral	1.0	trustworthiness	131.28812151360762	
18.0	108.01199017169347	face	0.0		146	31.0	female	west_asian	2.364902506963788	neutral	006	sub-10	1.0	4.0	006_neutral	0.0		131.49632645915335	1.241646241338458
18.0	108.50377043539265	pulse	0.0	t		31.0	female	west_asian	2.364902506963788	neutral	006	sub-10	1.0	4.0	006_neutral	0.0		131.98810672285254	
18.0	109.20374266499493	pulse	0.0	t		31.0	female	west_asian	2.364902506963788	neutral	006	sub-10	1.0	4.0	006_neutral	0.0		132.68807895245482	
18.0	109.25363641303193	fix	1.0		444	31.0	female	west_asian	2.364902506963788	neutral	006	sub-10	1.0	4.0	006_neutral	0.0		132.7379727004918	3.758368549417355
18.0	109.9037450798096	pulse	1.0	t		31.0	female	west_asian	2.364902506963788	neutral	006	sub-10	1.0	4.0	006_neutral	0.0		133.38808136726948	
18.0	110.60371942237543	pulse	1.0	t		31.0	female	west_asian	2.364902506963788	neutral	006	sub-10	1.0	4.0	006_neutral	0.0		134.08805570983532	
18.0	111.30368772790098	pulse	1.0	t		31.0	female	west_asian	2.364902506963788	neutral	006	sub-10	1.0	4.0	006_neutral	0.0		134.78802401536086	
18.0	112.00367505010945	pulse	1.0	t		31.0	female	west_asian	2.364902506963788	neutral	006	sub-10	1.0	4.0	006_neutral	0.0		135.48801133756933	
18.0	112.70364154451818	pulse	1.0	t		31.0	female	west_asian	2.364902506963788	neutral	006	sub-10	1.0	4.0	006_neutral	0.0		136.18797783197806	
19.0	113.01200496244928	face	0.0		146	26.0	female	white	4.854755272582572	smiling	027	sub-10	1.0	4.0	027_smiling	0.0		136.49634124990916	1.2414983337766898
19.0	113.40363912970133	pulse	0.0	t		26.0	female	white	4.854755272582572	smiling	027	sub-10	1.0	4.0	027_smiling	0.0		136.88797541716121	
19.0	114.10360773707725	pulse	0.0	t		26.0	female	white	4.854755272582572	smiling	027	sub-10	1.0	4.0	027_smiling	0.0		137.58794402453714	
19.0	114.25350329622597	fix	1.0		444	26.0	female	white	4.854755272582572	smiling	027	sub-10	1.0	4.0	027_smiling	0.0		137.73783958368585	3.766536367147637
19.0	114.80359777595368	pulse	1.0	t		26.0	female	white	4.854755272582572	smiling	027	sub-10	1.0	4.0	027_smiling	0.0		138.28793406341356	
19.0	115.50355491294613	pulse	1.0	t		26.0	female	white	4.854755272582572	smiling	027	sub-10	1.0	4.0	027_smiling	0.0		138.987891200406	
19.0	116.20354404626778	pulse	1.0	t		26.0	female	white	4.854755272582572	smiling	027	sub-10	1.0	4.0	027_smiling	0.0		139.68788033372766	
19.0	116.90352533143596	pulse	1.0	t		26.0	female	white	4.854755272582572	smiling	027	sub-10	1.0	4.0	027_smiling	0.0		140.38786161889584	
19.0	117.60350903141807	pulse	1.0	t		26.0	female	white	4.854755272582572	smiling	027	sub-10	1.0	4.0	027_smiling	0.0		141.08784531887795	
20.0	118.02003966337361	face	0.0		145	25.0	female	west_asian	2.6756864305610826	neutral	064	sub-10	1.0	4.0	064_neutral	0.0		141.5043759508335	1.2333021419435681
20.0	118.30349393880897	pulse	0.0	t		25.0	female	west_asian	2.6756864305610826	neutral	064	sub-10	1.0	4.0	064_neutral	0.0		141.78783022626885	
20.0	119.00346616841125	pulse	0.0	t		25.0	female	west_asian	2.6756864305610826	neutral	064	sub-10	1.0	4.0	064_neutral	0.0		142.48780245587113	
20.0	119.25334180531718	fix	1.0		1185	25.0	female	west_asian	2.6756864305610826	neutral	064	sub-10	1.0	4.0	064_neutral	0.0		142.73767809277706	10.01634921880759
20.0	119.70344805728018	pulse	1.0	t		25.0	female	west_asian	2.6756864305610826	neutral	064	sub-10	1.0	4.0	064_neutral	0.0		143.18778434474007	
20.0	120.40342270170004	pulse	1.0	t		25.0	female	west_asian	2.6756864305610826	neutral	064	sub-10	1.0	4.0	064_neutral	0.0		143.88775898915992	
20.0	121.10340187389738	pulse	1.0	t		25.0	female	west_asian	2.6756864305610826	neutral	064	sub-10	1.0	4.0	064_neutral	0.0		144.58773816135727	
20.0	121.80337893313481	pulse	1.0	t		25.0	female	west_asian	2.6756864305610826	neutral	064	sub-10	1.0	4.0	064_neutral	0.0		145.2877152205947	
20.0	122.50336142570814	pulse	1.0	t		25.0	female	west_asian	2.6756864305610826	neutral	064	sub-10	1.0	4.0	064_neutral	0.0		145.98769771316802	
20.0	123.20334210717192	pulse	1.0	t		25.0	female	west_asian	2.6756864305610826	neutral	064	sub-10	1.0	4.0	064_neutral	0.0		146.6876783946318	
20.0	123.90331644973776	pulse	1.0	t		25.0	female	west_asian	2.6756864305610826	neutral	064	sub-10	1.0	4.0	064_neutral	0.0		147.38765273719764	
20.0	124.6032901885992	pulse	1.0	t		25.0	female	west_asian	2.6756864305610826	neutral	064	sub-10	1.0	4.0	064_neutral	0.0		148.08762647605909	
20.0	125.30328234044282	pulse	1.0	t		25.0	female	west_asian	2.6756864305610826	neutral	064	sub-10	1.0	4.0	064_neutral	0.0		148.7876186279027	
20.0	126.00325396633707	pulse	1.0	t		25.0	female	west_asian	2.6756864305610826	neutral	064	sub-10	1.0	4.0	064_neutral	0.0		149.48759025379695	
20.0	126.70323434594684	pulse	1.0	t		25.0	female	west_asian	2.6756864305610826	neutral	064	sub-10	1.0	4.0	064_neutral	0.0		150.18757063340672	
20.0	127.40320144405996	pulse	1.0	t		25.0	female	west_asian	2.6756864305610826	neutral	064	sub-10	1.0	4.0	064_neutral	0.0		150.88753773151984	
20.0	128.10318091811496	pulse	1.0	t		25.0	female	west_asian	2.6756864305610826	neutral	064	sub-10	1.0	4.0	064_neutral	0.0		151.58751720557484	
20.0	128.80316461809707	pulse	1.0	t		25.0	female	west_asian	2.6756864305610826	neutral	064	sub-10	1.0	4.0	064_neutral	0.0		152.28750090555695	
21.0	129.26969102412477	face	0.0		145	19.0	female	white	4.298846000795861	smiling	100	sub-10	1.0	4.0	100_smiling	0.0		152.75402731158465	1.2333136123270378
21.0	129.5031492236376	pulse	0.0	t		19.0	female	white	4.298846000795861	smiling	100	sub-10	1.0	4.0	100_smiling	0.0		152.98748551109747	
21.0	130.20312326434941	pulse	0.0	t		19.0	female	white	4.298846000795861	smiling	100	sub-10	1.0	4.0	100_smiling	0.0		153.6874595518093	
21.0	130.5030046364518	fix	1.0		444	19.0	female	white	4.298846000795861	smiling	100	sub-10	1.0	4.0	100_smiling	0.0		153.9873409239117	3.7665556856845797
21.0	130.903105153222	pulse	1.0	t		19.0	female	white	4.298846000795861	smiling	100	sub-10	1.0	4.0	100_smiling	0.0		154.38744144068187	
21.0	131.60310213470075	pulse	1.0	t		19.0	female	white	4.298846000795861	smiling	100	sub-10	1.0	4.0	100_smiling	0.0		155.08743842216063	
21.0	132.30307194948182	pulse	1.0	t		19.0	female	white	4.298846000795861	smiling	100	sub-10	1.0	4.0	100_smiling	0.0		155.7874082369417	
21.0	133.00305021612803	pulse	1.0	t		19.0	female	white	4.298846000795861	smiling	100	sub-10	1.0	4.0	100_smiling	0.0		156.4873865035879	
21.0	133.70303150129257	pulse	1.0	t		19.0	female	white	4.298846000795861	smiling	100	sub-10	1.0	4.0	100_smiling	0.0		157.18736778875245	
22.0	134.26956032213639	face	0.0		145	22.0	male	black	2.767608436132113	smiling	044	sub-10	1.0	4.0	044_smiling	0.0		157.75389660959627	1.2333114993598429
22.0	134.40301761609226	pulse	0.0	t		22.0	male	black	2.767608436132113	smiling	044	sub-10	1.0	4.0	044_smiling	0.0		157.88735390355214	
22.0	135.10298833643174	pulse	0.0	t		22.0	male	black	2.767608436132113	smiling	044	sub-10	1.0	4.0	044_smiling	0.0		158.58732462389162	
22.0	135.50287182149623	fix	1.0		444	22.0	male	black	2.767608436132113	smiling	044	sub-10	1.0	4.0	044_smiling	0.0		158.9872081089561	3.766539989377634
22.0	135.80296388640636	pulse	1.0	t		22.0	male	black	2.767608436132113	smiling	044	sub-10	1.0	4.0	044_smiling	0.0		159.28730017386624	
22.0	136.50292887155592	pulse	1.0	t		22.0	male	black	2.767608436132113	smiling	044	sub-10	1.0	4.0	044_smiling	0.0		159.9872651590158	
22.0	137.20291860858197	pulse	1.0	t		22.0	male	black	2.767608436132113	smiling	044	sub-10	1.0	4.0	044_smiling	0.0		160.68725489604185	
22.0	137.90290744005324	pulse	1.0	t		22.0	male	black	2.767608436132113	smiling	044	sub-10	1.0	4.0	044_smiling	0.0		161.38724372751312	
22.0	138.60287634927954	pulse	1.0	t		22.0	male	black	2.767608436132113	smiling	044	sub-10	1.0	4.0	044_smiling	0.0		162.08721263673942	
23.0	139.26941181087386	face	0.0		145	22.0	female	west_asian	3.8205332272184642	smiling	066	sub-10	1.0	4.0	066_smiling	0.0		162.75374809833374	1.2333157252905949
23.0	139.30286970853194	pulse	0.0	t		22.0	female	west_asian	3.8205332272184642	smiling	066	sub-10	1.0	4.0	066_smiling	0.0		162.78720599599183	
23.0	140.00284676776937	pulse	0.0	t		22.0	female	west_asian	3.8205332272184642	smiling	066	sub-10	1.0	4.0	066_smiling	0.0		163.48718305522925	
23.0	140.50272753616446	fix	1.0		443	22.0	female	west_asian	3.8205332272184642	smiling	066	sub-10	1.0	4.0	066_smiling	0.0		163.98706382362434	3.766517954165465
23.0	140.70283227886466	pulse	1.0	t		22.0	female	west_asian	3.8205332272184642	smiling	066	sub-10	1.0	4.0	066_smiling	0.0		164.18716856632454	
23.0	141.40279424549226	pulse	1.0	t		22.0	female	west_asian	3.8205332272184642	smiling	066	sub-10	1.0	4.0	066_smiling	0.0		164.88713053295214	
23.0	142.1027749269524	pulse	1.0	t		22.0	female	west_asian	3.8205332272184642	smiling	066	sub-10	1.0	4.0	066_smiling	0.0		165.5871112144123	
23.0	142.80274866581385	pulse	1.0	t		22.0	female	west_asian	3.8205332272184642	smiling	066	sub-10	1.0	4.0	066_smiling	0.0		166.28708495327373	
23.0	143.5027245176425	pulse	1.0	t		22.0	female	west_asian	3.8205332272184642	smiling	066	sub-10	1.0	4.0	066_smiling	0.0		166.98706080510237	
23.0	144.20270489724862	pulse	1.0	t		22.0	female	west_asian	3.8205332272184642	smiling	066	sub-10	1.0	4.0	066_smiling	0.0		167.6870411847085	
24.0	144.26924549032992	face	0.0		146	32.0	male	white	2.389176283326701	smiling	092	sub-10	1.0	4.0	092_smiling	0.0		167.7535817777898	1.2333302141923923
24.0	144.90270761392094	pulse	0.0	t		32.0	male	white	2.389176283326701	smiling	092	sub-10	1.0	4.0	092_smiling	0.0		168.38704390138082	
24.0	145.50257570452231	fix	1.0		443	32.0	male	white	2.389176283326701	smiling	092	sub-10	1.0	4.0	092_smiling	0.0		168.9869119919822	3.7665393856732408
24.0	145.60269704909297	pulse	1.0	t		32.0	male	white	2.389176283326701	smiling	092	sub-10	1.0	4.0	092_smiling	0.0		169.08703333655285	
24.0	146.3026421120012	pulse	1.0	t		32.0	male	white	2.389176283326701	smiling	092	sub-10	1.0	4.0	092_smiling	0.0		169.78697839946108	
24.0	147.0026345656952	pulse	1.0	t		32.0	male	white	2.389176283326701	smiling	092	sub-10	1.0	4.0	092_smiling	0.0		170.48697085315507	
24.0	147.7026182656773	pulse	1.0	t		32.0	male	white	2.389176283326701	smiling	092	sub-10	1.0	4.0	092_smiling	0.0		171.18695455313718	
24.0	148.4025817415677	pulse	1.0	t		32.0	male	white	2.389176283326701	smiling	092	sub-10	1.0	4.0	092_smiling	0.0		171.88691802902758	
24.0	149.10257811934207	pulse	1.0	t		32.0	male	white	2.389176283326701	smiling	092	sub-10	1.0	4.0	092_smiling	0.0		172.58691440680195	
25.0	149.26911509019556	face	0.0		146	40.0	male	black	2.408674890569041	neutral	061	sub-10	1.0	4.0	061_neutral	0.0		172.75345137765544	1.2332939919324417
25.0	149.80258989157664	pulse	0.0	t		40.0	male	black	2.408674890569041	neutral	061	sub-10	1.0	4.0	061_neutral	0.0		173.28692617903653	
25.0	150.502409082128	fix	1.0		444	40.0	male	black	2.408674890569041	neutral	061	sub-10	1.0	4.0	061_neutral	0.0		173.98674536958788	3.766542706045584
25.0	150.50996927145025	pulse	1.0	t		40.0	male	black	2.408674890569041	neutral	061	sub-10	1.0	4.0	061_neutral	0.0		173.99430555891013	
25.0	151.20250295815276	pulse	1.0	t		40.0	male	black	2.408674890569041	neutral	061	sub-10	1.0	4.0	061_neutral	0.0		174.68683924561265	
25.0	151.90249420443797	pulse	1.0	t		40.0	male	black	2.408674890569041	neutral	061	sub-10	1.0	4.0	061_neutral	0.0		175.38683049189785	
25.0	152.60247277293456	pulse	1.0	t		40.0	male	black	2.408674890569041	neutral	061	sub-10	1.0	4.0	061_neutral	0.0		176.08680906039444	
25.0	153.3024480210588	pulse	1.0	t		40.0	male	black	2.408674890569041	neutral	061	sub-10	1.0	4.0	061_neutral	0.0		176.7867843085187	
25.0	154.00242809881456	pulse	1.0	t		40.0	male	black	2.408674890569041	neutral	061	sub-10	1.0	4.0	061_neutral	0.0		177.48676438627444	
26.0	154.26895178817358	face	0.0		145	24.0	female	east_asian	2.9076800636689217	neutral	034	sub-10	1.0	4.0	034_neutral	0.0		177.75328807563346	1.2333124049146136
26.0	154.70241572287705	pulse	0.0	t		24.0	female	east_asian	2.9076800636689217	neutral	034	sub-10	1.0	4.0	034_neutral	0.0		178.18675201033693	
26.0	155.40237768950465	pulse	0.0	t		24.0	female	east_asian	2.9076800636689217	neutral	034	sub-10	1.0	4.0	034_neutral	0.0		178.88671397696453	
26.0	155.5022641930882	fix	1.0		444	24.0	female	east_asian	2.9076800636689217	neutral	034	sub-10	1.0	4.0	034_neutral	0.0		178.98660048054808	3.7583603994135046
26.0	156.10237678394697	pulse	1.0	t		24.0	female	east_asian	2.9076800636689217	neutral	034	sub-10	1.0	4.0	034_neutral	0.0		179.58671307140685	
26.0	156.8023511265128	pulse	1.0	t		24.0	female	east_asian	2.9076800636689217	neutral	034	sub-10	1.0	4.0	034_neutral	0.0		180.2866874139727	
26.0	157.5023212431479	pulse	1.0	t		24.0	female	east_asian	2.9076800636689217	neutral	034	sub-10	1.0	4.0	034_neutral	0.0		180.98665753060777	
26.0	158.20230252831607	pulse	1.0	t		24.0	female	east_asian	2.9076800636689217	neutral	034	sub-10	1.0	4.0	034_neutral	0.0		181.68663881577595	
26.0	158.90227173939275	pulse	1.0	t		24.0	female	east_asian	2.9076800636689217	neutral	034	sub-10	1.0	4.0	034_neutral	0.0		182.38660802685263	
27.0	159.2606245925017	face	0.0		146	24.0	female	black	3.0955033824114606	neutral	099	sub-10	1.0	4.0	099_neutral	0.0		182.74496087996158	1.2414910893239721
27.0	159.60225725048804	pulse	0.0	t		24.0	female	black	3.0955033824114606	neutral	099	sub-10	1.0	4.0	099_neutral	0.0		183.08659353794792	
27.0	160.30223491342986	pulse	0.0	t		24.0	female	black	3.0955033824114606	neutral	099	sub-10	1.0	4.0	099_neutral	0.0		183.78657120088974	
27.0	160.50211568182567	fix	1.0		444	24.0	female	black	3.0955033824114606	neutral	099	sub-10	1.0	4.0	099_neutral	0.0		183.98645196928555	3.766539083815587
27.0	161.00221408563084	pulse	1.0	t		24.0	female	black	3.0955033824114606	neutral	099	sub-10	1.0	4.0	099_neutral	0.0		184.48655037309072	
27.0	161.702208350438	pulse	1.0	t		24.0	female	black	3.0955033824114606	neutral	099	sub-10	1.0	4.0	099_neutral	0.0		185.1865446378979	
27.0	162.40217695781394	pulse	1.0	t		24.0	female	black	3.0955033824114606	neutral	099	sub-10	1.0	4.0	099_neutral	0.0		185.88651324527382	
27.0	163.10214435778107	pulse	1.0	t		24.0	female	black	3.0955033824114606	neutral	099	sub-10	1.0	4.0	099_neutral	0.0		186.58648064524095	
27.0	163.80212805776318	pulse	1.0	t		24.0	female	black	3.0955033824114606	neutral	099	sub-10	1.0	4.0	099_neutral	0.0		187.28646434522307	
28.0	164.26865476564126	face	0.0		145	20.0	female	white	3.9502586549940313	neutral	091	sub-10	1.0	4.0	091_neutral	1.0	dominance	187.75299105310114	1.233331119750801
28.0	164.5021283596143	pulse	0.0	t		20.0	female	white	3.9502586549940313	neutral	091	sub-10	1.0	4.0	091_neutral	1.0	dominance	187.98646464707417	
28.0	165.20210541885172	pulse	0.0	t		20.0	female	white	3.9502586549940313	neutral	091	sub-10	1.0	4.0	091_neutral	1.0	dominance	188.6864417063116	
28.0	165.50198588539206	fix	1.0		177	20.0	female	white	3.9502586549940313	neutral	091	sub-10	1.0	4.0	091_neutral	1.0	dominance	188.98632217285194	1.4999411388307635
28.0	165.90208036512195	pulse	1.0	t		20.0	female	white	3.9502586549940313	neutral	091	sub-10	1.0	4.0	091_neutral	1.0	dominance	189.38641665258183	
28.0	166.60206980029398	pulse	1.0	t		20.0	female	white	3.9502586549940313	neutral	091	sub-10	1.0	4.0	091_neutral	1.0	dominance	190.08640608775386	
28.0	167.00192702422282	rating	2.0		294	20.0	female	white	3.9502586549940313	neutral	091	sub-10	1.0	4.0	091_neutral	1.0	dominance	190.4862633116827	2.499937214746751
28.0	167.29684745598934	pulse	2.0	t		20.0	female	white	3.9502586549940313	neutral	091	sub-10	1.0	4.0	091_neutral	1.0	dominance	190.78118374344922	
28.0	167.9968118374345	pulse	2.0	t		20.0	female	white	3.9502586549940313	neutral	091	sub-10	1.0	4.0	091_neutral	1.0	dominance	191.4811481248944	
28.0	168.5103179106991	response	2.0	w		20.0	female	white	3.9502586549940313	neutral	091	sub-10	1.0	4.0	091_neutral	1.0	dominance	191.99465419815897	
28.0	168.69678889667193	pulse	2.0	t		20.0	female	white	3.9502586549940313	neutral	091	sub-10	1.0	4.0	091_neutral	1.0	dominance	192.18112518413182	
28.0	169.40196566129816	pulse	2.0	t		20.0	female	white	3.9502586549940313	neutral	091	sub-10	1.0	4.0	091_neutral	1.0	dominance	192.88630194875805	
28.0	169.50186423896957	fix	3.0		444	20.0	female	white	3.9502586549940313	neutral	091	sub-10	1.0	4.0	091_neutral	1.0	dominance	192.98620052642946	3.758340477168531
28.0	170.10194573905392	pulse	3.0	t		20.0	female	white	3.9502586549940313	neutral	091	sub-10	1.0	4.0	091_neutral	1.0	dominance	193.5862820265138	
28.0	170.80192068532415	pulse	3.0	t		20.0	female	white	3.9502586549940313	neutral	091	sub-10	1.0	4.0	091_neutral	1.0	dominance	194.28625697278403	
28.0	171.50189200937166	pulse	3.0	t		20.0	female	white	3.9502586549940313	neutral	091	sub-10	1.0	4.0	091_neutral	1.0	dominance	194.98622829683154	
28.0	172.2018962352995	pulse	3.0	t		20.0	female	white	3.9502586549940313	neutral	091	sub-10	1.0	4.0	091_neutral	1.0	dominance	195.68623252275938	
28.0	172.90187269083253	pulse	3.0	t		20.0	female	white	3.9502586549940313	neutral	091	sub-10	1.0	4.0	091_neutral	1.0	dominance	196.38620897829242	
29.0	173.2602047161381	face	0.0		146	21.0	male	east_asian/white	3.501790688420215	smiling	036	sub-10	1.0	4.0	036_smiling	0.0		196.744541003598	1.2415119171237166
29.0	173.60185729637305	pulse	0.0	t		21.0	male	east_asian/white	3.501790688420215	smiling	036	sub-10	1.0	4.0	036_smiling	0.0		197.08619358383294	
29.0	174.30180960373036	pulse	0.0	t		21.0	male	east_asian/white	3.501790688420215	smiling	036	sub-10	1.0	4.0	036_smiling	0.0		197.78614589119024	
29.0	174.50171663326182	fix	1.0		444	21.0	male	east_asian/white	3.501790688420215	smiling	036	sub-10	1.0	4.0	036_smiling	0.0		197.9860529207217	3.7665408949324046
29.0	175.00180205742436	pulse	1.0	t		21.0	male	east_asian/white	3.501790688420215	smiling	036	sub-10	1.0	4.0	036_smiling	0.0		198.48613834488424	
29.0	175.70178907778245	pulse	1.0	t		21.0	male	east_asian/white	3.501790688420215	smiling	036	sub-10	1.0	4.0	036_smiling	0.0		199.18612536524233	
29.0	176.40175798700875	pulse	1.0	t		21.0	male	east_asian/white	3.501790688420215	smiling	036	sub-10	1.0	4.0	036_smiling	0.0		199.88609427446863	
29.0	177.10174681848002	pulse	1.0	t		21.0	male	east_asian/white	3.501790688420215	smiling	036	sub-10	1.0	4.0	036_smiling	0.0		200.5860831059399	
29.0	177.80171844437427	pulse	1.0	t		21.0	male	east_asian/white	3.501790688420215	smiling	036	sub-10	1.0	4.0	036_smiling	0.0		201.28605473183416	
30.0	178.26825752819423	face	0.0		145	54.0	female	white	2.286908077994429	smiling	136	sub-10	1.0	4.0	136_smiling	0.0		201.7525938156541	1.2333114993598429
30.0	178.5017093888091	pulse	0.0	t		54.0	female	white	2.286908077994429	smiling	136	sub-10	1.0	4.0	136_smiling	0.0		201.986045676269	
30.0	179.20168312767055	pulse	0.0	t		54.0	female	white	2.286908077994429	smiling	136	sub-10	1.0	4.0	136_smiling	0.0		202.68601941513043	
30.0	179.50156902755407	fix	1.0		444	54.0	female	white	2.286908077994429	smiling	136	sub-10	1.0	4.0	136_smiling	0.0		202.98590531501395	3.766522180096217
30.0	179.9016577720904	pulse	1.0	t		54.0	female	white	2.286908077994429	smiling	136	sub-10	1.0	4.0	136_smiling	0.0		203.38599405955028	
30.0	180.60163211465624	pulse	1.0	t		54.0	female	white	2.286908077994429	smiling	136	sub-10	1.0	4.0	136_smiling	0.0		204.08596840211612	
30.0	181.30161068315283	pulse	1.0	t		54.0	female	white	2.286908077994429	smiling	136	sub-10	1.0	4.0	136_smiling	0.0		204.7859469706127	
30.0	182.0015910627626	pulse	1.0	t		54.0	female	white	2.286908077994429	smiling	136	sub-10	1.0	4.0	136_smiling	0.0		205.48592735022248	
30.0	182.70156993310957	pulse	1.0	t		54.0	female	white	2.286908077994429	smiling	136	sub-10	1.0	4.0	136_smiling	0.0		206.18590622056945	
31.0	183.2680912076503	face	0.0		145	37.0	male	white	3.898925586947871	smiling	101	sub-10	1.0	4.0	101_smiling	0.0		206.75242749511017	1.2333293086376216
31.0	183.4015545386501	pulse	0.0	t		37.0	male	white	3.898925586947871	smiling	101	sub-10	1.0	4.0	101_smiling	0.0		206.88589082610997	
31.0	184.10152042935442	pulse	0.0	t		37.0	male	white	3.898925586947871	smiling	101	sub-10	1.0	4.0	101_smiling	0.0		207.5858567168143	
31.0	184.5014205162879	fix	1.0		444	37.0	male	white	3.898925586947871	smiling	101	sub-10	1.0	4.0	101_smiling	0.0		207.9857568037478	3.7582499215204734
31.0	184.80152676824946	pulse	1.0	t		37.0	male	white	3.898925586947871	smiling	101	sub-10	1.0	4.0	101_smiling	0.0		208.28586305570934	
31.0	185.50149386636622	pulse	1.0	t		37.0	male	white	3.898925586947871	smiling	101	sub-10	1.0	4.0	101_smiling	0.0		208.9858301538261	
31.0	186.2014721330088	pulse	1.0	t		37.0	male	white	3.898925586947871	smiling	101	sub-10	1.0	4.0	101_smiling	0.0		209.68580842046867	
31.0	186.90145492743613	pulse	1.0	t		37.0	male	white	3.898925586947871	smiling	101	sub-10	1.0	4.0	101_smiling	0.0		210.38579121489602	
31.0	187.60142353481206	pulse	1.0	t		37.0	male	white	3.898925586947871	smiling	101	sub-10	1.0	4.0	101_smiling	0.0		211.08575982227194	
32.0	188.25967043780838	face	0.0		146	26.0	male	white	2.7966573816155993	smiling	117	sub-10	1.0	4.0	117_smiling	0.0		211.74400672526826	1.2416030764761672
32.0	188.30143409963785	pulse	0.0	t		26.0	male	white	2.7966573816155993	smiling	117	sub-10	1.0	4.0	117_smiling	0.0		211.78577038709773	
32.0	189.0013806718016	pulse	0.0	t		26.0	male	white	2.7966573816155993	smiling	117	sub-10	1.0	4.0	117_smiling	0.0		212.48571695926148	
32.0	189.50127351428455	fix	1.0		443	26.0	male	white	2.7966573816155993	smiling	117	sub-10	1.0	4.0	117_smiling	0.0		212.98560980174443	3.7665227838006103
32.0	189.7013676921597	pulse	1.0	t		26.0	male	white	2.7966573816155993	smiling	117	sub-10	1.0	4.0	117_smiling	0.0		213.18570397961957	
32.0	190.4013519958462	pulse	1.0	t		26.0	male	white	2.7966573816155993	smiling	117	sub-10	1.0	4.0	117_smiling	0.0		213.88568828330608	
32.0	191.1013299606384	pulse	1.0	t		26.0	male	white	2.7966573816155993	smiling	117	sub-10	1.0	4.0	117_smiling	0.0		214.58566624809828	
32.0	191.80131335877013	pulse	1.0	t		26.0	male	white	2.7966573816155993	smiling	117	sub-10	1.0	4.0	117_smiling	0.0		215.28564964623	
32.0	192.5012756272481	pulse	1.0	t		26.0	male	white	2.7966573816155993	smiling	117	sub-10	1.0	4.0	117_smiling	0.0		215.985611914708	
32.0	193.20125902537984	pulse	1.0	t		26.0	male	white	2.7966573816155993	smiling	117	sub-10	1.0	4.0	117_smiling	0.0		216.68559531283972	
33.0	193.26779629808516	face	0.0		146	31.0	female	white	2.1822522881018704	smiling	102	sub-10	1.0	4.0	102_smiling	0.0		216.75213258554504	1.2333108956554497
33.0	193.90124151795317	pulse	0.0	t		31.0	female	white	2.1822522881018704	smiling	102	sub-10	1.0	4.0	102_smiling	0.0		217.38557780541305	
33.0	194.5011071937406	fix	1.0		443	31.0	female	white	2.1822522881018704	smiling	102	sub-10	1.0	4.0	102_smiling	0.0		217.9854434812005	3.758213699260523
33.0	194.60122310497172	pulse	1.0	t		31.0	female	white	2.1822522881018704	smiling	102	sub-10	1.0	4.0	102_smiling	0.0		218.0855593924316	
33.0	195.30120620125308	pulse	1.0	t		31.0	female	white	2.1822522881018704	smiling	102	sub-10	1.0	4.0	102_smiling	0.0		218.78554248871296	
33.0	196.0011726956618	pulse	1.0	t		31.0	female	white	2.1822522881018704	smiling	102	sub-10	1.0	4.0	102_smiling	0.0		219.4855089831217	
33.0	196.70115609379354	pulse	1.0	t		31.0	female	white	2.1822522881018704	smiling	102	sub-10	1.0	4.0	102_smiling	0.0		220.18549238125343	
33.0	197.40112560672424	pulse	1.0	t		31.0	female	white	2.1822522881018704	smiling	102	sub-10	1.0	4.0	102_smiling	0.0		220.88546189418412	
33.0	198.10112409746216	pulse	1.0	t		31.0	female	white	2.1822522881018704	smiling	102	sub-10	1.0	4.0	102_smiling	0.0		221.58546038492204	
34.0	198.25932089300113	face	0.0		147	28.0	male	white	3.9076800636689217	smiling	033	sub-10	1.0	4.0	033_smiling	0.0		221.743657180461	1.241642015404068
34.0	198.8010978363236	pulse	0.0	t		28.0	male	white	3.9076800636689217	smiling	033	sub-10	1.0	4.0	033_smiling	0.0		222.2854341237835	
34.0	199.5009629084052	fix	1.0		444	28.0	male	white	3.9076800636689217	smiling	033	sub-10	1.0	4.0	033_smiling	0.0		222.98529919586508	3.7665529690202675
34.0	199.50850649585846	pulse	1.0	t		28.0	male	white	3.9076800636689217	smiling	033	sub-10	1.0	4.0	033_smiling	0.0		222.99284278331834	
34.0	200.2010552751708	pulse	1.0	t		28.0	male	white	3.9076800636689217	smiling	033	sub-10	1.0	4.0	033_smiling	0.0		223.68539156263068	
34.0	200.90104048441208	pulse	1.0	t		28.0	male	white	3.9076800636689217	smiling	033	sub-10	1.0	4.0	033_smiling	0.0		224.38537677187196	
34.0	201.60102418439783	pulse	1.0	t		28.0	male	white	3.9076800636689217	smiling	033	sub-10	1.0	4.0	033_smiling	0.0		225.0853604718577	
34.0	202.30099762140526	pulse	1.0	t		28.0	male	white	3.9076800636689217	smiling	033	sub-10	1.0	4.0	033_smiling	0.0		225.78533390886514	
34.0	203.00097437878867	pulse	1.0	t		28.0	male	white	3.9076800636689217	smiling	033	sub-10	1.0	4.0	033_smiling	0.0		226.48531066624855	
35.0	203.26751587742547	face	0.0		145	31.0	female	east_asian	3.395941106247513	neutral	087	sub-10	1.0	4.0	087_neutral	0.0		226.75185216488535	1.2333124049146136
35.0	203.7009520417305	pulse	0.0	t		31.0	female	east_asian	3.395941106247513	neutral	087	sub-10	1.0	4.0	087_neutral	0.0		227.18528832919037	
35.0	204.40092366762474	pulse	0.0	t		31.0	female	east_asian	3.395941106247513	neutral	087	sub-10	1.0	4.0	087_neutral	0.0		227.88525995508462	
35.0	204.50082828234008	fix	1.0		444	31.0	female	east_asian	3.395941106247513	neutral	087	sub-10	1.0	4.0	087_neutral	0.0		227.98516456979996	3.7665393856732408
35.0	205.1009200453991	pulse	1.0	t		31.0	female	east_asian	3.395941106247513	neutral	087	sub-10	1.0	4.0	087_neutral	0.0		228.585256332859	
35.0	205.80088412499026	pulse	1.0	t		31.0	female	east_asian	3.395941106247513	neutral	087	sub-10	1.0	4.0	087_neutral	0.0		229.28522041245014	
35.0	206.50085424162899	pulse	1.0	t		31.0	female	east_asian	3.395941106247513	neutral	087	sub-10	1.0	4.0	087_neutral	0.0		229.98519052908887	
35.0	207.2008460916186	pulse	1.0	t		31.0	female	east_asian	3.395941106247513	neutral	087	sub-10	1.0	4.0	087_neutral	0.0		230.68518237907847	
35.0	207.90084156383818	pulse	1.0	t		31.0	female	east_asian	3.395941106247513	neutral	087	sub-10	1.0	4.0	087_neutral	0.0		231.38517785129807	
36.0	208.26736766801332	face	0.0		145	40.0	male	white	1.868682849184242	neutral	172	sub-10	1.0	4.0	172_neutral	0.0		231.7517039554732	1.2333006326807663
36.0	208.60081983048076	pulse	0.0	t		40.0	male	white	1.868682849184242	neutral	172	sub-10	1.0	4.0	172_neutral	0.0		232.08515611794064	
36.0	209.30078058969957	pulse	0.0	t		40.0	male	white	1.868682849184242	neutral	172	sub-10	1.0	4.0	172_neutral	0.0		232.78511687715945	
36.0	209.5006683006941	fix	1.0		444	40.0	male	white	1.868682849184242	neutral	172	sub-10	1.0	4.0	172_neutral	0.0		232.98500458815397	3.7582133974065073
36.0	210.0007639878313	pulse	1.0	t		40.0	male	white	1.868682849184242	neutral	172	sub-10	1.0	4.0	172_neutral	0.0		233.4851002752912	
36.0	210.70075493226614	pulse	1.0	t		40.0	male	white	1.868682849184242	neutral	172	sub-10	1.0	4.0	172_neutral	0.0		234.18509121972602	
36.0	211.40072203037926	pulse	1.0	t		40.0	male	white	1.868682849184242	neutral	172	sub-10	1.0	4.0	172_neutral	0.0		234.88505831783914	
36.0	212.10070573036137	pulse	1.0	t		40.0	male	white	1.868682849184242	neutral	172	sub-10	1.0	4.0	172_neutral	0.0		235.58504201782125	
36.0	212.80069697665022	pulse	1.0	t		40.0	male	white	1.868682849184242	neutral	172	sub-10	1.0	4.0	172_neutral	0.0		236.2850332641101	
37.0	213.2588816981006	face	0.0		146	40.0	female	west_asian	1.5777954635893354	smiling	038	sub-10	1.0	4.0	038_smiling	0.0		236.74321798556048	1.2416522783787514
37.0	213.50067162106643	pulse	0.0	t		40.0	female	west_asian	1.5777954635893354	smiling	038	sub-10	1.0	4.0	038_smiling	0.0		236.9850079085263	
37.0	214.2006423414059	pulse	0.0	t		40.0	female	west_asian	1.5777954635893354	smiling	038	sub-10	1.0	4.0	038_smiling	0.0		237.6849786288658	
37.0	214.50053397647935	fix	1.0		444	40.0	female	west_asian	1.5777954635893354	smiling	038	sub-10	1.0	4.0	038_smiling	0.0		237.98487026393923	3.7665381782644545
37.0	214.9006215136069	pulse	1.0	t		40.0	female	west_asian	1.5777954635893354	smiling	038	sub-10	1.0	4.0	038_smiling	0.0		238.38495780106678	
37.0	215.6005925358004	pulse	1.0	t		40.0	female	west_asian	1.5777954635893354	smiling	038	sub-10	1.0	4.0	038_smiling	0.0		239.08492882326027	
37.0	216.30056476540267	pulse	1.0	t		40.0	female	west_asian	1.5777954635893354	smiling	038	sub-10	1.0	4.0	038_smiling	0.0		239.78490105286255	
37.0	217.00055148390675	pulse	1.0	t		40.0	female	west_asian	1.5777954635893354	smiling	038	sub-10	1.0	4.0	038_smiling	0.0		240.48488777136663	
37.0	217.70073833039714	pulse	1.0	t		40.0	female	west_asian	1.5777954635893354	smiling	038	sub-10	1.0	4.0	038_smiling	0.0		241.18507461785703	
38.0	218.2670721547438	face	0.0		145	40.0	male	black	2.408674890569041	smiling	061	sub-10	1.0	4.0	061_smiling	0.0		241.75140844220368	1.233309990097041
38.0	218.40053005240406	pulse	0.0	t		40.0	male	black	2.408674890569041	smiling	061	sub-10	1.0	4.0	061_smiling	0.0		241.88486633986395	
38.0	219.10050258385672	pulse	0.0	t		40.0	male	black	2.408674890569041	smiling	061	sub-10	1.0	4.0	061_smiling	0.0		242.5848388713166	
38.0	219.50038214484084	fix	1.0		444	40.0	male	black	2.408674890569041	smiling	061	sub-10	1.0	4.0	061_smiling	0.0		242.98471843230072	3.766523689359019
38.0	219.80047843568173	pulse	1.0	t		40.0	male	black	2.408674890569041	smiling	061	sub-10	1.0	4.0	061_smiling	0.0		243.2848147231416	
38.0	220.5004364782326	pulse	1.0	t		40.0	male	black	2.408674890569041	smiling	061	sub-10	1.0	4.0	061_smiling	0.0		243.98477276569247	
38.0	221.20042470599583	pulse	1.0	t		40.0	male	black	2.408674890569041	smiling	061	sub-10	1.0	4.0	061_smiling	0.0		244.6847609934557	
38.0	221.90041051894514	pulse	1.0	t		40.0	male	black	2.408674890569041	smiling	061	sub-10	1.0	4.0	061_smiling	0.0		245.38474680640502	
38.0	222.60038576706575	pulse	1.0	t		40.0	male	black	2.408674890569041	smiling	061	sub-10	1.0	4.0	061_smiling	0.0		246.08472205452563	
39.0	223.26690583419986	face	0.0		145	23.0	male	white	2.6275368085953046	smiling	141	sub-10	1.0	4.0	141_smiling	1.0	attractiveness	246.75124212165974	1.233329006783606
39.0	223.3003700707559	pulse	0.0	t		23.0	male	white	2.6275368085953046	smiling	141	sub-10	1.0	4.0	141_smiling	1.0	attractiveness	246.78470635821577	
39.0	224.0003468281393	pulse	0.0	t		23.0	male	white	2.6275368085953046	smiling	141	sub-10	1.0	4.0	141_smiling	1.0	attractiveness	247.48468311559918	
39.0	224.50023484098347	fix	1.0		177	23.0	male	white	2.6275368085953046	smiling	141	sub-10	1.0	4.0	141_smiling	1.0	attractiveness	247.98457112844335	1.4999580425501335
39.0	224.70034230035526	pulse	1.0	t		23.0	male	white	2.6275368085953046	smiling	141	sub-10	1.0	4.0	141_smiling	1.0	attractiveness	248.18467858781514	
39.0	225.40031271884436	pulse	1.0	t		23.0	male	white	2.6275368085953046	smiling	141	sub-10	1.0	4.0	141_smiling	1.0	attractiveness	248.88464900630424	
39.0	226.0001928835336	rating	2.0		294	23.0	male	white	2.6275368085953046	smiling	141	sub-10	1.0	4.0	141_smiling	1.0	attractiveness	249.48452917099348	2.4999251406625262
39.0	226.09516976165833	pulse	2.0	t		23.0	male	white	2.6275368085953046	smiling	141	sub-10	1.0	4.0	141_smiling	1.0	attractiveness	249.5795060491182	
39.0	226.79500887445465	pulse	2.0	t		23.0	male	white	2.6275368085953046	smiling	141	sub-10	1.0	4.0	141_smiling	1.0	attractiveness	250.27934516191453	
39.0	227.49496148366597	pulse	2.0	t		23.0	male	white	2.6275368085953046	smiling	141	sub-10	1.0	4.0	141_smiling	1.0	attractiveness	250.97929777112586	
39.0	228.15023695394848	response	2.0	b		23.0	male	white	2.6275368085953046	smiling	141	sub-10	1.0	4.0	141_smiling	1.0	attractiveness	251.63457324140836	
39.0	228.19493793919537	pulse	2.0	t		23.0	male	white	2.6275368085953046	smiling	141	sub-10	1.0	4.0	141_smiling	1.0	attractiveness	251.67927422665525	
39.0	228.50011802419613	fix	3.0		444	23.0	male	white	2.6275368085953046	smiling	141	sub-10	1.0	4.0	141_smiling	1.0	attractiveness	251.984454311656	3.7498910313697706
39.0	228.90021642800275	pulse	3.0	t		23.0	male	white	2.6275368085953046	smiling	141	sub-10	1.0	4.0	141_smiling	1.0	attractiveness	252.38455271546263	
39.0	229.60017597981278	pulse	3.0	t		23.0	male	white	2.6275368085953046	smiling	141	sub-10	1.0	4.0	141_smiling	1.0	attractiveness	253.08451226727266	
39.0	230.30015485015974	pulse	3.0	t		23.0	male	white	2.6275368085953046	smiling	141	sub-10	1.0	4.0	141_smiling	1.0	attractiveness	253.78449113761963	
39.0	231.00013372051035	pulse	3.0	t		23.0	male	white	2.6275368085953046	smiling	141	sub-10	1.0	4.0	141_smiling	1.0	attractiveness	254.48447000797023	
39.0	231.70011953345966	pulse	3.0	t		23.0	male	white	2.6275368085953046	smiling	141	sub-10	1.0	4.0	141_smiling	1.0	attractiveness	255.18445582091954	
40.0	232.2500090555659	fix	0.0		720													255.73434534302578	5.999803494240041
40.0	232.40011651493478	pulse	0.0	t														255.88445280239466	
40.0	233.10008210378874	pulse	0.0	t														256.5844183912486	
40.0	233.80006640747888	pulse	0.0	t														257.28440269493876	
40.0	234.50015696312767	pulse	0.0	t														257.98449325058755	
40.0	235.2001376445878	pulse	0.0	t														258.6844739320477	
40.0	235.90010534640533	pulse	0.0	t														259.3844416338652	
40.0	236.6000048296337	pulse	0.0	t														260.0843411170936	
40.0	237.29995592958585	pulse	0.0	t														260.78429221704573	
40.0	237.99993902586357	pulse	0.0	t														261.48427531332345	
