trial_nr	onset	event_type	phase	response	nr_frames	face_age	face_sex	face_eth	attractiveness	expression	face_id	sub_id	ses	run	trial_type	catch	rating_type	onset_abs	duration
-1.0	0.061758036628816626	fix	0.0		713													32.988090552131325	5.957937800649233
-1.0	0.7032221978060988	pulse	0.0	t														33.62955471330861	
-1.0	1.4032027582434239	pulse	0.0	t														34.32953527374593	
-1.0	2.1032047504977527	pulse	0.0	t														35.02953726600026	
-1.0	2.803191046210486	pulse	0.0	t														35.729523561712995	
-1.0	3.503180360488841	pulse	0.0	t														36.42951287599135	
-1.0	4.2031346594085335	pulse	0.0	t														37.12946717491104	
-1.0	4.903160800186015	pulse	0.0	t														37.829493315688524	
-1.0	5.60314649218526	pulse	0.0	t														38.52947900768777	
0.0	6.01969583727805	face	0.0		144	21.0	male	black	2.969757262236371	neutral	137	sub-08	1.0	4.0	137_neutral	0.0		38.94602835278056	1.2333239355320984
0.0	6.303137315746426	pulse	0.0	t		21.0	male	black	2.969757262236371	neutral	137	sub-08	1.0	4.0	137_neutral	0.0		39.229469831248934	
0.0	7.003135685721645	pulse	0.0	t		21.0	male	black	2.969757262236371	neutral	137	sub-08	1.0	4.0	137_neutral	0.0		39.929468201224154	
0.0	7.253019772810148	fix	1.0		445	21.0	male	black	2.969757262236371	neutral	137	sub-08	1.0	4.0	137_neutral	0.0		40.17935228831266	3.758261511600722
0.0	7.703259628016895	pulse	1.0	t		21.0	male	black	2.969757262236371	neutral	137	sub-08	1.0	4.0	137_neutral	0.0		40.6295921435194	
0.0	8.403103749300499	pulse	1.0	t		21.0	male	black	2.969757262236371	neutral	137	sub-08	1.0	4.0	137_neutral	0.0		41.32943626480301	
0.0	9.103101515560411	pulse	1.0	t		21.0	male	black	2.969757262236371	neutral	137	sub-08	1.0	4.0	137_neutral	0.0		42.02943403106292	
0.0	9.803083585282366	pulse	1.0	t		21.0	male	black	2.969757262236371	neutral	137	sub-08	1.0	4.0	137_neutral	0.0		42.729416100784874	
0.0	10.503074106987697	pulse	1.0	t		21.0	male	black	2.969757262236371	neutral	137	sub-08	1.0	4.0	137_neutral	0.0		43.429406622490205	
1.0	11.01128128441087	face	0.0		146	24.0	female	east_asian	4.409868682849185	neutral	030	sub-08	1.0	4.0	030_neutral	0.0		43.93761379991338	1.2416458184434305
1.0	11.203062213840894	pulse	0.0	t		24.0	female	east_asian	4.409868682849185	neutral	030	sub-08	1.0	4.0	030_neutral	0.0		44.1293947293434	
1.0	11.903068432084183	pulse	0.0	t		24.0	female	east_asian	4.409868682849185	neutral	030	sub-08	1.0	4.0	030_neutral	0.0		44.82940094758669	
1.0	12.2529271028543	fix	1.0		445	24.0	female	east_asian	4.409868682849185	neutral	030	sub-08	1.0	4.0	030_neutral	0.0		45.17925961835681	3.7582772081404983
1.0	12.603040238684116	pulse	1.0	t		24.0	female	east_asian	4.409868682849185	neutral	030	sub-08	1.0	4.0	030_neutral	0.0		45.529372754186625	
1.0	13.30303528823606	pulse	1.0	t		24.0	female	east_asian	4.409868682849185	neutral	030	sub-08	1.0	4.0	030_neutral	0.0		46.22936780373857	
1.0	14.003025809941391	pulse	1.0	t		24.0	female	east_asian	4.409868682849185	neutral	030	sub-08	1.0	4.0	030_neutral	0.0		46.9293583254439	
1.0	14.703014218650424	pulse	1.0	t		24.0	female	east_asian	4.409868682849185	neutral	030	sub-08	1.0	4.0	030_neutral	0.0		47.62934673415293	
1.0	15.40299206237978	pulse	1.0	t		24.0	female	east_asian	4.409868682849185	neutral	030	sub-08	1.0	4.0	030_neutral	0.0		48.32932457788229	
2.0	16.0112043109948	face	0.0		146	19.0	female	white	4.298846000795861	smiling	100	sub-08	1.0	4.0	100_smiling	0.0		48.93753682649731	1.241664835402844
2.0	16.10299858248254	pulse	0.0	t		19.0	female	white	4.298846000795861	smiling	100	sub-08	1.0	4.0	100_smiling	0.0		49.02933109798505	
2.0	16.80297793549471	pulse	0.0	t		19.0	female	white	4.298846000795861	smiling	100	sub-08	1.0	4.0	100_smiling	0.0		49.72931045099722	
2.0	17.252869146397643	fix	1.0		445	19.0	female	white	4.298846000795861	smiling	100	sub-08	1.0	4.0	100_smiling	0.0		50.17920166190015	3.7582397779297025
2.0	17.502975098042953	pulse	1.0	t		19.0	female	white	4.298846000795861	smiling	100	sub-08	1.0	4.0	100_smiling	0.0		50.42930761354546	
2.0	18.202960790042198	pulse	1.0	t		19.0	female	white	4.298846000795861	smiling	100	sub-08	1.0	4.0	100_smiling	0.0		51.12929330554471	
2.0	18.90295010432237	pulse	1.0	t		19.0	female	white	4.298846000795861	smiling	100	sub-08	1.0	4.0	100_smiling	0.0		51.82928261982488	
2.0	19.60292734433824	pulse	1.0	t		19.0	female	white	4.298846000795861	smiling	100	sub-08	1.0	4.0	100_smiling	0.0		52.52925985984075	
2.0	20.302917866043572	pulse	1.0	t		19.0	female	white	4.298846000795861	smiling	100	sub-08	1.0	4.0	100_smiling	0.0		53.22925038154608	
3.0	21.011108924327345	face	0.0		147	27.0	female	white	4.181058495821727	smiling	039	sub-08	1.0	4.0	039_smiling	0.0		53.937441439829854	1.2416802300886047
3.0	21.00464647769695	pulse	0.0	t		27.0	female	white	4.181058495821727	smiling	039	sub-08	1.0	4.0	039_smiling	0.0		53.93097899319946	
3.0	21.702901022448714	pulse	0.0	t		27.0	female	white	4.181058495821727	smiling	039	sub-08	1.0	4.0	039_smiling	0.0		54.62923353795122	
3.0	22.25278915441595	fix	1.0		443	27.0	female	white	4.181058495821727	smiling	039	sub-08	1.0	4.0	039_smiling	0.0		55.17912166991846	3.7582418909260014
3.0	22.402900297993256	pulse	1.0	t		27.0	female	white	4.181058495821727	smiling	039	sub-08	1.0	4.0	039_smiling	0.0		55.329232813495764	
3.0	23.102877538009125	pulse	1.0	t		27.0	female	white	4.181058495821727	smiling	039	sub-08	1.0	4.0	039_smiling	0.0		56.02921005351163	
3.0	23.802868059714456	pulse	1.0	t		27.0	female	white	4.181058495821727	smiling	039	sub-08	1.0	4.0	039_smiling	0.0		56.729200575216964	
3.0	24.50286975011113	pulse	1.0	t		27.0	female	white	4.181058495821727	smiling	039	sub-08	1.0	4.0	039_smiling	0.0		57.42920226561364	
3.0	25.20284276413622	pulse	1.0	t		27.0	female	white	4.181058495821727	smiling	039	sub-08	1.0	4.0	039_smiling	0.0		58.12917527963873	
3.0	25.90283600254952	pulse	1.0	t		27.0	female	white	4.181058495821727	smiling	039	sub-08	1.0	4.0	039_smiling	0.0		58.82916851805203	
4.0	26.01103104534195	face	0.0		147	31.0	female	white	2.1822522881018704	smiling	102	sub-08	1.0	4.0	102_smiling	0.0		58.93736356084446	1.2416823430830846
4.0	26.602824713116206	pulse	0.0	t		31.0	female	white	2.1822522881018704	smiling	102	sub-08	1.0	4.0	102_smiling	0.0		59.529157228618715	
4.0	27.252713388425036	fix	1.0		443	31.0	female	white	2.1822522881018704	smiling	102	sub-08	1.0	4.0	102_smiling	0.0		60.179045903927545	3.758406402737819
4.0	27.30282489423007	pulse	1.0	t		31.0	female	white	2.1822522881018704	smiling	102	sub-08	1.0	4.0	102_smiling	0.0		60.22915740973258	
4.0	28.002806360238537	pulse	1.0	t		31.0	female	white	2.1822522881018704	smiling	102	sub-08	1.0	4.0	102_smiling	0.0		60.929138875741046	
4.0	28.70279416523408	pulse	1.0	t		31.0	female	white	2.1822522881018704	smiling	102	sub-08	1.0	4.0	102_smiling	0.0		61.62912668073659	
4.0	29.402784083225924	pulse	1.0	t		31.0	female	white	2.1822522881018704	smiling	102	sub-08	1.0	4.0	102_smiling	0.0		62.32911659872843	
4.0	30.102770680794492	pulse	1.0	t		31.0	female	white	2.1822522881018704	smiling	102	sub-08	1.0	4.0	102_smiling	0.0		63.029103196297	
4.0	30.8027624099268	pulse	1.0	t		31.0	female	white	2.1822522881018704	smiling	102	sub-08	1.0	4.0	102_smiling	0.0		63.72909492542931	
5.0	31.011119791162855	face	0.0		146	22.0	female	west_asian	3.8205332272184642	neutral	066	sub-08	1.0	4.0	066_neutral	0.0		63.937452306665364	1.2415015310161834
5.0	31.50276017618853	pulse	0.0	t		22.0	female	west_asian	3.8205332272184642	neutral	066	sub-08	1.0	4.0	066_neutral	0.0		64.42909269169104	
5.0	32.20273107721732	pulse	0.0	t		22.0	female	west_asian	3.8205332272184642	neutral	066	sub-08	1.0	4.0	066_neutral	0.0		65.12906359271983	
5.0	32.25262132217904	fix	1.0		445	22.0	female	west_asian	3.8205332272184642	neutral	066	sub-08	1.0	4.0	066_neutral	0.0		65.17895383768155	3.766597279911366
5.0	32.90273457875264	pulse	1.0	t		22.0	female	west_asian	3.8205332272184642	neutral	066	sub-08	1.0	4.0	066_neutral	0.0		65.82906709425515	
5.0	33.602717252188086	pulse	1.0	t		22.0	female	west_asian	3.8205332272184642	neutral	066	sub-08	1.0	4.0	066_neutral	0.0		66.5290497676906	
5.0	34.30268905878802	pulse	1.0	t		22.0	female	west_asian	3.8205332272184642	neutral	066	sub-08	1.0	4.0	066_neutral	0.0		67.22902157429053	
5.0	35.00269769188344	pulse	1.0	t		22.0	female	west_asian	3.8205332272184642	neutral	066	sub-08	1.0	4.0	066_neutral	0.0		67.92903020738595	
5.0	35.70268640245013	pulse	1.0	t		22.0	female	west_asian	3.8205332272184642	neutral	066	sub-08	1.0	4.0	066_neutral	0.0		68.62901891795264	
6.0	36.019218602090405	face	0.0		145	34.0	male	white	2.651014723438122	smiling	121	sub-08	1.0	4.0	121_smiling	0.0		68.94555111759291	1.233343556208638
6.0	36.40267571672848	pulse	0.0	t		34.0	male	white	2.651014723438122	smiling	121	sub-08	1.0	4.0	121_smiling	0.0		69.32900823223099	
6.0	37.10267529412886	pulse	0.0	t		34.0	male	white	2.651014723438122	smiling	121	sub-08	1.0	4.0	121_smiling	0.0		70.02900780963137	
6.0	37.25256215829904	fix	1.0		445	34.0	male	white	2.651014723438122	smiling	121	sub-08	1.0	4.0	121_smiling	0.0		70.17889467380155	3.7665809796562826
6.0	37.802663400982055	pulse	1.0	t		34.0	male	white	2.651014723438122	smiling	121	sub-08	1.0	4.0	121_smiling	0.0		70.72899591648456	
6.0	38.50264154656725	pulse	1.0	t		34.0	male	white	2.651014723438122	smiling	121	sub-08	1.0	4.0	121_smiling	0.0		71.42897406206976	
6.0	39.20262663485482	pulse	1.0	t		34.0	male	white	2.651014723438122	smiling	121	sub-08	1.0	4.0	121_smiling	0.0		72.12895915035733	
6.0	39.902620778837445	pulse	1.0	t		34.0	male	white	2.651014723438122	smiling	121	sub-08	1.0	4.0	121_smiling	0.0		72.82895329433995	
6.0	40.60261160239861	pulse	1.0	t		34.0	male	white	2.651014723438122	smiling	121	sub-08	1.0	4.0	121_smiling	0.0		73.52894411790112	
7.0	41.019143137955325	face	0.0		145	31.0	female	east_asian	3.395941106247513	smiling	087	sub-08	1.0	4.0	087_smiling	1.0	attractiveness	73.94547565345783	1.2333426506393153
7.0	41.302603029673264	pulse	0.0	t		31.0	female	east_asian	3.395941106247513	smiling	087	sub-08	1.0	4.0	087_smiling	1.0	attractiveness	74.22893554517577	
7.0	42.00261437948029	pulse	0.0	t		31.0	female	east_asian	3.395941106247513	smiling	087	sub-08	1.0	4.0	087_smiling	1.0	attractiveness	74.9289468949828	
7.0	42.25248578859464	fix	1.0		177	31.0	female	east_asian	3.395941106247513	smiling	087	sub-08	1.0	4.0	087_smiling	1.0	attractiveness	75.17881830409715	1.5083107142163499
7.0	42.70258739350538	pulse	1.0	t		31.0	female	east_asian	3.395941106247513	smiling	087	sub-08	1.0	4.0	087_smiling	1.0	attractiveness	75.62891990900789	
7.0	43.40256584094823	pulse	1.0	t		31.0	female	east_asian	3.395941106247513	smiling	087	sub-08	1.0	4.0	087_smiling	1.0	attractiveness	76.32889835645074	
7.0	43.76079650281099	rating	2.0		293	31.0	female	east_asian	3.395941106247513	smiling	087	sub-08	1.0	4.0	087_smiling	1.0	attractiveness	76.6871290183135	2.491626801480379
7.0	44.102573568476146	pulse	2.0	t		31.0	female	east_asian	3.395941106247513	smiling	087	sub-08	1.0	4.0	087_smiling	1.0	attractiveness	77.02890608397865	
7.0	44.802550204780346	pulse	2.0	t		31.0	female	east_asian	3.395941106247513	smiling	087	sub-08	1.0	4.0	087_smiling	1.0	attractiveness	77.72888272028285	
7.0	45.4858676805834	response	2.0	g		31.0	female	east_asian	3.395941106247513	smiling	087	sub-08	1.0	4.0	087_smiling	1.0	attractiveness	78.4122001960859	
7.0	45.5025633657242	pulse	2.0	t		31.0	female	east_asian	3.395941106247513	smiling	087	sub-08	1.0	4.0	087_smiling	1.0	attractiveness	78.42889588122671	
7.0	46.20252943705054	pulse	2.0	t		31.0	female	east_asian	3.395941106247513	smiling	087	sub-08	1.0	4.0	087_smiling	1.0	attractiveness	79.12886195255305	
7.0	46.25242330429137	fix	3.0		444	31.0	female	east_asian	3.395941106247513	smiling	087	sub-08	1.0	4.0	087_smiling	1.0	attractiveness	79.17875581979388	3.7665915446359577
7.0	46.90252297731968	pulse	3.0	t		31.0	female	east_asian	3.395941106247513	smiling	087	sub-08	1.0	4.0	087_smiling	1.0	attractiveness	79.82885549282219	
7.0	47.60250836746309	pulse	3.0	t		31.0	female	east_asian	3.395941106247513	smiling	087	sub-08	1.0	4.0	087_smiling	1.0	attractiveness	80.5288408829656	
7.0	48.30249073904088	pulse	3.0	t		31.0	female	east_asian	3.395941106247513	smiling	087	sub-08	1.0	4.0	087_smiling	1.0	attractiveness	81.22882325454339	
7.0	49.00249514614734	pulse	3.0	t		31.0	female	east_asian	3.395941106247513	smiling	087	sub-08	1.0	4.0	087_smiling	1.0	attractiveness	81.92882766164985	
7.0	49.70247540472883	pulse	3.0	t		31.0	female	east_asian	3.395941106247513	smiling	087	sub-08	1.0	4.0	087_smiling	1.0	attractiveness	82.62880792023134	
8.0	50.01901484892733	face	0.0		145	27.0	male	black	3.5523278949462798	neutral	042	sub-08	1.0	4.0	042_neutral	0.0		82.94534736442984	1.2333191058278317
8.0	50.402473472848214	pulse	0.0	t		27.0	male	black	3.5523278949462798	neutral	042	sub-08	1.0	4.0	042_neutral	0.0		83.32880598835072	
8.0	51.10244739244263	pulse	0.0	t		27.0	male	black	3.5523278949462798	neutral	042	sub-08	1.0	4.0	042_neutral	0.0		84.02877990794514	
8.0	51.25233395475516	fix	1.0		444	27.0	male	black	3.5523278949462798	neutral	042	sub-08	1.0	4.0	042_neutral	0.0		84.17866647025767	3.7582536633308337
8.0	51.802440630855926	pulse	1.0	t		27.0	male	black	3.5523278949462798	neutral	042	sub-08	1.0	4.0	042_neutral	0.0		84.72877314635844	
8.0	52.50243326555574	pulse	1.0	t		27.0	male	black	3.5523278949462798	neutral	042	sub-08	1.0	4.0	042_neutral	0.0		85.42876578105825	
8.0	53.20240809072129	pulse	1.0	t		27.0	male	black	3.5523278949462798	neutral	042	sub-08	1.0	4.0	042_neutral	0.0		86.1287406062238	
8.0	53.90240706440818	pulse	1.0	t		27.0	male	black	3.5523278949462798	neutral	042	sub-08	1.0	4.0	042_neutral	0.0		86.82873957991069	
8.0	54.6023909452706	pulse	1.0	t		27.0	male	black	3.5523278949462798	neutral	042	sub-08	1.0	4.0	042_neutral	0.0		87.52872346077311	
9.0	55.01058761808599	face	0.0		146	24.0	female	black	3.0955033824114606	smiling	099	sub-08	1.0	4.0	099_smiling	0.0		87.9369201335885	1.2416648354046629
9.0	55.30238478739557	pulse	0.0	t		24.0	female	black	3.0955033824114606	smiling	099	sub-08	1.0	4.0	099_smiling	0.0		88.22871730289808	
9.0	56.002371384965954	pulse	0.0	t		24.0	female	black	3.0955033824114606	smiling	099	sub-08	1.0	4.0	099_smiling	0.0		88.92870390046846	
9.0	56.252252453490655	fix	1.0		444	24.0	female	black	3.0955033824114606	smiling	099	sub-08	1.0	4.0	099_smiling	0.0		89.17858496899316	3.7666162968707795
9.0	56.7023685475142	pulse	1.0	t		24.0	female	black	3.0955033824114606	smiling	099	sub-08	1.0	4.0	099_smiling	0.0		89.6287010630167	
9.0	57.402360276644686	pulse	1.0	t		24.0	female	black	3.0955033824114606	smiling	099	sub-08	1.0	4.0	099_smiling	0.0		90.3286927921472	
9.0	58.10235230763283	pulse	1.0	t		24.0	female	black	3.0955033824114606	smiling	099	sub-08	1.0	4.0	099_smiling	0.0		91.02868482313534	
9.0	58.80234343304983	pulse	1.0	t		24.0	female	black	3.0955033824114606	smiling	099	sub-08	1.0	4.0	099_smiling	0.0		91.72867594855234	
9.0	59.502324899058294	pulse	1.0	t		24.0	female	black	3.0955033824114606	smiling	099	sub-08	1.0	4.0	099_smiling	0.0		92.4286574145608	
10.0	60.018868750361435	face	0.0		145	40.0	male	white	1.868682849184242	smiling	172	sub-08	1.0	4.0	172_smiling	0.0		92.94520126586394	1.233327557813027
10.0	60.202322061608356	pulse	0.0	t		40.0	male	white	1.868682849184242	smiling	172	sub-08	1.0	4.0	172_smiling	0.0		93.12865457711086	
10.0	60.902305942468956	pulse	0.0	t		40.0	male	white	1.868682849184242	smiling	172	sub-08	1.0	4.0	172_smiling	0.0		93.82863845797146	
10.0	61.25219630817446	fix	1.0		444	40.0	male	white	1.868682849184242	smiling	172	sub-08	1.0	4.0	172_smiling	0.0		94.17852882367697	3.758391913625019
10.0	61.602300690165066	pulse	1.0	t		40.0	male	white	1.868682849184242	smiling	172	sub-08	1.0	4.0	172_smiling	0.0		94.52863320566757	
10.0	62.3022818543177	pulse	1.0	t		40.0	male	white	1.868682849184242	smiling	172	sub-08	1.0	4.0	172_smiling	0.0		95.2286143698202	
10.0	63.00227690386964	pulse	1.0	t		40.0	male	white	1.868682849184242	smiling	172	sub-08	1.0	4.0	172_smiling	0.0		95.92860941937215	
10.0	63.702260181016754	pulse	1.0	t		40.0	male	white	1.868682849184242	smiling	172	sub-08	1.0	4.0	172_smiling	0.0		96.62859269651926	
10.0	64.40225643799567	pulse	1.0	t		40.0	male	white	1.868682849184242	smiling	172	sub-08	1.0	4.0	172_smiling	0.0		97.32858895349818	
11.0	65.01058822179948	face	0.0		146	34.0	male	white	2.651014723438122	neutral	121	sub-08	1.0	4.0	121_neutral	1.0	attractiveness	97.93692073730199	1.2415308111012564
11.0	65.10225209126293	pulse	0.0	t		34.0	male	white	2.651014723438122	neutral	121	sub-08	1.0	4.0	121_neutral	1.0	attractiveness	98.02858460676543	
11.0	65.80223325541374	pulse	0.0	t		34.0	male	white	2.651014723438122	neutral	121	sub-08	1.0	4.0	121_neutral	1.0	attractiveness	98.72856577091625	
11.0	66.25211903290074	fix	1.0		177	34.0	male	white	2.651014723438122	neutral	121	sub-08	1.0	4.0	121_neutral	1.0	attractiveness	99.17845154840325	1.4999812848946021
11.0	66.50222679568469	pulse	1.0	t		34.0	male	white	2.651014723438122	neutral	121	sub-08	1.0	4.0	121_neutral	1.0	attractiveness	99.4285593111872	
11.0	67.2022049412717	pulse	1.0	t		34.0	male	white	2.651014723438122	neutral	121	sub-08	1.0	4.0	121_neutral	1.0	attractiveness	100.12853745677421	
11.0	67.75210031779534	rating	2.0		294	34.0	male	white	2.651014723438122	neutral	121	sub-08	1.0	4.0	121_neutral	1.0	attractiveness	100.67843283329785	2.499960154935252
11.0	67.90220783909353	pulse	2.0	t		34.0	male	white	2.651014723438122	neutral	121	sub-08	1.0	4.0	121_neutral	1.0	attractiveness	100.82854035459604	
11.0	68.60219564408908	pulse	2.0	t		34.0	male	white	2.651014723438122	neutral	121	sub-08	1.0	4.0	121_neutral	1.0	attractiveness	101.52852815959159	
11.0	69.30217982680733	pulse	2.0	t		34.0	male	white	2.651014723438122	neutral	121	sub-08	1.0	4.0	121_neutral	1.0	attractiveness	102.22851234230984	
11.0	69.83551263692243	response	2.0	b		34.0	male	white	2.651014723438122	neutral	121	sub-08	1.0	4.0	121_neutral	1.0	attractiveness	102.76184515242494	
11.0	70.00216431138142	pulse	2.0	t		34.0	male	white	2.651014723438122	neutral	121	sub-08	1.0	4.0	121_neutral	1.0	attractiveness	102.92849682688393	
11.0	70.25206047273059	fix	3.0		444	34.0	male	white	2.651014723438122	neutral	121	sub-08	1.0	4.0	121_neutral	1.0	attractiveness	103.1783929882331	3.7665803759446135
11.0	70.70215060709415	pulse	3.0	t		34.0	male	white	2.651014723438122	neutral	121	sub-08	1.0	4.0	121_neutral	1.0	attractiveness	103.62848312259666	
11.0	71.40216135318587	pulse	3.0	t		34.0	male	white	2.651014723438122	neutral	121	sub-08	1.0	4.0	121_neutral	1.0	attractiveness	104.32849386868838	
11.0	72.10212833008154	pulse	3.0	t		34.0	male	white	2.651014723438122	neutral	121	sub-08	1.0	4.0	121_neutral	1.0	attractiveness	105.02846084558405	
11.0	72.802121266639	pulse	3.0	t		34.0	male	white	2.651014723438122	neutral	121	sub-08	1.0	4.0	121_neutral	1.0	attractiveness	105.72845378214151	
11.0	73.50213080530557	pulse	3.0	t		34.0	male	white	2.651014723438122	neutral	121	sub-08	1.0	4.0	121_neutral	1.0	attractiveness	106.42846332080808	
12.0	74.0186408486752	face	0.0		145	31.0	female	west_asian	2.364902506963788	neutral	006	sub-08	1.0	4.0	006_neutral	0.0		106.94497336417771	1.233341443212339
12.0	74.20210231004785	pulse	0.0	t		31.0	female	west_asian	2.364902506963788	neutral	006	sub-08	1.0	4.0	006_neutral	0.0		107.12843482555036	
12.0	74.90208317234283	pulse	0.0	t		31.0	female	west_asian	2.364902506963788	neutral	006	sub-08	1.0	4.0	006_neutral	0.0		107.82841568784534	
12.0	75.25198229188754	fix	1.0		445	31.0	female	west_asian	2.364902506963788	neutral	006	sub-08	1.0	4.0	006_neutral	0.0		108.17831480739005	3.766582790796747
12.0	75.60209301286704	pulse	1.0	t		31.0	female	west_asian	2.364902506963788	neutral	006	sub-08	1.0	4.0	006_neutral	0.0		108.52842552836955	
12.0	76.30207900672212	pulse	1.0	t		31.0	female	west_asian	2.364902506963788	neutral	006	sub-08	1.0	4.0	006_neutral	0.0		109.22841152222463	
12.0	77.00207888598015	pulse	1.0	t		31.0	female	west_asian	2.364902506963788	neutral	006	sub-08	1.0	4.0	006_neutral	0.0		109.92841140148266	
12.0	77.70205069258009	pulse	1.0	t		31.0	female	west_asian	2.364902506963788	neutral	006	sub-08	1.0	4.0	006_neutral	0.0		110.6283832080826	
12.0	78.40203849757563	pulse	1.0	t		31.0	female	west_asian	2.364902506963788	neutral	006	sub-08	1.0	4.0	006_neutral	0.0		111.32837101307814	
13.0	79.01856508268429	face	0.0		145	40.0	male	black	2.408674890569041	smiling	061	sub-08	1.0	4.0	061_smiling	0.0		111.9448975981868	1.2333423487816617
13.0	79.10202660442701	pulse	0.0	t		40.0	male	black	2.408674890569041	smiling	061	sub-08	1.0	4.0	061_smiling	0.0		112.02835911992952	
13.0	79.80202376697707	pulse	0.0	t		40.0	male	black	2.408674890569041	smiling	061	sub-08	1.0	4.0	061_smiling	0.0		112.72835628247958	
13.0	80.25190743146595	fix	1.0		444	40.0	male	black	2.408674890569041	smiling	061	sub-08	1.0	4.0	061_smiling	0.0		113.17823994696846	3.766579470375291
13.0	80.50201428868058	pulse	1.0	t		40.0	male	black	2.408674890569041	smiling	061	sub-08	1.0	4.0	061_smiling	0.0		113.4283468041831	
13.0	81.20200209367613	pulse	1.0	t		40.0	male	black	2.408674890569041	smiling	061	sub-08	1.0	4.0	061_smiling	0.0		114.12833460917864	
13.0	81.90198869124652	pulse	1.0	t		40.0	male	black	2.408674890569041	smiling	061	sub-08	1.0	4.0	061_smiling	0.0		114.82832120674902	
13.0	82.60197649624206	pulse	1.0	t		40.0	male	black	2.408674890569041	smiling	061	sub-08	1.0	4.0	061_smiling	0.0		115.52830901174457	
13.0	83.30195856596401	pulse	1.0	t		40.0	male	black	2.408674890569041	smiling	061	sub-08	1.0	4.0	061_smiling	0.0		116.22829108146652	
14.0	84.01848690184124	face	0.0		145	26.0	female	white	4.854755272582572	smiling	027	sub-08	1.0	4.0	027_smiling	1.0	trustworthiness	116.94481941734375	1.2333450654914486
14.0	84.00463229043999	pulse	0.0	t		26.0	female	white	4.854755272582572	smiling	027	sub-08	1.0	4.0	027_smiling	1.0	trustworthiness	116.9309648059425	
14.0	84.70195409848748	pulse	0.0	t		26.0	female	white	4.854755272582572	smiling	027	sub-08	1.0	4.0	027_smiling	1.0	trustworthiness	117.62828661398999	
14.0	85.25183196733269	fix	1.0		177	26.0	female	white	4.854755272582572	smiling	027	sub-08	1.0	4.0	027_smiling	1.0	trustworthiness	118.1781644828352	1.4999794737541379
14.0	85.40194069605786	pulse	1.0	t		26.0	female	white	4.854755272582572	smiling	027	sub-08	1.0	4.0	027_smiling	1.0	trustworthiness	118.32827321156037	
14.0	86.10192216206633	pulse	1.0	t		26.0	female	white	4.854755272582572	smiling	027	sub-08	1.0	4.0	027_smiling	1.0	trustworthiness	119.02825467756884	
14.0	86.75181144108683	rating	2.0		294	26.0	female	white	4.854755272582572	smiling	027	sub-08	1.0	4.0	027_smiling	1.0	trustworthiness	119.67814395658934	2.49994415654146
14.0	86.80197305507863	pulse	2.0	t		26.0	female	white	4.854755272582572	smiling	027	sub-08	1.0	4.0	027_smiling	1.0	trustworthiness	119.72830557058114	
14.0	87.50191045003157	pulse	2.0	t		26.0	female	white	4.854755272582572	smiling	027	sub-08	1.0	4.0	027_smiling	1.0	trustworthiness	120.42824296553408	
14.0	88.20196738017512	pulse	2.0	t		26.0	female	white	4.854755272582572	smiling	027	sub-08	1.0	4.0	027_smiling	1.0	trustworthiness	121.12829989567763	
14.0	88.50195723779507	response	2.0	b		26.0	female	white	4.854755272582572	smiling	027	sub-08	1.0	4.0	027_smiling	1.0	trustworthiness	121.42828975329758	
14.0	88.90187640061413	pulse	2.0	t		26.0	female	white	4.854755272582572	smiling	027	sub-08	1.0	4.0	027_smiling	1.0	trustworthiness	121.82820891611664	
14.0	89.25175559762829	fix	3.0		444	26.0	female	white	4.854755272582572	smiling	027	sub-08	1.0	4.0	027_smiling	1.0	trustworthiness	122.1780881131308	3.7666114671665127
14.0	89.6018614889017	pulse	3.0	t		26.0	female	white	4.854755272582572	smiling	027	sub-08	1.0	4.0	027_smiling	1.0	trustworthiness	122.52819400440421	
14.0	90.30184023820038	pulse	3.0	t		26.0	female	white	4.854755272582572	smiling	027	sub-08	1.0	4.0	027_smiling	1.0	trustworthiness	123.22817275370289	
14.0	91.00183770260628	pulse	3.0	t		26.0	female	white	4.854755272582572	smiling	027	sub-08	1.0	4.0	027_smiling	1.0	trustworthiness	123.92817021810879	
14.0	91.70182882802328	pulse	3.0	t		26.0	female	white	4.854755272582572	smiling	027	sub-08	1.0	4.0	027_smiling	1.0	trustworthiness	124.62816134352579	
14.0	92.40182629242918	pulse	3.0	t		26.0	female	white	4.854755272582572	smiling	027	sub-08	1.0	4.0	027_smiling	1.0	trustworthiness	125.32815880793169	
15.0	93.0183670647948	face	0.0		145	31.0	male	west_asian	1.9538400318344609	neutral	070	sub-08	1.0	4.0	070_neutral	1.0	trustworthiness	125.94469958029731	1.233328161524696
15.0	93.10182707725653	pulse	0.0	t		31.0	male	west_asian	1.9538400318344609	neutral	070	sub-08	1.0	4.0	070_neutral	1.0	trustworthiness	126.02815959275904	
15.0	93.80181186368645	pulse	0.0	t		31.0	male	west_asian	1.9538400318344609	neutral	070	sub-08	1.0	4.0	070_neutral	1.0	trustworthiness	126.72814437918896	
15.0	94.2516952263195	fix	1.0		177	31.0	male	west_asian	1.9538400318344609	neutral	070	sub-08	1.0	4.0	070_neutral	1.0	trustworthiness	127.178027741822	1.4999652864989912
15.0	94.501799668682	pulse	1.0	t		31.0	male	west_asian	1.9538400318344609	neutral	070	sub-08	1.0	4.0	070_neutral	1.0	trustworthiness	127.4281321841845	
15.0	95.20176966414147	pulse	1.0	t		31.0	male	west_asian	1.9538400318344609	neutral	070	sub-08	1.0	4.0	070_neutral	1.0	trustworthiness	128.12810217964397	
15.0	95.75166051281849	rating	2.0		294	31.0	male	west_asian	1.9538400318344609	neutral	070	sub-08	1.0	4.0	070_neutral	1.0	trustworthiness	128.677993028321	2.4999725310553913
15.0	95.90177135453814	pulse	2.0	t		31.0	male	west_asian	1.9538400318344609	neutral	070	sub-08	1.0	4.0	070_neutral	1.0	trustworthiness	128.82810387004065	
15.0	96.6017757616446	pulse	2.0	t		31.0	male	west_asian	1.9538400318344609	neutral	070	sub-08	1.0	4.0	070_neutral	1.0	trustworthiness	129.5281082771471	
15.0	97.30175058680834	pulse	2.0	t		31.0	male	west_asian	1.9538400318344609	neutral	070	sub-08	1.0	4.0	070_neutral	1.0	trustworthiness	130.22808310231085	
15.0	97.97982330525701	response	2.0	w		31.0	male	west_asian	1.9538400318344609	neutral	070	sub-08	1.0	4.0	070_neutral	1.0	trustworthiness	130.90615582075952	
15.0	98.00177401087603	pulse	2.0	t		31.0	male	west_asian	1.9538400318344609	neutral	070	sub-08	1.0	4.0	070_neutral	1.0	trustworthiness	130.92810652637854	
15.0	98.25163304387388	fix	3.0		444	31.0	male	west_asian	1.9538400318344609	neutral	070	sub-08	1.0	4.0	070_neutral	1.0	trustworthiness	131.1779655593764	3.7582916972532985
15.0	98.70173766734843	pulse	3.0	t		31.0	male	west_asian	1.9538400318344609	neutral	070	sub-08	1.0	4.0	070_neutral	1.0	trustworthiness	131.62807018285093	
15.0	99.4017133980833	pulse	3.0	t		31.0	male	west_asian	1.9538400318344609	neutral	070	sub-08	1.0	4.0	070_neutral	1.0	trustworthiness	132.3280459135858	
15.0	100.1016993919402	pulse	3.0	t		31.0	male	west_asian	1.9538400318344609	neutral	070	sub-08	1.0	4.0	070_neutral	1.0	trustworthiness	133.0280319074427	
15.0	100.80170591204114	pulse	3.0	t		31.0	male	west_asian	1.9538400318344609	neutral	070	sub-08	1.0	4.0	070_neutral	1.0	trustworthiness	133.72803842754365	
15.0	101.50169130218455	pulse	3.0	t		31.0	male	west_asian	1.9538400318344609	neutral	070	sub-08	1.0	4.0	070_neutral	1.0	trustworthiness	134.42802381768706	
16.0	102.00992474112718	face	0.0		146	31.0	female	east_asian	3.395941106247513	neutral	087	sub-08	1.0	4.0	087_neutral	0.0		134.9362572566297	1.2416180476411682
16.0	102.2016884647328	pulse	0.0	t		31.0	female	east_asian	3.395941106247513	neutral	087	sub-08	1.0	4.0	087_neutral	0.0		135.1280209802353	
16.0	102.90165876204992	pulse	0.0	t		31.0	female	east_asian	3.395941106247513	neutral	087	sub-08	1.0	4.0	087_neutral	0.0		135.82799127755243	
16.0	103.25154278876835	fix	1.0		445	31.0	female	east_asian	3.395941106247513	neutral	087	sub-08	1.0	4.0	087_neutral	0.0		136.17787530427086	3.766613278306977
16.0	103.601654717173	pulse	1.0	t		31.0	female	east_asian	3.395941106247513	neutral	087	sub-08	1.0	4.0	087_neutral	0.0		136.5279872326755	
16.0	104.3016298441944	pulse	1.0	t		31.0	female	east_asian	3.395941106247513	neutral	087	sub-08	1.0	4.0	087_neutral	0.0		137.2279623596969	
16.0	105.00164028843028	pulse	1.0	t		31.0	female	east_asian	3.395941106247513	neutral	087	sub-08	1.0	4.0	087_neutral	0.0		137.9279728039328	
16.0	105.70162567857369	pulse	1.0	t		31.0	female	east_asian	3.395941106247513	neutral	087	sub-08	1.0	4.0	087_neutral	0.0		138.6279581940762	
16.0	106.40160291859138	pulse	1.0	t		31.0	female	east_asian	3.395941106247513	neutral	087	sub-08	1.0	4.0	087_neutral	0.0		139.3279354340939	
17.0	107.01815606707532	face	0.0		145	19.0	male	white	3.2522881018702745	smiling	018	sub-08	1.0	4.0	018_smiling	0.0		139.94448858257783	1.2333260485283972
17.0	107.10161034426164	pulse	0.0	t		19.0	male	white	3.2522881018702745	smiling	018	sub-08	1.0	4.0	018_smiling	0.0		140.02794285976415	
17.0	107.80159392326641	pulse	0.0	t		19.0	male	white	3.2522881018702745	smiling	018	sub-08	1.0	4.0	018_smiling	0.0		140.72792643876892	
17.0	108.25148211560372	fix	1.0		444	19.0	male	white	3.2522881018702745	smiling	018	sub-08	1.0	4.0	018_smiling	0.0		141.17781463110623	3.758259398604423
17.0	108.5016303271641	pulse	1.0	t		19.0	male	white	3.2522881018702745	smiling	018	sub-08	1.0	4.0	018_smiling	0.0		141.4279628426666	
17.0	109.20156289241277	pulse	1.0	t		19.0	male	white	3.2522881018702745	smiling	018	sub-08	1.0	4.0	018_smiling	0.0		142.12789540791528	
17.0	109.9015663939499	pulse	1.0	t		19.0	male	white	3.2522881018702745	smiling	018	sub-08	1.0	4.0	018_smiling	0.0		142.82789890945241	
17.0	110.6015502748105	pulse	1.0	t		19.0	male	white	3.2522881018702745	smiling	018	sub-08	1.0	4.0	018_smiling	0.0		143.52788279031301	
17.0	111.30153747609256	pulse	1.0	t		19.0	male	white	3.2522881018702745	smiling	018	sub-08	1.0	4.0	018_smiling	0.0		144.22786999159507	
18.0	112.00974151420814	face	0.0		147	28.0	male	east_asian	1.5563072025467568	smiling	005	sub-08	1.0	4.0	005_smiling	0.0		144.93607402971065	1.2416651372604974
18.0	112.00343241069822	pulse	0.0	t		28.0	male	east_asian	1.5563072025467568	smiling	005	sub-08	1.0	4.0	005_smiling	0.0		144.92976492620073	
18.0	112.70152244363817	pulse	0.0	t		28.0	male	east_asian	1.5563072025467568	smiling	005	sub-08	1.0	4.0	005_smiling	0.0		145.62785495914068	
18.0	113.25140665146864	fix	1.0		443	28.0	male	east_asian	1.5563072025467568	smiling	005	sub-08	1.0	4.0	005_smiling	0.0		146.17773916697115	3.766587922358667
18.0	113.40151839875944	pulse	1.0	t		28.0	male	east_asian	1.5563072025467568	smiling	005	sub-08	1.0	4.0	005_smiling	0.0		146.32785091426194	
18.0	114.10150258147769	pulse	1.0	t		28.0	male	east_asian	1.5563072025467568	smiling	005	sub-08	1.0	4.0	005_smiling	0.0		147.0278350969802	
18.0	114.80148917904626	pulse	1.0	t		28.0	male	east_asian	1.5563072025467568	smiling	005	sub-08	1.0	4.0	005_smiling	0.0		147.72782169454877	
18.0	115.50147124876821	pulse	1.0	t		28.0	male	east_asian	1.5563072025467568	smiling	005	sub-08	1.0	4.0	005_smiling	0.0		148.42780376427072	
18.0	116.20145331849017	pulse	1.0	t		28.0	male	east_asian	1.5563072025467568	smiling	005	sub-08	1.0	4.0	005_smiling	0.0		149.12778583399268	
18.0	116.90145470703101	pulse	1.0	t		28.0	male	east_asian	1.5563072025467568	smiling	005	sub-08	1.0	4.0	005_smiling	0.0		149.82778722253352	
19.0	117.01799457382731	face	0.0		146	37.0	male	white	3.898925586947871	neutral	101	sub-08	1.0	4.0	101_neutral	0.0		149.94432708932982	1.2333351042252616
19.0	117.60145217143508	pulse	0.0	t		37.0	male	white	3.898925586947871	neutral	101	sub-08	1.0	4.0	101_neutral	0.0		150.5277846869376	
19.0	118.25132967805257	fix	1.0		443	37.0	male	white	3.898925586947871	neutral	101	sub-08	1.0	4.0	101_neutral	0.0		151.17766219355508	3.7665990910481923
19.0	118.30143424115704	pulse	1.0	t		37.0	male	white	3.898925586947871	neutral	101	sub-08	1.0	4.0	101_neutral	0.0		151.22776675665955	
19.0	119.00142868699731	pulse	1.0	t		37.0	male	white	3.898925586947871	neutral	101	sub-08	1.0	4.0	101_neutral	0.0		151.92776120249982	
19.0	119.70141317156958	pulse	1.0	t		37.0	male	white	3.898925586947871	neutral	101	sub-08	1.0	4.0	101_neutral	0.0		152.6277456870721	
19.0	120.40139403386638	pulse	1.0	t		37.0	male	white	3.898925586947871	neutral	101	sub-08	1.0	4.0	101_neutral	0.0		153.3277265493689	
19.0	121.10138636671036	pulse	1.0	t		37.0	male	white	3.898925586947871	neutral	101	sub-08	1.0	4.0	101_neutral	0.0		154.02771888221287	
19.0	121.80138503854141	pulse	1.0	t		37.0	male	white	3.898925586947871	neutral	101	sub-08	1.0	4.0	101_neutral	0.0		154.72771755404392	
20.0	122.01792876910076	face	0.0		145	20.0	male	black	2.609629924393156	neutral	043	sub-08	1.0	4.0	043_neutral	0.0		154.94426128460327	1.2333221243952721
20.0	122.50137646581607	pulse	0.0	t		20.0	male	black	2.609629924393156	neutral	043	sub-08	1.0	4.0	043_neutral	0.0		155.42770898131857	
20.0	123.20134314085408	pulse	0.0	t		20.0	male	black	2.609629924393156	neutral	043	sub-08	1.0	4.0	043_neutral	0.0		156.1276756563566	
20.0	123.25125089349604	fix	1.0		1186	20.0	male	black	2.609629924393156	neutral	043	sub-08	1.0	4.0	043_neutral	0.0		156.17758340899854	10.016505213665369
20.0	123.9013689797739	pulse	1.0	t		20.0	male	black	2.609629924393156	neutral	043	sub-08	1.0	4.0	043_neutral	0.0		156.82770149527641	
20.0	124.60132871211135	pulse	1.0	t		20.0	male	black	2.609629924393156	neutral	043	sub-08	1.0	4.0	043_neutral	0.0		157.52766122761386	
20.0	125.30130806512352	pulse	1.0	t		20.0	male	black	2.609629924393156	neutral	043	sub-08	1.0	4.0	043_neutral	0.0		158.22764058062603	
20.0	126.0013097555202	pulse	1.0	t		20.0	male	black	2.609629924393156	neutral	043	sub-08	1.0	4.0	043_neutral	0.0		158.9276422710227	
20.0	126.70129846608506	pulse	1.0	t		20.0	male	black	2.609629924393156	neutral	043	sub-08	1.0	4.0	043_neutral	0.0		159.62763098158757	
20.0	127.4012926100695	pulse	1.0	t		20.0	male	black	2.609629924393156	neutral	043	sub-08	1.0	4.0	043_neutral	0.0		160.327625125572	
20.0	128.10128041506505	pulse	1.0	t		20.0	male	black	2.609629924393156	neutral	043	sub-08	1.0	4.0	043_neutral	0.0		161.02761293056756	
20.0	128.80127999246542	pulse	1.0	t		20.0	male	black	2.609629924393156	neutral	043	sub-08	1.0	4.0	043_neutral	0.0		161.72761250796793	
20.0	129.50127474016153	pulse	1.0	t		20.0	male	black	2.609629924393156	neutral	043	sub-08	1.0	4.0	043_neutral	0.0		162.42760725566404	
20.0	130.2012359817818	pulse	1.0	t		20.0	male	black	2.609629924393156	neutral	043	sub-08	1.0	4.0	043_neutral	0.0		163.1275684972843	
20.0	130.90123012576623	pulse	1.0	t		20.0	male	black	2.609629924393156	neutral	043	sub-08	1.0	4.0	043_neutral	0.0		163.82756264126874	
20.0	131.6012245716047	pulse	1.0	t		20.0	male	black	2.609629924393156	neutral	043	sub-08	1.0	4.0	043_neutral	0.0		164.5275570871072	
20.0	132.3012208285836	pulse	1.0	t		20.0	male	black	2.609629924393156	neutral	043	sub-08	1.0	4.0	043_neutral	0.0		165.22755334408612	
20.0	133.00121074657545	pulse	1.0	t		20.0	male	black	2.609629924393156	neutral	043	sub-08	1.0	4.0	043_neutral	0.0		165.92754326207796	
21.0	133.2677561071614	face	0.0		145	31.0	male	west_asian	1.9538400318344609	smiling	070	sub-08	1.0	4.0	070_smiling	0.0		166.1940886226639	1.2333124649849196
21.0	133.70120911655067	pulse	0.0	t		31.0	male	west_asian	1.9538400318344609	smiling	070	sub-08	1.0	4.0	070_smiling	0.0		166.62754163205318	
21.0	134.401188167707	pulse	0.0	t		31.0	male	west_asian	1.9538400318344609	smiling	070	sub-08	1.0	4.0	070_smiling	0.0		167.3275206832095	
21.0	134.50106857214632	fix	1.0		444	31.0	male	west_asian	1.9538400318344609	smiling	070	sub-08	1.0	4.0	070_smiling	0.0		167.42740108764883	3.7666102597413555
21.0	135.10117718012953	pulse	1.0	t		31.0	male	west_asian	1.9538400318344609	smiling	070	sub-08	1.0	4.0	070_smiling	0.0		168.02750969563203	
21.0	135.80117072039866	pulse	1.0	t		31.0	male	west_asian	1.9538400318344609	smiling	070	sub-08	1.0	4.0	070_smiling	0.0		168.72750323590117	
21.0	136.50115882725186	pulse	1.0	t		31.0	male	west_asian	1.9538400318344609	smiling	070	sub-08	1.0	4.0	070_smiling	0.0		169.42749134275437	
21.0	137.20115357494797	pulse	1.0	t		31.0	male	west_asian	1.9538400318344609	smiling	070	sub-08	1.0	4.0	070_smiling	0.0		170.12748609045047	
21.0	137.90114258736867	pulse	1.0	t		31.0	male	west_asian	1.9538400318344609	smiling	070	sub-08	1.0	4.0	070_smiling	0.0		170.82747510287118	
22.0	138.26767883188768	face	0.0		145	54.0	female	white	2.286908077994429	neutral	136	sub-08	1.0	4.0	136_neutral	0.0		171.1940113473902	1.2333290670940187
22.0	138.6011237515213	pulse	0.0	t		54.0	female	white	2.286908077994429	neutral	136	sub-08	1.0	4.0	136_neutral	0.0		171.5274562670238	
22.0	139.30110853795122	pulse	0.0	t		54.0	female	white	2.286908077994429	neutral	136	sub-08	1.0	4.0	136_neutral	0.0		172.22744105345373	
22.0	139.5010078989817	fix	1.0		444	54.0	female	white	2.286908077994429	neutral	136	sub-08	1.0	4.0	136_neutral	0.0		172.4273404144842	3.758262719027698
22.0	140.00109332438296	pulse	1.0	t		54.0	female	white	2.286908077994429	neutral	136	sub-08	1.0	4.0	136_neutral	0.0		172.92742583988547	
22.0	140.70109441106615	pulse	1.0	t		54.0	female	white	2.286908077994429	neutral	136	sub-08	1.0	4.0	136_neutral	0.0		173.62742692656866	
22.0	141.40108191420586	pulse	1.0	t		54.0	female	white	2.286908077994429	neutral	136	sub-08	1.0	4.0	136_neutral	0.0		174.32741442970837	
22.0	142.10107183219588	pulse	1.0	t		54.0	female	white	2.286908077994429	neutral	136	sub-08	1.0	4.0	136_neutral	0.0		175.0274043476984	
22.0	142.80106325947054	pulse	1.0	t		54.0	female	white	2.286908077994429	neutral	136	sub-08	1.0	4.0	136_neutral	0.0		175.72739577497305	
23.0	143.2592706180094	face	0.0		146	28.0	male	white	3.9076800636689217	smiling	033	sub-08	1.0	4.0	033_smiling	0.0		176.1856031335119	1.2416609112678998
23.0	143.5010776278432	pulse	0.0	t		28.0	male	white	3.9076800636689217	smiling	033	sub-08	1.0	4.0	033_smiling	0.0		176.4274101433457	
23.0	144.20104701958917	pulse	0.0	t		28.0	male	white	3.9076800636689217	smiling	033	sub-08	1.0	4.0	033_smiling	0.0		177.12737953509168	
23.0	144.5009315292773	fix	1.0		444	28.0	male	white	3.9076800636689217	smiling	033	sub-08	1.0	4.0	033_smiling	0.0		177.4272640447798	3.758290791685795
23.0	144.90103361715956	pulse	1.0	t		28.0	male	white	3.9076800636689217	smiling	033	sub-08	1.0	4.0	033_smiling	0.0		177.82736613266206	
23.0	145.60101689430667	pulse	1.0	t		28.0	male	white	3.9076800636689217	smiling	033	sub-08	1.0	4.0	033_smiling	0.0		178.52734940980918	
23.0	146.30100922715064	pulse	1.0	t		28.0	male	white	3.9076800636689217	smiling	033	sub-08	1.0	4.0	033_smiling	0.0		179.22734174265315	
23.0	147.00099944699832	pulse	1.0	t		28.0	male	white	3.9076800636689217	smiling	033	sub-08	1.0	4.0	033_smiling	0.0		179.92733196250083	
23.0	147.70098755385152	pulse	1.0	t		28.0	male	white	3.9076800636689217	smiling	033	sub-08	1.0	4.0	033_smiling	0.0		180.62732006935403	
24.0	148.2592223209631	face	0.0		146	20.0	female	white	3.9502586549940313	neutral	091	sub-08	1.0	4.0	091_neutral	0.0		181.1855548364656	1.241632234898134
24.0	148.40098441454393	pulse	0.0	t		20.0	female	white	3.9502586549940313	neutral	091	sub-08	1.0	4.0	091_neutral	0.0		181.32731693004644	
24.0	149.10096769169104	pulse	0.0	t		20.0	female	white	3.9502586549940313	neutral	091	sub-08	1.0	4.0	091_neutral	0.0		182.02730020719355	
24.0	149.50085455586122	fix	1.0		444	20.0	female	white	3.9502586549940313	neutral	091	sub-08	1.0	4.0	091_neutral	0.0		182.42718707136373	3.7665981854788697
24.0	149.80095157255164	pulse	1.0	t		20.0	female	white	3.9502586549940313	neutral	091	sub-08	1.0	4.0	091_neutral	0.0		182.72728408805415	
24.0	150.50092911442516	pulse	1.0	t		20.0	female	white	3.9502586549940313	neutral	091	sub-08	1.0	4.0	091_neutral	0.0		183.42726162992767	
24.0	151.2009196361305	pulse	1.0	t		20.0	female	white	3.9502586549940313	neutral	091	sub-08	1.0	4.0	091_neutral	0.0		184.127252151633	
24.0	151.90092796737008	pulse	1.0	t		20.0	female	white	3.9502586549940313	neutral	091	sub-08	1.0	4.0	091_neutral	0.0		184.8272604828726	
24.0	152.6009142630828	pulse	1.0	t		20.0	female	white	3.9502586549940313	neutral	091	sub-08	1.0	4.0	091_neutral	0.0		185.52724677858532	
25.0	153.2674527413401	face	0.0		145	24.0	female	black	3.0955033824114606	neutral	099	sub-08	1.0	4.0	099_neutral	0.0		186.1937852568426	1.233328161524696
25.0	153.30096364681413	pulse	0.0	t		24.0	female	black	3.0955033824114606	neutral	099	sub-08	1.0	4.0	099_neutral	0.0		186.22729616231663	
25.0	154.0008962120628	pulse	0.0	t		24.0	female	black	3.0955033824114606	neutral	099	sub-08	1.0	4.0	099_neutral	0.0		186.9272287275653	
25.0	154.5007809028648	fix	1.0		443	24.0	female	black	3.0955033824114606	neutral	099	sub-08	1.0	4.0	099_neutral	0.0		187.4271134183673	3.766595468770902
25.0	154.7008873374798	pulse	1.0	t		24.0	female	black	3.0955033824114606	neutral	099	sub-08	1.0	4.0	099_neutral	0.0		187.6272198529823	
25.0	155.40086729420545	pulse	1.0	t		24.0	female	black	3.0955033824114606	neutral	099	sub-08	1.0	4.0	099_neutral	0.0		188.32719980970796	
25.0	156.10085358992	pulse	1.0	t		24.0	female	black	3.0955033824114606	neutral	099	sub-08	1.0	4.0	099_neutral	0.0		189.02718610542252	
25.0	156.80085588402835	pulse	1.0	t		24.0	female	black	3.0955033824114606	neutral	099	sub-08	1.0	4.0	099_neutral	0.0		189.72718839953086	
25.0	157.5008270869148	pulse	1.0	t		24.0	female	black	3.0955033824114606	neutral	099	sub-08	1.0	4.0	099_neutral	0.0		190.4271596024173	
25.0	158.200826664317	pulse	1.0	t		24.0	female	black	3.0955033824114606	neutral	099	sub-08	1.0	4.0	099_neutral	0.0		191.1271591798195	
26.0	158.2673763716357	face	0.0		146	40.0	female	west_asian	1.5777954635893354	smiling	038	sub-08	1.0	4.0	038_smiling	0.0		191.1937088871382	1.233311559415597
26.0	158.90082412872107	pulse	0.0	t		40.0	female	west_asian	1.5777954635893354	smiling	038	sub-08	1.0	4.0	038_smiling	0.0		191.82715664422358	
26.0	159.5006879310513	fix	1.0		443	40.0	female	west_asian	1.5777954635893354	smiling	038	sub-08	1.0	4.0	038_smiling	0.0		192.4270204465538	3.758301960377139
26.0	159.60080287802157	pulse	1.0	t		40.0	female	west_asian	1.5777954635893354	smiling	038	sub-08	1.0	4.0	038_smiling	0.0		192.52713539352408	
26.0	160.30079098487295	pulse	1.0	t		40.0	female	west_asian	1.5777954635893354	smiling	038	sub-08	1.0	4.0	038_smiling	0.0		193.22712350037546	
26.0	161.00077697872985	pulse	1.0	t		40.0	female	west_asian	1.5777954635893354	smiling	038	sub-08	1.0	4.0	038_smiling	0.0		193.92710949423235	
26.0	161.70076719857752	pulse	1.0	t		40.0	female	west_asian	1.5777954635893354	smiling	038	sub-08	1.0	4.0	038_smiling	0.0		194.62709971408003	
26.0	162.40076134256196	pulse	1.0	t		40.0	female	west_asian	1.5777954635893354	smiling	038	sub-08	1.0	4.0	038_smiling	0.0		195.32709385806447	
26.0	163.10075065684032	pulse	1.0	t		40.0	female	west_asian	1.5777954635893354	smiling	038	sub-08	1.0	4.0	038_smiling	0.0		196.02708317234283	
27.0	163.25898989142843	face	0.0		147	19.0	male	white	2.243931555909272	smiling	130	sub-08	1.0	4.0	130_smiling	0.0		196.18532240693094	1.2416409887373447
27.0	163.80075083795418	pulse	0.0	t		19.0	male	white	2.243931555909272	smiling	130	sub-08	1.0	4.0	130_smiling	0.0		196.7270833534567	
27.0	164.50063088016577	fix	1.0		444	19.0	male	white	2.243931555909272	smiling	130	sub-08	1.0	4.0	130_smiling	0.0		197.42696339566828	3.7665743388133706
27.0	164.50796056063155	pulse	1.0	t		19.0	male	white	2.243931555909272	smiling	130	sub-08	1.0	4.0	130_smiling	0.0		197.43429307613405	
27.0	165.20072463680663	pulse	1.0	t		19.0	male	white	2.243931555909272	smiling	130	sub-08	1.0	4.0	130_smiling	0.0		198.12705715230913	
27.0	165.90070157496666	pulse	1.0	t		19.0	male	white	2.243931555909272	smiling	130	sub-08	1.0	4.0	130_smiling	0.0		198.82703409046917	
27.0	166.60070477464615	pulse	1.0	t		19.0	male	white	2.243931555909272	smiling	130	sub-08	1.0	4.0	130_smiling	0.0		199.52703729014866	
27.0	167.30068986293372	pulse	1.0	t		19.0	male	white	2.243931555909272	smiling	130	sub-08	1.0	4.0	130_smiling	0.0		200.22702237843623	
27.0	168.0006758567888	pulse	1.0	t		19.0	male	white	2.243931555909272	smiling	130	sub-08	1.0	4.0	130_smiling	0.0		200.9270083722913	
28.0	168.26720521897914	face	0.0		145	20.0	female	white	3.9502586549940313	smiling	091	sub-08	1.0	4.0	091_smiling	0.0		201.19353773448165	1.2333311800903175
28.0	168.70066818963278	pulse	0.0	t		20.0	female	white	3.9502586549940313	smiling	091	sub-08	1.0	4.0	091_smiling	0.0		201.6270007051353	
28.0	169.40064090180203	pulse	0.0	t		20.0	female	white	3.9502586549940313	smiling	091	sub-08	1.0	4.0	091_smiling	0.0		202.32697341730454	
28.0	169.50053639906946	fix	1.0		444	20.0	female	white	3.9502586549940313	smiling	091	sub-08	1.0	4.0	091_smiling	0.0		202.42686891457197	3.7583879894900747
28.0	170.10064712004714	pulse	1.0	t		20.0	female	white	3.9502586549940313	smiling	091	sub-08	1.0	4.0	091_smiling	0.0		203.02697963554965	
28.0	170.8006328120464	pulse	1.0	t		20.0	female	white	3.9502586549940313	smiling	091	sub-08	1.0	4.0	091_smiling	0.0		203.7269653275489	
28.0	171.50061608919532	pulse	1.0	t		20.0	female	white	3.9502586549940313	smiling	091	sub-08	1.0	4.0	091_smiling	0.0		204.42694860469783	
28.0	172.20061174246075	pulse	1.0	t		20.0	female	white	3.9502586549940313	smiling	091	sub-08	1.0	4.0	091_smiling	0.0		205.12694425796326	
28.0	172.90060437716056	pulse	1.0	t		20.0	female	white	3.9502586549940313	smiling	091	sub-08	1.0	4.0	091_smiling	0.0		205.82693689266307	
29.0	173.25892438855954	face	0.0		146	32.0	male	white	2.389176283326701	smiling	092	sub-08	1.0	4.0	092_smiling	0.0		206.18525690406204	1.2415371500883339
29.0	173.60060244527995	pulse	0.0	t		32.0	male	white	2.389176283326701	smiling	092	sub-08	1.0	4.0	092_smiling	0.0		206.52693496078246	
29.0	174.30057606301853	pulse	0.0	t		32.0	male	white	2.389176283326701	smiling	092	sub-08	1.0	4.0	092_smiling	0.0		207.22690857852103	
29.0	174.50046153864787	fix	1.0		444	32.0	male	white	2.389176283326701	smiling	092	sub-08	1.0	4.0	092_smiling	0.0		207.42679405415038	3.766609354172033
29.0	175.00057896084036	pulse	1.0	t		32.0	male	white	2.389176283326701	smiling	092	sub-08	1.0	4.0	092_smiling	0.0		207.92691147634287	
29.0	175.70055680457153	pulse	1.0	t		32.0	male	white	2.389176283326701	smiling	092	sub-08	1.0	4.0	092_smiling	0.0		208.62688932007404	
29.0	176.4005434021401	pulse	1.0	t		32.0	male	white	2.389176283326701	smiling	092	sub-08	1.0	4.0	092_smiling	0.0		209.3268759176426	
29.0	177.10054629996375	pulse	1.0	t		32.0	male	white	2.389176283326701	smiling	092	sub-08	1.0	4.0	092_smiling	0.0		210.02687881546626	
29.0	177.80053229382065	pulse	1.0	t		32.0	male	white	2.389176283326701	smiling	092	sub-08	1.0	4.0	092_smiling	0.0		210.72686480932316	
30.0	178.2670708928199	face	0.0		145	21.0	male	east_asian/white	3.501790688420215	neutral	036	sub-08	1.0	4.0	036_neutral	0.0		211.1934034083224	1.233330878232664
30.0	178.50053639906946	pulse	0.0	t		21.0	male	east_asian/white	3.501790688420215	neutral	036	sub-08	1.0	4.0	036_neutral	0.0		211.42686891457197	
30.0	179.20050277224982	pulse	0.0	t		21.0	male	east_asian/white	3.501790688420215	neutral	036	sub-08	1.0	4.0	036_neutral	0.0		212.12683528775233	
30.0	179.50040177105257	fix	1.0		444	21.0	male	east_asian/white	3.501790688420215	neutral	036	sub-08	1.0	4.0	036_neutral	0.0		212.42673428655507	3.7583430128670443
30.0	179.9005065756428	pulse	1.0	t		21.0	male	east_asian/white	3.501790688420215	neutral	036	sub-08	1.0	4.0	036_neutral	0.0		212.8268390911453	
30.0	180.60048291008934	pulse	1.0	t		21.0	male	east_asian/white	3.501790688420215	neutral	036	sub-08	1.0	4.0	036_neutral	0.0		213.52681542559185	
30.0	181.30046286681682	pulse	1.0	t		21.0	male	east_asian/white	3.501790688420215	neutral	036	sub-08	1.0	4.0	036_neutral	0.0		214.22679538231932	
30.0	182.00046636835214	pulse	1.0	t		21.0	male	east_asian/white	3.501790688420215	neutral	036	sub-08	1.0	4.0	036_neutral	0.0		214.92679888385464	
30.0	182.70045900305195	pulse	1.0	t		21.0	male	east_asian/white	3.501790688420215	neutral	036	sub-08	1.0	4.0	036_neutral	0.0		215.62679151855446	
31.0	183.2587447839196	face	0.0		146	27.0	female	white	4.181058495821727	neutral	039	sub-08	1.0	4.0	039_neutral	1.0	dominance	216.18507729942212	1.2415646190329426
31.0	183.4004531470364	pulse	0.0	t		27.0	female	white	4.181058495821727	neutral	039	sub-08	1.0	4.0	039_neutral	1.0	dominance	216.3267856625389	
31.0	184.10043099076574	pulse	0.0	t		27.0	female	white	4.181058495821727	neutral	039	sub-08	1.0	4.0	039_neutral	1.0	dominance	217.02676350626825	
31.0	184.50030940295255	fix	1.0		177	27.0	female	white	4.181058495821727	neutral	039	sub-08	1.0	4.0	039_neutral	1.0	dominance	217.42664191845506	1.4999912461589702
31.0	184.8004203050441	pulse	1.0	t		27.0	female	white	4.181058495821727	neutral	039	sub-08	1.0	4.0	039_neutral	1.0	dominance	217.7267528205466	
31.0	185.5003969413483	pulse	1.0	t		27.0	female	white	4.181058495821727	neutral	039	sub-08	1.0	4.0	039_neutral	1.0	dominance	218.4267294568508	
31.0	186.00030064911152	rating	2.0		294	27.0	female	white	4.181058495821727	neutral	039	sub-08	1.0	4.0	039_neutral	1.0	dominance	218.92663316461403	2.4999523066671827
31.0	186.20039259461373	pulse	2.0	t		27.0	female	white	4.181058495821727	neutral	039	sub-08	1.0	4.0	039_neutral	1.0	dominance	219.12672511011624	
31.0	186.90040273699378	pulse	2.0	t		27.0	female	white	4.181058495821727	neutral	039	sub-08	1.0	4.0	039_neutral	1.0	dominance	219.8267352524963	
31.0	187.18689809806165	response	2.0	w		27.0	female	white	4.181058495821727	neutral	039	sub-08	1.0	4.0	039_neutral	1.0	dominance	220.11323061356416	
31.0	187.60036246933123	pulse	2.0	t		27.0	female	white	4.181058495821727	neutral	039	sub-08	1.0	4.0	039_neutral	1.0	dominance	220.52669498483374	
31.0	188.3003548021752	pulse	2.0	t		27.0	female	white	4.181058495821727	neutral	039	sub-08	1.0	4.0	039_neutral	1.0	dominance	221.22668731767772	
31.0	188.5002529557787	fix	3.0		444	27.0	female	white	4.181058495821727	neutral	039	sub-08	1.0	4.0	039_neutral	1.0	dominance	221.42658547128121	3.766607241177553
31.0	189.00035468143324	pulse	3.0	t		27.0	female	white	4.181058495821727	neutral	039	sub-08	1.0	4.0	039_neutral	1.0	dominance	221.92668719693575	
31.0	189.70033826043618	pulse	3.0	t		27.0	female	white	4.181058495821727	neutral	039	sub-08	1.0	4.0	039_neutral	1.0	dominance	222.6266707759387	
31.0	190.40031942458882	pulse	3.0	t		27.0	female	white	4.181058495821727	neutral	039	sub-08	1.0	4.0	039_neutral	1.0	dominance	223.32665194009132	
31.0	191.10030662587087	pulse	3.0	t		27.0	female	white	4.181058495821727	neutral	039	sub-08	1.0	4.0	039_neutral	1.0	dominance	224.02663914137338	
31.0	191.80031103297733	pulse	3.0	t		27.0	female	white	4.181058495821727	neutral	039	sub-08	1.0	4.0	039_neutral	1.0	dominance	224.72664354847984	
32.0	192.26686019695626	face	0.0		145	30.0	female	black	2.7345801830481498	smiling	062	sub-08	1.0	4.0	062_smiling	0.0		225.19319271245877	1.2333212188241305
32.0	192.50033807932232	pulse	0.0	t		30.0	female	black	2.7345801830481498	smiling	062	sub-08	1.0	4.0	062_smiling	0.0		225.42667059482483	
32.0	193.20029207638618	pulse	0.0	t		30.0	female	black	2.7345801830481498	smiling	062	sub-08	1.0	4.0	062_smiling	0.0		226.12662459188869	
32.0	193.5001814157804	fix	1.0		444	30.0	female	black	2.7345801830481498	smiling	062	sub-08	1.0	4.0	062_smiling	0.0		226.4265139312829	3.766587922356848
32.0	193.9002804850952	pulse	1.0	t		30.0	female	black	2.7345801830481498	smiling	062	sub-08	1.0	4.0	062_smiling	0.0		226.82661300059772	
32.0	194.6002785532146	pulse	1.0	t		30.0	female	black	2.7345801830481498	smiling	062	sub-08	1.0	4.0	062_smiling	0.0		227.5266110687171	
32.0	195.30025126538203	pulse	1.0	t		30.0	female	black	2.7345801830481498	smiling	062	sub-08	1.0	4.0	062_smiling	0.0		228.22658378088454	
32.0	196.00024450379533	pulse	1.0	t		30.0	female	black	2.7345801830481498	smiling	062	sub-08	1.0	4.0	062_smiling	0.0		228.92657701929784	
32.0	196.7002353273565	pulse	1.0	t		30.0	female	black	2.7345801830481498	smiling	062	sub-08	1.0	4.0	062_smiling	0.0		229.626567842859	
33.0	197.26676933813724	face	0.0		145	23.0	male	white	2.6275368085953046	neutral	141	sub-08	1.0	4.0	141_neutral	0.0		230.19310185363975	1.233330878232664
33.0	197.40023460290104	pulse	0.0	t		23.0	male	white	2.6275368085953046	neutral	141	sub-08	1.0	4.0	141_neutral	0.0		230.32656711840355	
33.0	198.10021516334018	pulse	0.0	t		23.0	male	white	2.6275368085953046	neutral	141	sub-08	1.0	4.0	141_neutral	0.0		231.0265476788427	
33.0	198.5001002163699	fix	1.0		444	23.0	male	white	2.6275368085953046	neutral	141	sub-08	1.0	4.0	141_neutral	0.0		231.4264327318724	3.766576149953835
33.0	198.80020659061483	pulse	1.0	t		23.0	male	white	2.6275368085953046	neutral	141	sub-08	1.0	4.0	141_neutral	0.0		231.72653910611734	
33.0	199.50019469746803	pulse	1.0	t		23.0	male	white	2.6275368085953046	neutral	141	sub-08	1.0	4.0	141_neutral	0.0		232.42652721297054	
33.0	200.20018823773717	pulse	1.0	t		23.0	male	white	2.6275368085953046	neutral	141	sub-08	1.0	4.0	141_neutral	0.0		233.12652075323967	
33.0	200.90018177800812	pulse	1.0	t		23.0	male	white	2.6275368085953046	neutral	141	sub-08	1.0	4.0	141_neutral	0.0		233.82651429351063	
33.0	201.60017320528095	pulse	1.0	t		23.0	male	white	2.6275368085953046	neutral	141	sub-08	1.0	4.0	141_neutral	0.0		234.52650572078346	
34.0	202.26667636632374	face	0.0		145	54.0	female	white	2.286908077994429	smiling	136	sub-08	1.0	4.0	136_smiling	0.0		235.19300888182624	1.2333526119036833
34.0	202.3001573879992	pulse	0.0	t		54.0	female	white	2.286908077994429	smiling	136	sub-08	1.0	4.0	136_smiling	0.0		235.22648990350172	
34.0	203.000139759577	pulse	0.0	t		54.0	female	white	2.286908077994429	smiling	136	sub-08	1.0	4.0	136_smiling	0.0		235.9264722750795	
34.0	203.50002897822742	fix	1.0		443	54.0	female	white	2.286908077994429	smiling	136	sub-08	1.0	4.0	136_smiling	0.0		236.42636149372993	3.7666042226119316
34.0	203.70013420541727	pulse	1.0	t		54.0	female	white	2.286908077994429	smiling	136	sub-08	1.0	4.0	136_smiling	0.0		236.62646672091978	
34.0	204.4001325753925	pulse	1.0	t		54.0	female	white	2.286908077994429	smiling	136	sub-08	1.0	4.0	136_smiling	0.0		237.326465090895	
34.0	205.1001152488261	pulse	1.0	t		54.0	female	white	2.286908077994429	smiling	136	sub-08	1.0	4.0	136_smiling	0.0		238.02644776432862	
34.0	205.80009490369594	pulse	1.0	t		54.0	female	white	2.286908077994429	smiling	136	sub-08	1.0	4.0	136_smiling	0.0		238.72642741919844	
34.0	206.5001059516453	pulse	1.0	t		54.0	female	white	2.286908077994429	smiling	136	sub-08	1.0	4.0	136_smiling	0.0		239.42643846714782	
34.0	207.2000862102268	pulse	1.0	t		54.0	female	white	2.286908077994429	smiling	136	sub-08	1.0	4.0	136_smiling	0.0		240.1264187257293	
35.0	207.26663320083935	face	0.0		146	28.0	female	white	5.676880222841227	neutral	124	sub-08	1.0	4.0	124_neutral	0.0		240.19296571634186	1.2333335949406319
35.0	207.90004956484336	pulse	0.0	t		28.0	female	white	5.676880222841227	neutral	124	sub-08	1.0	4.0	124_neutral	0.0		240.82638208034587	
35.0	208.49996679577998	fix	1.0		443	28.0	female	white	5.676880222841227	neutral	124	sub-08	1.0	4.0	124_neutral	0.0		241.4262993112825	3.758335768310644
35.0	208.60007812047297	pulse	1.0	t		28.0	female	white	5.676880222841227	neutral	124	sub-08	1.0	4.0	124_neutral	0.0		241.52641063597548	
35.0	209.30004388993984	pulse	1.0	t		28.0	female	white	5.676880222841227	neutral	124	sub-08	1.0	4.0	124_neutral	0.0		242.22637640544235	
35.0	210.00002988379674	pulse	1.0	t		28.0	female	white	5.676880222841227	neutral	124	sub-08	1.0	4.0	124_neutral	0.0		242.92636239929925	
35.0	210.70003187605107	pulse	1.0	t		28.0	female	white	5.676880222841227	neutral	124	sub-08	1.0	4.0	124_neutral	0.0		243.62636439155358	
35.0	211.40007914678426	pulse	1.0	t		28.0	female	white	5.676880222841227	neutral	124	sub-08	1.0	4.0	124_neutral	0.0		244.32641166228677	
35.0	212.1000129194599	pulse	1.0	t		28.0	female	white	5.676880222841227	neutral	124	sub-08	1.0	4.0	124_neutral	0.0		245.02634543496242	
36.0	212.25830256409063	face	0.0		147	47.0	male	east_asian	2.171110226820533	smiling	024	sub-08	1.0	4.0	024_smiling	0.0		245.18463507959314	1.241586352703962
36.0	212.8000067615867	pulse	0.0	t		47.0	male	east_asian	2.171110226820533	smiling	024	sub-08	1.0	4.0	024_smiling	0.0		245.7263392770892	
36.0	213.4998889167946	fix	1.0		444	47.0	male	east_asian	2.171110226820533	smiling	024	sub-08	1.0	4.0	024_smiling	0.0		246.4262214322971	3.7665915446359577
36.0	213.50740152232356	pulse	1.0	t		47.0	male	east_asian	2.171110226820533	smiling	024	sub-08	1.0	4.0	024_smiling	0.0		246.43373403782607	
36.0	214.19998086229498	pulse	1.0	t		47.0	male	east_asian	2.171110226820533	smiling	024	sub-08	1.0	4.0	024_smiling	0.0		247.1263133777975	
36.0	214.89996715800953	pulse	1.0	t		47.0	male	east_asian	2.171110226820533	smiling	024	sub-08	1.0	4.0	024_smiling	0.0		247.82629967351204	
36.0	215.5999573778572	pulse	1.0	t		47.0	male	east_asian	2.171110226820533	smiling	024	sub-08	1.0	4.0	024_smiling	0.0		248.52628989335972	
36.0	216.29994306985645	pulse	1.0	t		47.0	male	east_asian	2.171110226820533	smiling	024	sub-08	1.0	4.0	024_smiling	0.0		249.22627558535896	
36.0	216.99993842126605	pulse	1.0	t		47.0	male	east_asian	2.171110226820533	smiling	024	sub-08	1.0	4.0	024_smiling	0.0		249.92627093676856	
37.0	217.26648046143055	face	0.0		145	20.0	male	black	3.1070433744528456	neutral	082	sub-08	1.0	4.0	082_neutral	0.0		250.19281297693306	1.233330878232664
37.0	217.69993377267565	pulse	0.0	t		20.0	male	black	3.1070433744528456	neutral	082	sub-08	1.0	4.0	082_neutral	0.0		250.62626628817816	
37.0	218.39990980526636	pulse	0.0	t		20.0	male	black	3.1070433744528456	neutral	082	sub-08	1.0	4.0	082_neutral	0.0		251.32624232076887	
37.0	218.4998113396632	fix	1.0		444	20.0	male	black	3.1070433744528456	neutral	082	sub-08	1.0	4.0	082_neutral	0.0		251.42614385516572	3.7665942613457446
37.0	219.09991179751887	pulse	1.0	t		20.0	male	black	3.1070433744528456	neutral	082	sub-08	1.0	4.0	082_neutral	0.0		252.02624431302138	
37.0	219.79988632082677	pulse	1.0	t		20.0	male	black	3.1070433744528456	neutral	082	sub-08	1.0	4.0	082_neutral	0.0		252.72621883632928	
37.0	220.49986657941008	pulse	1.0	t		20.0	male	black	3.1070433744528456	neutral	082	sub-08	1.0	4.0	082_neutral	0.0		253.4261990949126	
37.0	221.1998592141099	pulse	1.0	t		20.0	male	black	3.1070433744528456	neutral	082	sub-08	1.0	4.0	082_neutral	0.0		254.1261917296124	
37.0	221.89986362121635	pulse	1.0	t		20.0	male	black	3.1070433744528456	neutral	082	sub-08	1.0	4.0	082_neutral	0.0		254.82619613671886	
38.0	222.26640560100896	face	0.0		145	19.0	male	white	3.2522881018702745	neutral	018	sub-08	1.0	4.0	018_neutral	0.0		255.19273811651146	1.233324841101421
38.0	222.59985746334314	pulse	0.0	t		19.0	male	white	3.2522881018702745	neutral	018	sub-08	1.0	4.0	018_neutral	0.0		255.52618997884565	
38.0	223.2998286662296	pulse	0.0	t		19.0	male	white	3.2522881018702745	neutral	018	sub-08	1.0	4.0	018_neutral	0.0		256.2261611817321	
38.0	223.49973044211038	fix	1.0		444	19.0	male	white	3.2522881018702745	neutral	018	sub-08	1.0	4.0	018_neutral	0.0		256.4260629576129	3.758301960377139
38.0	223.99983880860782	pulse	1.0	t		19.0	male	white	3.2522881018702745	neutral	018	sub-08	1.0	4.0	018_neutral	0.0		256.9261713241103	
38.0	224.69980638921697	pulse	1.0	t		19.0	male	white	3.2522881018702745	neutral	018	sub-08	1.0	4.0	018_neutral	0.0		257.6261389047195	
38.0	225.39979570349533	pulse	1.0	t		19.0	male	white	3.2522881018702745	neutral	018	sub-08	1.0	4.0	018_neutral	0.0		258.32612821899784	
38.0	226.0997937716129	pulse	1.0	t		19.0	male	white	3.2522881018702745	neutral	018	sub-08	1.0	4.0	018_neutral	0.0		259.0261262871154	
38.0	226.79978218032193	pulse	1.0	t		19.0	male	white	3.2522881018702745	neutral	018	sub-08	1.0	4.0	018_neutral	0.0		259.72611469582444	
39.0	227.25803240248752	face	0.0		146	31.0	female	white	2.1822522881018704	neutral	102	sub-08	1.0	4.0	102_neutral	0.0		260.18436491799	1.2416271033362136
39.0	227.49978568185725	pulse	0.0	t		31.0	female	white	2.1822522881018704	neutral	102	sub-08	1.0	4.0	102_neutral	0.0		260.42611819735976	
39.0	228.1997583940265	pulse	0.0	t		31.0	female	white	2.1822522881018704	neutral	102	sub-08	1.0	4.0	102_neutral	0.0		261.126090909529	
39.0	228.49965950582373	fix	1.0		444	31.0	female	white	2.1822522881018704	neutral	102	sub-08	1.0	4.0	102_neutral	0.0		261.42599202132624	3.749940232406516
39.0	228.8997624992753	pulse	1.0	t		31.0	female	white	2.1822522881018704	neutral	102	sub-08	1.0	4.0	102_neutral	0.0		261.8260950147778	
39.0	229.59974275785862	pulse	1.0	t		31.0	female	white	2.1822522881018704	neutral	102	sub-08	1.0	4.0	102_neutral	0.0		262.52607527336113	
39.0	230.29973116656765	pulse	1.0	t		31.0	female	white	2.1822522881018704	neutral	102	sub-08	1.0	4.0	102_neutral	0.0		263.22606368207016	
39.0	230.9997189715632	pulse	1.0	t		31.0	female	white	2.1822522881018704	neutral	102	sub-08	1.0	4.0	102_neutral	0.0		263.9260514870657	
39.0	231.69970768212806	pulse	1.0	t		31.0	female	white	2.1822522881018704	neutral	102	sub-08	1.0	4.0	102_neutral	0.0		264.6260401976306	
40.0	232.24959973823024	fix	0.0		720													265.17593225373275	5.999893444641202
40.0	232.39970846695542	pulse	0.0	t														265.3260409824579	
40.0	233.09967966984186	pulse	0.0	t														266.02601218534437	
40.0	233.79967592682078	pulse	0.0	t														266.7260084423233	
40.0	234.49965286498082	pulse	0.0	t														267.4259853804833	
40.0	235.19965123495604	pulse	0.0	t														268.12598375045854	
40.0	235.89964326594236	pulse	0.0	t														268.82597578144487	
40.0	236.59962895794342	pulse	0.0	t														269.52596147344593	
40.0	237.2996191777911	pulse	0.0	t														270.2259516932936	
40.0	237.99960909578294	pulse	0.0	t														270.92594161128545	
