trial_nr	onset	event_type	phase	response	nr_frames	face_age	face_sex	face_eth	attractiveness	expression	face_id	sub_id	ses	run	trial_type	catch	rating_type	onset_abs	duration
-1.0	0.05562878844284569	fix	0.0		714													25.682798092650046	5.966296001264709
-1.0	0.7055143408852018	pulse	0.0	t														26.332683645092402	
-1.0	1.4054945091429545	pulse	0.0	t														27.032663813350155	
-1.0	2.1054737718441174	pulse	0.0	t														27.732643076051318	
-1.0	2.805460882720581	pulse	0.0	t														28.43263018692778	
-1.0	3.505445880628031	pulse	0.0	t														29.13261518483523	
-1.0	4.205424539621163	pulse	0.0	t														29.832593843828363	
-1.0	4.905400783791265	pulse	0.0	t														30.532570087998465	
-1.0	5.6053936298758344	pulse	0.0	t														31.232562934083035	
0.0	6.021924789707555	face	0.0		144	28.0	female	white	5.676880222841227	neutral	124	sub-01	1.0	5.0	124_neutral	0.0		31.649094093914755	1.2332976442485233
0.0	6.305367459222907	pulse	0.0	t		28.0	female	white	5.676880222841227	neutral	124	sub-01	1.0	5.0	124_neutral	0.0		31.932536763430107	
0.0	7.005340986715964	pulse	0.0	t		28.0	female	white	5.676880222841227	neutral	124	sub-01	1.0	5.0	124_neutral	0.0		32.632510290923165	
0.0	7.255222433956078	fix	1.0		444	28.0	female	white	5.676880222841227	neutral	124	sub-01	1.0	5.0	124_neutral	0.0		32.88239173816328	3.7582338702595735
0.0	7.7053368513297755	pulse	1.0	t		28.0	female	white	5.676880222841227	neutral	124	sub-01	1.0	5.0	124_neutral	0.0		33.332506155536976	
0.0	8.405303436204122	pulse	1.0	t		28.0	female	white	5.676880222841227	neutral	124	sub-01	1.0	5.0	124_neutral	0.0		34.03247274041132	
0.0	9.105282095197254	pulse	1.0	t		28.0	female	white	5.676880222841227	neutral	124	sub-01	1.0	5.0	124_neutral	0.0		34.732451399404454	
0.0	9.805279469077504	pulse	1.0	t		28.0	female	white	5.676880222841227	neutral	124	sub-01	1.0	5.0	124_neutral	0.0		35.432448773284705	
0.0	10.50526476883715	pulse	1.0	t		28.0	female	white	5.676880222841227	neutral	124	sub-01	1.0	5.0	124_neutral	0.0		36.13243407304435	
1.0	11.013456304215651	face	0.0		146	27.0	male	black	3.5523278949462798	smiling	042	sub-01	1.0	5.0	042_smiling	1.0	trustworthiness	36.64062560842285	1.2416378422203707
1.0	11.205250370448994	pulse	0.0	t		27.0	male	black	3.5523278949462798	smiling	042	sub-01	1.0	5.0	042_smiling	1.0	trustworthiness	36.832419674656194	
1.0	11.905200353408873	pulse	0.0	t		27.0	male	black	3.5523278949462798	smiling	042	sub-01	1.0	5.0	042_smiling	1.0	trustworthiness	37.53236965761607	
1.0	12.255094146436022	fix	1.0		177	27.0	male	black	3.5523278949462798	smiling	042	sub-01	1.0	5.0	042_smiling	1.0	trustworthiness	37.88226345064322	1.508332802575751
1.0	12.605209499555713	pulse	1.0	t		27.0	male	black	3.5523278949462798	smiling	042	sub-01	1.0	5.0	042_smiling	1.0	trustworthiness	38.23237880376291	
1.0	13.305186347430208	pulse	1.0	t		27.0	male	black	3.5523278949462798	smiling	042	sub-01	1.0	5.0	042_smiling	1.0	trustworthiness	38.93235565163741	
1.0	13.763426949011773	rating	2.0		293	27.0	male	black	3.5523278949462798	smiling	042	sub-01	1.0	5.0	042_smiling	1.0	trustworthiness	39.39059625321897	2.4915597377621452
1.0	13.99998913329182	pulse	2.0	t		27.0	male	black	3.5523278949462798	smiling	042	sub-01	1.0	5.0	042_smiling	1.0	trustworthiness	39.62715843749902	
1.0	14.691619746135984	response	2.0	g		27.0	male	black	3.5523278949462798	smiling	042	sub-01	1.0	5.0	042_smiling	1.0	trustworthiness	40.318789050343184	
1.0	14.70775891967969	pulse	2.0	t		27.0	male	black	3.5523278949462798	smiling	042	sub-01	1.0	5.0	042_smiling	1.0	trustworthiness	40.33492822388689	
1.0	15.405132889267406	pulse	2.0	t		27.0	male	black	3.5523278949462798	smiling	042	sub-01	1.0	5.0	042_smiling	1.0	trustworthiness	41.03230219347461	
1.0	16.1051145667916	pulse	2.0	t		27.0	male	black	3.5523278949462798	smiling	042	sub-01	1.0	5.0	042_smiling	1.0	trustworthiness	41.7322838709988	
1.0	16.25498668677392	fix	3.0		444	27.0	male	black	3.5523278949462798	smiling	042	sub-01	1.0	5.0	042_smiling	1.0	trustworthiness	41.88215599098112	3.7582296443179075
1.0	16.805095942461776	pulse	3.0	t		27.0	male	black	3.5523278949462798	smiling	042	sub-01	1.0	5.0	042_smiling	1.0	trustworthiness	42.432265246668976	
1.0	17.505062829190138	pulse	3.0	t		27.0	male	black	3.5523278949462798	smiling	042	sub-01	1.0	5.0	042_smiling	1.0	trustworthiness	43.13223213339734	
1.0	18.205057184539328	pulse	3.0	t		27.0	male	black	3.5523278949462798	smiling	042	sub-01	1.0	5.0	042_smiling	1.0	trustworthiness	43.83222648874653	
1.0	18.905016826794963	pulse	3.0	t		27.0	male	black	3.5523278949462798	smiling	042	sub-01	1.0	5.0	042_smiling	1.0	trustworthiness	44.53218613100216	
1.0	19.605010276585745	pulse	3.0	t		27.0	male	black	3.5523278949462798	smiling	042	sub-01	1.0	5.0	042_smiling	1.0	trustworthiness	45.232179580792945	
2.0	20.013216331091826	face	0.0		146	22.0	male	black	2.767608436132113	smiling	044	sub-01	1.0	5.0	044_smiling	0.0		45.640385635299026	1.2416378422221896
2.0	20.30499950043304	pulse	0.0	t		22.0	male	black	2.767608436132113	smiling	044	sub-01	1.0	5.0	044_smiling	0.0		45.93216880464024	
2.0	21.004981177957234	pulse	0.0	t		22.0	male	black	2.767608436132113	smiling	044	sub-01	1.0	5.0	044_smiling	0.0		46.632150482164434	
2.0	21.254854173314015	fix	1.0		444	22.0	male	black	2.767608436132113	smiling	044	sub-01	1.0	5.0	044_smiling	0.0		46.882023477521216	3.758226625786847
2.0	21.70496889253991	pulse	1.0	t		22.0	male	black	2.767608436132113	smiling	044	sub-01	1.0	5.0	044_smiling	0.0		47.33213819674711	
2.0	22.404937590386908	pulse	1.0	t		22.0	male	black	2.767608436132113	smiling	044	sub-01	1.0	5.0	044_smiling	0.0		48.03210689459411	
2.0	23.104926512382008	pulse	1.0	t		22.0	male	black	2.767608436132113	smiling	044	sub-01	1.0	5.0	044_smiling	0.0		48.73209581658921	
2.0	23.804908793610593	pulse	1.0	t		22.0	male	black	2.767608436132113	smiling	044	sub-01	1.0	5.0	044_smiling	0.0		49.432078097817794	
2.0	24.504879604428424	pulse	1.0	t		22.0	male	black	2.767608436132113	smiling	044	sub-01	1.0	5.0	044_smiling	0.0		50.132048908635625	
3.0	25.013080799100862	face	0.0		146	36.0	female	white	2.7548746518105847	smiling	011	sub-01	1.0	5.0	011_smiling	0.0		50.64025010330806	1.2416499163427943
3.0	25.20487909127769	pulse	0.0	t		36.0	female	white	2.7548746518105847	smiling	011	sub-01	1.0	5.0	011_smiling	0.0		50.83204839548489	
3.0	25.904858052124837	pulse	0.0	t		36.0	female	white	2.7548746518105847	smiling	011	sub-01	1.0	5.0	011_smiling	0.0		51.53202735633204	
3.0	26.254730715443657	fix	1.0		444	36.0	female	white	2.7548746518105847	smiling	011	sub-01	1.0	5.0	011_smiling	0.0		51.88190001965086	3.758221796138969
3.0	26.60484123891365	pulse	1.0	t		36.0	female	white	2.7548746518105847	smiling	011	sub-01	1.0	5.0	011_smiling	0.0		52.23201054312085	
3.0	27.30481537011292	pulse	1.0	t		36.0	female	white	2.7548746518105847	smiling	011	sub-01	1.0	5.0	011_smiling	0.0		52.93198467432012	
3.0	28.00478557722272	pulse	1.0	t		36.0	female	white	2.7548746518105847	smiling	011	sub-01	1.0	5.0	011_smiling	0.0		53.63195488142992	
3.0	28.70478295110115	pulse	1.0	t		36.0	female	white	2.7548746518105847	smiling	011	sub-01	1.0	5.0	011_smiling	0.0		54.33195225530835	
3.0	29.404749837829513	pulse	1.0	t		36.0	female	white	2.7548746518105847	smiling	011	sub-01	1.0	5.0	011_smiling	0.0		55.03191914203671	
4.0	30.012952511582625	face	0.0		146	31.0	female	white	2.1822522881018704	neutral	102	sub-01	1.0	5.0	102_neutral	0.0		55.640121815789826	1.2416381440762052
4.0	30.104747815414157	pulse	0.0	t		31.0	female	white	2.1822522881018704	neutral	102	sub-01	1.0	5.0	102_neutral	0.0		55.73191711962136	
4.0	30.80473039849676	pulse	0.0	t		31.0	female	white	2.1822522881018704	neutral	102	sub-01	1.0	5.0	102_neutral	0.0		56.43189970270396	
4.0	31.25459065565883	fix	1.0		444	31.0	female	white	2.1822522881018704	neutral	102	sub-01	1.0	5.0	102_neutral	0.0		56.88175995986603	3.7665601829939988
4.0	31.504699398195953	pulse	1.0	t		31.0	female	white	2.1822522881018704	neutral	102	sub-01	1.0	5.0	102_neutral	0.0		57.13186870240315	
4.0	32.204682584984766	pulse	1.0	t		31.0	female	white	2.1822522881018704	neutral	102	sub-01	1.0	5.0	102_neutral	0.0		57.83185188919197	
4.0	32.90466245139032	pulse	1.0	t		31.0	female	white	2.1822522881018704	neutral	102	sub-01	1.0	5.0	102_neutral	0.0		58.53183175559752	
4.0	33.60465227894565	pulse	1.0	t		31.0	female	white	2.1822522881018704	neutral	102	sub-01	1.0	5.0	102_neutral	0.0		59.23182158315285	
4.0	34.30463274905742	pulse	1.0	t		31.0	female	white	2.1822522881018704	neutral	102	sub-01	1.0	5.0	102_neutral	0.0		59.93180205326462	
5.0	35.02115083865283	face	0.0		146	28.0	female	white	5.676880222841227	smiling	124	sub-01	1.0	5.0	124_smiling	0.0		60.64832014286003	1.2333036813088256
5.0	35.007453353904566	pulse	0.0	t		28.0	female	white	5.676880222841227	smiling	124	sub-01	1.0	5.0	124_smiling	0.0		60.634622658111766	
5.0	35.7045840299852	pulse	0.0	t		28.0	female	white	5.676880222841227	smiling	124	sub-01	1.0	5.0	124_smiling	0.0		61.3317533341924	
5.0	36.254454519961655	fix	1.0		443	28.0	female	white	5.676880222841227	smiling	124	sub-01	1.0	5.0	124_smiling	0.0		61.881623824168855	3.758367892984097
5.0	36.404569329744845	pulse	1.0	t		28.0	female	white	5.676880222841227	smiling	124	sub-01	1.0	5.0	124_smiling	0.0		62.031738633952045	
5.0	37.10456096841699	pulse	1.0	t		28.0	female	white	5.676880222841227	smiling	124	sub-01	1.0	5.0	124_smiling	0.0		62.73173027262419	
5.0	37.80454294779338	pulse	1.0	t		28.0	female	white	5.676880222841227	smiling	124	sub-01	1.0	5.0	124_smiling	0.0		63.43171225200058	
5.0	38.50452492716977	pulse	1.0	t		28.0	female	white	5.676880222841227	smiling	124	sub-01	1.0	5.0	124_smiling	0.0		64.13169423137697	
5.0	39.20456667343751	pulse	1.0	t		28.0	female	white	5.676880222841227	smiling	124	sub-01	1.0	5.0	124_smiling	0.0		64.83173597764471	
5.0	39.90448375442429	pulse	1.0	t		28.0	female	white	5.676880222841227	smiling	124	sub-01	1.0	5.0	124_smiling	0.0		65.53165305863149	
6.0	40.01282241294575	face	0.0		147	40.0	male	white	1.868682849184242	neutral	172	sub-01	1.0	5.0	172_neutral	0.0		65.63999171715295	1.2415026120852417
6.0	40.604474789390224	pulse	0.0	t		40.0	male	white	1.868682849184242	neutral	172	sub-01	1.0	5.0	172_neutral	0.0		66.23164409359742	
6.0	41.254325025030994	fix	1.0		443	40.0	male	white	1.868682849184242	neutral	172	sub-01	1.0	5.0	172_neutral	0.0		66.8814943292382	3.758234775817982
6.0	41.304437752029116	pulse	1.0	t		40.0	male	white	1.868682849184242	neutral	172	sub-01	1.0	5.0	172_neutral	0.0		66.93160705623632	
6.0	42.00443331478891	pulse	1.0	t		40.0	male	white	1.868682849184242	neutral	172	sub-01	1.0	5.0	172_neutral	0.0		67.63160261899611	
6.0	42.704412577490075	pulse	1.0	t		40.0	male	white	1.868682849184242	neutral	172	sub-01	1.0	5.0	172_neutral	0.0		68.33158188169728	
6.0	43.40437674753957	pulse	1.0	t		40.0	male	white	1.868682849184242	neutral	172	sub-01	1.0	5.0	172_neutral	0.0		69.03154605174677	
6.0	44.10437683809687	pulse	1.0	t		40.0	male	white	1.868682849184242	neutral	172	sub-01	1.0	5.0	172_neutral	0.0		69.73154614230407	
6.0	44.80435549709	pulse	1.0	t		40.0	male	white	1.868682849184242	neutral	172	sub-01	1.0	5.0	172_neutral	0.0		70.4315248012972	
7.0	45.012559800848976	face	0.0		146	54.0	female	white	2.286908077994429	neutral	136	sub-01	1.0	5.0	136_neutral	0.0		70.63972910505618	1.2416462941055215
7.0	45.50433053384768	pulse	0.0	t		54.0	female	white	2.286908077994429	neutral	136	sub-01	1.0	5.0	136_neutral	0.0		71.13149983805488	
7.0	46.20432156881543	pulse	0.0	t		54.0	female	white	2.286908077994429	neutral	136	sub-01	1.0	5.0	136_neutral	0.0		71.83149087302263	
7.0	46.2542060949545	fix	1.0		445	54.0	female	white	2.286908077994429	neutral	136	sub-01	1.0	5.0	136_neutral	0.0		71.8813753991617	3.766555957054152
7.0	46.90429177592523	pulse	1.0	t		54.0	female	white	2.286908077994429	neutral	136	sub-01	1.0	5.0	136_neutral	0.0		72.53146108013243	
7.0	47.604274057155635	pulse	1.0	t		54.0	female	white	2.286908077994429	neutral	136	sub-01	1.0	5.0	136_neutral	0.0		73.23144336136284	
7.0	48.3042611680321	pulse	1.0	t		54.0	female	white	2.286908077994429	neutral	136	sub-01	1.0	5.0	136_neutral	0.0		73.9314304722393	
7.0	49.00424133629167	pulse	1.0	t		54.0	female	white	2.286908077994429	neutral	136	sub-01	1.0	5.0	136_neutral	0.0		74.63141064049887	
7.0	49.70422331566806	pulse	1.0	t		54.0	female	white	2.286908077994429	neutral	136	sub-01	1.0	5.0	136_neutral	0.0		75.33139261987526	
8.0	50.02076205200865	face	0.0		145	21.0	male	east_asian/white	3.501790688420215	smiling	036	sub-01	1.0	5.0	036_smiling	0.0		75.64793135621585	1.233307605398295
8.0	50.40421314322157	pulse	0.0	t		21.0	male	east_asian/white	3.501790688420215	smiling	036	sub-01	1.0	5.0	036_smiling	0.0		76.03138244742877	
8.0	51.10418606701023	pulse	0.0	t		21.0	male	east_asian/white	3.501790688420215	smiling	036	sub-01	1.0	5.0	036_smiling	0.0		76.73135537121743	
8.0	51.254069657406944	fix	1.0		444	21.0	male	east_asian/white	3.501790688420215	smiling	036	sub-01	1.0	5.0	036_smiling	0.0		76.88123896161414	3.7665574663169537
8.0	51.804174083446924	pulse	1.0	t		21.0	male	east_asian/white	3.501790688420215	smiling	036	sub-01	1.0	5.0	036_smiling	0.0		77.43134338765412	
8.0	52.50414821464619	pulse	1.0	t		21.0	male	east_asian/white	3.501790688420215	smiling	036	sub-01	1.0	5.0	036_smiling	0.0		78.1313175188534	
8.0	53.204111177283266	pulse	1.0	t		21.0	male	east_asian/white	3.501790688420215	smiling	036	sub-01	1.0	5.0	036_smiling	0.0		78.83128048149047	
8.0	53.90412002157609	pulse	1.0	t		21.0	male	east_asian/white	3.501790688420215	smiling	036	sub-01	1.0	5.0	036_smiling	0.0		79.53128932578329	
8.0	54.60408419162741	pulse	1.0	t		21.0	male	east_asian/white	3.501790688420215	smiling	036	sub-01	1.0	5.0	036_smiling	0.0		80.23125349583461	
9.0	55.0206271237239	face	0.0		145	20.0	male	black	3.1070433744528456	smiling	082	sub-01	1.0	5.0	082_smiling	0.0		80.6477964279311	1.2333042850150377
9.0	55.30407341547652	pulse	0.0	t		20.0	male	black	3.1070433744528456	smiling	082	sub-01	1.0	5.0	082_smiling	0.0		80.93124271968372	
9.0	56.00405720596973	pulse	0.0	t		20.0	male	black	3.1070433744528456	smiling	082	sub-01	1.0	5.0	082_smiling	0.0		81.63122651017693	
9.0	56.253931408738936	fix	1.0		444	20.0	male	black	3.1070433744528456	smiling	082	sub-01	1.0	5.0	082_smiling	0.0		81.88110071294614	3.758310239065395
9.0	56.704043411289604	pulse	1.0	t		20.0	male	black	3.1070433744528456	smiling	082	sub-01	1.0	5.0	082_smiling	0.0		82.3312127154968	
9.0	57.40401059987016	pulse	1.0	t		20.0	male	black	3.1070433744528456	smiling	082	sub-01	1.0	5.0	082_smiling	0.0		83.03117990407736	
9.0	58.104000125571474	pulse	1.0	t		20.0	male	black	3.1070433744528456	smiling	082	sub-01	1.0	5.0	082_smiling	0.0		83.73116942977867	
9.0	58.80398633088953	pulse	1.0	t		20.0	male	black	3.1070433744528456	smiling	082	sub-01	1.0	5.0	082_smiling	0.0		84.43115563509673	
9.0	59.50397766770948	pulse	1.0	t		20.0	male	black	3.1070433744528456	smiling	082	sub-01	1.0	5.0	082_smiling	0.0		85.13114697191668	
10.0	60.01224164780433	face	0.0		146	22.0	male	black	2.767608436132113	neutral	044	sub-01	1.0	5.0	044_neutral	0.0		85.63941095201153	1.2415572474747023
10.0	60.20395300631935	pulse	0.0	t		22.0	male	black	2.767608436132113	neutral	044	sub-01	1.0	5.0	044_neutral	0.0		85.83112231052655	
10.0	60.90393257087271	pulse	0.0	t		22.0	male	black	2.767608436132113	neutral	044	sub-01	1.0	5.0	044_neutral	0.0		86.53110187507991	
10.0	61.25379889527903	fix	1.0		444	22.0	male	black	2.767608436132113	neutral	044	sub-01	1.0	5.0	044_neutral	0.0		86.88096819948623	3.7665589755833935
10.0	61.60391485210312	pulse	1.0	t		22.0	male	black	2.767608436132113	neutral	044	sub-01	1.0	5.0	044_neutral	0.0		87.23108415631032	
10.0	62.30388656847754	pulse	1.0	t		22.0	male	black	2.767608436132113	neutral	044	sub-01	1.0	5.0	044_neutral	0.0		87.93105587268474	
10.0	63.00386643488309	pulse	1.0	t		22.0	male	black	2.767608436132113	neutral	044	sub-01	1.0	5.0	044_neutral	0.0		88.6310357390903	
10.0	63.703857469850846	pulse	1.0	t		22.0	male	black	2.767608436132113	neutral	044	sub-01	1.0	5.0	044_neutral	0.0		89.33102677405805	
10.0	64.40382888437307	pulse	1.0	t		22.0	male	black	2.767608436132113	neutral	044	sub-01	1.0	5.0	044_neutral	0.0		90.03099818858027	
11.0	65.02035787086243	face	0.0		145	31.0	male	west_asian	1.9538400318344609	neutral	070	sub-01	1.0	5.0	070_neutral	0.0		90.64752717506963	1.233321490633898
11.0	65.10382233416203	pulse	0.0	t		31.0	male	west_asian	1.9538400318344609	neutral	070	sub-01	1.0	5.0	070_neutral	0.0		90.73099163836923	
11.0	65.80380340798001	pulse	0.0	t		31.0	male	west_asian	1.9538400318344609	neutral	070	sub-01	1.0	5.0	070_neutral	0.0		91.43097271218721	
11.0	66.25367936149632	fix	1.0		444	31.0	male	west_asian	1.9538400318344609	neutral	070	sub-01	1.0	5.0	070_neutral	0.0		91.88084866570352	3.766543882933547
11.0	66.50377572806246	pulse	1.0	t		31.0	male	west_asian	1.9538400318344609	neutral	070	sub-01	1.0	5.0	070_neutral	0.0		92.13094503226966	
11.0	67.20375831114507	pulse	1.0	t		31.0	male	west_asian	1.9538400318344609	neutral	070	sub-01	1.0	5.0	070_neutral	0.0		92.83092761535227	
11.0	67.90374029052145	pulse	1.0	t		31.0	male	west_asian	1.9538400318344609	neutral	070	sub-01	1.0	5.0	070_neutral	0.0		93.53090959472866	
11.0	68.60372196804565	pulse	1.0	t		31.0	male	west_asian	1.9538400318344609	neutral	070	sub-01	1.0	5.0	070_neutral	0.0		94.23089127225285	
11.0	69.3037009288928	pulse	1.0	t		31.0	male	west_asian	1.9538400318344609	neutral	070	sub-01	1.0	5.0	070_neutral	0.0		94.9308702331	
12.0	70.02022324442987	face	0.0		146	19.0	male	white	2.243931555909272	neutral	130	sub-01	1.0	5.0	130_neutral	0.0		95.64739254863707	1.2333184721046564
12.0	70.00655413386085	pulse	0.0	t		19.0	male	white	2.243931555909272	neutral	130	sub-01	1.0	5.0	130_neutral	0.0		95.63372343806805	
12.0	70.70366277467474	pulse	0.0	t		19.0	male	white	2.243931555909272	neutral	130	sub-01	1.0	5.0	130_neutral	0.0		96.33083207888194	
12.0	71.25354171653453	fix	1.0		443	19.0	male	white	2.243931555909272	neutral	130	sub-01	1.0	5.0	130_neutral	0.0		96.88071102074173	3.766557164466576
12.0	71.40366014855317	pulse	1.0	t		19.0	male	white	2.243931555909272	neutral	130	sub-01	1.0	5.0	130_neutral	0.0		97.03082945276037	
12.0	72.10362673342934	pulse	1.0	t		19.0	male	white	2.243931555909272	neutral	130	sub-01	1.0	5.0	130_neutral	0.0		97.73079603763654	
12.0	72.80360871280573	pulse	1.0	t		19.0	male	white	2.243931555909272	neutral	130	sub-01	1.0	5.0	130_neutral	0.0		98.43077801701293	
12.0	73.5036015588903	pulse	1.0	t		19.0	male	white	2.243931555909272	neutral	130	sub-01	1.0	5.0	130_neutral	0.0		99.1307708630975	
12.0	74.20358263270828	pulse	1.0	t		19.0	male	white	2.243931555909272	neutral	130	sub-01	1.0	5.0	130_neutral	0.0		99.83075193691548	
12.0	74.90355616020133	pulse	1.0	t		19.0	male	white	2.243931555909272	neutral	130	sub-01	1.0	5.0	130_neutral	0.0		100.53072546440853	
13.0	75.0200988810011	face	0.0		146	31.0	female	east_asian	3.395941106247513	smiling	087	sub-01	1.0	5.0	087_smiling	0.0		100.6472681852083	1.2333151517213992
13.0	75.6035496099903	pulse	0.0	t		31.0	female	east_asian	3.395941106247513	smiling	087	sub-01	1.0	5.0	087_smiling	0.0		101.2307189141975	
13.0	76.2534140327225	fix	1.0		443	31.0	female	east_asian	3.395941106247513	smiling	087	sub-01	1.0	5.0	087_smiling	0.0		101.8805833369297	3.7665526366708946
13.0	76.30352253377896	pulse	1.0	t		31.0	female	east_asian	3.395941106247513	smiling	087	sub-01	1.0	5.0	087_smiling	0.0		101.93069183798616	
13.0	77.00349304274096	pulse	1.0	t		31.0	female	east_asian	3.395941106247513	smiling	087	sub-01	1.0	5.0	087_smiling	0.0		102.63066234694816	
13.0	77.70346989061727	pulse	1.0	t		31.0	female	east_asian	3.395941106247513	smiling	087	sub-01	1.0	5.0	087_smiling	0.0		103.33063919482447	
13.0	78.40347028302676	pulse	1.0	t		31.0	female	east_asian	3.395941106247513	smiling	087	sub-01	1.0	5.0	087_smiling	0.0		104.03063958723396	
13.0	79.10344924387391	pulse	1.0	t		31.0	female	east_asian	3.395941106247513	smiling	087	sub-01	1.0	5.0	087_smiling	0.0		104.73061854808111	
13.0	79.80343514733977	pulse	1.0	t		31.0	female	east_asian	3.395941106247513	smiling	087	sub-01	1.0	5.0	087_smiling	0.0		105.43060445154697	
14.0	80.0199666693934	face	0.0		145	22.0	female	west_asian	3.8205332272184642	neutral	066	sub-01	1.0	5.0	066_neutral	0.0		105.6471359736006	1.2333030776026135
14.0	80.50341742856835	pulse	0.0	t		22.0	female	west_asian	3.8205332272184642	neutral	066	sub-01	1.0	5.0	066_neutral	0.0		106.13058673277555	
14.0	81.20339518200308	pulse	0.0	t		22.0	female	west_asian	3.8205332272184642	neutral	066	sub-01	1.0	5.0	066_neutral	0.0		106.83056448621028	
14.0	81.25326974699601	fix	1.0		444	22.0	female	west_asian	3.8205332272184642	neutral	066	sub-01	1.0	5.0	066_neutral	0.0		106.88043905120321	3.75820217569526
14.0	81.90336780393773	pulse	1.0	t		22.0	female	west_asian	3.8205332272184642	neutral	066	sub-01	1.0	5.0	066_neutral	0.0		107.53053710814493	
14.0	82.60334646293268	pulse	1.0	t		22.0	female	west_asian	3.8205332272184642	neutral	066	sub-01	1.0	5.0	066_neutral	0.0		108.23051576713988	
14.0	83.30332391451338	pulse	1.0	t		22.0	female	west_asian	3.8205332272184642	neutral	066	sub-01	1.0	5.0	066_neutral	0.0		108.93049321872058	
14.0	84.00331404392091	pulse	1.0	t		22.0	female	west_asian	3.8205332272184642	neutral	066	sub-01	1.0	5.0	066_neutral	0.0		109.63048334812811	
14.0	84.70337631619259	pulse	1.0	t		22.0	female	west_asian	3.8205332272184642	neutral	066	sub-01	1.0	5.0	066_neutral	0.0		110.33054562039979	
15.0	85.01147192269127	face	0.0		146	30.0	female	black	2.7345801830481498	neutral	062	sub-01	1.0	5.0	062_neutral	0.0		110.63864122689847	1.2416782905220316
15.0	85.40327770082149	pulse	0.0	t		30.0	female	black	2.7345801830481498	neutral	062	sub-01	1.0	5.0	062_neutral	0.0		111.03044700502869	
15.0	86.10326752837682	pulse	0.0	t		30.0	female	black	2.7345801830481498	neutral	062	sub-01	1.0	5.0	062_neutral	0.0		111.73043683258402	
15.0	86.2531502132133	fix	1.0		444	30.0	female	black	2.7345801830481498	neutral	062	sub-01	1.0	5.0	062_neutral	0.0		111.8803195174205	3.7582227016991965
15.0	86.80325312998866	pulse	1.0	t		30.0	female	black	2.7345801830481498	neutral	062	sub-01	1.0	5.0	062_neutral	0.0		112.43042243419586	
15.0	87.50319194438998	pulse	1.0	t		30.0	female	black	2.7345801830481498	neutral	062	sub-01	1.0	5.0	062_neutral	0.0		113.13036124859718	
15.0	88.20319263865167	pulse	1.0	t		30.0	female	black	2.7345801830481498	neutral	062	sub-01	1.0	5.0	062_neutral	0.0		113.83036194285887	
15.0	88.90318005138215	pulse	1.0	t		30.0	female	black	2.7345801830481498	neutral	062	sub-01	1.0	5.0	062_neutral	0.0		114.53034935558935	
15.0	89.60316142705233	pulse	1.0	t		30.0	female	black	2.7345801830481498	neutral	062	sub-01	1.0	5.0	062_neutral	0.0		115.23033073125953	
16.0	90.0113729149125	face	0.0		146	32.0	male	white	2.389176283326701	smiling	092	sub-01	1.0	5.0	092_smiling	0.0		115.6385422191197	1.2416318051618873
16.0	90.30314733051819	pulse	0.0	t		32.0	male	white	2.389176283326701	smiling	092	sub-01	1.0	5.0	092_smiling	0.0		115.93031663472539	
16.0	91.00313353583624	pulse	0.0	t		32.0	male	white	2.389176283326701	smiling	092	sub-01	1.0	5.0	092_smiling	0.0		116.63030284004344	
16.0	91.25300472007439	fix	1.0		444	32.0	male	white	2.389176283326701	smiling	092	sub-01	1.0	5.0	092_smiling	0.0		116.88017402428159	3.758344348452738
16.0	91.7031197411543	pulse	1.0	t		32.0	male	white	2.389176283326701	smiling	092	sub-01	1.0	5.0	092_smiling	0.0		117.3302890453615	
16.0	92.40308632603046	pulse	1.0	t		32.0	male	white	2.389176283326701	smiling	092	sub-01	1.0	5.0	092_smiling	0.0		118.03025563023766	
16.0	93.10307343690693	pulse	1.0	t		32.0	male	white	2.389176283326701	smiling	092	sub-01	1.0	5.0	092_smiling	0.0		118.73024274111413	
16.0	93.80306145334362	pulse	1.0	t		32.0	male	white	2.389176283326701	smiling	092	sub-01	1.0	5.0	092_smiling	0.0		119.43023075755082	
16.0	94.50303135860122	pulse	1.0	t		32.0	male	white	2.389176283326701	smiling	092	sub-01	1.0	5.0	092_smiling	0.0		120.13020066280842	
17.0	95.01134906852712	face	0.0		146	30.0	female	black	2.7345801830481498	smiling	062	sub-01	1.0	5.0	062_smiling	0.0		120.63851837273432	1.2415370233247813
17.0	95.2030187713317	pulse	0.0	t		30.0	female	black	2.7345801830481498	smiling	062	sub-01	1.0	5.0	062_smiling	0.0		120.8301880755389	
17.0	95.9030076933268	pulse	0.0	t		30.0	female	black	2.7345801830481498	smiling	062	sub-01	1.0	5.0	062_smiling	0.0		121.530176997534	
17.0	96.2528860918519	fix	1.0		444	30.0	female	black	2.7345801830481498	smiling	062	sub-01	1.0	5.0	062_smiling	0.0		121.8800553960591	3.7665511274062737
17.0	96.60299148382182	pulse	1.0	t		30.0	female	black	2.7345801830481498	smiling	062	sub-01	1.0	5.0	062_smiling	0.0		122.23016078802902	
17.0	97.30297225578761	pulse	1.0	t		30.0	female	black	2.7345801830481498	smiling	062	sub-01	1.0	5.0	062_smiling	0.0		122.93014155999481	
17.0	98.00293853880794	pulse	1.0	t		30.0	female	black	2.7345801830481498	smiling	062	sub-01	1.0	5.0	062_smiling	0.0		123.63010784301514	
17.0	98.70293319601114	pulse	1.0	t		30.0	female	black	2.7345801830481498	smiling	062	sub-01	1.0	5.0	062_smiling	0.0		124.33010250021835	
17.0	99.40291276056269	pulse	1.0	t		30.0	female	black	2.7345801830481498	smiling	062	sub-01	1.0	5.0	062_smiling	0.0		125.03008206476989	
18.0	100.01943721925818	face	0.0		145	19.0	male	white	2.243931555909272	smiling	130	sub-01	1.0	5.0	130_smiling	0.0		125.64660652346538	1.2333073035442794
18.0	100.10289745661794	pulse	0.0	t		19.0	male	white	2.243931555909272	smiling	130	sub-01	1.0	5.0	130_smiling	0.0		125.73006676082514	
18.0	100.80289181196713	pulse	0.0	t		19.0	male	white	2.243931555909272	smiling	130	sub-01	1.0	5.0	130_smiling	0.0		126.43006111617433	
18.0	101.25274452280246	fix	1.0		444	19.0	male	white	2.243931555909272	smiling	130	sub-01	1.0	5.0	130_smiling	0.0		126.87991382700966	3.7665580700249848
18.0	101.5028608116645	pulse	1.0	t		19.0	male	white	2.243931555909272	smiling	130	sub-01	1.0	5.0	130_smiling	0.0		127.1300301158717	
18.0	102.2028364521284	pulse	1.0	t		19.0	male	white	2.243931555909272	smiling	130	sub-01	1.0	5.0	130_smiling	0.0		127.8300057563356	
18.0	102.90280394256297	pulse	1.0	t		19.0	male	white	2.243931555909272	smiling	130	sub-01	1.0	5.0	130_smiling	0.0		128.52997324677017	
18.0	103.60279286455807	pulse	1.0	t		19.0	male	white	2.243931555909272	smiling	130	sub-01	1.0	5.0	130_smiling	0.0		129.22996216876527	
18.0	104.30277876802393	pulse	1.0	t		19.0	male	white	2.243931555909272	smiling	130	sub-01	1.0	5.0	130_smiling	0.0		129.92994807223113	
19.0	105.01930259282744	face	0.0		146	28.0	male	white	3.9076800636689217	smiling	033	sub-01	1.0	5.0	033_smiling	0.0		130.64647189703464	1.2333073035442794
19.0	105.0055882043107	pulse	0.0	t		28.0	male	white	3.9076800636689217	smiling	033	sub-01	1.0	5.0	033_smiling	0.0		130.6327575085179	
19.0	105.70275148051405	pulse	0.0	t		28.0	male	white	3.9076800636689217	smiling	033	sub-01	1.0	5.0	033_smiling	0.0		131.32992078472125	
19.0	106.25260989637172	fix	1.0		443	28.0	male	white	3.9076800636689217	smiling	033	sub-01	1.0	5.0	033_smiling	0.0		131.87977920057892	3.76656712561271
19.0	106.4027253098593	pulse	1.0	t		28.0	male	white	3.9076800636689217	smiling	033	sub-01	1.0	5.0	033_smiling	0.0		132.0298946140665	
19.0	107.10270608182509	pulse	1.0	t		28.0	male	white	3.9076800636689217	smiling	033	sub-01	1.0	5.0	033_smiling	0.0		132.7298753860323	
19.0	107.8026835334058	pulse	1.0	t		28.0	male	white	3.9076800636689217	smiling	033	sub-01	1.0	5.0	033_smiling	0.0		133.429852837613	
19.0	108.50267396466734	pulse	1.0	t		28.0	male	white	3.9076800636689217	smiling	033	sub-01	1.0	5.0	033_smiling	0.0		134.12984326887454	
19.0	109.20265201995426	pulse	1.0	t		28.0	male	white	3.9076800636689217	smiling	033	sub-01	1.0	5.0	033_smiling	0.0		134.82982132416146	
19.0	109.90263309377224	pulse	1.0	t		28.0	male	white	3.9076800636689217	smiling	033	sub-01	1.0	5.0	033_smiling	0.0		135.52980239797944	
20.0	110.01917702198443	face	0.0		146	20.0	female	white	3.9502586549940313	neutral	091	sub-01	1.0	5.0	091_neutral	0.0		135.64634632619163	1.233301266485796
20.0	110.60262714726923	pulse	0.0	t		20.0	female	white	3.9502586549940313	neutral	091	sub-01	1.0	5.0	091_neutral	0.0		136.22979645147643	
20.0	111.25247828847023	fix	1.0		1184	20.0	female	white	3.9502586549940313	neutral	091	sub-01	1.0	5.0	091_neutral	0.0		136.87964759267743	10.016383070755182
20.0	111.30259192102494	pulse	1.0	t		20.0	female	white	3.9502586549940313	neutral	091	sub-01	1.0	5.0	091_neutral	0.0		136.92976122523214	
20.0	112.00257842819701	pulse	1.0	t		20.0	female	white	3.9502586549940313	neutral	091	sub-01	1.0	5.0	091_neutral	0.0		137.6297477324042	
20.0	112.70256221869204	pulse	1.0	t		20.0	female	white	3.9502586549940313	neutral	091	sub-01	1.0	5.0	091_neutral	0.0		138.32973152289924	
20.0	113.4025417832454	pulse	1.0	t		20.0	female	white	3.9502586549940313	neutral	091	sub-01	1.0	5.0	091_neutral	0.0		139.0297110874526	
20.0	114.10252617744482	pulse	1.0	t		20.0	female	white	3.9502586549940313	neutral	091	sub-01	1.0	5.0	091_neutral	0.0		139.72969548165202	
20.0	114.80250513829196	pulse	1.0	t		20.0	female	white	3.9502586549940313	neutral	091	sub-01	1.0	5.0	091_neutral	0.0		140.42967444249916	
20.0	115.50248017505146	pulse	1.0	t		20.0	female	white	3.9502586549940313	neutral	091	sub-01	1.0	5.0	091_neutral	0.0		141.12964947925866	
20.0	116.20246034330921	pulse	1.0	t		20.0	female	white	3.9502586549940313	neutral	091	sub-01	1.0	5.0	091_neutral	0.0		141.8296296475164	
20.0	116.90243085227303	pulse	1.0	t		20.0	female	white	3.9502586549940313	neutral	091	sub-01	1.0	5.0	091_neutral	0.0		142.52960015648023	
20.0	117.60241947241593	pulse	1.0	t		20.0	female	white	3.9502586549940313	neutral	091	sub-01	1.0	5.0	091_neutral	0.0		143.22958877662313	
20.0	118.30241775185277	pulse	1.0	t		20.0	female	white	3.9502586549940313	neutral	091	sub-01	1.0	5.0	091_neutral	0.0		143.92958705605997	
20.0	119.0023949015831	pulse	1.0	t		20.0	female	white	3.9502586549940313	neutral	091	sub-01	1.0	5.0	091_neutral	0.0		144.6295642057903	
20.0	119.70237506984085	pulse	1.0	t		20.0	female	white	3.9502586549940313	neutral	091	sub-01	1.0	5.0	091_neutral	0.0		145.32954437404806	
20.0	120.40235010660035	pulse	1.0	t		20.0	female	white	3.9502586549940313	neutral	091	sub-01	1.0	5.0	091_neutral	0.0		146.02951941080755	
20.0	121.10233359524136	pulse	1.0	t		20.0	female	white	3.9502586549940313	neutral	091	sub-01	1.0	5.0	091_neutral	0.0		146.72950289944856	
21.0	121.26886135922541	face	0.0		146	20.0	male	black	2.609629924393156	neutral	043	sub-01	1.0	5.0	043_neutral	0.0		146.8960306634326	1.233334772166927
21.0	121.80232312094267	pulse	0.0	t		20.0	male	black	2.609629924393156	neutral	043	sub-01	1.0	5.0	043_neutral	0.0		147.42949242514987	
21.0	122.50219613139234	fix	1.0		444	20.0	male	black	2.609629924393156	neutral	043	sub-01	1.0	5.0	043_neutral	0.0		148.12936543559954	3.758284279707368
21.0	122.50974034304454	pulse	1.0	t		20.0	male	black	2.609629924393156	neutral	043	sub-01	1.0	5.0	043_neutral	0.0		148.13690964725174	
21.0	123.20228647599106	pulse	1.0	t		20.0	male	black	2.609629924393156	neutral	043	sub-01	1.0	5.0	043_neutral	0.0		148.82945578019826	
21.0	123.90226845536745	pulse	1.0	t		20.0	male	black	2.609629924393156	neutral	043	sub-01	1.0	5.0	043_neutral	0.0		149.52943775957465	
21.0	124.60224922733141	pulse	1.0	t		20.0	male	black	2.609629924393156	neutral	043	sub-01	1.0	5.0	043_neutral	0.0		150.2294185315386	
21.0	125.30222305667849	pulse	1.0	t		20.0	male	black	2.609629924393156	neutral	043	sub-01	1.0	5.0	043_neutral	0.0		150.92939236088569	
21.0	126.00221499720283	pulse	1.0	t		20.0	male	black	2.609629924393156	neutral	043	sub-01	1.0	5.0	043_neutral	0.0		151.62938430141003	
22.0	126.2604804110997	face	0.0		146	19.0	female	white	4.298846000795861	neutral	100	sub-01	1.0	5.0	100_neutral	0.0		151.8876497153069	1.2415798864494718
22.0	126.70219697658104	pulse	0.0	t		19.0	female	white	4.298846000795861	neutral	100	sub-01	1.0	5.0	100_neutral	0.0		152.32936628078824	
22.0	127.40217382445553	pulse	0.0	t		19.0	female	white	4.298846000795861	neutral	100	sub-01	1.0	5.0	100_neutral	0.0		153.02934312866273	
22.0	127.50206029754918	fix	1.0		444	19.0	female	white	4.298846000795861	neutral	100	sub-01	1.0	5.0	100_neutral	0.0		153.12922960175638	3.766551731110667
22.0	128.1021609353338	pulse	1.0	t		19.0	female	white	4.298846000795861	neutral	100	sub-01	1.0	5.0	100_neutral	0.0		153.729330239541	
22.0	128.80214080173937	pulse	1.0	t		19.0	female	white	4.298846000795861	neutral	100	sub-01	1.0	5.0	100_neutral	0.0		154.42931010594657	
22.0	129.50212972373447	pulse	1.0	t		19.0	female	white	4.298846000795861	neutral	100	sub-01	1.0	5.0	100_neutral	0.0		155.12929902794167	
22.0	130.2021005345523	pulse	1.0	t		19.0	female	white	4.298846000795861	neutral	100	sub-01	1.0	5.0	100_neutral	0.0		155.8292698387595	
22.0	130.9020840231933	pulse	1.0	t		19.0	female	white	4.298846000795861	neutral	100	sub-01	1.0	5.0	100_neutral	0.0		156.5292533274005	
23.0	131.26861202865985	face	0.0		145	20.0	male	black	3.1070433744528456	neutral	082	sub-01	1.0	5.0	082_neutral	1.0	attractiveness	156.89578133286705	1.2333151517232182
23.0	131.60206811554053	pulse	0.0	t		20.0	male	black	3.1070433744528456	neutral	082	sub-01	1.0	5.0	082_neutral	1.0	attractiveness	157.22923741974773	
23.0	132.30203258744405	pulse	0.0	t		20.0	male	black	3.1070433744528456	neutral	082	sub-01	1.0	5.0	082_neutral	1.0	attractiveness	157.92920189165125	
23.0	132.50192718038306	fix	1.0		177	20.0	male	black	3.1070433744528456	neutral	082	sub-01	1.0	5.0	082_neutral	1.0	attractiveness	158.12909648459026	1.4999657396856492
23.0	133.00202875391187	pulse	1.0	t		20.0	male	black	3.1070433744528456	neutral	082	sub-01	1.0	5.0	082_neutral	1.0	attractiveness	158.62919805811907	
23.0	133.70200922402364	pulse	1.0	t		20.0	male	black	3.1070433744528456	neutral	082	sub-01	1.0	5.0	082_neutral	1.0	attractiveness	159.32917852823084	
23.0	134.0018929200687	rating	2.0		295	20.0	male	black	3.1070433744528456	neutral	082	sub-01	1.0	5.0	082_neutral	1.0	attractiveness	159.6290622242759	2.499929517327473
23.0	134.39681321729768	pulse	2.0	t		20.0	male	black	3.1070433744528456	neutral	082	sub-01	1.0	5.0	082_neutral	1.0	attractiveness	160.02398252150488	
23.0	135.0967713502887	pulse	2.0	t		20.0	male	black	3.1070433744528456	neutral	082	sub-01	1.0	5.0	082_neutral	1.0	attractiveness	160.7239406544959	
23.0	135.6352969976797	response	2.0	b		20.0	male	black	3.1070433744528456	neutral	082	sub-01	1.0	5.0	082_neutral	1.0	attractiveness	161.2624663018869	
23.0	135.796798909465	pulse	2.0	t		20.0	male	black	3.1070433744528456	neutral	082	sub-01	1.0	5.0	082_neutral	1.0	attractiveness	161.4239682136722	
23.0	136.50182243739619	fix	3.0		443	20.0	male	black	3.1070433744528456	neutral	082	sub-01	1.0	5.0	082_neutral	1.0	attractiveness	162.1289917416034	3.766552334818698
23.0	136.50978743210908	pulse	3.0	t		20.0	male	black	3.1070433744528456	neutral	082	sub-01	1.0	5.0	082_neutral	1.0	attractiveness	162.13695673631628	
23.0	137.2019058393762	pulse	3.0	t		20.0	male	black	3.1070433744528456	neutral	082	sub-01	1.0	5.0	082_neutral	1.0	attractiveness	162.8290751435834	
23.0	137.9018881206066	pulse	3.0	t		20.0	male	black	3.1070433744528456	neutral	082	sub-01	1.0	5.0	082_neutral	1.0	attractiveness	163.5290574248138	
23.0	138.60186919442458	pulse	3.0	t		20.0	male	black	3.1070433744528456	neutral	082	sub-01	1.0	5.0	082_neutral	1.0	attractiveness	164.22903849863178	
23.0	139.30184483488847	pulse	3.0	t		20.0	male	black	3.1070433744528456	neutral	082	sub-01	1.0	5.0	082_neutral	1.0	attractiveness	164.92901413909567	
23.0	140.0018234938816	pulse	3.0	t		20.0	male	black	3.1070433744528456	neutral	082	sub-01	1.0	5.0	082_neutral	1.0	attractiveness	165.6289927980888	
24.0	140.26837477221488	face	0.0		145	24.0	female	black	3.0955033824114606	smiling	099	sub-01	1.0	5.0	099_smiling	0.0		165.89554407642208	1.233304888719431
24.0	140.70182599926193	pulse	0.0	t		24.0	female	black	3.0955033824114606	smiling	099	sub-01	1.0	5.0	099_smiling	0.0		166.32899530346913	
24.0	141.40179590451953	pulse	0.0	t		24.0	female	black	3.0955033824114606	smiling	099	sub-01	1.0	5.0	099_smiling	0.0		167.02896520872673	
24.0	141.50167966093431	fix	1.0		444	24.0	female	black	3.0955033824114606	smiling	099	sub-01	1.0	5.0	099_smiling	0.0		167.12884896514151	3.76656622005612
24.0	142.10179025986872	pulse	1.0	t		24.0	female	black	3.0955033824114606	smiling	099	sub-01	1.0	5.0	099_smiling	0.0		167.72895956407592	
24.0	142.8017662021848	pulse	1.0	t		24.0	female	black	3.0955033824114606	smiling	099	sub-01	1.0	5.0	099_smiling	0.0		168.428935506392	
24.0	143.50174003153188	pulse	1.0	t		24.0	female	black	3.0955033824114606	smiling	099	sub-01	1.0	5.0	099_smiling	0.0		169.12890933573908	
24.0	144.2017174831144	pulse	1.0	t		24.0	female	black	3.0955033824114606	smiling	099	sub-01	1.0	5.0	099_smiling	0.0		169.8288867873216	
24.0	144.90169765137216	pulse	1.0	t		24.0	female	black	3.0955033824114606	smiling	099	sub-01	1.0	5.0	099_smiling	0.0		170.52886695557936	
25.0	145.26824588099043	face	0.0		145	25.0	female	west_asian	2.6756864305610826	smiling	064	sub-01	1.0	5.0	064_smiling	1.0	attractiveness	170.89541518519763	1.2333127368965506
25.0	145.60171162716506	pulse	0.0	t		25.0	female	west_asian	2.6756864305610826	smiling	064	sub-01	1.0	5.0	064_smiling	1.0	attractiveness	171.22888093137226	
25.0	146.30166976015607	pulse	0.0	t		25.0	female	west_asian	2.6756864305610826	smiling	064	sub-01	1.0	5.0	064_smiling	1.0	attractiveness	171.92883906436327	
25.0	146.50155861788699	fix	1.0		177	25.0	female	west_asian	2.6756864305610826	smiling	064	sub-01	1.0	5.0	064_smiling	1.0	attractiveness	172.12872792209419	1.4999639285688318
25.0	147.0016595877114	pulse	1.0	t		25.0	female	west_asian	2.6756864305610826	smiling	064	sub-01	1.0	5.0	064_smiling	1.0	attractiveness	172.6288288919186	
25.0	147.70163371891067	pulse	1.0	t		25.0	female	west_asian	2.6756864305610826	smiling	064	sub-01	1.0	5.0	064_smiling	1.0	attractiveness	173.32880302311787	
25.0	148.00152254645582	rating	2.0		295	25.0	female	west_asian	2.6756864305610826	smiling	064	sub-01	1.0	5.0	064_smiling	1.0	attractiveness	173.62869185066302	2.4999210654441413
25.0	148.39646457709932	pulse	2.0	t		25.0	female	west_asian	2.6756864305610826	smiling	064	sub-01	1.0	5.0	064_smiling	1.0	attractiveness	174.02363388130652	
25.0	149.09643599162155	pulse	2.0	t		25.0	female	west_asian	2.6756864305610826	smiling	064	sub-01	1.0	5.0	064_smiling	1.0	attractiveness	174.72360529582875	
25.0	149.796408311704	pulse	2.0	t		25.0	female	west_asian	2.6756864305610826	smiling	064	sub-01	1.0	5.0	064_smiling	1.0	attractiveness	175.4235776159112	
25.0	150.21820650426707	response	2.0	y		25.0	female	west_asian	2.6756864305610826	smiling	064	sub-01	1.0	5.0	064_smiling	1.0	attractiveness	175.84537580847427	
25.0	150.50144361189996	fix	3.0		443	25.0	female	west_asian	2.6756864305610826	smiling	064	sub-01	1.0	5.0	064_smiling	1.0	attractiveness	176.12861291610716	3.7665622959666507
25.0	150.50947078832905	pulse	3.0	t		25.0	female	west_asian	2.6756864305610826	smiling	064	sub-01	1.0	5.0	064_smiling	1.0	attractiveness	176.13664009253625	
25.0	151.20155025656095	pulse	3.0	t		25.0	female	west_asian	2.6756864305610826	smiling	064	sub-01	1.0	5.0	064_smiling	1.0	attractiveness	176.82871956076815	
25.0	151.90150959696257	pulse	3.0	t		25.0	female	west_asian	2.6756864305610826	smiling	064	sub-01	1.0	5.0	064_smiling	1.0	attractiveness	177.52867890116977	
25.0	152.60150304675335	pulse	3.0	t		25.0	female	west_asian	2.6756864305610826	smiling	064	sub-01	1.0	5.0	064_smiling	1.0	attractiveness	178.22867235096055	
25.0	153.3014759705402	pulse	3.0	t		25.0	female	west_asian	2.6756864305610826	smiling	064	sub-01	1.0	5.0	064_smiling	1.0	attractiveness	178.9286452747474	
25.0	154.0014712314478	pulse	3.0	t		25.0	female	west_asian	2.6756864305610826	smiling	064	sub-01	1.0	5.0	064_smiling	1.0	attractiveness	179.628640535655	
26.0	154.2680059078666	face	0.0		145	27.0	female	white	3.504576203740549	neutral	144	sub-01	1.0	5.0	144_neutral	0.0		179.8951752120738	1.2333205850754894
26.0	154.70145562564903	pulse	0.0	t		27.0	female	white	3.504576203740549	neutral	144	sub-01	1.0	5.0	144_neutral	0.0		180.32862492985623	
26.0	155.4014354920546	pulse	0.0	t		27.0	female	white	3.504576203740549	neutral	144	sub-01	1.0	5.0	144_neutral	0.0		181.0286047962618	
26.0	155.5013264929421	fix	1.0		444	27.0	female	white	3.504576203740549	neutral	144	sub-01	1.0	5.0	144_neutral	0.0		181.1284957971493	3.758253792557298
26.0	156.1014005676643	pulse	1.0	t		27.0	female	white	3.504576203740549	neutral	144	sub-01	1.0	5.0	144_neutral	0.0		181.7285698718715	
26.0	156.8013882822488	pulse	1.0	t		27.0	female	white	3.504576203740549	neutral	144	sub-01	1.0	5.0	144_neutral	0.0		182.428557586456	
26.0	157.50136633753573	pulse	1.0	t		27.0	female	white	3.504576203740549	neutral	144	sub-01	1.0	5.0	144_neutral	0.0		183.12853564174293	
26.0	158.20133533723492	pulse	1.0	t		27.0	female	white	3.504576203740549	neutral	144	sub-01	1.0	5.0	144_neutral	0.0		183.82850464144212	
26.0	158.90132516478843	pulse	1.0	t		27.0	female	white	3.504576203740549	neutral	144	sub-01	1.0	5.0	144_neutral	0.0		184.52849446899563	
27.0	159.2595802854994	face	0.0		146	31.0	female	west_asian	2.364902506963788	neutral	006	sub-01	1.0	5.0	006_neutral	0.0		184.8867495897066	1.24160976989333
27.0	159.60132827387497	pulse	0.0	t		31.0	female	west_asian	2.364902506963788	neutral	006	sub-01	1.0	5.0	006_neutral	0.0		185.22849757808217	
27.0	160.30131478104704	pulse	0.0	t		31.0	female	west_asian	2.364902506963788	neutral	006	sub-01	1.0	5.0	006_neutral	0.0		185.92848408525424	
27.0	160.50119005539273	fix	1.0		444	31.0	female	west_asian	2.364902506963788	neutral	006	sub-01	1.0	5.0	006_neutral	0.0		186.12835935959993	3.758332576186149
27.0	161.00129132706934	pulse	1.0	t		31.0	female	west_asian	2.364902506963788	neutral	006	sub-01	1.0	5.0	006_neutral	0.0		186.62846063127654	
27.0	161.70125428970823	pulse	1.0	t		31.0	female	west_asian	2.364902506963788	neutral	006	sub-01	1.0	5.0	006_neutral	0.0		187.32842359391543	
27.0	162.401247437645	pulse	1.0	t		31.0	female	west_asian	2.364902506963788	neutral	006	sub-01	1.0	5.0	006_neutral	0.0		188.0284167418522	
27.0	163.10123213369843	pulse	1.0	t		31.0	female	west_asian	2.364902506963788	neutral	006	sub-01	1.0	5.0	006_neutral	0.0		188.72840143790563	
27.0	163.8012120001058	pulse	1.0	t		31.0	female	west_asian	2.364902506963788	neutral	006	sub-01	1.0	5.0	006_neutral	0.0		189.428381304313	
28.0	164.25952263157888	face	0.0		146	40.0	female	west_asian	1.5777954635893354	neutral	038	sub-01	1.0	5.0	038_neutral	0.0		189.88669193578608	1.241535815912357
28.0	164.50119880913007	pulse	0.0	t		40.0	female	west_asian	1.5777954635893354	neutral	038	sub-01	1.0	5.0	038_neutral	0.0		190.12836811333727	
28.0	165.2011705255045	pulse	0.0	t		40.0	female	west_asian	1.5777954635893354	neutral	038	sub-01	1.0	5.0	038_neutral	0.0		190.8283398297117	
28.0	165.50105844749123	fix	1.0		444	40.0	female	west_asian	1.5777954635893354	neutral	038	sub-01	1.0	5.0	038_neutral	0.0		191.12822775169843	3.7665387514334725
28.0	165.90116186232444	pulse	1.0	t		40.0	female	west_asian	1.5777954635893354	neutral	038	sub-01	1.0	5.0	038_neutral	0.0		191.52833116653164	
28.0	166.60113931390697	pulse	1.0	t		40.0	female	west_asian	1.5777954635893354	neutral	038	sub-01	1.0	5.0	038_neutral	0.0		192.22830861811417	
28.0	167.3011062006335	pulse	1.0	t		40.0	female	west_asian	1.5777954635893354	neutral	038	sub-01	1.0	5.0	038_neutral	0.0		192.9282755048407	
28.0	168.00107761515574	pulse	1.0	t		40.0	female	west_asian	1.5777954635893354	neutral	038	sub-01	1.0	5.0	038_neutral	0.0		193.62824691936294	
28.0	168.70107317791735	pulse	1.0	t		40.0	female	west_asian	1.5777954635893354	neutral	038	sub-01	1.0	5.0	038_neutral	0.0		194.32824248212455	
29.0	169.2675971989247	face	0.0		145	28.0	male	east_asian	1.5563072025467568	neutral	005	sub-01	1.0	5.0	005_neutral	1.0	dominance	194.8947665031319	1.2333169628400356
29.0	169.40107417403306	pulse	0.0	t		28.0	male	east_asian	1.5563072025467568	neutral	005	sub-01	1.0	5.0	005_neutral	1.0	dominance	195.02824347824026	
29.0	170.10104589040748	pulse	0.0	t		28.0	male	east_asian	1.5563072025467568	neutral	005	sub-01	1.0	5.0	005_neutral	1.0	dominance	195.72821519461468	
29.0	170.50091416176474	fix	1.0		177	28.0	male	east_asian	1.5563072025467568	neutral	005	sub-01	1.0	5.0	005_neutral	1.0	dominance	196.12808346597194	1.499960910037771
29.0	170.80103360499197	pulse	1.0	t		28.0	male	east_asian	1.5563072025467568	neutral	005	sub-01	1.0	5.0	005_neutral	1.0	dominance	196.42820290919917	
29.0	171.50099807689548	pulse	1.0	t		28.0	male	east_asian	1.5563072025467568	neutral	005	sub-01	1.0	5.0	005_neutral	1.0	dominance	197.12816738110268	
29.0	172.0008750718025	rating	2.0		294	28.0	male	east_asian	1.5563072025467568	neutral	005	sub-01	1.0	5.0	005_neutral	1.0	dominance	197.6280443760097	2.4999334414169425
29.0	172.19580025905088	pulse	2.0	t		28.0	male	east_asian	1.5563072025467568	neutral	005	sub-01	1.0	5.0	005_neutral	1.0	dominance	197.82296956325808	
29.0	172.89576865504205	pulse	2.0	t		28.0	male	east_asian	1.5563072025467568	neutral	005	sub-01	1.0	5.0	005_neutral	1.0	dominance	198.52293795924925	
29.0	173.2343076443358	response	2.0	w		28.0	male	east_asian	1.5563072025467568	neutral	005	sub-01	1.0	5.0	005_neutral	1.0	dominance	198.861476948543	
29.0	173.60094884467253	pulse	2.0	t		28.0	male	east_asian	1.5563072025467568	neutral	005	sub-01	1.0	5.0	005_neutral	1.0	dominance	199.22811814887973	
29.0	174.30092025919475	pulse	2.0	t		28.0	male	east_asian	1.5563072025467568	neutral	005	sub-01	1.0	5.0	005_neutral	1.0	dominance	199.92808956340195	
29.0	174.50080851321945	fix	3.0		444	28.0	male	east_asian	1.5563072025467568	neutral	005	sub-01	1.0	5.0	005_neutral	1.0	dominance	200.12797781742665	3.766562899672863
29.0	175.00090737007304	pulse	3.0	t		28.0	male	east_asian	1.5563072025467568	neutral	005	sub-01	1.0	5.0	005_neutral	1.0	dominance	200.62807667428024	
29.0	175.7009014235682	pulse	3.0	t		28.0	male	east_asian	1.5563072025467568	neutral	005	sub-01	1.0	5.0	005_neutral	1.0	dominance	201.3280707277754	
29.0	176.40089668447763	pulse	3.0	t		28.0	male	east_asian	1.5563072025467568	neutral	005	sub-01	1.0	5.0	005_neutral	1.0	dominance	202.02806598868483	
29.0	177.10085662858546	pulse	3.0	t		28.0	male	east_asian	1.5563072025467568	neutral	005	sub-01	1.0	5.0	005_neutral	1.0	dominance	202.72802593279266	
29.0	177.8008283449617	pulse	3.0	t		28.0	male	east_asian	1.5563072025467568	neutral	005	sub-01	1.0	5.0	005_neutral	1.0	dominance	203.4279976491689	
30.0	178.26737141289232	face	0.0		145	21.0	male	black	2.969757262236371	smiling	137	sub-01	1.0	5.0	137_smiling	0.0		203.89454071709952	1.2333163591338234
30.0	178.50083115219422	pulse	0.0	t		21.0	male	black	2.969757262236371	smiling	137	sub-01	1.0	5.0	137_smiling	0.0		204.12800045640142	
30.0	179.20080286856864	pulse	0.0	t		21.0	male	black	2.969757262236371	smiling	137	sub-01	1.0	5.0	137_smiling	0.0		204.82797217277584	
30.0	179.50068777202614	fix	1.0		444	21.0	male	black	2.969757262236371	smiling	137	sub-01	1.0	5.0	137_smiling	0.0		205.12785707623334	3.7583078242405463
30.0	179.900795110947	pulse	1.0	t		21.0	male	black	2.969757262236371	smiling	137	sub-01	1.0	5.0	137_smiling	0.0		205.5279644151542	
30.0	180.60075746987968	pulse	1.0	t		21.0	male	black	2.969757262236371	smiling	137	sub-01	1.0	5.0	137_smiling	0.0		206.22792677408688	
30.0	181.30075665487675	pulse	1.0	t		21.0	male	black	2.969757262236371	smiling	137	sub-01	1.0	5.0	137_smiling	0.0		206.92792595908395	
30.0	182.00071961751564	pulse	1.0	t		21.0	male	black	2.969757262236371	smiling	137	sub-01	1.0	5.0	137_smiling	0.0		207.62788892172284	
30.0	182.70071397286483	pulse	1.0	t		21.0	male	black	2.969757262236371	smiling	137	sub-01	1.0	5.0	137_smiling	0.0		208.32788327707203	
31.0	183.2589955962667	face	0.0		146	37.0	male	white	3.898925586947871	smiling	101	sub-01	1.0	5.0	101_smiling	0.0		208.8861649004739	1.241560266005763
31.0	183.40070319671395	pulse	0.0	t		37.0	male	white	3.898925586947871	smiling	101	sub-01	1.0	5.0	101_smiling	0.0		209.02787250092115	
31.0	184.100676724207	pulse	0.0	t		37.0	male	white	3.898925586947871	smiling	101	sub-01	1.0	5.0	101_smiling	0.0		209.7278460284142	
31.0	184.50055586227245	fix	1.0		444	37.0	male	white	3.898925586947871	smiling	101	sub-01	1.0	5.0	101_smiling	0.0		210.12772516647965	3.7665514292584703
31.0	184.80066624990832	pulse	1.0	t		37.0	male	white	3.898925586947871	smiling	101	sub-01	1.0	5.0	101_smiling	0.0		210.42783555411552	
31.0	185.50063223107645	pulse	1.0	t		37.0	male	white	3.898925586947871	smiling	101	sub-01	1.0	5.0	101_smiling	0.0		211.12780153528365	
31.0	186.2006117956298	pulse	1.0	t		37.0	male	white	3.898925586947871	smiling	101	sub-01	1.0	5.0	101_smiling	0.0		211.827781099837	
31.0	186.90059800094787	pulse	1.0	t		37.0	male	white	3.898925586947871	smiling	101	sub-01	1.0	5.0	101_smiling	0.0		212.52776730515507	
31.0	187.60058118773668	pulse	1.0	t		37.0	male	white	3.898925586947871	smiling	101	sub-01	1.0	5.0	101_smiling	0.0		213.22775049194388	
32.0	188.26710729153092	face	0.0		145	28.0	male	white	3.9076800636689217	neutral	033	sub-01	1.0	5.0	033_neutral	0.0		213.89427659573812	1.23331666098602
32.0	188.3005713171442	pulse	0.0	t		28.0	male	white	3.9076800636689217	neutral	033	sub-01	1.0	5.0	033_neutral	0.0		213.9277406213514	
32.0	189.00055178725597	pulse	0.0	t		28.0	male	white	3.9076800636689217	neutral	033	sub-01	1.0	5.0	033_neutral	0.0		214.62772109146317	
32.0	189.50042395251694	fix	1.0		443	28.0	male	white	3.9076800636689217	neutral	033	sub-01	1.0	5.0	033_neutral	0.0		215.12759325672414	3.76655293852491
32.0	189.7005295406907	pulse	1.0	t		28.0	male	white	3.9076800636689217	neutral	033	sub-01	1.0	5.0	033_neutral	0.0		215.3276988448979	
32.0	190.4004931070358	pulse	1.0	t		28.0	male	white	3.9076800636689217	neutral	033	sub-01	1.0	5.0	033_neutral	0.0		216.027662411243	
32.0	191.10050527171188	pulse	1.0	t		28.0	male	white	3.9076800636689217	neutral	033	sub-01	1.0	5.0	033_neutral	0.0		216.72767457591908	
32.0	191.8004579713488	pulse	1.0	t		28.0	male	white	3.9076800636689217	neutral	033	sub-01	1.0	5.0	033_neutral	0.0		217.427627275556	
32.0	192.50045383596262	pulse	1.0	t		28.0	male	white	3.9076800636689217	neutral	033	sub-01	1.0	5.0	033_neutral	0.0		218.12762314016982	
32.0	193.20043189125136	pulse	1.0	t		28.0	male	white	3.9076800636689217	neutral	033	sub-01	1.0	5.0	033_neutral	0.0		218.82760119545856	
33.0	193.26697689104185	face	0.0		146	19.0	male	white	3.2522881018702745	neutral	018	sub-01	1.0	5.0	018_neutral	0.0		218.89414619524905	1.23331666098602
33.0	193.9004229262173	pulse	0.0	t		19.0	male	white	3.2522881018702745	neutral	018	sub-01	1.0	5.0	018_neutral	0.0		219.5275922304245	
33.0	194.50029355202787	fix	1.0		443	19.0	male	white	3.2522881018702745	neutral	018	sub-01	1.0	5.0	018_neutral	0.0		220.12746285623507	3.7665511274062737
33.0	194.60040732041853	pulse	1.0	t		19.0	male	white	3.2522881018702745	neutral	018	sub-01	1.0	5.0	018_neutral	0.0		220.22757662462573	
33.0	195.30038416829484	pulse	1.0	t		19.0	male	white	3.2522881018702745	neutral	018	sub-01	1.0	5.0	018_neutral	0.0		220.92755347250204	
33.0	196.00036131802335	pulse	1.0	t		19.0	male	white	3.2522881018702745	neutral	018	sub-01	1.0	5.0	018_neutral	0.0		221.62753062223055	
33.0	196.7003405807227	pulse	1.0	t		19.0	male	white	3.2522881018702745	neutral	018	sub-01	1.0	5.0	018_neutral	0.0		222.3275098849299	
33.0	197.40031471192196	pulse	1.0	t		19.0	male	white	3.2522881018702745	neutral	018	sub-01	1.0	5.0	018_neutral	0.0		223.02748401612916	
33.0	198.1003054450357	pulse	1.0	t		19.0	male	white	3.2522881018702745	neutral	018	sub-01	1.0	5.0	018_neutral	0.0		223.7274747492429	
34.0	198.26684467943414	face	0.0		146	31.0	female	west_asian	2.364902506963788	smiling	006	sub-01	1.0	5.0	006_smiling	0.0		223.89401398364134	1.233314548015187
34.0	198.80029889482648	pulse	0.0	t		31.0	female	west_asian	2.364902506963788	smiling	006	sub-01	1.0	5.0	006_smiling	0.0		224.42746819903368	
34.0	199.50015922744933	fix	1.0		444	31.0	female	west_asian	2.364902506963788	smiling	006	sub-01	1.0	5.0	006_smiling	0.0		225.12732853165653	3.758296051973957
34.0	199.5078839471862	pulse	1.0	t		31.0	female	west_asian	2.364902506963788	smiling	006	sub-01	1.0	5.0	006_smiling	0.0		225.1350532513934	
34.0	200.2002531942835	pulse	1.0	t		31.0	female	west_asian	2.364902506963788	smiling	006	sub-01	1.0	5.0	006_smiling	0.0		225.8274224984907	
34.0	200.90023366439527	pulse	1.0	t		31.0	female	west_asian	2.364902506963788	smiling	006	sub-01	1.0	5.0	006_smiling	0.0		226.52740296860247	
34.0	201.60020447521129	pulse	1.0	t		31.0	female	west_asian	2.364902506963788	smiling	006	sub-01	1.0	5.0	006_smiling	0.0		227.22737377941849	
34.0	202.30019551017904	pulse	1.0	t		31.0	female	west_asian	2.364902506963788	smiling	006	sub-01	1.0	5.0	006_smiling	0.0		227.92736481438624	
34.0	203.00017175434914	pulse	1.0	t		31.0	female	west_asian	2.364902506963788	smiling	006	sub-01	1.0	5.0	006_smiling	0.0		228.62734105855634	
35.0	203.2584552794233	face	0.0		146	47.0	male	east_asian	2.171110226820533	smiling	024	sub-01	1.0	5.0	024_smiling	0.0		228.8856245836305	1.2415738493891695
35.0	203.70017607084628	pulse	0.0	t		47.0	male	east_asian	2.171110226820533	smiling	024	sub-01	1.0	5.0	024_smiling	0.0		229.32734537505348	
35.0	204.4001405427498	pulse	0.0	t		47.0	male	east_asian	2.171110226820533	smiling	024	sub-01	1.0	5.0	024_smiling	0.0		230.027309846957	
35.0	204.50002912881246	fix	1.0		444	47.0	male	east_asian	2.171110226820533	smiling	024	sub-01	1.0	5.0	024_smiling	0.0		230.12719843301966	3.766551731112486
35.0	205.10012886103868	pulse	1.0	t		47.0	male	east_asian	2.171110226820533	smiling	024	sub-01	1.0	5.0	024_smiling	0.0		230.72729816524588	
35.0	205.80009423850242	pulse	1.0	t		47.0	male	east_asian	2.171110226820533	smiling	024	sub-01	1.0	5.0	024_smiling	0.0		231.42726354270962	
35.0	206.500076519731	pulse	1.0	t		47.0	male	east_asian	2.171110226820533	smiling	024	sub-01	1.0	5.0	024_smiling	0.0		232.1272458239382	
35.0	207.20006121578626	pulse	1.0	t		47.0	male	east_asian	2.171110226820533	smiling	024	sub-01	1.0	5.0	024_smiling	0.0		232.82723051999346	
35.0	207.9000271969544	pulse	1.0	t		47.0	male	east_asian	2.171110226820533	smiling	024	sub-01	1.0	5.0	024_smiling	0.0		233.5271965011616	
36.0	208.26658085992494	face	0.0		145	27.0	female	white	4.181058495821727	smiling	039	sub-01	1.0	5.0	039_smiling	1.0	trustworthiness	233.89375016413214	1.2333151517213992
36.0	208.600035135687	pulse	0.0	t		27.0	female	white	4.181058495821727	smiling	039	sub-01	1.0	5.0	039_smiling	1.0	trustworthiness	234.2272044398942	
36.0	209.30000353167998	pulse	0.0	t		27.0	female	white	4.181058495821727	smiling	039	sub-01	1.0	5.0	039_smiling	1.0	trustworthiness	234.92717283588718	
36.0	209.49989601164634	fix	1.0		177	27.0	female	white	4.181058495821727	smiling	039	sub-01	1.0	5.0	039_smiling	1.0	trustworthiness	235.12706531585354	1.4999633248626196
36.0	209.99999758517697	pulse	1.0	t		27.0	female	white	4.181058495821727	smiling	039	sub-01	1.0	5.0	039_smiling	1.0	trustworthiness	235.62716688938417	
36.0	210.69997684787631	pulse	1.0	t		27.0	female	white	4.181058495821727	smiling	039	sub-01	1.0	5.0	039_smiling	1.0	trustworthiness	236.32714615208351	
36.0	210.99985933650896	rating	2.0		295	27.0	female	white	4.181058495821727	smiling	039	sub-01	1.0	5.0	039_smiling	1.0	trustworthiness	236.62702864071616	2.4999301210336853
36.0	211.3947781244733	pulse	2.0	t		27.0	female	white	4.181058495821727	smiling	039	sub-01	1.0	5.0	039_smiling	1.0	trustworthiness	237.0219474286805	
36.0	212.0947543686434	pulse	2.0	t		27.0	female	white	4.181058495821727	smiling	039	sub-01	1.0	5.0	039_smiling	1.0	trustworthiness	237.7219236728506	
36.0	212.53325952021623	response	2.0	b		27.0	female	white	4.181058495821727	smiling	039	sub-01	1.0	5.0	039_smiling	1.0	trustworthiness	238.16042882442343	
36.0	212.79474057396146	pulse	2.0	t		27.0	female	white	4.181058495821727	smiling	039	sub-01	1.0	5.0	039_smiling	1.0	trustworthiness	238.42190987816866	
36.0	213.49978945754265	fix	3.0		443	27.0	female	white	4.181058495821727	smiling	039	sub-01	1.0	5.0	039_smiling	1.0	trustworthiness	239.12695876174985	3.766554447789531
36.0	213.50787640086128	pulse	3.0	t		27.0	female	white	4.181058495821727	smiling	039	sub-01	1.0	5.0	039_smiling	1.0	trustworthiness	239.13504570506848	
36.0	214.19988463178925	pulse	3.0	t		27.0	female	white	4.181058495821727	smiling	039	sub-01	1.0	5.0	039_smiling	1.0	trustworthiness	239.82705393599645	
36.0	214.89985242407602	pulse	3.0	t		27.0	female	white	4.181058495821727	smiling	039	sub-01	1.0	5.0	039_smiling	1.0	trustworthiness	240.52702172828322	
36.0	215.59986066466263	pulse	3.0	t		27.0	female	white	4.181058495821727	smiling	039	sub-01	1.0	5.0	039_smiling	1.0	trustworthiness	241.22702996886983	
36.0	216.2998284569494	pulse	3.0	t		27.0	female	white	4.181058495821727	smiling	039	sub-01	1.0	5.0	039_smiling	1.0	trustworthiness	241.9269977611566	
36.0	216.99980771964874	pulse	3.0	t		27.0	female	white	4.181058495821727	smiling	039	sub-01	1.0	5.0	039_smiling	1.0	trustworthiness	242.62697702385594	
37.0	217.26634390533218	face	0.0		145	25.0	female	black	3.858336649423	smiling	126	sub-01	1.0	5.0	126_smiling	0.0		242.89351320953938	1.2333142461629905
37.0	217.69979151014377	pulse	0.0	t		25.0	female	black	3.858336649423	smiling	126	sub-01	1.0	5.0	126_smiling	0.0		243.32696081435097	
37.0	218.39977409322637	pulse	0.0	t		25.0	female	black	3.858336649423	smiling	126	sub-01	1.0	5.0	126_smiling	0.0		244.02694339743357	
37.0	218.49965815149517	fix	1.0		444	25.0	female	black	3.858336649423	smiling	126	sub-01	1.0	5.0	126_smiling	0.0		244.12682745570237	3.7582220979929843
37.0	219.09975577075056	pulse	1.0	t		25.0	female	black	3.858336649423	smiling	126	sub-01	1.0	5.0	126_smiling	0.0		244.72692507495776	
37.0	219.79972477044794	pulse	1.0	t		25.0	female	black	3.858336649423	smiling	126	sub-01	1.0	5.0	126_smiling	0.0		245.42689407465514	
37.0	220.49970795723675	pulse	1.0	t		25.0	female	black	3.858336649423	smiling	126	sub-01	1.0	5.0	126_smiling	0.0		246.12687726144395	
37.0	221.19970261443996	pulse	1.0	t		25.0	female	black	3.858336649423	smiling	126	sub-01	1.0	5.0	126_smiling	0.0		246.82687191864716	
37.0	221.89967342525597	pulse	1.0	t		25.0	female	black	3.858336649423	smiling	126	sub-01	1.0	5.0	126_smiling	0.0		247.52684272946317	
38.0	222.25788024948815	face	0.0		146	21.0	male	east_asian/white	3.501790688420215	neutral	036	sub-01	1.0	5.0	036_neutral	0.0		247.88504955369535	1.241648105222339
38.0	222.59967261025304	pulse	0.0	t		21.0	male	east_asian/white	3.501790688420215	neutral	036	sub-01	1.0	5.0	036_neutral	0.0		248.22684191446024	
38.0	223.29964372292125	pulse	0.0	t		21.0	male	east_asian/white	3.501790688420215	neutral	036	sub-01	1.0	5.0	036_neutral	0.0		248.92681302712845	
38.0	223.4995283547105	fix	1.0		444	21.0	male	east_asian/white	3.501790688420215	neutral	036	sub-01	1.0	5.0	036_neutral	0.0		249.1266976589177	3.758345555865162
38.0	223.9996229856224	pulse	1.0	t		21.0	male	east_asian/white	3.501790688420215	neutral	036	sub-01	1.0	5.0	036_neutral	0.0		249.6267922898296	
38.0	224.69958836308433	pulse	1.0	t		21.0	male	east_asian/white	3.501790688420215	neutral	036	sub-01	1.0	5.0	036_neutral	0.0		250.32675766729153	
38.0	225.3995803036105	pulse	1.0	t		21.0	male	east_asian/white	3.501790688420215	neutral	036	sub-01	1.0	5.0	036_neutral	0.0		251.0267496078177	
38.0	226.09956832004718	pulse	1.0	t		21.0	male	east_asian/white	3.501790688420215	neutral	036	sub-01	1.0	5.0	036_neutral	0.0		251.72673762425438	
38.0	226.79955090312978	pulse	1.0	t		21.0	male	east_asian/white	3.501790688420215	neutral	036	sub-01	1.0	5.0	036_neutral	0.0		252.42672020733698	
39.0	227.25787391057565	face	0.0		146	27.0	female	white	3.504576203740549	smiling	144	sub-01	1.0	5.0	144_smiling	0.0		252.88504321478285	1.2415204214103142
39.0	227.49953861771246	pulse	0.0	t		27.0	female	white	3.504576203740549	smiling	144	sub-01	1.0	5.0	144_smiling	0.0		253.12670792191966	
39.0	228.19951003223468	pulse	0.0	t		27.0	female	white	3.504576203740549	smiling	144	sub-01	1.0	5.0	144_smiling	0.0		253.82667933644188	
39.0	228.49939433198597	fix	1.0		444	27.0	female	white	3.504576203740549	smiling	144	sub-01	1.0	5.0	144_smiling	0.0		254.12656363619317	3.7498912574628775
39.0	228.89950197276085	pulse	1.0	t		27.0	female	white	3.504576203740549	smiling	144	sub-01	1.0	5.0	144_smiling	0.0		254.52667127696805	
39.0	229.59947791507693	pulse	1.0	t		27.0	female	white	3.504576203740549	smiling	144	sub-01	1.0	5.0	144_smiling	0.0		255.22664721928413	
39.0	230.29945053701158	pulse	1.0	t		27.0	female	white	3.504576203740549	smiling	144	sub-01	1.0	5.0	144_smiling	0.0		255.92661984121878	
39.0	230.9994409682713	pulse	1.0	t		27.0	female	white	3.504576203740549	smiling	144	sub-01	1.0	5.0	144_smiling	0.0		256.6266102724785	
39.0	231.69940664758724	pulse	1.0	t		27.0	female	white	3.504576203740549	smiling	144	sub-01	1.0	5.0	144_smiling	0.0		257.32657595179444	
40.0	232.24928558944885	fix	0.0		720													257.87645489365605	5.999839716063434
40.0	232.39939768255317	pulse	0.0	t														258.0265669867604	
40.0	233.09937875637115	pulse	0.0	t														258.72654806057835	
40.0	233.7993640561308	pulse	0.0	t														259.426533360338	
40.0	234.4993285280343	pulse	0.0	t														260.1264978322415	
40.0	235.19932499635615	pulse	0.0	t														260.82649430056335	
40.0	235.89931271093883	pulse	0.0	t														261.52648201514603	
40.0	236.59927869210696	pulse	0.0	t														262.22644799631416	
40.0	237.29925976592494	pulse	0.0	t														262.92642907013214	
40.0	237.99924295271376	pulse	0.0	t														263.62641225692096	
