trial_nr	onset	event_type	phase	response	nr_frames	trial_type	stim_name	task_probe	onset_abs	duration
0.0	0.05730105398015439	baseline	0.0		41.0		baseline	0.0	88.33485728843698	0.3496867218791522
0.0	0.40698777585930657	ISI	1.0		11.0		baseline	0.0	88.68454401031613	0.10000630872764305
1.0	0.5069940845869496	baseline	0.0		48.0		baseline	0.0	88.78455031904377	0.39998025881504873
1.0	0.7070975597898723	pulse	0.0	t			baseline	0.0	88.9846537942467	
1.0	0.9069743434019983	ISI	1.0		11.0		baseline	0.0	89.18453057785882	0.09999755499029561
2.0	1.006971898392294	baseline	0.0		48.0		baseline	0.0	89.28452813284912	0.39998086252126086
2.0	1.4069527609135548	ISI	1.0		11.0		baseline	0.0	89.68450899537038	0.09998366975287354
2.0	1.411619709912884	pulse	1.0	t			baseline	0.0	89.68917594436971	
3.0	1.5069364306664284	baseline	0.0		48.0		baseline	0.0	89.78449266512325	0.399999577406561
3.0	1.9069360080729894	ISI	1.0		11.0		baseline	0.0	90.18449224252981	0.09999514016635658
4.0	2.006931148239346	baseline	0.0		48.0		baseline	0.0	90.28448738269617	0.39997361804944376
4.0	2.1070494444238648	pulse	0.0	t			baseline	0.0	90.38460567888069	
4.0	2.4069047662887897	ISI	1.0		11.0		baseline	0.0	90.68446100074561	0.10000630872764305
5.0	2.5069110750164327	baseline	0.0		48.0		baseline	0.0	90.78446730947326	0.39998810699216847
5.0	2.807016934857529	pulse	0.0	t			baseline	0.0	91.08457316931435	
5.0	2.906899182008601	ISI	1.0		11.0		baseline	0.0	91.18445541646543	0.10000600687453698
6.0	3.006905188883138	baseline	0.0		48.0		baseline	0.0	91.28446142333996	0.3999805606672453
6.0	3.4068857495503835	ISI	1.0		11.0		baseline	0.0	91.68444198400721	0.10000751613915781
7.0	3.5068932656895413	baseline	0.0		47.0		baseline	0.0	91.78444950014637	0.3999787495504279
7.0	3.5112562487338437	pulse	0.0	t			baseline	0.0	91.78881248319067	
7.0	3.906872015239969	ISI	1.0		11.0		baseline	0.0	92.1844282496968	0.09999725313718955
8.0	4.006869268377159	baseline	0.0		48.0		baseline	0.0	92.28442550283398	0.39999172922853177
8.0	4.206986628818413	pulse	0.0	t			baseline	0.0	92.48454286327524	
8.0	4.4068609976056905	ISI	1.0		11.0		baseline	0.0	92.68441723206251	0.09999544202037214
9.0	4.506856439626063	baseline	0.0		48.0		baseline	0.0	92.78441267408289	0.39999112552231963
9.0	4.906847565148382	ISI	1.0		11.0		baseline	0.0	93.1844037996052	0.09999876240271988
9.0	4.911449615756283	pulse	1.0	t			baseline	0.0	93.1890058502131	
10.0	5.006846327551102	baseline	0.0		48.0		baseline	0.0	93.28440256200793	0.39998659772663814
10.0	5.40683292527774	ISI	1.0		11.0		baseline	0.0	93.68438915973456	0.10000449760991614
11.0	5.506837422887656	baseline	0.0		48.0		baseline	0.0	93.78439365734448	0.39998267363898776
11.0	5.606944550511798	pulse	0.0	t			baseline	0.0	93.88450078496862	
11.0	5.906820096526644	ISI	1.0		4.0		baseline	0.0	94.18437633098347	0.12505406941545516
12.0	6.031874165942099	body	0.0		45.0	body	body-101.jpg	0.0	94.30943040039892	0.3748826923838351
12.0	6.3068773278519075	pulse	0.0	t		body	body-101.jpg	0.0	94.58443356230873	
12.0	6.4067568583259344	ISI	1.0		2.0	body	body-101.jpg	0.0	94.68431309278276	0.11670089176459442
13.0	6.523457750090529	body	0.0		46.0	body	body-73.jpg	0.0	94.80101398454735	0.3832832609541583
13.0	6.906741011044687	ISI	1.0		7.0	body	body-73.jpg	0.0	95.18429724550151	0.11668610096785414
14.0	7.023427112012541	body	0.0		45.0	body	body-104.jpg	0.0	95.30098334646937	0.38330378695718537
14.0	7.015229690500746	pulse	0.0	t		body	body-104.jpg	0.0	95.29278592495757	
14.0	7.406730898969727	ISI	1.0		7.0	body	body-104.jpg	0.0	95.68428713342655	0.11669968435217015
15.0	7.523430583321897	body	0.0		46.0	body	body-63.jpg	0.0	95.80098681777872	0.38330197583854897
15.0	7.706855473696123	pulse	0.0	t		body	body-63.jpg	0.0	95.98441170815295	
15.0	7.906732559160446	ISI	1.0		7.0	body	body-63.jpg	0.0	96.18428879361727	0.11668610096785414
16.0	8.0234186601283	body	0.0		46.0	body	body-63.jpg	1.0	96.30097489458512	0.3832877887489303
16.0	8.40670644887723	ISI	1.0		6.0	body	body-63.jpg	1.0	96.68426268333405	0.11669666582292848
16.0	8.455104650920475	pulse	1.0	t		body	body-63.jpg	1.0	96.7326608853773	
17.0	8.523403114700159	body	0.0		46.0	body	body-54.jpg	0.0	96.80095934915698	0.38329020357286936
17.0	8.673488644742974	response	0.0	b		body	body-54.jpg	0.0	96.9510448791998	
17.0	8.906693318273028	ISI	1.0		7.0	body	body-54.jpg	0.0	97.18424955272985	0.11669666582201899
18.0	9.023389984095047	body	0.0		46.0	body	body-90.jpg	0.0	97.30094621855187	0.38330227769256453
18.0	9.106801019417617	pulse	0.0	t		body	body-90.jpg	0.0	97.38435725387444	
18.0	9.406692261787612	ISI	1.0		6.0	body	body-90.jpg	0.0	97.68424849624444	0.11668579911474808
19.0	9.52337806090236	body	0.0		46.0	body	body-113.jpg	0.0	97.80093429535918	0.3832980517499891
19.0	9.80678813029499	pulse	0.0	t		body	body-113.jpg	0.0	98.08434436475181	
19.0	9.906676112652349	ISI	1.0		7.0	body	body-113.jpg	0.0	98.18423234710917	0.11668911949800531
20.0	10.023365232150354	body	0.0		46.0	body	body-13.jpg	0.0	98.30092146660718	0.3832862794843095
20.0	10.406651511634664	ISI	1.0		7.0	body	body-13.jpg	0.0	98.68420774609149	0.11669274173345912
21.0	10.523344253368123	body	0.0		45.0	body	body-144.jpg	0.0	98.80090048782495	0.38329563692605007
21.0	10.515131135501179	pulse	0.0	t		body	body-144.jpg	0.0	98.792687369958	
21.0	10.906639890294173	ISI	1.0		7.0	body	body-144.jpg	0.0	99.184196124751	0.11669726952823112
22.0	11.023337159822404	body	0.0		46.0	body	body-19.jpg	0.0	99.30089339427923	0.3832886943082485
22.0	11.206746957547693	pulse	0.0	t		body	body-19.jpg	0.0	99.48430319200452	
22.0	11.406625854130652	ISI	1.0		7.0	body	body-19.jpg	0.0	99.68418208858748	0.11669877879285195
23.0	11.523324632923504	body	0.0		46.0	body	body-76.jpg	0.0	99.80088086738033	0.3832886943082485
23.0	11.906613327231753	ISI	1.0		1.0	body	body-76.jpg	0.0	100.18416956168858	0.10834771411282418
23.0	11.983332885584787	pulse	1.0	t		body	body-76.jpg	0.0	100.26088912004161	
24.0	12.014961041344577	word	0.0		47.0	character	word-91.jpg	0.0	100.2925172758014	0.3916835276713755
24.0	12.406644569015953	ISI	1.0		7.0	character	word-91.jpg	0.0	100.68420080347278	0.11667312128975027
25.0	12.523317690305703	word	0.0		46.0	character	word-91.jpg	1.0	100.80087392476253	0.3832699794220389
25.0	12.606707294065927	pulse	0.0	t		character	word-91.jpg	1.0	100.88426352852275	
25.0	12.906587669727742	ISI	1.0		5.0	character	word-91.jpg	1.0	101.18414390418457	0.11669998620527622
26.0	13.023287655933018	word	0.0		46.0	character	word-129.jpg	0.0	101.30084389038984	0.38329744804468646
26.0	13.140033825645332	response	0.0	b		character	word-129.jpg	0.0	101.41759006010216	
26.0	13.306693499384892	pulse	0.0	t		character	word-129.jpg	0.0	101.58424973384172	
26.0	13.406585103977704	ISI	1.0		7.0	character	word-129.jpg	0.0	101.68414133843453	0.11668549726164201
27.0	13.523270601239346	word	0.0		46.0	character	word-17.jpg	0.0	101.80082683569617	0.3832877887489303
27.0	13.906558389988277	ISI	1.0		7.0	character	word-17.jpg	0.0	102.1841146244451	0.11669334543967125
28.0	14.023251735427948	word	0.0		45.0	character	word-97.jpg	0.0	102.30080796988477	0.3833043906633975
28.0	14.015034391619338	pulse	0.0	t		character	word-97.jpg	0.0	102.29259062607616	
28.0	14.406556126091346	ISI	1.0		4.0	character	word-97.jpg	0.0	102.68411236054817	0.11667070646581124
29.0	14.523226832557157	word	0.0		46.0	character	word-29.jpg	0.0	102.80078306701398	0.3832971461906709
29.0	14.70667466375835	pulse	0.0	t		character	word-29.jpg	0.0	102.98423089821517	
29.0	14.906523978747828	ISI	1.0		5.0	character	word-29.jpg	0.0	103.18408021320465	0.11669213802815648
30.0	15.023216116775984	word	0.0		46.0	character	word-117.jpg	0.0	103.30077235123281	0.38329744804377697
30.0	15.406513564819761	ISI	1.0		4.0	character	word-117.jpg	0.0	103.68406979927659	0.11670692882398725
30.0	15.466828017149055	pulse	1.0	t		character	word-117.jpg	0.0	103.74438425160588	
31.0	15.523220493643748	word	0.0		46.0	character	word-69.jpg	0.0	103.80077672810057	0.38328567577809736
31.0	15.906506169421846	ISI	1.0		7.0	character	word-69.jpg	0.0	104.18406240387867	0.11668308243861247
32.0	16.023189251860458	word	0.0		46.0	character	word-24.jpg	0.0	104.30074548631728	0.38330499436870014
32.0	16.10662835951007	pulse	0.0	t		character	word-24.jpg	0.0	104.38418459396689	
32.0	16.40649424622916	ISI	1.0		7.0	character	word-24.jpg	0.0	104.68405048068598	0.1166800639084613
33.0	16.52317431013762	word	0.0		46.0	character	word-6.jpg	0.0	104.80073054459444	0.3833062017811244
33.0	16.806601283297823	pulse	0.0	t		character	word-6.jpg	0.0	105.08415751775465	
33.0	16.906480511918744	ISI	1.0		6.0	character	word-6.jpg	0.0	105.18403674637557	0.11669666582201899
34.0	17.023177177740763	word	0.0		46.0	character	word-15.jpg	0.0	105.30073341219759	0.38330288139786717
34.0	17.40648005913863	ISI	1.0		4.0	character	word-15.jpg	0.0	105.68403629359545	0.11666587681793317
35.0	17.523145935956563	word	0.0		45.0	character	word-100.jpg	0.0	105.80070217041339	0.38331586107688054
35.0	17.514882408641824	pulse	0.0	t		character	word-100.jpg	0.0	105.79243864309865	
35.0	17.906461797033444	ISI	1.0		4.0	character	word-100.jpg	0.0	106.18401803149027	0.11669213802724698
36.0	18.02315393506069	adult	0.0		46.0	face	adult-13.jpg	0.0	106.30071016951752	0.38328567577809736
36.0	18.206574297641055	pulse	0.0	t		face	adult-13.jpg	0.0	106.48413053209788	
36.0	18.406439610838788	ISI	1.0		4.0	face	adult-13.jpg	0.0	106.68399584529561	0.11670481585315429
37.0	18.523144426691942	adult	0.0		46.0	face	adult-23.jpg	0.0	106.80070066114877	0.38332763334256015
37.0	18.906472060034503	ISI	1.0		6.0	face	adult-23.jpg	0.0	107.18402829449133	0.11668187502618821
37.0	18.9504982234439	pulse	1.0	t		face	adult-23.jpg	0.0	107.22805445790073	
38.0	19.02315393506069	adult	0.0		46.0	face	adult-105.jpg	0.0	107.30071016951752	0.38329110913218756
38.0	19.40644504419288	ISI	1.0		6.0	face	adult-105.jpg	0.0	107.6840012786497	0.11671175847186532
39.0	19.523156802664744	adult	0.0		46.0	face	adult-35.jpg	0.0	107.80071303712157	0.3832760164823412
39.0	19.60655636757383	pulse	0.0	t		face	adult-35.jpg	0.0	107.88411260203065	
39.0	19.906432819147085	ISI	1.0		2.0	face	adult-35.jpg	0.0	108.18398905360391	0.11669998620527622
40.0	20.02313280535236	adult	0.0		46.0	face	adult-82.jpg	0.0	108.30068903980919	0.38328477021877916
40.0	20.306541667333477	pulse	0.0	t		face	adult-82.jpg	0.0	108.5840979017903	
40.0	20.40641757557114	ISI	1.0		6.0	face	adult-82.jpg	0.0	108.68397381002796	0.11670179732300312
41.0	20.523119372894143	adult	0.0		46.0	face	adult-87.jpg	0.0	108.80067560735097	0.38327752574696206
41.0	20.906396898641106	ISI	1.0		6.0	face	adult-87.jpg	0.0	109.18395313309793	0.11670209917701868
42.0	21.023098997818124	adult	0.0		45.0	face	adult-72.jpg	0.0	109.30065523227495	0.383299862867716
42.0	21.010026650599684	pulse	0.0	t		face	adult-72.jpg	0.0	109.28758288505651	
42.0	21.40639886068584	ISI	1.0		5.0	face	adult-72.jpg	0.0	109.68395509514266	0.11670602326466906
43.0	21.52310488395051	adult	0.0		46.0	face	adult-16.jpg	0.0	109.80066111840733	0.38328024242491665
43.0	21.706501098291483	pulse	0.0	t		face	adult-16.jpg	0.0	109.9840573327483	
43.0	21.906385126375426	ISI	1.0		6.0	face	adult-16.jpg	0.0	110.18394136083225	0.11669636396891292
44.0	22.02308149034434	adult	0.0		46.0	face	adult-18.jpg	0.0	110.30063772480116	0.38328567577809736
44.0	22.406367166122436	ISI	1.0		6.0	face	adult-18.jpg	0.0	110.68392340057926	0.11668398799702118
44.0	22.447676652667724	pulse	1.0	t		face	adult-18.jpg	0.0	110.72523288712455	
45.0	22.523051154119457	adult	0.0		46.0	face	adult-9.jpg	0.0	110.80060738857628	0.3833089184581695
45.0	22.906360072577627	ISI	1.0		3.0	face	adult-9.jpg	0.0	111.18391630703445	0.11669153432103485
46.0	23.02305160689866	adult	0.0		46.0	face	adult-58.jpg	0.0	111.30060784135549	0.38329110913218756
46.0	23.10646596260449	pulse	0.0	t		face	adult-58.jpg	0.0	111.38402219706131	
46.0	23.40634271603085	ISI	1.0		7.0	face	adult-58.jpg	0.0	111.68389895048767	0.11669545841050422
47.0	23.523038174441353	adult	0.0		46.0	face	adult-22.jpg	0.0	111.80059440889818	0.38325217009605694
47.0	23.806414436299747	pulse	0.0	t		face	adult-22.jpg	0.0	112.08397067075657	
47.0	23.90629034453741	ISI	1.0		11.0	face	adult-22.jpg	0.0	112.18384657899423	0.10000238463908317
48.0	24.006292729176494	baseline	0.0		48.0		baseline	0.0	112.28384896363332	0.39998297549118433
48.0	24.406275704667678	ISI	1.0		11.0		baseline	0.0	112.6838319391245	0.10000570502143091
49.0	24.50628140968911	baseline	0.0		47.0		baseline	0.0	112.78383764414593	0.3999751273140646
49.0	24.510516105215174	pulse	0.0	t			baseline	0.0	112.788072339672	
49.0	24.906256537003173	ISI	1.0		11.0		baseline	0.0	113.18381277146	0.10002230693589809
50.0	25.00627884393907	baseline	0.0		48.0		baseline	0.0	113.2838350783959	0.3999751273140646
50.0	25.20638956361381	pulse	0.0	t			baseline	0.0	113.48394579807064	
50.0	25.406253971253136	ISI	1.0		11.0		baseline	0.0	113.68381020570996	0.09999936610893201
51.0	25.506253337362068	baseline	0.0		48.0		baseline	0.0	113.78380957181889	0.39998810699216847
51.0	25.906241444354237	ISI	1.0		11.0		baseline	0.0	114.18379767881106	0.09999785684340168
51.0	25.910869152466148	pulse	1.0	t			baseline	0.0	114.18842538692297	
52.0	26.00623930119764	baseline	0.0		48.0		baseline	0.0	114.28379553565446	0.3999896162576988
52.0	26.406228917455337	ISI	1.0		11.0		baseline	0.0	114.68378515191216	0.09999514016726607
53.0	26.506224057622603	baseline	0.0		48.0		baseline	0.0	114.78378029207943	0.39998901255148667
53.0	26.606337222306138	pulse	0.0	t			baseline	0.0	114.88389345676296	
53.0	26.90621307017409	ISI	1.0		11.0		baseline	0.0	115.18376930463091	0.09999876240271988
54.0	27.00621183257681	baseline	0.0		48.0		baseline	0.0	115.28376806703363	0.3999878051390624
54.0	27.30632916283139	pulse	0.0	t			baseline	0.0	115.58388539728821	
54.0	27.406199637715872	ISI	1.0		11.0		baseline	0.0	115.6837558721727	0.09999785684340168
55.0	27.506197494559274	baseline	0.0		48.0		baseline	0.0	115.7837537290161	0.3999887106983806
55.0	27.906186205257654	ISI	1.0		11.0		baseline	0.0	116.18374243971448	0.1000002716682502
56.0	28.006186476925905	baseline	0.0		47.0		baseline	0.0	116.28374271138273	0.3999878051390624
56.0	28.01047037448734	pulse	0.0	t			baseline	0.0	116.28802660894416	
56.0	28.406174282064967	ISI	1.0		11.0		baseline	0.0	116.68373051652179	0.09999876240271988
57.0	28.506173044467687	baseline	0.0		48.0		baseline	0.0	116.78372927892451	0.39999474775868293
57.0	28.706300366056894	pulse	0.0	t			baseline	0.0	116.98385660051372	
57.0	28.90616779222637	ISI	1.0		11.0		baseline	0.0	117.1837240266832	0.09999151793090277
58.0	29.006159310157273	baseline	0.0		48.0		baseline	0.0	117.2837155446141	0.3999905218161075
58.0	29.40614983197338	ISI	1.0		11.0		baseline	0.0	117.6837060664302	0.09999393275484181
58.0	29.410801386470666	pulse	1.0	t			baseline	0.0	117.68835762092749	
59.0	29.506143764728222	baseline	0.0		48.0		baseline	0.0	117.78369999918505	0.40005572206155193
59.0	29.906199486789774	ISI	1.0		5.0		baseline	0.0	118.1837557212466	0.1166528971389198
60.0	30.022852383928694	house	0.0		46.0	place	house-66.jpg	0.0	118.30040861838552	0.3832669608927972
60.0	30.106253759956417	pulse	0.0	t		place	house-66.jpg	0.0	118.38380999441324	
60.0	30.40611934482149	ISI	1.0		7.0	place	house-66.jpg	0.0	118.68367557927832	0.11668610096876364
61.0	30.522805445790254	house	0.0		46.0	place	house-70.jpg	0.0	118.80036168024708	0.3833016739854429
61.0	30.806224268919323	pulse	0.0	t		place	house-70.jpg	0.0	119.08378050337615	
61.0	30.906107119775697	ISI	1.0		6.0	place	house-70.jpg	0.0	119.18366335423252	0.11669968435217015
62.0	31.022806804127868	house	0.0		46.0	place	house-26.jpg	0.0	119.30036303858469	0.3832877887489303
62.0	31.406094592876798	ISI	1.0		7.0	place	house-26.jpg	0.0	119.68365082733362	0.11667885649694654
63.0	31.522773449373744	house	0.0		45.0	place	house-116.jpg	0.0	119.80032968383057	0.38331767219369794
63.0	31.514529542502714	pulse	0.0	t		place	house-116.jpg	0.0	119.79208577695954	
63.0	31.906091121567442	ISI	1.0		8.0	place	house-116.jpg	0.0	120.18364735602427	0.11669274173436861
64.0	32.02278386330181	house	0.0		46.0	place	house-116.jpg	1.0	120.30034009775864	0.38328386465946096
64.0	32.20618581284907	pulse	0.0	t		place	house-116.jpg	1.0	120.4837420473059	
64.0	32.40606772796127	ISI	1.0		5.0	place	house-116.jpg	1.0	120.6836239624181	0.10836401417418529
64.0	32.48951166525967	response	1.0	b		place	house-116.jpg	1.0	120.7670678997165	
65.0	32.51443174213546	house	0.0		47.0	place	house-63.jpg	0.0	120.79198797659228	0.39162285522070306
65.0	32.90605459735616	ISI	1.0		6.0	place	house-63.jpg	0.0	121.18361083181298	0.11669787323444325
65.0	32.94709301992134	pulse	1.0	t		place	house-63.jpg	0.0	121.22464925437816	
66.0	33.0227524705906	house	0.0		46.0	place	house-132.jpg	0.0	121.30030870504743	0.3832877887489303
66.0	33.406040259339534	ISI	1.0		7.0	place	house-132.jpg	0.0	121.68359649379636	0.11668398799702118
67.0	33.522724247336555	house	0.0		46.0	place	house-25.jpg	0.0	121.80028048179338	0.38330499436960963
67.0	33.60616697722253	pulse	0.0	t		place	house-25.jpg	0.0	121.88372321167935	
67.0	33.906029241706165	ISI	1.0		6.0	place	house-25.jpg	0.0	122.18358547616299	0.11669425099807995
68.0	34.022723492704245	house	0.0		46.0	place	house-42.jpg	0.0	122.30027972716107	0.3832923165437023
68.0	34.30613537321551	pulse	0.0	t		place	house-42.jpg	0.0	122.58369160767234	
68.0	34.40601580924795	ISI	1.0		7.0	place	house-42.jpg	0.0	122.68357204370477	0.11669938249906409
69.0	34.52271519174701	house	0.0		46.0	place	house-64.jpg	0.0	122.80027142620384	0.38328477021968865
69.0	34.9059999619667	ISI	1.0		7.0	place	house-64.jpg	0.0	123.18355619642352	0.11667885649603704
70.0	35.02267881846274	house	0.0		45.0	place	house-114.jpg	0.0	123.30023505291956	0.3833170684883953
70.0	35.014401405910576	pulse	0.0	t		place	house-114.jpg	0.0	123.2919576403674	
70.0	35.40599588695113	ISI	1.0		7.0	place	house-114.jpg	0.0	123.68355212140796	0.11668670467406628
71.0	35.5226825916252	house	0.0		46.0	place	house-109.jpg	0.0	123.80023882608202	0.3832917128374902
71.0	35.706101143086926	pulse	0.0	t		place	house-109.jpg	0.0	123.98365737754375	
71.0	35.90597430446269	ISI	1.0		7.0	place	house-109.jpg	0.0	124.18353053891951	0.11669123246883828
72.0	36.02266553693153	house	0.0		46.0	place	house-98.jpg	0.0	124.30022177138835	0.3833264259310454
72.0	36.40599196286257	ISI	1.0		6.0	place	house-98.jpg	0.0	124.6835481973194	0.11668670467406628
72.0	36.44789881646466	pulse	1.0	t		place	house-98.jpg	0.0	124.72545505092148	
73.0	36.52267866753664	house	0.0		46.0	place	house-18.jpg	0.0	124.80023490199346	0.3832678664512059
73.0	36.905946533987844	ISI	1.0		6.0	place	house-18.jpg	0.0	125.18350276844467	0.11669032690952008
74.0	37.022636860897364	house	0.0		46.0	place	house-53.jpg	0.0	125.30019309535419	0.38329684433847433
74.0	37.10606691295834	pulse	0.0	t		place	house-53.jpg	0.0	125.38362314741516	
74.0	37.40593370523584	ISI	1.0		7.0	place	house-53.jpg	0.0	125.68348993969266	0.11669757138133718
75.0	37.522631276617176	house	0.0		46.0	place	house-30.jpg	0.0	125.800187511074	0.3832880906020364
75.0	37.806035912656625	pulse	0.0	t		place	house-30.jpg	0.0	126.08359214711345	
75.0	37.90591936721921	ISI	1.0		5.0	place	house-30.jpg	0.0	126.18347560167604	0.11668579911474808
76.0	38.02260516633396	house	0.0		46.0	place	house-8.jpg	0.0	126.30016140079078	0.38330197583945846
76.0	38.40590714217342	ISI	1.0		2.0	place	house-8.jpg	0.0	126.68346337663024	0.11667040461270517
77.0	38.522577546786124	house	0.0		45.0	place	house-40.jpg	0.0	126.80013378124295	0.38331676663528924
77.0	38.51233567500822	pulse	0.0	t		place	house-40.jpg	0.0	126.78989190946504	
77.0	38.90589431342141	ISI	1.0		6.0	place	house-40.jpg	0.0	127.18345054787824	0.10834046964100708
78.0	39.01423478306242	house	0.0		47.0	place	house-43.jpg	0.0	127.29179101751924	0.3916497201371385
78.0	39.20600379549887	pulse	0.0	t		place	house-43.jpg	0.0	127.4835600299557	
78.0	39.40588450319956	ISI	1.0		6.0	place	house-43.jpg	0.0	127.68344073765638	0.10836220305554889
79.0	39.51424670625511	house	0.0		47.0	place	house-54.jpg	0.0	127.79180294071193	0.3916107811019174
79.0	39.905857487357025	ISI	1.0		6.0	place	house-54.jpg	0.0	128.18341372181385	0.10835858082009509
79.0	39.95336250641776	pulse	1.0	t		place	house-54.jpg	0.0	128.23091874087459	
80.0	40.01421606817712	house	0.0		47.0	place	house-88.jpg	0.0	128.29177230263394	0.3916234589278247
80.0	40.405839527104945	ISI	1.0		6.0	place	house-88.jpg	0.0	128.68339576156177	0.10836310861486709
81.0	40.51420263571981	house	0.0		47.0	place	house-107.jpg	0.0	128.79175887017664	0.39163281636956526
81.0	40.60596865981188	pulse	0.0	t		place	house-107.jpg	0.0	128.8835248942687	
81.0	40.90583545208938	ISI	1.0		5.0	place	house-107.jpg	0.0	129.1833916865462	0.10836824011585122
82.0	41.01420369220523	house	0.0		47.0	place	house-115.jpg	0.0	129.29175992666205	0.3916131959258564
82.0	41.30593011318524	pulse	0.0	t		place	house-115.jpg	0.0	129.58348634764207	
82.0	41.405816888131085	ISI	1.0		6.0	place	house-115.jpg	0.0	129.6833731225879	0.10838091794084903
83.0	41.514197806071934	house	0.0		47.0	place	house-117.jpg	0.0	129.79175404052876	0.3916198366914614
83.0	41.905817642763395	ISI	1.0		11.0	place	house-117.jpg	0.0	130.18337387722022	0.10000540316832485
84.0	42.00582304593172	baseline	0.0		47.0		baseline	0.0	130.28337928038854	0.39997724028489756
84.0	42.01016369185527	pulse	0.0	t			baseline	0.0	130.2877199263121	
84.0	42.40580028621662	ISI	1.0		11.0		baseline	0.0	130.68335652067344	0.09999815869650774
85.0	42.505798444913125	baseline	0.0		48.0		baseline	0.0	130.78335467936995	0.4000569294730667
85.0	42.70599489083634	pulse	0.0	t			baseline	0.0	130.98355112529316	
85.0	42.90585537438619	ISI	1.0		11.0		baseline	0.0	131.18341160884302	0.09999785684431117
86.0	43.0058532312305	baseline	0.0		48.0		baseline	0.0	131.28340946568733	0.40000199222959054
86.0	43.405855223460094	ISI	1.0		11.0		baseline	0.0	131.68341145791692	0.0999848771652978
86.0	43.41052458728336	pulse	1.0	t			baseline	0.0	131.6880808217402	
87.0	43.50584010062539	baseline	0.0		48.0		baseline	0.0	131.78339633508222	0.3999868995806537
87.0	43.905827000206045	ISI	1.0		11.0		baseline	0.0	132.18338323466287	0.09999936610893201
88.0	44.00582636631498	baseline	0.0		48.0		baseline	0.0	132.2833826007718	0.39999021996300144
88.0	44.105937719880785	pulse	0.0	t			baseline	0.0	132.3834939543376	
88.0	44.40581658627798	ISI	1.0		11.0		baseline	0.0	132.6833728207348	0.09999785684340168
89.0	44.50581444312138	baseline	0.0		48.0		baseline	0.0	132.7833706775782	0.39998840884618403
89.0	44.80591939740498	pulse	0.0	t			baseline	0.0	133.0834756318618	
89.0	44.905802851967564	ISI	1.0		11.0		baseline	0.0	133.1833590864244	0.10000027166734071
90.0	45.005803123634905	baseline	0.0		48.0		baseline	0.0	133.28335935809173	0.3999850884629268
90.0	45.40578821209783	ISI	1.0		11.0		baseline	0.0	133.68334444655466	0.09999725313718955
91.0	45.50578546523502	baseline	0.0		47.0		baseline	0.0	133.78334169969185	0.3999887106983806
91.0	45.510096529566	pulse	0.0	t			baseline	0.0	133.78765276402282	
91.0	45.9057741759334	ISI	1.0		11.0		baseline	0.0	134.18333041039023	0.09999815869741724
92.0	46.00577233463082	baseline	0.0		48.0		baseline	0.0	134.28332856908764	0.3999914273745162
92.0	46.205883356158665	pulse	0.0	t			baseline	0.0	134.4834395906155	
92.0	46.405763762005336	ISI	1.0		11.0		baseline	0.0	134.68331999646216	0.09999664943188691
93.0	46.50576041143722	baseline	0.0		48.0		baseline	0.0	134.78331664589405	0.39999112552231963
93.0	46.90575153695954	ISI	1.0		11.0		baseline	0.0	135.18330777141637	0.10000479946302221
93.0	46.91037894321835	pulse	1.0	t			baseline	0.0	135.18793517767517	
94.0	47.005756336422564	baseline	0.0		48.0		baseline	0.0	135.2833125708794	0.39998025881413923
94.0	47.405736595236704	ISI	1.0		11.0		baseline	0.0	135.68329282969353	0.09998910310787323
95.0	47.50572569834458	baseline	0.0		48.0		baseline	0.0	135.7832819328014	0.39999836999322724
95.0	47.60584761676455	pulse	0.0	t			baseline	0.0	135.88340385122137	
95.0	47.905724068337804	ISI	1.0		4.0		baseline	0.0	136.18328030279463	0.11665531196376833
96.0	48.02237938030157	body	0.0		46.0	body	body-57.jpg	0.0	136.2999356147584	0.38329473136764136
96.0	48.30579277007746	pulse	0.0	t		body	body-57.jpg	0.0	136.58334900453428	
96.0	48.405674111669214	ISI	1.0		2.0	body	body-57.jpg	0.0	136.68323034612604	0.11669968435217015
97.0	48.522373796021384	body	0.0		46.0	body	body-69.jpg	0.0	136.7999300304782	0.3832859776312034
97.0	48.90565977365259	ISI	1.0		5.0	body	body-69.jpg	0.0	137.1832160081094	0.11669425099807995
98.0	49.02235402465067	body	0.0		45.0	body	body-18.jpg	0.0	137.2999102591075	0.3832935239561266
98.0	49.012185201295324	pulse	0.0	t		body	body-18.jpg	0.0	137.28974143575215	
98.0	49.405647548606794	ISI	1.0		6.0	body	body-18.jpg	0.0	137.68320378306362	0.11669938249906409
99.0	49.52234693110586	body	0.0		46.0	body	body-33.jpg	0.0	137.79990316556268	0.3832563960386324
99.0	49.705725637973956	pulse	0.0	t		body	body-33.jpg	0.0	137.98328187243078	
99.0	49.90560332714449	ISI	1.0		6.0	body	body-33.jpg	0.0	138.18315956160131	0.11668247873149085
100.0	50.02228580587598	body	0.0		46.0	body	body-141.jpg	0.0	138.2998420403328	0.3833062017811244
100.0	50.405592007657106	ISI	1.0		7.0	body	body-141.jpg	0.0	138.68314824211393	0.11669425099898945
100.0	50.441794141697756	pulse	1.0	t		body	body-141.jpg	0.0	138.71935037615458	
101.0	50.522286258656095	body	0.0		46.0	body	body-74.jpg	0.0	138.79984249311292	0.38328929801355116
101.0	50.905575556669646	ISI	1.0		4.0	body	body-74.jpg	0.0	139.18313179112647	0.11669998620527622
102.0	51.02227554287492	body	0.0		46.0	body	body-121.jpg	0.0	139.29983177733175	0.38328658133650606
102.0	51.072353254925474	response	0.0	b		body	body-121.jpg	0.0	139.3499094893823	
102.0	51.10567088184234	pulse	0.0	t		body	body-121.jpg	0.0	139.38322711629917	
102.0	51.40556212421143	ISI	1.0		6.0	body	body-121.jpg	0.0	139.68311835866825	0.11669847694065538
103.0	51.522260601152084	body	0.0		46.0	body	body-100.jpg	0.0	139.7998168356089	0.38328748689582426
103.0	51.80566553904464	pulse	0.0	t		body	body-100.jpg	0.0	140.08322177350146	
103.0	51.90554808804791	ISI	1.0		6.0	body	body-100.jpg	0.0	140.18310432250473	0.11668247873240034
104.0	52.02223056678031	body	0.0		46.0	body	body-77.jpg	0.0	140.29978680123713	0.38330589992801833
104.0	52.40553646670833	ISI	1.0		6.0	body	body-77.jpg	0.0	140.68309270116515	0.11669455285118602
105.0	52.52223101955951	body	0.0		45.0	body	body-31.jpg	0.0	140.79978725401634	0.38329865545620123
105.0	52.51421320057398	pulse	0.0	t		body	body-31.jpg	0.0	140.7917694350308	
105.0	52.905529675015714	ISI	1.0		7.0	body	body-31.jpg	0.0	141.18308590947254	0.11668036576156737
106.0	53.02221004077728	body	0.0		46.0	body	body-124.jpg	0.0	141.2997662752341	0.38329201469059626
106.0	53.20563342188689	pulse	0.0	t		body	body-124.jpg	0.0	141.4831896563437	
106.0	53.40550205546788	ISI	1.0		7.0	body	body-124.jpg	0.0	141.6830582899247	0.11669334543967125
107.0	53.52219540090755	body	0.0		46.0	body	body-45.jpg	0.0	141.79975163536437	0.3833007684270342
107.0	53.90549616933458	ISI	1.0		7.0	body	body-45.jpg	0.0	142.1830524037914	0.11669908064595802
107.0	53.94490579319245	pulse	1.0	t		body	body-45.jpg	0.0	142.22246202764927	
108.0	54.02219524998054	body	0.0		46.0	body	body-64.jpg	0.0	142.29975148443737	0.3832889961613546
108.0	54.113960670367305	response	0.0	b		body	body-64.jpg	0.0	142.39151690482413	
108.0	54.405484246141896	ISI	1.0		7.0	body	body-64.jpg	0.0	142.68304048059872	0.11669455285118602
109.0	54.52217879899308	body	0.0		46.0	body	body-35.jpg	0.0	142.7997350334499	0.3832971461915804
109.0	54.605608247347845	pulse	0.0	t		body	body-35.jpg	0.0	142.88316448180467	
109.0	54.90547594518466	ISI	1.0		7.0	body	body-35.jpg	0.0	143.1830321796415	0.11669002505641402
110.0	55.022165970241076	body	0.0		46.0	body	body-130.jpg	0.0	143.2997222046979	0.38329141098438413
110.0	55.30557211554515	pulse	0.0	t		body	body-130.jpg	0.0	143.58312835000197	
110.0	55.40545738122546	ISI	1.0		7.0	body	body-130.jpg	0.0	143.68301361568228	0.11669908064686751
111.0	55.52215646187233	body	0.0		46.0	body	body-82.jpg	0.0	143.79971269632915	0.383317974046804
111.0	55.90547443591913	ISI	1.0		4.0	body	body-82.jpg	0.0	144.18303067037596	0.11669243988126254
112.0	56.022166875800394	body	0.0		45.0	body	body-68.jpg	0.0	144.29972311025722	0.38329292024900496
112.0	56.012238327420164	pulse	0.0	t		body	body-68.jpg	0.0	144.289794561877	
112.0	56.4054597960494	ISI	1.0		5.0	body	body-68.jpg	0.0	144.68301603050622	0.11670058991148835
113.0	56.52216038596089	body	0.0		46.0	body	body-56.jpg	0.0	144.7997166204177	0.3832877887489303
113.0	56.70556837256845	pulse	0.0	t		body	body-56.jpg	0.0	144.98312460702527	
113.0	56.90544817470982	ISI	1.0		7.0	body	body-56.jpg	0.0	145.18300440916664	0.11670421214694215
114.0	57.02215238685676	body	0.0		46.0	body	body-58.jpg	0.0	145.29970862131358	0.3832506608314361
114.0	57.405403047688196	ISI	1.0		7.0	body	body-58.jpg	0.0	145.68295928214502	0.11669425099898945
114.0	57.44343229784681	pulse	1.0	t		body	body-58.jpg	0.0	145.72098853230364	
115.0	57.522097298687186	body	0.0		46.0	body	body-142.jpg	0.0	145.799653533144	0.38329473136764136
115.0	57.90539203005483	ISI	1.0		7.0	body	body-142.jpg	0.0	146.18294826451165	0.11669183617414092
116.0	58.02208386622897	body	0.0		46.0	body	body-83.jpg	0.0	146.2996401006858	0.38329110913218756
116.0	58.10553897208774	pulse	0.0	t		body	body-83.jpg	0.0	146.38309520654457	
116.0	58.405374975361156	ISI	1.0		7.0	body	body-83.jpg	0.0	146.68293120981798	0.11669002505641402
117.0	58.52206500041757	body	0.0		46.0	body	body-106.jpg	0.0	146.7996212348744	0.38330952216438163
117.0	58.80546541051535	pulse	0.0	t		body	body-106.jpg	0.0	147.08302164497218	
117.0	58.90537452258195	ISI	1.0		7.0	body	body-106.jpg	0.0	147.18293075703878	0.11668579911474808
118.0	59.0220603216967	body	0.0		45.0	body	body-9.jpg	0.0	147.29961655615352	0.3832799405709011
118.0	59.02662162215165	response	0.0	b		body	body-9.jpg	0.0	147.30417785660848	
118.0	59.4053402622676	ISI	1.0		7.0	body	body-9.jpg	0.0	147.68289649672442	0.11670934364792629
119.0	59.52204960591553	body	0.0		45.0	body	body-50.jpg	0.0	147.79960584037235	0.38328658133650606
119.0	59.5119574532182	pulse	0.0	t		body	body-50.jpg	0.0	147.78951368767503	
119.0	59.90533618725203	ISI	1.0		6.0	body	body-50.jpg	0.0	148.18289242170886	0.11669606211671635
120.0	60.02203224936875	adult	0.0		46.0	face	adult-20.jpg	0.0	148.29958848382557	0.3832905054259754
120.0	60.20544265080025	pulse	0.0	t		face	adult-20.jpg	0.0	148.48299888525708	
120.0	60.405322754794724	ISI	1.0		7.0	face	adult-20.jpg	0.0	148.68287898925155	0.11669908064595802
121.0	60.52202183544068	adult	0.0		46.0	face	adult-84.jpg	0.0	148.7995780698975	0.3832886943082485
121.0	60.90531052974893	ISI	1.0		7.0	face	adult-84.jpg	0.0	149.18286676420576	0.11669455285118602
121.0	60.94145199133891	pulse	1.0	t		face	adult-84.jpg	0.0	149.21900822579573	
122.0	61.02200508260012	adult	0.0		46.0	face	adult-84.jpg	1.0	149.29956131705694	0.38329020357286936
122.0	61.405295286172986	ISI	1.0		5.0	face	adult-84.jpg	1.0	149.6828515206298	0.11669576026361028
123.0	61.5219910464366	adult	0.0		46.0	face	adult-122.jpg	0.0	149.79954728089342	0.383290807278172
123.0	61.597152137827834	response	0.0	b		face	adult-122.jpg	0.0	149.87470837228466	
123.0	61.6019464687879	pulse	0.0	t		face	adult-122.jpg	0.0	149.87950270324473	
123.0	61.90528185371477	ISI	1.0		6.0	face	adult-122.jpg	0.0	150.1828380881716	0.11669696767603455
124.0	62.0219788213908	adult	0.0		46.0	face	adult-37.jpg	0.0	150.29953505584763	0.38328869430733903
124.0	62.30538768337192	pulse	0.0	t		face	adult-37.jpg	0.0	150.58294391782874	
124.0	62.40526751569814	ISI	1.0		6.0	face	adult-37.jpg	0.0	150.68282375015497	0.11669998620527622
125.0	62.52196750190342	adult	0.0		46.0	face	adult-98.jpg	0.0	150.79952373636024	0.3832880906020364
125.0	62.905255592505455	ISI	1.0		7.0	face	adult-98.jpg	0.0	151.18281182696228	0.11669666582292848
126.0	63.02195225832838	adult	0.0		45.0	face	adult-126.jpg	0.0	151.2995084927852	0.38332038887074305
126.0	63.01165092151132	pulse	0.0	t		face	adult-126.jpg	0.0	151.28920715596814	
126.0	63.405272647199126	ISI	1.0		2.0	face	adult-126.jpg	0.0	151.68282888165595	0.11669968435217015
127.0	63.5219723315513	adult	0.0		46.0	face	adult-56.jpg	0.0	151.79952856600812	0.3832886943082485
127.0	63.70539359969007	pulse	0.0	t		face	adult-56.jpg	0.0	151.9829498341469	
127.0	63.905261025859545	ISI	1.0		7.0	face	adult-56.jpg	0.0	152.18281726031637	0.11669847693974589
128.0	64.02195950279929	adult	0.0		46.0	face	adult-27.jpg	0.0	152.29951573725612	0.3832871850427182
128.0	64.40524668784201	ISI	1.0		7.0	face	adult-27.jpg	0.0	152.68280292229883	0.11670209917701868
128.0	64.44259193913695	pulse	1.0	t		face	adult-27.jpg	0.0	152.72014817359377	
129.0	64.52194878701903	adult	0.0		46.0	face	adult-96.jpg	0.0	152.79950502147585	0.38329774989688303
129.0	64.90524653691591	ISI	1.0		7.0	face	adult-96.jpg	0.0	153.18280277137274	0.11668730838027841
130.0	65.02193384529619	adult	0.0		46.0	face	adult-57.jpg	0.0	153.299490079753	0.3832862794834
130.0	65.10534548432406	pulse	0.0	t		face	adult-57.jpg	0.0	153.3829017187809	
130.0	65.40522012477959	ISI	1.0		6.0	face	adult-57.jpg	0.0	153.6827763592364	0.11669938249997358
131.0	65.52191950727956	adult	0.0		46.0	face	adult-49.jpg	0.0	153.7994757417364	0.3832880906011269
131.0	65.8053232377597	pulse	0.0	t		face	adult-49.jpg	0.0	154.08287947221652	
131.0	65.90520759788069	ISI	1.0		7.0	face	adult-49.jpg	0.0	154.1827638323375	0.11669757138133718
132.0	66.02190516926203	adult	0.0		46.0	face	adult-124.jpg	0.0	154.29946140371885	0.3832886943082485
132.0	66.40519386357028	ISI	1.0		6.0	face	adult-124.jpg	0.0	154.6827500980271	0.11668942135020188
133.0	66.52188328492048	adult	0.0		45.0	face	adult-136.jpg	0.0	154.7994395193773	0.3832950332207474
133.0	66.51171929121301	pulse	0.0	t		face	adult-136.jpg	0.0	154.78927552566984	
133.0	66.90517831814122	ISI	1.0		2.0	face	adult-136.jpg	0.0	155.18273455259805	0.11669998620527622
134.0	67.0218783043465	adult	0.0		46.0	face	adult-108.jpg	0.0	155.29943453880333	0.38328929801355116
134.0	67.20528810207179	pulse	0.0	t		face	adult-108.jpg	0.0	155.48284433652861	
134.0	67.40516760236005	ISI	1.0		6.0	face	adult-108.jpg	0.0	155.68272383681688	0.11669817508754932
135.0	67.5218657774476	adult	0.0		46.0	face	adult-93.jpg	0.0	155.79942201190443	0.38329110913218756
135.0	67.90515688657979	ISI	1.0		4.0	face	adult-93.jpg	0.0	156.1827131210366	0.11669757138133718
135.0	67.96793445926505	pulse	1.0	t		face	adult-93.jpg	0.0	156.24549069372188	
136.0	68.02185445796113	adult	0.0		46.0	face	adult-90.jpg	0.0	156.29941069241795	0.38328748689582426
136.0	68.40514194485695	ISI	1.0		7.0	face	adult-90.jpg	0.0	156.68269817931377	0.11669877879285195
137.0	68.5218407236498	adult	0.0		46.0	face	adult-116.jpg	0.0	156.79939695810663	0.3832772238947655
137.0	68.60526473865139	pulse	0.0	t		face	adult-116.jpg	0.0	156.8828209731082	
137.0	68.90511794754457	ISI	1.0		7.0	face	adult-116.jpg	0.0	157.1826741820014	0.11671598441353126
138.0	69.0218339319581	adult	0.0		46.0	face	adult-142.jpg	0.0	157.29939016641492	0.38327933686468896
138.0	69.30523313464346	pulse	0.0	t		face	adult-142.jpg	0.0	157.58278936910028	
138.0	69.40511326882279	ISI	1.0		7.0	face	adult-142.jpg	0.0	157.6826695032796	0.11670300473542738
139.0	69.52181627355822	adult	0.0		46.0	face	adult-121.jpg	0.0	157.79937250801504	0.38329744804468646
139.0	69.9051137216029	ISI	1.0		6.0	face	adult-121.jpg	0.0	158.18266995605973	0.11665410455134406
140.0	70.02176782615425	adult	0.0		45.0	face	adult-3.jpg	0.0	158.29932406061107	0.3833191814592283
140.0	70.01157817494186	pulse	0.0	t		face	adult-3.jpg	0.0	158.28913440939868	
140.0	70.18020683570194	response	0.0	b		face	adult-3.jpg	0.0	158.45776307015876	
140.0	70.40508700761347	ISI	1.0		6.0	face	adult-3.jpg	0.0	158.6826432420703	0.11669394914588338
141.0	70.52178095675936	adult	0.0		46.0	face	adult-48.jpg	0.0	158.79933719121618	0.38329412766142923
141.0	70.70519588598472	pulse	0.0	t		face	adult-48.jpg	0.0	158.98275212044155	
141.0	70.90507508442079	ISI	1.0		7.0	face	adult-48.jpg	0.0	159.1826313188776	0.11669968435217015
142.0	71.02177476877296	adult	0.0		46.0	face	adult-91.jpg	0.0	159.29933100322978	0.38328567577809736
142.0	71.40506044455105	ISI	1.0		7.0	face	adult-91.jpg	0.0	159.68261667900788	0.11669938249906409
142.0	71.44345342755514	pulse	1.0	t		face	adult-91.jpg	0.0	159.72100966201197	
143.0	71.52175982705012	adult	0.0		46.0	face	adult-5.jpg	0.0	159.79931606150694	0.3832880906020364
143.0	71.90504791765215	ISI	1.0		2.0	face	adult-5.jpg	0.0	160.18260415210898	0.11669787323444325
144.0	72.0217457908866	house	0.0		46.0	place	house-59.jpg	0.0	160.29930202534342	0.38329110913127806
144.0	72.10515803362068	pulse	0.0	t		place	house-59.jpg	0.0	160.3827142680775	
144.0	72.40503690001788	ISI	1.0		7.0	place	house-59.jpg	0.0	160.6825931344747	0.11669726952823112
145.0	72.52173416954611	house	0.0		46.0	place	house-23.jpg	0.0	160.79929040400293	0.3832998628686255
145.0	72.80514031485018	pulse	0.0	t		place	house-23.jpg	0.0	161.082696549307	
145.0	72.90503403241473	ISI	1.0		6.0	place	house-23.jpg	0.0	161.18259026687156	0.11668610096785414
146.0	73.02172013338259	house	0.0		46.0	place	house-129.jpg	0.0	161.2992763678394	0.3832853739249913
146.0	73.40500550730758	ISI	1.0		7.0	place	house-129.jpg	0.0	161.6825617417644	0.1166800639084613
147.0	73.52168557121604	house	0.0		45.0	place	house-27.jpg	0.0	161.79924180567286	0.38330861660415394
147.0	73.5113733676917	pulse	0.0	t		place	house-27.jpg	0.0	161.78892960214853	
147.0	73.9049941878202	ISI	1.0		7.0	place	house-27.jpg	0.0	162.18255042227702	0.11670028805838228
148.0	74.02169447587858	house	0.0		46.0	place	house-15.jpg	0.0	162.2992507103354	0.3832844683665826
148.0	74.2051057828694	pulse	0.0	t		place	house-15.jpg	0.0	162.48266201732622	
148.0	74.40497894424516	ISI	1.0		7.0	place	house-15.jpg	0.0	162.68253517870198	0.11670028805838228
149.0	74.52167923230354	house	0.0		46.0	place	house-13.jpg	0.0	162.79923546676036	0.3833025795447611
149.0	74.9049818118483	ISI	1.0		4.0	place	house-13.jpg	0.0	163.18253804630513	0.11668579911474808
149.0	74.96610583388247	pulse	1.0	t		place	house-13.jpg	0.0	163.2436620683393	
150.0	75.02166761096305	house	0.0		46.0	place	house-76.jpg	0.0	163.29922384541987	0.3832660553343885
150.0	75.40493366629744	ISI	1.0		2.0	place	house-76.jpg	0.0	163.68248990075426	0.116719304795879
151.0	75.52165297109332	house	0.0		46.0	place	house-35.jpg	0.0	163.79920920555014	0.38328567577809736
151.0	75.60506340270967	pulse	0.0	t		place	house-35.jpg	0.0	163.8826196371665	
151.0	75.90493864687141	ISI	1.0		6.0	place	house-35.jpg	0.0	164.18249488132824	0.11670723067709332
152.0	76.02164587754851	house	0.0		46.0	place	house-123.jpg	0.0	164.29920211200533	0.3832826572479462
152.0	76.3050592673244	pulse	0.0	t		place	house-123.jpg	0.0	164.58261550178122	
152.0	76.40492853479645	ISI	1.0		5.0	place	house-123.jpg	0.0	164.68248476925328	0.11668640282096021
153.0	76.52161493761741	house	0.0		46.0	place	house-130.jpg	0.0	164.79917117207424	0.3833034851040793
153.0	76.89669745667743	response	0.0	b		place	house-130.jpg	0.0	165.17425369113425	
153.0	76.9049184227215	ISI	1.0		7.0	place	house-130.jpg	0.0	165.18247465717832	0.11669093061573221
154.0	77.02160935333723	house	0.0		45.0	place	house-130.jpg	1.0	165.29916558779405	0.3832935239552171
154.0	77.01118938829768	pulse	0.0	t		place	house-130.jpg	1.0	165.2887456227545	
154.0	77.40490287729244	ISI	1.0		5.0	place	house-130.jpg	1.0	165.68245911174927	0.11669726952823112
155.0	77.52160014682067	house	0.0		46.0	place	house-48.jpg	0.0	165.7991563812775	0.38328658133741556
155.0	77.61335892644183	response	0.0	b		place	house-48.jpg	0.0	165.89091516089866	
155.0	77.70500330378036	pulse	0.0	t		place	house-48.jpg	0.0	165.98255953823718	
155.0	77.90488672815809	ISI	1.0		6.0	place	house-48.jpg	0.0	166.1824429626149	0.11669877879285195
156.0	78.02158550695094	car	0.0		46.0	object	car-63.jpg	0.0	166.29914174140777	0.38329020357286936
156.0	78.40487571052381	ISI	1.0		6.0	object	car-63.jpg	0.0	166.68243194498064	0.11669787323444325
156.0	78.45177611805593	pulse	1.0	t		object	car-63.jpg	0.0	166.72933235251276	
157.0	78.52157358375825	car	0.0		46.0	object	car-107.jpg	0.0	166.79912981821508	0.38328748689582426
157.0	78.90486107065408	ISI	1.0		6.0	object	car-107.jpg	0.0	167.1824173051109	0.11668308243861247
158.0	79.02154415309269	car	0.0		46.0	object	car-61.jpg	0.0	167.29910038754952	0.3833071073395331
158.0	79.10499171262563	pulse	0.0	t		object	car-61.jpg	0.0	167.38254794708246	
158.0	79.40485126043222	ISI	1.0		6.0	object	car-61.jpg	0.0	167.68240749488905	0.11667976205535524
159.0	79.52153102248758	car	0.0		46.0	object	car-129.jpg	0.0	167.7990872569444	0.3833146536644563
159.0	79.80495407155922	pulse	0.0	t		object	car-129.jpg	0.0	168.08251030601605	
159.0	79.90484567615204	ISI	1.0		5.0	object	car-129.jpg	0.0	168.18240191060886	0.11668791208558105
160.0	80.02153358823762	car	0.0		46.0	object	car-9.jpg	0.0	168.29908982269444	0.38329020357286936
160.0	80.40482379181049	ISI	1.0		6.0	object	car-9.jpg	0.0	168.6823800262673	0.11669062876262615
161.0	80.52151442057311	car	0.0		45.0	object	car-86.jpg	0.0	168.79907065502994	0.3832953350738535
161.0	80.51077901916506	pulse	0.0	t		object	car-86.jpg	0.0	168.78833525362188	
161.0	80.90480975564697	ISI	1.0		6.0	object	car-86.jpg	0.0	169.1823659901038	0.11669666582201899
162.0	81.02150642146898	car	0.0		46.0	object	car-39.jpg	0.0	169.2990626559258	0.38328658133741556
162.0	81.2049177284598	pulse	0.0	t		object	car-39.jpg	0.0	169.48247396291663	
162.0	81.4047930028064	ISI	1.0		6.0	object	car-39.jpg	0.0	169.68234923726322	0.11670179732300312
163.0	81.5214948001294	car	0.0		46.0	object	car-36.jpg	0.0	169.79905103458623	0.38328839245514246
163.0	81.90478319258455	ISI	1.0		7.0	object	car-36.jpg	0.0	170.18233942704137	0.11670179732300312
163.0	81.94029921478977	pulse	1.0	t		object	car-36.jpg	0.0	170.2178554492466	
164.0	82.02148498990755	car	0.0		46.0	object	car-36.jpg	1.0	170.29904122436437	0.3832826572479462
164.0	82.4047676471555	ISI	1.0		7.0	object	car-36.jpg	1.0	170.68232388161232	0.11670330658762396
165.0	82.52147095374312	car	0.0		46.0	object	car-65.jpg	0.0	170.79902718819994	0.3832826572488557
165.0	82.6048822909188	pulse	0.0	t		object	car-65.jpg	0.0	170.88243852537562	
165.0	82.85509456903037	response	0.0	b		object	car-65.jpg	0.0	171.1326508034872	
165.0	82.90475361099197	ISI	1.0		5.0	object	car-65.jpg	0.0	171.1823098454488	0.11668398799702118
166.0	83.021437598989	car	0.0		46.0	object	car-77.jpg	0.0	171.29899383344582	0.38330288139786717
166.0	83.30485944064822	pulse	0.0	t		object	car-77.jpg	0.0	171.58241567510504	
166.0	83.40474048038686	ISI	1.0		7.0	object	car-77.jpg	0.0	171.6822967148437	0.11669998620527622
167.0	83.52144046659214	car	0.0		46.0	object	car-133.jpg	0.0	171.79899670104896	0.3832980517499891
167.0	83.90473851834213	ISI	1.0		4.0	object	car-133.jpg	0.0	172.18229475279895	0.11668489355633938
168.0	84.02142341189847	word	0.0		45.0	character	word-27.jpg	0.0	172.2989796463553	0.38329020357286936
168.0	84.01079818682956	pulse	0.0	t		character	word-27.jpg	0.0	172.28835442128639	
168.0	84.40471361547134	ISI	1.0		4.0	character	word-27.jpg	0.0	172.68226984992816	0.11670149546989705
169.0	84.52141511094123	word	0.0		46.0	character	word-25.jpg	0.0	172.79897134539806	0.38328748689582426
169.0	84.70482430496031	pulse	0.0	t		character	word-25.jpg	0.0	172.98238053941714	
169.0	84.90470259783706	ISI	1.0		3.0	character	word-25.jpg	0.0	173.18225883229388	0.11669757138133718
170.0	85.0214001692184	word	0.0		46.0	character	word-136.jpg	0.0	173.29895640367522	0.3832880906020364
170.0	85.40468825982043	ISI	1.0		6.0	character	word-136.jpg	0.0	173.68224449427726	0.11670572141156299
170.0	85.44927345495762	pulse	1.0	t		character	word-136.jpg	0.0	173.72682968941444	
171.0	85.521393981232	word	0.0		46.0	character	word-83.jpg	0.0	173.79895021568882	0.38328114798332535
171.0	85.90467512921532	ISI	1.0		7.0	character	word-83.jpg	0.0	174.18223136367214	0.11668187502618821
172.0	86.02135700424151	word	0.0		46.0	character	word-83.jpg	1.0	174.29891323869833	0.3832726960999935
172.0	86.10475355062135	pulse	0.0	t		character	word-83.jpg	1.0	174.38230978507818	
172.0	86.4046297003415	ISI	1.0		7.0	character	word-83.jpg	1.0	174.68218593479833	0.11669666582201899
173.0	86.52132636616352	word	0.0		46.0	character	word-28.jpg	0.0	174.79888260062035	0.38329020357286936
173.0	86.54641216032815	response	0.0	b		character	word-28.jpg	0.0	174.82396839478497	
173.0	86.80470957064063	pulse	0.0	t		character	word-28.jpg	0.0	175.08226580509745	
173.0	86.90461656973639	ISI	1.0		5.0	character	word-28.jpg	0.0	175.18217280419321	0.11667613981990144
174.0	87.02129270955629	word	0.0		46.0	character	word-124.jpg	0.0	175.29884894401312	0.3833209925769552
174.0	87.40461370213325	ISI	1.0		6.0	character	word-124.jpg	0.0	175.68216993659007	0.11667432870126504
175.0	87.52128803083451	word	0.0		45.0	character	word-52.jpg	0.0	175.79884426529134	0.3833016739863524
175.0	87.51317271333482	pulse	0.0	t		character	word-52.jpg	0.0	175.79072894779165	
175.0	87.90458970482086	ISI	1.0		4.0	character	word-52.jpg	0.0	176.1821459392777	0.11668187502618821
176.0	88.02127157984705	word	0.0		46.0	character	word-113.jpg	0.0	176.29882781430388	0.38331103142900247
176.0	88.20469677207439	pulse	0.0	t		character	word-113.jpg	0.0	176.4822530065312	
176.0	88.40458261127606	ISI	1.0		5.0	character	word-113.jpg	0.0	176.68213884573288	0.11668851579179318
177.0	88.52127112706785	word	0.0		46.0	character	word-105.jpg	0.0	176.79882736152467	0.38329141098438413
177.0	88.90456253805223	ISI	1.0		7.0	character	word-105.jpg	0.0	177.18211877250906	0.11669998620527622
177.0	88.94044833016414	pulse	1.0	t		character	word-105.jpg	0.0	177.21800456462097	
178.0	89.02126252425751	word	0.0		46.0	character	word-76.jpg	0.0	177.29881875871433	0.38328748689582426
178.0	89.40455001115333	ISI	1.0		7.0	character	word-76.jpg	0.0	177.68210624561016	0.11669606211671635
179.0	89.52124607327005	word	0.0		46.0	character	word-84.jpg	0.0	177.79880230772687	0.38329110913127806
179.0	89.60467280494777	pulse	0.0	t		character	word-84.jpg	0.0	177.8822290394046	
179.0	89.90453718240133	ISI	1.0		7.0	character	word-84.jpg	0.0	178.18209341685815	0.11669545841050422
180.0	90.02123264081183	car	0.0		46.0	object	car-106.jpg	0.0	178.29878887526866	0.3832908072790815
180.0	90.30464421946999	pulse	0.0	t		object	car-106.jpg	0.0	178.58220045392682	
180.0	90.40452344809091	ISI	1.0		7.0	object	car-106.jpg	0.0	178.68207968254774	0.11669274173345912
181.0	90.52121618982437	car	0.0		46.0	object	car-127.jpg	0.0	178.7987724242812	0.38329292024900496
181.0	90.90450911007338	ISI	1.0		8.0	object	car-127.jpg	0.0	179.1820653445302	0.11669002505732351
182.0	91.0211991351307	car	0.0		45.0	object	car-127.jpg	1.0	179.29875536958752	0.38330288139786717
182.0	91.01299446914709	pulse	0.0	t		object	car-127.jpg	1.0	179.2905507036039	
182.0	91.40450201652857	ISI	1.0		5.0	object	car-127.jpg	1.0	179.6820582509854	0.11667885649603704
183.0	91.5211808730246	car	0.0		46.0	object	car-104.jpg	0.0	179.79873710748143	0.38330197583945846
183.0	91.70461240416535	pulse	0.0	t		object	car-104.jpg	0.0	179.98216863862217	
183.0	91.8379393583391	response	0.0	b		object	car-104.jpg	0.0	180.11549559279592	
183.0	91.90448284886406	ISI	1.0		5.0	object	car-104.jpg	0.0	180.1820390833209	0.11669576026361028
184.0	92.02117860912767	car	0.0		46.0	object	car-136.jpg	0.0	180.2987348435845	0.383327029636348
184.0	92.40450563876402	ISI	1.0		7.0	object	car-136.jpg	0.0	180.68206187322085	0.12503746750189748
184.0	92.44309060026808	pulse	1.0	t		object	car-136.jpg	0.0	180.7206468347249	
185.0	92.52954310626592	car	0.0		45.0	object	car-89.jpg	0.0	180.80709934072274	0.37495211857094546
185.0	92.90449522483686	ISI	1.0		6.0	object	car-89.jpg	0.0	181.1820514592937	0.11668972320330795
186.0	93.02118494804017	car	0.0		46.0	object	car-87.jpg	0.0	181.298741182497	0.38327571462923515
186.0	93.10457334438888	pulse	0.0	t		object	car-87.jpg	0.0	181.3821295788457	
186.0	93.40446066266941	ISI	1.0		7.0	object	car-87.jpg	0.0	181.68201689712623	0.1166800639084613
187.0	93.52114072657787	car	0.0		46.0	object	car-105.jpg	0.0	181.7986969610347	0.38328839245514246
187.0	93.80513337223147	pulse	0.0	t		object	car-105.jpg	0.0	182.0826896066883	
187.0	93.90442911903301	ISI	1.0		7.0	object	car-105.jpg	0.0	182.18198535348984	0.11669576026361028
188.0	94.02112487929662	car	0.0		45.0	object	car-143.jpg	0.0	182.29868111375345	0.38329050542506593
188.0	94.40441538472169	ISI	1.0		6.0	object	car-143.jpg	0.0	182.6819716191785	0.11668972320421744
189.0	94.5211051079259	car	0.0		45.0	object	car-57.jpg	0.0	182.79866134238273	0.3833007684270342
189.0	94.5128192434895	pulse	0.0	t		object	car-57.jpg	0.0	182.79037547794633	
189.0	94.90440587635294	ISI	1.0		7.0	object	car-57.jpg	0.0	183.18196211080976	0.11669485470429208
190.0	95.02110073105723	car	0.0		46.0	object	car-46.jpg	0.0	183.29865696551406	0.3832914109852936
190.0	95.20451143434184	pulse	0.0	t		object	car-46.jpg	0.0	183.48206766879866	
190.0	95.40439214204252	ISI	1.0		7.0	object	car-46.jpg	0.0	183.68194837649935	0.11669334543967125
191.0	95.5210854874822	car	0.0		46.0	object	car-88.jpg	0.0	183.79864172193902	0.3832899017188538
191.0	95.90437538920105	ISI	1.0		5.0	object	car-88.jpg	0.0	184.18193162365787	0.10834892152524844
191.0	95.96154574083903	pulse	1.0	t		object	car-88.jpg	0.0	184.23910197529585	
192.0	96.0127243107263	car	0.0		47.0	object	car-41.jpg	0.0	184.29028054518312	0.39163764601744333
192.0	96.12948164899808	response	0.0	b		object	car-41.jpg	0.0	184.4070378834549	
192.0	96.40436195674374	ISI	1.0		5.0	object	car-41.jpg	0.0	184.68191819120057	0.10836612714501825
193.0	96.51272808388876	car	0.0		47.0	object	car-80.jpg	0.0	184.79028431834558	0.3916213459560822
193.0	96.60448595794969	pulse	0.0	t		object	car-80.jpg	0.0	184.88204219240652	
193.0	96.90434942984484	ISI	1.0		6.0	object	car-80.jpg	0.0	185.18190566430167	0.10836491973259399
194.0	97.01271434957744	car	0.0		47.0	object	car-59.jpg	0.0	185.29027058403426	0.39162194966229436
194.0	97.30445314653025	pulse	0.0	t		object	car-59.jpg	0.0	185.58200938098707	
194.0	97.40433629923973	ISI	1.0		6.0	object	car-59.jpg	0.0	185.68189253369655	0.10836099564403412
195.0	97.51269729488376	car	0.0		47.0	object	car-20.jpg	0.0	185.7902535293406	0.3916249681924455
195.0	97.90432226307621	ISI	1.0		6.0	object	car-20.jpg	0.0	186.18187849753303	0.10835858082009509
196.0	98.0126808438963	car	0.0		46.0	object	car-132.jpg	0.0	186.29023707835313	0.3916325145164592
196.0	98.00836615732987	pulse	0.0	t		object	car-132.jpg	0.0	186.2859223917867	
196.0	98.40431335841276	ISI	1.0		6.0	object	car-132.jpg	0.0	186.6818695928696	0.10834922337744501
197.0	98.51266258179021	car	0.0		47.0	object	car-26.jpg	0.0	186.79021881624703	0.39163643860592856
197.0	98.70443672572765	pulse	0.0	t		object	car-26.jpg	0.0	186.98199296018447	
197.0	98.90429902039614	ISI	1.0		3.0	object	car-26.jpg	0.0	187.18185525485296	0.10835707155547425
198.0	99.01265609195161	car	0.0		47.0	object	car-13.jpg	0.0	187.29021232640844	0.3916587757266825
198.0	99.4043148676783	ISI	1.0		6.0	object	car-13.jpg	0.0	187.68187110213512	0.11668368614391511
198.0	99.44820308427279	pulse	1.0	t		object	car-13.jpg	0.0	187.72575931872962	
199.0	99.52099855382221	car	0.0		46.0	object	car-8.jpg	0.0	187.79855478827903	0.3833034851040793
199.0	99.90430203892629	ISI	1.0		6.0	object	car-8.jpg	0.0	188.1818582733831	0.11669817508754932
200.0	100.02100021401384	car	0.0		46.0	object	car-93.jpg	0.0	188.29855644847066	0.3832563960377229
200.0	100.1043801584783	pulse	0.0	t		object	car-93.jpg	0.0	188.38193639293513	
200.0	100.40425661005156	ISI	1.0		7.0	object	car-93.jpg	0.0	188.68181284450839	0.11669908064686751
201.0	100.52095569069843	car	0.0		46.0	object	car-17.jpg	0.0	188.79851192515525	0.3832790350124924
201.0	100.80435851561924	pulse	0.0	t		object	car-17.jpg	0.0	189.08191475007607	
201.0	100.90423472571092	ISI	1.0		7.0	object	car-17.jpg	0.0	189.18179096016775	0.1167156825604252
202.0	101.02095040827135	car	0.0		46.0	object	car-17.jpg	1.0	189.29850664272817	0.3832787331593863
202.0	101.40422914143073	ISI	1.0		6.0	object	car-17.jpg	1.0	189.68178537588756	0.11669062876262615
202.0	101.45237620178978	response	1.0	b		object	car-17.jpg	1.0	189.7299324362466	
203.0	101.52091977019336	car	0.0		45.0	object	car-122.jpg	0.0	189.79847600465018	0.38329654248536826
203.0	101.51270091712013	pulse	0.0	t		object	car-122.jpg	0.0	189.79025715157695	
203.0	101.90421631267873	ISI	1.0		6.0	object	car-122.jpg	0.0	190.18177254713555	0.11668338429080904
204.0	102.02089969696954	body	0.0		46.0	body	body-42.jpg	0.0	190.29845593142636	0.38330378695718537
204.0	102.20433485034573	pulse	0.0	t		body	body-42.jpg	0.0	190.48189108480256	
204.0	102.40420348392672	ISI	1.0		6.0	body	body-42.jpg	0.0	190.68175971838355	0.11668096946687001
205.0	102.52088445339359	body	0.0		46.0	body	body-55.jpg	0.0	190.79844068785042	0.3833052962218062
205.0	102.9041897496154	ISI	1.0		3.0	body	body-55.jpg	0.0	191.18174598407222	0.1166800639084613
205.0	102.97772838121364	pulse	1.0	t		body	body-55.jpg	0.0	191.25528461567046	
206.0	103.02086981352386	body	0.0		46.0	body	body-110.jpg	0.0	191.29842604798068	0.38330499436870014
206.0	103.40417480789256	ISI	1.0		6.0	body	body-110.jpg	0.0	191.68173104234938	0.11670511770626035
207.0	103.52087992559882	body	0.0		46.0	body	body-140.jpg	0.0	191.79843616005564	0.38328205354264355
207.0	103.60428764053904	pulse	0.0	t		body	body-140.jpg	0.0	191.88184387499587	
207.0	103.90416197914146	ISI	1.0		5.0	body	body-140.jpg	0.0	192.1817182135983	0.11667704537831014
208.0	104.02083902451977	body	0.0		46.0	body	body-91.jpg	0.0	192.2983952589766	0.38331042772279034
208.0	104.1626145418877	response	0.0	b		body	body-91.jpg	0.0	192.44017077634453	
208.0	104.30425996061967	pulse	0.0	t		body	body-91.jpg	0.0	192.5818161950765	
208.0	104.40414945224256	ISI	1.0		7.0	body	body-91.jpg	0.0	192.6817056866994	0.11668700652626285
209.0	104.52083645876883	body	0.0		46.0	body	body-91.jpg	1.0	192.79839269322565	0.38329925916241336
209.0	104.90413571793124	ISI	1.0		7.0	body	body-91.jpg	1.0	193.18169195238806	0.11669274173345912
210.0	105.0208284596647	body	0.0		45.0	body	body-115.jpg	0.0	193.29838469412152	0.38329382580923266
210.0	105.0128628612465	pulse	0.0	t		body	body-115.jpg	0.0	193.29041909570333	
210.0	105.40412228547393	ISI	1.0		6.0	body	body-115.jpg	0.0	193.68167851993076	0.11668278058459691
211.0	105.52080506605853	body	0.0		46.0	body	body-88.jpg	0.0	193.79836130051535	0.3833043906633975
211.0	105.70422391937336	pulse	0.0	t		body	body-88.jpg	0.0	193.9817801538302	
211.0	105.90410945672193	ISI	1.0		7.0	body	body-88.jpg	0.0	194.18166569117875	0.11669515655739815
212.0	106.02080461327932	body	0.0		46.0	body	body-87.jpg	0.0	194.29836084773615	0.3833273314894541
212.0	106.40413194476878	ISI	1.0		5.0	body	body-87.jpg	0.0	194.6816881792256	0.1168539312284338
212.0	106.4600731510518	pulse	1.0	t		body	body-87.jpg	0.0	194.73762938550863	
213.0	106.52098587599721	body	0.0		46.0	body	body-120.jpg	0.0	194.79854211045404	0.38309581024986983
213.0	106.90408168624708	ISI	1.0		5.0	body	body-120.jpg	0.0	195.1816379207039	0.11668519540944544
214.0	107.02076688165653	body	0.0		46.0	body	body-1.jpg	0.0	195.29832311611335	0.38330197583854897
214.0	107.10419240592182	pulse	0.0	t		body	body-1.jpg	0.0	195.38174864037865	
214.0	107.40406885749508	ISI	1.0		7.0	body	body-1.jpg	0.0	195.6816250919519	0.11669576026361028
215.0	107.52076461775869	body	0.0		46.0	body	body-84.jpg	0.0	195.7983208522155	0.38329292024991446
215.0	107.80417408344601	pulse	0.0	t		body	body-84.jpg	0.0	196.08173031790284	
215.0	107.9040575380086	ISI	1.0		7.0	body	body-84.jpg	0.0	196.18161377246543	0.11668278058459691
216.0	108.0207403185932	house	0.0		46.0	place	house-139.jpg	0.0	196.29829655305002	0.38330197583945846
216.0	108.40404229443266	ISI	1.0		7.0	place	house-139.jpg	0.0	196.68159852888948	0.11668821393868711
217.0	108.52073050837134	house	0.0		45.0	place	house-105.jpg	0.0	196.79828674282817	0.38330046657392813
217.0	108.5131395095068	pulse	0.0	t		place	house-105.jpg	0.0	196.79069574396362	
217.0	108.90403097494527	ISI	1.0		4.0	place	house-105.jpg	0.0	197.1815872094021	0.11668036576156737
218.0	109.02071134070684	house	0.0		46.0	place	house-55.jpg	0.0	197.29826757516366	0.38331767219460744
218.0	109.20415434226106	pulse	0.0	t		place	house-55.jpg	0.0	197.4817105767179	
218.0	109.40402901290145	ISI	1.0		7.0	place	house-55.jpg	0.0	197.68158524735827	0.11668187502618821
219.0	109.52071088792763	house	0.0		46.0	place	house-141.jpg	0.0	197.79826712238446	0.383270583128251
219.0	109.90398147105589	ISI	1.0		5.0	place	house-141.jpg	0.0	198.1815377055127	0.11670692882398725
219.0	109.95625878580813	pulse	1.0	t		place	house-141.jpg	0.0	198.23381502026496	
220.0	110.02068839987987	house	0.0		46.0	place	house-39.jpg	0.0	198.2982446343367	0.3833016739863524
220.0	110.40399007386623	ISI	1.0		6.0	place	house-39.jpg	0.0	198.68154630832305	0.11670723067709332
221.0	110.52069730454332	house	0.0		46.0	place	house-3.jpg	0.0	198.79825353900014	0.3832808461302193
221.0	110.60410592504195	pulse	0.0	t		place	house-3.jpg	0.0	198.88166215949877	
221.0	110.90397815067354	ISI	1.0		6.0	place	house-3.jpg	0.0	199.18153438513036	0.10836099564403412
222.0	111.01233914631757	house	0.0		47.0	place	house-3.jpg	1.0	199.2898953807744	0.3916313071049444
222.0	111.304079452535	pulse	0.0	t		place	house-3.jpg	1.0	199.58163568699183	
222.0	111.40397045342252	ISI	1.0		4.0	place	house-3.jpg	1.0	199.68152668787934	0.10834922337744501
222.0	111.47081338210864	response	1.0	b		place	house-3.jpg	1.0	199.74836961656547	
223.0	111.51231967679996	house	0.0		47.0	place	house-12.jpg	0.0	199.7898759112568	0.39163100525183836
223.0	111.9039506820518	ISI	1.0		5.0	place	house-12.jpg	0.0	200.18150691650862	0.11669304358656518
224.0	112.02064372563837	house	0.0		45.0	place	house-47.jpg	0.0	200.2981999600952	0.3832923165437023
224.0	112.00878482741973	pulse	0.0	t		place	house-47.jpg	0.0	200.28634106187656	
224.0	112.40393604218207	ISI	1.0		6.0	place	house-47.jpg	0.0	200.6814922766389	0.11669757138133718
225.0	112.5206336135634	house	0.0		46.0	place	house-21.jpg	0.0	200.79818984802023	0.3833200870185465
225.0	112.70407902994066	pulse	0.0	t		place	house-21.jpg	0.0	200.98163526439748	
225.0	112.90395370058195	ISI	1.0		4.0	place	house-21.jpg	0.0	201.18150993503878	0.11669968435217015
226.0	113.02065338493412	house	0.0		46.0	place	house-95.jpg	0.0	201.29820961939095	0.3832871850427182
226.0	113.40394056997684	ISI	1.0		6.0	place	house-95.jpg	0.0	201.68149680443366	0.11669968435217015
226.0	113.45272816237048	pulse	1.0	t		place	house-95.jpg	0.0	201.7302843968273	
227.0	113.52064025432901	house	0.0		46.0	place	house-108.jpg	0.0	201.79819648878583	0.38329020357286936
227.0	113.90393045790188	ISI	1.0		5.0	place	house-108.jpg	0.0	202.1814866923587	0.11671175847186532
228.0	114.02064221637374	body	0.0		46.0	body	body-143.jpg	0.0	202.29819845083057	0.38327209239287185
228.0	114.10405174243078	pulse	0.0	t		body	body-143.jpg	0.0	202.3816079768876	
228.0	114.40391430876662	ISI	1.0		5.0	body	body-143.jpg	0.0	202.68147054322344	0.11669968435307965
229.0	114.5206139931197	body	0.0		46.0	body	body-108.jpg	0.0	202.79817022757652	0.383290807278172
229.0	114.80401802545293	pulse	0.0	t		body	body-108.jpg	0.0	203.08157425990976	
229.0	114.90390480039787	ISI	1.0		5.0	body	body-108.jpg	0.0	203.1814610348547	0.11669787323444325
230.0	115.02060267363231	body	0.0		46.0	body	body-117.jpg	0.0	203.29815890808914	0.3832850720718852
230.0	115.4038877457042	ISI	1.0		6.0	body	body-117.jpg	0.0	203.68144398016102	0.11669545841050422
231.0	115.5205832041147	body	0.0		45.0	body	body-99.jpg	0.0	203.79813943857152	0.3832917128374902
231.0	115.5115116163588	pulse	0.0	t		body	body-99.jpg	0.0	203.78906785081563	
231.0	115.90387491695219	ISI	1.0		7.0	body	body-99.jpg	0.0	204.18143115140902	0.11669968435217015
232.0	116.02057460130436	body	0.0		46.0	body	body-118.jpg	0.0	204.29813083576119	0.3832545849209055
232.0	116.20394576184844	pulse	0.0	t		body	body-118.jpg	0.0	204.48150199630527	
232.0	116.40382918622527	ISI	1.0		6.0	body	body-118.jpg	0.0	204.6813854206821	0.11668549726164201
233.0	116.52051468348691	body	0.0		46.0	body	body-125.jpg	0.0	204.79807091794373	0.38330197583945846
233.0	116.90381665932637	ISI	1.0		6.0	body	body-125.jpg	0.0	205.1813728937832	0.11669576026361028
233.0	116.94728197988934	pulse	1.0	t		body	body-125.jpg	0.0	205.22483821434616	
234.0	117.02051241958998	body	0.0		46.0	body	body-8.jpg	0.0	205.2980686540468	0.3832895998666572
234.0	117.40380201945663	ISI	1.0		7.0	body	body-8.jpg	0.0	205.68135825391346	0.11668459170323331
235.0	117.52048661115987	body	0.0		46.0	body	body-8.jpg	1.0	205.7980428456167	0.38331586107597104
235.0	117.60391756877925	pulse	0.0	t		body	body-8.jpg	1.0	205.88147380323608	
235.0	117.90380247223584	ISI	1.0		5.0	body	body-8.jpg	1.0	206.18135870669266	0.11666859349497827
236.0	118.02047106573082	body	0.0		46.0	body	body-6.jpg	0.0	206.29802730018764	0.3833043906633975
236.0	118.05395410808342	response	0.0	b		body	body-6.jpg	0.0	206.33151034254024	
236.0	118.30386453320989	pulse	0.0	t		body	body-6.jpg	0.0	206.5814207676667	
236.0	118.40377545639421	ISI	1.0		7.0	body	body-6.jpg	0.0	206.68133169085104	0.11667976205535524
237.0	118.52045521844957	body	0.0		46.0	body	body-132.jpg	0.0	206.7980114529064	0.38330680548642704
237.0	118.903762023936	ISI	1.0		7.0	body	body-132.jpg	0.0	207.18131825839282	0.11668851579179318
238.0	119.02045053972779	body	0.0		45.0	body	body-4.jpg	0.0	207.2980067741846	0.3832980517508986
238.0	119.01203880259709	pulse	0.0	t		body	body-4.jpg	0.0	207.2895950370539	
238.0	119.40374859147869	ISI	1.0		6.0	body	body-4.jpg	0.0	207.6813048259355	0.11669938249906409
239.0	119.52044797397775	body	0.0		46.0	body	body-114.jpg	0.0	207.79800420843458	0.38329322210211103
239.0	119.70385596058532	pulse	0.0	t		body	body-114.jpg	0.0	207.98141219504214	
239.0	119.90374119607986	ISI	1.0		6.0	body	body-114.jpg	0.0	208.1812974305367	0.11671538070822862
240.0	120.02045657678809	car	0.0		46.0	object	car-31.jpg	0.0	208.29801281124492	0.38326575348037295
240.0	120.40372233026847	ISI	1.0		7.0	object	car-31.jpg	0.0	208.6812785647253	0.11669515655739815
240.0	120.4418409289101	pulse	1.0	t		object	car-31.jpg	0.0	208.71939716336692	
241.0	120.52041748682586	car	0.0		46.0	object	car-33.jpg	0.0	208.7979737212827	0.3832914109852936
241.0	120.90370889781116	ISI	1.0		7.0	object	car-33.jpg	0.0	209.18126513226798	0.11668579911474808
242.0	121.0203946969259	car	0.0		46.0	object	car-10.jpg	0.0	209.29795093138273	0.38330227769165504
242.0	121.10388330846581	pulse	0.0	t		object	car-10.jpg	0.0	209.38143954292264	
242.0	121.40369697461756	ISI	1.0		6.0	object	car-10.jpg	0.0	209.68125320907438	0.11668640282096021
243.0	121.52038337743852	car	0.0		46.0	object	car-40.jpg	0.0	209.79793961189534	0.38330650363423047
243.0	121.80379948389145	pulse	0.0	t		object	car-40.jpg	0.0	210.08135571834828	
243.0	121.90368988107275	ISI	1.0		7.0	object	car-40.jpg	0.0	210.18124611552958	0.11669243988035305
244.0	122.0203823209531	car	0.0		46.0	object	car-67.jpg	0.0	210.29793855540993	0.38331586107688054
244.0	122.40369818202998	ISI	1.0		5.0	object	car-67.jpg	0.0	210.6812544164868	0.11668610096785414
245.0	122.52038428299784	car	0.0		45.0	object	car-134.jpg	0.0	210.79794051745466	0.38330318325097323
245.0	122.51061722596478	pulse	0.0	t		object	car-134.jpg	0.0	210.7881734604216	
245.0	122.90368746624881	ISI	1.0		2.0	object	car-134.jpg	0.0	211.18124370070564	0.11670089176459442
246.0	123.0203883580134	car	0.0		46.0	object	car-116.jpg	0.0	211.29794459247023	0.3832850720718852
246.0	123.2037981557387	pulse	0.0	t		object	car-116.jpg	0.0	211.48135439019552	
246.0	123.40367343008529	ISI	1.0		7.0	object	car-116.jpg	0.0	211.68122966454212	0.11671115476565319
247.0	123.52038458485094	car	0.0		46.0	object	car-120.jpg	0.0	211.79794081930777	0.3832763183354473
247.0	123.90366090318639	ISI	1.0		6.0	object	car-120.jpg	0.0	212.18121713764322	0.11670028805838228
247.0	123.95021900943266	pulse	1.0	t		object	car-120.jpg	0.0	212.22777524388948	
248.0	124.02036119124477	car	0.0		46.0	object	car-21.jpg	0.0	212.2979174257016	0.3832853739249913
248.0	124.40364656516977	ISI	1.0		7.0	object	car-21.jpg	0.0	212.6812027996266	0.11668489355542988
249.0	124.5203314587252	car	0.0		46.0	object	car-14.jpg	0.0	212.79788769318202	0.38331314439983544
249.0	124.60380920355783	pulse	0.0	t		object	car-14.jpg	0.0	212.88136543801465	
249.0	124.90364460312503	ISI	1.0		6.0	object	car-14.jpg	0.0	213.18120083758186	0.11668911949800531
250.0	125.02033372262304	car	0.0		46.0	object	car-11.jpg	0.0	213.29788995707986	0.38328658133650606
250.0	125.30374016978021	pulse	0.0	t		object	car-11.jpg	0.0	213.58129640423704	
250.0	125.40362030395954	ISI	1.0		7.0	object	car-11.jpg	0.0	213.68117653841637	0.11669938249906409
251.0	125.5203196864586	car	0.0		46.0	object	car-42.jpg	0.0	213.79787592091543	0.3832899017197633
251.0	125.90360958817837	ISI	1.0		6.0	object	car-42.jpg	0.0	214.1811658226352	0.11668851579270267
252.0	126.02029810397107	adult	0.0		45.0	face	adult-106.jpg	0.0	214.2978543384279	0.38329563692605007
252.0	126.01059262494618	pulse	0.0	t		face	adult-106.jpg	0.0	214.288148859403	
252.0	126.40359374089712	ISI	1.0		7.0	face	adult-106.jpg	0.0	214.68114997535395	0.11670209917610919
253.0	126.52029584007323	adult	0.0		46.0	face	adult-104.jpg	0.0	214.79785207453006	0.38326756459900935
253.0	126.70368994144337	pulse	0.0	t		face	adult-104.jpg	0.0	214.9812461759002	
253.0	126.90356340467224	ISI	1.0		6.0	face	adult-104.jpg	0.0	215.18111963912907	0.116719304795879
254.0	127.02028270946812	adult	0.0		46.0	face	adult-117.jpg	0.0	215.29783894392494	0.3832899017197633
254.0	127.40357261118788	ISI	1.0		6.0	face	adult-117.jpg	0.0	215.6811288456447	0.11669334543967125
254.0	127.45076491055625	pulse	1.0	t		face	adult-117.jpg	0.0	215.72832114501307	
255.0	127.52026595662755	adult	0.0		46.0	face	adult-4.jpg	0.0	215.79782219108438	0.38328748689582426
255.0	127.90355344352338	ISI	1.0		7.0	face	adult-4.jpg	0.0	216.1811096779802	0.11668338429171854
256.0	128.0202368278151	adult	0.0		46.0	face	adult-107.jpg	0.0	216.29779306227192	0.38330318325097323
256.0	128.0956406090063	pulse	0.0	t		face	adult-107.jpg	0.0	216.37319684346312	
256.0	128.40354001106607	ISI	1.0		1.0	face	adult-107.jpg	0.0	216.6810962455229	0.11668428985012724
257.0	128.5202243009162	adult	0.0		46.0	face	adult-62.jpg	0.0	216.79778053537302	0.38330469251559407
257.0	128.8036639519014	pulse	0.0	t		face	adult-62.jpg	0.0	217.08122018635822	
257.0	128.9035289934318	ISI	1.0		4.0	face	adult-62.jpg	0.0	217.18108522788862	0.11669968435217015
258.0	129.02022867778396	adult	0.0		46.0	face	adult-86.jpg	0.0	217.2977849122408	0.3832859776312034
258.0	129.40351465541517	ISI	1.0		6.0	face	adult-86.jpg	0.0	217.681070889872	0.11670209917610919
259.0	129.52021675459127	adult	0.0		45.0	face	adult-129.jpg	0.0	217.7977729890481	0.38328295910105226
259.0	129.5103410304837	pulse	0.0	t		face	adult-129.jpg	0.0	217.7878972649405	
259.0	129.90349971369233	ISI	1.0		5.0	face	adult-129.jpg	0.0	218.18105594814915	0.11669908064595802
260.0	130.02019879433828	adult	0.0		46.0	face	adult-102.jpg	0.0	218.2977550287951	0.38328839245514246
260.0	130.20361161059373	pulse	0.0	t		face	adult-102.jpg	0.0	218.48116784505055	
260.0	130.40348718679343	ISI	1.0		6.0	face	adult-102.jpg	0.0	218.68104342125025	0.11670149546989705
261.0	130.52018868226332	adult	0.0		46.0	face	adult-25.jpg	0.0	218.79774491672015	0.38328567577809736
261.0	130.90347435804142	ISI	1.0		6.0	face	adult-25.jpg	0.0	219.18103059249825	0.11670089176459442
261.0	130.94620104435035	pulse	1.0	t		face	adult-25.jpg	0.0	219.22375727880717	
262.0	131.02017524980602	adult	0.0		46.0	face	adult-94.jpg	0.0	219.29773148426284	0.3832889961604451
262.0	131.40346424596646	ISI	1.0		6.0	face	adult-94.jpg	0.0	219.68102048042329	0.11669576026361028
263.0	131.52016000623007	adult	0.0		46.0	face	adult-115.jpg	0.0	219.7977162406869	0.3832862794834
263.0	131.59558159674816	pulse	0.0	t		face	adult-115.jpg	0.0	219.87313783120499	
263.0	131.90344628571347	ISI	1.0		3.0	face	adult-115.jpg	0.0	220.1810025201703	0.11669968435307965
264.0	132.02014597006655	word	0.0		46.0	character	word-20.jpg	0.0	220.29770220452338	0.38329292024900496
264.0	132.30355392648835	pulse	0.0	t		character	word-20.jpg	0.0	220.58111016094517	
264.0	132.40343889031556	ISI	1.0		7.0	character	word-20.jpg	0.0	220.68099512477238	0.11669576026361028
265.0	132.52013465057917	word	0.0		46.0	character	word-18.jpg	0.0	220.797690885036	0.3832799405709011
265.0	132.90341459115007	ISI	1.0		4.0	character	word-18.jpg	0.0	221.1809708256069	0.11670179732391261
266.0	133.02011638847398	word	0.0		45.0	character	word-65.jpg	0.0	221.2976726229308	0.3832917128374902
266.0	133.01030043125684	pulse	0.0	t		character	word-65.jpg	0.0	221.28785666571366	
266.0	133.40340810131147	ISI	1.0		5.0	character	word-65.jpg	0.0	221.6809643357683	0.11669726952823112
267.0	133.5201053708397	word	0.0		46.0	character	word-88.jpg	0.0	221.79766160529653	0.3832877887489303
267.0	133.70356980395536	pulse	0.0	t		character	word-88.jpg	0.0	221.98112603841219	
267.0	133.90339315958863	ISI	1.0		6.0	character	word-88.jpg	0.0	222.18094939404546	0.11668398799702118
268.0	134.02007714758565	word	0.0		46.0	character	word-135.jpg	0.0	222.29763338204248	0.38330318325097323
268.0	134.40338033083663	ISI	1.0		6.0	character	word-135.jpg	0.0	222.68093656529345	0.11670058991148835
268.0	134.44739713680337	pulse	1.0	t		character	word-135.jpg	0.0	222.7249533712602	
269.0	134.52008092074811	word	0.0		46.0	character	word-16.jpg	0.0	222.79763715520494	0.3832808461302193
269.0	134.90336176687833	ISI	1.0		4.0	character	word-16.jpg	0.0	223.18091800133516	0.11670511770626035
270.0	135.0200668845846	word	0.0		46.0	character	word-3.jpg	0.0	223.29762311904142	0.3832871850427182
270.0	135.103480032878	pulse	0.0	t		character	word-3.jpg	0.0	223.38103626733482	
270.0	135.4033540696273	ISI	1.0		4.0	character	word-3.jpg	0.0	223.68091030408414	0.11668670467406628
271.0	135.52004077430138	word	0.0		46.0	character	word-67.jpg	0.0	223.7975970087582	0.38329956101460994
271.0	135.7953279798694	pulse	0.0	t		character	word-67.jpg	0.0	224.07288421432622	
271.0	135.903340335316	ISI	1.0		4.0	character	word-67.jpg	0.0	224.1808965697728	0.11670058991148835
272.0	136.02004092522748	word	0.0		46.0	character	word-49.jpg	0.0	224.2975971596843	0.3832917128374902
272.0	136.40333263806497	ISI	1.0		6.0	character	word-49.jpg	0.0	224.6808888725218	0.11668911949800531
273.0	136.52002175756297	word	0.0		45.0	character	word-111.jpg	0.0	224.7975779920198	0.3832926183968084
273.0	136.51028880991726	pulse	0.0	t		character	word-111.jpg	0.0	224.78784504437408	
273.0	136.90331437595978	ISI	1.0		7.0	character	word-111.jpg	0.0	225.1808706104166	0.11669908064595802
274.0	137.02001345660574	word	0.0		46.0	character	word-111.jpg	1.0	225.29756969106256	0.38328658133650606
274.0	137.20343291362678	pulse	0.0	t		character	word-111.jpg	1.0	225.4809891480836	
274.0	137.40330003794224	ISI	1.0		5.0	character	word-111.jpg	1.0	225.68085627239907	0.11668338429171854
275.0	137.51998342223396	word	0.0		45.0	character	word-107.jpg	0.0	225.7975396566908	0.3833116351343051
275.0	137.5246247137302	response	0.0	b		character	word-107.jpg	0.0	225.80218094818702	
275.0	137.90329505736827	ISI	1.0		7.0	character	word-107.jpg	0.0	226.1808512918251	0.11669908064686751
275.0	137.9393885243344	pulse	1.0	t		character	word-107.jpg	0.0	226.21694475879121	
276.0	138.01999413801514	house	0.0		46.0	place	house-101.jpg	0.0	226.29755037247196	0.383247944154391
276.0	138.40324208216953	ISI	1.0		7.0	place	house-101.jpg	0.0	226.68079831662635	0.11668821393868711
277.0	138.5199302961082	house	0.0		46.0	place	house-101.jpg	1.0	226.79748653056504	0.38329925916241336
277.0	138.60337061117025	pulse	0.0	t		place	house-101.jpg	1.0	226.88092684562707	
277.0	138.90322955527063	ISI	1.0		5.0	place	house-101.jpg	1.0	227.18078578972745	0.11669847694065538
278.0	139.01992803221128	house	0.0		46.0	place	house-29.jpg	0.0	227.2974842666681	0.3832871850427182
278.0	139.08668583835606	response	0.0	b		place	house-29.jpg	0.0	227.36424207281289	
278.0	139.29519229695325	pulse	0.0	t		place	house-29.jpg	0.0	227.57274853141007	
278.0	139.403215217254	ISI	1.0		6.0	place	house-29.jpg	0.0	227.68077145171083	0.11669757138133718
279.0	139.51991278863534	house	0.0		46.0	place	house-57.jpg	0.0	227.79746902309216	0.3833043906633975
279.0	139.90321717929874	ISI	1.0		7.0	place	house-57.jpg	0.0	228.18077341375556	0.1166773472314162
280.0	140.01989452653015	house	0.0		45.0	place	house-32.jpg	0.0	228.29745076098698	0.38329473136673187
280.0	140.01138378161977	pulse	0.0	t		place	house-32.jpg	0.0	228.2889400160766	
280.0	140.40318925789688	ISI	1.0		5.0	place	house-32.jpg	0.0	228.6807454923537	0.11669757138133718
281.0	140.51988682927822	house	0.0		46.0	place	house-136.jpg	0.0	228.79744306373505	0.38328114798332535
281.0	140.7033087011232	pulse	0.0	t		place	house-136.jpg	0.0	228.98086493558003	
281.0	140.90316797726155	ISI	1.0		7.0	place	house-136.jpg	0.0	229.18072421171837	0.11670481585315429
282.0	141.0198727931147	house	0.0		46.0	place	house-31.jpg	0.0	229.29742902757152	0.38328839245514246
282.0	141.40316118556984	ISI	1.0		3.0	place	house-31.jpg	0.0	229.68071742002667	0.11669787323444325
282.0	141.47058638866383	pulse	1.0	t		place	house-31.jpg	0.0	229.74814262312066	
283.0	141.5198590588043	house	0.0		46.0	place	house-11.jpg	0.0	229.7974152932611	0.3832899017197633
283.0	141.90314896052405	ISI	1.0		6.0	place	house-11.jpg	0.0	230.18070519498087	0.11668398799702118
284.0	142.01983294852107	house	0.0		46.0	place	house-74.jpg	0.0	230.2973891829779	0.38330227769165504
284.0	142.10326360428735	pulse	0.0	t		place	house-74.jpg	0.0	230.38081983874417	
284.0	142.40313522621273	ISI	1.0		6.0	place	house-74.jpg	0.0	230.68069146066955	0.11668549726255151
285.0	142.51982072347528	house	0.0		46.0	place	house-133.jpg	0.0	230.7973769579321	0.38330046657392813
285.0	142.80323350954495	pulse	0.0	t		place	house-133.jpg	0.0	231.08078974400178	
285.0	142.9031211900492	ISI	1.0		6.0	place	house-133.jpg	0.0	231.18067742450603	0.11669757138133718
286.0	143.01981876143054	house	0.0		46.0	place	house-44.jpg	0.0	231.29737499588737	0.38330589992801833
286.0	143.40312466135856	ISI	1.0		7.0	place	house-44.jpg	0.0	231.68068089581539	0.11667312128975027
287.0	143.5197977826483	house	0.0		45.0	place	house-112.jpg	0.0	231.79735401710514	0.3832853739249913
287.0	143.51001563296632	pulse	0.0	t		place	house-112.jpg	0.0	231.78757186742314	
287.0	143.9030831565733	ISI	1.0		5.0	place	house-112.jpg	0.0	232.18063939103013	0.11669545841050422
288.0	144.0197786149838	word	0.0		46.0	character	word-62.jpg	0.0	232.29733484944063	0.3833372926383163
288.0	144.20324184068704	pulse	0.0	t		character	word-62.jpg	0.0	232.48079807514387	
288.0	144.40311590762212	ISI	1.0		5.0	character	word-62.jpg	0.0	232.68067214207895	0.11669726952823112
289.0	144.51981317715035	word	0.0		46.0	character	word-60.jpg	0.0	232.79736941160718	0.38328839245514246
289.0	144.9031015696055	ISI	1.0		6.0	character	word-60.jpg	0.0	233.18065780406232	0.11669938249906409
289.0	144.9459592601097	pulse	1.0	t		character	word-60.jpg	0.0	233.22351549456653	
290.0	145.01980095210456	word	0.0		46.0	character	word-138.jpg	0.0	233.29735718656138	0.38329654248536826
290.0	145.40309749458993	ISI	1.0		7.0	character	word-138.jpg	0.0	233.68065372904675	0.11669123246883828
291.0	145.51978872705877	word	0.0		46.0	character	word-22.jpg	0.0	233.7973449615156	0.3832844683656731
291.0	145.60320308276368	pulse	0.0	t		character	word-22.jpg	0.0	233.8807593172205	
291.0	145.90307319542444	ISI	1.0		4.0	character	word-22.jpg	0.0	234.18062942988126	0.11670270288232132
292.0	146.01977589830676	word	0.0		45.0	character	word-121.jpg	0.0	234.2973321327636	0.38328567577809736
292.0	146.02441386941973	response	0.0	b		character	word-121.jpg	0.0	234.30197010387656	
292.0	146.3032043807316	pulse	0.0	t		character	word-121.jpg	0.0	234.5807606151884	
292.0	146.40306157408486	ISI	1.0		6.0	character	word-121.jpg	0.0	234.68061780854168	0.11669847693974589
293.0	146.5197600510246	word	0.0		46.0	character	word-26.jpg	0.0	234.79731628548143	0.38328748689582426
293.0	146.90304753792043	ISI	1.0		6.0	character	word-26.jpg	0.0	235.18060377237725	0.11669304358747468
294.0	147.0197405815079	word	0.0		45.0	character	word-5.jpg	0.0	235.29729681596473	0.38329231654279283
294.0	147.00989262787425	pulse	0.0	t		character	word-5.jpg	0.0	235.28744886233108	
294.0	147.4030328980507	ISI	1.0		6.0	character	word-5.jpg	0.0	235.68058913250752	0.11669908064686751
295.0	147.51973197869756	word	0.0		46.0	character	word-130.jpg	0.0	235.7972882131544	0.38328748689582426
295.0	147.69495129752977	pulse	0.0	t		character	word-130.jpg	0.0	235.9725075319866	
295.0	147.9030194655934	ISI	1.0		7.0	character	word-130.jpg	0.0	236.1805757000502	0.11670089176368492
296.0	148.01972035735707	word	0.0		46.0	character	word-130.jpg	1.0	236.2972765918139	0.3832877887489303
296.0	148.403008146106	ISI	1.0		3.0	character	word-130.jpg	1.0	236.68056438056283	0.1166836861448246
296.0	148.47511569270227	pulse	1.0	t		character	word-130.jpg	1.0	236.7526719271591	
297.0	148.51969183225083	word	0.0		46.0	character	word-120.jpg	0.0	236.79724806670765	0.3833007684270342
297.0	148.5447936246237	response	0.0	b		character	word-120.jpg	0.0	236.82234985908053	
297.0	148.90299260067786	ISI	1.0		6.0	character	word-120.jpg	0.0	237.1805488351347	0.11670179732300312
298.0	149.01969439800087	word	0.0		46.0	character	word-54.jpg	0.0	237.2972506324577	0.3832859776312034
298.0	149.0949188785189	pulse	0.0	t		character	word-54.jpg	0.0	237.37247511297574	
298.0	149.40298037563207	ISI	1.0		6.0	character	word-54.jpg	0.0	237.6805366100889	0.11670149546989705
299.0	149.51968187110197	word	0.0		46.0	character	word-75.jpg	0.0	237.7972381055588	0.38329774989688303
299.0	149.79490327272015	pulse	0.0	t		character	word-75.jpg	0.0	238.07245950717697	
299.0	149.90297962099885	ISI	1.0		11.0	character	word-75.jpg	0.0	238.18053585545567	0.10002260878900415
300.0	150.00300222978785	baseline	0.0		48.0		baseline	0.0	238.28055846424468	0.39998901255148667
300.0	150.40299124233934	ISI	1.0		11.0		baseline	0.0	238.68054747679616	0.09999544201946264
301.0	150.5029866843588	baseline	0.0		47.0		baseline	0.0	238.78054291881563	0.39999021996391093
301.0	150.49504734714992	pulse	0.0	t			baseline	0.0	238.77260358160675	
301.0	150.9029769043227	ISI	1.0		11.0		baseline	0.0	239.18053313877954	0.09999725313718955
302.0	151.0029741574599	baseline	0.0		48.0		baseline	0.0	239.28053039191673	0.3999896162576988
302.0	151.1949526558683	pulse	0.0	t			baseline	0.0	239.47250889032512	
302.0	151.4029637737176	ISI	1.0		11.0		baseline	0.0	239.68052000817443	0.09999634757878084
303.0	151.50296012129638	baseline	0.0		48.0		baseline	0.0	239.7805163557532	0.3999859940213355
303.0	151.89491803333112	pulse	0.0	t			baseline	0.0	240.17247426778795	
303.0	151.90294611531772	ISI	1.0		11.0		baseline	0.0	240.18050234977454	0.10000117722665891
304.0	152.00294729254438	baseline	0.0		48.0		baseline	0.0	240.2805035270012	0.3999887106983806
304.0	152.40293600324276	ISI	1.0		11.0		baseline	0.0	240.68049223769958	0.09999846054961381
305.0	152.50293446379237	baseline	0.0		48.0		baseline	0.0	240.7804906982492	0.39998901255148667
305.0	152.59492084056365	pulse	0.0	t			baseline	0.0	240.87247707502047	
305.0	152.90292347634386	ISI	1.0		11.0		baseline	0.0	241.18047971080068	0.09999906425582594
306.0	153.00292254059968	baseline	0.0		48.0		baseline	0.0	241.2804787750565	0.39998720143375976
306.0	153.2949010088223	pulse	0.0	t			baseline	0.0	241.57245724327913	
306.0	153.40290974203344	ISI	1.0		11.0		baseline	0.0	241.68046597649027	0.09999785684340168
307.0	153.50290759887685	baseline	0.0		48.0		baseline	0.0	241.78046383333367	0.3999887106983806
307.0	153.90289630957523	ISI	1.0		11.0		baseline	0.0	242.18045254403205	0.09999815869650774
308.0	154.00289446827173	baseline	0.0		47.0		baseline	0.0	242.28045070272856	0.3999887106983806
308.0	153.9949515088274	pulse	0.0	t			baseline	0.0	242.27250774328422	
308.0	154.40288317897011	ISI	1.0		11.0		baseline	0.0	242.68043941342694	0.09999634757969034
309.0	154.5028795265498	baseline	0.0		48.0		baseline	0.0	242.78043576100663	0.40000108667027234
309.0	154.69486738239993	pulse	0.0	t			baseline	0.0	242.97242361685676	
309.0	154.90288061322008	ISI	1.0		11.0		baseline	0.0	243.1804368476769	0.09998699013613077
310.0	155.0028676033562	baseline	0.0		48.0		baseline	0.0	243.28042383781303	0.4000025959358027
310.0	155.39471050940392	pulse	0.0	t			baseline	0.0	243.67226674386075	
310.0	155.402870199292	ISI	1.0		11.0		baseline	0.0	243.68042643374883	0.09998276419446483
311.0	155.50285296348648	baseline	0.0		48.0		baseline	0.0	243.7804091979433	0.39998901255148667
311.0	155.90284197603796	ISI	1.0		11.0		baseline	0.0	244.1803982104948	0.09999906425582594
312.0	156.0028410402938	baseline	0.0		48.0		baseline	0.0	244.2803972747506	0.39998810699216847
312.0	156.09483918933165	pulse	0.0	t			baseline	0.0	244.37239542378848	
312.0	156.40282914728596	ISI	1.0		11.0		baseline	0.0	244.68038538174278	0.0999975549912051
313.0	156.50282670227716	baseline	0.0		48.0		baseline	0.0	244.780382936734	0.39998991810989537
313.0	156.79480335938206	pulse	0.0	t			baseline	0.0	245.07235959383888	
313.0	156.90281662038706	ISI	1.0		11.0		baseline	0.0	245.18037285484388	0.0999975549912051
314.0	157.00281417537826	baseline	0.0		48.0		baseline	0.0	245.2803704098351	0.3999887106983806
314.0	157.40280288607664	ISI	1.0		11.0		baseline	0.0	245.68035912053347	0.09999755499029561
315.0	157.50280044106694	baseline	0.0		47.0		baseline	0.0	245.78035667552376	0.39998931440459273
315.0	157.49485265197472	pulse	0.0	t			baseline	0.0	245.77240888643155	
315.0	157.90278975547153	ISI	1.0		11.0		baseline	0.0	246.18034598992836	0.09999815869650774
316.0	158.00278791416804	baseline	0.0		48.0		baseline	0.0	246.28034414862486	0.39999112552231963
316.0	158.19464536953	pulse	0.0	t			baseline	0.0	246.47220160398683	
316.0	158.40277903969036	ISI	1.0		11.0		baseline	0.0	246.68033527414718	0.09999604572658427
317.0	158.50277508541694	baseline	0.0		48.0		baseline	0.0	246.78033131987377	0.39999806814103067
317.0	158.8946089358742	pulse	0.0	t			baseline	0.0	247.17216517033103	
317.0	158.90277315355797	ISI	1.0		11.0		baseline	0.0	247.1803293880148	0.10001717543400446
318.0	159.00279032899198	baseline	0.0		48.0		baseline	0.0	247.2803465634488	0.3999606383713399
318.0	159.40275096736332	ISI	1.0		11.0		baseline	0.0	247.68030720182014	0.09999604572567478
319.0	159.502747013089	baseline	0.0		48.0		baseline	0.0	247.78030324754582	0.39998478660982073
319.0	159.59476931036534	pulse	0.0	t			baseline	0.0	247.87232554482216	
319.0	159.9027317996988	ISI	1.0		11.0		baseline	0.0	248.18028803415564	0.10000842169847601
320.0	160.0027402213973	baseline	0.0		48.0		baseline	0.0	248.2802964558541	0.3999796551088366
320.0	160.29470963403037	pulse	0.0	t			baseline	0.0	248.5722658684872	
320.0	160.40271987650613	ISI	1.0		11.0		baseline	0.0	248.68027611096295	0.10000329019749188
321.0	160.50272316670362	baseline	0.0		48.0		baseline	0.0	248.78027940116044	0.39997905140262446
321.0	160.90270221810624	ISI	1.0		11.0		baseline	0.0	249.18025845256307	0.10000027166734071
322.0	161.00270248977358	baseline	0.0		47.0		baseline	0.0	249.2802587242304	0.39998539031603286
322.0	160.99476375627	pulse	0.0	t			baseline	0.0	249.27231999072683	
322.0	161.40268788008962	ISI	1.0		11.0		baseline	0.0	249.68024411454644	0.09999966796112858
323.0	161.50268754805074	baseline	0.0		48.0		baseline	0.0	249.78024378250757	0.39999746443481854
323.0	161.6946820446674	pulse	0.0	t			baseline	0.0	249.9722382791242	
323.0	161.90268501248556	ISI	1.0		4.0		baseline	0.0	250.1802412469424	0.11666406570020627
324.0	162.01934907818577	adult	0.0		46.0	face	adult-100.jpg	0.0	250.2969053126426	0.3832944295145353
324.0	162.4026435077003	ISI	1.0		6.0	face	adult-100.jpg	0.0	250.68019974215713	0.11667432870217453
324.0	162.39449076043093	pulse	1.0	t		face	adult-100.jpg	0.0	250.67204699488775	
325.0	162.51931783640248	adult	0.0		46.0	face	adult-41.jpg	0.0	250.7968740708593	0.38330227769165504
325.0	162.90262011409413	ISI	1.0		2.0	face	adult-41.jpg	0.0	251.18017634855096	0.11669908064595802
326.0	163.0193191947401	adult	0.0		46.0	face	adult-76.jpg	0.0	251.29687542919692	0.3832871850436277
326.0	163.09456993646836	pulse	0.0	t		face	adult-76.jpg	0.0	251.37212617092518	
326.0	163.40260637978372	ISI	1.0		7.0	face	adult-76.jpg	0.0	251.68016261424054	0.11670058991057886
327.0	163.5193069696943	adult	0.0		46.0	face	adult-24.jpg	0.0	251.79686320415112	0.3832895998666572
327.0	163.79452444722392	pulse	0.0	t		face	adult-24.jpg	0.0	252.07208068168075	
327.0	163.90259656956096	ISI	1.0		7.0	face	adult-24.jpg	0.0	252.18015280401778	0.11668489355633938
328.0	164.0192814631173	adult	0.0		46.0	face	adult-74.jpg	0.0	252.29683769757412	0.3833007684270342
328.0	164.40258223154433	ISI	1.0		7.0	face	adult-74.jpg	0.0	252.68013846600115	0.11669243988126254
329.0	164.5192746714256	adult	0.0		45.0	face	adult-74.jpg	1.0	252.79683090588242	0.38330650363332097
329.0	164.50907053127048	pulse	0.0	t		face	adult-74.jpg	1.0	252.7866267657273	
329.0	164.9025811750589	ISI	1.0		7.0	face	adult-74.jpg	1.0	253.18013740951574	0.11668730838027841
329.0	164.969396031418	response	1.0	b		face	adult-74.jpg	1.0	253.24695226587482	
330.0	165.0192684834392	adult	0.0		46.0	face	adult-8.jpg	0.0	253.29682471789602	0.38329654248536826
330.0	165.19447150221004	pulse	0.0	t		face	adult-8.jpg	0.0	253.47202773666686	
330.0	165.40256502592456	ISI	1.0		5.0	face	adult-8.jpg	0.0	253.68012126038138	0.11669123246883828
331.0	165.5192562583934	adult	0.0		46.0	face	adult-19.jpg	0.0	253.79681249285022	0.3832880906011269
331.0	165.90254434899452	ISI	1.0		4.0	face	adult-19.jpg	0.0	254.18010058345135	0.1166791583500526
331.0	165.89442450370098	pulse	1.0	t		face	adult-19.jpg	0.0	254.1719807381578	
332.0	166.01922350734458	adult	0.0		46.0	face	adult-139.jpg	0.0	254.2967797418014	0.38330318325097323
332.0	166.40252669059555	ISI	1.0		7.0	face	adult-139.jpg	0.0	254.68008292505237	0.11669938249906409
333.0	166.51922607309461	adult	0.0		46.0	face	adult-47.jpg	0.0	254.79678230755144	0.38328839245514246
333.0	166.59447530555826	pulse	0.0	t		face	adult-47.jpg	0.0	254.8720315400151	
333.0	166.90251446554976	ISI	1.0		7.0	face	adult-47.jpg	0.0	255.18007070000658	0.11669938249906409
334.0	167.01921384804882	adult	0.0		46.0	face	adult-46.jpg	0.0	255.29677008250565	0.38328567577809736
334.0	167.29446211458253	pulse	0.0	t		face	adult-46.jpg	0.0	255.57201834903935	
334.0	167.40249952382692	ISI	1.0		4.0	face	adult-46.jpg	0.0	255.68005575828374	0.1167229270322423
335.0	167.51922245085916	adult	0.0		46.0	face	adult-111.jpg	0.0	255.79677868531599	0.38326364050954
335.0	167.9024860913687	ISI	1.0		6.0	face	adult-111.jpg	0.0	256.1800423258255	0.11669877879376145
336.0	168.01918487016246	car	0.0		45.0	object	car-18.jpg	0.0	256.2967411046193	0.383290807278172
336.0	168.00920772345216	pulse	0.0	t		object	car-18.jpg	0.0	256.286763957909	
336.0	168.40247567744063	ISI	1.0		6.0	object	car-18.jpg	0.0	256.68003191189746	0.11670028805838228
337.0	168.51917596549902	car	0.0		46.0	object	car-34.jpg	0.0	256.79673219995584	0.38325186824386037
337.0	168.69436630644486	pulse	0.0	t		object	car-34.jpg	0.0	256.9719225409017	
337.0	168.90242783374288	ISI	1.0		6.0	object	car-34.jpg	0.0	257.1799840681997	0.11669636396982241
338.0	169.0191241977127	car	0.0		46.0	object	car-25.jpg	0.0	257.2966804321695	0.38329020357195986
338.0	169.40241440128466	ISI	1.0		3.0	object	car-25.jpg	0.0	257.6799706357415	0.11668579911565757
338.0	169.46959359419634	pulse	1.0	t		object	car-25.jpg	0.0	257.74714982865316	
339.0	169.51910020040032	car	0.0		46.0	object	car-113.jpg	0.0	257.79665643485714	0.38330378695627587
339.0	169.9024039873566	ISI	1.0		7.0	object	car-113.jpg	0.0	258.1799602218134	0.11669394914588338
340.0	170.01909793650248	car	0.0		46.0	object	car-3.jpg	0.0	258.2966541709593	0.3832908072790815
340.0	170.09431939849128	pulse	0.0	t		object	car-3.jpg	0.0	258.3718756329481	
340.0	170.40238874378156	ISI	1.0		7.0	object	car-3.jpg	0.0	258.6799449782384	0.11669455285118602
341.0	170.51908329663274	car	0.0		46.0	object	car-66.jpg	0.0	258.79663953108957	0.38329141098438413
341.0	170.79430137786767	pulse	0.0	t		object	car-66.jpg	0.0	259.0718576123245	
341.0	170.90237470761713	ISI	1.0		5.0	object	car-66.jpg	0.0	259.17993094207395	0.11671326773739565
342.0	171.01908797535452	car	0.0		46.0	object	car-130.jpg	0.0	259.29664420981135	0.3832808461293098
342.0	171.40236882148383	ISI	1.0		7.0	object	car-130.jpg	0.0	259.67992505594066	0.11668791208649054
343.0	171.51905673357032	car	0.0		45.0	object	car-137.jpg	0.0	259.79661296802715	0.38329141098438413
343.0	171.50893047148475	pulse	0.0	t		object	car-137.jpg	0.0	259.78648670594157	
343.0	171.9023481445547	ISI	1.0		4.0	object	car-137.jpg	0.0	260.17990437901153	0.11669636396982241
344.0	172.01904450852453	car	0.0		46.0	object	car-64.jpg	0.0	260.29660074298135	0.3832899017197633
344.0	172.19427741074105	pulse	0.0	t		object	car-64.jpg	0.0	260.4718336451979	
344.0	172.4023344102443	ISI	1.0		7.0	object	car-64.jpg	0.0	260.6798906447011	0.11668610096785414
345.0	172.51902051121215	car	0.0		46.0	object	car-64.jpg	1.0	260.796576745669	0.38330197583854897
345.0	172.9023224870507	ISI	1.0		4.0	object	car-64.jpg	1.0	261.1798787215075	0.11669757138133718
345.0	172.89414528968973	pulse	1.0	t		object	car-64.jpg	1.0	261.17170152414656	
345.0	172.95317113162582	response	1.0	b		object	car-64.jpg	1.0	261.23072736608265	
346.0	173.01902005843203	car	0.0		46.0	object	car-51.jpg	0.0	261.29657629288886	0.3832886943082485
346.0	173.40230875274028	ISI	1.0		7.0	object	car-51.jpg	0.0	261.6798649871971	0.11669817508754932
347.0	173.51900692782783	car	0.0		45.0	object	car-28.jpg	0.0	261.79656316228466	0.38328748689582426
347.0	173.59423412502292	pulse	0.0	t		object	car-28.jpg	0.0	261.87179035947975	
347.0	173.90229441472366	ISI	1.0		11.0	object	car-28.jpg	0.0	262.1798506491805	0.09999815869650774
348.0	174.00229257342016	baseline	0.0		48.0		baseline	0.0	262.279848807877	0.4000004829649697
348.0	174.29426379717188	pulse	0.0	t			baseline	0.0	262.5718200316287	
348.0	174.40229305638513	ISI	1.0		11.0		baseline	0.0	262.67984929084196	0.09999634757878084
349.0	174.5022894039639	baseline	0.0		48.0		baseline	0.0	262.77984563842074	0.40005451464912767
349.0	174.90234391861304	ISI	1.0		11.0		baseline	0.0	263.17990015306987	0.09999151793090277
349.0	174.99411386679367	pulse	1.0	t			baseline	0.0	263.2716701012505	
350.0	175.00233543654394	baseline	0.0		48.0		baseline	0.0	263.27989167100077	0.3999868995806537
350.0	175.4023223361246	ISI	1.0		11.0		baseline	0.0	263.6798785705814	0.09999815869650774
351.0	175.5023204948211	baseline	0.0		48.0		baseline	0.0	263.77987672927793	0.39998991811080487
351.0	175.69410610917203	pulse	0.0	t			baseline	0.0	263.97166234362885	
351.0	175.9023104129319	ISI	1.0		11.0		baseline	0.0	264.17986664738874	0.09999483831325051
352.0	176.00230525124516	baseline	0.0		48.0		baseline	0.0	264.279861485702	0.40000018111186364
352.0	176.39409020152016	pulse	0.0	t			baseline	0.0	264.671646435977	
352.0	176.40230543235702	ISI	1.0		11.0		baseline	0.0	264.67986166681385	0.09998880125476717
353.0	176.5022942336118	baseline	0.0		48.0		baseline	0.0	264.7798504680686	0.3999887106983806
353.0	176.90228294431017	ISI	1.0		11.0		baseline	0.0	265.179839178767	0.09999634757878084
354.0	177.00227929188895	baseline	0.0		48.0		baseline	0.0	265.2798355263458	0.3999971625817125
354.0	177.09406614383715	pulse	0.0	t			baseline	0.0	265.371622378294	
354.0	177.40227645447067	ISI	1.0		11.0		baseline	0.0	265.6798326889275	0.09998819754855504
355.0	177.50226465201922	baseline	0.0		48.0		baseline	0.0	265.77982088647605	0.39998025881504873
355.0	177.794039067624	pulse	0.0	t			baseline	0.0	266.0715953020808	
355.0	177.90224491083427	ISI	1.0		11.0		baseline	0.0	266.1798011452911	0.10002623102445796
356.0	178.00227114185873	baseline	0.0		48.0		baseline	0.0	266.27982737631555	0.3999705995192926
356.0	178.40224174137802	ISI	1.0		11.0		baseline	0.0	266.67979797583484	0.09999846054961381
356.0	178.4940222544128	pulse	1.0	t			baseline	0.0	266.77157848886964	
357.0	178.50224020192763	baseline	0.0		48.0		baseline	0.0	266.77979643638446	0.3999896162567893
357.0	178.90222981818442	ISI	1.0		11.0		baseline	0.0	267.17978605264125	0.09999815869741724
358.0	179.00222797688184	baseline	0.0		48.0		baseline	0.0	267.27978421133867	0.3999841829036086
358.0	179.19400272452458	pulse	0.0	t			baseline	0.0	267.4715589589814	
358.0	179.40221215978545	ISI	1.0		11.0		baseline	0.0	267.6797683942423	0.09999966796112858
359.0	179.50221182774658	baseline	0.0		48.0		baseline	0.0	267.7797680622034	0.39999263478694047
359.0	179.89399496690294	pulse	0.0	t			baseline	0.0	268.17155120135976	
359.0	179.90220446253352	ISI	1.0		7.0		baseline	0.0	268.17976069699034	0.1166655749657366
360.0	180.01887003749925	car	0.0		46.0	object	car-71.jpg	0.0	268.2964262719561	0.38328205354173406
360.0	180.402152091041	ISI	1.0		7.0	object	car-71.jpg	0.0	268.6797083254978	0.11670330658853345
361.0	180.51885539762952	car	0.0		46.0	object	car-117.jpg	0.0	268.79641163208635	0.3832880906011269
361.0	180.59394193133357	pulse	0.0	t		object	car-117.jpg	0.0	268.8714981657904	
361.0	180.90214348823065	ISI	1.0		5.0	object	car-117.jpg	0.0	269.1796997226875	0.11669636396982241
362.0	181.01883985220047	car	0.0		46.0	object	car-15.jpg	0.0	269.2963960866573	0.3832850720718852
362.0	181.21891525507635	response	0.0	b		object	car-15.jpg	0.0	269.4964714895332	
362.0	181.29390579953179	pulse	0.0	t		object	car-15.jpg	0.0	269.5714620339886	
362.0	181.40212492427236	ISI	1.0		6.0	object	car-15.jpg	0.0	269.6796811587292	0.11670360844163952
363.0	181.518828532714	car	0.0		46.0	object	car-75.jpg	0.0	269.7963847671708	0.3832506608314361
363.0	181.90207919354543	ISI	1.0		4.0	object	car-75.jpg	0.0	270.17963542800226	0.11668398799702118
363.0	181.99400701083687	pulse	1.0	t		object	car-75.jpg	0.0	270.2715632452937	
364.0	182.01876318154245	car	0.0		46.0	object	car-47.jpg	0.0	270.2963194159993	0.3833052962218062
364.0	182.40206847776426	ISI	1.0		7.0	object	car-47.jpg	0.0	270.6796247122211	0.11669787323444325
365.0	182.5187663509987	car	0.0		46.0	object	car-22.jpg	0.0	270.7963225854555	0.3832880906020364
365.0	182.69386824901994	pulse	0.0	t		object	car-22.jpg	0.0	270.97142448347677	
365.0	182.90205444160074	ISI	1.0		6.0	object	car-22.jpg	0.0	271.17961067605756	0.11667976205535524
366.0	183.0187342036561	car	0.0		46.0	object	car-98.jpg	0.0	271.2962904381129	0.3833209925769552
366.0	183.3939682529135	pulse	0.0	t		object	car-98.jpg	0.0	271.67152448737033	
366.0	183.40205519623305	ISI	1.0		6.0	object	car-98.jpg	0.0	271.6796114306899	0.11668338429080904
367.0	183.51873858052386	car	0.0		46.0	object	car-24.jpg	0.0	271.7962948149807	0.3832899017197633
367.0	183.90202848224362	ISI	1.0		5.0	object	car-24.jpg	0.0	272.17958471670045	0.11669847694065538
368.0	184.01872695918428	car	0.0		46.0	object	car-55.jpg	0.0	272.2962831936411	0.3832871850427182
368.0	184.09384005595166	pulse	0.0	t		object	car-55.jpg	0.0	272.3713962904085	
368.0	184.402014144227	ISI	1.0		6.0	object	car-55.jpg	0.0	272.6795703786838	0.11669757138133718
369.0	184.51871171560833	car	0.0		46.0	object	car-123.jpg	0.0	272.79626795006516	0.3832998628686255
369.0	184.79380845194373	pulse	0.0	t		object	car-123.jpg	0.0	273.07136468640056	
369.0	184.90201157847696	ISI	1.0		7.0	object	car-123.jpg	0.0	273.1795678129338	0.11668791208558105
370.0	185.01869949056254	car	0.0		46.0	object	car-125.jpg	0.0	273.29625572501936	0.38328748689582426
370.0	185.40198697745836	ISI	1.0		7.0	object	car-125.jpg	0.0	273.6795432119152	0.11670421214694215
370.0	185.49377956461285	pulse	1.0	t		object	car-125.jpg	0.0	273.7713357990697	
371.0	185.5186911896053	car	0.0		46.0	object	car-76.jpg	0.0	273.79624742406213	0.3832826572479462
371.0	185.90197384685325	ISI	1.0		5.0	object	car-76.jpg	0.0	274.1795300813101	0.11669877879376145
372.0	186.018672625647	house	0.0		46.0	place	house-84.jpg	0.0	274.29622886010384	0.3832877887489303
372.0	186.1937705995797	pulse	0.0	t		place	house-84.jpg	0.0	274.4713268340365	
372.0	186.40196041439594	ISI	1.0		6.0	place	house-84.jpg	0.0	274.67951664885277	0.11668851579179318
373.0	186.51864893018774	house	0.0		46.0	place	house-10.jpg	0.0	274.79620516464456	0.38330499436870014
373.0	186.89374442892586	pulse	0.0	t		place	house-10.jpg	0.0	275.1713006633827	
373.0	186.90195392455644	ISI	1.0		4.0	place	house-10.jpg	0.0	275.17951015901326	0.11669243988035305
374.0	187.0186463644368	house	0.0		46.0	place	house-65.jpg	0.0	275.2962025988936	0.38329020357286936
374.0	187.40193656800966	ISI	1.0		7.0	place	house-65.jpg	0.0	275.6794928024665	0.11669696767603455
375.0	187.5186335356857	house	0.0		46.0	place	house-118.jpg	0.0	275.7961897701425	0.3833209925769552
375.0	187.59374965098232	pulse	0.0	t		place	house-118.jpg	0.0	275.87130588543914	
375.0	187.90195452826265	ISI	1.0		7.0	place	house-118.jpg	0.0	276.1795107627195	0.11669726952823112
376.0	188.01865179779088	house	0.0		46.0	place	house-1.jpg	0.0	276.2962080322477	0.38328748689582426
376.0	188.29372136735765	pulse	0.0	t		place	house-1.jpg	0.0	276.5712776018145	
376.0	188.4019392846867	ISI	1.0		3.0	place	house-1.jpg	0.0	276.67949551914353	0.11670662697088119
377.0	188.5186459116576	house	0.0		46.0	place	house-60.jpg	0.0	276.7962021461144	0.38328024242400716
377.0	188.9019261540816	ISI	1.0		7.0	place	house-60.jpg	0.0	277.1794823885384	0.12503324156023155
377.0	188.99373624870987	pulse	1.0	t		place	house-60.jpg	0.0	277.2712924831667	
378.0	189.02695939564182	house	0.0		45.0	place	house-104.jpg	0.0	277.30451563009865	0.37495242042314203
378.0	189.40191181606497	ISI	1.0		6.0	place	house-104.jpg	0.0	277.6794680505218	0.1166800639084613
379.0	189.51859187997343	house	0.0		46.0	place	house-135.jpg	0.0	277.79614811443025	0.3833119369874112
379.0	189.69367506310937	pulse	0.0	t		place	house-135.jpg	0.0	277.9712312975662	
379.0	189.90190381696084	ISI	1.0		7.0	place	house-135.jpg	0.0	278.17946005141766	0.11669606211671635
380.0	190.01859987907756	house	0.0		46.0	place	house-71.jpg	0.0	278.2961561135344	0.38328748689582426
380.0	190.39366972031166	pulse	0.0	t		place	house-71.jpg	0.0	278.6712259547685	
380.0	190.40188736597338	ISI	1.0		7.0	place	house-71.jpg	0.0	278.6794436004302	0.11670058991148835
381.0	190.51858795588487	house	0.0		46.0	place	house-138.jpg	0.0	278.7961441903417	0.3832844683656731
381.0	190.90187242425054	ISI	1.0		5.0	place	house-138.jpg	0.0	279.17942865870737	0.11670089176459442
382.0	191.01857331601514	house	0.0		46.0	place	house-19.jpg	0.0	279.29612955047196	0.3832862794834
382.0	191.09364898301192	pulse	0.0	t		place	house-19.jpg	0.0	279.37120521746874	
382.0	191.40185959549854	ISI	1.0		7.0	place	house-19.jpg	0.0	279.67941582995536	0.11669877879376145
383.0	191.5185583742923	house	0.0		46.0	place	house-89.jpg	0.0	279.7961146087491	0.38328839245423296
383.0	191.79362251050497	pulse	0.0	t		place	house-89.jpg	0.0	280.0711787449618	
383.0	191.90184676674653	ISI	1.0		6.0	place	house-89.jpg	0.0	280.17940300120335	0.11669877879376145
384.0	192.0185455455403	adult	0.0		46.0	face	adult-123.jpg	0.0	280.2961017799971	0.38328748689582426
384.0	192.40183303243612	ISI	1.0		6.0	face	adult-123.jpg	0.0	280.67938926689294	0.12503324156023155
384.0	192.4936823679518	pulse	1.0	t		face	adult-123.jpg	0.0	280.77123860240863	
385.0	192.52686627399635	adult	0.0		45.0	face	adult-77.jpg	0.0	280.8044225084532	0.37496419268882164
385.0	192.90183046668517	ISI	1.0		2.0	face	adult-77.jpg	0.0	281.179386701142	0.11668730838027841
386.0	193.01851777506545	adult	0.0		46.0	face	adult-59.jpg	0.0	281.2960740095223	0.3832871850427182
386.0	193.19358586555245	pulse	0.0	t		face	adult-59.jpg	0.0	281.4711421000093	
386.0	193.40180496010817	ISI	1.0		7.0	face	adult-59.jpg	0.0	281.679361194565	0.11668791208649054
387.0	193.51849287219466	adult	0.0		46.0	face	adult-59.jpg	1.0	281.7960491066515	0.3833025795447611
387.0	193.89360587840565	pulse	0.0	t		face	adult-59.jpg	1.0	282.1711621128625	
