trial_nr	onset	event_type	phase	response	nr_frames	face_age	face_sex	face_eth	attractiveness	expression	face_id	sub_id	ses	run	trial_type	catch	rating_type	onset_abs	duration
-1.0	0.05432693236434716	fix	0.0		714													21.515698652994615	5.966400348705065
-1.0	0.7043091832001664	pulse	0.0	t														22.165680903830435	
-1.0	1.4042495967187278	pulse	0.0	t														22.865621317348996	
-1.0	2.104244042559003	pulse	0.0	t														23.56561576318927	
-1.0	2.804220678863203	pulse	0.0	t														24.26559239949347	
-1.0	3.5042048615796375	pulse	0.0	t														24.965576582209906	
-1.0	4.204195986998457	pulse	0.0	t														25.665567707628725	
-1.0	4.904231787184472	pulse	0.0	t														26.36560350781474	
-1.0	5.604218988466528	pulse	0.0	t														27.065590709096796	
0.0	6.020727281069412	face	0.0		144	21.0	male	black	2.969757262236371	neutral	137	sub-08	1.0	2.0	137_neutral	1.0	trustworthiness	27.48209900169968	1.2333227281069412
0.0	6.30417690966533	pulse	0.0	t		21.0	male	black	2.969757262236371	neutral	137	sub-08	1.0	2.0	137_neutral	1.0	trustworthiness	27.765548630295598	
0.0	7.0041523385425535	pulse	0.0	t		21.0	male	black	2.969757262236371	neutral	137	sub-08	1.0	2.0	137_neutral	1.0	trustworthiness	28.46552405917282	
0.0	7.254050009176353	fix	1.0		177	21.0	male	black	2.969757262236371	neutral	137	sub-08	1.0	2.0	137_neutral	1.0	trustworthiness	28.71542172980662	1.508331240460393
0.0	7.704150104804285	pulse	1.0	t		21.0	male	black	2.969757262236371	neutral	137	sub-08	1.0	2.0	137_neutral	1.0	trustworthiness	29.165521825434553	
0.0	8.40413941908264	pulse	1.0	t		21.0	male	black	2.969757262236371	neutral	137	sub-08	1.0	2.0	137_neutral	1.0	trustworthiness	29.865511139712908	
0.0	8.762381249636746	rating	2.0		294	21.0	male	black	2.969757262236371	neutral	137	sub-08	1.0	2.0	137_neutral	1.0	trustworthiness	30.223752970267014	2.491608086374981
0.0	9.104143826189102	pulse	2.0	t		21.0	male	black	2.969757262236371	neutral	137	sub-08	1.0	2.0	137_neutral	1.0	trustworthiness	30.56551554681937	
0.0	9.804122877343616	pulse	2.0	t		21.0	male	black	2.969757262236371	neutral	137	sub-08	1.0	2.0	137_neutral	1.0	trustworthiness	31.265494597973884	
0.0	10.504114002762435	pulse	2.0	t		21.0	male	black	2.969757262236371	neutral	137	sub-08	1.0	2.0	137_neutral	1.0	trustworthiness	31.965485723392703	
0.0	11.204102713327302	pulse	2.0	t		21.0	male	black	2.969757262236371	neutral	137	sub-08	1.0	2.0	137_neutral	1.0	trustworthiness	32.66547443395757	
0.0	11.253989336011728	fix	3.0		443	21.0	male	black	2.969757262236371	neutral	137	sub-08	1.0	2.0	137_neutral	1.0	trustworthiness	32.715361056641996	3.758260002317911
0.0	11.520757164866154	response	3.0	b		21.0	male	black	2.969757262236371	neutral	137	sub-08	1.0	2.0	137_neutral	1.0	trustworthiness	32.98212888549642	
0.0	11.904068180940158	pulse	3.0	t		21.0	male	black	2.969757262236371	neutral	137	sub-08	1.0	2.0	137_neutral	1.0	trustworthiness	33.365439901570426	
0.0	12.604079228889532	pulse	3.0	t		21.0	male	black	2.969757262236371	neutral	137	sub-08	1.0	2.0	137_neutral	1.0	trustworthiness	34.0654509495198	
0.0	13.304056770763054	pulse	3.0	t		21.0	male	black	2.969757262236371	neutral	137	sub-08	1.0	2.0	137_neutral	1.0	trustworthiness	34.76542849139332	
0.0	14.0040497073187	pulse	3.0	t		21.0	male	black	2.969757262236371	neutral	137	sub-08	1.0	2.0	137_neutral	1.0	trustworthiness	35.46542142794897	
0.0	14.704077659234827	pulse	3.0	t		21.0	male	black	2.969757262236371	neutral	137	sub-08	1.0	2.0	137_neutral	1.0	trustworthiness	36.165449379865095	
1.0	15.012249338329639	face	0.0		146	26.0	female	white	4.854755272582572	neutral	027	sub-08	1.0	2.0	027_neutral	0.0		36.47362105895991	1.2416639298353402
1.0	15.404036787860605	pulse	0.0	t		26.0	female	white	4.854755272582572	neutral	027	sub-08	1.0	2.0	027_neutral	0.0		36.86540850849087	
1.0	16.104019159438394	pulse	0.0	t		26.0	female	white	4.854755272582572	neutral	027	sub-08	1.0	2.0	027_neutral	0.0		37.56539088006866	
1.0	16.25391326816498	fix	1.0		445	26.0	female	white	4.854755272582572	neutral	027	sub-08	1.0	2.0	027_neutral	0.0		37.71528498879525	3.758262719025879
1.0	16.804005153295293	pulse	1.0	t		26.0	female	white	4.854755272582572	neutral	027	sub-08	1.0	2.0	027_neutral	0.0		38.26537687392556	
1.0	17.504001712130048	pulse	1.0	t		26.0	female	white	4.854755272582572	neutral	027	sub-08	1.0	2.0	027_neutral	0.0		38.965373432760316	
1.0	18.203967783454573	pulse	1.0	t		26.0	female	white	4.854755272582572	neutral	027	sub-08	1.0	2.0	027_neutral	0.0		39.66533950408484	
1.0	18.9039770202653	pulse	1.0	t		26.0	female	white	4.854755272582572	neutral	027	sub-08	1.0	2.0	027_neutral	0.0		40.36534874089557	
1.0	19.603971164247923	pulse	1.0	t		26.0	female	white	4.854755272582572	neutral	027	sub-08	1.0	2.0	027_neutral	0.0		41.06534288487819	
2.0	20.012175987190858	face	0.0		146	28.0	male	east_asian	1.5563072025467568	smiling	005	sub-08	1.0	2.0	005_smiling	0.0		41.473547707821126	1.2416624205525295
2.0	20.303953837683366	pulse	0.0	t		28.0	male	east_asian	1.5563072025467568	smiling	005	sub-08	1.0	2.0	005_smiling	0.0		41.765325558313634	
2.0	21.0039473779525	pulse	0.0	t		28.0	male	east_asian	1.5563072025467568	smiling	005	sub-08	1.0	2.0	005_smiling	0.0		42.46531909858277	
2.0	21.253838407743388	fix	1.0		444	28.0	male	east_asian	1.5563072025467568	smiling	005	sub-08	1.0	2.0	005_smiling	0.0		42.715210128373656	3.7582437020646466
2.0	21.70393065510143	pulse	1.0	t		28.0	male	east_asian	1.5563072025467568	smiling	005	sub-08	1.0	2.0	005_smiling	0.0		43.1653023757317	
2.0	22.403927817649674	pulse	1.0	t		28.0	male	east_asian	1.5563072025467568	smiling	005	sub-08	1.0	2.0	005_smiling	0.0		43.86529953827994	
2.0	23.103919848635996	pulse	1.0	t		28.0	male	east_asian	1.5563072025467568	smiling	005	sub-08	1.0	2.0	005_smiling	0.0		44.565291569266265	
2.0	23.803895579370874	pulse	1.0	t		28.0	male	east_asian	1.5563072025467568	smiling	005	sub-08	1.0	2.0	005_smiling	0.0		45.26526730000114	
2.0	24.503899382763848	pulse	1.0	t		28.0	male	east_asian	1.5563072025467568	smiling	005	sub-08	1.0	2.0	005_smiling	0.0		45.965271103394116	
3.0	25.012082109808034	face	0.0		146	22.0	female	west_asian	3.8205332272184642	smiling	066	sub-08	1.0	2.0	066_smiling	0.0		46.4734538304383	1.2416645335470093
3.0	25.203882358055125	pulse	0.0	t		22.0	female	west_asian	3.8205332272184642	smiling	066	sub-08	1.0	2.0	066_smiling	0.0		46.66525407868539	
3.0	25.903870464906504	pulse	0.0	t		22.0	female	west_asian	3.8205332272184642	smiling	066	sub-08	1.0	2.0	066_smiling	0.0		47.36524218553677	
3.0	26.253746643355043	fix	1.0		444	22.0	female	west_asian	3.8205332272184642	smiling	066	sub-08	1.0	2.0	066_smiling	0.0		47.71511836398531	3.758276000715341
3.0	26.603868231168235	pulse	1.0	t		22.0	female	west_asian	3.8205332272184642	smiling	066	sub-08	1.0	2.0	066_smiling	0.0		48.0652399517985	
3.0	27.303842754476136	pulse	1.0	t		22.0	female	west_asian	3.8205332272184642	smiling	066	sub-08	1.0	2.0	066_smiling	0.0		48.765214475106404	
3.0	28.00383931331271	pulse	1.0	t		22.0	female	west_asian	3.8205332272184642	smiling	066	sub-08	1.0	2.0	066_smiling	0.0		49.46521103394298	
3.0	28.703828023877577	pulse	1.0	t		22.0	female	west_asian	3.8205332272184642	smiling	066	sub-08	1.0	2.0	066_smiling	0.0		50.165199744507845	
3.0	29.40382367714301	pulse	1.0	t		22.0	female	west_asian	3.8205332272184642	smiling	066	sub-08	1.0	2.0	066_smiling	0.0		50.86519539777328	
4.0	30.012022644070385	face	0.0		146	19.0	female	white	4.298846000795861	smiling	100	sub-08	1.0	2.0	100_smiling	0.0		51.47339436470065	1.2416633261200332
4.0	30.103854345767104	pulse	0.0	t		19.0	female	white	4.298846000795861	smiling	100	sub-08	1.0	2.0	100_smiling	0.0		51.56522606639737	
4.0	30.803787514731084	pulse	0.0	t		19.0	female	white	4.298846000795861	smiling	100	sub-08	1.0	2.0	100_smiling	0.0		52.26515923536135	
4.0	31.253685970190418	fix	1.0		444	19.0	female	white	4.298846000795861	smiling	100	sub-08	1.0	2.0	100_smiling	0.0		52.715057690820686	3.7665797722311254
4.0	31.503795242257183	pulse	1.0	t		19.0	female	white	4.298846000795861	smiling	100	sub-08	1.0	2.0	100_smiling	0.0		52.96516696288745	
4.0	32.20376855813993	pulse	1.0	t		19.0	female	white	4.298846000795861	smiling	100	sub-08	1.0	2.0	100_smiling	0.0		53.665140278770195	
4.0	32.90375998541458	pulse	1.0	t		19.0	female	white	4.298846000795861	smiling	100	sub-08	1.0	2.0	100_smiling	0.0		54.36513170604485	
4.0	33.60375443125304	pulse	1.0	t		19.0	female	white	4.298846000795861	smiling	100	sub-08	1.0	2.0	100_smiling	0.0		55.065126151883305	
4.0	34.303733784267024	pulse	1.0	t		19.0	female	white	4.298846000795861	smiling	100	sub-08	1.0	2.0	100_smiling	0.0		55.76510550489729	
5.0	35.02026574242154	face	0.0		146	21.0	male	east_asian/white	3.501790688420215	smiling	036	sub-08	1.0	2.0	036_smiling	0.0		56.48163746305181	1.2333444617779605
5.0	35.00658560409829	pulse	0.0	t		21.0	male	east_asian/white	3.501790688420215	smiling	036	sub-08	1.0	2.0	036_smiling	0.0		56.46795732472856	
5.0	35.70375437088296	pulse	0.0	t		21.0	male	east_asian/white	3.501790688420215	smiling	036	sub-08	1.0	2.0	036_smiling	0.0		57.16512609151323	
5.0	36.253610204199504	fix	1.0		443	21.0	male	east_asian/white	3.501790688420215	smiling	036	sub-08	1.0	2.0	036_smiling	0.0		57.71498192482977	3.758245513205111
5.0	36.4037177254977	pulse	1.0	t		21.0	male	east_asian/white	3.501790688420215	smiling	036	sub-08	1.0	2.0	036_smiling	0.0		57.86508944612797	
5.0	37.1037037193546	pulse	1.0	t		21.0	male	east_asian/white	3.501790688420215	smiling	036	sub-08	1.0	2.0	036_smiling	0.0		58.56507543998487	
5.0	37.803680053802964	pulse	1.0	t		21.0	male	east_asian/white	3.501790688420215	smiling	036	sub-08	1.0	2.0	036_smiling	0.0		59.26505177443323	
5.0	38.50367751820704	pulse	1.0	t		21.0	male	east_asian/white	3.501790688420215	smiling	036	sub-08	1.0	2.0	036_smiling	0.0		59.96504923883731	
5.0	39.203665323204405	pulse	1.0	t		21.0	male	east_asian/white	3.501790688420215	smiling	036	sub-08	1.0	2.0	036_smiling	0.0		60.66503704383467	
5.0	39.903649807776674	pulse	1.0	t		21.0	male	east_asian/white	3.501790688420215	smiling	036	sub-08	1.0	2.0	036_smiling	0.0		61.36502152840694	
6.0	40.011855717404615	face	0.0		147	20.0	male	black	3.1070433744528456	neutral	082	sub-08	1.0	2.0	082_neutral	0.0		61.47322743803488	1.2416757022383536
6.0	40.60365149817335	pulse	0.0	t		20.0	male	black	3.1070433744528456	neutral	082	sub-08	1.0	2.0	082_neutral	0.0		62.06502321880362	
6.0	41.25353141964297	fix	1.0		444	20.0	male	black	3.1070433744528456	neutral	082	sub-08	1.0	2.0	082_neutral	0.0		62.714903140273236	3.7665981854806887
6.0	41.3036377938879	pulse	1.0	t		20.0	male	black	3.1070433744528456	neutral	082	sub-08	1.0	2.0	082_neutral	0.0		62.76500951451817	
6.0	42.00362590073928	pulse	1.0	t		20.0	male	black	3.1070433744528456	neutral	082	sub-08	1.0	2.0	082_neutral	0.0		63.46499762136955	
6.0	42.70361581873112	pulse	1.0	t		20.0	male	black	3.1070433744528456	neutral	082	sub-08	1.0	2.0	082_neutral	0.0		64.16498753936139	
6.0	43.403606340436454	pulse	1.0	t		20.0	male	black	3.1070433744528456	neutral	082	sub-08	1.0	2.0	082_neutral	0.0		64.86497806106672	
6.0	44.1036013899884	pulse	1.0	t		20.0	male	black	3.1070433744528456	neutral	082	sub-08	1.0	2.0	082_neutral	0.0		65.56497311061867	
6.0	44.80358345971035	pulse	1.0	t		20.0	male	black	3.1070433744528456	neutral	082	sub-08	1.0	2.0	082_neutral	0.0		66.26495518034062	
7.0	45.02012960512366	face	0.0		145	22.0	female	white	4.614007162753682	smiling	009	sub-08	1.0	2.0	009_smiling	1.0	attractiveness	66.48150132575392	1.233327557811208
7.0	45.503582735254895	pulse	0.0	t		22.0	female	white	4.614007162753682	smiling	009	sub-08	1.0	2.0	009_smiling	1.0	attractiveness	66.96495445588516	
7.0	46.20356631425966	pulse	0.0	t		22.0	female	white	4.614007162753682	smiling	009	sub-08	1.0	2.0	009_smiling	1.0	attractiveness	67.66493803488993	
7.0	46.253457162934865	fix	1.0		177	22.0	female	white	4.614007162753682	smiling	009	sub-08	1.0	2.0	009_smiling	1.0	attractiveness	67.71482888356513	1.4999785681848152
7.0	46.90355593039385	pulse	1.0	t		22.0	female	white	4.614007162753682	smiling	009	sub-08	1.0	2.0	009_smiling	1.0	attractiveness	68.36492765102412	
7.0	47.60353830197164	pulse	1.0	t		22.0	female	white	4.614007162753682	smiling	009	sub-08	1.0	2.0	009_smiling	1.0	attractiveness	69.06491002260191	
7.0	47.75343573111968	rating	2.0		295	22.0	female	white	4.614007162753682	smiling	009	sub-08	1.0	2.0	009_smiling	1.0	attractiveness	69.21480745174995	2.499961966077535
7.0	48.30353757751618	pulse	2.0	t		22.0	female	white	4.614007162753682	smiling	009	sub-08	1.0	2.0	009_smiling	1.0	attractiveness	69.76490929814645	
7.0	49.003519647238136	pulse	2.0	t		22.0	female	white	4.614007162753682	smiling	009	sub-08	1.0	2.0	009_smiling	1.0	attractiveness	70.4648913678684	
7.0	49.6285099878296	response	2.0	y		22.0	female	white	4.614007162753682	smiling	009	sub-08	1.0	2.0	009_smiling	1.0	attractiveness	71.08988170845987	
7.0	49.70350775409133	pulse	2.0	t		22.0	female	white	4.614007162753682	smiling	009	sub-08	1.0	2.0	009_smiling	1.0	attractiveness	71.1648794747216	
7.0	50.253397697197215	fix	3.0		443	22.0	female	white	4.614007162753682	smiling	009	sub-08	1.0	2.0	009_smiling	1.0	attractiveness	71.71476941782748	3.766599996619334
7.0	50.40349706836969	pulse	3.0	t		22.0	female	white	4.614007162753682	smiling	009	sub-08	1.0	2.0	009_smiling	1.0	attractiveness	71.86486878899996	
7.0	51.103490004925334	pulse	3.0	t		22.0	female	white	4.614007162753682	smiling	009	sub-08	1.0	2.0	009_smiling	1.0	attractiveness	72.5648617255556	
7.0	51.80345335954189	pulse	3.0	t		22.0	female	white	4.614007162753682	smiling	009	sub-08	1.0	2.0	009_smiling	1.0	attractiveness	73.26482508017216	
7.0	52.503462898208454	pulse	3.0	t		22.0	female	white	4.614007162753682	smiling	009	sub-08	1.0	2.0	009_smiling	1.0	attractiveness	73.96483461883872	
7.0	53.20345583476592	pulse	3.0	t		22.0	female	white	4.614007162753682	smiling	009	sub-08	1.0	2.0	009_smiling	1.0	attractiveness	74.66482755539619	
7.0	53.90346899571159	pulse	3.0	t		22.0	female	white	4.614007162753682	smiling	009	sub-08	1.0	2.0	009_smiling	1.0	attractiveness	75.36484071634186	
8.0	54.01999769381655	face	0.0		146	47.0	male	east_asian	2.171110226820533	smiling	024	sub-08	1.0	2.0	024_smiling	0.0		75.48136941444682	1.2333230299627758
8.0	54.60343295403982	pulse	0.0	t		47.0	male	east_asian	2.171110226820533	smiling	024	sub-08	1.0	2.0	024_smiling	0.0		76.06480467467009	
8.0	55.253320723779325	fix	1.0		443	47.0	male	east_asian	2.171110226820533	smiling	024	sub-08	1.0	2.0	024_smiling	0.0		76.7146924444096	3.766597279909547
8.0	55.3034289091629	pulse	1.0	t		47.0	male	east_asian	2.171110226820533	smiling	024	sub-08	1.0	2.0	024_smiling	0.0		76.76480062979317	
8.0	56.00342546799766	pulse	1.0	t		47.0	male	east_asian	2.171110226820533	smiling	024	sub-08	1.0	2.0	024_smiling	0.0		77.46479718862793	
8.0	56.703394557887805	pulse	1.0	t		47.0	male	east_asian	2.171110226820533	smiling	024	sub-08	1.0	2.0	024_smiling	0.0		78.16476627851807	
8.0	57.40339172043787	pulse	1.0	t		47.0	male	east_asian	2.171110226820533	smiling	024	sub-08	1.0	2.0	024_smiling	0.0		78.86476344106813	
8.0	58.10337650686779	pulse	1.0	t		47.0	male	east_asian	2.171110226820533	smiling	024	sub-08	1.0	2.0	024_smiling	0.0		79.56474822749806	
8.0	58.80336823599828	pulse	1.0	t		47.0	male	east_asian	2.171110226820533	smiling	024	sub-08	1.0	2.0	024_smiling	0.0		80.26473995662855	
9.0	59.01991800368887	face	0.0		145	40.0	male	white	1.868682849184242	neutral	172	sub-08	1.0	2.0	172_neutral	0.0		80.48128972431914	1.233312163129085
9.0	59.50337022825079	pulse	0.0	t		40.0	male	white	1.868682849184242	neutral	172	sub-08	1.0	2.0	172_neutral	0.0		80.96474194888106	
9.0	60.20335199611691	pulse	0.0	t		40.0	male	white	1.868682849184242	neutral	172	sub-08	1.0	2.0	172_neutral	0.0		81.66472371674718	
9.0	60.25323016681796	fix	1.0		445	40.0	male	white	1.868682849184242	neutral	172	sub-08	1.0	2.0	172_neutral	0.0		81.71460188744823	3.766612674593489
9.0	60.90333527326402	pulse	1.0	t		40.0	male	white	1.868682849184242	neutral	172	sub-08	1.0	2.0	172_neutral	0.0		82.36470699389429	
9.0	61.60332700239451	pulse	1.0	t		40.0	male	white	1.868682849184242	neutral	172	sub-08	1.0	2.0	172_neutral	0.0		83.06469872302478	
9.0	62.303351332031525	pulse	1.0	t		40.0	male	white	1.868682849184242	neutral	172	sub-08	1.0	2.0	172_neutral	0.0		83.7647230526618	
9.0	63.003316497788546	pulse	1.0	t		40.0	male	white	1.868682849184242	neutral	172	sub-08	1.0	2.0	172_neutral	0.0		84.46468821841881	
9.0	63.703284380251716	pulse	1.0	t		40.0	male	white	1.868682849184242	neutral	172	sub-08	1.0	2.0	172_neutral	0.0		85.16465610088198	
10.0	64.01984284141145	face	0.0		145	47.0	male	east_asian	2.171110226820533	neutral	024	sub-08	1.0	2.0	024_neutral	0.0		85.48121456204171	1.233308238992322
10.0	64.40328848550052	pulse	0.0	t		47.0	male	east_asian	2.171110226820533	neutral	024	sub-08	1.0	2.0	024_neutral	0.0		85.8646602061308	
10.0	65.10327478121326	pulse	0.0	t		47.0	male	east_asian	2.171110226820533	neutral	024	sub-08	1.0	2.0	024_neutral	0.0		86.56464650184353	
10.0	65.25315108040377	fix	1.0		444	47.0	male	east_asian	2.171110226820533	neutral	024	sub-08	1.0	2.0	024_neutral	0.0		86.71452280103404	3.7583596149761433
10.0	65.80326983076702	pulse	1.0	t		47.0	male	east_asian	2.171110226820533	neutral	024	sub-08	1.0	2.0	024_neutral	0.0		87.26464155139729	
10.0	66.50326759702875	pulse	1.0	t		47.0	male	east_asian	2.171110226820533	neutral	024	sub-08	1.0	2.0	024_neutral	0.0		87.96463931765902	
10.0	67.20324181848082	pulse	1.0	t		47.0	male	east_asian	2.171110226820533	neutral	024	sub-08	1.0	2.0	024_neutral	0.0		88.66461353911109	
10.0	67.9032226807758	pulse	1.0	t		47.0	male	east_asian	2.171110226820533	neutral	024	sub-08	1.0	2.0	024_neutral	0.0		89.36459440140607	
10.0	68.60321622104493	pulse	1.0	t		47.0	male	east_asian	2.171110226820533	neutral	024	sub-08	1.0	2.0	024_neutral	0.0		90.0645879416752	
11.0	69.01151069537991	face	0.0		146	27.0	female	white	4.181058495821727	neutral	039	sub-08	1.0	2.0	039_neutral	0.0		90.47288241601018	1.2415806174303725
11.0	69.30394749869629	pulse	0.0	t		27.0	female	white	4.181058495821727	neutral	039	sub-08	1.0	2.0	039_neutral	0.0		90.76531921932656	
11.0	70.0032039052985	pulse	0.0	t		27.0	female	white	4.181058495821727	neutral	039	sub-08	1.0	2.0	039_neutral	0.0		91.46457562592877	
11.0	70.25309131281028	fix	1.0		444	27.0	female	white	4.181058495821727	neutral	039	sub-08	1.0	2.0	039_neutral	0.0		91.71446303344055	3.7583402961572574
11.0	70.703195634429	pulse	1.0	t		27.0	female	white	4.181058495821727	neutral	039	sub-08	1.0	2.0	039_neutral	0.0		92.16456735505926	
11.0	71.40318464685151	pulse	1.0	t		27.0	female	white	4.181058495821727	neutral	039	sub-08	1.0	2.0	039_neutral	0.0		92.86455636748178	
11.0	72.10316218872504	pulse	1.0	t		27.0	female	white	4.181058495821727	neutral	039	sub-08	1.0	2.0	039_neutral	0.0		93.5645339093553	
11.0	72.80318923507184	pulse	1.0	t		27.0	female	white	4.181058495821727	neutral	039	sub-08	1.0	2.0	039_neutral	0.0		94.26456095570211	
11.0	73.50317522892692	pulse	1.0	t		27.0	female	white	4.181058495821727	neutral	039	sub-08	1.0	2.0	039_neutral	0.0		94.96454694955719	
12.0	74.01143160896754	face	0.0		146	40.0	female	west_asian	1.5777954635893354	neutral	038	sub-08	1.0	2.0	038_neutral	0.0		95.47280332959781	1.2415682413120521
12.0	74.20314220582259	pulse	0.0	t		40.0	female	west_asian	1.5777954635893354	neutral	038	sub-08	1.0	2.0	038_neutral	0.0		95.66451392645286	
12.0	74.903116125417	pulse	0.0	t		40.0	female	west_asian	1.5777954635893354	neutral	038	sub-08	1.0	2.0	038_neutral	0.0		96.36448784604727	
12.0	75.2529998502796	fix	1.0		444	40.0	female	west_asian	1.5777954635893354	neutral	038	sub-08	1.0	2.0	038_neutral	0.0		96.71437157090986	3.766612674593489
12.0	75.60311811767133	pulse	1.0	t		40.0	female	west_asian	1.5777954635893354	neutral	038	sub-08	1.0	2.0	038_neutral	0.0		97.0644898383016	
12.0	76.30310531895338	pulse	1.0	t		40.0	female	west_asian	1.5777954635893354	neutral	038	sub-08	1.0	2.0	038_neutral	0.0		97.76447703958365	
12.0	77.00309825551085	pulse	1.0	t		40.0	female	west_asian	1.5777954635893354	neutral	038	sub-08	1.0	2.0	038_neutral	0.0		98.46446997614112	
12.0	77.70308636236223	pulse	1.0	t		40.0	female	west_asian	1.5777954635893354	neutral	038	sub-08	1.0	2.0	038_neutral	0.0		99.1644580829925	
12.0	78.40306601723205	pulse	1.0	t		40.0	female	west_asian	1.5777954635893354	neutral	038	sub-08	1.0	2.0	038_neutral	0.0		99.86443773786232	
13.0	79.01961252487308	face	0.0		145	36.0	female	white	2.7548746518105847	neutral	011	sub-08	1.0	2.0	011_neutral	0.0		100.48098424550335	1.2333269540977199
13.0	79.10306770762872	pulse	0.0	t		36.0	female	white	2.7548746518105847	neutral	011	sub-08	1.0	2.0	011_neutral	0.0		100.56443942825899	
13.0	79.80304404207527	pulse	0.0	t		36.0	female	white	2.7548746518105847	neutral	011	sub-08	1.0	2.0	011_neutral	0.0		101.26441576270554	
13.0	80.2529394789708	fix	1.0		444	36.0	female	white	2.7548746518105847	neutral	011	sub-08	1.0	2.0	011_neutral	0.0		101.71431119960107	3.758255474471298
13.0	80.50304875103757	pulse	1.0	t		36.0	female	white	2.7548746518105847	neutral	011	sub-08	1.0	2.0	011_neutral	0.0		101.96442047166784	
13.0	81.20301874649886	pulse	1.0	t		36.0	female	white	2.7548746518105847	neutral	011	sub-08	1.0	2.0	011_neutral	0.0		102.66439046712912	
13.0	81.90302405917282	pulse	1.0	t		36.0	female	white	2.7548746518105847	neutral	011	sub-08	1.0	2.0	011_neutral	0.0		103.36439577980309	
13.0	82.60299888433838	pulse	1.0	t		36.0	female	white	2.7548746518105847	neutral	011	sub-08	1.0	2.0	011_neutral	0.0		104.06437060496864	
13.0	83.3029951413173	pulse	1.0	t		36.0	female	white	2.7548746518105847	neutral	011	sub-08	1.0	2.0	011_neutral	0.0		104.76436686194756	
14.0	84.0111949534421	face	0.0		147	19.0	male	white	2.243931555909272	neutral	130	sub-08	1.0	2.0	130_neutral	0.0		105.47256667407237	1.2416603075544117
14.0	84.00505005988816	pulse	0.0	t		19.0	male	white	2.243931555909272	neutral	130	sub-08	1.0	2.0	130_neutral	0.0		105.46642178051843	
14.0	84.70296199746917	pulse	0.0	t		19.0	male	white	2.243931555909272	neutral	130	sub-08	1.0	2.0	130_neutral	0.0		106.16433371809944	
14.0	85.25285526099651	fix	1.0		443	19.0	male	white	2.243931555909272	neutral	130	sub-08	1.0	2.0	130_neutral	0.0		106.71422698162678	3.766606637464065
14.0	85.402987836389	pulse	1.0	t		19.0	male	white	2.243931555909272	neutral	130	sub-08	1.0	2.0	130_neutral	0.0		106.86435955701927	
14.0	86.10293821117375	pulse	1.0	t		19.0	male	white	2.243931555909272	neutral	130	sub-08	1.0	2.0	130_neutral	0.0		107.56430993180402	
14.0	86.80297884106403	pulse	1.0	t		19.0	male	white	2.243931555909272	neutral	130	sub-08	1.0	2.0	130_neutral	0.0		108.2643505616943	
14.0	87.50293555483586	pulse	1.0	t		19.0	male	white	2.243931555909272	neutral	130	sub-08	1.0	2.0	130_neutral	0.0		108.96430727546613	
14.0	88.20301089822897	pulse	1.0	t		19.0	male	white	2.243931555909272	neutral	130	sub-08	1.0	2.0	130_neutral	0.0		109.66438261885924	
14.0	88.90291961681032	pulse	1.0	t		19.0	male	white	2.243931555909272	neutral	130	sub-08	1.0	2.0	130_neutral	0.0		110.36429133744059	
15.0	89.01946189846058	face	0.0		146	37.0	male	white	3.898925586947871	neutral	101	sub-08	1.0	2.0	101_neutral	0.0		110.48083361909084	1.233312163127266
15.0	89.60301065674321	pulse	0.0	t		37.0	male	white	3.898925586947871	neutral	101	sub-08	1.0	2.0	101_neutral	0.0		111.06438237737348	
15.0	90.25277406158784	fix	1.0		443	37.0	male	white	3.898925586947871	neutral	101	sub-08	1.0	2.0	101_neutral	0.0		111.71414578221811	3.7665915446359577
15.0	90.30288798224501	pulse	1.0	t		37.0	male	white	3.898925586947871	neutral	101	sub-08	1.0	2.0	101_neutral	0.0		111.76425970287528	
15.0	91.00289208749382	pulse	1.0	t		37.0	male	white	3.898925586947871	neutral	101	sub-08	1.0	2.0	101_neutral	0.0		112.46426380812409	
15.0	91.70287445907343	pulse	1.0	t		37.0	male	white	3.898925586947871	neutral	101	sub-08	1.0	2.0	101_neutral	0.0		113.1642461797037	
15.0	92.4028646789211	pulse	1.0	t		37.0	male	white	3.898925586947871	neutral	101	sub-08	1.0	2.0	101_neutral	0.0		113.86423639955137	
15.0	93.10285157834733	pulse	1.0	t		37.0	male	white	3.898925586947871	neutral	101	sub-08	1.0	2.0	101_neutral	0.0		114.5642232989776	
15.0	93.80284059076985	pulse	1.0	t		37.0	male	white	3.898925586947871	neutral	101	sub-08	1.0	2.0	101_neutral	0.0		115.26421231140012	
16.0	94.0193656062238	face	0.0		145	27.0	female	white	4.181058495821727	smiling	039	sub-08	1.0	2.0	039_smiling	0.0		115.48073732685407	1.2333462729166058
16.0	94.50283594217763	pulse	0.0	t		27.0	female	white	4.181058495821727	smiling	039	sub-08	1.0	2.0	039_smiling	0.0		115.9642076628079	
16.0	95.20282042675171	pulse	0.0	t		27.0	female	white	4.181058495821727	smiling	039	sub-08	1.0	2.0	039_smiling	0.0		116.66419214738198	
16.0	95.2527118791404	fix	1.0		445	27.0	female	white	4.181058495821727	smiling	039	sub-08	1.0	2.0	039_smiling	0.0		116.71408359977067	3.7665791685194563
16.0	95.90281004288772	pulse	1.0	t		27.0	female	white	4.181058495821727	smiling	039	sub-08	1.0	2.0	039_smiling	0.0		117.36418176351799	
16.0	96.60281746855799	pulse	1.0	t		27.0	female	white	4.181058495821727	smiling	039	sub-08	1.0	2.0	039_smiling	0.0		118.06418918918826	
16.0	97.30279591600083	pulse	1.0	t		27.0	female	white	4.181058495821727	smiling	039	sub-08	1.0	2.0	039_smiling	0.0		118.7641676366311	
16.0	98.0027837209982	pulse	1.0	t		27.0	female	white	4.181058495821727	smiling	039	sub-08	1.0	2.0	039_smiling	0.0		119.46415544162846	
16.0	98.70276035730058	pulse	1.0	t		27.0	female	white	4.181058495821727	smiling	039	sub-08	1.0	2.0	039_smiling	0.0		120.16413207793084	
17.0	99.01929104765986	face	0.0		145	28.0	male	white	3.9076800636689217	neutral	033	sub-08	1.0	2.0	033_neutral	0.0		120.48066276829013	1.2333278596670425
17.0	99.40274876600961	pulse	0.0	t		28.0	male	white	3.9076800636689217	neutral	033	sub-08	1.0	2.0	033_neutral	0.0		120.86412048663988	
17.0	100.10274924898113	pulse	0.0	t		28.0	male	white	3.9076800636689217	neutral	033	sub-08	1.0	2.0	033_neutral	0.0		121.5641209696114	
17.0	100.2526189073269	fix	1.0		444	28.0	male	white	3.9076800636689217	neutral	033	sub-08	1.0	2.0	033_neutral	0.0		121.71399062795717	3.76661207088182
17.0	100.80272588528533	pulse	1.0	t		28.0	male	white	3.9076800636689217	neutral	033	sub-08	1.0	2.0	033_neutral	0.0		122.2640976059156	
17.0	101.50275172420334	pulse	1.0	t		28.0	male	white	3.9076800636689217	neutral	033	sub-08	1.0	2.0	033_neutral	0.0		122.9641234448336	
17.0	102.20272504008608	pulse	1.0	t		28.0	male	white	3.9076800636689217	neutral	033	sub-08	1.0	2.0	033_neutral	0.0		123.66409676071635	
17.0	102.90266666103162	pulse	1.0	t		28.0	male	white	3.9076800636689217	neutral	033	sub-08	1.0	2.0	033_neutral	0.0		124.36403838166189	
17.0	103.60269431109009	pulse	1.0	t		28.0	male	white	3.9076800636689217	neutral	033	sub-08	1.0	2.0	033_neutral	0.0		125.06406603172036	
18.0	104.01923097820872	face	0.0		145	27.0	male	black	3.5523278949462798	smiling	042	sub-08	1.0	2.0	042_smiling	0.0		125.480602698839	1.2333133705542423
18.0	104.30267124925194	pulse	0.0	t		27.0	male	black	3.5523278949462798	smiling	042	sub-08	1.0	2.0	042_smiling	0.0		125.76404296988221	
18.0	105.0026605635303	pulse	0.0	t		27.0	male	black	3.5523278949462798	smiling	042	sub-08	1.0	2.0	042_smiling	0.0		126.46403228416057	
18.0	105.25254434876297	fix	1.0		444	27.0	male	black	3.5523278949462798	smiling	042	sub-08	1.0	2.0	042_smiling	0.0		126.71391606939324	3.758334560881849
18.0	105.70265500936875	pulse	1.0	t		27.0	male	black	3.5523278949462798	smiling	042	sub-08	1.0	2.0	042_smiling	0.0		127.16402672999902	
18.0	106.4026470403569	pulse	1.0	t		27.0	male	black	3.5523278949462798	smiling	042	sub-08	1.0	2.0	042_smiling	0.0		127.86401876098716	
18.0	107.10264208990884	pulse	1.0	t		27.0	male	black	3.5523278949462798	smiling	042	sub-08	1.0	2.0	042_smiling	0.0		128.5640138105391	
18.0	107.80262355591731	pulse	1.0	t		27.0	male	black	3.5523278949462798	smiling	042	sub-08	1.0	2.0	042_smiling	0.0		129.26399527654758	
18.0	108.50262011475388	pulse	1.0	t		27.0	male	black	3.5523278949462798	smiling	042	sub-08	1.0	2.0	042_smiling	0.0		129.96399183538415	
19.0	109.01087890964482	face	0.0		146	34.0	male	white	2.651014723438122	smiling	121	sub-08	1.0	2.0	121_smiling	0.0		130.47225063027508	1.241603558526549
19.0	109.2026012789047	pulse	0.0	t		34.0	male	white	2.651014723438122	smiling	121	sub-08	1.0	2.0	121_smiling	0.0		130.66397299953496	
19.0	109.90259029132721	pulse	0.0	t		34.0	male	white	2.651014723438122	smiling	121	sub-08	1.0	2.0	121_smiling	0.0		131.36396201195748	
19.0	110.25248246817137	fix	1.0		444	34.0	male	white	2.651014723438122	smiling	121	sub-08	1.0	2.0	121_smiling	0.0		131.71385418880163	3.766562868266192
19.0	110.60257990746322	pulse	1.0	t		34.0	male	white	2.651014723438122	smiling	121	sub-08	1.0	2.0	121_smiling	0.0		132.0639516280935	
19.0	111.30257616444214	pulse	1.0	t		34.0	male	white	2.651014723438122	smiling	121	sub-08	1.0	2.0	121_smiling	0.0		132.7639478850724	
19.0	112.0025841938259	pulse	1.0	t		34.0	male	white	2.651014723438122	smiling	121	sub-08	1.0	2.0	121_smiling	0.0		133.46395591445616	
19.0	112.7025451335885	pulse	1.0	t		34.0	male	white	2.651014723438122	smiling	121	sub-08	1.0	2.0	121_smiling	0.0		134.16391685421877	
19.0	113.40254410727721	pulse	1.0	t		34.0	male	white	2.651014723438122	smiling	121	sub-08	1.0	2.0	121_smiling	0.0		134.86391582790748	
20.0	114.01904533643756	face	0.0		145	24.0	female	black	3.0955033824114606	neutral	099	sub-08	1.0	2.0	099_neutral	1.0	dominance	135.48041705706783	1.2333583471772727
20.0	114.10253885497332	pulse	0.0	t		24.0	female	black	3.0955033824114606	neutral	099	sub-08	1.0	2.0	099_neutral	1.0	dominance	135.5639105756036	
20.0	114.80251066157325	pulse	0.0	t		24.0	female	black	3.0955033824114606	neutral	099	sub-08	1.0	2.0	099_neutral	1.0	dominance	136.26388238220352	
20.0	115.25240368361483	fix	1.0		177	24.0	female	black	3.0955033824114606	neutral	099	sub-08	1.0	2.0	099_neutral	1.0	dominance	136.7137754042451	1.4999776626173116
20.0	115.50251537053373	pulse	1.0	t		24.0	female	black	3.0955033824114606	neutral	099	sub-08	1.0	2.0	099_neutral	1.0	dominance	136.963887091164	
20.0	116.2025010625348	pulse	1.0	t		24.0	female	black	3.0955033824114606	neutral	099	sub-08	1.0	2.0	099_neutral	1.0	dominance	137.66387278316506	
20.0	116.75238134623214	rating	2.0		295	24.0	female	black	3.0955033824114606	neutral	099	sub-08	1.0	2.0	099_neutral	1.0	dominance	138.2137530668624	2.499942949114484
20.0	116.9024864526782	pulse	2.0	t		24.0	female	black	3.0955033824114606	neutral	099	sub-08	1.0	2.0	099_neutral	1.0	dominance	138.36385817330847	
20.0	117.60248452079577	pulse	2.0	t		24.0	female	black	3.0955033824114606	neutral	099	sub-08	1.0	2.0	099_neutral	1.0	dominance	139.06385624142604	
20.0	118.30247262764897	pulse	2.0	t		24.0	female	black	3.0955033824114606	neutral	099	sub-08	1.0	2.0	099_neutral	1.0	dominance	139.76384434827924	
20.0	119.00246224378316	pulse	2.0	t		24.0	female	black	3.0955033824114606	neutral	099	sub-08	1.0	2.0	099_neutral	1.0	dominance	140.46383396441342	
20.0	119.25232429534663	fix	3.0		1183	24.0	female	black	3.0955033824114606	neutral	099	sub-08	1.0	2.0	099_neutral	1.0	dominance	140.7136960159769	10.016505213665369
20.0	119.32745336920198	response	3.0	g		24.0	female	black	3.0955033824114606	neutral	099	sub-08	1.0	2.0	099_neutral	1.0	dominance	140.78882508983224	
20.0	119.70245185991917	pulse	3.0	t		24.0	female	black	3.0955033824114606	neutral	099	sub-08	1.0	2.0	099_neutral	1.0	dominance	141.16382358054943	
20.0	120.40244147605335	pulse	3.0	t		24.0	female	black	3.0955033824114606	neutral	099	sub-08	1.0	2.0	099_neutral	1.0	dominance	141.86381319668362	
20.0	121.10242596062744	pulse	3.0	t		24.0	female	black	3.0955033824114606	neutral	099	sub-08	1.0	2.0	099_neutral	1.0	dominance	142.5637976812577	
20.0	121.80241255819783	pulse	3.0	t		24.0	female	black	3.0955033824114606	neutral	099	sub-08	1.0	2.0	099_neutral	1.0	dominance	143.2637842788281	
20.0	122.50240640032462	pulse	3.0	t		24.0	female	black	3.0955033824114606	neutral	099	sub-08	1.0	2.0	099_neutral	1.0	dominance	143.96377812095488	
20.0	123.2023872626196	pulse	3.0	t		24.0	female	black	3.0955033824114606	neutral	099	sub-08	1.0	2.0	099_neutral	1.0	dominance	144.66375898324986	
20.0	123.90237899175008	pulse	3.0	t		24.0	female	black	3.0955033824114606	neutral	099	sub-08	1.0	2.0	099_neutral	1.0	dominance	145.36375071238035	
20.0	124.60236287261068	pulse	3.0	t		24.0	female	black	3.0955033824114606	neutral	099	sub-08	1.0	2.0	099_neutral	1.0	dominance	146.06373459324095	
20.0	125.30235218688904	pulse	3.0	t		24.0	female	black	3.0955033824114606	neutral	099	sub-08	1.0	2.0	099_neutral	1.0	dominance	146.7637239075193	
20.0	126.00235116057775	pulse	3.0	t		24.0	female	black	3.0955033824114606	neutral	099	sub-08	1.0	2.0	099_neutral	1.0	dominance	147.463722881208	
20.0	126.70234138042542	pulse	3.0	t		24.0	female	black	3.0955033824114606	neutral	099	sub-08	1.0	2.0	099_neutral	1.0	dominance	148.1637131010557	
20.0	127.40235001352266	pulse	3.0	t		24.0	female	black	3.0955033824114606	neutral	099	sub-08	1.0	2.0	099_neutral	1.0	dominance	148.86372173415293	
20.0	128.10232151826494	pulse	3.0	t		24.0	female	black	3.0955033824114606	neutral	099	sub-08	1.0	2.0	099_neutral	1.0	dominance	149.5636932388952	
20.0	128.56063965815338	response	3.0	g		24.0	female	black	3.0955033824114606	neutral	099	sub-08	1.0	2.0	099_neutral	1.0	dominance	150.02201137878365	
20.0	128.80230117313477	pulse	3.0	t		24.0	female	black	3.0955033824114606	neutral	099	sub-08	1.0	2.0	099_neutral	1.0	dominance	150.26367289376503	
21.0	129.268829509012	face	0.0		145	31.0	male	west_asian	1.9538400318344609	smiling	070	sub-08	1.0	2.0	070_smiling	1.0	trustworthiness	150.73020122964226	1.233348084055251
21.0	129.50229229855358	pulse	0.0	t		31.0	male	west_asian	1.9538400318344609	smiling	070	sub-08	1.0	2.0	070_smiling	1.0	trustworthiness	150.96366401918385	
21.0	130.2023296080206	pulse	0.0	t		31.0	male	west_asian	1.9538400318344609	smiling	070	sub-08	1.0	2.0	070_smiling	1.0	trustworthiness	151.66370132865086	
21.0	130.50217759306724	fix	1.0		177	31.0	male	west_asian	1.9538400318344609	smiling	070	sub-08	1.0	2.0	070_smiling	1.0	trustworthiness	151.9635493136975	1.4999631735026924
21.0	130.90228119023232	pulse	1.0	t		31.0	male	west_asian	1.9538400318344609	smiling	070	sub-08	1.0	2.0	070_smiling	1.0	trustworthiness	152.36365291086258	
21.0	131.60226869337203	pulse	1.0	t		31.0	male	west_asian	1.9538400318344609	smiling	070	sub-08	1.0	2.0	070_smiling	1.0	trustworthiness	153.0636404140023	
21.0	132.00214076656994	rating	2.0		294	31.0	male	west_asian	1.9538400318344609	smiling	070	sub-08	1.0	2.0	070_smiling	1.0	trustworthiness	153.4635124872002	2.49997464405169
21.0	132.29707633831094	pulse	2.0	t		31.0	male	west_asian	1.9538400318344609	smiling	070	sub-08	1.0	2.0	070_smiling	1.0	trustworthiness	153.7584480589412	
21.0	132.99707953799043	pulse	2.0	t		31.0	male	west_asian	1.9538400318344609	smiling	070	sub-08	1.0	2.0	070_smiling	1.0	trustworthiness	154.4584512586207	
21.0	133.70223723992058	pulse	2.0	t		31.0	male	west_asian	1.9538400318344609	smiling	070	sub-08	1.0	2.0	070_smiling	1.0	trustworthiness	155.16360896055085	
21.0	134.11055405163825	response	2.0	b		31.0	male	west_asian	1.9538400318344609	smiling	070	sub-08	1.0	2.0	070_smiling	1.0	trustworthiness	155.57192577226851	
21.0	134.40220300938927	pulse	2.0	t		31.0	male	west_asian	1.9538400318344609	smiling	070	sub-08	1.0	2.0	070_smiling	1.0	trustworthiness	155.86357473001954	
21.0	134.50211541062163	fix	3.0		444	31.0	male	west_asian	1.9538400318344609	smiling	070	sub-08	1.0	2.0	070_smiling	1.0	trustworthiness	155.9634871312519	3.7582983380980295
21.0	135.10221556662145	pulse	3.0	t		31.0	male	west_asian	1.9538400318344609	smiling	070	sub-08	1.0	2.0	070_smiling	1.0	trustworthiness	156.56358728725172	
21.0	135.802191901068	pulse	3.0	t		31.0	male	west_asian	1.9538400318344609	smiling	070	sub-08	1.0	2.0	070_smiling	1.0	trustworthiness	157.26356362169827	
21.0	136.502205967583	pulse	3.0	t		31.0	male	west_asian	1.9538400318344609	smiling	070	sub-08	1.0	2.0	070_smiling	1.0	trustworthiness	157.96357768821326	
21.0	137.20218320759886	pulse	3.0	t		31.0	male	west_asian	1.9538400318344609	smiling	070	sub-08	1.0	2.0	070_smiling	1.0	trustworthiness	158.66355492822913	
21.0	137.90216950331342	pulse	3.0	t		31.0	male	west_asian	1.9538400318344609	smiling	070	sub-08	1.0	2.0	070_smiling	1.0	trustworthiness	159.36354122394368	
22.0	138.26041374871966	face	0.0		146	22.0	female	west_asian	3.8205332272184642	neutral	066	sub-08	1.0	2.0	066_neutral	0.0		159.72178546934992	1.2416222736319469
22.0	138.60216545843468	pulse	0.0	t		22.0	female	west_asian	3.8205332272184642	neutral	066	sub-08	1.0	2.0	066_neutral	0.0		160.06353717906495	
22.0	139.30214058545607	pulse	0.0	t		22.0	female	west_asian	3.8205332272184642	neutral	066	sub-08	1.0	2.0	066_neutral	0.0		160.76351230608634	
22.0	139.5020360223516	fix	1.0		444	22.0	female	west_asian	3.8205332272184642	neutral	066	sub-08	1.0	2.0	066_neutral	0.0		160.96340774298187	3.7582877731201734
22.0	140.00214378513556	pulse	1.0	t		22.0	female	west_asian	3.8205332272184642	neutral	066	sub-08	1.0	2.0	066_neutral	0.0		161.46351550576583	
22.0	140.70217415190382	pulse	1.0	t		22.0	female	west_asian	3.8205332272184642	neutral	066	sub-08	1.0	2.0	066_neutral	0.0		162.1635458725341	
22.0	141.40210762272181	pulse	1.0	t		22.0	female	west_asian	3.8205332272184642	neutral	066	sub-08	1.0	2.0	066_neutral	0.0		162.86347934335208	
22.0	142.102107200124	pulse	1.0	t		22.0	female	west_asian	3.8205332272184642	neutral	066	sub-08	1.0	2.0	066_neutral	0.0		163.56347892075428	
22.0	142.8020968162582	pulse	1.0	t		22.0	female	west_asian	3.8205332272184642	neutral	066	sub-08	1.0	2.0	066_neutral	0.0		164.26346853688847	
23.0	143.26032379547178	face	0.0		146	19.0	male	white	2.243931555909272	smiling	130	sub-08	1.0	2.0	130_smiling	0.0		164.72169551610205	1.2416400831662031
23.0	143.5020900546715	pulse	0.0	t		19.0	male	white	2.243931555909272	smiling	130	sub-08	1.0	2.0	130_smiling	0.0		164.96346177530177	
23.0	144.20207635038423	pulse	0.0	t		19.0	male	white	2.243931555909272	smiling	130	sub-08	1.0	2.0	130_smiling	0.0		165.6634480710145	
23.0	144.50196387863798	fix	1.0		444	19.0	male	white	2.243931555909272	smiling	130	sub-08	1.0	2.0	130_smiling	0.0		165.96333559926825	3.75834995556761
23.0	144.90205751453686	pulse	1.0	t		19.0	male	white	2.243931555909272	smiling	130	sub-08	1.0	2.0	130_smiling	0.0		166.36342923516713	
23.0	145.60205769565073	pulse	1.0	t		19.0	male	white	2.243931555909272	smiling	130	sub-08	1.0	2.0	130_smiling	0.0		167.063429416281	
23.0	146.30204308579414	pulse	1.0	t		19.0	male	white	2.243931555909272	smiling	130	sub-08	1.0	2.0	130_smiling	0.0		167.7634148064244	
23.0	147.00203843720374	pulse	1.0	t		19.0	male	white	2.243931555909272	smiling	130	sub-08	1.0	2.0	130_smiling	0.0		168.463410157834	
23.0	147.70202231806434	pulse	1.0	t		19.0	male	white	2.243931555909272	smiling	130	sub-08	1.0	2.0	130_smiling	0.0		169.1633940386946	
24.0	148.2603138342056	face	0.0		146	37.0	male	white	3.898925586947871	smiling	101	sub-08	1.0	2.0	101_smiling	0.0		169.72168555483586	1.2415745802991296
24.0	148.40201555647764	pulse	0.0	t		37.0	male	white	3.898925586947871	smiling	101	sub-08	1.0	2.0	101_smiling	0.0		169.8633872771079	
24.0	149.1019940039223	pulse	0.0	t		37.0	male	white	3.898925586947871	smiling	101	sub-08	1.0	2.0	101_smiling	0.0		170.56336572455257	
24.0	149.50188841450472	fix	1.0		444	37.0	male	white	3.898925586947871	smiling	101	sub-08	1.0	2.0	101_smiling	0.0		170.963260135135	3.7665948650574137
24.0	149.80199207203987	pulse	1.0	t		37.0	male	white	3.898925586947871	smiling	101	sub-08	1.0	2.0	101_smiling	0.0		171.26336379267013	
24.0	150.50196870834407	pulse	1.0	t		37.0	male	white	3.898925586947871	smiling	101	sub-08	1.0	2.0	101_smiling	0.0		171.96334042897433	
24.0	151.201964965323	pulse	1.0	t		37.0	male	white	3.898925586947871	smiling	101	sub-08	1.0	2.0	101_smiling	0.0		172.66333668595325	
24.0	151.90194522390448	pulse	1.0	t		37.0	male	white	3.898925586947871	smiling	101	sub-08	1.0	2.0	101_smiling	0.0		173.36331694453474	
24.0	152.60195415885755	pulse	1.0	t		37.0	male	white	3.898925586947871	smiling	101	sub-08	1.0	2.0	101_smiling	0.0		174.06332587948782	
25.0	153.26848327956213	face	0.0		145	21.0	male	black	2.969757262236371	smiling	137	sub-08	1.0	2.0	137_smiling	0.0		174.7298550001924	1.2333254448167281
25.0	153.3019289840231	pulse	0.0	t		21.0	male	black	2.969757262236371	smiling	137	sub-08	1.0	2.0	137_smiling	0.0		174.76330070465337	
25.0	154.00190863889293	pulse	0.0	t		21.0	male	black	2.969757262236371	smiling	137	sub-08	1.0	2.0	137_smiling	0.0		175.4632803595232	
25.0	154.50180872437886	fix	1.0		443	21.0	male	black	2.969757262236371	smiling	137	sub-08	1.0	2.0	137_smiling	0.0		175.96318044500913	3.758252757759692
25.0	154.7019118385724	pulse	1.0	t		21.0	male	black	2.969757262236371	smiling	137	sub-08	1.0	2.0	137_smiling	0.0		176.16328355920268	
25.0	155.4018948138637	pulse	1.0	t		21.0	male	black	2.969757262236371	smiling	137	sub-08	1.0	2.0	137_smiling	0.0		176.86326653449396	
25.0	156.10188231700158	pulse	1.0	t		21.0	male	black	2.969757262236371	smiling	137	sub-08	1.0	2.0	137_smiling	0.0		177.56325403763185	
25.0	156.801879177694	pulse	1.0	t		21.0	male	black	2.969757262236371	smiling	137	sub-08	1.0	2.0	137_smiling	0.0		178.26325089832426	
25.0	157.5018733216766	pulse	1.0	t		21.0	male	black	2.969757262236371	smiling	137	sub-08	1.0	2.0	137_smiling	0.0		178.96324504230688	
25.0	158.2018505616943	pulse	1.0	t		21.0	male	black	2.969757262236371	smiling	137	sub-08	1.0	2.0	137_smiling	0.0		179.66322228232457	
26.0	158.26006148213855	face	0.0		147	27.0	female	white	3.504576203740549	smiling	144	sub-08	1.0	2.0	144_smiling	0.0		179.72143320276882	1.2416732873880392
26.0	158.90185798736456	pulse	0.0	t		27.0	female	white	3.504576203740549	smiling	144	sub-08	1.0	2.0	144_smiling	0.0		180.36322970799483	
26.0	159.5017347695266	fix	1.0		443	27.0	female	white	3.504576203740549	smiling	144	sub-08	1.0	2.0	144_smiling	0.0		180.96310649015686	3.7583348627395026
26.0	159.60183945337303	pulse	1.0	t		27.0	female	white	3.504576203740549	smiling	144	sub-08	1.0	2.0	144_smiling	0.0		181.0632111740033	
26.0	160.30182635279925	pulse	1.0	t		27.0	female	white	3.504576203740549	smiling	144	sub-08	1.0	2.0	144_smiling	0.0		181.76319807342952	
26.0	161.0018183837874	pulse	1.0	t		27.0	female	white	3.504576203740549	smiling	144	sub-08	1.0	2.0	144_smiling	0.0		182.46319010441766	
26.0	161.70180045350935	pulse	1.0	t		27.0	female	white	3.504576203740549	smiling	144	sub-08	1.0	2.0	144_smiling	0.0		183.16317217413962	
26.0	162.40179248449567	pulse	1.0	t		27.0	female	white	3.504576203740549	smiling	144	sub-08	1.0	2.0	144_smiling	0.0		183.86316420512594	
26.0	163.10179266560954	pulse	1.0	t		27.0	female	white	3.504576203740549	smiling	144	sub-08	1.0	2.0	144_smiling	0.0		184.5631643862398	
27.0	163.2600696322661	face	0.0		147	24.0	female	east_asian	4.409868682849185	neutral	030	sub-08	1.0	2.0	030_neutral	0.0		184.72144135289636	1.2415893712695834
27.0	163.80178137617622	pulse	0.0	t		24.0	female	east_asian	4.409868682849185	neutral	030	sub-08	1.0	2.0	030_neutral	0.0		185.2631530968065	
27.0	164.50165900353568	fix	1.0		444	24.0	female	east_asian	4.409868682849185	neutral	030	sub-08	1.0	2.0	030_neutral	0.0		185.96303072416595	3.7583055826544296
27.0	164.50918368332532	pulse	1.0	t		24.0	female	east_asian	4.409868682849185	neutral	030	sub-08	1.0	2.0	030_neutral	0.0		185.9705554039556	
27.0	165.2017467230453	pulse	1.0	t		24.0	female	east_asian	4.409868682849185	neutral	030	sub-08	1.0	2.0	030_neutral	0.0		186.66311844367556	
27.0	165.90173633917948	pulse	1.0	t		24.0	female	east_asian	4.409868682849185	neutral	030	sub-08	1.0	2.0	030_neutral	0.0		187.36310805980975	
27.0	166.60173380358538	pulse	1.0	t		24.0	female	east_asian	4.409868682849185	neutral	030	sub-08	1.0	2.0	030_neutral	0.0		188.06310552421564	
27.0	167.30171104360306	pulse	1.0	t		24.0	female	east_asian	4.409868682849185	neutral	030	sub-08	1.0	2.0	030_neutral	0.0		188.76308276423333	
27.0	168.00172993982233	pulse	1.0	t		24.0	female	east_asian	4.409868682849185	neutral	030	sub-08	1.0	2.0	030_neutral	0.0		189.4631016604526	
28.0	168.2599645861901	face	0.0		146	19.0	female	white	4.298846000795861	neutral	100	sub-08	1.0	2.0	100_neutral	1.0	dominance	189.72133630682038	1.2416340460367792
28.0	168.7016942000082	pulse	0.0	t		19.0	female	white	4.298846000795861	neutral	100	sub-08	1.0	2.0	100_neutral	1.0	dominance	190.16306592063847	
28.0	169.40170826652138	pulse	0.0	t		19.0	female	white	4.298846000795861	neutral	100	sub-08	1.0	2.0	100_neutral	1.0	dominance	190.86307998715165	
28.0	169.5015986322269	fix	1.0		177	19.0	female	white	4.298846000795861	neutral	100	sub-08	1.0	2.0	100_neutral	1.0	dominance	190.96297035285716	1.4999586456542602
28.0	170.1016604524466	pulse	1.0	t		19.0	female	white	4.298846000795861	neutral	100	sub-08	1.0	2.0	100_neutral	1.0	dominance	191.56303217307686	
28.0	170.80164825744214	pulse	1.0	t		19.0	female	white	4.298846000795861	neutral	100	sub-08	1.0	2.0	100_neutral	1.0	dominance	192.2630199780724	
28.0	171.00155727788115	rating	2.0		296	19.0	female	white	4.298846000795861	neutral	100	sub-08	1.0	2.0	100_neutral	1.0	dominance	192.46292899851142	2.499964682785503
28.0	171.49637077883744	pulse	2.0	t		19.0	female	white	4.298846000795861	neutral	100	sub-08	1.0	2.0	100_neutral	1.0	dominance	192.9577424994677	
28.0	172.19655569615315	pulse	2.0	t		19.0	female	white	4.298846000795861	neutral	100	sub-08	1.0	2.0	100_neutral	1.0	dominance	193.65792741678342	
28.0	172.89641762697283	pulse	2.0	t		19.0	female	white	4.298846000795861	neutral	100	sub-08	1.0	2.0	100_neutral	1.0	dominance	194.3577893476031	
28.0	173.50152196066665	fix	3.0		441	19.0	female	white	4.298846000795861	neutral	100	sub-08	1.0	2.0	100_neutral	1.0	dominance	194.96289368129692	3.7583807449336746
28.0	173.6016375113486	pulse	3.0	t		19.0	female	white	4.298846000795861	neutral	100	sub-08	1.0	2.0	100_neutral	1.0	dominance	195.06300923197887	
28.0	174.3016162606491	pulse	3.0	t		19.0	female	white	4.298846000795861	neutral	100	sub-08	1.0	2.0	100_neutral	1.0	dominance	195.76298798127937	
28.0	175.0016073860661	pulse	3.0	t		19.0	female	white	4.298846000795861	neutral	100	sub-08	1.0	2.0	100_neutral	1.0	dominance	196.46297910669637	
28.0	175.70157798524087	pulse	3.0	t		19.0	female	white	4.298846000795861	neutral	100	sub-08	1.0	2.0	100_neutral	1.0	dominance	197.16294970587114	
28.0	176.38488036821582	response	3.0	n		19.0	female	white	4.298846000795861	neutral	100	sub-08	1.0	2.0	100_neutral	1.0	dominance	197.8462520888461	
28.0	176.40157243107933	pulse	3.0	t		19.0	female	white	4.298846000795861	neutral	100	sub-08	1.0	2.0	100_neutral	1.0	dominance	197.8629441517096	
28.0	177.10156114164602	pulse	3.0	t		19.0	female	white	4.298846000795861	neutral	100	sub-08	1.0	2.0	100_neutral	1.0	dominance	198.56293286227628	
28.0	177.226552387805	response	3.0	n		19.0	female	white	4.298846000795861	neutral	100	sub-08	1.0	2.0	100_neutral	1.0	dominance	198.68792410843525	
29.0	177.25990270560033	face	0.0		147	25.0	female	west_asian	2.6756864305610826	smiling	064	sub-08	1.0	2.0	064_smiling	0.0		198.7212744262306	1.2415296036742802
29.0	177.80154502250662	pulse	0.0	t		25.0	female	west_asian	2.6756864305610826	smiling	064	sub-08	1.0	2.0	064_smiling	0.0		199.26291674313688	
29.0	178.5014323092746	fix	1.0		443	25.0	female	west_asian	2.6756864305610826	smiling	064	sub-08	1.0	2.0	064_smiling	0.0		199.96280402990487	3.7584027804605284
29.0	178.50909674864306	pulse	1.0	t		25.0	female	west_asian	2.6756864305610826	smiling	064	sub-08	1.0	2.0	064_smiling	0.0		199.97046846927333	
29.0	179.20154387545153	pulse	1.0	t		25.0	female	west_asian	2.6756864305610826	smiling	064	sub-08	1.0	2.0	064_smiling	0.0		200.6629155960818	
29.0	179.90152624702932	pulse	1.0	t		25.0	female	west_asian	2.6756864305610826	smiling	064	sub-08	1.0	2.0	064_smiling	0.0		201.3628979676596	
29.0	180.6015119390304	pulse	1.0	t		25.0	female	west_asian	2.6756864305610826	smiling	064	sub-08	1.0	2.0	064_smiling	0.0		202.06288365966066	
29.0	180.92650004588177	response	1.0	n		25.0	female	west_asian	2.6756864305610826	smiling	064	sub-08	1.0	2.0	064_smiling	0.0		202.38787176651203	
29.0	181.30148465119782	pulse	1.0	t		25.0	female	west_asian	2.6756864305610826	smiling	064	sub-08	1.0	2.0	064_smiling	0.0		202.7628563718281	
29.0	182.0015035474171	pulse	1.0	t		25.0	female	west_asian	2.6756864305610826	smiling	064	sub-08	1.0	2.0	064_smiling	0.0		203.46287526804736	
30.0	182.25983508973513	face	0.0		146	19.0	male	white	3.2522881018702745	neutral	018	sub-08	1.0	2.0	018_neutral	0.0		203.7212068103654	1.2415320185264136
30.0	182.70155474228704	pulse	0.0	t		19.0	male	white	3.2522881018702745	neutral	018	sub-08	1.0	2.0	018_neutral	0.0		204.1629264629173	
30.0	183.40147251656526	pulse	0.0	t		19.0	male	white	3.2522881018702745	neutral	018	sub-08	1.0	2.0	018_neutral	0.0		204.86284423719553	
30.0	183.50136710826155	fix	1.0		444	19.0	male	white	3.2522881018702745	neutral	018	sub-08	1.0	2.0	018_neutral	0.0		204.96273882889182	3.758263926454674
30.0	184.10145941599149	pulse	1.0	t		19.0	male	white	3.2522881018702745	neutral	018	sub-08	1.0	2.0	018_neutral	0.0		205.56283113662175	
30.0	184.8014541636876	pulse	1.0	t		19.0	male	white	3.2522881018702745	neutral	018	sub-08	1.0	2.0	018_neutral	0.0		206.26282588431786	
30.0	185.50144860952787	pulse	1.0	t		19.0	male	white	3.2522881018702745	neutral	018	sub-08	1.0	2.0	018_neutral	0.0		206.96282033015814	
30.0	186.20147324102072	pulse	1.0	t		19.0	male	white	3.2522881018702745	neutral	018	sub-08	1.0	2.0	018_neutral	0.0		207.662844961651	
30.0	186.90142633251526	pulse	1.0	t		19.0	male	white	3.2522881018702745	neutral	018	sub-08	1.0	2.0	018_neutral	0.0		208.36279805314553	
31.0	187.25963103471622	face	0.0		145	23.0	male	white	2.6275368085953046	neutral	141	sub-08	1.0	2.0	141_neutral	0.0		208.7210027553465	1.2416597038427426
31.0	187.59307082278792	response	0.0	b		23.0	male	white	2.6275368085953046	neutral	141	sub-08	1.0	2.0	141_neutral	0.0		209.0544425434182	
31.0	187.60071866004728	pulse	0.0	t		23.0	male	white	2.6275368085953046	neutral	141	sub-08	1.0	2.0	141_neutral	0.0		209.06209038067755	
31.0	188.3013777939832	pulse	0.0	t		23.0	male	white	2.6275368085953046	neutral	141	sub-08	1.0	2.0	141_neutral	0.0		209.76274951461346	
31.0	188.50129073855896	fix	1.0		444	23.0	male	white	2.6275368085953046	neutral	141	sub-08	1.0	2.0	141_neutral	0.0		209.96266245918923	3.766595468770902
31.0	189.00139638834662	pulse	1.0	t		23.0	male	white	2.6275368085953046	neutral	141	sub-08	1.0	2.0	141_neutral	0.0		210.4627681089769	
31.0	189.7015046341021	pulse	1.0	t		23.0	male	white	2.6275368085953046	neutral	141	sub-08	1.0	2.0	141_neutral	0.0		211.16287635473236	
31.0	190.40212996010632	pulse	1.0	t		23.0	male	white	2.6275368085953046	neutral	141	sub-08	1.0	2.0	141_neutral	0.0		211.8635016807366	
31.0	191.10135406805966	pulse	1.0	t		23.0	male	white	2.6275368085953046	neutral	141	sub-08	1.0	2.0	141_neutral	0.0		212.56272578868993	
31.0	191.80134368419567	pulse	1.0	t		23.0	male	white	2.6275368085953046	neutral	141	sub-08	1.0	2.0	141_neutral	0.0		213.26271540482594	
32.0	192.26788620732987	face	0.0		145	40.0	female	west_asian	1.5777954635893354	smiling	038	sub-08	1.0	2.0	038_smiling	0.0		213.72925792796013	1.2333290670940187
32.0	192.5013414504574	pulse	0.0	t		40.0	female	west_asian	1.5777954635893354	smiling	038	sub-08	1.0	2.0	038_smiling	0.0		213.96271317108767	
32.0	193.2013304628781	pulse	0.0	t		40.0	female	west_asian	1.5777954635893354	smiling	038	sub-08	1.0	2.0	038_smiling	0.0		214.66270218350837	
32.0	193.50121527442388	fix	1.0		444	40.0	female	west_asian	1.5777954635893354	smiling	038	sub-08	1.0	2.0	038_smiling	0.0		214.96258699505415	3.75825336147318
32.0	193.90130740103814	pulse	1.0	t		40.0	female	west_asian	1.5777954635893354	smiling	038	sub-08	1.0	2.0	038_smiling	0.0		215.3626791216684	
32.0	194.60130365801706	pulse	1.0	t		40.0	female	west_asian	1.5777954635893354	smiling	038	sub-08	1.0	2.0	038_smiling	0.0		216.06267537864733	
32.0	195.3012842184562	pulse	1.0	t		40.0	female	west_asian	1.5777954635893354	smiling	038	sub-08	1.0	2.0	038_smiling	0.0		216.76265593908647	
32.0	196.00127715501367	pulse	1.0	t		40.0	female	west_asian	1.5777954635893354	smiling	038	sub-08	1.0	2.0	038_smiling	0.0		217.46264887564394	
32.0	196.70126254515708	pulse	1.0	t		40.0	female	west_asian	1.5777954635893354	smiling	038	sub-08	1.0	2.0	038_smiling	0.0		218.16263426578735	
33.0	197.25946863589706	face	0.0		146	25.0	female	black	3.858336649423	smiling	126	sub-08	1.0	2.0	126_smiling	0.0		218.72084035652733	1.2416738911015273
33.0	197.4012603114188	pulse	0.0	t		25.0	female	black	3.858336649423	smiling	126	sub-08	1.0	2.0	126_smiling	0.0		218.86263203204908	
33.0	198.10125505911492	pulse	0.0	t		25.0	female	black	3.858336649423	smiling	126	sub-08	1.0	2.0	126_smiling	0.0		219.5626267797452	
33.0	198.5011425269986	fix	1.0		443	25.0	female	black	3.858336649423	smiling	126	sub-08	1.0	2.0	126_smiling	0.0		219.96251424762886	3.7582557763253135
33.0	198.80123501584058	pulse	1.0	t		25.0	female	black	3.858336649423	smiling	126	sub-08	1.0	2.0	126_smiling	0.0		220.26260673647084	
33.0	199.0178765479195	response	1.0	n		25.0	female	black	3.858336649423	smiling	126	sub-08	1.0	2.0	126_smiling	0.0		220.47924826854978	
33.0	199.50122433011893	pulse	1.0	t		25.0	female	black	3.858336649423	smiling	126	sub-08	1.0	2.0	126_smiling	0.0		220.9625960507492	
33.0	200.20122179452483	pulse	1.0	t		25.0	female	black	3.858336649423	smiling	126	sub-08	1.0	2.0	126_smiling	0.0		221.6625935151551	
33.0	200.90120295867746	pulse	1.0	t		25.0	female	black	3.858336649423	smiling	126	sub-08	1.0	2.0	126_smiling	0.0		222.36257467930773	
33.0	201.60119921565638	pulse	1.0	t		25.0	female	black	3.858336649423	smiling	126	sub-08	1.0	2.0	126_smiling	0.0		223.06257093628665	
34.0	202.2593983033239	face	0.0		146	28.0	female	white	5.676880222841227	smiling	124	sub-08	1.0	2.0	124_smiling	0.0		223.72077002395417	1.2416482332937449
34.0	202.3011939633525	pulse	0.0	t		28.0	female	white	5.676880222841227	smiling	124	sub-08	1.0	2.0	124_smiling	0.0		223.76256568398276	
34.0	203.00118146649038	pulse	0.0	t		28.0	female	white	5.676880222841227	smiling	124	sub-08	1.0	2.0	124_smiling	0.0		224.46255318712065	
34.0	203.50104653661765	fix	1.0		442	28.0	female	white	5.676880222841227	smiling	124	sub-08	1.0	2.0	124_smiling	0.0		224.96241825724792	3.7583303348928894
34.0	203.7011813457484	pulse	1.0	t		28.0	female	white	5.676880222841227	smiling	124	sub-08	1.0	2.0	124_smiling	0.0		225.16255306637868	
34.0	204.40115828390844	pulse	1.0	t		28.0	female	white	5.676880222841227	smiling	124	sub-08	1.0	2.0	124_smiling	0.0		225.8625300045387	
34.0	205.10113763692243	pulse	1.0	t		28.0	female	white	5.676880222841227	smiling	124	sub-08	1.0	2.0	124_smiling	0.0		226.5625093575527	
34.0	205.46779069992044	response	1.0	r		28.0	female	white	5.676880222841227	smiling	124	sub-08	1.0	2.0	124_smiling	0.0		226.9291624205507	
34.0	205.80113811989213	pulse	1.0	t		28.0	female	white	5.676880222841227	smiling	124	sub-08	1.0	2.0	124_smiling	0.0		227.2625098405224	
34.0	206.50112592488767	pulse	1.0	t		28.0	female	white	5.676880222841227	smiling	124	sub-08	1.0	2.0	124_smiling	0.0		227.96249764551794	
34.0	207.20115297123448	pulse	1.0	t		28.0	female	white	5.676880222841227	smiling	124	sub-08	1.0	2.0	124_smiling	0.0		228.66252469186475	
35.0	207.25937687151054	face	0.0		147	28.0	male	east_asian	1.5563072025467568	neutral	005	sub-08	1.0	2.0	005_neutral	0.0		228.7207485921408	1.241596917681818
35.0	207.90110485530204	pulse	0.0	t		28.0	male	east_asian	1.5563072025467568	neutral	005	sub-08	1.0	2.0	005_neutral	0.0		229.3624765759323	
35.0	208.50097378919236	fix	1.0		442	28.0	male	east_asian	1.5563072025467568	neutral	005	sub-08	1.0	2.0	005_neutral	0.0		229.96234550982263	3.766589431641478
35.0	208.60126200181548	pulse	1.0	t		28.0	male	east_asian	1.5563072025467568	neutral	005	sub-08	1.0	2.0	005_neutral	0.0		230.06263372244575	
35.0	208.98441846734204	response	1.0	b		28.0	male	east_asian	1.5563072025467568	neutral	005	sub-08	1.0	2.0	005_neutral	0.0		230.4457901879723	
35.0	209.3010702021711	pulse	1.0	t		28.0	male	east_asian	1.5563072025467568	neutral	005	sub-08	1.0	2.0	005_neutral	0.0		230.76244192280137	
35.0	210.0010619313016	pulse	1.0	t		28.0	male	east_asian	1.5563072025467568	neutral	005	sub-08	1.0	2.0	005_neutral	0.0		231.46243365193186	
35.0	210.70105849013817	pulse	1.0	t		28.0	male	east_asian	1.5563072025467568	neutral	005	sub-08	1.0	2.0	005_neutral	0.0		232.16243021076843	
35.0	211.40105082298214	pulse	1.0	t		28.0	male	east_asian	1.5563072025467568	neutral	005	sub-08	1.0	2.0	005_neutral	0.0		232.8624225436124	
35.0	212.1010301759943	pulse	1.0	t		28.0	male	east_asian	1.5563072025467568	neutral	005	sub-08	1.0	2.0	005_neutral	0.0		233.56240189662458	
36.0	212.26756322083384	face	0.0		146	20.0	male	black	2.609629924393156	smiling	043	sub-08	1.0	2.0	043_smiling	0.0		233.7289349414641	1.2333459710589523
36.0	212.801020395842	pulse	0.0	t		20.0	male	black	2.609629924393156	smiling	043	sub-08	1.0	2.0	043_smiling	0.0		234.26239211647226	
36.0	213.5009091918928	fix	1.0		444	20.0	male	black	2.609629924393156	smiling	043	sub-08	1.0	2.0	043_smiling	0.0		234.96228091252306	3.7583209773401904
36.0	213.5084429273811	pulse	1.0	t		20.0	male	black	2.609629924393156	smiling	043	sub-08	1.0	2.0	043_smiling	0.0		234.96981464801138	
36.0	214.20101290979983	pulse	1.0	t		20.0	male	black	2.609629924393156	smiling	043	sub-08	1.0	2.0	043_smiling	0.0		235.6623846304301	
36.0	214.9009943758083	pulse	1.0	t		20.0	male	black	2.609629924393156	smiling	043	sub-08	1.0	2.0	043_smiling	0.0		236.36236609643856	
36.0	215.60098338823082	pulse	1.0	t		20.0	male	black	2.609629924393156	smiling	043	sub-08	1.0	2.0	043_smiling	0.0		237.06235510886108	
36.0	216.3009736080785	pulse	1.0	t		20.0	male	black	2.609629924393156	smiling	043	sub-08	1.0	2.0	043_smiling	0.0		237.76234532870876	
36.0	217.00096594092247	pulse	1.0	t		20.0	male	black	2.609629924393156	smiling	043	sub-08	1.0	2.0	043_smiling	0.0		238.46233766155274	
37.0	217.25923016923298	face	0.0		146	31.0	female	east_asian	3.395941106247513	neutral	087	sub-08	1.0	2.0	087_neutral	0.0		238.72060188986325	1.2415887675560953
37.0	217.70094680321745	pulse	0.0	t		31.0	female	east_asian	3.395941106247513	neutral	087	sub-08	1.0	2.0	087_neutral	0.0		239.16231852384772	
37.0	218.4009324952185	pulse	0.0	t		31.0	female	east_asian	3.395941106247513	neutral	087	sub-08	1.0	2.0	087_neutral	0.0		239.86230421584878	
37.0	218.50081893678907	fix	1.0		444	31.0	female	east_asian	3.395941106247513	neutral	087	sub-08	1.0	2.0	087_neutral	0.0		239.96219065741934	3.758291395397464
37.0	219.1009248280625	pulse	1.0	t		31.0	female	east_asian	3.395941106247513	neutral	087	sub-08	1.0	2.0	087_neutral	0.0		240.56229654869276	
37.0	219.80091504791017	pulse	1.0	t		31.0	female	east_asian	3.395941106247513	neutral	087	sub-08	1.0	2.0	087_neutral	0.0		241.26228676854043	
37.0	220.50090375847503	pulse	1.0	t		31.0	female	east_asian	3.395941106247513	neutral	087	sub-08	1.0	2.0	087_neutral	0.0		241.9622754791053	
37.0	221.20100536338578	pulse	1.0	t		31.0	female	east_asian	3.395941106247513	neutral	087	sub-08	1.0	2.0	087_neutral	0.0		242.66237708401604	
37.0	221.9009705291428	pulse	1.0	t		31.0	female	east_asian	3.395941106247513	neutral	087	sub-08	1.0	2.0	087_neutral	0.0		243.36234224977306	
38.0	222.25911033218654	face	0.0		146	25.0	female	west_asian	2.6756864305610826	neutral	064	sub-08	1.0	2.0	064_neutral	0.0		243.7204820528168	1.2416464221550996
38.0	222.6009175835061	pulse	0.0	t		25.0	female	west_asian	2.6756864305610826	neutral	064	sub-08	1.0	2.0	064_neutral	0.0		244.06228930413636	
38.0	223.30086644900803	pulse	0.0	t		25.0	female	west_asian	2.6756864305610826	neutral	064	sub-08	1.0	2.0	064_neutral	0.0		244.7622381696383	
38.0	223.50075675434164	fix	1.0		444	25.0	female	west_asian	2.6756864305610826	neutral	064	sub-08	1.0	2.0	064_neutral	0.0		244.9621284749719	3.758317355061081
38.0	224.00086693197773	pulse	1.0	t		25.0	female	west_asian	2.6756864305610826	neutral	064	sub-08	1.0	2.0	064_neutral	0.0		245.462238652608	
38.0	224.7008541332616	pulse	1.0	t		25.0	female	west_asian	2.6756864305610826	neutral	064	sub-08	1.0	2.0	064_neutral	0.0		246.16222585389187	
38.0	225.4008271472867	pulse	1.0	t		25.0	female	west_asian	2.6756864305610826	neutral	064	sub-08	1.0	2.0	064_neutral	0.0		246.86219886791696	
38.0	226.10083396924347	pulse	1.0	t		25.0	female	west_asian	2.6756864305610826	neutral	064	sub-08	1.0	2.0	064_neutral	0.0		247.56220568987374	
38.0	226.8008130203998	pulse	1.0	t		25.0	female	west_asian	2.6756864305610826	neutral	064	sub-08	1.0	2.0	064_neutral	0.0		248.26218474103007	
39.0	227.25907410940272	face	0.0		146	24.0	female	east_asian	4.409868682849185	smiling	030	sub-08	1.0	2.0	030_smiling	0.0		248.720445830033	1.2416077845173277
39.0	227.5007975049739	pulse	0.0	t		24.0	female	east_asian	4.409868682849185	smiling	030	sub-08	1.0	2.0	030_smiling	0.0		248.96216922560416	
39.0	228.20079527123562	pulse	0.0	t		24.0	female	east_asian	4.409868682849185	smiling	030	sub-08	1.0	2.0	030_smiling	0.0		249.6621669918659	
39.0	228.50068189392005	fix	1.0		444	24.0	female	east_asian	4.409868682849185	smiling	030	sub-08	1.0	2.0	030_smiling	0.0		249.9620536145503	3.749943552827972
39.0	228.9007876040796	pulse	1.0	t		24.0	female	east_asian	4.409868682849185	smiling	030	sub-08	1.0	2.0	030_smiling	0.0		250.36215932470986	
39.0	229.60077027751504	pulse	1.0	t		24.0	female	east_asian	4.409868682849185	smiling	030	sub-08	1.0	2.0	030_smiling	0.0		251.0621419981453	
39.0	230.30075446023147	pulse	1.0	t		24.0	female	east_asian	4.409868682849185	smiling	030	sub-08	1.0	2.0	030_smiling	0.0		251.76212618086174	
39.0	231.00074981164107	pulse	1.0	t		24.0	female	east_asian	4.409868682849185	smiling	030	sub-08	1.0	2.0	030_smiling	0.0		252.46212153227134	
39.0	231.70074516305067	pulse	1.0	t		24.0	female	east_asian	4.409868682849185	smiling	030	sub-08	1.0	2.0	030_smiling	0.0		253.16211688368094	
40.0	232.25062544674802	fix	0.0		720													253.71199716737829	5.9999118578907655
40.0	232.4007335717597	pulse	0.0	t														253.86210529238997	
40.0	233.10070477464615	pulse	0.0	t														254.56207649527641	
40.0	233.80069650377663	pulse	0.0	t														255.2620682244069	
40.0	234.50070302387758	pulse	0.0	t														255.96207474450785	
40.0	235.20068690473818	pulse	0.0	t														256.66205862536845	
40.0	235.90067048374294	pulse	0.0	t														257.3620422043732	
40.0	236.01733803585557	response	0.0	b														257.47870975648584	
40.0	236.60064772376063	pulse	0.0	t														258.0620194443909	
40.0	237.30066541255292	pulse	0.0	t														258.7620371331832	
40.0	238.00064235071295	pulse	0.0	t														259.4620140713432	
