trial_nr	onset	event_type	phase	response	nr_frames	face_age	face_sex	face_eth	attractiveness	expression	face_id	sub_id	ses	run	trial_type	catch	rating_type	onset_abs	duration
-1.0	0.05863584787948639	fix	0.0		713													21.765562558881356	5.957895432693476
-1.0	0.7001310947525781	pulse	0.0	t														22.407057805754448	
-1.0	1.400106131510256	pulse	0.0	t														23.107032842512126	
-1.0	2.1000817719741462	pulse	0.0	t														23.807008482976016	
-1.0	2.8000749199109123	pulse	0.0	t														24.507001630912782	
-1.0	3.500050258522606	pulse	0.0	t														25.206976969524476	
-1.0	4.20001623969074	pulse	0.0	t														25.90694295069261	
-1.0	4.899999728333569	pulse	0.0	t														26.60692643933544	
-1.0	5.599982915122382	pulse	0.0	t														27.306909626124252	
0.0	6.016531280572963	face	0.0		144	28.0	male	white	3.9076800636689217	smiling	033	sub-01	2.0	3.0	033_smiling	1.0	trustworthiness	27.723457991574833	1.2333133406045818
0.0	6.2999842130902834	pulse	0.0	t		28.0	male	white	3.9076800636689217	smiling	033	sub-01	2.0	3.0	033_smiling	1.0	trustworthiness	28.006910924092153	
0.0	6.999956835023113	pulse	0.0	t		28.0	male	white	3.9076800636689217	smiling	033	sub-01	2.0	3.0	033_smiling	1.0	trustworthiness	28.706883546024983	
0.0	7.2498446211775445	fix	1.0		177	28.0	male	white	3.9076800636689217	smiling	033	sub-01	2.0	3.0	033_smiling	1.0	trustworthiness	28.956771332179414	1.5083207284551463
0.0	7.69992100507443	pulse	1.0	t		28.0	male	white	3.9076800636689217	smiling	033	sub-01	2.0	3.0	033_smiling	1.0	trustworthiness	29.4068477160763	
0.0	8.399927132690209	pulse	1.0	t		28.0	male	white	3.9076800636689217	smiling	033	sub-01	2.0	3.0	033_smiling	1.0	trustworthiness	30.10685384369208	
0.0	8.75816534963269	rating	2.0		293	28.0	male	white	3.9076800636689217	smiling	033	sub-01	2.0	3.0	033_smiling	1.0	trustworthiness	30.46509206063456	2.491573019293355
0.0	9.099908508360386	pulse	2.0	t		28.0	male	white	3.9076800636689217	smiling	033	sub-01	2.0	3.0	033_smiling	1.0	trustworthiness	30.806835219362256	
0.0	9.799891997003215	pulse	2.0	t		28.0	male	white	3.9076800636689217	smiling	033	sub-01	2.0	3.0	033_smiling	1.0	trustworthiness	31.506818708005085	
0.0	9.86653298604142	response	2.0	y		28.0	male	white	3.9076800636689217	smiling	033	sub-01	2.0	3.0	033_smiling	1.0	trustworthiness	31.57345969704329	
0.0	10.49985948743597	pulse	2.0	t		28.0	male	white	3.9076800636689217	smiling	033	sub-01	2.0	3.0	033_smiling	1.0	trustworthiness	32.20678619843784	
0.0	11.199846598314252	pulse	2.0	t		28.0	male	white	3.9076800636689217	smiling	033	sub-01	2.0	3.0	033_smiling	1.0	trustworthiness	32.90677330931612	
0.0	11.249738368926046	fix	3.0		444	28.0	male	white	3.9076800636689217	smiling	033	sub-01	2.0	3.0	033_smiling	1.0	trustworthiness	32.956665079927916	3.75822089058056
0.0	11.899824653601172	pulse	3.0	t		28.0	male	white	3.9076800636689217	smiling	033	sub-01	2.0	3.0	033_smiling	1.0	trustworthiness	33.60675136460304	
0.0	12.608149547628273	pulse	3.0	t		28.0	male	white	3.9076800636689217	smiling	033	sub-01	2.0	3.0	033_smiling	1.0	trustworthiness	34.31507625863014	
0.0	13.299790725326602	pulse	3.0	t		28.0	male	white	3.9076800636689217	smiling	033	sub-01	2.0	3.0	033_smiling	1.0	trustworthiness	35.00671743632847	
0.0	13.999757612053145	pulse	3.0	t		28.0	male	white	3.9076800636689217	smiling	033	sub-01	2.0	3.0	033_smiling	1.0	trustworthiness	35.706684323055015	
0.0	14.708074959755322	pulse	3.0	t		28.0	male	white	3.9076800636689217	smiling	033	sub-01	2.0	3.0	033_smiling	1.0	trustworthiness	36.41500167075719	
1.0	15.007959259506606	face	0.0		146	21.0	male	black	2.969757262236371	neutral	137	sub-01	2.0	3.0	137_neutral	0.0		36.714885970508476	1.2416478033701424
1.0	15.408077163283451	pulse	0.0	t		21.0	male	black	2.969757262236371	neutral	137	sub-01	2.0	3.0	137_neutral	0.0		37.11500387428532	
1.0	16.09971290762587	pulse	0.0	t		21.0	male	black	2.969757262236371	neutral	137	sub-01	2.0	3.0	137_neutral	0.0		37.80663961862774	
1.0	16.24960706287675	fix	1.0		445	21.0	male	black	2.969757262236371	neutral	137	sub-01	2.0	3.0	137_neutral	0.0		37.95653377387862	3.7665526366708946
1.0	16.808040820184033	pulse	1.0	t		21.0	male	black	2.969757262236371	neutral	137	sub-01	2.0	3.0	137_neutral	0.0		38.5149675311859	
1.0	17.508002877262697	pulse	1.0	t		21.0	male	black	2.969757262236371	neutral	137	sub-01	2.0	3.0	137_neutral	0.0		39.21492958826457	
1.0	18.207999949288933	pulse	1.0	t		21.0	male	black	2.969757262236371	neutral	137	sub-01	2.0	3.0	137_neutral	0.0		39.9149266602908	
1.0	18.907964421192446	pulse	1.0	t		21.0	male	black	2.969757262236371	neutral	137	sub-01	2.0	3.0	137_neutral	0.0		40.614891132194316	
1.0	19.60794911724588	pulse	1.0	t		21.0	male	black	2.969757262236371	neutral	137	sub-01	2.0	3.0	137_neutral	0.0		41.31487582824775	
2.0	20.016159699547643	face	0.0		145	21.0	male	east_asian/white	3.501790688420215	neutral	036	sub-01	2.0	3.0	036_neutral	0.0		41.72308641054951	1.2333003609255684
2.0	20.307941661478253	pulse	0.0	t		21.0	male	east_asian/white	3.501790688420215	neutral	036	sub-01	2.0	3.0	036_neutral	0.0		42.01486837248012	
2.0	21.007909453765023	pulse	0.0	t		21.0	male	east_asian/white	3.501790688420215	neutral	036	sub-01	2.0	3.0	036_neutral	0.0		42.71483616476689	
2.0	21.24946006047321	fix	1.0		444	21.0	male	east_asian/white	3.501790688420215	neutral	036	sub-01	2.0	3.0	036_neutral	0.0		42.95638677147508	3.758232662848968
2.0	21.7079095443205	pulse	1.0	t		21.0	male	east_asian/white	3.501790688420215	neutral	036	sub-01	2.0	3.0	036_neutral	0.0		43.41483625532237	
2.0	22.407883373665754	pulse	1.0	t		21.0	male	east_asian/white	3.501790688420215	neutral	036	sub-01	2.0	3.0	036_neutral	0.0		44.114810084667624	
2.0	23.10786022154207	pulse	1.0	t		21.0	male	east_asian/white	3.501790688420215	neutral	036	sub-01	2.0	3.0	036_neutral	0.0		44.81478693254394	
2.0	23.80785125650982	pulse	1.0	t		21.0	male	east_asian/white	3.501790688420215	neutral	036	sub-01	2.0	3.0	036_neutral	0.0		45.51477796751169	
2.0	24.507819048794772	pulse	1.0	t		21.0	male	east_asian/white	3.501790688420215	neutral	036	sub-01	2.0	3.0	036_neutral	0.0		46.21474575979664	
3.0	25.00769272332218	face	0.0		146	31.0	female	east_asian	3.395941106247513	neutral	087	sub-01	2.0	3.0	087_neutral	0.0		46.71461943432405	1.241637540368174
3.0	25.20781913935207	pulse	0.0	t		31.0	female	east_asian	3.395941106247513	neutral	087	sub-01	2.0	3.0	087_neutral	0.0		46.91474585035394	
3.0	25.907782403843157	pulse	0.0	t		31.0	female	east_asian	3.395941106247513	neutral	087	sub-01	2.0	3.0	087_neutral	0.0		47.61470911484503	
3.0	26.249330263690354	fix	1.0		444	31.0	female	east_asian	3.395941106247513	neutral	087	sub-01	2.0	3.0	087_neutral	0.0		47.956256974692224	3.766564107083468
3.0	26.607779174015377	pulse	1.0	t		31.0	female	east_asian	3.395941106247513	neutral	087	sub-01	2.0	3.0	087_neutral	0.0		48.31470588501725	
3.0	27.30775300336245	pulse	1.0	t		31.0	female	east_asian	3.395941106247513	neutral	087	sub-01	2.0	3.0	087_neutral	0.0		49.01467971436432	
3.0	28.007728945680356	pulse	1.0	t		31.0	female	east_asian	3.395941106247513	neutral	087	sub-01	2.0	3.0	087_neutral	0.0		49.714655656682226	
3.0	28.70771515099841	pulse	1.0	t		31.0	female	east_asian	3.395941106247513	neutral	087	sub-01	2.0	3.0	087_neutral	0.0		50.41464186200028	
3.0	29.40770014890404	pulse	1.0	t		31.0	female	east_asian	3.395941106247513	neutral	087	sub-01	2.0	3.0	087_neutral	0.0		51.11462685990591	
4.0	30.01589437077382	face	0.0		145	34.0	male	white	2.651014723438122	neutral	121	sub-01	2.0	3.0	121_neutral	0.0		51.72282108177569	1.2333163591338234
4.0	30.10768846719475	pulse	0.0	t		34.0	male	white	2.651014723438122	neutral	121	sub-01	2.0	3.0	121_neutral	0.0		51.81461517819662	
4.0	30.807667428041896	pulse	0.0	t		34.0	male	white	2.651014723438122	neutral	121	sub-01	2.0	3.0	121_neutral	0.0		52.514594139043766	
4.0	31.249210729907645	fix	1.0		445	34.0	male	white	2.651014723438122	neutral	121	sub-01	2.0	3.0	121_neutral	0.0		52.956137440909515	3.774880156819563
4.0	31.507643370357982	pulse	1.0	t		34.0	male	white	2.651014723438122	neutral	121	sub-01	2.0	3.0	121_neutral	0.0		53.21457008135985	
4.0	32.20762293491134	pulse	1.0	t		34.0	male	white	2.651014723438122	neutral	121	sub-01	2.0	3.0	121_neutral	0.0		53.91454964591321	
4.0	32.90761185690644	pulse	1.0	t		34.0	male	white	2.651014723438122	neutral	121	sub-01	2.0	3.0	121_neutral	0.0		54.61453856790831	
4.0	33.6075980622245	pulse	1.0	t		34.0	male	white	2.651014723438122	neutral	121	sub-01	2.0	3.0	121_neutral	0.0		55.31452477322637	
4.0	34.30756585451127	pulse	1.0	t		34.0	male	white	2.651014723438122	neutral	121	sub-01	2.0	3.0	121_neutral	0.0		56.01449256551314	
5.0	35.02409088672721	face	0.0		146	40.0	male	black	2.408674890569041	neutral	061	sub-01	2.0	3.0	061_neutral	0.0		56.73101759772908	1.2333223961941258
5.0	35.01039249641872	pulse	0.0	t		40.0	male	black	2.408674890569041	neutral	061	sub-01	2.0	3.0	061_neutral	0.0		56.71731920742059	
5.0	35.707526794734804	pulse	0.0	t		40.0	male	black	2.408674890569041	neutral	061	sub-01	2.0	3.0	061_neutral	0.0		57.414453505736674	
5.0	36.257413282921334	fix	1.0		443	40.0	male	black	2.408674890569041	neutral	061	sub-01	2.0	3.0	061_neutral	0.0		57.964339993923204	3.758218777609727
5.0	36.40752507417346	pulse	1.0	t		40.0	male	black	2.408674890569041	neutral	061	sub-01	2.0	3.0	061_neutral	0.0		58.11445178517533	
5.0	37.10749014978319	pulse	1.0	t		40.0	male	black	2.408674890569041	neutral	061	sub-01	2.0	3.0	061_neutral	0.0		58.81441686078506	
5.0	37.80746790321791	pulse	1.0	t		40.0	male	black	2.408674890569041	neutral	061	sub-01	2.0	3.0	061_neutral	0.0		59.51439461421978	
5.0	38.507462862273314	pulse	1.0	t		40.0	male	black	2.408674890569041	neutral	061	sub-01	2.0	3.0	061_neutral	0.0		60.214389573275184	
5.0	39.20743910644342	pulse	1.0	t		40.0	male	black	2.408674890569041	neutral	061	sub-01	2.0	3.0	061_neutral	0.0		60.91436581744529	
5.0	39.907415652465716	pulse	1.0	t		40.0	male	black	2.408674890569041	neutral	061	sub-01	2.0	3.0	061_neutral	0.0		61.614342363467586	
6.0	40.01563206053106	face	0.0		147	30.0	female	black	2.7345801830481498	smiling	062	sub-01	2.0	3.0	062_smiling	0.0		61.72255877153293	1.2416490107825666
6.0	40.60740004666695	pulse	0.0	t		30.0	female	black	2.7345801830481498	smiling	062	sub-01	2.0	3.0	062_smiling	0.0		62.31432675766882	
6.0	41.25728107131363	fix	1.0		443	30.0	female	black	2.7345801830481498	smiling	062	sub-01	2.0	3.0	062_smiling	0.0		62.9642077823155	3.7665520329646824
6.0	41.30739621313478	pulse	1.0	t		30.0	female	black	2.7345801830481498	smiling	062	sub-01	2.0	3.0	062_smiling	0.0		63.01432292413665	
6.0	42.00736249615511	pulse	1.0	t		30.0	female	black	2.7345801830481498	smiling	062	sub-01	2.0	3.0	062_smiling	0.0		63.71428920715698	
6.0	42.707343871827106	pulse	1.0	t		30.0	female	black	2.7345801830481498	smiling	062	sub-01	2.0	3.0	062_smiling	0.0		64.41427058282898	
6.0	43.40733249197001	pulse	1.0	t		30.0	female	black	2.7345801830481498	smiling	062	sub-01	2.0	3.0	062_smiling	0.0		65.11425920297188	
6.0	44.107322621375715	pulse	1.0	t		30.0	female	black	2.7345801830481498	smiling	062	sub-01	2.0	3.0	062_smiling	0.0		65.81424933237759	
6.0	44.80728226363317	pulse	1.0	t		30.0	female	black	2.7345801830481498	smiling	062	sub-01	2.0	3.0	062_smiling	0.0		66.51420897463504	
7.0	45.02383310427831	face	0.0		145	24.0	female	east_asian	2.9076800636689217	smiling	034	sub-01	2.0	3.0	034_smiling	0.0		66.73075981528018	1.2333151517213992
7.0	45.507269978215845	pulse	0.0	t		24.0	female	east_asian	2.9076800636689217	smiling	034	sub-01	2.0	3.0	034_smiling	0.0		67.21419668921772	
7.0	46.20725769280034	pulse	0.0	t		24.0	female	east_asian	2.9076800636689217	smiling	034	sub-01	2.0	3.0	034_smiling	0.0		67.91418440380221	
7.0	46.25714825599971	fix	1.0		445	24.0	female	east_asian	2.9076800636689217	smiling	034	sub-01	2.0	3.0	034_smiling	0.0		67.96407496700158	3.7665535422293033
7.0	46.90724601108923	pulse	1.0	t		24.0	female	east_asian	2.9076800636689217	smiling	034	sub-01	2.0	3.0	034_smiling	0.0		68.6141727220911	
7.0	47.607214105228195	pulse	1.0	t		24.0	female	east_asian	2.9076800636689217	smiling	034	sub-01	2.0	3.0	034_smiling	0.0		69.31414081623006	
7.0	48.30719578275239	pulse	1.0	t		24.0	female	east_asian	2.9076800636689217	smiling	034	sub-01	2.0	3.0	034_smiling	0.0		70.01412249375426	
7.0	49.007173838041126	pulse	1.0	t		24.0	female	east_asian	2.9076800636689217	smiling	034	sub-01	2.0	3.0	034_smiling	0.0		70.714100549043	
7.0	49.70715310074047	pulse	1.0	t		24.0	female	east_asian	2.9076800636689217	smiling	034	sub-01	2.0	3.0	034_smiling	0.0		71.41407981174234	
8.0	50.02370179822901	face	0.0		145	25.0	female	black	3.858336649423	neutral	126	sub-01	2.0	3.0	126_neutral	1.0	trustworthiness	71.73062850923088	1.2333175665462477
8.0	50.40715288944375	pulse	0.0	t		25.0	female	black	3.858336649423	neutral	126	sub-01	2.0	3.0	126_neutral	1.0	trustworthiness	72.11407960044562	
8.0	51.10713486882014	pulse	0.0	t		25.0	female	black	3.858336649423	neutral	126	sub-01	2.0	3.0	126_neutral	1.0	trustworthiness	72.81406157982201	
8.0	51.25701936477526	fix	1.0		177	25.0	female	black	3.858336649423	neutral	126	sub-01	2.0	3.0	126_neutral	1.0	trustworthiness	72.96394607577713	1.4999606081855745
8.0	51.80711624449032	pulse	1.0	t		25.0	female	black	3.858336649423	neutral	126	sub-01	2.0	3.0	126_neutral	1.0	trustworthiness	73.51404295549219	
8.0	52.507082527512466	pulse	1.0	t		25.0	female	black	3.858336649423	neutral	126	sub-01	2.0	3.0	126_neutral	1.0	trustworthiness	74.21400923851434	
8.0	52.756979972960835	rating	2.0		295	25.0	female	black	3.858336649423	neutral	126	sub-01	2.0	3.0	126_neutral	1.0	trustworthiness	74.4639066839627	2.4999117080024007
8.0	53.20202899539436	pulse	2.0	t		25.0	female	black	3.858336649423	neutral	126	sub-01	2.0	3.0	126_neutral	1.0	trustworthiness	74.90895570639623	
8.0	53.9018878187544	pulse	2.0	t		25.0	female	black	3.858336649423	neutral	126	sub-01	2.0	3.0	126_neutral	1.0	trustworthiness	75.60881452975627	
8.0	53.92376823607083	response	2.0	y		25.0	female	black	3.858336649423	neutral	126	sub-01	2.0	3.0	126_neutral	1.0	trustworthiness	75.6306949470727	
8.0	54.60702816378944	pulse	2.0	t		25.0	female	black	3.858336649423	neutral	126	sub-01	2.0	3.0	126_neutral	1.0	trustworthiness	76.3139548747913	
8.0	55.256891680963236	fix	3.0		443	25.0	female	black	3.858336649423	neutral	126	sub-01	2.0	3.0	126_neutral	1.0	trustworthiness	76.9638183919651	3.7665722571146034
8.0	55.306995352369995	pulse	3.0	t		25.0	female	black	3.858336649423	neutral	126	sub-01	2.0	3.0	126_neutral	1.0	trustworthiness	77.01392206337187	
8.0	56.00699151883782	pulse	3.0	t		25.0	female	black	3.858336649423	neutral	126	sub-01	2.0	3.0	126_neutral	1.0	trustworthiness	77.71391822983969	
8.0	56.706972894508	pulse	3.0	t		25.0	female	black	3.858336649423	neutral	126	sub-01	2.0	3.0	126_neutral	1.0	trustworthiness	78.41389960550987	
8.0	57.406958194267645	pulse	3.0	t		25.0	female	black	3.858336649423	neutral	126	sub-01	2.0	3.0	126_neutral	1.0	trustworthiness	79.11388490526952	
8.0	58.10694892738138	pulse	3.0	t		25.0	female	black	3.858336649423	neutral	126	sub-01	2.0	3.0	126_neutral	1.0	trustworthiness	79.81387563838325	
8.0	58.80691762522656	pulse	3.0	t		25.0	female	black	3.858336649423	neutral	126	sub-01	2.0	3.0	126_neutral	1.0	trustworthiness	80.51384433622843	
9.0	59.02346393807784	face	0.0		145	36.0	female	white	2.7548746518105847	neutral	011	sub-01	2.0	3.0	011_neutral	0.0		80.73039064907971	1.2333042850132188
9.0	59.506903830544616	pulse	0.0	t		36.0	female	white	2.7548746518105847	neutral	011	sub-01	2.0	3.0	011_neutral	0.0		81.21383054154649	
9.0	60.2068655857729	pulse	0.0	t		36.0	female	white	2.7548746518105847	neutral	011	sub-01	2.0	3.0	011_neutral	0.0		81.91379229677477	
9.0	60.25676822309106	fix	1.0		444	36.0	female	white	2.7548746518105847	neutral	011	sub-01	2.0	3.0	011_neutral	0.0		81.96369493409293	3.766563503379075
9.0	60.90688107083042	pulse	1.0	t		36.0	female	white	2.7548746518105847	neutral	011	sub-01	2.0	3.0	011_neutral	0.0		82.61380778183229	
9.0	61.60685550388189	pulse	1.0	t		36.0	female	white	2.7548746518105847	neutral	011	sub-01	2.0	3.0	011_neutral	0.0		83.31378221488376	
9.0	62.30683506843525	pulse	1.0	t		36.0	female	white	2.7548746518105847	neutral	011	sub-01	2.0	3.0	011_neutral	0.0		84.01376177943712	
9.0	63.00680678481149	pulse	1.0	t		36.0	female	white	2.7548746518105847	neutral	011	sub-01	2.0	3.0	011_neutral	0.0		84.71373349581336	
9.0	63.70680023460045	pulse	1.0	t		36.0	female	white	2.7548746518105847	neutral	011	sub-01	2.0	3.0	011_neutral	0.0		85.41372694560232	
10.0	64.02333172647013	face	0.0		145	19.0	male	white	2.243931555909272	smiling	130	sub-01	2.0	3.0	130_smiling	0.0		85.730258437472	1.2333057942796586
10.0	64.40678191212464	pulse	0.0	t		19.0	male	white	2.243931555909272	smiling	130	sub-01	2.0	3.0	130_smiling	0.0		86.11370862312651	
10.0	65.10677143782596	pulse	0.0	t		19.0	male	white	2.243931555909272	smiling	130	sub-01	2.0	3.0	130_smiling	0.0		86.81369814882783	
10.0	65.25663752074979	fix	1.0		444	19.0	male	white	2.243931555909272	smiling	130	sub-01	2.0	3.0	130_smiling	0.0		86.96356423175166	3.7665465996105922
10.0	65.80673711714189	pulse	1.0	t		19.0	male	white	2.243931555909272	smiling	130	sub-01	2.0	3.0	130_smiling	0.0		87.51366382814376	
10.0	66.50672754840161	pulse	1.0	t		19.0	male	white	2.243931555909272	smiling	130	sub-01	2.0	3.0	130_smiling	0.0		88.21365425940348	
10.0	67.20670047218846	pulse	1.0	t		19.0	male	white	2.243931555909272	smiling	130	sub-01	2.0	3.0	130_smiling	0.0		88.91362718319033	
10.0	67.90669060159598	pulse	1.0	t		19.0	male	white	2.243931555909272	smiling	130	sub-01	2.0	3.0	130_smiling	0.0		89.61361731259785	
10.0	68.60667288282639	pulse	1.0	t		19.0	male	white	2.243931555909272	smiling	130	sub-01	2.0	3.0	130_smiling	0.0		90.31359959382826	
11.0	69.02318412036038	face	0.0		145	28.0	female	white	5.676880222841227	neutral	124	sub-01	2.0	3.0	124_neutral	0.0		90.73011083136225	1.2333329610482906
11.0	69.30665395664437	pulse	0.0	t		28.0	female	white	5.676880222841227	neutral	124	sub-01	2.0	3.0	124_neutral	0.0		91.01358066764624	
11.0	70.00663050266667	pulse	0.0	t		28.0	female	white	5.676880222841227	neutral	124	sub-01	2.0	3.0	124_neutral	0.0		91.71355721366854	
11.0	70.25651708140867	fix	1.0		444	28.0	female	white	5.676880222841227	neutral	124	sub-01	2.0	3.0	124_neutral	0.0		91.96344379241054	3.7665520329646824
11.0	70.70660463386594	pulse	1.0	t		28.0	female	white	5.676880222841227	neutral	124	sub-01	2.0	3.0	124_neutral	0.0		92.4135313448678	
11.0	71.40658359471308	pulse	1.0	t		28.0	female	white	5.676880222841227	neutral	124	sub-01	2.0	3.0	124_neutral	0.0		93.11351030571495	
11.0	72.10657795006227	pulse	1.0	t		28.0	female	white	5.676880222841227	neutral	124	sub-01	2.0	3.0	124_neutral	0.0		93.81350466106414	
11.0	72.79842770817231	pulse	1.0	t		28.0	female	white	5.676880222841227	neutral	124	sub-01	2.0	3.0	124_neutral	0.0		94.50535441917418	
11.0	73.49838674672355	pulse	1.0	t		28.0	female	white	5.676880222841227	neutral	124	sub-01	2.0	3.0	124_neutral	0.0		95.20531345772542	
12.0	74.02306911437336	face	0.0		145	27.0	female	white	3.504576203740549	smiling	144	sub-01	2.0	3.0	144_smiling	0.0		95.72999582537523	1.2333163591338234
12.0	74.20653083081197	pulse	0.0	t		27.0	female	white	3.504576203740549	smiling	144	sub-01	2.0	3.0	144_smiling	0.0		95.91345754181384	
12.0	74.90649983050935	pulse	0.0	t		27.0	female	white	3.504576203740549	smiling	144	sub-01	2.0	3.0	144_smiling	0.0		96.61342654151122	
12.0	75.25638547350718	fix	1.0		444	27.0	female	white	3.504576203740549	smiling	144	sub-01	2.0	3.0	144_smiling	0.0		96.96331218450905	3.7665541459355154
12.0	75.59834143859007	pulse	1.0	t		27.0	female	white	3.504576203740549	smiling	144	sub-01	2.0	3.0	144_smiling	0.0		97.30526814959194	
12.0	76.298319795731	pulse	1.0	t		27.0	female	white	3.504576203740549	smiling	144	sub-01	2.0	3.0	144_smiling	0.0		98.00524650673287	
12.0	76.99830117140118	pulse	1.0	t		27.0	female	white	3.504576203740549	smiling	144	sub-01	2.0	3.0	144_smiling	0.0		98.70522788240305	
12.0	77.69828254707318	pulse	1.0	t		27.0	female	white	3.504576203740549	smiling	144	sub-01	2.0	3.0	144_smiling	0.0		99.40520925807505	
12.0	78.39829863583691	pulse	1.0	t		27.0	female	white	3.504576203740549	smiling	144	sub-01	2.0	3.0	144_smiling	0.0		100.10522534683878	
13.0	79.0229396194427	face	0.0		145	27.0	female	white	3.504576203740549	neutral	144	sub-01	2.0	3.0	144_neutral	0.0		100.72986633044457	1.2333121331921575
13.0	79.10640015865465	pulse	0.0	t		27.0	female	white	3.504576203740549	neutral	144	sub-01	2.0	3.0	144_neutral	0.0		100.81332686965652	
13.0	79.80635949905809	pulse	0.0	t		27.0	female	white	3.504576203740549	neutral	144	sub-01	2.0	3.0	144_neutral	0.0		101.51328621005996	
13.0	80.25625175263485	fix	1.0		444	27.0	female	white	3.504576203740549	neutral	144	sub-01	2.0	3.0	144_neutral	0.0		101.96317846363672	3.766543882933547
13.0	80.49823008502426	pulse	1.0	t		27.0	female	white	3.504576203740549	neutral	144	sub-01	2.0	3.0	144_neutral	0.0		102.20515679602613	
13.0	81.19819908472164	pulse	1.0	t		27.0	female	white	3.504576203740549	neutral	144	sub-01	2.0	3.0	144_neutral	0.0		102.9051257957235	
13.0	81.89818196965825	pulse	1.0	t		27.0	female	white	3.504576203740549	neutral	144	sub-01	2.0	3.0	144_neutral	0.0		103.60510868066012	
13.0	82.59816938238873	pulse	1.0	t		27.0	female	white	3.504576203740549	neutral	144	sub-01	2.0	3.0	144_neutral	0.0		104.3050960933906	
13.0	83.29815528585459	pulse	1.0	t		27.0	female	white	3.504576203740549	neutral	144	sub-01	2.0	3.0	144_neutral	0.0		105.00508199685646	
14.0	84.0227956355684	face	0.0		146	24.0	male	white	3.1153999204138483	smiling	012	sub-01	2.0	3.0	012_smiling	0.0		105.72972234657027	1.233319377664884
14.0	84.00909905637855	pulse	0.0	t		24.0	male	white	3.1153999204138483	smiling	012	sub-01	2.0	3.0	012_smiling	0.0		105.71602576738042	
14.0	84.69804347950776	pulse	0.0	t		24.0	male	white	3.1153999204138483	smiling	012	sub-01	2.0	3.0	012_smiling	0.0		106.40497019050963	
14.0	85.25611501323328	fix	1.0		443	24.0	male	white	3.1153999204138483	smiling	012	sub-01	2.0	3.0	012_smiling	0.0		106.96304172423515	3.766559881141802
14.0	85.39809548877747	pulse	1.0	t		24.0	male	white	3.1153999204138483	smiling	012	sub-01	2.0	3.0	012_smiling	0.0		107.10502219977934	
14.0	86.09807565703704	pulse	1.0	t		24.0	male	white	3.1153999204138483	smiling	012	sub-01	2.0	3.0	012_smiling	0.0		107.80500236803891	
14.0	86.79804767526548	pulse	1.0	t		24.0	male	white	3.1153999204138483	smiling	012	sub-01	2.0	3.0	012_smiling	0.0		108.50497438626735	
14.0	87.49801788237528	pulse	1.0	t		24.0	male	white	3.1153999204138483	smiling	012	sub-01	2.0	3.0	012_smiling	0.0		109.20494459337715	
14.0	88.19800438954735	pulse	1.0	t		24.0	male	white	3.1153999204138483	smiling	012	sub-01	2.0	3.0	012_smiling	0.0		109.90493110054922	
14.0	88.8979842559529	pulse	1.0	t		24.0	male	white	3.1153999204138483	smiling	012	sub-01	2.0	3.0	012_smiling	0.0		110.60491096695478	
15.0	89.02267489437509	face	0.0		146	27.0	male	black	3.5523278949462798	neutral	042	sub-01	2.0	3.0	042_neutral	0.0		110.72960160537696	1.2333133406027628
15.0	89.59796774459392	pulse	0.0	t		27.0	male	black	3.5523278949462798	neutral	042	sub-01	2.0	3.0	042_neutral	0.0		111.30489445559579	
15.0	90.25598823497785	fix	1.0		443	27.0	male	black	3.5523278949462798	neutral	042	sub-01	2.0	3.0	042_neutral	0.0		111.96291494597972	3.766551731112486
15.0	90.29797749444515	pulse	1.0	t		27.0	male	black	3.5523278949462798	neutral	042	sub-01	2.0	3.0	042_neutral	0.0		112.00490420544702	
15.0	90.99792838296526	pulse	1.0	t		27.0	male	black	3.5523278949462798	neutral	042	sub-01	2.0	3.0	042_neutral	0.0		112.70485509396713	
15.0	91.69792756796232	pulse	1.0	t		27.0	male	black	3.5523278949462798	neutral	042	sub-01	2.0	3.0	042_neutral	0.0		113.4048542789642	
15.0	92.39790139730758	pulse	1.0	t		27.0	male	black	3.5523278949462798	neutral	042	sub-01	2.0	3.0	042_neutral	0.0		114.10482810830945	
15.0	93.09789394153995	pulse	1.0	t		27.0	male	black	3.5523278949462798	neutral	042	sub-01	2.0	3.0	042_neutral	0.0		114.80482065254182	
15.0	93.79785720603104	pulse	1.0	t		27.0	male	black	3.5523278949462798	neutral	042	sub-01	2.0	3.0	042_neutral	0.0		115.50478391703291	
16.0	94.02253996609033	face	0.0		145	21.0	male	east_asian/white	3.501790688420215	smiling	036	sub-01	2.0	3.0	036_smiling	0.0		115.7294666770922	1.2333148498692026
16.0	94.49779119078266	pulse	0.0	t		21.0	male	east_asian/white	3.501790688420215	smiling	036	sub-01	2.0	3.0	036_smiling	0.0		116.20471790178453	
16.0	95.19776713310057	pulse	0.0	t		21.0	male	east_asian/white	3.501790688420215	smiling	036	sub-01	2.0	3.0	036_smiling	0.0		116.90469384410244	
16.0	95.25585481595954	fix	1.0		444	21.0	male	east_asian/white	3.501790688420215	smiling	036	sub-01	2.0	3.0	036_smiling	0.0		116.96278152696141	3.766555957054152
16.0	95.8978143127224	pulse	1.0	t		21.0	male	east_asian/white	3.501790688420215	smiling	036	sub-01	2.0	3.0	036_smiling	0.0		117.60474102372427	
16.0	96.59778844392167	pulse	1.0	t		21.0	male	east_asian/white	3.501790688420215	smiling	036	sub-01	2.0	3.0	036_smiling	0.0		118.30471515492354	
16.0	97.29778008259382	pulse	1.0	t		21.0	male	east_asian/white	3.501790688420215	smiling	036	sub-01	2.0	3.0	036_smiling	0.0		119.00470679359569	
16.0	97.9977560249099	pulse	1.0	t		21.0	male	east_asian/white	3.501790688420215	smiling	036	sub-01	2.0	3.0	036_smiling	0.0		119.70468273591177	
16.0	98.69774555061304	pulse	1.0	t		21.0	male	east_asian/white	3.501790688420215	smiling	036	sub-01	2.0	3.0	036_smiling	0.0		120.4046722616149	
17.0	99.02241077301369	face	0.0		145	23.0	male	white	2.6275368085953046	smiling	141	sub-01	2.0	3.0	141_smiling	0.0		120.72933748401556	1.2333018701901892
17.0	99.3976635371564	pulse	0.0	t		23.0	male	white	2.6275368085953046	smiling	141	sub-01	2.0	3.0	141_smiling	0.0		121.10459024815827	
17.0	100.09763223500158	pulse	0.0	t		23.0	male	white	2.6275368085953046	smiling	141	sub-01	2.0	3.0	141_smiling	0.0		121.80455894600345	
17.0	100.25571264320388	fix	1.0		445	23.0	male	white	2.6275368085953046	smiling	141	sub-01	2.0	3.0	141_smiling	0.0		121.96263935420575	3.7665692385853617
17.0	100.79766794420902	pulse	1.0	t		23.0	male	white	2.6275368085953046	smiling	141	sub-01	2.0	3.0	141_smiling	0.0		122.5045946552109	
17.0	101.49766350697064	pulse	1.0	t		23.0	male	white	2.6275368085953046	smiling	141	sub-01	2.0	3.0	141_smiling	0.0		123.20459021797251	
17.0	102.19764246781779	pulse	1.0	t		23.0	male	white	2.6275368085953046	smiling	141	sub-01	2.0	3.0	141_smiling	0.0		123.90456917881966	
17.0	102.89763320093152	pulse	1.0	t		23.0	male	white	2.6275368085953046	smiling	141	sub-01	2.0	3.0	141_smiling	0.0		124.60455991193339	
17.0	103.59761548216193	pulse	1.0	t		23.0	male	white	2.6275368085953046	smiling	141	sub-01	2.0	3.0	141_smiling	0.0		125.3045421931638	
18.0	104.02228188178924	face	0.0		145	25.0	female	west_asian	2.6756864305610826	smiling	064	sub-01	2.0	3.0	064_smiling	0.0		125.72920859279111	1.2333112276319298
18.0	104.29754886320734	pulse	0.0	t		25.0	female	west_asian	2.6756864305610826	smiling	064	sub-01	2.0	3.0	064_smiling	0.0		126.00447557420921	
18.0	104.9975223907004	pulse	0.0	t		25.0	female	west_asian	2.6756864305610826	smiling	064	sub-01	2.0	3.0	064_smiling	0.0		126.70444910170227	
18.0	105.25559310942117	fix	1.0		444	25.0	female	west_asian	2.6756864305610826	smiling	064	sub-01	2.0	3.0	064_smiling	0.0		126.96251982042304	3.758222399847
18.0	105.69755628879102	pulse	1.0	t		25.0	female	west_asian	2.6756864305610826	smiling	064	sub-01	2.0	3.0	064_smiling	0.0		127.40448299979289	
18.0	106.39754309781529	pulse	1.0	t		25.0	female	west_asian	2.6756864305610826	smiling	064	sub-01	2.0	3.0	064_smiling	0.0		128.10446980881716	
18.0	107.09750968268963	pulse	1.0	t		25.0	female	west_asian	2.6756864305610826	smiling	064	sub-01	2.0	3.0	064_smiling	0.0		128.8044363936915	
18.0	107.79748713427216	pulse	1.0	t		25.0	female	west_asian	2.6756864305610826	smiling	064	sub-01	2.0	3.0	064_smiling	0.0		129.50441384527403	
18.0	108.49747001920696	pulse	1.0	t		25.0	female	west_asian	2.6756864305610826	smiling	064	sub-01	2.0	3.0	064_smiling	0.0		130.20439673020883	
19.0	109.01381550926817	face	0.0		146	40.0	female	west_asian	1.5777954635893354	neutral	038	sub-01	2.0	3.0	038_neutral	0.0		130.72074222027004	1.241646595957718
19.0	109.19741185213752	pulse	0.0	t		40.0	female	west_asian	1.5777954635893354	neutral	038	sub-01	2.0	3.0	038_neutral	0.0		130.9043385631394	
19.0	109.89725407358128	pulse	0.0	t		40.0	female	west_asian	1.5777954635893354	neutral	038	sub-01	2.0	3.0	038_neutral	0.0		131.60418078458315	
19.0	110.25546210522589	fix	1.0		444	40.0	female	west_asian	1.5777954635893354	neutral	038	sub-01	2.0	3.0	038_neutral	0.0		131.96238881622776	3.766552938523091
19.0	110.59726865308221	pulse	1.0	t		40.0	female	west_asian	1.5777954635893354	neutral	038	sub-01	2.0	3.0	038_neutral	0.0		132.30419536408408	
19.0	111.2972518398692	pulse	1.0	t		40.0	female	west_asian	1.5777954635893354	neutral	038	sub-01	2.0	3.0	038_neutral	0.0		133.00417855087107	
19.0	111.99722114142241	pulse	1.0	t		40.0	female	west_asian	1.5777954635893354	neutral	038	sub-01	2.0	3.0	038_neutral	0.0		133.70414785242428	
19.0	112.69719798929691	pulse	1.0	t		40.0	female	west_asian	1.5777954635893354	neutral	038	sub-01	2.0	3.0	038_neutral	0.0		134.40412470029878	
19.0	113.39721347435625	pulse	1.0	t		40.0	female	west_asian	1.5777954635893354	neutral	038	sub-01	2.0	3.0	038_neutral	0.0		135.10414018535812	
20.0	114.02201504374898	face	0.0		145	24.0	male	white	3.1153999204138483	neutral	012	sub-01	2.0	3.0	012_neutral	0.0		135.72894175475085	1.2333148498692026
20.0	114.09728480221565	pulse	0.0	t		24.0	male	white	3.1153999204138483	neutral	012	sub-01	2.0	3.0	012_neutral	0.0		135.80421151321752	
20.0	114.79711404398222	pulse	0.0	t		24.0	male	white	3.1153999204138483	neutral	012	sub-01	2.0	3.0	012_neutral	0.0		136.5040407549841	
20.0	115.25532989361818	fix	1.0		1185	24.0	male	white	3.1153999204138483	neutral	012	sub-01	2.0	3.0	012_neutral	0.0		136.96225660462005	10.016390315227909
20.0	115.49709421224179	pulse	1.0	t		24.0	male	white	3.1153999204138483	neutral	012	sub-01	2.0	3.0	012_neutral	0.0		137.20402092324366	
20.0	116.19708162497227	pulse	1.0	t		24.0	male	white	3.1153999204138483	neutral	012	sub-01	2.0	3.0	012_neutral	0.0		137.90400833597414	
20.0	116.89706420805487	pulse	1.0	t		24.0	male	white	3.1153999204138483	neutral	012	sub-01	2.0	3.0	012_neutral	0.0		138.60399091905674	
20.0	117.59704226334179	pulse	1.0	t		24.0	male	white	3.1153999204138483	neutral	012	sub-01	2.0	3.0	012_neutral	0.0		139.30396897434366	
20.0	118.29701488527644	pulse	1.0	t		24.0	male	white	3.1153999204138483	neutral	012	sub-01	2.0	3.0	012_neutral	0.0		140.0039415962783	
20.0	118.99699716650684	pulse	1.0	t		24.0	male	white	3.1153999204138483	neutral	012	sub-01	2.0	3.0	012_neutral	0.0		140.70392387750871	
20.0	119.69697310882293	pulse	1.0	t		24.0	male	white	3.1153999204138483	neutral	012	sub-01	2.0	3.0	012_neutral	0.0		141.4038998198248	
20.0	120.39697289752621	pulse	1.0	t		24.0	male	white	3.1153999204138483	neutral	012	sub-01	2.0	3.0	012_neutral	0.0		142.10389960852808	
20.0	121.09697117696487	pulse	1.0	t		24.0	male	white	3.1153999204138483	neutral	012	sub-01	2.0	3.0	012_neutral	0.0		142.80389788796674	
20.0	121.79693202663293	pulse	1.0	t		24.0	male	white	3.1153999204138483	neutral	012	sub-01	2.0	3.0	012_neutral	0.0		143.5038587376348	
20.0	122.49691793009879	pulse	1.0	t		24.0	male	white	3.1153999204138483	neutral	012	sub-01	2.0	3.0	012_neutral	0.0		144.20384464110066	
20.0	123.19689809835654	pulse	1.0	t		24.0	male	white	3.1153999204138483	neutral	012	sub-01	2.0	3.0	012_neutral	0.0		144.9038248093584	
20.0	123.89687524808687	pulse	1.0	t		24.0	male	white	3.1153999204138483	neutral	012	sub-01	2.0	3.0	012_neutral	0.0		145.60380195908874	
20.0	124.59685813302167	pulse	1.0	t		24.0	male	white	3.1153999204138483	neutral	012	sub-01	2.0	3.0	012_neutral	0.0		146.30378484402354	
21.0	125.27172020884609	face	0.0		145	40.0	male	white	1.868682849184242	neutral	172	sub-01	2.0	3.0	172_neutral	0.0		146.97864691984796	1.2333009646317805
21.0	125.29685188466465	pulse	0.0	t		40.0	male	white	1.868682849184242	neutral	172	sub-01	2.0	3.0	172_neutral	0.0		147.00377859566652	
21.0	125.99682480845149	pulse	0.0	t		40.0	male	white	1.868682849184242	neutral	172	sub-01	2.0	3.0	172_neutral	0.0		147.70375151945336	
21.0	126.50502117347787	fix	1.0		443	40.0	male	white	1.868682849184242	neutral	172	sub-01	2.0	3.0	172_neutral	0.0		148.21194788447974	3.7665541459355154
21.0	126.69679833594637	pulse	1.0	t		40.0	male	white	1.868682849184242	neutral	172	sub-01	2.0	3.0	172_neutral	0.0		148.40372504694824	
21.0	127.39676250599587	pulse	1.0	t		40.0	male	white	1.868682849184242	neutral	172	sub-01	2.0	3.0	172_neutral	0.0		149.10368921699774	
21.0	128.0967532391096	pulse	1.0	t		40.0	male	white	1.868682849184242	neutral	172	sub-01	2.0	3.0	172_neutral	0.0		149.80367995011147	
21.0	128.79673853886925	pulse	1.0	t		40.0	male	white	1.868682849184242	neutral	172	sub-01	2.0	3.0	172_neutral	0.0		150.50366524987112	
21.0	129.49670874597905	pulse	1.0	t		40.0	male	white	1.868682849184242	neutral	172	sub-01	2.0	3.0	172_neutral	0.0		151.20363545698092	
21.0	130.19670129021142	pulse	1.0	t		40.0	male	white	1.868682849184242	neutral	172	sub-01	2.0	3.0	172_neutral	0.0		151.9036280012133	
22.0	130.2715753194134	face	0.0		146	25.0	female	west_asian	2.6756864305610826	neutral	064	sub-01	2.0	3.0	064_neutral	1.0	attractiveness	151.97850203041526	1.2333272258420038
22.0	130.8966944381482	pulse	0.0	t		25.0	female	west_asian	2.6756864305610826	neutral	064	sub-01	2.0	3.0	064_neutral	1.0	attractiveness	152.60362114915006	
22.0	131.5049025452554	fix	1.0		177	25.0	female	west_asian	2.6756864305610826	neutral	064	sub-01	2.0	3.0	064_neutral	1.0	attractiveness	153.21182925625726	1.5082950709511351
22.0	131.59666826749344	pulse	1.0	t		25.0	female	west_asian	2.6756864305610826	neutral	064	sub-01	2.0	3.0	064_neutral	1.0	attractiveness	153.3035949784953	
22.0	132.2966411912821	pulse	1.0	t		25.0	female	west_asian	2.6756864305610826	neutral	064	sub-01	2.0	3.0	064_neutral	1.0	attractiveness	154.00356790228398	
22.0	132.99666512822296	pulse	1.0	t		25.0	female	west_asian	2.6756864305610826	neutral	064	sub-01	2.0	3.0	064_neutral	1.0	attractiveness	154.70359183922483	
22.0	133.01319761620653	rating	2.0		294	25.0	female	west_asian	2.6756864305610826	neutral	064	sub-01	2.0	3.0	064_neutral	1.0	attractiveness	154.7201243272084	2.4915944508557004
22.0	133.69665163539503	pulse	2.0	t		25.0	female	west_asian	2.6756864305610826	neutral	064	sub-01	2.0	3.0	064_neutral	1.0	attractiveness	155.4035783463969	
22.0	134.13827402274364	response	2.0	e		25.0	female	west_asian	2.6756864305610826	neutral	064	sub-01	2.0	3.0	064_neutral	1.0	attractiveness	155.84520073374551	
22.0	134.3965623774675	pulse	2.0	t		25.0	female	west_asian	2.6756864305610826	neutral	064	sub-01	2.0	3.0	064_neutral	1.0	attractiveness	156.10348908846936	
22.0	135.09658118290827	pulse	2.0	t		25.0	female	west_asian	2.6756864305610826	neutral	064	sub-01	2.0	3.0	064_neutral	1.0	attractiveness	156.80350789391014	
22.0	135.50479206706223	fix	3.0		444	25.0	female	west_asian	2.6756864305610826	neutral	064	sub-01	2.0	3.0	064_neutral	1.0	attractiveness	157.2117187780641	3.7665610885542264
22.0	135.79657704752208	pulse	3.0	t		25.0	female	west_asian	2.6756864305610826	neutral	064	sub-01	2.0	3.0	064_neutral	1.0	attractiveness	157.50350375852395	
22.0	136.49653638792552	pulse	3.0	t		25.0	female	west_asian	2.6756864305610826	neutral	064	sub-01	2.0	3.0	064_neutral	1.0	attractiveness	158.2034630989274	
22.0	137.19650810429994	pulse	3.0	t		25.0	female	west_asian	2.6756864305610826	neutral	064	sub-01	2.0	3.0	064_neutral	1.0	attractiveness	158.9034348153018	
22.0	137.8965190615636	pulse	3.0	t		25.0	female	west_asian	2.6756864305610826	neutral	064	sub-01	2.0	3.0	064_neutral	1.0	attractiveness	159.60344577256546	
22.0	138.59647870381923	pulse	3.0	t		25.0	female	west_asian	2.6756864305610826	neutral	064	sub-01	2.0	3.0	064_neutral	1.0	attractiveness	160.3034054148211	
23.0	139.27135315561645	face	0.0		145	20.0	male	black	3.1070433744528456	smiling	082	sub-01	2.0	3.0	082_smiling	0.0		160.97827986661832	1.2332994553671597
23.0	139.2964775869641	pulse	0.0	t		20.0	male	black	3.1070433744528456	smiling	082	sub-01	2.0	3.0	082_smiling	0.0		161.00340429796597	
23.0	139.99644628480928	pulse	0.0	t		20.0	male	black	3.1070433744528456	smiling	082	sub-01	2.0	3.0	082_smiling	0.0		161.70337299581115	
23.0	140.5046526109836	fix	1.0		443	20.0	male	black	3.1070433744528456	smiling	082	sub-01	2.0	3.0	082_smiling	0.0		162.21157932198548	3.7582332665533613
23.0	140.6964186048899	pulse	1.0	t		20.0	male	black	3.1070433744528456	smiling	082	sub-01	2.0	3.0	082_smiling	0.0		162.40334531589178	
23.0	141.3963933397954	pulse	1.0	t		20.0	male	black	3.1070433744528456	smiling	082	sub-01	2.0	3.0	082_smiling	0.0		163.10332005079727	
23.0	142.09637954511345	pulse	1.0	t		20.0	male	black	3.1070433744528456	smiling	082	sub-01	2.0	3.0	082_smiling	0.0		163.80330625611532	
23.0	142.7963576004022	pulse	1.0	t		20.0	male	black	3.1070433744528456	smiling	082	sub-01	2.0	3.0	082_smiling	0.0		164.50328431140406	
23.0	143.49634440942646	pulse	1.0	t		20.0	male	black	3.1070433744528456	smiling	082	sub-01	2.0	3.0	082_smiling	0.0		165.20327112042833	
23.0	144.1963420851589	pulse	1.0	t		20.0	male	black	3.1070433744528456	smiling	082	sub-01	2.0	3.0	082_smiling	0.0		165.90326879616077	
24.0	144.26288587753697	face	0.0		147	19.0	male	white	3.2522881018702745	neutral	018	sub-01	2.0	3.0	018_neutral	0.0		165.96981258853884	1.2416478033701424
24.0	144.89631953674143	pulse	0.0	t		19.0	male	white	3.2522881018702745	neutral	018	sub-01	2.0	3.0	018_neutral	0.0		166.6032462477433	
24.0	145.50453368090712	fix	1.0		443	19.0	male	white	3.2522881018702745	neutral	018	sub-01	2.0	3.0	018_neutral	0.0		167.211460391909	3.7665638052312715
24.0	145.59629578091153	pulse	1.0	t		19.0	male	white	3.2522881018702745	neutral	018	sub-01	2.0	3.0	018_neutral	0.0		167.3032224919134	
24.0	146.296270213963	pulse	1.0	t		19.0	male	white	3.2522881018702745	neutral	018	sub-01	2.0	3.0	018_neutral	0.0		168.00319692496487	
24.0	146.9962775489912	pulse	1.0	t		19.0	male	white	3.2522881018702745	neutral	018	sub-01	2.0	3.0	018_neutral	0.0		168.70320425999307	
24.0	147.69624413386555	pulse	1.0	t		19.0	male	white	3.2522881018702745	neutral	018	sub-01	2.0	3.0	018_neutral	0.0		169.40317084486742	
24.0	148.39623305586065	pulse	1.0	t		19.0	male	white	3.2522881018702745	neutral	018	sub-01	2.0	3.0	018_neutral	0.0		170.10315976686252	
24.0	149.09621382782643	pulse	1.0	t		19.0	male	white	3.2522881018702745	neutral	018	sub-01	2.0	3.0	018_neutral	0.0		170.8031405388283	
25.0	149.2710974861384	face	0.0		146	32.0	male	white	2.389176283326701	smiling	092	sub-01	2.0	3.0	092_smiling	1.0	dominance	170.97802419714026	1.2416266736618127
25.0	149.7961891664363	pulse	0.0	t		32.0	male	white	2.389176283326701	smiling	092	sub-01	2.0	3.0	092_smiling	1.0	dominance	171.50311587743818	
25.0	150.49616329763558	pulse	0.0	t		32.0	male	white	2.389176283326701	smiling	092	sub-01	2.0	3.0	092_smiling	1.0	dominance	172.20309000863745	
25.0	150.5127241598002	fix	1.0		176	32.0	male	white	2.389176283326701	smiling	092	sub-01	2.0	3.0	092_smiling	1.0	dominance	172.21965087080207	1.4916276546846348
25.0	151.19616731228052	pulse	1.0	t		32.0	male	white	2.389176283326701	smiling	092	sub-01	2.0	3.0	092_smiling	1.0	dominance	172.9030940232824	
25.0	151.89613782124434	pulse	1.0	t		32.0	male	white	2.389176283326701	smiling	092	sub-01	2.0	3.0	092_smiling	1.0	dominance	173.6030645322462	
25.0	152.00435181448483	rating	2.0		295	32.0	male	white	2.389176283326701	smiling	092	sub-01	2.0	3.0	092_smiling	1.0	dominance	173.7112785254867	2.4999328377107304
25.0	152.596110443179	pulse	2.0	t		32.0	male	white	2.389176283326701	smiling	092	sub-01	2.0	3.0	092_smiling	1.0	dominance	174.30303715418086	
25.0	153.29611083558666	pulse	2.0	t		32.0	male	white	2.389176283326701	smiling	092	sub-01	2.0	3.0	092_smiling	1.0	dominance	175.00303754658853	
25.0	153.49925427220114	response	2.0	e		32.0	male	white	2.389176283326701	smiling	092	sub-01	2.0	3.0	092_smiling	1.0	dominance	175.206180983203	
25.0	153.99606172410677	pulse	2.0	t		32.0	male	white	2.389176283326701	smiling	092	sub-01	2.0	3.0	092_smiling	1.0	dominance	175.70298843510864	
25.0	154.50428465219557	fix	3.0		443	32.0	male	white	2.389176283326701	smiling	092	sub-01	2.0	3.0	092_smiling	1.0	dominance	176.21121136319744	3.766548712581425
25.0	154.69607298322262	pulse	3.0	t		32.0	male	white	2.389176283326701	smiling	092	sub-01	2.0	3.0	092_smiling	1.0	dominance	176.4029996942245	
25.0	155.39604500145106	pulse	3.0	t		32.0	male	white	2.389176283326701	smiling	092	sub-01	2.0	3.0	092_smiling	1.0	dominance	177.10297171245293	
25.0	156.0960375456816	pulse	3.0	t		32.0	male	white	2.389176283326701	smiling	092	sub-01	2.0	3.0	092_smiling	1.0	dominance	177.80296425668348	
25.0	156.7959923582912	pulse	3.0	t		32.0	male	white	2.389176283326701	smiling	092	sub-01	2.0	3.0	092_smiling	1.0	dominance	178.50291906929306	
25.0	157.4959695080197	pulse	3.0	t		32.0	male	white	2.389176283326701	smiling	092	sub-01	2.0	3.0	092_smiling	1.0	dominance	179.20289621902157	
25.0	158.19596567448752	pulse	3.0	t		32.0	male	white	2.389176283326701	smiling	092	sub-01	2.0	3.0	092_smiling	1.0	dominance	179.9028923854894	
26.0	158.270833364777	face	0.0		146	31.0	male	west_asian	1.9538400318344609	smiling	070	sub-01	2.0	3.0	070_smiling	0.0		179.97776007577886	1.2333199813692772
26.0	158.89594855942232	pulse	0.0	t		31.0	male	west_asian	1.9538400318344609	smiling	070	sub-01	2.0	3.0	070_smiling	0.0		180.6028752704242	
26.0	159.50415334614627	fix	1.0		443	31.0	male	west_asian	1.9538400318344609	smiling	070	sub-01	2.0	3.0	070_smiling	0.0		181.21108005714814	3.758273111146991
26.0	159.5959359721528	pulse	1.0	t		31.0	male	west_asian	1.9538400318344609	smiling	070	sub-01	2.0	3.0	070_smiling	0.0		181.30286268315467	
26.0	160.29591583855836	pulse	1.0	t		31.0	male	west_asian	1.9538400318344609	smiling	070	sub-01	2.0	3.0	070_smiling	0.0		182.00284254956023	
26.0	160.99590234573043	pulse	1.0	t		31.0	male	west_asian	1.9538400318344609	smiling	070	sub-01	2.0	3.0	070_smiling	0.0		182.7028290567323	
26.0	161.69588160842977	pulse	1.0	t		31.0	male	west_asian	1.9538400318344609	smiling	070	sub-01	2.0	3.0	070_smiling	0.0		183.40280831943164	
26.0	162.3958593618645	pulse	1.0	t		31.0	male	west_asian	1.9538400318344609	smiling	070	sub-01	2.0	3.0	070_smiling	0.0		184.10278607286637	
26.0	163.09583892641785	pulse	1.0	t		31.0	male	west_asian	1.9538400318344609	smiling	070	sub-01	2.0	3.0	070_smiling	0.0		184.80276563741972	
27.0	163.26242645729326	face	0.0		147	31.0	female	east_asian	3.395941106247513	smiling	087	sub-01	2.0	3.0	087_smiling	0.0		184.96935316829513	1.249930649277303
27.0	163.7958359984441	pulse	0.0	t		31.0	female	east_asian	3.395941106247513	smiling	087	sub-01	2.0	3.0	087_smiling	0.0		185.50276270944596	
27.0	164.49581465743904	pulse	0.0	t		31.0	female	east_asian	3.395941106247513	smiling	087	sub-01	2.0	3.0	087_smiling	0.0		186.2027413684409	
27.0	164.51235710657056	fix	1.0		443	31.0	female	east_asian	3.395941106247513	smiling	087	sub-01	2.0	3.0	087_smiling	0.0		186.21928381757243	3.7582329647011647
27.0	165.1957818460196	pulse	1.0	t		31.0	female	east_asian	3.395941106247513	smiling	087	sub-01	2.0	3.0	087_smiling	0.0		186.90270855702147	
27.0	165.89578072916265	pulse	1.0	t		31.0	female	east_asian	3.395941106247513	smiling	087	sub-01	2.0	3.0	087_smiling	0.0		187.60270744016452	
27.0	166.59576089742222	pulse	1.0	t		31.0	female	east_asian	3.395941106247513	smiling	087	sub-01	2.0	3.0	087_smiling	0.0		188.3026876084241	
27.0	167.29572506747172	pulse	1.0	t		31.0	female	east_asian	3.395941106247513	smiling	087	sub-01	2.0	3.0	087_smiling	0.0		189.0026517784736	
27.0	167.99570704684993	pulse	1.0	t		31.0	female	east_asian	3.395941106247513	smiling	087	sub-01	2.0	3.0	087_smiling	0.0		189.7026337578518	
28.0	168.27059007127173	face	0.0		145	24.0	female	black	3.0955033824114606	smiling	099	sub-01	2.0	3.0	099_smiling	0.0		189.9775167822736	1.2332997572193563
28.0	168.695706231847	pulse	0.0	t		24.0	female	black	3.0955033824114606	smiling	099	sub-01	2.0	3.0	099_smiling	0.0		190.40263294284887	
28.0	169.39565379998203	pulse	0.0	t		24.0	female	black	3.0955033824114606	smiling	099	sub-01	2.0	3.0	099_smiling	0.0		191.1025805109839	
28.0	169.50388982849108	fix	1.0		444	24.0	female	black	3.0955033824114606	smiling	099	sub-01	2.0	3.0	099_smiling	0.0		191.21081653949295	3.766548712581425
28.0	170.0956656628041	pulse	1.0	t		24.0	female	black	3.0955033824114606	smiling	099	sub-01	2.0	3.0	099_smiling	0.0		191.80259237380596	
28.0	170.79564432179905	pulse	1.0	t		24.0	female	black	3.0955033824114606	smiling	099	sub-01	2.0	3.0	099_smiling	0.0		192.50257103280092	
28.0	171.49562026411513	pulse	1.0	t		24.0	female	black	3.0955033824114606	smiling	099	sub-01	2.0	3.0	099_smiling	0.0		193.202546975117	
28.0	172.19560314905175	pulse	1.0	t		24.0	female	black	3.0955033824114606	smiling	099	sub-01	2.0	3.0	099_smiling	0.0		193.90252986005362	
28.0	172.89559267475306	pulse	1.0	t		24.0	female	black	3.0955033824114606	smiling	099	sub-01	2.0	3.0	099_smiling	0.0		194.60251938575493	
29.0	173.2704385410725	face	0.0		145	54.0	female	white	2.286908077994429	neutral	136	sub-01	2.0	3.0	136_neutral	0.0		194.97736525207438	1.2333190758108685
29.0	173.5955646929815	pulse	0.0	t		54.0	female	white	2.286908077994429	neutral	136	sub-01	2.0	3.0	136_neutral	0.0		195.30249140398337	
29.0	174.29553429638509	pulse	0.0	t		54.0	female	white	2.286908077994429	neutral	136	sub-01	2.0	3.0	136_neutral	0.0		196.00246100738696	
29.0	174.50375761688338	fix	1.0		444	54.0	female	white	2.286908077994429	neutral	136	sub-01	2.0	3.0	136_neutral	0.0		196.21068432788525	3.7665665219083166
29.0	174.99552533135284	pulse	1.0	t		54.0	female	white	2.286908077994429	neutral	136	sub-01	2.0	3.0	136_neutral	0.0		196.7024520423547	
29.0	175.69551606446475	pulse	1.0	t		54.0	female	white	2.286908077994429	neutral	136	sub-01	2.0	3.0	136_neutral	0.0		197.40244277546662	
29.0	176.39548566787016	pulse	1.0	t		54.0	female	white	2.286908077994429	neutral	136	sub-01	2.0	3.0	136_neutral	0.0		198.10241237887203	
29.0	177.09547458986526	pulse	1.0	t		54.0	female	white	2.286908077994429	neutral	136	sub-01	2.0	3.0	136_neutral	0.0		198.80240130086713	
29.0	177.79546170074354	pulse	1.0	t		54.0	female	white	2.286908077994429	neutral	136	sub-01	2.0	3.0	136_neutral	0.0		199.50238841174541	
30.0	178.2703241387917	face	0.0		145	22.0	female	west_asian	3.8205332272184642	smiling	066	sub-01	2.0	3.0	066_smiling	0.0		199.97725084979356	1.2333009646317805
30.0	178.4954237578222	pulse	0.0	t		22.0	female	west_asian	3.8205332272184642	smiling	066	sub-01	2.0	3.0	066_smiling	0.0		200.20235046882408	
30.0	179.19540151125693	pulse	0.0	t		22.0	female	west_asian	3.8205332272184642	smiling	066	sub-01	2.0	3.0	066_smiling	0.0		200.9023282222588	
30.0	179.50362510342347	fix	1.0		444	22.0	female	west_asian	3.8205332272184642	smiling	066	sub-01	2.0	3.0	066_smiling	0.0		201.21055181442534	3.7665665219083166
30.0	179.89539526290173	pulse	1.0	t		22.0	female	west_asian	3.8205332272184642	smiling	066	sub-01	2.0	3.0	066_smiling	0.0		201.6023219739036	
30.0	180.59537422374888	pulse	1.0	t		22.0	female	west_asian	3.8205332272184642	smiling	066	sub-01	2.0	3.0	066_smiling	0.0		202.30230093475075	
30.0	181.29536586242102	pulse	1.0	t		22.0	female	west_asian	3.8205332272184642	smiling	066	sub-01	2.0	3.0	066_smiling	0.0		203.0022925734229	
30.0	181.9953475399434	pulse	1.0	t		22.0	female	west_asian	3.8205332272184642	smiling	066	sub-01	2.0	3.0	066_smiling	0.0		203.70227425094527	
30.0	182.6953225767029	pulse	1.0	t		22.0	female	west_asian	3.8205332272184642	smiling	066	sub-01	2.0	3.0	066_smiling	0.0		204.40224928770476	
31.0	183.2701916253318	face	0.0		145	28.0	female	white	5.676880222841227	smiling	124	sub-01	2.0	3.0	124_smiling	1.0	attractiveness	204.97711833633366	1.233313944308975
31.0	183.39531572463966	pulse	0.0	t		28.0	female	white	5.676880222841227	smiling	124	sub-01	2.0	3.0	124_smiling	1.0	attractiveness	205.10224243564153	
31.0	184.09529287436817	pulse	0.0	t		28.0	female	white	5.676880222841227	smiling	124	sub-01	2.0	3.0	124_smiling	1.0	attractiveness	205.80221958537004	
31.0	184.50350556964077	fix	1.0		177	28.0	female	white	5.676880222841227	smiling	124	sub-01	2.0	3.0	124_smiling	1.0	attractiveness	206.21043228064264	1.4999503451836063
31.0	184.79527455189236	pulse	1.0	t		28.0	female	white	5.676880222841227	smiling	124	sub-01	2.0	3.0	124_smiling	1.0	attractiveness	206.50220126289423	
31.0	185.49524385344375	pulse	1.0	t		28.0	female	white	5.676880222841227	smiling	124	sub-01	2.0	3.0	124_smiling	1.0	attractiveness	207.20217056444562	
31.0	186.00345591482437	rating	2.0		294	28.0	female	white	5.676880222841227	smiling	124	sub-01	2.0	3.0	124_smiling	1.0	attractiveness	207.71038262582624	2.4999322340063372
31.0	186.19523337914507	pulse	2.0	t		28.0	female	white	5.676880222841227	smiling	124	sub-01	2.0	3.0	124_smiling	1.0	attractiveness	207.90216009014694	
31.0	186.89521415111085	pulse	2.0	t		28.0	female	white	5.676880222841227	smiling	124	sub-01	2.0	3.0	124_smiling	1.0	attractiveness	208.60214086211272	
31.0	187.1868675236674	response	2.0	e		28.0	female	white	5.676880222841227	smiling	124	sub-01	2.0	3.0	124_smiling	1.0	attractiveness	208.89379423466926	
31.0	187.59518948972072	pulse	2.0	t		28.0	female	white	5.676880222841227	smiling	124	sub-01	2.0	3.0	124_smiling	1.0	attractiveness	209.3021162007226	
31.0	188.2951699598325	pulse	2.0	t		28.0	female	white	5.676880222841227	smiling	124	sub-01	2.0	3.0	124_smiling	1.0	attractiveness	210.00209667083436	
31.0	188.5033881488307	fix	3.0		444	28.0	female	white	5.676880222841227	smiling	124	sub-01	2.0	3.0	124_smiling	1.0	attractiveness	210.21031485983258	3.7665659182021045
31.0	188.99516823927115	pulse	3.0	t		28.0	female	white	5.676880222841227	smiling	124	sub-01	2.0	3.0	124_smiling	1.0	attractiveness	210.70209495027302	
31.0	189.69514508714747	pulse	3.0	t		28.0	female	white	5.676880222841227	smiling	124	sub-01	2.0	3.0	124_smiling	1.0	attractiveness	211.40207179814934	
31.0	190.39512676467166	pulse	3.0	t		28.0	female	white	5.676880222841227	smiling	124	sub-01	2.0	3.0	124_smiling	1.0	attractiveness	212.10205347567353	
31.0	191.09510995146047	pulse	3.0	t		28.0	female	white	5.676880222841227	smiling	124	sub-01	2.0	3.0	124_smiling	1.0	attractiveness	212.80203666246234	
31.0	191.79507925301186	pulse	3.0	t		28.0	female	white	5.676880222841227	smiling	124	sub-01	2.0	3.0	124_smiling	1.0	attractiveness	213.50200596401373	
32.0	192.2699540670328	face	0.0		145	23.0	male	white	2.6275368085953046	neutral	141	sub-01	2.0	3.0	141_neutral	0.0		213.97688077803468	1.2333018701901892
32.0	192.49506696759454	pulse	0.0	t		23.0	male	white	2.6275368085953046	neutral	141	sub-01	2.0	3.0	141_neutral	0.0		214.2019936785964	
32.0	193.19505105994176	pulse	0.0	t		23.0	male	white	2.6275368085953046	neutral	141	sub-01	2.0	3.0	141_neutral	0.0		214.90197777094363	
32.0	193.503255937223	fix	1.0		444	23.0	male	white	2.6275368085953046	neutral	141	sub-01	2.0	3.0	141_neutral	0.0		215.21018264822487	3.7665695404375583
32.0	193.89502790781808	pulse	1.0	t		23.0	male	white	2.6275368085953046	neutral	141	sub-01	2.0	3.0	141_neutral	0.0		215.60195461881995	
32.0	194.59500113345894	pulse	1.0	t		23.0	male	white	2.6275368085953046	neutral	141	sub-01	2.0	3.0	141_neutral	0.0		216.3019278444608	
32.0	195.2949933758373	pulse	1.0	t		23.0	male	white	2.6275368085953046	neutral	141	sub-01	2.0	3.0	141_neutral	0.0		217.00192008683916	
32.0	195.9949825996846	pulse	1.0	t		23.0	male	white	2.6275368085953046	neutral	141	sub-01	2.0	3.0	141_neutral	0.0		217.70190931068646	
32.0	196.69496246609197	pulse	1.0	t		23.0	male	white	2.6275368085953046	neutral	141	sub-01	2.0	3.0	141_neutral	0.0		218.40188917709384	
33.0	197.26982547766056	face	0.0		145	34.0	male	white	2.651014723438122	smiling	121	sub-01	2.0	3.0	121_smiling	0.0		218.97675218866243	1.2333000590733718
33.0	197.39493750284964	pulse	0.0	t		34.0	male	white	2.651014723438122	smiling	121	sub-01	2.0	3.0	121_smiling	0.0		219.1018642138515	
33.0	198.09491253960732	pulse	0.0	t		34.0	male	white	2.651014723438122	smiling	121	sub-01	2.0	3.0	121_smiling	0.0		219.8018392506092	
33.0	198.50312553673393	fix	1.0		444	34.0	male	white	2.651014723438122	smiling	121	sub-01	2.0	3.0	121_smiling	0.0		220.2100522477358	3.7665680311729375
33.0	198.79489874492538	pulse	1.0	t		34.0	male	white	2.651014723438122	smiling	121	sub-01	2.0	3.0	121_smiling	0.0		220.50182545592725	
33.0	199.49487227242025	pulse	1.0	t		34.0	male	white	2.651014723438122	smiling	121	sub-01	2.0	3.0	121_smiling	0.0		221.20179898342212	
33.0	200.19484881844255	pulse	1.0	t		34.0	male	white	2.651014723438122	smiling	121	sub-01	2.0	3.0	121_smiling	0.0		221.90177552944442	
33.0	200.89485615347076	pulse	1.0	t		34.0	male	white	2.651014723438122	smiling	121	sub-01	2.0	3.0	121_smiling	0.0		222.60178286447263	
33.0	201.59482666243275	pulse	1.0	t		34.0	male	white	2.651014723438122	smiling	121	sub-01	2.0	3.0	121_smiling	0.0		223.30175337343462	
34.0	202.26969356790687	face	0.0		145	31.0	female	west_asian	2.364902506963788	neutral	006	sub-01	2.0	3.0	006_neutral	0.0		223.97662027890874	1.2333015683361737
34.0	202.2948183011049	pulse	0.0	t		31.0	female	west_asian	2.364902506963788	neutral	006	sub-01	2.0	3.0	006_neutral	0.0		224.00174501210677	
34.0	202.9947873008041	pulse	0.0	t		31.0	female	west_asian	2.364902506963788	neutral	006	sub-01	2.0	3.0	006_neutral	0.0		224.70171401180596	
34.0	203.50299513624304	fix	1.0		443	31.0	female	west_asian	2.364902506963788	neutral	006	sub-01	2.0	3.0	006_neutral	0.0		225.2099218472449	3.7665665219083166
34.0	203.6947563005033	pulse	1.0	t		31.0	female	west_asian	2.364902506963788	neutral	006	sub-01	2.0	3.0	006_neutral	0.0		225.40168301150516	
34.0	204.39475035399846	pulse	1.0	t		31.0	female	west_asian	2.364902506963788	neutral	006	sub-01	2.0	3.0	006_neutral	0.0		226.10167706500033	
34.0	205.09473444634568	pulse	1.0	t		31.0	female	west_asian	2.364902506963788	neutral	006	sub-01	2.0	3.0	006_neutral	0.0		226.80166115734755	
34.0	205.79473393319677	pulse	1.0	t		31.0	female	west_asian	2.364902506963788	neutral	006	sub-01	2.0	3.0	006_neutral	0.0		227.50166064419864	
34.0	206.49470232918975	pulse	1.0	t		31.0	female	west_asian	2.364902506963788	neutral	006	sub-01	2.0	3.0	006_neutral	0.0		228.20162904019162	
34.0	207.19468129003508	pulse	1.0	t		31.0	female	west_asian	2.364902506963788	neutral	006	sub-01	2.0	3.0	006_neutral	0.0		228.90160800103695	
35.0	207.26956165815136	face	0.0		146	27.0	female	white	4.181058495821727	neutral	039	sub-01	2.0	3.0	039_neutral	0.0		228.97648836915323	1.2332997572193563
35.0	207.8946587416176	pulse	0.0	t		27.0	female	white	4.181058495821727	neutral	039	sub-01	2.0	3.0	039_neutral	0.0		229.60158545261947	
35.0	208.50286141537072	fix	1.0		443	27.0	female	white	4.181058495821727	neutral	039	sub-01	2.0	3.0	039_neutral	0.0		230.2097881263726	3.766568936733165
35.0	208.59464313581884	pulse	1.0	t		27.0	female	white	4.181058495821727	neutral	039	sub-01	2.0	3.0	039_neutral	0.0		230.3015698468207	
35.0	209.29461394663485	pulse	1.0	t		27.0	female	white	4.181058495821727	neutral	039	sub-01	2.0	3.0	039_neutral	0.0		231.00154065763672	
35.0	209.99459803898208	pulse	1.0	t		27.0	female	white	4.181058495821727	neutral	039	sub-01	2.0	3.0	039_neutral	0.0		231.70152474998395	
35.0	210.69458364059574	pulse	1.0	t		27.0	female	white	4.181058495821727	neutral	039	sub-01	2.0	3.0	039_neutral	0.0		232.4015103515976	
35.0	211.39457527926788	pulse	1.0	t		27.0	female	white	4.181058495821727	neutral	039	sub-01	2.0	3.0	039_neutral	0.0		233.10150199026975	
35.0	212.09456118273374	pulse	1.0	t		27.0	female	white	4.181058495821727	neutral	039	sub-01	2.0	3.0	039_neutral	0.0		233.8014878937356	
36.0	212.26943035210388	face	0.0		146	37.0	male	white	3.898925586947871	neutral	101	sub-01	2.0	3.0	101_neutral	0.0		233.97635706310575	1.241643879280673
36.0	212.79454044543309	pulse	0.0	t		37.0	male	white	3.898925586947871	neutral	101	sub-01	2.0	3.0	101_neutral	0.0		234.50146715643496	
36.0	213.49452061369266	pulse	0.0	t		37.0	male	white	3.898925586947871	neutral	101	sub-01	2.0	3.0	101_neutral	0.0		235.20144732469453	
36.0	213.51107423138455	fix	1.0		443	37.0	male	white	3.898925586947871	neutral	101	sub-01	2.0	3.0	101_neutral	0.0		235.21800094238642	3.758227229494878
36.0	214.19450380048147	pulse	1.0	t		37.0	male	white	3.898925586947871	neutral	101	sub-01	2.0	3.0	101_neutral	0.0		235.90143051148334	
36.0	214.89446646126635	pulse	1.0	t		37.0	male	white	3.898925586947871	neutral	101	sub-01	2.0	3.0	101_neutral	0.0		236.60139317226822	
36.0	215.59445568511546	pulse	1.0	t		37.0	male	white	3.898925586947871	neutral	101	sub-01	2.0	3.0	101_neutral	0.0		237.30138239611733	
36.0	216.29443766449185	pulse	1.0	t		37.0	male	white	3.898925586947871	neutral	101	sub-01	2.0	3.0	101_neutral	0.0		238.00136437549372	
36.0	216.99442477537013	pulse	1.0	t		37.0	male	white	3.898925586947871	neutral	101	sub-01	2.0	3.0	101_neutral	0.0		238.701351486372	
37.0	217.26930146087943	face	0.0		145	31.0	female	white	2.1822522881018704	smiling	102	sub-01	2.0	3.0	102_smiling	0.0		238.9762281718813	1.2333060961318552
37.0	217.69440222695084	pulse	0.0	t		31.0	female	white	2.1822522881018704	smiling	102	sub-01	2.0	3.0	102_smiling	0.0		239.4013289379527	
37.0	218.39439175265215	pulse	0.0	t		31.0	female	white	2.1822522881018704	smiling	102	sub-01	2.0	3.0	102_smiling	0.0		240.10131846365402	
37.0	218.5026075570113	fix	1.0		444	31.0	female	white	2.1822522881018704	smiling	102	sub-01	2.0	3.0	102_smiling	0.0		240.20953426801316	3.7665580700249848
37.0	219.09436467644082	pulse	1.0	t		31.0	female	white	2.1822522881018704	smiling	102	sub-01	2.0	3.0	102_smiling	0.0		240.8012913874427	
37.0	219.79433820393388	pulse	1.0	t		31.0	female	white	2.1822522881018704	smiling	102	sub-01	2.0	3.0	102_smiling	0.0		241.50126491493575	
37.0	220.49432199442708	pulse	1.0	t		31.0	female	white	2.1822522881018704	smiling	102	sub-01	2.0	3.0	102_smiling	0.0		242.20124870542895	
37.0	221.1943178590427	pulse	1.0	t		31.0	female	white	2.1822522881018704	smiling	102	sub-01	2.0	3.0	102_smiling	0.0		242.90124457004458	
37.0	221.89428595318168	pulse	1.0	t		31.0	female	white	2.1822522881018704	smiling	102	sub-01	2.0	3.0	102_smiling	0.0		243.60121266418355	
38.0	222.26916562703627	face	0.0		145	26.0	female	white	4.854755272582572	smiling	027	sub-01	2.0	3.0	027_smiling	0.0		243.97609233803814	1.2333130387505662
38.0	222.5942893641204	pulse	0.0	t		26.0	female	white	4.854755272582572	smiling	027	sub-01	2.0	3.0	027_smiling	0.0		244.30121607512228	
38.0	223.29426621199673	pulse	0.0	t		26.0	female	white	4.854755272582572	smiling	027	sub-01	2.0	3.0	027_smiling	0.0		245.0011929229986	
38.0	223.50247866578684	fix	1.0		444	26.0	female	white	4.854755272582572	smiling	027	sub-01	2.0	3.0	027_smiling	0.0		245.2094053767887	3.766558070023166
38.0	223.9942521154626	pulse	1.0	t		26.0	female	white	4.854755272582572	smiling	027	sub-01	2.0	3.0	027_smiling	0.0		245.70117882646446	
38.0	224.69422202071837	pulse	1.0	t		26.0	female	white	4.854755272582572	smiling	027	sub-01	2.0	3.0	027_smiling	0.0		246.40114873172024	
38.0	225.39420158527173	pulse	1.0	t		26.0	female	white	4.854755272582572	smiling	027	sub-01	2.0	3.0	027_smiling	0.0		247.1011282962736	
38.0	226.0942004684166	pulse	1.0	t		26.0	female	white	4.854755272582572	smiling	027	sub-01	2.0	3.0	027_smiling	0.0		247.80112717941847	
38.0	226.79417369405564	pulse	1.0	t		26.0	female	white	4.854755272582572	smiling	027	sub-01	2.0	3.0	027_smiling	0.0		248.5011004050575	
39.0	227.26903673581	face	0.0		145	40.0	male	white	1.868682849184242	smiling	172	sub-01	2.0	3.0	172_smiling	0.0		248.97596344681187	1.2333003609255684
39.0	227.49414450487347	pulse	0.0	t		40.0	male	white	1.868682849184242	smiling	172	sub-01	2.0	3.0	172_smiling	0.0		249.20107121587534	
39.0	228.19411923977714	pulse	0.0	t		40.0	male	white	1.868682849184242	smiling	172	sub-01	2.0	3.0	172_smiling	0.0		249.901045950779	
39.0	228.50233709673557	fix	1.0		444	40.0	male	white	1.868682849184242	smiling	172	sub-01	2.0	3.0	172_smiling	0.0		250.20926380773744	3.7498991056399973
39.0	228.90244896345212	pulse	1.0	t		40.0	male	white	1.868682849184242	smiling	172	sub-01	2.0	3.0	172_smiling	0.0		250.609375674454	
39.0	229.6024179631513	pulse	1.0	t		40.0	male	white	1.868682849184242	smiling	172	sub-01	2.0	3.0	172_smiling	0.0		251.30934467415318	
39.0	230.2940757427623	pulse	1.0	t		40.0	male	white	1.868682849184242	smiling	172	sub-01	2.0	3.0	172_smiling	0.0		252.00100245376416	
39.0	230.99405440175724	pulse	1.0	t		40.0	male	white	1.868682849184242	smiling	172	sub-01	2.0	3.0	172_smiling	0.0		252.7009811127591	
39.0	231.69403004222113	pulse	1.0	t		40.0	male	white	1.868682849184242	smiling	172	sub-01	2.0	3.0	172_smiling	0.0		253.400956753223	
40.0	232.25223620237557	fix	0.0		720													253.95916291337744	5.999840621625481
40.0	232.4023476917755	pulse	0.0	t														254.10927440277737	
40.0	233.0939927935633	pulse	0.0	t														254.80091950456517	
40.0	233.79398020629378	pulse	0.0	t														255.50090691729565	
40.0	234.4939519226682	pulse	0.0	t														256.2008786336701	
40.0	235.19424390505992	pulse	0.0	t														256.9011706160618	
40.0	235.8939412370728	pulse	0.0	t														257.60086794807467	
40.0	236.60223654950642	pulse	0.0	t														258.3091632605083	
40.0	237.30220705847023	pulse	0.0	t														259.0091337694721	
40.0	238.00219084896526	pulse	0.0	t														259.7091175599671	
