trial_nr	onset	event_type	phase	response	nr_frames	face_age	face_sex	face_eth	attractiveness	expression	face_id	sub_id	ses	run	trial_type	catch	rating_type	onset_abs	duration
-1.0	0.05870602013965254	fix	0.0		713													95.02762098234598	5.991208857547463
-1.0	0.7001832242640376	pulse	0.0	t														95.66909818647036	
-1.0	1.4001563594210893	pulse	0.0	t														96.36907132162742	
-1.0	2.1001240612386027	pulse	0.0	t														97.06903902344493	
-1.0	2.800118627899792	pulse	0.0	t														97.76903359010612	
-1.0	3.500103535290691	pulse	0.0	t														98.46901849749702	
-1.0	4.200068822290632	pulse	0.0	t														99.16898378449696	
-1.0	4.900066105623409	pulse	0.0	t														99.86898106782974	
-1.0	5.600036222258495	pulse	0.0	t														100.56895118446482	
0.0	6.049914877687115	face	0.0		140	19.0	male	white	3.2522881018702745	neutral	018	sub-11	2.0	1.0	018_neutral	1.0	attractiveness	101.01882983989344	1.1999598536640406
0.0	6.300022638912196	pulse	0.0	t		19.0	male	white	3.2522881018702745	neutral	018	sub-11	2.0	1.0	018_neutral	1.0	attractiveness	101.26893760111852	
0.0	7.000002112963557	pulse	0.0	t		19.0	male	white	3.2522881018702745	neutral	018	sub-11	2.0	1.0	018_neutral	1.0	attractiveness	101.96891707516988	
0.0	7.249874731351156	fix	1.0		177	19.0	male	white	3.2522881018702745	neutral	018	sub-11	2.0	1.0	018_neutral	1.0	attractiveness	102.21878969355748	1.5083196493687865
0.0	7.699974946270231	pulse	1.0	t		19.0	male	white	3.2522881018702745	neutral	018	sub-11	2.0	1.0	018_neutral	1.0	attractiveness	102.66888990847656	
0.0	8.399959551807115	pulse	1.0	t		19.0	male	white	3.2522881018702745	neutral	018	sub-11	2.0	1.0	018_neutral	1.0	attractiveness	103.36887451401344	
0.0	8.758194380719942	rating	2.0		293	19.0	male	white	3.2522881018702745	neutral	018	sub-11	2.0	1.0	018_neutral	1.0	attractiveness	103.72710934292627	2.491567156070232
0.0	9.099944157347636	pulse	2.0	t		19.0	male	white	3.2522881018702745	neutral	018	sub-11	2.0	1.0	018_neutral	1.0	attractiveness	104.06885911955396	
0.0	9.799919103617867	pulse	2.0	t		19.0	male	white	3.2522881018702745	neutral	018	sub-11	2.0	1.0	018_neutral	1.0	attractiveness	104.7688340658242	
0.0	10.044692231531371	response	2.0	y		19.0	male	white	3.2522881018702745	neutral	018	sub-11	2.0	1.0	018_neutral	1.0	attractiveness	105.0136071937377	
0.0	10.499882881358644	pulse	2.0	t		19.0	male	white	3.2522881018702745	neutral	018	sub-11	2.0	1.0	018_neutral	1.0	attractiveness	105.46879784356497	
0.0	11.19986537393197	pulse	2.0	t		19.0	male	white	3.2522881018702745	neutral	018	sub-11	2.0	1.0	018_neutral	1.0	attractiveness	106.1687803361383	
0.0	11.249761536790174	fix	3.0		444	19.0	male	white	3.2522881018702745	neutral	018	sub-11	2.0	1.0	018_neutral	1.0	attractiveness	106.2186764989965	3.766555987538595
0.0	11.89985722392521	pulse	3.0	t		19.0	male	white	3.2522881018702745	neutral	018	sub-11	2.0	1.0	018_neutral	1.0	attractiveness	106.86877218613154	
0.0	12.599834283158998	pulse	3.0	t		19.0	male	white	3.2522881018702745	neutral	018	sub-11	2.0	1.0	018_neutral	1.0	attractiveness	107.56874924536532	
0.0	13.299810436838015	pulse	3.0	t		19.0	male	white	3.2522881018702745	neutral	018	sub-11	2.0	1.0	018_neutral	1.0	attractiveness	108.26872539904434	
0.0	13.999792325710587	pulse	3.0	t		19.0	male	white	3.2522881018702745	neutral	018	sub-11	2.0	1.0	018_neutral	1.0	attractiveness	108.96870728791691	
0.0	14.699771196057554	pulse	3.0	t		19.0	male	white	3.2522881018702745	neutral	018	sub-11	2.0	1.0	018_neutral	1.0	attractiveness	109.66868615826388	
1.0	15.01631752432877	face	0.0		145	27.0	male	black	3.5523278949462798	smiling	042	sub-11	2.0	1.0	042_smiling	0.0		109.9852324865351	1.2332964067500143
1.0	15.399755197893683	pulse	0.0	t		27.0	male	black	3.5523278949462798	smiling	042	sub-11	2.0	1.0	042_smiling	0.0		110.36867016010001	
1.0	16.099728936755128	pulse	0.0	t		27.0	male	black	3.5523278949462798	smiling	042	sub-11	2.0	1.0	042_smiling	0.0		111.06864389896145	
1.0	16.249613931078784	fix	1.0		445	27.0	male	black	3.5523278949462798	smiling	042	sub-11	2.0	1.0	042_smiling	0.0		111.21852889328511	3.766556893097004
1.0	16.79971263673724	pulse	1.0	t		27.0	male	black	3.5523278949462798	smiling	042	sub-11	2.0	1.0	042_smiling	0.0		111.76862759894357	
1.0	17.49968697930308	pulse	1.0	t		27.0	male	black	3.5523278949462798	smiling	042	sub-11	2.0	1.0	042_smiling	0.0		112.4686019415094	
1.0	18.199675508920336	pulse	1.0	t		27.0	male	black	3.5523278949462798	smiling	042	sub-11	2.0	1.0	042_smiling	0.0		113.16859047112666	
1.0	18.89962811813166	pulse	1.0	t		27.0	male	black	3.5523278949462798	smiling	042	sub-11	2.0	1.0	042_smiling	0.0		113.86854308033799	
1.0	19.59963294776753	pulse	1.0	t		27.0	male	black	3.5523278949462798	smiling	042	sub-11	2.0	1.0	042_smiling	0.0		114.56854790997386	
2.0	20.016170824175788	face	0.0		145	19.0	male	white	3.2522881018702745	smiling	018	sub-11	2.0	1.0	018_smiling	0.0		114.98508578638211	1.2332976141624385
2.0	20.299608497742156	pulse	0.0	t		19.0	male	white	3.2522881018702745	smiling	018	sub-11	2.0	1.0	018_smiling	0.0		115.26852345994848	
2.0	20.99958042549042	pulse	0.0	t		19.0	male	white	3.2522881018702745	smiling	018	sub-11	2.0	1.0	018_smiling	0.0		115.96849538769675	
2.0	21.249468438338226	fix	1.0		445	19.0	male	white	3.2522881018702745	smiling	018	sub-11	2.0	1.0	018_smiling	0.0		116.21838340054455	3.7582109825889347
2.0	21.699572275480023	pulse	1.0	t		19.0	male	white	3.2522881018702745	smiling	018	sub-11	2.0	1.0	018_smiling	0.0		116.66848723768635	
2.0	22.399552353239415	pulse	1.0	t		19.0	male	white	3.2522881018702745	smiling	018	sub-11	2.0	1.0	018_smiling	0.0		117.36846731544574	
2.0	23.099530921736005	pulse	1.0	t		19.0	male	white	3.2522881018702745	smiling	018	sub-11	2.0	1.0	018_smiling	0.0		118.06844588394233	
2.0	23.799504962447827	pulse	1.0	t		19.0	male	white	3.2522881018702745	smiling	018	sub-11	2.0	1.0	018_smiling	0.0		118.76841992465415	
2.0	24.49948141798086	pulse	1.0	t		19.0	male	white	3.2522881018702745	smiling	018	sub-11	2.0	1.0	018_smiling	0.0		119.46839638018719	
3.0	25.00767942092716	face	0.0		146	31.0	female	east_asian	3.395941106247513	smiling	087	sub-11	2.0	1.0	087_smiling	0.0		119.97659438313349	1.2416423172580835
3.0	25.199466929076152	pulse	0.0	t		31.0	female	east_asian	3.395941106247513	smiling	087	sub-11	2.0	1.0	087_smiling	0.0		120.16838189128248	
3.0	25.89945455313864	pulse	0.0	t		31.0	female	east_asian	3.395941106247513	smiling	087	sub-11	2.0	1.0	087_smiling	0.0		120.86836951534497	
3.0	26.249321738185245	fix	1.0		445	31.0	female	east_asian	3.395941106247513	smiling	087	sub-11	2.0	1.0	087_smiling	0.0		121.21823670039157	3.766521576391824
3.0	26.599424669773725	pulse	1.0	t		31.0	female	east_asian	3.395941106247513	smiling	087	sub-11	2.0	1.0	087_smiling	0.0		121.56833963198005	
3.0	27.299399616043956	pulse	1.0	t		31.0	female	east_asian	3.395941106247513	smiling	087	sub-11	2.0	1.0	087_smiling	0.0		122.26831457825028	
3.0	27.999383919730462	pulse	1.0	t		31.0	female	east_asian	3.395941106247513	smiling	087	sub-11	2.0	1.0	087_smiling	0.0		122.96829888193679	
3.0	28.699359771555464	pulse	1.0	t		31.0	female	east_asian	3.395941106247513	smiling	087	sub-11	2.0	1.0	087_smiling	0.0		123.66827473376179	
3.0	29.39934045301925	pulse	1.0	t		31.0	female	east_asian	3.395941106247513	smiling	087	sub-11	2.0	1.0	087_smiling	0.0		124.36825541522558	
4.0	30.01584331457707	face	0.0		145	27.0	male	black	3.5523278949462798	neutral	042	sub-11	2.0	1.0	042_neutral	0.0		124.9847582767834	1.2333320253055717
4.0	30.099323851150984	pulse	0.0	t		27.0	male	black	3.5523278949462798	neutral	042	sub-11	2.0	1.0	042_neutral	0.0		125.06823881335731	
4.0	30.799291251114482	pulse	0.0	t		27.0	male	black	3.5523278949462798	neutral	042	sub-11	2.0	1.0	042_neutral	0.0		125.76820621332081	
4.0	31.24917533988264	fix	1.0		445	27.0	male	black	3.5523278949462798	neutral	042	sub-11	2.0	1.0	042_neutral	0.0		126.21809030208897	3.7748886165536533
4.0	31.49928310110772	pulse	1.0	t		27.0	male	black	3.5523278949462798	neutral	042	sub-11	2.0	1.0	042_neutral	0.0		126.46819806331405	
4.0	32.19926378256787	pulse	1.0	t		27.0	male	black	3.5523278949462798	neutral	042	sub-11	2.0	1.0	042_neutral	0.0		127.1681787447742	
4.0	32.89924416217764	pulse	1.0	t		27.0	male	black	3.5523278949462798	neutral	042	sub-11	2.0	1.0	042_neutral	0.0		127.86815912438396	
4.0	33.59921548622151	pulse	1.0	t		27.0	male	black	3.5523278949462798	neutral	042	sub-11	2.0	1.0	042_neutral	0.0		128.56813044842784	
4.0	34.29918982878735	pulse	1.0	t		27.0	male	black	3.5523278949462798	neutral	042	sub-11	2.0	1.0	042_neutral	0.0		129.26810479099368	
4.0	34.999177452849835	pulse	1.0	t		27.0	male	black	3.5523278949462798	neutral	042	sub-11	2.0	1.0	042_neutral	0.0		129.96809241505616	
5.0	35.024063956436294	face	0.0		146	20.0	female	white	3.9502586549940313	neutral	091	sub-11	2.0	1.0	091_neutral	0.0		129.99297891864262	1.2333009345347818
5.0	35.69916024727718	pulse	0.0	t		20.0	female	white	3.9502586549940313	neutral	091	sub-11	2.0	1.0	091_neutral	0.0		130.6680752094835	
5.0	36.257364890971076	fix	1.0		443	20.0	female	white	3.9502586549940313	neutral	091	sub-11	2.0	1.0	091_neutral	0.0		131.2262798531774	3.758219132596423
5.0	36.39913157132105	pulse	1.0	t		20.0	female	white	3.9502586549940313	neutral	091	sub-11	2.0	1.0	091_neutral	0.0		131.36804653352738	
5.0	37.09911466759877	pulse	1.0	t		20.0	female	white	3.9502586549940313	neutral	091	sub-11	2.0	1.0	091_neutral	0.0		132.0680296298051	
5.0	37.79909504720854	pulse	1.0	t		20.0	female	white	3.9502586549940313	neutral	091	sub-11	2.0	1.0	091_neutral	0.0		132.76801000941487	
5.0	38.49909655646843	pulse	1.0	t		20.0	female	white	3.9502586549940313	neutral	091	sub-11	2.0	1.0	091_neutral	0.0		133.46801151867476	
5.0	39.19905550457406	pulse	1.0	t		20.0	female	white	3.9502586549940313	neutral	091	sub-11	2.0	1.0	091_neutral	0.0		134.1679704667804	
5.0	39.899063956436294	pulse	1.0	t		20.0	female	white	3.9502586549940313	neutral	091	sub-11	2.0	1.0	091_neutral	0.0		134.86797891864262	
6.0	40.0155840235675	face	0.0		147	20.0	male	black	2.609629924393156	smiling	043	sub-11	2.0	1.0	043_smiling	0.0		134.98449898577383	1.2416311487286293
6.0	40.59901807490678	pulse	0.0	t		20.0	male	black	2.609629924393156	smiling	043	sub-11	2.0	1.0	043_smiling	0.0		135.5679330371131	
6.0	41.25721517229613	fix	1.0		444	20.0	male	black	2.609629924393156	smiling	043	sub-11	2.0	1.0	043_smiling	0.0		136.22613013450245	3.7583519475483627
6.0	41.29899030450906	pulse	1.0	t		20.0	male	black	2.609629924393156	smiling	043	sub-11	2.0	1.0	043_smiling	0.0		136.2679052667154	
6.0	41.99897279708239	pulse	1.0	t		20.0	male	black	2.609629924393156	smiling	043	sub-11	2.0	1.0	043_smiling	0.0		136.96788775928871	
6.0	42.698950761874585	pulse	1.0	t		20.0	male	black	2.609629924393156	smiling	043	sub-11	2.0	1.0	043_smiling	0.0		137.6678657240809	
6.0	43.398931141484354	pulse	1.0	t		20.0	male	black	2.609629924393156	smiling	043	sub-11	2.0	1.0	043_smiling	0.0		138.36784610369068	
6.0	44.0989048803458	pulse	1.0	t		20.0	male	black	2.609629924393156	smiling	043	sub-11	2.0	1.0	043_smiling	0.0		139.06781984255213	
6.0	44.7988822414336	pulse	1.0	t		20.0	male	black	2.609629924393156	smiling	043	sub-11	2.0	1.0	043_smiling	0.0		139.76779720363993	
7.0	45.01556711984449	face	0.0		146	54.0	female	white	2.286908077994429	neutral	136	sub-11	2.0	1.0	136_neutral	0.0		139.98448208205082	1.2415022578570643
7.0	45.49887167660563	pulse	0.0	t		54.0	female	white	2.286908077994429	neutral	136	sub-11	2.0	1.0	136_neutral	0.0		140.46778663881196	
7.0	46.198849943251844	pulse	0.0	t		54.0	female	white	2.286908077994429	neutral	136	sub-11	2.0	1.0	136_neutral	0.0		141.16776490545817	
7.0	46.257069377701555	fix	1.0		445	54.0	female	white	2.286908077994429	neutral	136	sub-11	2.0	1.0	136_neutral	0.0		141.22598433990788	3.7582900678535225
7.0	46.89883303952956	pulse	1.0	t		54.0	female	white	2.286908077994429	neutral	136	sub-11	2.0	1.0	136_neutral	0.0		141.8677480017359	
7.0	47.598843302501336	pulse	1.0	t		54.0	female	white	2.286908077994429	neutral	136	sub-11	2.0	1.0	136_neutral	0.0		142.56775826470766	
7.0	48.298784743183205	pulse	1.0	t		54.0	female	white	2.286908077994429	neutral	136	sub-11	2.0	1.0	136_neutral	0.0		143.26769970538953	
7.0	48.99876240612139	pulse	1.0	t		54.0	female	white	2.286908077994429	neutral	136	sub-11	2.0	1.0	136_neutral	0.0		143.9676773683277	
7.0	49.69874580425312	pulse	1.0	t		54.0	female	white	2.286908077994429	neutral	136	sub-11	2.0	1.0	136_neutral	0.0		144.66766076645945	
8.0	50.01535944555508	face	0.0		146	22.0	female	white	4.614007162753682	smiling	009	sub-11	2.0	1.0	009_smiling	0.0		144.9842744077614	1.2415653449570527
8.0	50.39873010793963	pulse	0.0	t		22.0	female	white	4.614007162753682	smiling	009	sub-11	2.0	1.0	009_smiling	0.0		145.36764507014595	
8.0	51.09870113013312	pulse	0.0	t		22.0	female	white	4.614007162753682	smiling	009	sub-11	2.0	1.0	009_smiling	0.0		146.06761609233945	
8.0	51.25692479051213	fix	1.0		445	22.0	female	white	4.614007162753682	smiling	009	sub-11	2.0	1.0	009_smiling	0.0		146.22583975271846	3.7582807104408857
8.0	51.79868875419561	pulse	1.0	t		22.0	female	white	4.614007162753682	smiling	009	sub-11	2.0	1.0	009_smiling	0.0		146.76760371640194	
8.0	52.49866279490743	pulse	1.0	t		22.0	female	white	4.614007162753682	smiling	009	sub-11	2.0	1.0	009_smiling	0.0		147.46757775711376	
8.0	53.19863260969214	pulse	1.0	t		22.0	female	white	4.614007162753682	smiling	009	sub-11	2.0	1.0	009_smiling	0.0		148.16754757189847	
8.0	53.89863532636082	pulse	1.0	t		22.0	female	white	4.614007162753682	smiling	009	sub-11	2.0	1.0	009_smiling	0.0		148.86755028856714	
8.0	54.59859487817084	pulse	1.0	t		22.0	female	white	4.614007162753682	smiling	009	sub-11	2.0	1.0	009_smiling	0.0		149.56750984037717	
9.0	55.015205500953016	face	0.0		146	24.0	male	white	3.1153999204138483	smiling	012	sub-11	2.0	1.0	012_smiling	0.0		149.98412046315934	1.2415710801469686
9.0	55.29858612445969	pulse	0.0	t		24.0	male	white	3.1153999204138483	smiling	012	sub-11	2.0	1.0	012_smiling	0.0		150.26750108666602	
9.0	55.99856197628469	pulse	0.0	t		24.0	male	white	3.1153999204138483	smiling	012	sub-11	2.0	1.0	012_smiling	0.0		150.96747693849102	
9.0	56.256776581099984	fix	1.0		445	24.0	male	white	3.1153999204138483	smiling	012	sub-11	2.0	1.0	012_smiling	0.0		151.2256915433063	3.758302443795401
9.0	56.69855292071952	pulse	1.0	t		24.0	male	white	3.1153999204138483	smiling	012	sub-11	2.0	1.0	012_smiling	0.0		151.66746788292585	
9.0	57.39851639660992	pulse	1.0	t		24.0	male	white	3.1153999204138483	smiling	012	sub-11	2.0	1.0	012_smiling	0.0		152.36743135881625	
9.0	58.09850220955559	pulse	1.0	t		24.0	male	white	3.1153999204138483	smiling	012	sub-11	2.0	1.0	012_smiling	0.0		153.06741717176192	
9.0	58.79849043732247	pulse	1.0	t		24.0	male	white	3.1153999204138483	smiling	012	sub-11	2.0	1.0	012_smiling	0.0		153.7674053995288	
9.0	59.498459648402786	pulse	1.0	t		24.0	male	white	3.1153999204138483	smiling	012	sub-11	2.0	1.0	012_smiling	0.0		154.4673746106091	
10.0	60.015079024895385	face	0.0		146	20.0	male	black	3.1070433744528456	neutral	082	sub-11	2.0	1.0	082_neutral	1.0	dominance	154.9839939871017	1.2415508560516173
10.0	60.1984418391221	pulse	0.0	t		20.0	male	black	3.1070433744528456	neutral	082	sub-11	2.0	1.0	082_neutral	1.0	dominance	155.16735680132842	
10.0	60.898421313177096	pulse	0.0	t		20.0	male	black	3.1070433744528456	neutral	082	sub-11	2.0	1.0	082_neutral	1.0	dominance	155.86733627538342	
10.0	61.256629880947	fix	1.0		177	20.0	male	black	3.1070433744528456	neutral	082	sub-11	2.0	1.0	082_neutral	1.0	dominance	156.22554484315333	1.499955627732561
10.0	61.59839957981967	pulse	1.0	t		20.0	male	black	3.1070433744528456	neutral	082	sub-11	2.0	1.0	082_neutral	1.0	dominance	156.567314542026	
10.0	62.29837905387467	pulse	1.0	t		20.0	male	black	3.1070433744528456	neutral	082	sub-11	2.0	1.0	082_neutral	1.0	dominance	157.267294016081	
10.0	62.756585508679564	rating	2.0		294	20.0	male	black	3.1070433744528456	neutral	082	sub-11	2.0	1.0	082_neutral	1.0	dominance	157.7255004708859	2.499921820290183
10.0	62.99836275385678	pulse	2.0	t		20.0	male	black	3.1070433744528456	neutral	082	sub-11	2.0	1.0	082_neutral	1.0	dominance	157.9672777160631	
10.0	63.69834434087534	pulse	2.0	t		20.0	male	black	3.1070433744528456	neutral	082	sub-11	2.0	1.0	082_neutral	1.0	dominance	158.66725930308166	
10.0	64.39832019270034	pulse	2.0	t		20.0	male	black	3.1070433744528456	neutral	082	sub-11	2.0	1.0	082_neutral	1.0	dominance	159.36723515490667	
10.0	64.78163018279884	response	2.0	b		20.0	male	black	3.1070433744528456	neutral	082	sub-11	2.0	1.0	082_neutral	1.0	dominance	159.75054514500516	
10.0	65.09830238342329	pulse	2.0	t		20.0	male	black	3.1070433744528456	neutral	082	sub-11	2.0	1.0	082_neutral	1.0	dominance	160.06721734562962	
10.0	65.25650732896975	fix	3.0		444	20.0	male	black	3.1070433744528456	neutral	082	sub-11	2.0	1.0	082_neutral	1.0	dominance	160.22542229117607	3.76656262828692
10.0	65.79826042597415	pulse	3.0	t		20.0	male	black	3.1070433744528456	neutral	082	sub-11	2.0	1.0	082_neutral	1.0	dominance	160.76717538818048	
10.0	66.49825076670459	pulse	3.0	t		20.0	male	black	3.1070433744528456	neutral	082	sub-11	2.0	1.0	082_neutral	1.0	dominance	161.4671657289109	
10.0	67.19823657965026	pulse	3.0	t		20.0	male	black	3.1070433744528456	neutral	082	sub-11	2.0	1.0	082_neutral	1.0	dominance	162.16715154185658	
10.0	67.89825529448717	pulse	3.0	t		20.0	male	black	3.1070433744528456	neutral	082	sub-11	2.0	1.0	082_neutral	1.0	dominance	162.8671702566935	
10.0	68.59819009441708	pulse	3.0	t		20.0	male	black	3.1070433744528456	neutral	082	sub-11	2.0	1.0	082_neutral	1.0	dominance	163.5671050566234	
11.0	69.02306995725667	face	0.0		145	21.0	male	black	2.969757262236371	smiling	137	sub-11	2.0	1.0	137_smiling	1.0	trustworthiness	163.991984919463	1.2332982178631937
11.0	69.29817651107078	pulse	0.0	t		21.0	male	black	2.969757262236371	smiling	137	sub-11	2.0	1.0	137_smiling	1.0	trustworthiness	164.2670914732771	
11.0	69.99815990920251	pulse	0.0	t		21.0	male	black	2.969757262236371	smiling	137	sub-11	2.0	1.0	137_smiling	1.0	trustworthiness	164.96707487140884	
11.0	70.25636817511986	fix	1.0		177	21.0	male	black	2.969757262236371	smiling	137	sub-11	2.0	1.0	137_smiling	1.0	trustworthiness	165.2252831373262	1.4999565332909697
11.0	70.6981300258376	pulse	1.0	t		21.0	male	black	2.969757262236371	smiling	137	sub-11	2.0	1.0	137_smiling	1.0	trustworthiness	165.66704498804393	
11.0	71.39812610175795	pulse	1.0	t		21.0	male	black	2.969757262236371	smiling	137	sub-11	2.0	1.0	137_smiling	1.0	trustworthiness	166.36704106396428	
11.0	71.75632470841083	rating	2.0		294	21.0	male	black	2.969757262236371	smiling	137	sub-11	2.0	1.0	137_smiling	1.0	trustworthiness	166.72523967061716	2.499923329549347
11.0	72.09810044432379	pulse	2.0	t		21.0	male	black	2.969757262236371	smiling	137	sub-11	2.0	1.0	137_smiling	1.0	trustworthiness	167.06701540653012	
11.0	72.79807418318524	pulse	2.0	t		21.0	male	black	2.969757262236371	smiling	137	sub-11	2.0	1.0	137_smiling	1.0	trustworthiness	167.76698914539156	
11.0	73.34805727946514	response	2.0	y		21.0	male	black	2.969757262236371	smiling	137	sub-11	2.0	1.0	137_smiling	1.0	trustworthiness	168.31697224167146	
11.0	73.49805154427304	pulse	2.0	t		21.0	male	black	2.969757262236371	smiling	137	sub-11	2.0	1.0	137_smiling	1.0	trustworthiness	168.46696650647937	
11.0	74.19802196276214	pulse	2.0	t		21.0	male	black	2.969757262236371	smiling	137	sub-11	2.0	1.0	137_smiling	1.0	trustworthiness	169.16693692496847	
11.0	74.25624803796018	fix	3.0		444	21.0	male	black	2.969757262236371	smiling	137	sub-11	2.0	1.0	137_smiling	1.0	trustworthiness	169.2251630001665	3.758262297455076
11.0	74.8980195479453	pulse	3.0	t		21.0	male	black	2.969757262236371	smiling	137	sub-11	2.0	1.0	137_smiling	1.0	trustworthiness	169.86693451015162	
11.0	75.59798543864963	pulse	3.0	t		21.0	male	black	2.969757262236371	smiling	137	sub-11	2.0	1.0	137_smiling	1.0	trustworthiness	170.56690040085596	
11.0	76.29796551640902	pulse	3.0	t		21.0	male	black	2.969757262236371	smiling	137	sub-11	2.0	1.0	137_smiling	1.0	trustworthiness	171.26688047861535	
11.0	76.99794770712833	pulse	3.0	t		21.0	male	black	2.969757262236371	smiling	137	sub-11	2.0	1.0	137_smiling	1.0	trustworthiness	171.96686266933466	
11.0	77.69792597377455	pulse	3.0	t		21.0	male	black	2.969757262236371	smiling	137	sub-11	2.0	1.0	137_smiling	1.0	trustworthiness	172.66684093598087	
12.0	78.01451033541525	face	0.0		146	22.0	female	white	4.614007162753682	neutral	009	sub-11	2.0	1.0	009_neutral	0.0		172.98342529762158	1.2415928135051217
12.0	78.39790846634787	pulse	0.0	t		22.0	female	white	4.614007162753682	neutral	009	sub-11	2.0	1.0	009_neutral	0.0		173.3668234285542	
12.0	79.09787979039174	pulse	0.0	t		22.0	female	white	4.614007162753682	neutral	009	sub-11	2.0	1.0	009_neutral	0.0		174.06679475259807	
12.0	79.25610314892037	fix	1.0		444	22.0	female	white	4.614007162753682	neutral	009	sub-11	2.0	1.0	009_neutral	0.0		174.2250181111267	3.7665430078959616
12.0	79.797868320009	pulse	1.0	t		22.0	female	white	4.614007162753682	neutral	009	sub-11	2.0	1.0	009_neutral	0.0		174.76678328221533	
12.0	80.49784356813325	pulse	1.0	t		22.0	female	white	4.614007162753682	neutral	009	sub-11	2.0	1.0	009_neutral	0.0		175.46675853033958	
12.0	81.19789729781769	pulse	1.0	t		22.0	female	white	4.614007162753682	neutral	009	sub-11	2.0	1.0	009_neutral	0.0		176.16681226002402	
12.0	81.89790786264348	pulse	1.0	t		22.0	female	white	4.614007162753682	neutral	009	sub-11	2.0	1.0	009_neutral	0.0		176.8668228248498	
12.0	82.59781851440493	pulse	1.0	t		22.0	female	white	4.614007162753682	neutral	009	sub-11	2.0	1.0	009_neutral	0.0		177.56673347661126	
13.0	83.02264615681634	face	0.0		145	40.0	male	black	2.408674890569041	neutral	061	sub-11	2.0	1.0	061_neutral	0.0		177.99156111902266	1.2333108956554497
13.0	83.29776086063794	pulse	0.0	t		40.0	male	black	2.408674890569041	neutral	061	sub-11	2.0	1.0	061_neutral	0.0		178.26667582284426	
13.0	83.99774244765649	pulse	0.0	t		40.0	male	black	2.408674890569041	neutral	061	sub-11	2.0	1.0	061_neutral	0.0		178.96665740986282	
13.0	84.25595705247179	fix	1.0		444	40.0	male	black	2.408674890569041	neutral	061	sub-11	2.0	1.0	061_neutral	0.0		179.2248720146781	3.7582055492530344
13.0	84.69772222356187	pulse	1.0	t		40.0	male	black	2.408674890569041	neutral	061	sub-11	2.0	1.0	061_neutral	0.0		179.6666371857682	
13.0	85.39769958464967	pulse	1.0	t		40.0	male	black	2.408674890569041	neutral	061	sub-11	2.0	1.0	061_neutral	0.0		180.366614546856	
13.0	86.0976835864858	pulse	1.0	t		40.0	male	black	2.408674890569041	neutral	061	sub-11	2.0	1.0	061_neutral	0.0		181.06659854869213	
13.0	86.79765430682528	pulse	1.0	t		40.0	male	black	2.408674890569041	neutral	061	sub-11	2.0	1.0	061_neutral	0.0		181.7665692690316	
13.0	87.49764162903375	pulse	1.0	t		40.0	male	black	2.408674890569041	neutral	061	sub-11	2.0	1.0	061_neutral	0.0		182.46655659124008	
14.0	88.01416260172482	face	0.0		146	22.0	male	black	2.767608436132113	smiling	044	sub-11	2.0	1.0	044_smiling	0.0		182.98307756393115	1.241639902440511
14.0	88.19762472531511	pulse	0.0	t		22.0	male	black	2.767608436132113	smiling	044	sub-11	2.0	1.0	044_smiling	0.0		183.16653968752144	
14.0	88.89760450121685	pulse	0.0	t		22.0	male	black	2.767608436132113	smiling	044	sub-11	2.0	1.0	044_smiling	0.0		183.86651946342317	
14.0	89.25580250416533	fix	1.0		444	22.0	male	black	2.767608436132113	smiling	044	sub-11	2.0	1.0	044_smiling	0.0		184.22471746637166	3.766563835695706
14.0	89.59758427712222	pulse	1.0	t		22.0	male	black	2.767608436132113	smiling	044	sub-11	2.0	1.0	044_smiling	0.0		184.56649923932855	
14.0	90.29755620487049	pulse	1.0	t		22.0	male	black	2.767608436132113	smiling	044	sub-11	2.0	1.0	044_smiling	0.0		185.26647116707682	
14.0	90.99754926227251	pulse	1.0	t		22.0	male	black	2.767608436132113	smiling	044	sub-11	2.0	1.0	044_smiling	0.0		185.96646422447884	
14.0	91.69752330298434	pulse	1.0	t		22.0	male	black	2.767608436132113	smiling	044	sub-11	2.0	1.0	044_smiling	0.0		186.66643826519066	
14.0	92.39749462703185	pulse	1.0	t		22.0	male	black	2.767608436132113	smiling	044	sub-11	2.0	1.0	044_smiling	0.0		187.36640958923817	
15.0	93.02236633986104	face	0.0		145	36.0	female	white	2.7548746518105847	neutral	011	sub-11	2.0	1.0	011_neutral	0.0		187.99128130206736	1.2332879548921483
15.0	93.09747742145555	pulse	0.0	t		36.0	female	white	2.7548746518105847	neutral	011	sub-11	2.0	1.0	011_neutral	0.0		188.06639238366188	
15.0	93.79744904735344	pulse	0.0	t		36.0	female	white	2.7548746518105847	neutral	011	sub-11	2.0	1.0	011_neutral	0.0		188.76636400955977	
15.0	94.25565429475319	fix	1.0		444	36.0	female	white	2.7548746518105847	neutral	011	sub-11	2.0	1.0	011_neutral	0.0		189.2245692569595	3.7665487430858775
15.0	94.49743455844873	pulse	1.0	t		36.0	female	white	2.7548746518105847	neutral	011	sub-11	2.0	1.0	011_neutral	0.0		189.46634952065506	
15.0	95.19740950471896	pulse	1.0	t		36.0	female	white	2.7548746518105847	neutral	011	sub-11	2.0	1.0	011_neutral	0.0		190.1663244669253	
15.0	95.89739411025948	pulse	1.0	t		36.0	female	white	2.7548746518105847	neutral	011	sub-11	2.0	1.0	011_neutral	0.0		190.8663090724658	
15.0	96.59736754727055	pulse	1.0	t		36.0	female	white	2.7548746518105847	neutral	011	sub-11	2.0	1.0	011_neutral	0.0		191.56628250947688	
15.0	97.29735185095706	pulse	1.0	t		36.0	female	white	2.7548746518105847	neutral	011	sub-11	2.0	1.0	011_neutral	0.0		192.26626681316338	
15.0	97.99733132500842	pulse	1.0	t		36.0	female	white	2.7548746518105847	neutral	011	sub-11	2.0	1.0	011_neutral	0.0		192.96624628721474	
16.0	98.02220303783906	face	0.0		146	28.0	male	east_asian	1.5563072025467568	smiling	005	sub-11	2.0	1.0	005_smiling	0.0		192.9911180000454	1.2333111975094653
16.0	98.69731442128614	pulse	0.0	t		28.0	male	east_asian	1.5563072025467568	smiling	005	sub-11	2.0	1.0	005_smiling	0.0		193.66622938349246	
16.0	99.25551423534853	fix	1.0		443	28.0	male	east_asian	1.5563072025467568	smiling	005	sub-11	2.0	1.0	005_smiling	0.0		194.22442919755485	3.758305764167744
16.0	99.39729268793235	pulse	1.0	t		28.0	male	east_asian	1.5563072025467568	smiling	005	sub-11	2.0	1.0	005_smiling	0.0		194.36620765013868	
16.0	100.09727457680128	pulse	1.0	t		28.0	male	east_asian	1.5563072025467568	smiling	005	sub-11	2.0	1.0	005_smiling	0.0		195.0661895390076	
16.0	100.7972416749144	pulse	1.0	t		28.0	male	east_asian	1.5563072025467568	smiling	005	sub-11	2.0	1.0	005_smiling	0.0		195.76615663712073	
16.0	101.49722537490015	pulse	1.0	t		28.0	male	east_asian	1.5563072025467568	smiling	005	sub-11	2.0	1.0	005_smiling	0.0		196.46614033710648	
16.0	102.1972075656231	pulse	1.0	t		28.0	male	east_asian	1.5563072025467568	smiling	005	sub-11	2.0	1.0	005_smiling	0.0		197.16612252782943	
16.0	102.89719005819643	pulse	1.0	t		28.0	male	east_asian	1.5563072025467568	smiling	005	sub-11	2.0	1.0	005_smiling	0.0		197.86610502040276	
17.0	103.01381999951627	face	0.0		147	31.0	male	west_asian	1.9538400318344609	neutral	070	sub-11	2.0	1.0	070_neutral	0.0		197.9827349617226	1.2415408949309494
17.0	103.59717315447415	pulse	0.0	t		31.0	male	west_asian	1.9538400318344609	neutral	070	sub-11	2.0	1.0	070_neutral	0.0		198.56608811668048	
17.0	104.25536089444722	fix	1.0		443	31.0	male	west_asian	1.9538400318344609	neutral	070	sub-11	2.0	1.0	070_neutral	0.0		199.22427585665355	3.7665677597724425
17.0	104.29714387481363	pulse	1.0	t		31.0	male	west_asian	1.9538400318344609	neutral	070	sub-11	2.0	1.0	070_neutral	0.0		199.26605883701995	
17.0	104.99714991185829	pulse	1.0	t		31.0	male	west_asian	1.9538400318344609	neutral	070	sub-11	2.0	1.0	070_neutral	0.0		199.9660648740646	
17.0	105.69709829513886	pulse	1.0	t		31.0	male	west_asian	1.9538400318344609	neutral	070	sub-11	2.0	1.0	070_neutral	0.0		200.66601325734518	
17.0	106.3970871266065	pulse	1.0	t		31.0	male	west_asian	1.9538400318344609	neutral	070	sub-11	2.0	1.0	070_neutral	0.0		201.36600208881282	
17.0	107.09706720436589	pulse	1.0	t		31.0	male	west_asian	1.9538400318344609	neutral	070	sub-11	2.0	1.0	070_neutral	0.0		202.0659821665722	
17.0	107.79705543212913	pulse	1.0	t		31.0	male	west_asian	1.9538400318344609	neutral	070	sub-11	2.0	1.0	070_neutral	0.0		202.76597039433545	
18.0	108.02192865421966	face	0.0		145	34.0	male	white	2.651014723438122	neutral	121	sub-11	2.0	1.0	121_neutral	0.0		202.990843616426	1.233301538239175
18.0	108.49703611359291	pulse	0.0	t		34.0	male	white	2.651014723438122	neutral	121	sub-11	2.0	1.0	121_neutral	0.0		203.46595107579924	
18.0	109.19701045615875	pulse	0.0	t		34.0	male	white	2.651014723438122	neutral	121	sub-11	2.0	1.0	121_neutral	0.0		204.16592541836508	
18.0	109.25523019245884	fix	1.0		445	34.0	male	white	2.651014723438122	neutral	121	sub-11	2.0	1.0	121_neutral	0.0		204.22414515466517	3.7582499215204734
18.0	109.89700230614835	pulse	1.0	t		34.0	male	white	2.651014723438122	neutral	121	sub-11	2.0	1.0	121_neutral	0.0		204.86591726835468	
18.0	110.5969684987067	pulse	1.0	t		34.0	male	white	2.651014723438122	neutral	121	sub-11	2.0	1.0	121_neutral	0.0		205.56588346091303	
18.0	111.29694736905367	pulse	1.0	t		34.0	male	white	2.651014723438122	neutral	121	sub-11	2.0	1.0	121_neutral	0.0		206.26586233126	
18.0	111.99692261717792	pulse	1.0	t		34.0	male	white	2.651014723438122	neutral	121	sub-11	2.0	1.0	121_neutral	0.0		206.96583757938424	
18.0	112.69690299678768	pulse	1.0	t		34.0	male	white	2.651014723438122	neutral	121	sub-11	2.0	1.0	121_neutral	0.0		207.665817958994	
19.0	113.01348011397931	face	0.0		146	40.0	female	west_asian	1.5777954635893354	smiling	038	sub-11	2.0	1.0	038_smiling	0.0		207.98239507618564	1.2415985486950376
19.0	113.39688096157988	pulse	0.0	t		40.0	female	west_asian	1.5777954635893354	smiling	038	sub-11	2.0	1.0	038_smiling	0.0		208.3657959237862	
19.0	114.09684987080618	pulse	0.0	t		40.0	female	west_asian	1.5777954635893354	smiling	038	sub-11	2.0	1.0	038_smiling	0.0		209.0657648330125	
19.0	114.25507866267435	fix	1.0		444	40.0	female	west_asian	1.5777954635893354	smiling	038	sub-11	2.0	1.0	038_smiling	0.0		209.22399362488068	3.766555987538595
19.0	114.79683417449269	pulse	1.0	t		40.0	female	west_asian	1.5777954635893354	smiling	038	sub-11	2.0	1.0	038_smiling	0.0		209.76574913669901	
19.0	115.49680670594535	pulse	1.0	t		40.0	female	west_asian	1.5777954635893354	smiling	038	sub-11	2.0	1.0	038_smiling	0.0		210.46572166815167	
19.0	116.19679221704428	pulse	1.0	t		40.0	female	west_asian	1.5777954635893354	smiling	038	sub-11	2.0	1.0	038_smiling	0.0		211.1657071792506	
19.0	116.89677138924162	pulse	1.0	t		40.0	female	west_asian	1.5777954635893354	smiling	038	sub-11	2.0	1.0	038_smiling	0.0		211.86568635144795	
19.0	117.59674301513951	pulse	1.0	t		40.0	female	west_asian	1.5777954635893354	smiling	038	sub-11	2.0	1.0	038_smiling	0.0		212.56565797734584	
20.0	118.02163465021295	face	0.0		145	32.0	male	white	2.389176283326701	neutral	092	sub-11	2.0	1.0	092_neutral	0.0		212.99054961241927	1.2332976141588006
20.0	118.29673335586995	pulse	0.0	t		32.0	male	white	2.389176283326701	neutral	092	sub-11	2.0	1.0	092_neutral	0.0		213.26564831807627	
20.0	118.9967475429221	pulse	0.0	t		32.0	male	white	2.389176283326701	neutral	092	sub-11	2.0	1.0	092_neutral	0.0		213.96566250512842	
20.0	119.25493226437175	fix	1.0		1185	32.0	male	white	2.389176283326701	neutral	092	sub-11	2.0	1.0	092_neutral	0.0		214.22384722657807	10.008095071360003
20.0	119.69672792253186	pulse	1.0	t		32.0	male	white	2.389176283326701	neutral	092	sub-11	2.0	1.0	092_neutral	0.0		214.6656428847382	
20.0	120.39670467991527	pulse	1.0	t		32.0	male	white	2.389176283326701	neutral	092	sub-11	2.0	1.0	092_neutral	0.0		215.3656196421216	
20.0	121.09666000579455	pulse	1.0	t		32.0	male	white	2.389176283326701	neutral	092	sub-11	2.0	1.0	092_neutral	0.0		216.06557496800087	
20.0	121.79665879838649	pulse	1.0	t		32.0	male	white	2.389176283326701	neutral	092	sub-11	2.0	1.0	092_neutral	0.0		216.76557376059282	
20.0	122.49661533167455	pulse	1.0	t		32.0	male	white	2.389176283326701	neutral	092	sub-11	2.0	1.0	092_neutral	0.0		217.46553029388087	
20.0	123.19659782424787	pulse	1.0	t		32.0	male	white	2.389176283326701	neutral	092	sub-11	2.0	1.0	092_neutral	0.0		218.1655127864542	
20.0	123.89658635386513	pulse	1.0	t		32.0	male	white	2.389176283326701	neutral	092	sub-11	2.0	1.0	092_neutral	0.0		218.86550131607146	
20.0	124.59654047233562	pulse	1.0	t		32.0	male	white	2.389176283326701	neutral	092	sub-11	2.0	1.0	092_neutral	0.0		219.56545543454195	
20.0	125.29652568158053	pulse	1.0	t		32.0	male	white	2.389176283326701	neutral	092	sub-11	2.0	1.0	092_neutral	0.0		220.26544064378686	
20.0	125.99650304266834	pulse	1.0	t		32.0	male	white	2.389176283326701	neutral	092	sub-11	2.0	1.0	092_neutral	0.0		220.96541800487466	
20.0	126.69647346115744	pulse	1.0	t		32.0	male	white	2.389176283326701	neutral	092	sub-11	2.0	1.0	092_neutral	0.0		221.66538842336377	
20.0	127.39645927410311	pulse	1.0	t		32.0	male	white	2.389176283326701	neutral	092	sub-11	2.0	1.0	092_neutral	0.0		222.36537423630944	
20.0	128.0964378425997	pulse	1.0	t		32.0	male	white	2.389176283326701	neutral	092	sub-11	2.0	1.0	092_neutral	0.0		223.06535280480603	
20.0	128.7964164110963	pulse	1.0	t		32.0	male	white	2.389176283326701	neutral	092	sub-11	2.0	1.0	092_neutral	0.0		223.76533137330262	
21.0	129.26302733573175	face	0.0		146	24.0	female	black	3.0955033824114606	neutral	099	sub-11	2.0	1.0	099_neutral	0.0		224.23194229793808	1.2415804375632433
21.0	129.49642274999132	pulse	0.0	t		24.0	female	black	3.0955033824114606	neutral	099	sub-11	2.0	1.0	099_neutral	0.0		224.46533771219765	
21.0	130.1963877351409	pulse	0.0	t		24.0	female	black	3.0955033824114606	neutral	099	sub-11	2.0	1.0	099_neutral	0.0		225.16530269734722	
21.0	130.504607773295	fix	1.0		444	24.0	female	black	3.0955033824114606	neutral	099	sub-11	2.0	1.0	099_neutral	0.0		225.47352273550132	3.758213699260523
21.0	130.8963632851155	pulse	1.0	t		24.0	female	black	3.0955033824114606	neutral	099	sub-11	2.0	1.0	099_neutral	0.0		225.86527824732184	
21.0	131.5963427591705	pulse	1.0	t		24.0	female	black	3.0955033824114606	neutral	099	sub-11	2.0	1.0	099_neutral	0.0		226.56525772137684	
21.0	132.29632977952497	pulse	1.0	t		24.0	female	black	3.0955033824114606	neutral	099	sub-11	2.0	1.0	099_neutral	0.0		227.2652447417313	
21.0	132.99629506652855	pulse	1.0	t		24.0	female	black	3.0955033824114606	neutral	099	sub-11	2.0	1.0	099_neutral	0.0		227.96521002873487	
21.0	133.69628721837216	pulse	1.0	t		24.0	female	black	3.0955033824114606	neutral	099	sub-11	2.0	1.0	099_neutral	0.0		228.6652021805785	
22.0	134.26282147255552	face	0.0		146	27.0	female	white	3.504576203740549	neutral	144	sub-11	2.0	1.0	144_neutral	0.0		229.23173643476184	1.2416444302216405
22.0	134.39627393687624	pulse	0.0	t		27.0	female	white	3.504576203740549	neutral	144	sub-11	2.0	1.0	144_neutral	0.0		229.36518889908257	
22.0	135.09625069425965	pulse	0.0	t		27.0	female	white	3.504576203740549	neutral	144	sub-11	2.0	1.0	144_neutral	0.0		230.06516565646598	
22.0	135.50446590277716	fix	1.0		444	27.0	female	white	3.504576203740549	neutral	144	sub-11	2.0	1.0	144_neutral	0.0		230.47338086498348	3.766528518994164
22.0	135.79623107386942	pulse	1.0	t		27.0	female	white	3.504576203740549	neutral	144	sub-11	2.0	1.0	144_neutral	0.0		230.76514603607575	
22.0	136.49620420902647	pulse	1.0	t		27.0	female	white	3.504576203740549	neutral	144	sub-11	2.0	1.0	144_neutral	0.0		231.4651191712328	
22.0	137.19618911641737	pulse	1.0	t		27.0	female	white	3.504576203740549	neutral	144	sub-11	2.0	1.0	144_neutral	0.0		232.1651040786237	
22.0	137.89617009973153	pulse	1.0	t		27.0	female	white	3.504576203740549	neutral	144	sub-11	2.0	1.0	144_neutral	0.0		232.86508506193786	
22.0	138.59611938856688	pulse	1.0	t		27.0	female	white	3.504576203740549	neutral	144	sub-11	2.0	1.0	144_neutral	0.0		233.5650343507732	
23.0	139.27099442177132	face	0.0		145	31.0	female	west_asian	2.364902506963788	neutral	006	sub-11	2.0	1.0	006_neutral	0.0		234.23990938397765	1.2333208567761176
23.0	139.2961290478379	pulse	0.0	t		31.0	female	west_asian	2.364902506963788	neutral	006	sub-11	2.0	1.0	006_neutral	0.0		234.26504401004422	
23.0	139.99610671077608	pulse	0.0	t		31.0	female	west_asian	2.364902506963788	neutral	006	sub-11	2.0	1.0	006_neutral	0.0		234.9650216729824	
23.0	140.50431527854744	fix	1.0		443	31.0	female	west_asian	2.364902506963788	neutral	006	sub-11	2.0	1.0	006_neutral	0.0		235.47323024075376	3.758345306803676
23.0	140.69608769409024	pulse	1.0	t		31.0	female	west_asian	2.364902506963788	neutral	006	sub-11	2.0	1.0	006_neutral	0.0		235.66500265629656	
23.0	141.39604875515943	pulse	1.0	t		31.0	female	west_asian	2.364902506963788	neutral	006	sub-11	2.0	1.0	006_neutral	0.0		236.36496371736575	
23.0	142.096043925525	pulse	1.0	t		31.0	female	west_asian	2.364902506963788	neutral	006	sub-11	2.0	1.0	006_neutral	0.0		237.06495888773134	
23.0	142.79602339958	pulse	1.0	t		31.0	female	west_asian	2.364902506963788	neutral	006	sub-11	2.0	1.0	006_neutral	0.0		237.76493836178634	
23.0	143.49600166622258	pulse	1.0	t		31.0	female	west_asian	2.364902506963788	neutral	006	sub-11	2.0	1.0	006_neutral	0.0		238.4649166284289	
23.0	144.19597449952926	pulse	1.0	t		31.0	female	west_asian	2.364902506963788	neutral	006	sub-11	2.0	1.0	006_neutral	0.0		239.16488946173558	
24.0	144.2626605853511	face	0.0		147	31.0	female	white	2.1822522881018704	smiling	102	sub-11	2.0	1.0	102_smiling	0.0		239.23157554755744	1.2414986356270674
24.0	144.89597027359923	pulse	0.0	t		31.0	female	white	2.1822522881018704	smiling	102	sub-11	2.0	1.0	102_smiling	0.0		239.86488523580556	
24.0	145.50415922097818	fix	1.0		443	31.0	female	white	2.1822522881018704	smiling	102	sub-11	2.0	1.0	102_smiling	0.0		240.4730741831845	3.7665587042101834
24.0	145.59598536620615	pulse	1.0	t		31.0	female	white	2.1822522881018704	smiling	102	sub-11	2.0	1.0	102_smiling	0.0		240.56490032841248	
24.0	146.2959180531725	pulse	1.0	t		31.0	female	white	2.1822522881018704	smiling	102	sub-11	2.0	1.0	102_smiling	0.0		241.26483301537883	
24.0	146.9958975272275	pulse	1.0	t		31.0	female	white	2.1822522881018704	smiling	102	sub-11	2.0	1.0	102_smiling	0.0		241.96481248943383	
24.0	147.69587639757447	pulse	1.0	t		31.0	female	white	2.1822522881018704	smiling	102	sub-11	2.0	1.0	102_smiling	0.0		242.6647913597808	
24.0	148.3958603994106	pulse	1.0	t		31.0	female	white	2.1822522881018704	smiling	102	sub-11	2.0	1.0	102_smiling	0.0		243.36477536161692	
24.0	149.09582961048727	pulse	1.0	t		31.0	female	white	2.1822522881018704	smiling	102	sub-11	2.0	1.0	102_smiling	0.0		244.0647445726936	
25.0	149.27071792518836	face	0.0		146	21.0	male	east_asian/white	3.501790688420215	smiling	036	sub-11	2.0	1.0	036_smiling	0.0		244.2396328873947	1.2416389968857402
25.0	149.795816328995	pulse	0.0	t		21.0	male	east_asian/white	3.501790688420215	smiling	036	sub-11	2.0	1.0	036_smiling	0.0		244.76473129120131	
25.0	150.49579489749158	pulse	0.0	t		21.0	male	east_asian/white	3.501790688420215	smiling	036	sub-11	2.0	1.0	036_smiling	0.0		245.4647098596979	
25.0	150.5123569220741	fix	1.0		443	21.0	male	east_asian/white	3.501790688420215	smiling	036	sub-11	2.0	1.0	036_smiling	0.0		245.48127188428043	3.7500108666754386
25.0	151.1957758808021	pulse	1.0	t		21.0	male	east_asian/white	3.501790688420215	smiling	036	sub-11	2.0	1.0	036_smiling	0.0		246.16469084300843	
25.0	151.89576622153254	pulse	1.0	t		21.0	male	east_asian/white	3.501790688420215	smiling	036	sub-11	2.0	1.0	036_smiling	0.0		246.86468118373887	
25.0	152.59573633817126	pulse	1.0	t		21.0	male	east_asian/white	3.501790688420215	smiling	036	sub-11	2.0	1.0	036_smiling	0.0		247.5646513003776	
25.0	153.29571279370066	pulse	1.0	t		21.0	male	east_asian/white	3.501790688420215	smiling	036	sub-11	2.0	1.0	036_smiling	0.0		248.264627755907	
25.0	153.99569226775202	pulse	1.0	t		21.0	male	east_asian/white	3.501790688420215	smiling	036	sub-11	2.0	1.0	036_smiling	0.0		248.96460722995835	
26.0	154.26236778874954	face	0.0		146	24.0	female	black	3.0955033824114606	smiling	099	sub-11	2.0	1.0	099_smiling	0.0		249.23128275095587	1.2415004467438848
26.0	154.69567325106618	pulse	0.0	t		24.0	female	black	3.0955033824114606	smiling	099	sub-11	2.0	1.0	099_smiling	0.0		249.6645882132725	
26.0	155.39564970659922	pulse	0.0	t		24.0	female	black	3.0955033824114606	smiling	099	sub-11	2.0	1.0	099_smiling	0.0		250.36456466880554	
26.0	155.50386823549343	fix	1.0		444	24.0	female	black	3.0955033824114606	smiling	099	sub-11	2.0	1.0	099_smiling	0.0		250.47278319769975	3.7583398734605
26.0	156.09563401028572	pulse	1.0	t		24.0	female	black	3.0955033824114606	smiling	099	sub-11	2.0	1.0	099_smiling	0.0		251.06454897249205	
26.0	156.79560865470557	pulse	1.0	t		24.0	female	black	3.0955033824114606	smiling	099	sub-11	2.0	1.0	099_smiling	0.0		251.7645236169119	
26.0	157.49562495472128	pulse	1.0	t		24.0	female	black	3.0955033824114606	smiling	099	sub-11	2.0	1.0	099_smiling	0.0		252.4645399169276	
26.0	158.19557786578298	pulse	1.0	t		24.0	female	black	3.0955033824114606	smiling	099	sub-11	2.0	1.0	099_smiling	0.0		253.1644928279893	
26.0	158.8955534157576	pulse	1.0	t		24.0	female	black	3.0955033824114606	smiling	099	sub-11	2.0	1.0	099_smiling	0.0		253.86446837796393	
27.0	159.26220810895393	face	0.0		146	27.0	female	white	4.181058495821727	smiling	039	sub-11	2.0	1.0	039_smiling	0.0		254.23112307116025	1.2415098041601595
27.0	159.5955410398201	pulse	0.0	t		27.0	female	white	4.181058495821727	smiling	039	sub-11	2.0	1.0	039_smiling	0.0		254.56445600202642	
27.0	160.2955099490464	pulse	0.0	t		27.0	female	white	4.181058495821727	smiling	039	sub-11	2.0	1.0	039_smiling	0.0		255.26442491125272	
27.0	160.5037179131141	fix	1.0		444	27.0	female	white	4.181058495821727	smiling	039	sub-11	2.0	1.0	039_smiling	0.0		255.47263287532041	3.7665424041915685
27.0	160.99548912124737	pulse	1.0	t		27.0	female	white	4.181058495821727	smiling	039	sub-11	2.0	1.0	039_smiling	0.0		255.9644040834537	
27.0	161.69548731013492	pulse	1.0	t		27.0	female	white	4.181058495821727	smiling	039	sub-11	2.0	1.0	039_smiling	0.0		256.66440227234125	
27.0	162.39544414527336	pulse	1.0	t		27.0	female	white	4.181058495821727	smiling	039	sub-11	2.0	1.0	039_smiling	0.0		257.3643591074797	
27.0	163.0954263359963	pulse	1.0	t		27.0	female	white	4.181058495821727	smiling	039	sub-11	2.0	1.0	039_smiling	0.0		258.06434129820263	
27.0	163.7953985655986	pulse	1.0	t		27.0	female	white	4.181058495821727	smiling	039	sub-11	2.0	1.0	039_smiling	0.0		258.7643135278049	
28.0	164.27026031730566	face	0.0		145	28.0	male	white	3.9076800636689217	neutral	033	sub-11	2.0	1.0	033_neutral	0.0		259.239175279512	1.2333271956740646
28.0	164.49539856559568	pulse	0.0	t		28.0	male	white	3.9076800636689217	neutral	033	sub-11	2.0	1.0	033_neutral	0.0		259.464313527802	
28.0	165.19536445630365	pulse	0.0	t		28.0	male	white	3.9076800636689217	neutral	033	sub-11	2.0	1.0	033_neutral	0.0		260.16427941851	
28.0	165.50358751297972	fix	1.0		444	28.0	male	white	3.9076800636689217	neutral	033	sub-11	2.0	1.0	033_neutral	0.0		260.47250247518605	3.7665261041729536
28.0	165.89535962666923	pulse	1.0	t		28.0	male	white	3.9076800636689217	neutral	033	sub-11	2.0	1.0	033_neutral	0.0		260.86427458887556	
28.0	166.59531374513972	pulse	1.0	t		28.0	male	white	3.9076800636689217	neutral	033	sub-11	2.0	1.0	033_neutral	0.0		261.56422870734605	
28.0	167.29530167105258	pulse	1.0	t		28.0	male	white	3.9076800636689217	neutral	033	sub-11	2.0	1.0	033_neutral	0.0		262.2642166332589	
28.0	167.9952868802975	pulse	1.0	t		28.0	male	white	3.9076800636689217	neutral	033	sub-11	2.0	1.0	033_neutral	0.0		262.9642018425038	
28.0	168.69525850619175	pulse	1.0	t		28.0	male	white	3.9076800636689217	neutral	033	sub-11	2.0	1.0	033_neutral	0.0		263.6641734683981	
29.0	169.27011361715267	face	0.0		145	47.0	male	east_asian	2.171110226820533	neutral	024	sub-11	2.0	1.0	024_neutral	0.0		264.239028579359	1.2333166308490036
29.0	169.3952416024731	pulse	0.0	t		47.0	male	east_asian	2.171110226820533	neutral	024	sub-11	2.0	1.0	024_neutral	0.0		264.36415656467943	
29.0	170.09522077467045	pulse	0.0	t		47.0	male	east_asian	2.171110226820533	neutral	024	sub-11	2.0	1.0	024_neutral	0.0		265.0641357368768	
29.0	170.50343024800168	fix	1.0		444	47.0	male	east_asian	2.171110226820533	neutral	024	sub-11	2.0	1.0	024_neutral	0.0		265.472345210208	3.7583540605155576
29.0	170.79519964502106	pulse	1.0	t		47.0	male	east_asian	2.171110226820533	neutral	024	sub-11	2.0	1.0	024_neutral	0.0		265.7641146072274	
29.0	171.49517942092643	pulse	1.0	t		47.0	male	east_asian	2.171110226820533	neutral	024	sub-11	2.0	1.0	024_neutral	0.0		266.46409438313276	
29.0	172.19516553572612	pulse	1.0	t		47.0	male	east_asian	2.171110226820533	neutral	024	sub-11	2.0	1.0	024_neutral	0.0		267.16408049793245	
29.0	172.89512901161288	pulse	1.0	t		47.0	male	east_asian	2.171110226820533	neutral	024	sub-11	2.0	1.0	024_neutral	0.0		267.8640439738192	
29.0	173.5951214653105	pulse	1.0	t		47.0	male	east_asian	2.171110226820533	neutral	024	sub-11	2.0	1.0	024_neutral	0.0		268.56403642751684	
30.0	174.26178430851724	face	0.0		146	19.0	female	white	4.298846000795861	neutral	100	sub-11	2.0	1.0	100_neutral	0.0		269.23069927072356	1.2414995411818381
30.0	174.29510275047505	pulse	0.0	t		19.0	female	white	4.298846000795861	neutral	100	sub-11	2.0	1.0	100_neutral	0.0		269.2640177126814	
30.0	174.99507165970135	pulse	0.0	t		19.0	female	white	4.298846000795861	neutral	100	sub-11	2.0	1.0	100_neutral	0.0		269.9639866219077	
30.0	175.50328384969907	fix	1.0		443	19.0	female	white	4.298846000795861	neutral	100	sub-11	2.0	1.0	100_neutral	0.0		270.4721988119054	3.7582363381734467
30.0	175.6950635096946	pulse	1.0	t		19.0	female	white	4.298846000795861	neutral	100	sub-11	2.0	1.0	100_neutral	0.0		270.6639784719009	
30.0	176.395040267078	pulse	1.0	t		19.0	female	white	4.298846000795861	neutral	100	sub-11	2.0	1.0	100_neutral	0.0		271.36395522928433	
30.0	177.0950173263118	pulse	1.0	t		19.0	female	white	4.298846000795861	neutral	100	sub-11	2.0	1.0	100_neutral	0.0		272.0639322885181	
30.0	177.794995291104	pulse	1.0	t		19.0	female	white	4.298846000795861	neutral	100	sub-11	2.0	1.0	100_neutral	0.0		272.7639102533103	
30.0	178.49498412257526	pulse	1.0	t		19.0	female	white	4.298846000795861	neutral	100	sub-11	2.0	1.0	100_neutral	0.0		273.4638990847816	
30.0	179.19494790031604	pulse	1.0	t		19.0	female	white	4.298846000795861	neutral	100	sub-11	2.0	1.0	100_neutral	0.0		274.16386286252236	
31.0	179.26152018787252	face	0.0		147	26.0	male	white	2.7966573816155993	neutral	117	sub-11	2.0	1.0	117_neutral	1.0	trustworthiness	274.23043515007885	1.2416190746407665
31.0	179.89493975030564	pulse	0.0	t		26.0	male	white	2.7966573816155993	neutral	117	sub-11	2.0	1.0	117_neutral	1.0	trustworthiness	274.86385471251197	
31.0	180.5031392625133	fix	1.0		177	26.0	male	white	2.7966573816155993	neutral	117	sub-11	2.0	1.0	117_neutral	1.0	trustworthiness	275.4720542247196	1.508290369707538
31.0	180.5949143947255	pulse	1.0	t		26.0	male	white	2.7966573816155993	neutral	117	sub-11	2.0	1.0	117_neutral	1.0	trustworthiness	275.5638293569318	
31.0	181.29488752988254	pulse	1.0	t		26.0	male	white	2.7966573816155993	neutral	117	sub-11	2.0	1.0	117_neutral	1.0	trustworthiness	276.26380249208887	
31.0	181.99487243727344	pulse	1.0	t		26.0	male	white	2.7966573816155993	neutral	117	sub-11	2.0	1.0	117_neutral	1.0	trustworthiness	276.96378739947977	
31.0	182.01142963222082	rating	2.0		294	26.0	male	white	2.7966573816155993	neutral	117	sub-11	2.0	1.0	117_neutral	1.0	trustworthiness	276.98034459442715	2.491590398687549
31.0	182.69485764651836	pulse	2.0	t		26.0	male	white	2.7966573816155993	neutral	117	sub-11	2.0	1.0	117_neutral	1.0	trustworthiness	277.6637726087247	
31.0	183.3948389316829	pulse	2.0	t		26.0	male	white	2.7966573816155993	neutral	117	sub-11	2.0	1.0	117_neutral	1.0	trustworthiness	278.3637538938892	
31.0	183.6281477143748	response	2.0	y		26.0	male	white	2.7966573816155993	neutral	117	sub-11	2.0	1.0	117_neutral	1.0	trustworthiness	278.5970626765811	
31.0	184.0948002946061	pulse	2.0	t		26.0	male	white	2.7966573816155993	neutral	117	sub-11	2.0	1.0	117_neutral	1.0	trustworthiness	279.06371525681243	
31.0	184.50302003090837	fix	3.0		444	26.0	male	white	2.7966573816155993	neutral	117	sub-11	2.0	1.0	117_neutral	1.0	trustworthiness	279.4719349931147	3.7665550819838245
31.0	184.79479244644972	pulse	3.0	t		26.0	male	white	2.7966573816155993	neutral	117	sub-11	2.0	1.0	117_neutral	1.0	trustworthiness	279.76370740865605	
31.0	185.49476829827836	pulse	3.0	t		26.0	male	white	2.7966573816155993	neutral	117	sub-11	2.0	1.0	117_neutral	1.0	trustworthiness	280.4636832604847	
31.0	186.1947432445486	pulse	3.0	t		26.0	male	white	2.7966573816155993	neutral	117	sub-11	2.0	1.0	117_neutral	1.0	trustworthiness	281.1636582067549	
31.0	186.89472996305267	pulse	3.0	t		26.0	male	white	2.7966573816155993	neutral	117	sub-11	2.0	1.0	117_neutral	1.0	trustworthiness	281.863644925259	
31.0	187.5947061167317	pulse	3.0	t		26.0	male	white	2.7966573816155993	neutral	117	sub-11	2.0	1.0	117_neutral	1.0	trustworthiness	282.563621078938	
32.0	188.2695751128922	face	0.0		145	24.0	female	east_asian	2.9076800636689217	smiling	034	sub-11	2.0	1.0	034_smiling	0.0		283.2384900750985	1.2333060660203046
32.0	188.29475290381743	pulse	0.0	t		24.0	female	east_asian	2.9076800636689217	smiling	034	sub-11	2.0	1.0	034_smiling	0.0		283.26366786602375	
32.0	188.99466204631608	pulse	0.0	t		24.0	female	east_asian	2.9076800636689217	smiling	034	sub-11	2.0	1.0	034_smiling	0.0		283.9635770085224	
32.0	189.5028811789125	fix	1.0		443	24.0	female	east_asian	2.9076800636689217	smiling	034	sub-11	2.0	1.0	034_smiling	0.0		284.47179614111883	3.7581922677563853
32.0	189.69464967037493	pulse	1.0	t		24.0	female	east_asian	2.9076800636689217	smiling	034	sub-11	2.0	1.0	034_smiling	0.0		284.66356463258126	
32.0	190.3946218999772	pulse	1.0	t		24.0	female	east_asian	2.9076800636689217	smiling	034	sub-11	2.0	1.0	034_smiling	0.0		285.36353686218354	
32.0	191.09460529810895	pulse	1.0	t		24.0	female	east_asian	2.9076800636689217	smiling	034	sub-11	2.0	1.0	034_smiling	0.0		286.0635202603153	
32.0	191.79460378884687	pulse	1.0	t		24.0	female	east_asian	2.9076800636689217	smiling	034	sub-11	2.0	1.0	034_smiling	0.0		286.7635187510532	
32.0	192.4945627369525	pulse	1.0	t		24.0	female	east_asian	2.9076800636689217	smiling	034	sub-11	2.0	1.0	034_smiling	0.0		287.46347769915883	
32.0	193.19455428509173	pulse	1.0	t		24.0	female	east_asian	2.9076800636689217	smiling	034	sub-11	2.0	1.0	034_smiling	0.0		288.16346924729805	
33.0	193.2610734466689	face	0.0		147	31.0	female	white	2.1822522881018704	neutral	102	sub-11	2.0	1.0	102_neutral	1.0	attractiveness	288.2299884088752	1.2416607302402554
33.0	193.89453587211028	pulse	0.0	t		31.0	female	white	2.1822522881018704	neutral	102	sub-11	2.0	1.0	102_neutral	1.0	attractiveness	288.8634508343166	
33.0	194.50273417690914	fix	1.0		177	31.0	female	white	2.1822522881018704	neutral	102	sub-11	2.0	1.0	102_neutral	1.0	attractiveness	289.47164913911547	1.5082831252548203
33.0	194.5945114220849	pulse	1.0	t		31.0	female	white	2.1822522881018704	neutral	102	sub-11	2.0	1.0	102_neutral	1.0	attractiveness	289.56342638429123	
33.0	195.2944803313112	pulse	1.0	t		31.0	female	white	2.1822522881018704	neutral	102	sub-11	2.0	1.0	102_neutral	1.0	attractiveness	290.26339529351753	
33.0	195.994457692399	pulse	1.0	t		31.0	female	white	2.1822522881018704	neutral	102	sub-11	2.0	1.0	102_neutral	1.0	attractiveness	290.96337265460534	
33.0	196.01101730216396	rating	2.0		294	31.0	female	white	2.1822522881018704	neutral	102	sub-11	2.0	1.0	102_neutral	1.0	attractiveness	290.9799322643703	2.491585569052404
33.0	196.6944598053633	pulse	2.0	t		31.0	female	white	2.1822522881018704	neutral	102	sub-11	2.0	1.0	102_neutral	1.0	attractiveness	291.6633747675696	
33.0	197.39442297939968	pulse	2.0	t		31.0	female	white	2.1822522881018704	neutral	102	sub-11	2.0	1.0	102_neutral	1.0	attractiveness	292.363337941606	
33.0	197.67774594914226	response	2.0	b		31.0	female	white	2.1822522881018704	neutral	102	sub-11	2.0	1.0	102_neutral	1.0	attractiveness	292.6466609113486	
33.0	198.0943906812172	pulse	2.0	t		31.0	female	white	2.1822522881018704	neutral	102	sub-11	2.0	1.0	102_neutral	1.0	attractiveness	293.0633056434235	
33.0	198.50260287121637	fix	3.0		444	31.0	female	white	2.1822522881018704	neutral	102	sub-11	2.0	1.0	102_neutral	1.0	attractiveness	293.4715178334227	3.7665614208781335
33.0	198.79438102195127	pulse	3.0	t		31.0	female	white	2.1822522881018704	neutral	102	sub-11	2.0	1.0	102_neutral	1.0	attractiveness	293.7632959841576	
33.0	199.4943565719259	pulse	3.0	t		31.0	female	white	2.1822522881018704	neutral	102	sub-11	2.0	1.0	102_neutral	1.0	attractiveness	294.4632715341322	
33.0	200.1943414793168	pulse	3.0	t		31.0	female	white	2.1822522881018704	neutral	102	sub-11	2.0	1.0	102_neutral	1.0	attractiveness	295.1632564415231	
33.0	200.89433031078443	pulse	3.0	t		31.0	female	white	2.1822522881018704	neutral	102	sub-11	2.0	1.0	102_neutral	1.0	attractiveness	295.86324527299075	
33.0	201.59429257926604	pulse	3.0	t		31.0	female	white	2.1822522881018704	neutral	102	sub-11	2.0	1.0	102_neutral	1.0	attractiveness	296.56320754147237	
34.0	202.2691642920945	face	0.0		145	37.0	male	white	3.898925586947871	smiling	101	sub-11	2.0	1.0	101_smiling	0.0		297.2380792543008	1.2333045567611407
34.0	202.29429167370836	pulse	0.0	t		37.0	male	white	3.898925586947871	smiling	101	sub-11	2.0	1.0	101_smiling	0.0		297.2632066359147	
34.0	202.9942578662667	pulse	0.0	t		37.0	male	white	3.898925586947871	smiling	101	sub-11	2.0	1.0	101_smiling	0.0		297.96317282847303	
34.0	203.50246884885564	fix	1.0		443	37.0	male	white	3.898925586947871	smiling	101	sub-11	2.0	1.0	101_smiling	0.0		298.47138381106197	3.766537876410439
34.0	203.69423764217208	pulse	1.0	t		37.0	male	white	3.898925586947871	smiling	101	sub-11	2.0	1.0	101_smiling	0.0		298.6631526043784	
34.0	204.39420926806633	pulse	1.0	t		37.0	male	white	3.898925586947871	smiling	101	sub-11	2.0	1.0	101_smiling	0.0		299.36312423027266	
34.0	205.09419387360686	pulse	1.0	t		37.0	male	white	3.898925586947871	smiling	101	sub-11	2.0	1.0	101_smiling	0.0		300.0631088358132	
34.0	205.79417153654867	pulse	1.0	t		37.0	male	white	3.898925586947871	smiling	101	sub-11	2.0	1.0	101_smiling	0.0		300.763086498755	
34.0	206.49416278283388	pulse	1.0	t		37.0	male	white	3.898925586947871	smiling	101	sub-11	2.0	1.0	101_smiling	0.0		301.4630777450402	
34.0	207.19412173093951	pulse	1.0	t		37.0	male	white	3.898925586947871	smiling	101	sub-11	2.0	1.0	101_smiling	0.0		302.16303669314584	
35.0	207.26900672526608	face	0.0		146	36.0	female	white	2.7548746518105847	smiling	011	sub-11	2.0	1.0	011_smiling	0.0		302.2379216874724	1.2333060660203046
35.0	207.89412927724334	pulse	0.0	t		36.0	female	white	2.7548746518105847	smiling	011	sub-11	2.0	1.0	011_smiling	0.0		302.86304423944966	
35.0	208.50231279128639	fix	1.0		443	36.0	female	white	2.7548746518105847	smiling	011	sub-11	2.0	1.0	011_smiling	0.0		303.4712277534927	3.766557496801397
35.0	208.59409214942934	pulse	1.0	t		36.0	female	white	2.7548746518105847	smiling	011	sub-11	2.0	1.0	011_smiling	0.0		303.56300711163567	
35.0	209.29406498273238	pulse	1.0	t		36.0	female	white	2.7548746518105847	smiling	011	sub-11	2.0	1.0	011_smiling	0.0		304.2629799449387	
35.0	209.99405471975842	pulse	1.0	t		36.0	female	white	2.7548746518105847	smiling	011	sub-11	2.0	1.0	011_smiling	0.0		304.96296968196475	
35.0	210.69402211972556	pulse	1.0	t		36.0	female	white	2.7548746518105847	smiling	011	sub-11	2.0	1.0	011_smiling	0.0		305.6629370819319	
35.0	211.39400763082085	pulse	1.0	t		36.0	female	white	2.7548746518105847	smiling	011	sub-11	2.0	1.0	011_smiling	0.0		306.3629225930272	
35.0	212.0939982734053	pulse	1.0	t		36.0	female	white	2.7548746518105847	smiling	011	sub-11	2.0	1.0	011_smiling	0.0		307.06291323561163	
36.0	212.26887028808778	face	0.0		146	30.0	female	black	2.7345801830481498	smiling	062	sub-11	2.0	1.0	062_smiling	0.0		307.2377852502941	1.2416414116996748
36.0	212.79397020115357	pulse	0.0	t		30.0	female	black	2.7345801830481498	smiling	062	sub-11	2.0	1.0	062_smiling	0.0		307.7628851633599	
36.0	213.49394907150054	pulse	0.0	t		30.0	female	black	2.7345801830481498	smiling	062	sub-11	2.0	1.0	062_smiling	0.0		308.46286403370686	
36.0	213.51051169978746	fix	1.0		443	30.0	female	black	2.7345801830481498	smiling	062	sub-11	2.0	1.0	062_smiling	0.0		308.4794266619938	3.749873222091992
36.0	214.19392341406638	pulse	1.0	t		30.0	female	black	2.7345801830481498	smiling	062	sub-11	2.0	1.0	062_smiling	0.0		309.1628383762727	
36.0	214.89391315109242	pulse	1.0	t		30.0	female	black	2.7345801830481498	smiling	062	sub-11	2.0	1.0	062_smiling	0.0		309.86282811329875	
36.0	215.59388115476395	pulse	1.0	t		30.0	female	black	2.7345801830481498	smiling	062	sub-11	2.0	1.0	062_smiling	0.0		310.5627961169703	
36.0	216.29385972326054	pulse	1.0	t		30.0	female	black	2.7345801830481498	smiling	062	sub-11	2.0	1.0	062_smiling	0.0		311.26277468546687	
36.0	216.99384221583387	pulse	1.0	t		30.0	female	black	2.7345801830481498	smiling	062	sub-11	2.0	1.0	062_smiling	0.0		311.9627571780402	
37.0	217.26038492187945	face	0.0		146	20.0	male	black	3.1070433744528456	smiling	082	sub-11	2.0	1.0	082_smiling	0.0		312.2292998840858	1.241637789476954
37.0	217.6938271232284	pulse	0.0	t		20.0	male	black	3.1070433744528456	smiling	082	sub-11	2.0	1.0	082_smiling	0.0		312.66274208543473	
37.0	218.39380206949863	pulse	0.0	t		20.0	male	black	3.1070433744528456	smiling	082	sub-11	2.0	1.0	082_smiling	0.0		313.36271703170496	
37.0	218.5020227113564	fix	1.0		444	20.0	male	black	3.1070433744528456	smiling	082	sub-11	2.0	1.0	082_smiling	0.0		313.47093767356273	3.766555383834202
37.0	219.09378607133112	pulse	1.0	t		20.0	male	black	3.1070433744528456	smiling	082	sub-11	2.0	1.0	082_smiling	0.0		314.06270103353745	
37.0	219.79375860278378	pulse	1.0	t		20.0	male	black	3.1070433744528456	smiling	082	sub-11	2.0	1.0	082_smiling	0.0		314.7626735649901	
37.0	220.4937426046199	pulse	1.0	t		20.0	male	black	3.1070433744528456	smiling	082	sub-11	2.0	1.0	082_smiling	0.0		315.46265756682624	
37.0	221.1937217768209	pulse	1.0	t		20.0	male	black	3.1070433744528456	smiling	082	sub-11	2.0	1.0	082_smiling	0.0		316.1626367390272	
37.0	221.89370970273376	pulse	1.0	t		20.0	male	black	3.1070433744528456	smiling	082	sub-11	2.0	1.0	082_smiling	0.0		316.8626246649401	
38.0	222.2685780951906	face	0.0		145	26.0	female	white	4.854755272582572	smiling	027	sub-11	2.0	1.0	027_smiling	0.0		317.23749305739693	1.2332964067536523
38.0	222.5936828378908	pulse	0.0	t		26.0	female	white	4.854755272582572	smiling	027	sub-11	2.0	1.0	027_smiling	0.0		317.56259780009714	
38.0	223.29365929342384	pulse	0.0	t		26.0	female	white	4.854755272582572	smiling	027	sub-11	2.0	1.0	027_smiling	0.0		318.26257425563017	
38.0	223.50187450194426	fix	1.0		444	26.0	female	white	4.854755272582572	smiling	027	sub-11	2.0	1.0	027_smiling	0.0		318.4707894641506	3.7665571949473815
38.0	223.99365265267625	pulse	1.0	t		26.0	female	white	4.854755272582572	smiling	027	sub-11	2.0	1.0	027_smiling	0.0		318.9625676148826	
38.0	224.69362035449376	pulse	1.0	t		26.0	female	white	4.854755272582572	smiling	027	sub-11	2.0	1.0	027_smiling	0.0		319.6625353167001	
38.0	225.3935946970596	pulse	1.0	t		26.0	female	white	4.854755272582572	smiling	027	sub-11	2.0	1.0	027_smiling	0.0		320.3625096592659	
38.0	226.0935811137133	pulse	1.0	t		26.0	female	white	4.854755272582572	smiling	027	sub-11	2.0	1.0	027_smiling	0.0		321.0624960759196	
38.0	226.7935581729471	pulse	1.0	t		26.0	female	white	4.854755272582572	smiling	027	sub-11	2.0	1.0	027_smiling	0.0		321.7624731351534	
39.0	227.26843169689164	face	0.0		145	25.0	female	west_asian	2.6756864305610826	neutral	064	sub-11	2.0	1.0	064_neutral	0.0		322.23734665909797	1.2333075752794684
39.0	227.49354157107882	pulse	0.0	t		25.0	female	west_asian	2.6756864305610826	neutral	064	sub-11	2.0	1.0	064_neutral	0.0		322.46245653328515	
39.0	228.19352738402813	pulse	0.0	t		25.0	female	west_asian	2.6756864305610826	neutral	064	sub-11	2.0	1.0	064_neutral	0.0		323.16244234623446	
39.0	228.5017392721711	fix	1.0		444	25.0	female	west_asian	2.6756864305610826	neutral	064	sub-11	2.0	1.0	064_neutral	0.0		323.47065423437743	3.749887107293034
39.0	228.8935083673423	pulse	1.0	t		25.0	female	west_asian	2.6756864305610826	neutral	064	sub-11	2.0	1.0	064_neutral	0.0		323.8624233295486	
39.0	229.59347184322905	pulse	1.0	t		25.0	female	west_asian	2.6756864305610826	neutral	064	sub-11	2.0	1.0	064_neutral	0.0		324.5623868054354	
39.0	230.29345161913443	pulse	1.0	t		25.0	female	west_asian	2.6756864305610826	neutral	064	sub-11	2.0	1.0	064_neutral	0.0		325.26236658134076	
39.0	230.99343984689767	pulse	1.0	t		25.0	female	west_asian	2.6756864305610826	neutral	064	sub-11	2.0	1.0	064_neutral	0.0		325.962354809104	
39.0	231.69343562096765	pulse	1.0	t		25.0	female	west_asian	2.6756864305610826	neutral	064	sub-11	2.0	1.0	064_neutral	0.0		326.662350583174	
40.0	232.25162637946414	fix	0.0		720													327.22054134167047	5.999815870178281
40.0	232.39339728574487	pulse	0.0	t														327.3623122479512	
40.0	233.09336740237995	pulse	0.0	t														328.0622823645863	
40.0	233.7933577431104	pulse	0.0	t														328.7622727053167	
40.0	234.4933266523367	pulse	0.0	t														329.462241614543	
40.0	235.19331669121675	pulse	0.0	t														330.1622316534231	
40.0	235.89329556156372	pulse	0.0	t														330.86221052377005	
40.0	236.59326416893964	pulse	0.0	t														331.56217913114597	
40.0	237.29324786892175	pulse	0.0	t														332.2621628311281	
40.0	237.99323579483462	pulse	0.0	t														332.96215075704094	
