trial_nr	onset	event_type	phase	response	nr_frames	face_age	face_sex	face_eth	attractiveness	expression	face_id	sub_id	ses	run	trial_type	catch	rating_type	onset_abs	duration
-1.0	0.05924534486985067	fix	0.0		713													102.5145583064259	5.957952530916373
-1.0	0.7007652924912691	pulse	0.0	t														103.15607825404732	
-1.0	1.4007421402275213	pulse	0.0	t														103.85605510178357	
-1.0	2.1007374011096545	pulse	0.0	t														104.5560503626657	
-1.0	2.8006979486854107	pulse	0.0	t														105.25601091024146	
-1.0	3.5007001522244536	pulse	0.0	t														105.9560131137805	
-1.0	4.200679112946091	pulse	0.0	t														106.65599207450214	
-1.0	4.9006535458429425	pulse	0.0	t														107.35596650739899	
-1.0	5.6006394492251275	pulse	0.0	t														108.05595241078117	
0.0	6.0171978757862234	face	0.0		144	20.0	male	black	2.609629924393156	smiling	043	sub-06	1.0	5.0	043_smiling	0.0		108.47251083734227	1.2333162584145612
0.0	6.300643162037886	pulse	0.0	t		20.0	male	black	2.609629924393156	smiling	043	sub-06	1.0	5.0	043_smiling	0.0		108.75595612359393	
0.0	7.0006281598543865	pulse	0.0	t		20.0	male	black	2.609629924393156	smiling	043	sub-06	1.0	5.0	043_smiling	0.0		109.45594112141043	
0.0	7.250514134200785	fix	1.0		445	20.0	male	black	2.609629924393156	smiling	043	sub-06	1.0	5.0	043_smiling	0.0		109.70582709575683	3.758237844078394
0.0	7.700608327992086	pulse	1.0	t		20.0	male	black	2.609629924393156	smiling	043	sub-06	1.0	5.0	043_smiling	0.0		110.15592128954813	
0.0	8.40057823306779	pulse	1.0	t		20.0	male	black	2.609629924393156	smiling	043	sub-06	1.0	5.0	043_smiling	0.0		110.85589119462384	
0.0	9.100575305077655	pulse	1.0	t		20.0	male	black	2.609629924393156	smiling	043	sub-06	1.0	5.0	043_smiling	0.0		111.5558882666337	
0.0	9.80054762499276	pulse	1.0	t		20.0	male	black	2.609629924393156	smiling	043	sub-06	1.0	5.0	043_smiling	0.0		112.2558605865488	
0.0	10.500542282159586	pulse	1.0	t		20.0	male	black	2.609629924393156	smiling	043	sub-06	1.0	5.0	043_smiling	0.0		112.95585524371563	
1.0	11.008751978279179	face	0.0		146	31.0	female	east_asian	3.395941106247513	smiling	087	sub-06	1.0	5.0	087_smiling	0.0		113.46406493983523	1.2416438288382778
1.0	11.20054690053803	pulse	0.0	t		31.0	female	east_asian	3.395941106247513	smiling	087	sub-06	1.0	5.0	087_smiling	0.0		113.65585986209408	
1.0	11.900520427872834	pulse	0.0	t		31.0	female	east_asian	3.395941106247513	smiling	087	sub-06	1.0	5.0	087_smiling	0.0		114.35583338942888	
1.0	12.250395807117457	fix	1.0		445	31.0	female	east_asian	3.395941106247513	smiling	087	sub-06	1.0	5.0	087_smiling	0.0		114.7057087686735	3.7582607850454224
1.0	12.60051448133163	pulse	1.0	t		31.0	female	east_asian	3.395941106247513	smiling	087	sub-06	1.0	5.0	087_smiling	0.0		115.05582744288768	
1.0	13.300485593827034	pulse	1.0	t		31.0	female	east_asian	3.395941106247513	smiling	087	sub-06	1.0	5.0	087_smiling	0.0		115.75579855538308	
1.0	14.000501984544826	pulse	1.0	t		31.0	female	east_asian	3.395941106247513	smiling	087	sub-06	1.0	5.0	087_smiling	0.0		116.45581494610087	
1.0	14.700451061638887	pulse	1.0	t		31.0	female	east_asian	3.395941106247513	smiling	087	sub-06	1.0	5.0	087_smiling	0.0		117.15576402319493	
1.0	15.400462320823863	pulse	1.0	t		31.0	female	east_asian	3.395941106247513	smiling	087	sub-06	1.0	5.0	087_smiling	0.0		117.85577528237991	
2.0	16.00865659216288	face	0.0		146	36.0	female	white	2.7548746518105847	neutral	011	sub-06	1.0	5.0	011_neutral	0.0		118.46396955371893	1.2416190767398803
2.0	16.100445507508994	pulse	0.0	t		36.0	female	white	2.7548746518105847	neutral	011	sub-06	1.0	5.0	011_neutral	0.0		118.55575846906504	
2.0	16.80041028105552	pulse	0.0	t		36.0	female	white	2.7548746518105847	neutral	011	sub-06	1.0	5.0	011_neutral	0.0		119.25572324261157	
2.0	17.25027566890276	fix	1.0		445	36.0	female	white	2.7548746518105847	neutral	011	sub-06	1.0	5.0	011_neutral	0.0		119.7055886304588	3.758268633271655
2.0	17.50040342894863	pulse	1.0	t		36.0	female	white	2.7548746518105847	neutral	011	sub-06	1.0	5.0	011_neutral	0.0		119.95571639050468	
2.0	18.20040502877964	pulse	1.0	t		36.0	female	white	2.7548746518105847	neutral	011	sub-06	1.0	5.0	011_neutral	0.0		120.65571799033569	
2.0	18.900381876515894	pulse	1.0	t		36.0	female	white	2.7548746518105847	neutral	011	sub-06	1.0	5.0	011_neutral	0.0		121.35569483807194	
2.0	19.600348159336136	pulse	1.0	t		36.0	female	white	2.7548746518105847	neutral	011	sub-06	1.0	5.0	011_neutral	0.0		122.05566112089218	
2.0	20.3003379868278	pulse	1.0	t		36.0	female	white	2.7548746518105847	neutral	011	sub-06	1.0	5.0	011_neutral	0.0		122.75565094838385	
3.0	21.008544302174414	face	0.0		147	28.0	male	white	3.9076800636689217	smiling	033	sub-06	1.0	5.0	033_smiling	0.0		123.46385726373046	1.2416414139952394
3.0	21.001198665439006	pulse	0.0	t		28.0	male	white	3.9076800636689217	smiling	033	sub-06	1.0	5.0	033_smiling	0.0		123.45651162699505	
3.0	21.70031100100823	pulse	0.0	t		28.0	male	white	3.9076800636689217	smiling	033	sub-06	1.0	5.0	033_smiling	0.0		124.15562396256428	
3.0	22.250185716169653	fix	1.0		443	28.0	male	white	3.9076800636689217	smiling	033	sub-06	1.0	5.0	033_smiling	0.0		124.7054986777257	3.7582532386768435
3.0	22.400300828499894	pulse	1.0	t		28.0	male	white	3.9076800636689217	smiling	033	sub-06	1.0	5.0	033_smiling	0.0		124.85561379005594	
3.0	23.100279487367516	pulse	1.0	t		28.0	male	white	3.9076800636689217	smiling	033	sub-06	1.0	5.0	033_smiling	0.0		125.55559244892356	
3.0	23.80027595566571	pulse	1.0	t		28.0	male	white	3.9076800636689217	smiling	033	sub-06	1.0	5.0	033_smiling	0.0		126.25558891722176	
3.0	24.500260349770542	pulse	1.0	t		28.0	male	white	3.9076800636689217	smiling	033	sub-06	1.0	5.0	033_smiling	0.0		126.95557331132659	
3.0	25.200235990087094	pulse	1.0	t		28.0	male	white	3.9076800636689217	smiling	033	sub-06	1.0	5.0	033_smiling	0.0		127.65554895164314	
3.0	25.900216761936463	pulse	1.0	t		28.0	male	white	3.9076800636689217	smiling	033	sub-06	1.0	5.0	033_smiling	0.0		128.3555297234925	
4.0	26.008438954846497	face	0.0		147	20.0	male	black	3.1070433744528456	smiling	082	sub-06	1.0	5.0	082_smiling	0.0		128.46375191640254	1.2416408102872083
4.0	26.600209607979195	pulse	0.0	t		20.0	male	black	3.1070433744528456	smiling	082	sub-06	1.0	5.0	082_smiling	0.0		129.05552256953524	
4.0	27.250079765133705	fix	1.0		443	20.0	male	black	3.1070433744528456	smiling	082	sub-06	1.0	5.0	082_smiling	0.0		129.70539272668975	3.7582574646403373
4.0	27.300310216185608	pulse	1.0	t		20.0	male	black	3.1070433744528456	smiling	082	sub-06	1.0	5.0	082_smiling	0.0		129.75562317774165	
4.0	28.00020797796242	pulse	1.0	t		20.0	male	black	3.1070433744528456	smiling	082	sub-06	1.0	5.0	082_smiling	0.0		130.45552093951846	
4.0	28.70015826247618	pulse	1.0	t		20.0	male	black	3.1070433744528456	smiling	082	sub-06	1.0	5.0	082_smiling	0.0		131.15547122403223	
4.0	29.400158956741507	pulse	1.0	t		20.0	male	black	3.1070433744528456	smiling	082	sub-06	1.0	5.0	082_smiling	0.0		131.85547191829755	
4.0	30.100133691492374	pulse	1.0	t		20.0	male	black	3.1070433744528456	smiling	082	sub-06	1.0	5.0	082_smiling	0.0		132.55544665304842	
4.0	30.800114463341743	pulse	1.0	t		20.0	male	black	3.1070433744528456	smiling	082	sub-06	1.0	5.0	082_smiling	0.0		133.2554274248978	
5.0	31.008337229774042	face	0.0		146	31.0	male	west_asian	1.9538400318344609	neutral	070	sub-06	1.0	5.0	070_neutral	0.0		133.4636501913301	1.2416393010134925
5.0	31.500107913092506	pulse	0.0	t		31.0	male	west_asian	1.9538400318344609	neutral	070	sub-06	1.0	5.0	070_neutral	0.0		133.95542087464855	
5.0	32.20008717566816	pulse	0.0	t		31.0	male	west_asian	1.9538400318344609	neutral	070	sub-06	1.0	5.0	070_neutral	0.0		134.6554001372242	
5.0	32.249976530787535	fix	1.0		445	31.0	male	west_asian	1.9538400318344609	neutral	070	sub-06	1.0	5.0	070_neutral	0.0		134.70528949234358	3.758252333111159
5.0	32.900093605174334	pulse	1.0	t		31.0	male	west_asian	1.9538400318344609	neutral	070	sub-06	1.0	5.0	070_neutral	0.0		135.35540656673038	
5.0	33.600058680574875	pulse	1.0	t		31.0	male	west_asian	1.9538400318344609	neutral	070	sub-06	1.0	5.0	070_neutral	0.0		136.05537164213092	
5.0	34.30004639508479	pulse	1.0	t		31.0	male	west_asian	1.9538400318344609	neutral	070	sub-06	1.0	5.0	070_neutral	0.0		136.75535935664084	
5.0	35.00002927991591	pulse	1.0	t		31.0	male	west_asian	1.9538400318344609	neutral	070	sub-06	1.0	5.0	070_neutral	0.0		137.45534224147195	
5.0	35.700010051765275	pulse	1.0	t		31.0	male	west_asian	1.9538400318344609	neutral	070	sub-06	1.0	5.0	070_neutral	0.0		138.15532301332132	
6.0	36.008228863898694	face	0.0		146	26.0	female	white	4.854755272582572	smiling	027	sub-06	1.0	5.0	027_smiling	0.0		138.46354182545474	1.2416435269806243
6.0	36.40001044417659	pulse	0.0	t		26.0	female	white	4.854755272582572	smiling	027	sub-06	1.0	5.0	027_smiling	0.0		138.85532340573263	
6.0	37.099983971507754	pulse	0.0	t		26.0	female	white	4.854755272582572	smiling	027	sub-06	1.0	5.0	027_smiling	0.0		139.5552969330638	
6.0	37.24987239087932	fix	1.0		445	26.0	female	white	4.854755272582572	smiling	027	sub-06	1.0	5.0	027_smiling	0.0		139.70518535243536	3.7582547479505592
6.0	37.799970176743955	pulse	1.0	t		26.0	female	white	4.854755272582572	smiling	027	sub-06	1.0	5.0	027_smiling	0.0		140.2552831383	
6.0	38.49995668383417	pulse	1.0	t		26.0	female	white	4.854755272582572	smiling	027	sub-06	1.0	5.0	027_smiling	0.0		140.95526964539022	
6.0	39.199948926165234	pulse	1.0	t		26.0	female	white	4.854755272582572	smiling	027	sub-06	1.0	5.0	027_smiling	0.0		141.65526188772128	
6.0	39.89992184978837	pulse	1.0	t		26.0	female	white	4.854755272582572	smiling	027	sub-06	1.0	5.0	027_smiling	0.0		142.35523481134442	
6.0	40.599910168009956	pulse	1.0	t		26.0	female	white	4.854755272582572	smiling	027	sub-06	1.0	5.0	027_smiling	0.0		143.055223129566	
7.0	41.00812713882988	face	0.0		146	27.0	female	white	4.181058495821727	smiling	039	sub-06	1.0	5.0	039_smiling	1.0	dominance	143.46344010038592	1.2416383954478079
7.0	41.299905127034435	pulse	0.0	t		27.0	female	white	4.181058495821727	smiling	039	sub-06	1.0	5.0	039_smiling	1.0	dominance	143.75521808859048	
7.0	41.99991608436176	pulse	0.0	t		27.0	female	white	4.181058495821727	smiling	039	sub-06	1.0	5.0	039_smiling	1.0	dominance	144.4552290459178	
7.0	42.249765534277685	fix	1.0		177	27.0	female	white	4.181058495821727	smiling	039	sub-06	1.0	5.0	039_smiling	1.0	dominance	144.70507849583373	1.5083352677211224
7.0	42.69987240597402	pulse	1.0	t		27.0	female	white	4.181058495821727	smiling	039	sub-06	1.0	5.0	039_smiling	1.0	dominance	145.15518536753007	
7.0	43.399857705644536	pulse	1.0	t		27.0	female	white	4.181058495821727	smiling	039	sub-06	1.0	5.0	039_smiling	1.0	dominance	145.85517066720058	
7.0	43.75810080199881	rating	2.0		293	27.0	female	white	4.181058495821727	smiling	039	sub-06	1.0	5.0	039_smiling	1.0	dominance	146.21341376355485	2.4915838351917046
7.0	44.0998499479756	pulse	2.0	t		27.0	female	white	4.181058495821727	smiling	039	sub-06	1.0	5.0	039_smiling	1.0	dominance	146.55516290953165	
7.0	44.79984792554751	pulse	2.0	t		27.0	female	white	4.181058495821727	smiling	039	sub-06	1.0	5.0	039_smiling	1.0	dominance	147.25516088710356	
7.0	45.499817226915184	pulse	2.0	t		27.0	female	white	4.181058495821727	smiling	039	sub-06	1.0	5.0	039_smiling	1.0	dominance	147.95513018847123	
7.0	45.67788801850838	response	2.0	w		27.0	female	white	4.181058495821727	smiling	039	sub-06	1.0	5.0	039_smiling	1.0	dominance	148.13320098006443	
7.0	46.19979739505288	pulse	2.0	t		27.0	female	white	4.181058495821727	smiling	039	sub-06	1.0	5.0	039_smiling	1.0	dominance	148.65511035660893	
7.0	46.24968463719051	fix	3.0		444	27.0	female	white	4.181058495821727	smiling	039	sub-06	1.0	5.0	039_smiling	1.0	dominance	148.70499759874656	3.7665880536114855
7.0	46.89981167278529	pulse	3.0	t		27.0	female	white	4.181058495821727	smiling	039	sub-06	1.0	5.0	039_smiling	1.0	dominance	149.35512463434134	
7.0	47.59975954245965	pulse	3.0	t		27.0	female	white	4.181058495821727	smiling	039	sub-06	1.0	5.0	039_smiling	1.0	dominance	150.0550725040157	
7.0	48.29975601075785	pulse	3.0	t		27.0	female	white	4.181058495821727	smiling	039	sub-06	1.0	5.0	039_smiling	1.0	dominance	150.7550689723139	
7.0	48.99976908107055	pulse	3.0	t		27.0	female	white	4.181058495821727	smiling	039	sub-06	1.0	5.0	039_smiling	1.0	dominance	151.4550820426266	
7.0	49.69972087485803	pulse	3.0	t		27.0	female	white	4.181058495821727	smiling	039	sub-06	1.0	5.0	039_smiling	1.0	dominance	152.15503383641408	
8.0	50.016272690802	face	0.0		145	21.0	male	black	2.969757262236371	neutral	137	sub-06	1.0	5.0	137_neutral	0.0		152.47158565235804	1.2333072027686285
8.0	50.39971583388251	pulse	0.0	t		21.0	male	black	2.969757262236371	neutral	137	sub-06	1.0	5.0	137_neutral	0.0		152.85502879543856	
8.0	51.099712302184344	pulse	0.0	t		21.0	male	black	2.969757262236371	neutral	137	sub-06	1.0	5.0	137_neutral	0.0		153.5550252637404	
8.0	51.249579893570626	fix	1.0		445	21.0	male	black	2.969757262236371	neutral	137	sub-06	1.0	5.0	137_neutral	0.0		153.70489285512667	3.758242673757195
8.0	51.799705450077454	pulse	1.0	t		21.0	male	black	2.969757262236371	neutral	137	sub-06	1.0	5.0	137_neutral	0.0		154.2550184116335	
8.0	52.49969316458737	pulse	1.0	t		21.0	male	black	2.969757262236371	neutral	137	sub-06	1.0	5.0	137_neutral	0.0		154.95500612614342	
8.0	53.199652504747064	pulse	1.0	t		21.0	male	black	2.969757262236371	neutral	137	sub-06	1.0	5.0	137_neutral	0.0		155.6549654663031	
8.0	53.899636898851895	pulse	1.0	t		21.0	male	black	2.969757262236371	neutral	137	sub-06	1.0	5.0	137_neutral	0.0		156.35494986040794	
8.0	54.599618274409295	pulse	1.0	t		21.0	male	black	2.969757262236371	neutral	137	sub-06	1.0	5.0	137_neutral	0.0		157.05493123596534	
9.0	55.00782256732782	face	0.0		146	19.0	female	white	4.298846000795861	neutral	100	sub-06	1.0	5.0	100_neutral	0.0		157.46313552888387	1.241652582626557
9.0	55.299628628028586	pulse	0.0	t		19.0	female	white	4.298846000795861	neutral	100	sub-06	1.0	5.0	100_neutral	0.0		157.75494158958463	
9.0	55.99959038302768	pulse	0.0	t		19.0	female	white	4.298846000795861	neutral	100	sub-06	1.0	5.0	100_neutral	0.0		158.45490334458373	
9.0	56.24947514995438	fix	1.0		445	19.0	female	white	4.298846000795861	neutral	100	sub-06	1.0	5.0	100_neutral	0.0		158.70478811151042	3.7665880536114855
9.0	56.69957779567994	pulse	1.0	t		19.0	female	white	4.298846000795861	neutral	100	sub-06	1.0	5.0	100_neutral	0.0		159.154890757236	
9.0	57.399555247127864	pulse	1.0	t		19.0	female	white	4.298846000795861	neutral	100	sub-06	1.0	5.0	100_neutral	0.0		159.8548682086839	
9.0	58.09954718760491	pulse	1.0	t		19.0	female	white	4.298846000795861	neutral	100	sub-06	1.0	5.0	100_neutral	0.0		160.55486014916096	
9.0	58.79958983968754	pulse	1.0	t		19.0	female	white	4.298846000795861	neutral	100	sub-06	1.0	5.0	100_neutral	0.0		161.2549028012436	
9.0	59.49951295726714	pulse	1.0	t		19.0	female	white	4.298846000795861	neutral	100	sub-06	1.0	5.0	100_neutral	0.0		161.9548259188232	
10.0	60.016063203565864	face	0.0		145	20.0	male	black	3.1070433744528456	neutral	082	sub-06	1.0	5.0	082_neutral	0.0		162.4713761651219	1.2333056934949127
10.0	60.19951123669671	pulse	0.0	t		20.0	male	black	3.1070433744528456	neutral	082	sub-06	1.0	5.0	082_neutral	0.0		162.65482419825275	
10.0	60.89948053806074	pulse	0.0	t		20.0	male	black	3.1070433744528456	neutral	082	sub-06	1.0	5.0	082_neutral	0.0		163.3547934996168	
10.0	61.249368897060776	fix	1.0		444	20.0	male	black	3.1070433744528456	neutral	082	sub-06	1.0	5.0	082_neutral	0.0		163.70468185861682	3.7665886573231546
10.0	61.599485760150856	pulse	1.0	t		20.0	male	black	3.1070433744528456	neutral	082	sub-06	1.0	5.0	082_neutral	0.0		164.0547987217069	
10.0	62.29945747635429	pulse	1.0	t		20.0	male	black	3.1070433744528456	neutral	082	sub-06	1.0	5.0	082_neutral	0.0		164.75477043791034	
10.0	62.99944519086421	pulse	1.0	t		20.0	male	black	3.1070433744528456	neutral	082	sub-06	1.0	5.0	082_neutral	0.0		165.45475815242025	
10.0	63.69943018868071	pulse	1.0	t		20.0	male	black	3.1070433744528456	neutral	082	sub-06	1.0	5.0	082_neutral	0.0		166.15474315023675	
10.0	64.39941518649721	pulse	1.0	t		20.0	male	black	3.1070433744528456	neutral	082	sub-06	1.0	5.0	082_neutral	0.0		166.85472814805325	
11.0	65.01595755438393	face	0.0		145	25.0	female	black	3.858336649423	smiling	126	sub-06	1.0	5.0	126_smiling	1.0	dominance	167.47127051593998	1.2333059953489283
11.0	65.0994255401165	pulse	0.0	t		25.0	female	black	3.858336649423	smiling	126	sub-06	1.0	5.0	126_smiling	1.0	dominance	167.55473850167255	
11.0	65.79939363406447	pulse	0.0	t		25.0	female	black	3.858336649423	smiling	126	sub-06	1.0	5.0	126_smiling	1.0	dominance	168.25470659562052	
11.0	66.24926354973286	fix	1.0		177	25.0	female	black	3.858336649423	smiling	126	sub-06	1.0	5.0	126_smiling	1.0	dominance	168.7045765112889	1.49997207843262
11.0	66.49937199107444	pulse	1.0	t		25.0	female	black	3.858336649423	smiling	126	sub-06	1.0	5.0	126_smiling	1.0	dominance	168.9546849526305	
11.0	67.19937027050037	pulse	1.0	t		25.0	female	black	3.858336649423	smiling	126	sub-06	1.0	5.0	126_smiling	1.0	dominance	169.6546832320564	
11.0	67.74923562816548	rating	2.0		294	25.0	female	black	3.858336649423	smiling	126	sub-06	1.0	5.0	126_smiling	1.0	dominance	170.20454858972153	2.499944911494822
11.0	67.89935074049572	pulse	2.0	t		25.0	female	black	3.858336649423	smiling	126	sub-06	1.0	5.0	126_smiling	1.0	dominance	170.35466370205177	
11.0	68.59933362532684	pulse	2.0	t		25.0	female	black	3.858336649423	smiling	126	sub-06	1.0	5.0	126_smiling	1.0	dominance	171.05464658688288	
11.0	69.25240314158509	response	2.0	y		25.0	female	black	3.858336649423	smiling	126	sub-06	1.0	5.0	126_smiling	1.0	dominance	171.70771610314114	
11.0	69.29930171927481	pulse	2.0	t		25.0	female	black	3.858336649423	smiling	126	sub-06	1.0	5.0	126_smiling	1.0	dominance	171.75461468083085	
11.0	69.99932776934293	pulse	2.0	t		25.0	female	black	3.858336649423	smiling	126	sub-06	1.0	5.0	126_smiling	1.0	dominance	172.45464073089897	
11.0	70.2491805396603	fix	3.0		445	25.0	female	black	3.858336649423	smiling	126	sub-06	1.0	5.0	126_smiling	1.0	dominance	172.70449350121635	3.774919246294303
11.0	70.69928680764497	pulse	3.0	t		25.0	female	black	3.858336649423	smiling	126	sub-06	1.0	5.0	126_smiling	1.0	dominance	173.154599769201	
11.0	71.39929142602705	pulse	3.0	t		25.0	female	black	3.858336649423	smiling	126	sub-06	1.0	5.0	126_smiling	1.0	dominance	173.8546043875831	
11.0	72.09926676448595	pulse	3.0	t		25.0	female	black	3.858336649423	smiling	126	sub-06	1.0	5.0	126_smiling	1.0	dominance	174.554579726042	
11.0	72.79925236601412	pulse	3.0	t		25.0	female	black	3.858336649423	smiling	126	sub-06	1.0	5.0	126_smiling	1.0	dominance	175.25456532757016	
11.0	73.49922710076498	pulse	3.0	t		25.0	female	black	3.858336649423	smiling	126	sub-06	1.0	5.0	126_smiling	1.0	dominance	175.95454006232103	
12.0	74.0240997859546	face	0.0		145	28.0	male	east_asian	1.5563072025467568	neutral	005	sub-06	1.0	5.0	005_neutral	0.0		176.47941274751065	1.2333235029291245
12.0	74.19921783382233	pulse	0.0	t		28.0	male	east_asian	1.5563072025467568	neutral	005	sub-06	1.0	5.0	005_neutral	0.0		176.65453079537838	
12.0	74.89921520768621	pulse	0.0	t		28.0	male	east_asian	1.5563072025467568	neutral	005	sub-06	1.0	5.0	005_neutral	0.0		177.35452816924226	
12.0	75.25742328888373	fix	1.0		444	28.0	male	east_asian	1.5563072025467568	neutral	005	sub-06	1.0	5.0	005_neutral	0.0		177.71273625043978	3.7582254680310143
12.0	75.59919114985678	pulse	1.0	t		28.0	male	east_asian	1.5563072025467568	neutral	005	sub-06	1.0	5.0	005_neutral	0.0		178.05450411141283	
12.0	76.29916769573902	pulse	1.0	t		28.0	male	east_asian	1.5563072025467568	neutral	005	sub-06	1.0	5.0	005_neutral	0.0		178.75448065729506	
12.0	76.99916718258828	pulse	1.0	t		28.0	male	east_asian	1.5563072025467568	neutral	005	sub-06	1.0	5.0	005_neutral	0.0		179.45448014414433	
12.0	77.69912682459835	pulse	1.0	t		28.0	male	east_asian	1.5563072025467568	neutral	005	sub-06	1.0	5.0	005_neutral	0.0		180.1544397861544	
12.0	78.39911182241485	pulse	1.0	t		28.0	male	east_asian	1.5563072025467568	neutral	005	sub-06	1.0	5.0	005_neutral	0.0		180.8544247839709	
13.0	79.01564875691474	face	0.0		146	32.0	male	white	2.389176283326701	neutral	092	sub-06	1.0	5.0	092_neutral	0.0		181.4709617184708	1.2416571104477043
13.0	79.09911855377868	pulse	0.0	t		32.0	male	white	2.389176283326701	neutral	092	sub-06	1.0	5.0	092_neutral	0.0		181.55443151533473	
13.0	79.7990875532887	pulse	0.0	t		32.0	male	white	2.389176283326701	neutral	092	sub-06	1.0	5.0	092_neutral	0.0		182.25440051484475	
13.0	80.25730586736245	fix	1.0		444	32.0	male	white	2.389176283326701	neutral	092	sub-06	1.0	5.0	092_neutral	0.0		182.7126188289185	3.76658895917717
13.0	80.49910937738969	pulse	1.0	t		32.0	male	white	2.389176283326701	neutral	092	sub-06	1.0	5.0	092_neutral	0.0		182.95442233894573	
13.0	81.19906117117716	pulse	1.0	t		32.0	male	white	2.389176283326701	neutral	092	sub-06	1.0	5.0	092_neutral	0.0		183.6543741327332	
13.0	81.89905431907391	pulse	1.0	t		32.0	male	white	2.389176283326701	neutral	092	sub-06	1.0	5.0	092_neutral	0.0		184.35436728062996	
13.0	82.5990329779379	pulse	1.0	t		32.0	male	white	2.389176283326701	neutral	092	sub-06	1.0	5.0	092_neutral	0.0		185.05434593949394	
13.0	83.29903850188202	pulse	1.0	t		32.0	male	white	2.389176283326701	neutral	092	sub-06	1.0	5.0	092_neutral	0.0		185.75435146343807	
13.0	83.9990461388079	pulse	1.0	t		32.0	male	white	2.389176283326701	neutral	092	sub-06	1.0	5.0	092_neutral	0.0		186.45435910036394	
14.0	84.02389482653962	face	0.0		146	25.0	female	west_asian	2.6756864305610826	neutral	064	sub-06	1.0	5.0	064_neutral	0.0		186.47920778809566	1.2333044860752125
14.0	84.69899581961363	pulse	0.0	t		25.0	female	west_asian	2.6756864305610826	neutral	064	sub-06	1.0	5.0	064_neutral	0.0		187.15430878116968	
14.0	85.25719931261483	fix	1.0		443	25.0	female	west_asian	2.6756864305610826	neutral	064	sub-06	1.0	5.0	064_neutral	0.0		187.71251227417088	3.766636048527289
14.0	85.39897961001043	pulse	1.0	t		25.0	female	west_asian	2.6756864305610826	neutral	064	sub-06	1.0	5.0	064_neutral	0.0		187.85429257156648	
14.0	86.09896128742184	pulse	1.0	t		25.0	female	west_asian	2.6756864305610826	neutral	064	sub-06	1.0	5.0	064_neutral	0.0		188.5542742489779	
14.0	86.79894507781864	pulse	1.0	t		25.0	female	west_asian	2.6756864305610826	neutral	064	sub-06	1.0	5.0	064_neutral	0.0		189.2542580393747	
14.0	87.49894033869714	pulse	1.0	t		25.0	female	west_asian	2.6756864305610826	neutral	064	sub-06	1.0	5.0	064_neutral	0.0		189.95425330025319	
14.0	88.19891990312681	pulse	1.0	t		25.0	female	west_asian	2.6756864305610826	neutral	064	sub-06	1.0	5.0	064_neutral	0.0		190.65423286468285	
14.0	88.89890127868784	pulse	1.0	t		25.0	female	west_asian	2.6756864305610826	neutral	064	sub-06	1.0	5.0	064_neutral	0.0		191.3542142402439	
15.0	89.02383536114212	face	0.0		146	31.0	female	white	2.1822522881018704	neutral	102	sub-06	1.0	5.0	102_neutral	0.0		191.47914832269817	1.2332733950315742
15.0	89.59899071826658	pulse	0.0	t		31.0	female	white	2.1822522881018704	neutral	102	sub-06	1.0	5.0	102_neutral	0.0		192.05430367982262	
15.0	90.2571087561737	fix	1.0		443	31.0	female	white	2.1822522881018704	neutral	102	sub-06	1.0	5.0	102_neutral	0.0		192.71242171772974	3.7582435793228797
15.0	90.2989213822184	pulse	1.0	t		31.0	female	white	2.1822522881018704	neutral	102	sub-06	1.0	5.0	102_neutral	0.0		192.75423434377444	
15.0	90.99886230923221	pulse	1.0	t		31.0	female	white	2.1822522881018704	neutral	102	sub-06	1.0	5.0	102_neutral	0.0		193.45417527078826	
15.0	91.69884338293559	pulse	1.0	t		31.0	female	white	2.1822522881018704	neutral	102	sub-06	1.0	5.0	102_neutral	0.0		194.15415634449164	
15.0	92.39884407720092	pulse	1.0	t		31.0	female	white	2.1822522881018704	neutral	102	sub-06	1.0	5.0	102_neutral	0.0		194.85415703875697	
15.0	93.09881458598466	pulse	1.0	t		31.0	female	white	2.1822522881018704	neutral	102	sub-06	1.0	5.0	102_neutral	0.0		195.5541275475407	
15.0	93.79880109307487	pulse	1.0	t		31.0	female	white	2.1822522881018704	neutral	102	sub-06	1.0	5.0	102_neutral	0.0		196.25411405463092	
16.0	94.01535233549657	face	0.0		146	27.0	female	white	4.181058495821727	neutral	039	sub-06	1.0	5.0	039_neutral	0.0		196.47066529705262	1.2416377917397767
16.0	94.49878609089137	pulse	0.0	t		27.0	female	white	4.181058495821727	neutral	039	sub-06	1.0	5.0	039_neutral	0.0		196.95409905244742	
16.0	95.19876656088672	pulse	0.0	t		27.0	female	white	4.181058495821727	neutral	039	sub-06	1.0	5.0	039_neutral	0.0		197.65407952244277	
16.0	95.25699012723635	fix	1.0		445	27.0	female	white	4.181058495821727	neutral	039	sub-06	1.0	5.0	039_neutral	0.0		197.7123030887924	3.758253540527221
16.0	95.8987603124915	pulse	1.0	t		27.0	female	white	4.181058495821727	neutral	039	sub-06	1.0	5.0	039_neutral	0.0		198.35407327404755	
16.0	96.59874259361459	pulse	1.0	t		27.0	female	white	4.181058495821727	neutral	039	sub-06	1.0	5.0	039_neutral	0.0		199.05405555517063	
16.0	97.2987315155442	pulse	1.0	t		27.0	female	white	4.181058495821727	neutral	039	sub-06	1.0	5.0	039_neutral	0.0		199.75404447710025	
16.0	97.9987128911016	pulse	1.0	t		27.0	female	white	4.181058495821727	neutral	039	sub-06	1.0	5.0	039_neutral	0.0		200.45402585265765	
16.0	98.69869879448379	pulse	1.0	t		27.0	female	white	4.181058495821727	neutral	039	sub-06	1.0	5.0	039_neutral	0.0		201.15401175603984	
17.0	99.01524366776357	face	0.0		146	20.0	female	white	3.9502586549940313	smiling	091	sub-06	1.0	5.0	091_smiling	0.0		201.47055662931962	1.2416426214185776
17.0	99.3986828867346	pulse	0.0	t		20.0	female	white	3.9502586549940313	smiling	091	sub-06	1.0	5.0	091_smiling	0.0		201.85399584829065	
17.0	100.09866516785769	pulse	0.0	t		20.0	female	white	3.9502586549940313	smiling	091	sub-06	1.0	5.0	091_smiling	0.0		202.55397812941374	
17.0	100.25688628918215	fix	1.0		445	20.0	female	white	3.9502586549940313	smiling	091	sub-06	1.0	5.0	091_smiling	0.0		202.7121992507382	3.7665880536114855
17.0	100.79865801389678	pulse	1.0	t		20.0	female	white	3.9502586549940313	smiling	091	sub-06	1.0	5.0	091_smiling	0.0		203.25397097545283	
17.0	101.49863999316585	pulse	1.0	t		20.0	female	white	3.9502586549940313	smiling	091	sub-06	1.0	5.0	091_smiling	0.0		203.9539529547219	
17.0	102.1986295188035	pulse	1.0	t		20.0	female	white	3.9502586549940313	smiling	091	sub-06	1.0	5.0	091_smiling	0.0		204.65394248035955	
17.0	102.89860787581347	pulse	1.0	t		20.0	female	white	3.9502586549940313	smiling	091	sub-06	1.0	5.0	091_smiling	0.0		205.35392083736951	
17.0	103.5985983070168	pulse	1.0	t		20.0	female	white	3.9502586549940313	smiling	091	sub-06	1.0	5.0	091_smiling	0.0		206.05391126857285	
18.0	104.02347434279363	face	0.0		145	21.0	male	east_asian/white	3.501790688420215	smiling	036	sub-06	1.0	5.0	036_smiling	0.0		206.47878730434968	1.233307504622644
18.0	104.29859568088068	pulse	0.0	t		21.0	male	east_asian/white	3.501790688420215	smiling	036	sub-06	1.0	5.0	036_smiling	0.0		206.75390864243673	
18.0	104.9985683026498	pulse	0.0	t		21.0	male	east_asian/white	3.501790688420215	smiling	036	sub-06	1.0	5.0	036_smiling	0.0		207.45388126420585	
18.0	105.25678184741628	fix	1.0		444	21.0	male	east_asian/white	3.501790688420215	smiling	036	sub-06	1.0	5.0	036_smiling	0.0		207.71209480897232	3.758249616417743
18.0	105.6985394151452	pulse	1.0	t		21.0	male	east_asian/white	3.501790688420215	smiling	036	sub-06	1.0	5.0	036_smiling	0.0		208.15385237670125	
18.0	106.39855157989223	pulse	1.0	t		21.0	male	east_asian/white	3.501790688420215	smiling	036	sub-06	1.0	5.0	036_smiling	0.0		208.85386454144827	
18.0	107.09851816456649	pulse	1.0	t		21.0	male	east_asian/white	3.501790688420215	smiling	036	sub-06	1.0	5.0	036_smiling	0.0		209.55383112612253	
18.0	107.79849471044872	pulse	1.0	t		21.0	male	east_asian/white	3.501790688420215	smiling	036	sub-06	1.0	5.0	036_smiling	0.0		210.25380767200477	
18.0	108.49850627148771	pulse	1.0	t		21.0	male	east_asian/white	3.501790688420215	smiling	036	sub-06	1.0	5.0	036_smiling	0.0		210.95381923304376	
19.0	109.01503146383402	face	0.0		146	40.0	female	west_asian	1.5777954635893354	neutral	038	sub-06	1.0	5.0	038_neutral	0.0		211.47034442539007	1.241644432546309
19.0	109.19848402478601	pulse	0.0	t		40.0	female	west_asian	1.5777954635893354	neutral	038	sub-06	1.0	5.0	038_neutral	0.0		211.65379698634206	
19.0	109.89845906139453	pulse	0.0	t		40.0	female	west_asian	1.5777954635893354	neutral	038	sub-06	1.0	5.0	038_neutral	0.0		212.35377202295058	
19.0	110.25667589638033	fix	1.0		444	40.0	female	west_asian	1.5777954635893354	neutral	038	sub-06	1.0	5.0	038_neutral	0.0		212.71198885793638	3.7665880536114855
19.0	110.59845190743363	pulse	1.0	t		40.0	female	west_asian	1.5777954635893354	neutral	038	sub-06	1.0	5.0	038_neutral	0.0		213.05376486898967	
19.0	111.29843086815526	pulse	1.0	t		40.0	female	west_asian	1.5777954635893354	neutral	038	sub-06	1.0	5.0	038_neutral	0.0		213.7537438297113	
19.0	111.99845269225625	pulse	1.0	t		40.0	female	west_asian	1.5777954635893354	neutral	038	sub-06	1.0	5.0	038_neutral	0.0		214.4537656538123	
19.0	112.69840176935031	pulse	1.0	t		40.0	female	west_asian	1.5777954635893354	neutral	038	sub-06	1.0	5.0	038_neutral	0.0		215.15371473090636	
19.0	113.39840608587474	pulse	1.0	t		40.0	female	west_asian	1.5777954635893354	neutral	038	sub-06	1.0	5.0	038_neutral	0.0		215.8537190474308	
20.0	114.02326394999182	face	0.0		145	40.0	male	black	2.408674890569041	smiling	061	sub-06	1.0	5.0	061_smiling	1.0	attractiveness	216.47857691154786	1.233309617608029
20.0	114.09838414103069	pulse	0.0	t		40.0	male	black	2.408674890569041	smiling	061	sub-06	1.0	5.0	061_smiling	1.0	attractiveness	216.55369710258674	
20.0	114.79843524505122	pulse	0.0	t		40.0	male	black	2.408674890569041	smiling	061	sub-06	1.0	5.0	061_smiling	1.0	attractiveness	217.25374820660727	
20.0	115.25657356759984	fix	1.0		177	40.0	male	black	2.408674890569041	smiling	061	sub-06	1.0	5.0	061_smiling	1.0	attractiveness	217.7118865291559	1.4999684561735194
20.0	115.49835111811626	pulse	1.0	t		40.0	male	black	2.408674890569041	smiling	061	sub-06	1.0	5.0	061_smiling	1.0	attractiveness	217.9536640796723	
20.0	116.19833068254593	pulse	1.0	t		40.0	male	black	2.408674890569041	smiling	061	sub-06	1.0	5.0	061_smiling	1.0	attractiveness	218.65364364410198	
20.0	116.75654202377336	rating	2.0		294	40.0	male	black	2.408674890569041	smiling	061	sub-06	1.0	5.0	061_smiling	1.0	attractiveness	219.2118549853294	2.499945515206491
20.0	116.89832443415071	pulse	2.0	t		40.0	male	black	2.408674890569041	smiling	061	sub-06	1.0	5.0	061_smiling	1.0	attractiveness	219.35363739570676	
20.0	117.59830279116068	pulse	2.0	t		40.0	male	black	2.408674890569041	smiling	061	sub-06	1.0	5.0	061_smiling	1.0	attractiveness	220.05361575271672	
20.0	118.29831525776535	pulse	2.0	t		40.0	male	black	2.408674890569041	smiling	061	sub-06	1.0	5.0	061_smiling	1.0	attractiveness	220.7536282193214	
20.0	118.42638319683101	response	2.0	n		40.0	male	black	2.408674890569041	smiling	061	sub-06	1.0	5.0	061_smiling	1.0	attractiveness	220.88169615838706	
20.0	118.99829270920964	pulse	2.0	t		40.0	male	black	2.408674890569041	smiling	061	sub-06	1.0	5.0	061_smiling	1.0	attractiveness	221.45360567076568	
20.0	119.25648753897985	fix	3.0		1185	40.0	male	black	2.408674890569041	smiling	061	sub-06	1.0	5.0	061_smiling	1.0	attractiveness	221.7118005005359	10.008205621081288
20.0	119.69826442541307	pulse	3.0	t		40.0	male	black	2.408674890569041	smiling	061	sub-06	1.0	5.0	061_smiling	1.0	attractiveness	222.15357738696912	
20.0	120.39824640468214	pulse	3.0	t		40.0	male	black	2.408674890569041	smiling	061	sub-06	1.0	5.0	061_smiling	1.0	attractiveness	222.8535593662382	
20.0	121.09823110064463	pulse	3.0	t		40.0	male	black	2.408674890569041	smiling	061	sub-06	1.0	5.0	061_smiling	1.0	attractiveness	223.55354406220067	
20.0	121.79822153184796	pulse	3.0	t		40.0	male	black	2.408674890569041	smiling	061	sub-06	1.0	5.0	061_smiling	1.0	attractiveness	224.253534493404	
20.0	122.49820049256596	pulse	3.0	t		40.0	male	black	2.408674890569041	smiling	061	sub-06	1.0	5.0	061_smiling	1.0	attractiveness	224.953513454122	
20.0	123.19818458481677	pulse	3.0	t		40.0	male	black	2.408674890569041	smiling	061	sub-06	1.0	5.0	061_smiling	1.0	attractiveness	225.65349754637282	
20.0	123.89816837521357	pulse	3.0	t		40.0	male	black	2.408674890569041	smiling	061	sub-06	1.0	5.0	061_smiling	1.0	attractiveness	226.35348133676962	
20.0	124.59816876762488	pulse	3.0	t		40.0	male	black	2.408674890569041	smiling	061	sub-06	1.0	5.0	061_smiling	1.0	attractiveness	227.05348172918093	
20.0	125.29813897455824	pulse	3.0	t		40.0	male	black	2.408674890569041	smiling	061	sub-06	1.0	5.0	061_smiling	1.0	attractiveness	227.7534519361143	
20.0	125.99812608535649	pulse	3.0	t		40.0	male	black	2.408674890569041	smiling	061	sub-06	1.0	5.0	061_smiling	1.0	attractiveness	228.45343904691254	
20.0	126.69811349801239	pulse	3.0	t		40.0	male	black	2.408674890569041	smiling	061	sub-06	1.0	5.0	061_smiling	1.0	attractiveness	229.15342645956844	
20.0	127.39810815517922	pulse	3.0	t		40.0	male	black	2.408674890569041	smiling	061	sub-06	1.0	5.0	061_smiling	1.0	attractiveness	229.85342111673526	
20.0	128.09808349364175	pulse	3.0	t		40.0	male	black	2.408674890569041	smiling	061	sub-06	1.0	5.0	061_smiling	1.0	attractiveness	230.5533964551978	
20.0	128.79807030258962	pulse	3.0	t		40.0	male	black	2.408674890569041	smiling	061	sub-06	1.0	5.0	061_smiling	1.0	attractiveness	231.25338326414567	
21.0	129.26469316006114	face	0.0		146	30.0	female	black	2.7345801830481498	smiling	062	sub-06	1.0	5.0	062_smiling	0.0		231.7200061216172	1.2415593094883661
21.0	129.4980592245156	pulse	0.0	t		30.0	female	black	2.7345801830481498	smiling	062	sub-06	1.0	5.0	062_smiling	0.0		231.95337218607165	
21.0	130.19803909079928	pulse	0.0	t		30.0	female	black	2.7345801830481498	smiling	062	sub-06	1.0	5.0	062_smiling	0.0		232.65335205235533	
21.0	130.5062524695495	fix	1.0		444	30.0	female	black	2.7345801830481498	smiling	062	sub-06	1.0	5.0	062_smiling	0.0		232.96156543110556	3.7582864427058666
21.0	130.89802740902087	pulse	1.0	t		30.0	female	black	2.7345801830481498	smiling	062	sub-06	1.0	5.0	062_smiling	0.0		233.35334037057692	
21.0	131.5980232736074	pulse	1.0	t		30.0	female	black	2.7345801830481498	smiling	062	sub-06	1.0	5.0	062_smiling	0.0		234.05333623516344	
21.0	132.29799740465387	pulse	1.0	t		30.0	female	black	2.7345801830481498	smiling	062	sub-06	1.0	5.0	062_smiling	0.0		234.75331036620992	
21.0	132.99799538222578	pulse	1.0	t		30.0	female	black	2.7345801830481498	smiling	062	sub-06	1.0	5.0	062_smiling	0.0		235.45330834378183	
21.0	133.69796166504238	pulse	1.0	t		30.0	female	black	2.7345801830481498	smiling	062	sub-06	1.0	5.0	062_smiling	0.0		236.15327462659843	
22.0	134.26453891225538	face	0.0		146	27.0	male	black	3.5523278949462798	smiling	042	sub-06	1.0	5.0	042_smiling	0.0		236.71985187381142	1.241609719239932
22.0	134.39796296301938	pulse	0.0	t		27.0	male	black	3.5523278949462798	smiling	042	sub-06	1.0	5.0	042_smiling	0.0		236.85327592457543	
22.0	135.0979343773688	pulse	0.0	t		27.0	male	black	3.5523278949462798	smiling	042	sub-06	1.0	5.0	042_smiling	0.0		237.55324733892485	
22.0	135.5061486314953	fix	1.0		444	27.0	male	black	3.5523278949462798	smiling	042	sub-06	1.0	5.0	042_smiling	0.0		237.96146159305135	3.76658895917717
22.0	135.79792028074735	pulse	1.0	t		27.0	male	black	3.5523278949462798	smiling	042	sub-06	1.0	5.0	042_smiling	0.0		238.2532332423034	
22.0	136.49791282493607	pulse	1.0	t		27.0	male	black	3.5523278949462798	smiling	042	sub-06	1.0	5.0	042_smiling	0.0		238.9532257864921	
22.0	137.19789631347885	pulse	1.0	t		27.0	male	black	3.5523278949462798	smiling	042	sub-06	1.0	5.0	042_smiling	0.0		239.6532092750349	
22.0	137.89787165193775	pulse	1.0	t		27.0	male	black	3.5523278949462798	smiling	042	sub-06	1.0	5.0	042_smiling	0.0		240.3531846134938	
22.0	138.5978635924148	pulse	1.0	t		27.0	male	black	3.5523278949462798	smiling	042	sub-06	1.0	5.0	042_smiling	0.0		241.05317655397084	
23.0	139.27273759067248	face	0.0		145	19.0	male	white	2.243931555909272	neutral	130	sub-06	1.0	5.0	130_neutral	1.0	trustworthiness	241.72805055222852	1.2333078064802976
23.0	139.2978561366035	pulse	0.0	t		19.0	male	white	2.243931555909272	neutral	130	sub-06	1.0	5.0	130_neutral	1.0	trustworthiness	241.75316909815956	
23.0	139.99783932328864	pulse	0.0	t		19.0	male	white	2.243931555909272	neutral	130	sub-06	1.0	5.0	130_neutral	1.0	trustworthiness	242.4531522848447	
23.0	140.50604539715277	fix	1.0		177	19.0	male	white	2.243931555909272	neutral	130	sub-06	1.0	5.0	130_neutral	1.0	trustworthiness	242.96135835870882	1.499971474720951
23.0	140.69782281183143	pulse	1.0	t		19.0	male	white	2.243931555909272	neutral	130	sub-06	1.0	5.0	130_neutral	1.0	trustworthiness	243.15313577338748	
23.0	141.39780690408224	pulse	1.0	t		19.0	male	white	2.243931555909272	neutral	130	sub-06	1.0	5.0	130_neutral	1.0	trustworthiness	243.8531198656383	
23.0	142.00601687187373	rating	2.0		294	19.0	male	white	2.243931555909272	neutral	130	sub-06	1.0	5.0	130_neutral	1.0	trustworthiness	244.46132983342977	2.4999440059327753
23.0	142.09780186310672	pulse	2.0	t		19.0	male	white	2.243931555909272	neutral	130	sub-06	1.0	5.0	130_neutral	1.0	trustworthiness	244.55311482466277	
23.0	142.7977762960072	pulse	2.0	t		19.0	male	white	2.243931555909272	neutral	130	sub-06	1.0	5.0	130_neutral	1.0	trustworthiness	245.25308925756326	
23.0	143.49776823648426	pulse	2.0	t		19.0	male	white	2.243931555909272	neutral	130	sub-06	1.0	5.0	130_neutral	1.0	trustworthiness	245.9530811980403	
23.0	144.07275455491254	response	2.0	w		19.0	male	white	2.243931555909272	neutral	130	sub-06	1.0	5.0	130_neutral	1.0	trustworthiness	246.52806751646858	
23.0	144.19774327308915	pulse	2.0	t		19.0	male	white	2.243931555909272	neutral	130	sub-06	1.0	5.0	130_neutral	1.0	trustworthiness	246.6530562346452	
23.0	144.5059608778065	fix	3.0		444	19.0	male	white	2.243931555909272	neutral	130	sub-06	1.0	5.0	130_neutral	1.0	trustworthiness	246.96127383936255	3.766586242483754
23.0	144.8977352135662	pulse	3.0	t		19.0	male	white	2.243931555909272	neutral	130	sub-06	1.0	5.0	130_neutral	1.0	trustworthiness	247.35304817512224	
23.0	145.59771326872215	pulse	3.0	t		19.0	male	white	2.243931555909272	neutral	130	sub-06	1.0	5.0	130_neutral	1.0	trustworthiness	248.0530262302782	
23.0	146.29770098323206	pulse	3.0	t		19.0	male	white	2.243931555909272	neutral	130	sub-06	1.0	5.0	130_neutral	1.0	trustworthiness	248.7530139447881	
23.0	146.99773065555928	pulse	3.0	t		19.0	male	white	2.243931555909272	neutral	130	sub-06	1.0	5.0	130_neutral	1.0	trustworthiness	249.45304361711533	
23.0	147.6976604139454	pulse	3.0	t		19.0	male	white	2.243931555909272	neutral	130	sub-06	1.0	5.0	130_neutral	1.0	trustworthiness	250.15297337550146	
24.0	148.27254712029026	face	0.0		145	20.0	male	black	2.609629924393156	neutral	043	sub-06	1.0	5.0	043_neutral	0.0		250.7278600818463	1.2333090138963598
24.0	148.39766654159757	pulse	0.0	t		20.0	male	black	2.609629924393156	neutral	043	sub-06	1.0	5.0	043_neutral	0.0		250.85297950315362	
24.0	149.09764580417323	pulse	0.0	t		20.0	male	black	2.609629924393156	neutral	043	sub-06	1.0	5.0	043_neutral	0.0		251.55295876572927	
24.0	149.50585613418662	fix	1.0		444	20.0	male	black	2.609629924393156	neutral	043	sub-06	1.0	5.0	043_neutral	0.0		251.96116909574266	3.7665859406297386
24.0	149.79762627416494	pulse	1.0	t		20.0	male	black	2.609629924393156	neutral	043	sub-06	1.0	5.0	043_neutral	0.0		252.252939235721	
24.0	150.49760855528802	pulse	1.0	t		20.0	male	black	2.609629924393156	neutral	043	sub-06	1.0	5.0	043_neutral	0.0		252.95292151684407	
24.0	151.19760170318477	pulse	1.0	t		20.0	male	black	2.609629924393156	neutral	043	sub-06	1.0	5.0	043_neutral	0.0		253.65291466474082	
24.0	151.89758609729324	pulse	1.0	t		20.0	male	black	2.609629924393156	neutral	043	sub-06	1.0	5.0	043_neutral	0.0		254.3528990588493	
24.0	152.59757894333234	pulse	1.0	t		20.0	male	black	2.609629924393156	neutral	043	sub-06	1.0	5.0	043_neutral	0.0		255.05289190488838	
25.0	153.27244207481635	face	0.0		145	22.0	female	west_asian	3.8205332272184642	neutral	066	sub-06	1.0	5.0	066_neutral	0.0		255.7277550363724	1.2333099194620445
25.0	153.2975723930831	pulse	0.0	t		22.0	female	west_asian	3.8205332272184642	neutral	066	sub-06	1.0	5.0	066_neutral	0.0		255.75288535463915	
25.0	153.99754652412594	pulse	0.0	t		22.0	female	west_asian	3.8205332272184642	neutral	066	sub-06	1.0	5.0	066_neutral	0.0		256.452859485682	
25.0	154.5057519942784	fix	1.0		443	22.0	female	west_asian	3.8205332272184642	neutral	066	sub-06	1.0	5.0	066_neutral	0.0		256.96106495583444	3.7665868461954233
25.0	154.6975294089607	pulse	1.0	t		22.0	female	west_asian	3.8205332272184642	neutral	066	sub-06	1.0	5.0	066_neutral	0.0		257.15284237051674	
25.0	155.39751712346697	pulse	1.0	t		22.0	female	west_asian	3.8205332272184642	neutral	066	sub-06	1.0	5.0	066_neutral	0.0		257.852830085023	
25.0	156.09749819717035	pulse	1.0	t		22.0	female	west_asian	3.8205332272184642	neutral	066	sub-06	1.0	5.0	066_neutral	0.0		258.5528111587264	
25.0	156.79748470426057	pulse	1.0	t		22.0	female	west_asian	3.8205332272184642	neutral	066	sub-06	1.0	5.0	066_neutral	0.0		259.2527976658166	
25.0	157.49746275941652	pulse	1.0	t		22.0	female	west_asian	3.8205332272184642	neutral	066	sub-06	1.0	5.0	066_neutral	0.0		259.95277572097257	
25.0	158.19745349247387	pulse	1.0	t		22.0	female	west_asian	3.8205332272184642	neutral	066	sub-06	1.0	5.0	066_neutral	0.0		260.6527664540299	
26.0	158.27233884047382	face	0.0		146	26.0	male	white	2.7966573816155993	neutral	117	sub-06	1.0	5.0	117_neutral	0.0		260.72765180202987	1.2333081083306752
26.0	158.89745328117715	pulse	0.0	t		26.0	male	white	2.7966573816155993	neutral	117	sub-06	1.0	5.0	117_neutral	0.0		261.3527662427332	
26.0	159.5056469488045	fix	1.0		443	26.0	male	white	2.7966573816155993	neutral	117	sub-06	1.0	5.0	117_neutral	0.0		261.96095991036054	3.758396317854931
26.0	159.59743405302652	pulse	1.0	t		26.0	male	white	2.7966573816155993	neutral	117	sub-06	1.0	5.0	117_neutral	0.0		262.05274701458256	
26.0	160.29740878777739	pulse	1.0	t		26.0	male	white	2.7966573816155993	neutral	117	sub-06	1.0	5.0	117_neutral	0.0		262.75272174933343	
26.0	160.99743151744406	pulse	1.0	t		26.0	male	white	2.7966573816155993	neutral	117	sub-06	1.0	5.0	117_neutral	0.0		263.4527444790001	
26.0	161.6973790852644	pulse	1.0	t		26.0	male	white	2.7966573816155993	neutral	117	sub-06	1.0	5.0	117_neutral	0.0		264.15269204682045	
26.0	162.3973794776757	pulse	1.0	t		26.0	male	white	2.7966573816155993	neutral	117	sub-06	1.0	5.0	117_neutral	0.0		264.85269243923176	
26.0	163.0973499864631	pulse	1.0	t		26.0	male	white	2.7966573816155993	neutral	117	sub-06	1.0	5.0	117_neutral	0.0		265.55266294801913	
27.0	163.26404326665943	face	0.0		147	22.0	female	white	4.614007162753682	neutral	009	sub-06	1.0	5.0	009_neutral	0.0		265.7193562282155	1.2498470350765274
27.0	163.7973630567758	pulse	0.0	t		22.0	female	white	4.614007162753682	neutral	009	sub-06	1.0	5.0	009_neutral	0.0		266.25267601833184	
27.0	164.49732994330407	pulse	0.0	t		22.0	female	white	4.614007162753682	neutral	009	sub-06	1.0	5.0	009_neutral	0.0		266.9526429048601	
27.0	164.51389030173596	fix	1.0		443	22.0	female	white	4.614007162753682	neutral	009	sub-06	1.0	5.0	009_neutral	0.0		266.969203263292	3.7582266754543525
27.0	165.19732339305483	pulse	1.0	t		22.0	female	white	4.614007162753682	neutral	009	sub-06	1.0	5.0	009_neutral	0.0		267.6526363546109	
27.0	165.89729299627288	pulse	1.0	t		22.0	female	white	4.614007162753682	neutral	009	sub-06	1.0	5.0	009_neutral	0.0		268.3526059578289	
27.0	166.59728040892878	pulse	1.0	t		22.0	female	white	4.614007162753682	neutral	009	sub-06	1.0	5.0	009_neutral	0.0		269.05259337048483	
27.0	167.2972783865007	pulse	1.0	t		22.0	female	white	4.614007162753682	neutral	009	sub-06	1.0	5.0	009_neutral	0.0		269.75259134805674	
27.0	167.99724466932093	pulse	1.0	t		22.0	female	white	4.614007162753682	neutral	009	sub-06	1.0	5.0	009_neutral	0.0		270.452557630877	
28.0	168.2721169771903	face	0.0		145	32.0	male	white	2.389176283326701	smiling	092	sub-06	1.0	5.0	092_smiling	0.0		270.72742993874635	1.233321088089724
28.0	168.69724808027968	pulse	0.0	t		32.0	male	white	2.389176283326701	smiling	092	sub-06	1.0	5.0	092_smiling	0.0		271.1525610418357	
28.0	169.397216174224	pulse	0.0	t		32.0	male	white	2.389176283326701	smiling	092	sub-06	1.0	5.0	092_smiling	0.0		271.85252913578006	
28.0	169.50543806528003	fix	1.0		445	32.0	male	white	2.389176283326701	smiling	092	sub-06	1.0	5.0	092_smiling	0.0		271.9607510268361	3.7582619924651226
28.0	170.09722018889443	pulse	1.0	t		32.0	male	white	2.389176283326701	smiling	092	sub-06	1.0	5.0	092_smiling	0.0		272.5525331504505	
28.0	170.7971846605833	pulse	1.0	t		32.0	male	white	2.389176283326701	smiling	092	sub-06	1.0	5.0	092_smiling	0.0		273.25249762213934	
28.0	171.49718807154204	pulse	1.0	t		32.0	male	white	2.389176283326701	smiling	092	sub-06	1.0	5.0	092_smiling	0.0		273.9525010330981	
28.0	172.19787367436584	pulse	1.0	t		32.0	male	white	2.389176283326701	smiling	092	sub-06	1.0	5.0	092_smiling	0.0		274.6531866359219	
28.0	172.89714357814591	pulse	1.0	t		32.0	male	white	2.389176283326701	smiling	092	sub-06	1.0	5.0	092_smiling	0.0		275.35245653970196	
29.0	173.26370005774515	face	0.0		146	19.0	male	white	2.243931555909272	smiling	130	sub-06	1.0	5.0	130_smiling	0.0		275.7190130193012	1.2416329620609758
29.0	173.5971512150718	pulse	0.0	t		19.0	male	white	2.243931555909272	smiling	130	sub-06	1.0	5.0	130_smiling	0.0		276.05246417662784	
29.0	174.29711689418036	pulse	0.0	t		19.0	male	white	2.243931555909272	smiling	130	sub-06	1.0	5.0	130_smiling	0.0		276.7524298557364	
29.0	174.50533301980613	fix	1.0		444	19.0	male	white	2.243931555909272	smiling	130	sub-06	1.0	5.0	130_smiling	0.0		276.9606459813622	3.7665865443377697
29.0	174.99711215505886	pulse	1.0	t		19.0	male	white	2.243931555909272	smiling	130	sub-06	1.0	5.0	130_smiling	0.0		277.4524251166149	
29.0	175.6971964631084	pulse	1.0	t		19.0	male	white	2.243931555909272	smiling	130	sub-06	1.0	5.0	130_smiling	0.0		278.15250942466446	
29.0	176.3970752080313	pulse	1.0	t		19.0	male	white	2.243931555909272	smiling	130	sub-06	1.0	5.0	130_smiling	0.0		278.85238816958736	
29.0	177.09705447060696	pulse	1.0	t		19.0	male	white	2.243931555909272	smiling	130	sub-06	1.0	5.0	130_smiling	0.0		279.552367432163	
29.0	177.79702679051843	pulse	1.0	t		19.0	male	white	2.243931555909272	smiling	130	sub-06	1.0	5.0	130_smiling	0.0		280.2523397520745	
30.0	178.2719195641439	face	0.0		145	24.0	female	black	3.0955033824114606	smiling	099	sub-06	1.0	5.0	099_smiling	0.0		280.72723252569995	1.233307504626282
30.0	178.49703201260854	pulse	0.0	t		24.0	female	black	3.0955033824114606	smiling	099	sub-06	1.0	5.0	099_smiling	0.0		280.9523449741646	
30.0	179.19701187889223	pulse	0.0	t		24.0	female	black	3.0955033824114606	smiling	099	sub-06	1.0	5.0	099_smiling	0.0		281.6523248404483	
30.0	179.50522706877018	fix	1.0		444	24.0	female	black	3.0955033824114606	smiling	099	sub-06	1.0	5.0	099_smiling	0.0		281.96054003032623	3.758255653512606
30.0	179.89699989525616	pulse	1.0	t		24.0	female	black	3.0955033824114606	smiling	099	sub-06	1.0	5.0	099_smiling	0.0		282.3523128568122	
30.0	180.59697855412014	pulse	1.0	t		24.0	female	black	3.0955033824114606	smiling	099	sub-06	1.0	5.0	099_smiling	0.0		283.0522915156762	
30.0	181.2969680797578	pulse	1.0	t		24.0	female	black	3.0955033824114606	smiling	099	sub-06	1.0	5.0	099_smiling	0.0		283.75228104131384	
30.0	181.9969566998334	pulse	1.0	t		24.0	female	black	3.0955033824114606	smiling	099	sub-06	1.0	5.0	099_smiling	0.0		284.45226966138944	
30.0	182.6969444143433	pulse	1.0	t		24.0	female	black	3.0955033824114606	smiling	099	sub-06	1.0	5.0	099_smiling	0.0		285.15225737589935	
31.0	183.2634827222828	face	0.0		146	34.0	male	white	2.651014723438122	neutral	121	sub-06	1.0	5.0	121_neutral	0.0		285.71879568383883	1.2416432251266087
31.0	183.39693273256125	pulse	0.0	t		34.0	male	white	2.651014723438122	neutral	121	sub-06	1.0	5.0	121_neutral	0.0		285.8522456941173	
31.0	184.0969198433595	pulse	0.0	t		34.0	male	white	2.651014723438122	neutral	121	sub-06	1.0	5.0	121_neutral	0.0		286.55223280491555	
31.0	184.5051259474094	fix	1.0		444	34.0	male	white	2.651014723438122	neutral	121	sub-06	1.0	5.0	121_neutral	0.0		286.96043890896544	3.76658775175747
31.0	184.79691238754822	pulse	1.0	t		34.0	male	white	2.651014723438122	neutral	121	sub-06	1.0	5.0	121_neutral	0.0		287.25222534910426	
31.0	185.49688108520422	pulse	1.0	t		34.0	male	white	2.651014723438122	neutral	121	sub-06	1.0	5.0	121_neutral	0.0		287.95219404676027	
31.0	186.19687091269589	pulse	1.0	t		34.0	male	white	2.651014723438122	neutral	121	sub-06	1.0	5.0	121_neutral	0.0		288.65218387425193	
31.0	186.89686889027143	pulse	1.0	t		34.0	male	white	2.651014723438122	neutral	121	sub-06	1.0	5.0	121_neutral	0.0		289.3521818518275	
31.0	187.59681857107353	pulse	1.0	t		34.0	male	white	2.651014723438122	neutral	121	sub-06	1.0	5.0	121_neutral	0.0		290.0521315326296	
32.0	188.27171369916687	face	0.0		145	34.0	male	white	2.651014723438122	smiling	121	sub-06	1.0	5.0	121_smiling	1.0	trustworthiness	290.7270266607229	1.233304787929228
32.0	188.2968551860613	pulse	0.0	t		34.0	male	white	2.651014723438122	smiling	121	sub-06	1.0	5.0	121_smiling	1.0	trustworthiness	290.75216814761734	
32.0	188.9968160354947	pulse	0.0	t		34.0	male	white	2.651014723438122	smiling	121	sub-06	1.0	5.0	121_smiling	1.0	trustworthiness	291.45212899705075	
32.0	189.5050184870961	fix	1.0		177	34.0	male	white	2.651014723438122	smiling	121	sub-06	1.0	5.0	121_smiling	1.0	trustworthiness	291.96033144865214	1.4999790210931678
32.0	189.69680012774552	pulse	1.0	t		34.0	male	white	2.651014723438122	smiling	121	sub-06	1.0	5.0	121_smiling	1.0	trustworthiness	292.15211308930157	
32.0	190.3967812014489	pulse	1.0	t		34.0	male	white	2.651014723438122	smiling	121	sub-06	1.0	5.0	121_smiling	1.0	trustworthiness	292.85209416300495	
32.0	191.00499750818926	rating	2.0		294	34.0	male	white	2.651014723438122	smiling	121	sub-06	1.0	5.0	121_smiling	1.0	trustworthiness	293.4603104697453	2.499938874399959
32.0	191.09688784675018	pulse	2.0	t		34.0	male	white	2.651014723438122	smiling	121	sub-06	1.0	5.0	121_smiling	1.0	trustworthiness	293.5522008083062	
32.0	191.79675210264395	pulse	2.0	t		34.0	male	white	2.651014723438122	smiling	121	sub-06	1.0	5.0	121_smiling	1.0	trustworthiness	294.2520650642	
32.0	192.49674223199327	pulse	2.0	t		34.0	male	white	2.651014723438122	smiling	121	sub-06	1.0	5.0	121_smiling	1.0	trustworthiness	294.9520551935493	
32.0	193.19673960585715	pulse	2.0	t		34.0	male	white	2.651014723438122	smiling	121	sub-06	1.0	5.0	121_smiling	1.0	trustworthiness	295.6520525674132	
32.0	193.2800391566052	response	2.0	y		34.0	male	white	2.651014723438122	smiling	121	sub-06	1.0	5.0	121_smiling	1.0	trustworthiness	295.73535211816125	
32.0	193.50493638258922	fix	3.0		444	34.0	male	white	2.651014723438122	smiling	121	sub-06	1.0	5.0	121_smiling	1.0	trustworthiness	295.96024934414527	3.766590468450886
32.0	193.8967104164949	pulse	3.0	t		34.0	male	white	2.651014723438122	smiling	121	sub-06	1.0	5.0	121_smiling	1.0	trustworthiness	296.35202337805094	
32.0	194.59669118834427	pulse	3.0	t		34.0	male	white	2.651014723438122	smiling	121	sub-06	1.0	5.0	121_smiling	1.0	trustworthiness	297.0520041499003	
32.0	195.29669007148186	pulse	3.0	t		34.0	male	white	2.651014723438122	smiling	121	sub-06	1.0	5.0	121_smiling	1.0	trustworthiness	297.7520030330379	
32.0	195.99666752292615	pulse	3.0	t		34.0	male	white	2.651014723438122	smiling	121	sub-06	1.0	5.0	121_smiling	1.0	trustworthiness	298.4519804844822	
32.0	196.69664889848718	pulse	3.0	t		34.0	male	white	2.651014723438122	smiling	121	sub-06	1.0	5.0	121_smiling	1.0	trustworthiness	299.15196186004323	
33.0	197.2715268510401	face	0.0		145	28.0	male	east_asian	1.5563072025467568	smiling	005	sub-06	1.0	5.0	005_smiling	0.0		299.72683981259615	1.2333032786591502
33.0	197.3966520075919	pulse	0.0	t		28.0	male	east_asian	1.5563072025467568	smiling	005	sub-06	1.0	5.0	005_smiling	0.0		299.85196496914796	
33.0	198.09663972210183	pulse	0.0	t		28.0	male	east_asian	1.5563072025467568	smiling	005	sub-06	1.0	5.0	005_smiling	0.0		300.5519526836579	
33.0	198.50483012969926	fix	1.0		444	28.0	male	east_asian	1.5563072025467568	smiling	005	sub-06	1.0	5.0	005_smiling	0.0		300.9601430912553	3.766569338615227
33.0	198.796613551287	pulse	1.0	t		28.0	male	east_asian	1.5563072025467568	smiling	005	sub-06	1.0	5.0	005_smiling	0.0		301.25192651284306	
33.0	199.49658466378241	pulse	1.0	t		28.0	male	east_asian	1.5563072025467568	smiling	005	sub-06	1.0	5.0	005_smiling	0.0		301.95189762533846	
33.0	200.19657449127772	pulse	1.0	t		28.0	male	east_asian	1.5563072025467568	smiling	005	sub-06	1.0	5.0	005_smiling	0.0		302.65188745283376	
33.0	200.8965646206234	pulse	1.0	t		28.0	male	east_asian	1.5563072025467568	smiling	005	sub-06	1.0	5.0	005_smiling	0.0		303.35187758217944	
33.0	201.59654629803845	pulse	1.0	t		28.0	male	east_asian	1.5563072025467568	smiling	005	sub-06	1.0	5.0	005_smiling	0.0		304.0518592595945	
34.0	202.27139946831448	face	0.0		145	22.0	female	west_asian	3.8205332272184642	smiling	066	sub-06	1.0	5.0	066_smiling	0.0		304.72671242987053	1.2333425197793986
34.0	202.2965463885921	pulse	0.0	t		22.0	female	west_asian	3.8205332272184642	smiling	066	sub-06	1.0	5.0	066_smiling	0.0		304.75185935014815	
34.0	202.99652776415314	pulse	0.0	t		22.0	female	west_asian	3.8205332272184642	smiling	066	sub-06	1.0	5.0	066_smiling	0.0		305.4518407257092	
34.0	203.50474198809388	fix	1.0		443	22.0	female	west_asian	3.8205332272184642	smiling	066	sub-06	1.0	5.0	066_smiling	0.0		305.96005494964993	3.7665696404692426
34.0	203.6965034044697	pulse	1.0	t		22.0	female	west_asian	3.8205332272184642	smiling	066	sub-06	1.0	5.0	066_smiling	0.0		306.15181636602574	
34.0	204.39648810043218	pulse	1.0	t		22.0	female	west_asian	3.8205332272184642	smiling	066	sub-06	1.0	5.0	066_smiling	0.0		306.8518010619882	
34.0	205.0964749093764	pulse	1.0	t		22.0	female	west_asian	3.8205332272184642	smiling	066	sub-06	1.0	5.0	066_smiling	0.0		307.55178787093246	
34.0	205.7964677554155	pulse	1.0	t		22.0	female	west_asian	3.8205332272184642	smiling	066	sub-06	1.0	5.0	066_smiling	0.0		308.25178071697155	
34.0	206.49644641428313	pulse	1.0	t		22.0	female	west_asian	3.8205332272184642	smiling	066	sub-06	1.0	5.0	066_smiling	0.0		308.9517593758392	
34.0	207.19644861782217	pulse	1.0	t		22.0	female	west_asian	3.8205332272184642	smiling	066	sub-06	1.0	5.0	066_smiling	0.0		309.6517615793782	
35.0	207.27131162856313	face	0.0		146	31.0	female	white	2.1822522881018704	smiling	102	sub-06	1.0	5.0	102_smiling	0.0		309.7266245901192	1.2333126361554605
35.0	207.89641671177014	pulse	0.0	t		31.0	female	white	2.1822522881018704	smiling	102	sub-06	1.0	5.0	102_smiling	0.0		310.3517296733262	
35.0	208.5046242647186	fix	1.0		443	31.0	female	white	2.1822522881018704	smiling	102	sub-06	1.0	5.0	102_smiling	0.0		310.95993722627463	3.758250220129412
35.0	208.5964026151487	pulse	1.0	t		31.0	female	white	2.1822522881018704	smiling	102	sub-06	1.0	5.0	102_smiling	0.0		311.05171557670474	
35.0	209.29638127401267	pulse	1.0	t		31.0	female	white	2.1822522881018704	smiling	102	sub-06	1.0	5.0	102_smiling	0.0		311.7516942355687	
35.0	209.99640762593845	pulse	1.0	t		31.0	female	white	2.1822522881018704	smiling	102	sub-06	1.0	5.0	102_smiling	0.0		312.4517205874945	
35.0	210.69635247706537	pulse	1.0	t		31.0	female	white	2.1822522881018704	smiling	102	sub-06	1.0	5.0	102_smiling	0.0		313.1516654386214	
35.0	211.396341700849	pulse	1.0	t		31.0	female	white	2.1822522881018704	smiling	102	sub-06	1.0	5.0	102_smiling	0.0		313.85165466240505	
35.0	212.09632488753778	pulse	1.0	t		31.0	female	white	2.1822522881018704	smiling	102	sub-06	1.0	5.0	102_smiling	0.0		314.5516378490938	
36.0	212.262874484848	face	0.0		147	20.0	female	white	3.9502586549940313	neutral	091	sub-06	1.0	5.0	091_neutral	0.0		314.71818744640404	1.2499964532034937
36.0	212.79630384825577	pulse	0.0	t		20.0	female	white	3.9502586549940313	neutral	091	sub-06	1.0	5.0	091_neutral	0.0		315.2516168098118	
36.0	213.49629820357222	pulse	0.0	t		20.0	female	white	3.9502586549940313	neutral	091	sub-06	1.0	5.0	091_neutral	0.0		315.95161116512827	
36.0	213.5128709380515	fix	1.0		443	20.0	female	white	3.9502586549940313	neutral	091	sub-06	1.0	5.0	091_neutral	0.0		315.96818389960754	3.749899105030636
36.0	214.1963034256587	pulse	1.0	t		20.0	female	white	3.9502586549940313	neutral	091	sub-06	1.0	5.0	091_neutral	0.0		316.65161638721474	
36.0	214.89626970847894	pulse	1.0	t		20.0	female	white	3.9502586549940313	neutral	091	sub-06	1.0	5.0	091_neutral	0.0		317.351582670035	
36.0	215.5962480654889	pulse	1.0	t		20.0	female	white	3.9502586549940313	neutral	091	sub-06	1.0	5.0	091_neutral	0.0		318.05156102704495	
36.0	216.29625419314107	pulse	1.0	t		20.0	female	white	3.9502586549940313	neutral	091	sub-06	1.0	5.0	091_neutral	0.0		318.7515671546971	
36.0	216.9962259093445	pulse	1.0	t		20.0	female	white	3.9502586549940313	neutral	091	sub-06	1.0	5.0	091_neutral	0.0		319.45153887090055	
37.0	217.26277004308213	face	0.0		146	26.0	female	white	4.854755272582572	neutral	027	sub-06	1.0	5.0	027_neutral	0.0		319.7180830046382	1.2416568085936888
37.0	217.69621151086903	pulse	0.0	t		26.0	female	white	4.854755272582572	neutral	027	sub-06	1.0	5.0	027_neutral	0.0		320.1515244724251	
37.0	218.3961956031235	pulse	0.0	t		26.0	female	white	4.854755272582572	neutral	027	sub-06	1.0	5.0	027_neutral	0.0		320.85150856467953	
37.0	218.50442685167582	fix	1.0		444	26.0	female	white	4.854755272582572	neutral	027	sub-06	1.0	5.0	027_neutral	0.0		320.95973981323186	3.7582375422243786
37.0	219.0961784879546	pulse	1.0	t		26.0	female	white	4.854755272582572	neutral	027	sub-06	1.0	5.0	027_neutral	0.0		321.55149144951065	
37.0	219.79615503383684	pulse	1.0	t		26.0	female	white	4.854755272582572	neutral	027	sub-06	1.0	5.0	027_neutral	0.0		322.2514679953929	
37.0	220.4961635763284	pulse	1.0	t		26.0	female	white	4.854755272582572	neutral	027	sub-06	1.0	5.0	027_neutral	0.0		322.95147653788445	
37.0	221.1961319721304	pulse	1.0	t		26.0	female	white	4.854755272582572	neutral	027	sub-06	1.0	5.0	027_neutral	0.0		323.65144493368643	
37.0	221.8961239126038	pulse	1.0	t		26.0	female	white	4.854755272582572	neutral	027	sub-06	1.0	5.0	027_neutral	0.0		324.35143687415984	
38.0	222.2626643939002	face	0.0		146	28.0	female	white	5.676880222841227	smiling	124	sub-06	1.0	5.0	124_smiling	0.0		324.71797735545624	1.2416429232725932
38.0	222.59610921227795	pulse	0.0	t		28.0	female	white	5.676880222841227	smiling	124	sub-06	1.0	5.0	124_smiling	0.0		325.051422173834	
38.0	223.29609058783535	pulse	0.0	t		28.0	female	white	5.676880222841227	smiling	124	sub-06	1.0	5.0	124_smiling	0.0		325.7514035493914	
38.0	223.5043073171728	fix	1.0		444	28.0	female	white	5.676880222841227	smiling	124	sub-06	1.0	5.0	124_smiling	0.0		325.95962027872883	3.7665868461917853
38.0	223.99611361935604	pulse	1.0	t		28.0	female	white	5.676880222841227	smiling	124	sub-06	1.0	5.0	124_smiling	0.0		326.4514265809121	
38.0	224.69605515008152	pulse	1.0	t		28.0	female	white	5.676880222841227	smiling	124	sub-06	1.0	5.0	124_smiling	0.0		327.15136811163757	
38.0	225.39604950539433	pulse	1.0	t		28.0	female	white	5.676880222841227	smiling	124	sub-06	1.0	5.0	124_smiling	0.0		327.8513624669504	
38.0	226.09603752175826	pulse	1.0	t		28.0	female	white	5.676880222841227	smiling	124	sub-06	1.0	5.0	124_smiling	0.0		328.5513504833143	
38.0	226.79601678433391	pulse	1.0	t		28.0	female	white	5.676880222841227	smiling	124	sub-06	1.0	5.0	124_smiling	0.0		329.25132974588996	
39.0	227.27089416336457	face	0.0		145	21.0	male	east_asian/white	3.501790688420215	neutral	036	sub-06	1.0	5.0	036_neutral	0.0		329.7262071249206	1.2333111268817447
39.0	227.49602200642403	pulse	0.0	t		21.0	male	east_asian/white	3.501790688420215	neutral	036	sub-06	1.0	5.0	036_neutral	0.0		329.9513349679801	
39.0	228.19600609867484	pulse	0.0	t		21.0	male	east_asian/white	3.501790688420215	neutral	036	sub-06	1.0	5.0	036_neutral	0.0		330.6513190602309	
39.0	228.50420529024632	fix	1.0		444	21.0	male	east_asian/white	3.501790688420215	neutral	036	sub-06	1.0	5.0	036_neutral	0.0		330.95951825180236	3.749920838577964
39.0	228.89598022971768	pulse	1.0	t		21.0	male	east_asian/white	3.501790688420215	neutral	036	sub-06	1.0	5.0	036_neutral	0.0		331.3512931912737	
39.0	229.59595134221308	pulse	1.0	t		21.0	male	east_asian/white	3.501790688420215	neutral	036	sub-06	1.0	5.0	036_neutral	0.0		332.05126430376913	
39.0	230.29596411067178	pulse	1.0	t		21.0	male	east_asian/white	3.501790688420215	neutral	036	sub-06	1.0	5.0	036_neutral	0.0		332.7512770722278	
39.0	230.9959367324409	pulse	1.0	t		21.0	male	east_asian/white	3.501790688420215	neutral	036	sub-06	1.0	5.0	036_neutral	0.0		333.45124969399694	
39.0	231.69591478759685	pulse	1.0	t		21.0	male	east_asian/white	3.501790688420215	neutral	036	sub-06	1.0	5.0	036_neutral	0.0		334.1512277491529	
40.0	232.25412612882428	fix	0.0		720													334.70943909038033	5.999872617270739
40.0	232.39590642621624	pulse	0.0	t														334.8512193877723	
40.0	233.09588780177364	pulse	0.0	t														335.5512007633297	
40.0	233.79587400700984	pulse	0.0	t														336.2511869685659	
40.0	234.4958683623263	pulse	0.0	t														336.95118132388234	
40.0	235.19584128594943	pulse	0.0	t														337.6511542475055	
40.0	235.89582900045934	pulse	0.0	t														338.3511419620154	
40.0	236.59581399827584	pulse	0.0	t														339.0511269598319	
40.0	237.29579567568726	pulse	0.0	t														339.7511086372433	
40.0	237.99581236825907	pulse	0.0	t														340.4511253298151	
