trial_nr	onset	event_type	phase	response	nr_frames	face_age	face_sex	face_eth	attractiveness	expression	face_id	sub_id	ses	run	trial_type	catch	rating_type	onset_abs	duration
-1.0	0.061826256205677055	fix	0.0		713													25.46830868574034	5.957943535922823
-1.0	0.7032934359485807	pulse	0.0	t														26.109775865483243	
-1.0	1.4032854669349035	pulse	0.0	t														26.809767896469566	
-1.0	2.1032654236623785	pulse	0.0	t														27.50974785319704	
-1.0	2.8032586620756774	pulse	0.0	t														28.20974109161034	
-1.0	3.5032419392227894	pulse	0.0	t														28.909724368757452	
-1.0	4.203240007340355	pulse	0.0	t														29.609722436875018	
-1.0	4.903229019761056	pulse	0.0	t														30.30971144929572	
-1.0	5.603222560032009	pulse	0.0	t														31.00970498956667	
0.0	6.0197697921285	face	0.0		144	30.0	female	black	2.7345801830481498	smiling	062	sub-09	1.0	3.0	062_smiling	0.0		31.426252221663162	1.2333257466707437
0.0	6.303221835576551	pulse	0.0	t		30.0	female	black	2.7345801830481498	smiling	062	sub-09	1.0	3.0	062_smiling	0.0		31.709704265111213	
0.0	7.003201490446372	pulse	0.0	t		30.0	female	black	2.7345801830481498	smiling	062	sub-09	1.0	3.0	062_smiling	0.0		32.409683919981035	
0.0	7.2530955387992435	fix	1.0		445	30.0	female	black	2.7345801830481498	smiling	062	sub-09	1.0	3.0	062_smiling	0.0		32.659577968333906	3.758246116918599
0.0	7.703188088016759	pulse	1.0	t		30.0	female	black	2.7345801830481498	smiling	062	sub-09	1.0	3.0	062_smiling	0.0		33.10967051755142	
0.0	8.403173176302516	pulse	1.0	t		30.0	female	black	2.7345801830481498	smiling	062	sub-09	1.0	3.0	062_smiling	0.0		33.80965560583718	
0.0	9.103183016824914	pulse	1.0	t		30.0	female	black	2.7345801830481498	smiling	062	sub-09	1.0	3.0	062_smiling	0.0		34.50966544635958	
0.0	9.803153314143856	pulse	1.0	t		30.0	female	black	2.7345801830481498	smiling	062	sub-09	1.0	3.0	062_smiling	0.0		35.20963574367852	
0.0	10.50315198597309	pulse	1.0	t		30.0	female	black	2.7345801830481498	smiling	062	sub-09	1.0	3.0	062_smiling	0.0		35.90963441550775	
1.0	11.011341655717843	face	0.0		146	27.0	female	white	3.504576203740549	neutral	144	sub-09	1.0	3.0	144_neutral	0.0		36.417824085252505	1.2416639298353402
1.0	11.203142507678422	pulse	0.0	t		27.0	female	white	3.504576203740549	neutral	144	sub-09	1.0	3.0	144_neutral	0.0		36.609624937213084	
1.0	11.903118540270953	pulse	0.0	t		27.0	female	white	3.504576203740549	neutral	144	sub-09	1.0	3.0	144_neutral	0.0		37.309600969805615	
1.0	12.253005585553183	fix	1.0		445	27.0	female	white	3.504576203740549	neutral	144	sub-09	1.0	3.0	144_neutral	0.0		37.659488015087845	3.758276000713522
1.0	12.603116004673211	pulse	1.0	t		27.0	female	white	3.504576203740549	neutral	144	sub-09	1.0	3.0	144_neutral	0.0		38.009598434207874	
1.0	13.303098074396985	pulse	1.0	t		27.0	female	white	3.504576203740549	neutral	144	sub-09	1.0	3.0	144_neutral	0.0		38.70958050393165	
1.0	14.003094331375905	pulse	1.0	t		27.0	female	white	3.504576203740549	neutral	144	sub-09	1.0	3.0	144_neutral	0.0		39.40957676091057	
1.0	14.703083343796607	pulse	1.0	t		27.0	female	white	3.504576203740549	neutral	144	sub-09	1.0	3.0	144_neutral	0.0		40.10956577333127	
1.0	15.403083223052818	pulse	1.0	t		27.0	female	white	3.504576203740549	neutral	144	sub-09	1.0	3.0	144_neutral	0.0		40.80956565258748	
2.0	16.011281586266705	face	0.0		146	21.0	male	east_asian/white	3.501790688420215	neutral	036	sub-09	1.0	3.0	036_neutral	0.0		41.41776401580137	1.2416642316929938
2.0	16.103071329907834	pulse	0.0	t		21.0	male	east_asian/white	3.501790688420215	neutral	036	sub-09	1.0	3.0	036_neutral	0.0		41.5095537594425	
2.0	16.803056720051245	pulse	0.0	t		21.0	male	east_asian/white	3.501790688420215	neutral	036	sub-09	1.0	3.0	036_neutral	0.0		42.20953914958591	
2.0	17.2529458179597	fix	1.0		444	21.0	male	east_asian/white	3.501790688420215	neutral	036	sub-09	1.0	3.0	036_neutral	0.0		42.65942824749436	3.7582551726118254
2.0	17.503052675172512	pulse	1.0	t		21.0	male	east_asian/white	3.501790688420215	neutral	036	sub-09	1.0	3.0	036_neutral	0.0		42.909535104707174	
2.0	18.20302840590739	pulse	1.0	t		21.0	male	east_asian/white	3.501790688420215	neutral	036	sub-09	1.0	3.0	036_neutral	0.0		43.60951083544205	
2.0	18.903017116474075	pulse	1.0	t		21.0	male	east_asian/white	3.501790688420215	neutral	036	sub-09	1.0	3.0	036_neutral	0.0		44.30949954600874	
2.0	19.60302725885049	pulse	1.0	t		21.0	male	east_asian/white	3.501790688420215	neutral	036	sub-09	1.0	3.0	036_neutral	0.0		45.00950968838515	
2.0	20.303011743424577	pulse	1.0	t		21.0	male	east_asian/white	3.501790688420215	neutral	036	sub-09	1.0	3.0	036_neutral	0.0		45.70949417295924	
3.0	21.011200990571524	face	0.0		147	36.0	female	white	2.7548746518105847	smiling	011	sub-09	1.0	3.0	011_smiling	0.0		46.41768342010619	1.2416548741384759
3.0	21.00387342310205	pulse	0.0	t		36.0	female	white	2.7548746518105847	smiling	011	sub-09	1.0	3.0	011_smiling	0.0		46.41035585263671	
3.0	21.702991277554247	pulse	0.0	t		36.0	female	white	2.7548746518105847	smiling	011	sub-09	1.0	3.0	011_smiling	0.0		47.10947370708891	
3.0	22.25285586471	fix	1.0		443	36.0	female	white	2.7548746518105847	smiling	011	sub-09	1.0	3.0	011_smiling	0.0		47.65933829424466	3.7582578893234313
3.0	22.402971234278084	pulse	1.0	t		36.0	female	white	2.7548746518105847	smiling	011	sub-09	1.0	3.0	011_smiling	0.0		47.80945366381275	
3.0	23.102951794717228	pulse	1.0	t		36.0	female	white	2.7548746518105847	smiling	011	sub-09	1.0	3.0	011_smiling	0.0		48.50943422425189	
3.0	23.802933864437364	pulse	1.0	t		36.0	female	white	2.7548746518105847	smiling	011	sub-09	1.0	3.0	011_smiling	0.0		49.209416293972026	
3.0	24.502944610532722	pulse	1.0	t		36.0	female	white	2.7548746518105847	smiling	011	sub-09	1.0	3.0	011_smiling	0.0		49.909427040067385	
3.0	25.202935735949723	pulse	1.0	t		36.0	female	white	2.7548746518105847	smiling	011	sub-09	1.0	3.0	011_smiling	0.0		50.609418165484385	
3.0	25.902915994531213	pulse	1.0	t		36.0	female	white	2.7548746518105847	smiling	011	sub-09	1.0	3.0	011_smiling	0.0		51.309398424065876	
4.0	26.01111375403343	face	0.0		147	19.0	female	white	4.298846000795861	neutral	100	sub-09	1.0	3.0	100_neutral	0.0		51.417596183568094	1.2416645335470093
4.0	26.602898667966656	pulse	0.0	t		19.0	female	white	4.298846000795861	neutral	100	sub-09	1.0	3.0	100_neutral	0.0		52.00938109750132	
4.0	27.25277828758044	fix	1.0		443	19.0	female	white	4.298846000795861	neutral	100	sub-09	1.0	3.0	100_neutral	0.0		52.6592607171151	3.766593959488091
4.0	27.30299544317313	pulse	1.0	t		19.0	female	white	4.298846000795861	neutral	100	sub-09	1.0	3.0	100_neutral	0.0		52.709477872707794	
4.0	28.00287397610009	pulse	1.0	t		19.0	female	white	4.298846000795861	neutral	100	sub-09	1.0	3.0	100_neutral	0.0		53.40935640563475	
4.0	28.7028593662435	pulse	1.0	t		19.0	female	white	4.298846000795861	neutral	100	sub-09	1.0	3.0	100_neutral	0.0		54.109341795778164	
4.0	29.40285622693773	pulse	1.0	t		19.0	female	white	4.298846000795861	neutral	100	sub-09	1.0	3.0	100_neutral	0.0		54.80933865647239	
4.0	30.102858521047892	pulse	1.0	t		19.0	female	white	4.298846000795861	neutral	100	sub-09	1.0	3.0	100_neutral	0.0		55.509340950582555	
4.0	30.802844816760626	pulse	1.0	t		19.0	female	white	4.298846000795861	neutral	100	sub-09	1.0	3.0	100_neutral	0.0		56.20932724629529	
5.0	31.01937224706853	face	0.0		145	23.0	male	white	2.6275368085953046	neutral	141	sub-09	1.0	3.0	141_neutral	0.0		56.425854676603194	1.2333456692031177
5.0	31.502840771881893	pulse	0.0	t		23.0	male	white	2.6275368085953046	neutral	141	sub-09	1.0	3.0	141_neutral	0.0		56.909323201416555	
5.0	32.20282103046338	pulse	0.0	t		23.0	male	white	2.6275368085953046	neutral	141	sub-09	1.0	3.0	141_neutral	0.0		57.609303459998046	
5.0	32.25271791627165	fix	1.0		445	23.0	male	white	2.6275368085953046	neutral	141	sub-09	1.0	3.0	141_neutral	0.0		57.65920034580631	3.7665791685176373
5.0	32.90280853360309	pulse	1.0	t		23.0	male	white	2.6275368085953046	neutral	141	sub-09	1.0	3.0	141_neutral	0.0		58.309290963137755	
5.0	33.60278788661526	pulse	1.0	t		23.0	male	white	2.6275368085953046	neutral	141	sub-09	1.0	3.0	141_neutral	0.0		59.00927031614992	
5.0	34.30278414359418	pulse	1.0	t		23.0	male	white	2.6275368085953046	neutral	141	sub-09	1.0	3.0	141_neutral	0.0		59.70926657312884	
5.0	35.002786437704344	pulse	1.0	t		23.0	male	white	2.6275368085953046	neutral	141	sub-09	1.0	3.0	141_neutral	0.0		60.40926886723901	
5.0	35.70275764059261	pulse	1.0	t		23.0	male	white	2.6275368085953046	neutral	141	sub-09	1.0	3.0	141_neutral	0.0		61.10924007012727	
6.0	36.01929708478929	face	0.0		145	24.0	female	east_asian	4.409868682849185	smiling	030	sub-09	1.0	3.0	030_smiling	0.0		61.42577951432395	1.2333317838019866
6.0	36.40277200896162	pulse	0.0	t		24.0	female	east_asian	4.409868682849185	smiling	030	sub-09	1.0	3.0	030_smiling	0.0		61.80925443849628	
6.0	37.102748343411804	pulse	0.0	t		24.0	female	east_asian	4.409868682849185	smiling	030	sub-09	1.0	3.0	030_smiling	0.0		62.50923077294647	
6.0	37.25262886859127	fix	1.0		445	24.0	female	east_asian	4.409868682849185	smiling	030	sub-09	1.0	3.0	030_smiling	0.0		62.659111298125936	3.7665924502070993
6.0	37.80274701524104	pulse	1.0	t		24.0	female	east_asian	4.409868682849185	smiling	030	sub-09	1.0	3.0	030_smiling	0.0		63.2092294447757	
6.0	38.502724858972215	pulse	1.0	t		24.0	female	east_asian	4.409868682849185	smiling	030	sub-09	1.0	3.0	030_smiling	0.0		63.90920728850688	
6.0	39.20272866236337	pulse	1.0	t		24.0	female	east_asian	4.409868682849185	smiling	030	sub-09	1.0	3.0	030_smiling	0.0		64.60921109189803	
6.0	39.902706506094546	pulse	1.0	t		24.0	female	east_asian	4.409868682849185	smiling	030	sub-09	1.0	3.0	030_smiling	0.0		65.30918893562921	
6.0	40.60269702779988	pulse	1.0	t		24.0	female	east_asian	4.409868682849185	smiling	030	sub-09	1.0	3.0	030_smiling	0.0		66.00917945733454	
7.0	41.01922131879837	face	0.0		145	40.0	female	west_asian	1.5777954635893354	smiling	038	sub-09	1.0	3.0	038_smiling	0.0		66.42570374833304	1.233346876630094
7.0	41.302683625370264	pulse	0.0	t		40.0	female	west_asian	1.5777954635893354	smiling	038	sub-09	1.0	3.0	038_smiling	0.0		66.70916605490493	
7.0	42.0026635820941	pulse	0.0	t		40.0	female	west_asian	1.5777954635893354	smiling	038	sub-09	1.0	3.0	038_smiling	0.0		67.40914601162876	
7.0	42.252568195428466	fix	1.0		444	40.0	female	west_asian	1.5777954635893354	smiling	038	sub-09	1.0	3.0	038_smiling	0.0		67.65905062496313	3.758381650502997
7.0	42.70267493190113	pulse	1.0	t		40.0	female	west_asian	1.5777954635893354	smiling	038	sub-09	1.0	3.0	038_smiling	0.0		68.10915736143579	
7.0	43.40265307748632	pulse	1.0	t		40.0	female	west_asian	1.5777954635893354	smiling	038	sub-09	1.0	3.0	038_smiling	0.0		68.80913550702098	
7.0	44.102646919614926	pulse	1.0	t		40.0	female	west_asian	1.5777954635893354	smiling	038	sub-09	1.0	3.0	038_smiling	0.0		69.50912934914959	
7.0	44.802641365451564	pulse	1.0	t		40.0	female	west_asian	1.5777954635893354	smiling	038	sub-09	1.0	3.0	038_smiling	0.0		70.20912379498623	
7.0	45.5026448669887	pulse	1.0	t		40.0	female	west_asian	1.5777954635893354	smiling	038	sub-09	1.0	3.0	038_smiling	0.0		70.90912729652337	
8.0	46.010949845931464	face	0.0		146	25.0	female	black	3.858336649423	smiling	126	sub-09	1.0	3.0	126_smiling	0.0		71.41743227546613	1.2415268869663123
8.0	46.20262120143525	pulse	0.0	t		25.0	female	black	3.858336649423	smiling	126	sub-09	1.0	3.0	126_smiling	0.0		71.60910363096991	
8.0	46.90258938575789	pulse	0.0	t		25.0	female	black	3.858336649423	smiling	126	sub-09	1.0	3.0	126_smiling	0.0		72.30907181529255	
8.0	47.252476732897776	fix	1.0		445	25.0	female	black	3.858336649423	smiling	126	sub-09	1.0	3.0	126_smiling	0.0		72.65895916243244	3.766593959488091
8.0	47.60259922628029	pulse	1.0	t		25.0	female	black	3.858336649423	smiling	126	sub-09	1.0	3.0	126_smiling	0.0		73.00908165581495	
8.0	48.30258703127765	pulse	1.0	t		25.0	female	black	3.858336649423	smiling	126	sub-09	1.0	3.0	126_smiling	0.0		73.70906946081232	
8.0	49.002576647410024	pulse	1.0	t		25.0	female	black	3.858336649423	smiling	126	sub-09	1.0	3.0	126_smiling	0.0		74.40905907694469	
8.0	49.70254935957928	pulse	1.0	t		25.0	female	black	3.858336649423	smiling	126	sub-09	1.0	3.0	126_smiling	0.0		75.10903178911394	
8.0	50.40254863512382	pulse	1.0	t		25.0	female	black	3.858336649423	smiling	126	sub-09	1.0	3.0	126_smiling	0.0		75.80903106465848	
9.0	51.01907069238587	face	0.0		145	31.0	female	white	2.1822522881018704	smiling	102	sub-09	1.0	3.0	102_smiling	1.0	dominance	76.42555312192053	1.2333311800903175
9.0	51.10266684214366	pulse	0.0	t		31.0	female	white	2.1822522881018704	smiling	102	sub-09	1.0	3.0	102_smiling	1.0	dominance	76.50914927167833	
9.0	51.802521830264595	pulse	0.0	t		31.0	female	white	2.1822522881018704	smiling	102	sub-09	1.0	3.0	102_smiling	1.0	dominance	77.20900425979926	
9.0	52.252401872476185	fix	1.0		177	31.0	female	white	2.1822522881018704	smiling	102	sub-09	1.0	3.0	102_smiling	1.0	dominance	77.65888430201085	1.5083562945546873
9.0	52.502513559393265	pulse	1.0	t		31.0	female	white	2.1822522881018704	smiling	102	sub-09	1.0	3.0	102_smiling	1.0	dominance	77.90899598892793	
9.0	53.20250830709119	pulse	1.0	t		31.0	female	white	2.1822522881018704	smiling	102	sub-09	1.0	3.0	102_smiling	1.0	dominance	78.60899073662586	
9.0	53.76075816703087	rating	2.0		293	31.0	female	white	2.1822522881018704	smiling	102	sub-09	1.0	3.0	102_smiling	1.0	dominance	79.16724059656553	2.4916011436725967
9.0	53.90251150677068	pulse	2.0	t		31.0	female	white	2.1822522881018704	smiling	102	sub-09	1.0	3.0	102_smiling	1.0	dominance	79.30899393630534	
9.0	54.60248814307488	pulse	2.0	t		31.0	female	white	2.1822522881018704	smiling	102	sub-09	1.0	3.0	102_smiling	1.0	dominance	80.00897057260954	
9.0	55.105637714197655	response	2.0	d		31.0	female	white	2.1822522881018704	smiling	102	sub-09	1.0	3.0	102_smiling	1.0	dominance	80.51212014373232	
9.0	55.302465986806055	pulse	2.0	t		31.0	female	white	2.1822522881018704	smiling	102	sub-09	1.0	3.0	102_smiling	1.0	dominance	80.70894841634072	
9.0	56.00245499922676	pulse	2.0	t		31.0	female	white	2.1822522881018704	smiling	102	sub-09	1.0	3.0	102_smiling	1.0	dominance	81.40893742876142	
9.0	56.25235931070347	fix	3.0		444	31.0	female	white	2.1822522881018704	smiling	102	sub-09	1.0	3.0	102_smiling	1.0	dominance	81.65884174023813	3.766595468772721
9.0	56.70245880261791	pulse	3.0	t		31.0	female	white	2.1822522881018704	smiling	102	sub-09	1.0	3.0	102_smiling	1.0	dominance	82.10894123215257	
9.0	57.402444494618976	pulse	3.0	t		31.0	female	white	2.1822522881018704	smiling	102	sub-09	1.0	3.0	102_smiling	1.0	dominance	82.80892692415364	
9.0	58.102435620035976	pulse	3.0	t		31.0	female	white	2.1822522881018704	smiling	102	sub-09	1.0	3.0	102_smiling	1.0	dominance	83.50891804957064	
9.0	58.80241919904074	pulse	3.0	t		31.0	female	white	2.1822522881018704	smiling	102	sub-09	1.0	3.0	102_smiling	1.0	dominance	84.2089016285754	
9.0	59.502407004038105	pulse	3.0	t		31.0	female	white	2.1822522881018704	smiling	102	sub-09	1.0	3.0	102_smiling	1.0	dominance	84.90888943357277	
10.0	60.01895477947619	face	0.0		145	26.0	male	white	2.7966573816155993	smiling	117	sub-09	1.0	3.0	117_smiling	0.0		85.42543720901085	1.2333124649849196
10.0	60.20241322228321	pulse	0.0	t		26.0	male	white	2.7966573816155993	smiling	117	sub-09	1.0	3.0	117_smiling	0.0		85.60889565181787	
10.0	60.90239166972606	pulse	0.0	t		26.0	male	white	2.7966573816155993	smiling	117	sub-09	1.0	3.0	117_smiling	0.0		86.30887409926072	
10.0	61.25226724446111	fix	1.0		444	26.0	male	white	2.7966573816155993	smiling	117	sub-09	1.0	3.0	117_smiling	0.0		86.65874967399577	3.7583916117691842
10.0	61.60238520999337	pulse	1.0	t		26.0	male	white	2.7966573816155993	smiling	117	sub-09	1.0	3.0	117_smiling	0.0		87.00886763952803	
10.0	62.302361544443556	pulse	1.0	t		26.0	male	white	2.7966573816155993	smiling	117	sub-09	1.0	3.0	117_smiling	0.0		87.70884397397822	
10.0	63.00235719770717	pulse	1.0	t		26.0	male	white	2.7966573816155993	smiling	117	sub-09	1.0	3.0	117_smiling	0.0		88.40883962724183	
10.0	63.70233745628866	pulse	1.0	t		26.0	male	white	2.7966573816155993	smiling	117	sub-09	1.0	3.0	117_smiling	0.0		89.10881988582332	
10.0	64.40234427824907	pulse	1.0	t		26.0	male	white	2.7966573816155993	smiling	117	sub-09	1.0	3.0	117_smiling	0.0		89.80882670778374	
11.0	65.0106588562303	face	0.0		146	20.0	male	black	3.1070433744528456	smiling	082	sub-09	1.0	3.0	082_smiling	0.0		90.41714128576496	1.241547715064371
11.0	65.1023299702465	pulse	0.0	t		20.0	male	black	3.1070433744528456	smiling	082	sub-09	1.0	3.0	082_smiling	0.0		90.50881239978116	
11.0	65.80231324739725	pulse	0.0	t		20.0	male	black	3.1070433744528456	smiling	082	sub-09	1.0	3.0	082_smiling	0.0		91.20879567693191	
11.0	66.25220657129466	fix	1.0		444	20.0	male	black	3.1070433744528456	smiling	082	sub-09	1.0	3.0	082_smiling	0.0		91.65868900082933	3.766588827926171
11.0	66.50231584336143	pulse	1.0	t		20.0	male	black	3.1070433744528456	smiling	082	sub-09	1.0	3.0	082_smiling	0.0		91.90879827289609	
11.0	67.20229610194292	pulse	1.0	t		20.0	male	black	3.1070433744528456	smiling	082	sub-09	1.0	3.0	082_smiling	0.0		92.60877853147758	
11.0	67.90227424753175	pulse	1.0	t		20.0	male	black	3.1070433744528456	smiling	082	sub-09	1.0	3.0	082_smiling	0.0		93.30875667706641	
11.0	68.60225933581751	pulse	1.0	t		20.0	male	black	3.1070433744528456	smiling	082	sub-09	1.0	3.0	082_smiling	0.0		94.00874176535217	
11.0	69.3022583095044	pulse	1.0	t		20.0	male	black	3.1070433744528456	smiling	082	sub-09	1.0	3.0	082_smiling	0.0		94.70874073903906	
12.0	70.01879539922083	face	0.0		146	47.0	male	east_asian	2.171110226820533	neutral	024	sub-09	1.0	3.0	024_neutral	0.0		95.4252778287555	1.2333354060829151
12.0	70.00500327212285	pulse	0.0	t		47.0	male	east_asian	2.171110226820533	neutral	024	sub-09	1.0	3.0	024_neutral	0.0		95.41148570165751	
12.0	70.70225263460452	pulse	0.0	t		47.0	male	east_asian	2.171110226820533	neutral	024	sub-09	1.0	3.0	024_neutral	0.0		96.10873506413918	
12.0	71.25213080530375	fix	1.0		443	47.0	male	east_asian	2.171110226820533	neutral	024	sub-09	1.0	3.0	024_neutral	0.0		96.65861323483841	3.7665942613457446
12.0	71.4022407414559	pulse	1.0	t		47.0	male	east_asian	2.171110226820533	neutral	024	sub-09	1.0	3.0	024_neutral	0.0		96.80872317099056	
12.0	72.10222130189504	pulse	1.0	t		47.0	male	east_asian	2.171110226820533	neutral	024	sub-09	1.0	3.0	024_neutral	0.0		97.5087037314297	
12.0	72.80220759760778	pulse	1.0	t		47.0	male	east_asian	2.171110226820533	neutral	024	sub-09	1.0	3.0	024_neutral	0.0		98.20869002714244	
12.0	73.50219842116712	pulse	1.0	t		47.0	male	east_asian	2.171110226820533	neutral	024	sub-09	1.0	3.0	024_neutral	0.0		98.90868085070178	
12.0	74.20219467814604	pulse	1.0	t		47.0	male	east_asian	2.171110226820533	neutral	024	sub-09	1.0	3.0	024_neutral	0.0		99.6086771076807	
12.0	74.9021839924244	pulse	1.0	t		47.0	male	east_asian	2.171110226820533	neutral	024	sub-09	1.0	3.0	024_neutral	0.0		100.30866642195906	
13.0	75.0187250666495	face	0.0		146	28.0	female	white	5.676880222841227	smiling	124	sub-09	1.0	3.0	124_smiling	0.0		100.42520749618416	1.233318200258509
13.0	75.60216666585984	pulse	0.0	t		28.0	female	white	5.676880222841227	smiling	124	sub-09	1.0	3.0	124_smiling	0.0		101.0086490953945	
13.0	76.252043266908	fix	1.0		443	28.0	female	white	5.676880222841227	smiling	124	sub-09	1.0	3.0	124_smiling	0.0		101.65852569644267	3.7583882913459092
13.0	76.30215416899955	pulse	1.0	t		28.0	female	white	5.676880222841227	smiling	124	sub-09	1.0	3.0	124_smiling	0.0		101.70863659853421	
13.0	77.00214227585093	pulse	1.0	t		28.0	female	white	5.676880222841227	smiling	124	sub-09	1.0	3.0	124_smiling	0.0		102.40862470538559	
13.0	77.702127967852	pulse	1.0	t		28.0	female	white	5.676880222841227	smiling	124	sub-09	1.0	3.0	124_smiling	0.0		103.10861039738666	
13.0	78.40213237495846	pulse	1.0	t		28.0	female	white	5.676880222841227	smiling	124	sub-09	1.0	3.0	124_smiling	0.0		103.80861480449312	
13.0	79.10212500966009	pulse	1.0	t		28.0	female	white	5.676880222841227	smiling	124	sub-09	1.0	3.0	124_smiling	0.0		104.50860743919475	
13.0	79.8020977218257	pulse	1.0	t		28.0	female	white	5.676880222841227	smiling	124	sub-09	1.0	3.0	124_smiling	0.0		105.20858015136037	
14.0	80.01043155825391	face	0.0		146	25.0	female	west_asian	2.6756864305610826	neutral	064	sub-09	1.0	3.0	064_neutral	0.0		105.41691398778858	1.2415332259552088
14.0	80.50209096024264	pulse	0.0	t		25.0	female	west_asian	2.6756864305610826	neutral	064	sub-09	1.0	3.0	064_neutral	0.0		105.9085733897773	
14.0	81.20208299122896	pulse	0.0	t		25.0	female	west_asian	2.6756864305610826	neutral	064	sub-09	1.0	3.0	064_neutral	0.0		106.60856542076363	
14.0	81.25196478420912	fix	1.0		445	25.0	female	west_asian	2.6756864305610826	neutral	064	sub-09	1.0	3.0	064_neutral	0.0		106.65844721374378	3.7665936576304375
14.0	81.90208619090845	pulse	1.0	t		25.0	female	west_asian	2.6756864305610826	neutral	064	sub-09	1.0	3.0	064_neutral	0.0		107.30856862044311	
14.0	82.60205286594646	pulse	1.0	t		25.0	female	west_asian	2.6756864305610826	neutral	064	sub-09	1.0	3.0	064_neutral	0.0		108.00853529548112	
14.0	83.30204097279784	pulse	1.0	t		25.0	female	west_asian	2.6756864305610826	neutral	064	sub-09	1.0	3.0	064_neutral	0.0		108.7085234023325	
14.0	84.00204658733128	pulse	1.0	t		25.0	female	west_asian	2.6756864305610826	neutral	064	sub-09	1.0	3.0	064_neutral	0.0		109.40852901686594	
14.0	84.7020256384858	pulse	1.0	t		25.0	female	west_asian	2.6756864305610826	neutral	064	sub-09	1.0	3.0	064_neutral	0.0		110.10850806802046	
15.0	85.01855844183956	face	0.0		145	28.0	male	east_asian	1.5563072025467568	neutral	005	sub-09	1.0	3.0	005_neutral	0.0		110.42504087137422	1.2333311800903175
15.0	85.40201797132977	pulse	0.0	t		28.0	male	east_asian	1.5563072025467568	neutral	005	sub-09	1.0	3.0	005_neutral	0.0		110.80850040086443	
15.0	86.10201845430129	pulse	0.0	t		28.0	male	east_asian	1.5563072025467568	neutral	005	sub-09	1.0	3.0	005_neutral	0.0		111.50850088383595	
15.0	86.25188962192988	fix	1.0		444	28.0	male	east_asian	1.5563072025467568	neutral	005	sub-09	1.0	3.0	005_neutral	0.0		111.65837205146454	3.758276000713522
15.0	86.80200142959075	pulse	1.0	t		28.0	male	east_asian	1.5563072025467568	neutral	005	sub-09	1.0	3.0	005_neutral	0.0		112.20848385912541	
15.0	87.50197806589495	pulse	1.0	t		28.0	male	east_asian	1.5563072025467568	neutral	005	sub-09	1.0	3.0	005_neutral	0.0		112.90846049542961	
15.0	88.20196798388861	pulse	1.0	t		28.0	male	east_asian	1.5563072025467568	neutral	005	sub-09	1.0	3.0	005_neutral	0.0		113.60845041342327	
15.0	88.90197540955705	pulse	1.0	t		28.0	male	east_asian	1.5563072025467568	neutral	005	sub-09	1.0	3.0	005_neutral	0.0		114.30845783909172	
15.0	89.60194299016439	pulse	1.0	t		28.0	male	east_asian	1.5563072025467568	neutral	005	sub-09	1.0	3.0	005_neutral	0.0		115.00842541969905	
16.0	90.0101656226434	face	0.0		146	26.0	female	white	4.854755272582572	neutral	027	sub-09	1.0	3.0	027_neutral	0.0		115.41664805217806	1.2416609112697188
16.0	90.30194739727085	pulse	0.0	t		26.0	female	white	4.854755272582572	neutral	027	sub-09	1.0	3.0	027_neutral	0.0		115.70842982680551	
16.0	91.00193037256395	pulse	0.0	t		26.0	female	white	4.854755272582572	neutral	027	sub-09	1.0	3.0	027_neutral	0.0		116.40841280209861	
16.0	91.25182653391312	fix	1.0		444	26.0	female	white	4.854755272582572	neutral	027	sub-09	1.0	3.0	027_neutral	0.0		116.65830896344778	3.7665981854806887
16.0	91.70192270540792	pulse	1.0	t		26.0	female	white	4.854755272582572	neutral	027	sub-09	1.0	3.0	027_neutral	0.0		117.10840513494259	
16.0	92.40191352896727	pulse	1.0	t		26.0	female	white	4.854755272582572	neutral	027	sub-09	1.0	3.0	027_neutral	0.0		117.80839595850193	
16.0	93.10189891911068	pulse	1.0	t		26.0	female	white	4.854755272582572	neutral	027	sub-09	1.0	3.0	027_neutral	0.0		118.50838134864534	
16.0	93.80188853524669	pulse	1.0	t		26.0	female	white	4.854755272582572	neutral	027	sub-09	1.0	3.0	027_neutral	0.0		119.20837096478135	
16.0	94.50188267922931	pulse	1.0	t		26.0	female	white	4.854755272582572	neutral	027	sub-09	1.0	3.0	027_neutral	0.0		119.90836510876397	
17.0	95.0184247193938	face	0.0		145	40.0	male	black	2.408674890569041	smiling	061	sub-09	1.0	3.0	061_smiling	1.0	attractiveness	120.42490714892847	1.2333305763750104
17.0	95.20188104920453	pulse	0.0	t		40.0	male	black	2.408674890569041	smiling	061	sub-09	1.0	3.0	061_smiling	1.0	attractiveness	120.6083634787392	
17.0	95.90186493006331	pulse	0.0	t		40.0	male	black	2.408674890569041	smiling	061	sub-09	1.0	3.0	061_smiling	1.0	attractiveness	121.30834735959797	
17.0	96.25175529576882	fix	1.0		177	40.0	male	black	2.408674890569041	smiling	061	sub-09	1.0	3.0	061_smiling	1.0	attractiveness	121.65823772530348	1.4999631735045114
17.0	96.60185877219192	pulse	1.0	t		40.0	male	black	2.408674890569041	smiling	061	sub-09	1.0	3.0	061_smiling	1.0	attractiveness	122.00834120172658	
17.0	97.30186257558307	pulse	1.0	t		40.0	male	black	2.408674890569041	smiling	061	sub-09	1.0	3.0	061_smiling	1.0	attractiveness	122.70834500511774	
17.0	97.75171846927333	rating	2.0		294	40.0	male	black	2.408674890569041	smiling	061	sub-09	1.0	3.0	061_smiling	1.0	attractiveness	123.15820089880799	2.49997464405169
17.0	98.00183015619041	pulse	2.0	t		40.0	male	black	2.408674890569041	smiling	061	sub-09	1.0	3.0	061_smiling	1.0	attractiveness	123.40831258572507	
17.0	98.70181373519517	pulse	2.0	t		40.0	male	black	2.408674890569041	smiling	061	sub-09	1.0	3.0	061_smiling	1.0	attractiveness	124.10829616472984	
17.0	99.15496228000484	response	2.0	d		40.0	male	black	2.408674890569041	smiling	061	sub-09	1.0	3.0	061_smiling	1.0	attractiveness	124.5614447095395	
17.0	99.40181180331274	pulse	2.0	t		40.0	male	black	2.408674890569041	smiling	061	sub-09	1.0	3.0	061_smiling	1.0	attractiveness	124.8082942328474	
17.0	100.10179658974448	pulse	2.0	t		40.0	male	black	2.408674890569041	smiling	061	sub-09	1.0	3.0	061_smiling	1.0	attractiveness	125.50827901927914	
17.0	100.25169311332502	fix	3.0		444	40.0	male	black	2.408674890569041	smiling	061	sub-09	1.0	3.0	061_smiling	1.0	attractiveness	125.65817554285968	3.7582618134547374
17.0	100.80179978942397	pulse	3.0	t		40.0	male	black	2.408674890569041	smiling	061	sub-09	1.0	3.0	061_smiling	1.0	attractiveness	126.20828221895863	
17.0	101.5017737090202	pulse	3.0	t		40.0	male	black	2.408674890569041	smiling	061	sub-09	1.0	3.0	061_smiling	1.0	attractiveness	126.90825613855486	
17.0	102.20176724928751	pulse	3.0	t		40.0	male	black	2.408674890569041	smiling	061	sub-09	1.0	3.0	061_smiling	1.0	attractiveness	127.60824967882218	
17.0	102.90175746913883	pulse	3.0	t		40.0	male	black	2.408674890569041	smiling	061	sub-09	1.0	3.0	061_smiling	1.0	attractiveness	128.3082398986735	
17.0	103.601736822151	pulse	3.0	t		40.0	male	black	2.408674890569041	smiling	061	sub-09	1.0	3.0	061_smiling	1.0	attractiveness	129.00821925168566	
18.0	104.00995492677976	face	0.0		146	24.0	female	east_asian	2.9076800636689217	neutral	034	sub-09	1.0	3.0	034_neutral	0.0		129.41643735631442	1.2416633261236711
18.0	104.3017611517862	pulse	0.0	t		24.0	female	east_asian	2.9076800636689217	neutral	034	sub-09	1.0	3.0	034_neutral	0.0		129.70824358132086	
18.0	105.00172843053952	pulse	0.0	t		24.0	female	east_asian	2.9076800636689217	neutral	034	sub-09	1.0	3.0	034_neutral	0.0		130.40821086007418	
18.0	105.25161825290343	fix	1.0		445	24.0	female	east_asian	2.9076800636689217	neutral	034	sub-09	1.0	3.0	034_neutral	0.0		130.6581006824381	3.76661056159719
18.0	105.70172166895281	pulse	1.0	t		24.0	female	east_asian	2.9076800636689217	neutral	034	sub-09	1.0	3.0	034_neutral	0.0		131.10820409848748	
18.0	106.40171128508518	pulse	1.0	t		24.0	female	east_asian	2.9076800636689217	neutral	034	sub-09	1.0	3.0	034_neutral	0.0		131.80819371461985	
18.0	107.10169758080156	pulse	1.0	t		24.0	female	east_asian	2.9076800636689217	neutral	034	sub-09	1.0	3.0	034_neutral	0.0		132.50818001033622	
18.0	107.8016905173572	pulse	1.0	t		24.0	female	east_asian	2.9076800636689217	neutral	034	sub-09	1.0	3.0	034_neutral	0.0		133.20817294689186	
18.0	108.50167288893499	pulse	1.0	t		24.0	female	east_asian	2.9076800636689217	neutral	034	sub-09	1.0	3.0	034_neutral	0.0		133.90815531846965	
19.0	109.01822881450062	face	0.0		145	21.0	male	black	2.969757262236371	smiling	137	sub-09	1.0	3.0	137_smiling	0.0		134.42471124403528	1.2332979758684814
19.0	109.20166974962558	pulse	0.0	t		21.0	male	black	2.969757262236371	smiling	137	sub-09	1.0	3.0	137_smiling	0.0		134.60815217916024	
19.0	109.90165393234565	pulse	0.0	t		21.0	male	black	2.969757262236371	smiling	137	sub-09	1.0	3.0	137_smiling	0.0		135.30813636188032	
19.0	110.2515267903691	fix	1.0		444	21.0	male	black	2.969757262236371	smiling	137	sub-09	1.0	3.0	137_smiling	0.0		135.65800921990376	3.7666102597431745
19.0	110.60163871877376	pulse	1.0	t		21.0	male	black	2.969757262236371	smiling	137	sub-09	1.0	3.0	137_smiling	0.0		136.00812114830842	
19.0	111.30162803305211	pulse	1.0	t		21.0	male	black	2.969757262236371	smiling	137	sub-09	1.0	3.0	137_smiling	0.0		136.70811046258677	
19.0	112.00162157332306	pulse	1.0	t		21.0	male	black	2.969757262236371	smiling	137	sub-09	1.0	3.0	137_smiling	0.0		137.40810400285773	
19.0	112.70160243561986	pulse	1.0	t		21.0	male	black	2.969757262236371	smiling	137	sub-09	1.0	3.0	137_smiling	0.0		138.10808486515452	
19.0	113.40159990002576	pulse	1.0	t		21.0	male	black	2.969757262236371	smiling	137	sub-09	1.0	3.0	137_smiling	0.0		138.80808232956042	
20.0	114.01813705011227	face	0.0		145	40.0	male	white	1.868682849184242	smiling	172	sub-09	1.0	3.0	172_smiling	0.0		139.42461947964694	1.2333299726633413
20.0	114.10159555328937	pulse	0.0	t		40.0	male	white	1.868682849184242	smiling	172	sub-09	1.0	3.0	172_smiling	0.0		139.50807798282403	
20.0	114.80157581187086	pulse	0.0	t		40.0	male	white	1.868682849184242	smiling	172	sub-09	1.0	3.0	172_smiling	0.0		140.20805824140552	
20.0	115.25146702277561	fix	1.0		1185	40.0	male	white	1.868682849184242	smiling	172	sub-09	1.0	3.0	172_smiling	0.0		140.65794945231028	10.016503704384377
20.0	115.50157750226936	pulse	1.0	t		40.0	male	white	1.868682849184242	smiling	172	sub-09	1.0	3.0	172_smiling	0.0		140.90805993180402	
20.0	116.20156470355141	pulse	1.0	t		40.0	male	white	1.868682849184242	smiling	172	sub-09	1.0	3.0	172_smiling	0.0		141.60804713308607	
20.0	116.90153439715505	pulse	1.0	t		40.0	male	white	1.868682849184242	smiling	172	sub-09	1.0	3.0	172_smiling	0.0		142.3080168266897	
20.0	117.60152310772173	pulse	1.0	t		40.0	male	white	1.868682849184242	smiling	172	sub-09	1.0	3.0	172_smiling	0.0		143.0080055372564	
20.0	118.30152721297054	pulse	1.0	t		40.0	male	white	1.868682849184242	smiling	172	sub-09	1.0	3.0	172_smiling	0.0		143.7080096425052	
20.0	119.0015207532415	pulse	1.0	t		40.0	male	white	1.868682849184242	smiling	172	sub-09	1.0	3.0	172_smiling	0.0		144.40800318277616	
20.0	119.70149497469174	pulse	1.0	t		40.0	male	white	1.868682849184242	smiling	172	sub-09	1.0	3.0	172_smiling	0.0		145.1079774042264	
20.0	120.40149485394795	pulse	1.0	t		40.0	male	white	1.868682849184242	smiling	172	sub-09	1.0	3.0	172_smiling	0.0		145.80797728348261	
20.0	121.1014862812226	pulse	1.0	t		40.0	male	white	1.868682849184242	smiling	172	sub-09	1.0	3.0	172_smiling	0.0		146.50796871075727	
20.0	121.80147619921627	pulse	1.0	t		40.0	male	white	1.868682849184242	smiling	172	sub-09	1.0	3.0	172_smiling	0.0		147.20795862875093	
20.0	122.50145675965541	pulse	1.0	t		40.0	male	white	1.868682849184242	smiling	172	sub-09	1.0	3.0	172_smiling	0.0		147.90793918919007	
20.0	123.20143973494487	pulse	1.0	t		40.0	male	white	1.868682849184242	smiling	172	sub-09	1.0	3.0	172_smiling	0.0		148.60792216447953	
20.0	123.90144806618628	pulse	1.0	t		40.0	male	white	1.868682849184242	smiling	172	sub-09	1.0	3.0	172_smiling	0.0		149.30793049572094	
20.0	124.60142862662542	pulse	1.0	t		40.0	male	white	1.868682849184242	smiling	172	sub-09	1.0	3.0	172_smiling	0.0		150.00791105616008	
21.0	125.26797072715999	face	0.0		145	20.0	male	black	2.609629924393156	neutral	043	sub-09	1.0	3.0	043_neutral	0.0		150.67445315669465	1.2333133705542423
21.0	125.30142639288533	pulse	0.0	t		20.0	male	black	2.609629924393156	neutral	043	sub-09	1.0	3.0	043_neutral	0.0		150.70790882242	
21.0	126.00141600902134	pulse	0.0	t		20.0	male	black	2.609629924393156	neutral	043	sub-09	1.0	3.0	043_neutral	0.0		151.407898438556	
21.0	126.50128409771423	fix	1.0		443	20.0	male	black	2.609629924393156	neutral	043	sub-09	1.0	3.0	043_neutral	0.0		151.9077665272489	3.766609354170214
21.0	126.70139838059913	pulse	1.0	t		20.0	male	black	2.609629924393156	neutral	043	sub-09	1.0	3.0	043_neutral	0.0		152.1078808101338	
21.0	127.40138135588859	pulse	1.0	t		20.0	male	black	2.609629924393156	neutral	043	sub-09	1.0	3.0	043_neutral	0.0		152.80786378542325	
21.0	128.10138334814474	pulse	1.0	t		20.0	male	black	2.609629924393156	neutral	043	sub-09	1.0	3.0	043_neutral	0.0		153.5078657776794	
21.0	128.8013518343214	pulse	1.0	t		20.0	male	black	2.609629924393156	neutral	043	sub-09	1.0	3.0	043_neutral	0.0		154.20783426385606	
21.0	129.5013517135776	pulse	1.0	t		20.0	male	black	2.609629924393156	neutral	043	sub-09	1.0	3.0	043_neutral	0.0		154.90783414311227	
21.0	130.20135159283745	pulse	1.0	t		20.0	male	black	2.609629924393156	neutral	043	sub-09	1.0	3.0	043_neutral	0.0		155.60783402237212	
22.0	130.26789345188445	face	0.0		146	23.0	male	white	2.6275368085953046	smiling	141	sub-09	1.0	3.0	141_smiling	0.0		155.6743758814191	1.2333296708093258
22.0	130.9013315495613	pulse	0.0	t		23.0	male	white	2.6275368085953046	smiling	141	sub-09	1.0	3.0	141_smiling	0.0		156.30781397909595	
22.0	131.50122312269377	fix	1.0		443	23.0	male	white	2.6275368085953046	smiling	141	sub-09	1.0	3.0	141_smiling	0.0		156.90770555222844	3.7665788666599838
22.0	131.60133746594875	pulse	1.0	t		23.0	male	white	2.6275368085953046	smiling	141	sub-09	1.0	3.0	141_smiling	0.0		157.0078198954834	
22.0	132.30131621524924	pulse	1.0	t		23.0	male	white	2.6275368085953046	smiling	141	sub-09	1.0	3.0	141_smiling	0.0		157.7077986447839	
22.0	133.00130492581593	pulse	1.0	t		23.0	male	white	2.6275368085953046	smiling	141	sub-09	1.0	3.0	141_smiling	0.0		158.4077873553506	
22.0	133.70128518439742	pulse	1.0	t		23.0	male	white	2.6275368085953046	smiling	141	sub-09	1.0	3.0	141_smiling	0.0		159.10776761393208	
22.0	134.40128717664993	pulse	1.0	t		23.0	male	white	2.6275368085953046	smiling	141	sub-09	1.0	3.0	141_smiling	0.0		159.8077696061846	
22.0	135.1012858484828	pulse	1.0	t		23.0	male	white	2.6275368085953046	smiling	141	sub-09	1.0	3.0	141_smiling	0.0		160.50776827801747	
23.0	135.26780198935376	face	0.0		146	27.0	female	white	3.504576203740549	smiling	144	sub-09	1.0	3.0	144_smiling	0.0		160.67428441888842	1.2333483859147236
23.0	135.80125946622138	pulse	0.0	t		27.0	female	white	3.504576203740549	smiling	144	sub-09	1.0	3.0	144_smiling	0.0		161.20774189575604	
23.0	136.50115037526848	fix	1.0		444	27.0	female	white	3.504576203740549	smiling	144	sub-09	1.0	3.0	144_smiling	0.0		161.90763280480314	3.7582603041737457
23.0	136.50854284189336	pulse	1.0	t		27.0	female	white	3.504576203740549	smiling	144	sub-09	1.0	3.0	144_smiling	0.0		161.91502527142802	
23.0	137.20124654675965	pulse	1.0	t		27.0	female	white	3.504576203740549	smiling	144	sub-09	1.0	3.0	144_smiling	0.0		162.6077289762943	
23.0	137.9012156366516	pulse	1.0	t		27.0	female	white	3.504576203740549	smiling	144	sub-09	1.0	3.0	144_smiling	0.0		163.30769806618628	
23.0	138.6012124973422	pulse	1.0	t		27.0	female	white	3.504576203740549	smiling	144	sub-09	1.0	3.0	144_smiling	0.0		164.00769492687687	
23.0	139.30120392461686	pulse	1.0	t		27.0	female	white	3.504576203740549	smiling	144	sub-09	1.0	3.0	144_smiling	0.0		164.70768635415152	
23.0	140.001207426154	pulse	1.0	t		27.0	female	white	3.504576203740549	smiling	144	sub-09	1.0	3.0	144_smiling	0.0		165.40768985568866	
24.0	140.25941067944223	face	0.0		146	22.0	female	white	4.614007162753682	neutral	009	sub-09	1.0	3.0	009_neutral	1.0	attractiveness	165.6658931089769	1.2416636279776867
24.0	140.70119342000908	pulse	0.0	t		22.0	female	white	4.614007162753682	neutral	009	sub-09	1.0	3.0	009_neutral	1.0	attractiveness	166.10767584954374	
24.0	141.40118484728373	pulse	0.0	t		22.0	female	white	4.614007162753682	neutral	009	sub-09	1.0	3.0	009_neutral	1.0	attractiveness	166.8076672768184	
24.0	141.5010743074199	fix	1.0		177	22.0	female	white	4.614007162753682	neutral	009	sub-09	1.0	3.0	009_neutral	1.0	attractiveness	166.90755673695458	1.4999622679315507
24.0	142.1011786894087	pulse	1.0	t		22.0	female	white	4.614007162753682	neutral	009	sub-09	1.0	3.0	009_neutral	1.0	attractiveness	167.50766111894336	
24.0	142.801147477443	pulse	1.0	t		22.0	female	white	4.614007162753682	neutral	009	sub-09	1.0	3.0	009_neutral	1.0	attractiveness	168.20762990697767	
24.0	143.00103657535146	rating	2.0		295	22.0	female	white	4.614007162753682	neutral	009	sub-09	1.0	3.0	009_neutral	1.0	attractiveness	168.40751900488613	2.49997464405169
24.0	143.50114584741823	pulse	2.0	t		22.0	female	white	4.614007162753682	neutral	009	sub-09	1.0	3.0	009_neutral	1.0	attractiveness	168.9076282769529	
24.0	144.20113244498862	pulse	2.0	t		22.0	female	white	4.614007162753682	neutral	009	sub-09	1.0	3.0	009_neutral	1.0	attractiveness	169.60761487452328	
24.0	144.3844450910874	response	2.0	y		22.0	female	white	4.614007162753682	neutral	009	sub-09	1.0	3.0	009_neutral	1.0	attractiveness	169.79092752062206	
24.0	144.90112507969025	pulse	2.0	t		22.0	female	white	4.614007162753682	neutral	009	sub-09	1.0	3.0	009_neutral	1.0	attractiveness	170.3076075092249	
24.0	145.50101121940315	fix	3.0		443	22.0	female	white	4.614007162753682	neutral	009	sub-09	1.0	3.0	009_neutral	1.0	attractiveness	170.90749364893782	3.766583998221904
24.0	145.6011246570888	pulse	3.0	t		22.0	female	white	4.614007162753682	neutral	009	sub-09	1.0	3.0	009_neutral	1.0	attractiveness	171.00760708662347	
24.0	146.30111034908987	pulse	3.0	t		22.0	female	white	4.614007162753682	neutral	009	sub-09	1.0	3.0	009_neutral	1.0	attractiveness	171.70759277862453	
24.0	147.00109121138667	pulse	3.0	t		22.0	female	white	4.614007162753682	neutral	009	sub-09	1.0	3.0	009_neutral	1.0	attractiveness	172.40757364092133	
24.0	147.70107418667612	pulse	3.0	t		22.0	female	white	4.614007162753682	neutral	009	sub-09	1.0	3.0	009_neutral	1.0	attractiveness	173.1075566162108	
24.0	148.40107376407832	pulse	3.0	t		22.0	female	white	4.614007162753682	neutral	009	sub-09	1.0	3.0	009_neutral	1.0	attractiveness	173.80755619361298	
24.0	149.10106579506464	pulse	3.0	t		22.0	female	white	4.614007162753682	neutral	009	sub-09	1.0	3.0	009_neutral	1.0	attractiveness	174.5075482245993	
25.0	149.26759521762506	face	0.0		146	40.0	male	white	1.868682849184242	neutral	172	sub-09	1.0	3.0	172_neutral	0.0		174.67407764715972	1.2333417450681736
25.0	149.80105842976627	pulse	0.0	t		40.0	male	white	1.868682849184242	neutral	172	sub-09	1.0	3.0	172_neutral	0.0		175.20754085930093	
25.0	150.50093696269323	fix	1.0		444	40.0	male	white	1.868682849184242	neutral	172	sub-09	1.0	3.0	172_neutral	0.0		175.9074193922279	3.758325203332788
25.0	150.5083650483939	pulse	1.0	t		40.0	male	white	1.868682849184242	neutral	172	sub-09	1.0	3.0	172_neutral	0.0		175.91484747792856	
25.0	151.20103766203465	pulse	1.0	t		40.0	male	white	1.868682849184242	neutral	172	sub-09	1.0	3.0	172_neutral	0.0		176.6075200915693	
25.0	151.9010182224738	pulse	1.0	t		40.0	male	white	1.868682849184242	neutral	172	sub-09	1.0	3.0	172_neutral	0.0		177.30750065200846	
25.0	152.6010036126172	pulse	1.0	t		40.0	male	white	1.868682849184242	neutral	172	sub-09	1.0	3.0	172_neutral	0.0		178.00748604215187	
25.0	153.30099775659983	pulse	1.0	t		40.0	male	white	1.868682849184242	neutral	172	sub-09	1.0	3.0	172_neutral	0.0		178.7074801861345	
25.0	154.0009922024401	pulse	1.0	t		40.0	male	white	1.868682849184242	neutral	172	sub-09	1.0	3.0	172_neutral	0.0		179.40747463197476	
26.0	154.25926216602602	face	0.0		146	40.0	female	west_asian	1.5777954635893354	neutral	038	sub-09	1.0	3.0	038_neutral	0.0		179.66574459556068	1.241583635994175
26.0	154.70098453528408	pulse	0.0	t		40.0	female	west_asian	1.5777954635893354	neutral	038	sub-09	1.0	3.0	038_neutral	0.0		180.10746696481874	
26.0	155.40095905859198	pulse	0.0	t		40.0	female	west_asian	1.5777954635893354	neutral	038	sub-09	1.0	3.0	038_neutral	0.0		180.80744148812664	
26.0	155.5008458020202	fix	1.0		444	40.0	female	west_asian	1.5777954635893354	neutral	038	sub-09	1.0	3.0	038_neutral	0.0		180.90732823155486	3.7666102597395366
26.0	156.10095290072059	pulse	1.0	t		40.0	female	west_asian	1.5777954635893354	neutral	038	sub-09	1.0	3.0	038_neutral	0.0		181.50743533025525	
26.0	156.80093678157937	pulse	1.0	t		40.0	female	west_asian	1.5777954635893354	neutral	038	sub-09	1.0	3.0	038_neutral	0.0		182.20741921111403	
26.0	157.5009236810074	pulse	1.0	t		40.0	female	west_asian	1.5777954635893354	neutral	038	sub-09	1.0	3.0	038_neutral	0.0		182.90740611054207	
26.0	158.20093080482184	pulse	1.0	t		40.0	female	west_asian	1.5777954635893354	neutral	038	sub-09	1.0	3.0	038_neutral	0.0		183.6074132343565	
26.0	158.90091951538489	pulse	1.0	t		40.0	female	west_asian	1.5777954635893354	neutral	038	sub-09	1.0	3.0	038_neutral	0.0		184.30740194491955	
27.0	159.26745606175973	face	0.0		145	25.0	female	black	3.858336649423	neutral	126	sub-09	1.0	3.0	126_neutral	0.0		184.6739384912944	1.2333160872658482
27.0	159.60090943337855	pulse	0.0	t		25.0	female	black	3.858336649423	neutral	126	sub-09	1.0	3.0	126_neutral	0.0		185.0073918629132	
27.0	160.3008899938177	pulse	0.0	t		25.0	female	black	3.858336649423	neutral	126	sub-09	1.0	3.0	126_neutral	0.0		185.70737242335235	
27.0	160.50077214902558	fix	1.0		444	25.0	female	black	3.858336649423	neutral	126	sub-09	1.0	3.0	126_neutral	0.0		185.90725457856024	3.766592148349446
27.0	161.00089138235853	pulse	1.0	t		25.0	female	black	3.858336649423	neutral	126	sub-09	1.0	3.0	126_neutral	0.0		186.4073738118932	
27.0	161.70087375393632	pulse	1.0	t		25.0	female	black	3.858336649423	neutral	126	sub-09	1.0	3.0	126_neutral	0.0		187.10735618347098	
27.0	162.4008540125178	pulse	1.0	t		25.0	female	black	3.858336649423	neutral	126	sub-09	1.0	3.0	126_neutral	0.0		187.80733644205247	
27.0	163.10084151565752	pulse	1.0	t		25.0	female	black	3.858336649423	neutral	126	sub-09	1.0	3.0	126_neutral	0.0		188.50732394519218	
27.0	163.80082147238136	pulse	1.0	t		25.0	female	black	3.858336649423	neutral	126	sub-09	1.0	3.0	126_neutral	0.0		189.20730390191602	
28.0	164.26736429737502	face	0.0		145	28.0	male	east_asian	1.5563072025467568	smiling	005	sub-09	1.0	3.0	005_smiling	0.0		189.6738467269097	1.233344763633795
28.0	164.50082738877245	pulse	0.0	t		28.0	male	east_asian	1.5563072025467568	smiling	005	sub-09	1.0	3.0	005_smiling	0.0		189.9073098183071	
28.0	165.2008248531747	pulse	0.0	t		28.0	male	east_asian	1.5563072025467568	smiling	005	sub-09	1.0	3.0	005_smiling	0.0		190.60730728270937	
28.0	165.50070906100882	fix	1.0		444	28.0	male	east_asian	1.5563072025467568	smiling	005	sub-09	1.0	3.0	005_smiling	0.0		190.90719149054348	3.766581885225605
28.0	165.90081597859535	pulse	1.0	t		28.0	male	east_asian	1.5563072025467568	smiling	005	sub-09	1.0	3.0	005_smiling	0.0		191.30729840813	
28.0	166.6008010668811	pulse	1.0	t		28.0	male	east_asian	1.5563072025467568	smiling	005	sub-09	1.0	3.0	005_smiling	0.0		192.00728349641577	
28.0	167.30078887187847	pulse	1.0	t		28.0	male	east_asian	1.5563072025467568	smiling	005	sub-09	1.0	3.0	005_smiling	0.0		192.70727130141313	
28.0	168.00077184716793	pulse	1.0	t		28.0	male	east_asian	1.5563072025467568	smiling	005	sub-09	1.0	3.0	005_smiling	0.0		193.4072542767026	
28.0	168.70075301131874	pulse	1.0	t		28.0	male	east_asian	1.5563072025467568	smiling	005	sub-09	1.0	3.0	005_smiling	0.0		194.1072354408534	
29.0	169.26729094623443	face	0.0		145	37.0	male	white	3.898925586947871	neutral	101	sub-09	1.0	3.0	101_neutral	0.0		194.6737733757691	1.2333444617797795
29.0	169.40075409800193	pulse	0.0	t		37.0	male	white	3.898925586947871	neutral	101	sub-09	1.0	3.0	101_neutral	0.0		194.8072365275366	
29.0	170.10074975126918	pulse	0.0	t		37.0	male	white	3.898925586947871	neutral	101	sub-09	1.0	3.0	101_neutral	0.0		195.50723218080384	
29.0	170.5006354080142	fix	1.0		444	37.0	male	white	3.898925586947871	neutral	101	sub-09	1.0	3.0	101_neutral	0.0		195.90711783754887	3.7583735003754555
29.0	170.8007460082481	pulse	1.0	t		37.0	male	white	3.898925586947871	neutral	101	sub-09	1.0	3.0	101_neutral	0.0		196.20722843778276	
29.0	171.50072777611422	pulse	1.0	t		37.0	male	white	3.898925586947871	neutral	101	sub-09	1.0	3.0	101_neutral	0.0		196.90721020564888	
29.0	172.20071256254232	pulse	1.0	t		37.0	male	white	3.898925586947871	neutral	101	sub-09	1.0	3.0	101_neutral	0.0		197.60719499207698	
29.0	172.90070248053598	pulse	1.0	t		37.0	male	white	3.898925586947871	neutral	101	sub-09	1.0	3.0	101_neutral	0.0		198.30718491007065	
29.0	173.60067760755555	pulse	1.0	t		37.0	male	white	3.898925586947871	neutral	101	sub-09	1.0	3.0	101_neutral	0.0		199.00716003709022	
30.0	174.25900890838966	face	0.0		146	32.0	male	white	2.389176283326701	neutral	092	sub-09	1.0	3.0	092_neutral	0.0		199.66549133792432	1.2415353389478696
30.0	174.30068593879696	pulse	0.0	t		32.0	male	white	2.389176283326701	neutral	092	sub-09	1.0	3.0	092_neutral	0.0		199.70716836833162	
30.0	175.00067525307531	pulse	0.0	t		32.0	male	white	2.389176283326701	neutral	092	sub-09	1.0	3.0	092_neutral	0.0		200.40715768260998	
30.0	175.50054424733753	fix	1.0		443	32.0	male	white	2.389176283326701	neutral	092	sub-09	1.0	3.0	092_neutral	0.0		200.9070266768722	3.758354483416042
30.0	175.7006618506457	pulse	1.0	t		32.0	male	white	2.389176283326701	neutral	092	sub-09	1.0	3.0	092_neutral	0.0		201.10714428018036	
30.0	176.40064542965047	pulse	1.0	t		32.0	male	white	2.389176283326701	neutral	092	sub-09	1.0	3.0	092_neutral	0.0		201.80712785918513	
30.0	177.1006296123669	pulse	1.0	t		32.0	male	white	2.389176283326701	neutral	092	sub-09	1.0	3.0	092_neutral	0.0		202.50711204190156	
30.0	177.80062737863045	pulse	1.0	t		32.0	male	white	2.389176283326701	neutral	092	sub-09	1.0	3.0	092_neutral	0.0		203.20710980816511	
30.0	178.50062122075542	pulse	1.0	t		32.0	male	white	2.389176283326701	neutral	092	sub-09	1.0	3.0	092_neutral	0.0		203.90710365029008	
30.0	179.20060479976019	pulse	1.0	t		32.0	male	white	2.389176283326701	neutral	092	sub-09	1.0	3.0	092_neutral	0.0		204.60708722929485	
31.0	179.25889873075357	face	0.0		147	22.0	female	white	4.614007162753682	smiling	009	sub-09	1.0	3.0	009_smiling	0.0		204.66538116028823	1.2415857489904738
31.0	179.90060498087405	pulse	0.0	t		22.0	female	white	4.614007162753682	smiling	009	sub-09	1.0	3.0	009_smiling	0.0		205.3070874104087	
31.0	180.50048447974405	fix	1.0		443	22.0	female	white	4.614007162753682	smiling	009	sub-09	1.0	3.0	009_smiling	0.0		205.9069669092787	3.7665809796562826
31.0	180.60060093599532	pulse	1.0	t		22.0	female	white	4.614007162753682	smiling	009	sub-09	1.0	3.0	009_smiling	0.0		206.00708336552998	
31.0	181.30057968529582	pulse	1.0	t		22.0	female	white	4.614007162753682	smiling	009	sub-09	1.0	3.0	009_smiling	0.0		206.70706211483048	
31.0	182.00056386801225	pulse	1.0	t		22.0	female	white	4.614007162753682	smiling	009	sub-09	1.0	3.0	009_smiling	0.0		207.4070462975469	
31.0	182.70054382473973	pulse	1.0	t		22.0	female	white	4.614007162753682	smiling	009	sub-09	1.0	3.0	009_smiling	0.0		208.1070262542744	
31.0	183.40053223344876	pulse	1.0	t		22.0	female	white	4.614007162753682	smiling	009	sub-09	1.0	3.0	009_smiling	0.0		208.80701466298342	
31.0	184.10052577371607	pulse	1.0	t		22.0	female	white	4.614007162753682	smiling	009	sub-09	1.0	3.0	009_smiling	0.0		209.50700820325073	
32.0	184.26706545940033	face	0.0		146	20.0	male	black	2.609629924393156	smiling	043	sub-09	1.0	3.0	043_smiling	0.0		209.673547888935	1.2333432543528033
32.0	184.80052021955635	pulse	0.0	t		20.0	male	black	2.609629924393156	smiling	043	sub-09	1.0	3.0	043_smiling	0.0		210.207002649091	
32.0	185.50040871375313	fix	1.0		444	20.0	male	black	2.609629924393156	smiling	043	sub-09	1.0	3.0	043_smiling	0.0		210.9068911432878	3.7582409853566787
32.0	185.50791588586435	pulse	1.0	t		20.0	male	black	2.609629924393156	smiling	043	sub-09	1.0	3.0	043_smiling	0.0		210.914398315399	
32.0	186.20050941309455	pulse	1.0	t		20.0	male	black	2.609629924393156	smiling	043	sub-09	1.0	3.0	043_smiling	0.0		211.6069918426292	
32.0	186.9004899735337	pulse	1.0	t		20.0	male	black	2.609629924393156	smiling	043	sub-09	1.0	3.0	043_smiling	0.0		212.30697240306836	
32.0	187.60047838224273	pulse	1.0	t		20.0	male	black	2.609629924393156	smiling	043	sub-09	1.0	3.0	043_smiling	0.0		213.0069608117774	
32.0	188.30046980951738	pulse	1.0	t		20.0	male	black	2.609629924393156	smiling	043	sub-09	1.0	3.0	043_smiling	0.0		213.70695223905204	
32.0	189.00044825696023	pulse	1.0	t		20.0	male	black	2.609629924393156	smiling	043	sub-09	1.0	3.0	043_smiling	0.0		214.4069306864949	
33.0	189.2586496991098	face	0.0		146	40.0	male	black	2.408674890569041	neutral	061	sub-09	1.0	3.0	061_neutral	0.0		214.66513212864447	1.2416835505064228
33.0	189.70045055106675	pulse	0.0	t		40.0	male	black	2.408674890569041	neutral	061	sub-09	1.0	3.0	061_neutral	0.0		215.1069329806014	
33.0	190.40044771361863	pulse	0.0	t		40.0	male	black	2.408674890569041	neutral	061	sub-09	1.0	3.0	061_neutral	0.0		215.8069301431533	
33.0	190.50033324961623	fix	1.0		444	40.0	male	black	2.408674890569041	neutral	061	sub-09	1.0	3.0	061_neutral	0.0		215.9068156791509	3.7665951669150672
33.0	191.10043853717798	pulse	1.0	t		40.0	male	black	2.408674890569041	neutral	061	sub-09	1.0	3.0	061_neutral	0.0		216.50692096671264	
33.0	191.80041215491656	pulse	1.0	t		40.0	male	black	2.408674890569041	neutral	061	sub-09	1.0	3.0	061_neutral	0.0		217.20689458445122	
33.0	192.5004129397421	pulse	1.0	t		40.0	male	black	2.408674890569041	neutral	061	sub-09	1.0	3.0	061_neutral	0.0		217.90689536927675	
33.0	193.20039712246216	pulse	1.0	t		40.0	male	black	2.408674890569041	neutral	061	sub-09	1.0	3.0	061_neutral	0.0		218.60687955199683	
33.0	193.90039187015645	pulse	1.0	t		40.0	male	black	2.408674890569041	neutral	061	sub-09	1.0	3.0	061_neutral	0.0		219.30687429969112	
34.0	194.2669284165313	face	0.0		145	22.0	female	west_asian	3.8205332272184642	smiling	066	sub-09	1.0	3.0	066_smiling	1.0	trustworthiness	219.67341084606596	1.2333290670940187
34.0	194.60038510856975	pulse	0.0	t		22.0	female	west_asian	3.8205332272184642	smiling	066	sub-09	1.0	3.0	066_smiling	1.0	trustworthiness	220.00686753810442	
34.0	195.30036597086655	pulse	0.0	t		22.0	female	west_asian	3.8205332272184642	smiling	066	sub-09	1.0	3.0	066_smiling	1.0	trustworthiness	220.7068484004012	
34.0	195.50025748362532	fix	1.0		177	22.0	female	west_asian	3.8205332272184642	smiling	066	sub-09	1.0	3.0	066_smiling	1.0	trustworthiness	220.90673991315998	1.499980077471264
34.0	196.00036252970312	pulse	1.0	t		22.0	female	west_asian	3.8205332272184642	smiling	066	sub-09	1.0	3.0	066_smiling	1.0	trustworthiness	221.4068449592378	
34.0	196.70034973098518	pulse	1.0	t		22.0	female	west_asian	3.8205332272184642	smiling	066	sub-09	1.0	3.0	066_smiling	1.0	trustworthiness	222.10683216051984	
34.0	197.00023756109658	rating	2.0		295	22.0	female	west_asian	3.8205332272184642	smiling	066	sub-09	1.0	3.0	066_smiling	1.0	trustworthiness	222.40671999063125	2.499960758646921
34.0	197.40034296939848	pulse	2.0	t		22.0	female	west_asian	3.8205332272184642	smiling	066	sub-09	1.0	3.0	066_smiling	1.0	trustworthiness	222.80682539893314	
34.0	198.10033379295783	pulse	2.0	t		22.0	female	west_asian	3.8205332272184642	smiling	066	sub-09	1.0	3.0	066_smiling	1.0	trustworthiness	223.5068162224925	
34.0	198.80031284411598	pulse	2.0	t		22.0	female	west_asian	3.8205332272184642	smiling	066	sub-09	1.0	3.0	066_smiling	1.0	trustworthiness	224.20679527365064	
34.0	198.85031055000582	response	2.0	b		22.0	female	west_asian	3.8205332272184642	smiling	066	sub-09	1.0	3.0	066_smiling	1.0	trustworthiness	224.25679297954048	
34.0	199.5001983197435	fix	3.0		443	22.0	female	west_asian	3.8205332272184642	smiling	066	sub-09	1.0	3.0	066_smiling	1.0	trustworthiness	224.90668074927817	3.758257285611762
34.0	199.50820536628453	pulse	3.0	t		22.0	female	west_asian	3.8205332272184642	smiling	066	sub-09	1.0	3.0	066_smiling	1.0	trustworthiness	224.9146877958192	
34.0	200.2002944912383	pulse	3.0	t		22.0	female	west_asian	3.8205332272184642	smiling	066	sub-09	1.0	3.0	066_smiling	1.0	trustworthiness	225.60677692077297	
34.0	200.90028440922833	pulse	3.0	t		22.0	female	west_asian	3.8205332272184642	smiling	066	sub-09	1.0	3.0	066_smiling	1.0	trustworthiness	226.306766838763	
34.0	201.600274327222	pulse	3.0	t		22.0	female	west_asian	3.8205332272184642	smiling	066	sub-09	1.0	3.0	066_smiling	1.0	trustworthiness	227.00675675675666	
34.0	202.30026062293473	pulse	3.0	t		22.0	female	west_asian	3.8205332272184642	smiling	066	sub-09	1.0	3.0	066_smiling	1.0	trustworthiness	227.7067430524694	
34.0	203.00025386134803	pulse	3.0	t		22.0	female	west_asian	3.8205332272184642	smiling	066	sub-09	1.0	3.0	066_smiling	1.0	trustworthiness	228.4067362908827	
35.0	203.25845560535527	face	0.0		146	31.0	female	west_asian	2.364902506963788	neutral	006	sub-09	1.0	3.0	006_neutral	0.0		228.66493803488993	1.2416666465433082
35.0	203.70024709976133	pulse	0.0	t		31.0	female	west_asian	2.364902506963788	neutral	006	sub-09	1.0	3.0	006_neutral	0.0		229.106729529296	
35.0	204.40023188619307	pulse	0.0	t		31.0	female	west_asian	2.364902506963788	neutral	006	sub-09	1.0	3.0	006_neutral	0.0		229.80671431572773	
35.0	204.50012225189857	fix	1.0		444	31.0	female	west_asian	2.364902506963788	neutral	006	sub-09	1.0	3.0	006_neutral	0.0		229.90660468143324	3.766579470371653
35.0	205.10021697447883	pulse	1.0	t		31.0	female	west_asian	2.364902506963788	neutral	006	sub-09	1.0	3.0	006_neutral	0.0		230.5066994040135	
35.0	205.80019300707136	pulse	1.0	t		31.0	female	west_asian	2.364902506963788	neutral	006	sub-09	1.0	3.0	006_neutral	0.0		231.20667543660602	
35.0	206.50019439560856	pulse	1.0	t		31.0	female	west_asian	2.364902506963788	neutral	006	sub-09	1.0	3.0	006_neutral	0.0		231.90667682514322	
35.0	207.20017374862437	pulse	1.0	t		31.0	female	west_asian	2.364902506963788	neutral	006	sub-09	1.0	3.0	006_neutral	0.0		232.60665617815903	
35.0	207.90016125176044	pulse	1.0	t		31.0	female	west_asian	2.364902506963788	neutral	006	sub-09	1.0	3.0	006_neutral	0.0		233.3066436812951	
36.0	208.26670172227023	face	0.0		145	31.0	male	west_asian	1.9538400318344609	smiling	070	sub-09	1.0	3.0	070_smiling	0.0		233.6731841518049	1.233344763637433
36.0	208.60016173473196	pulse	0.0	t		31.0	male	west_asian	1.9538400318344609	smiling	070	sub-09	1.0	3.0	070_smiling	0.0		234.00664416426662	
36.0	209.3001927052137	pulse	0.0	t		31.0	male	west_asian	1.9538400318344609	smiling	070	sub-09	1.0	3.0	070_smiling	0.0		234.70667513474837	
36.0	209.50004648590766	fix	1.0		444	31.0	male	west_asian	1.9538400318344609	smiling	070	sub-09	1.0	3.0	070_smiling	0.0		234.90652891544232	3.7665797722293064
36.0	210.00014277814262	pulse	1.0	t		31.0	male	west_asian	1.9538400318344609	smiling	070	sub-09	1.0	3.0	070_smiling	0.0		235.40662520767728	
36.0	210.70013812955222	pulse	1.0	t		31.0	male	west_asian	1.9538400318344609	smiling	070	sub-09	1.0	3.0	070_smiling	0.0		236.10662055908688	
36.0	211.40012804754224	pulse	1.0	t		31.0	male	west_asian	1.9538400318344609	smiling	070	sub-09	1.0	3.0	070_smiling	0.0		236.8066104770769	
36.0	212.10011645625127	pulse	1.0	t		31.0	male	west_asian	1.9538400318344609	smiling	070	sub-09	1.0	3.0	070_smiling	0.0		237.50659888578593	
36.0	212.80009460183646	pulse	1.0	t		31.0	male	west_asian	1.9538400318344609	smiling	070	sub-09	1.0	3.0	070_smiling	0.0		238.20657703137113	
37.0	213.26662625813697	face	0.0		145	28.0	male	white	3.9076800636689217	neutral	033	sub-09	1.0	3.0	033_neutral	0.0		238.67310868767163	1.233331481947971
37.0	213.50009961265823	pulse	0.0	t		28.0	male	white	3.9076800636689217	neutral	033	sub-09	1.0	3.0	033_neutral	0.0		238.9065820421929	
37.0	214.20008228609004	pulse	0.0	t		28.0	male	white	3.9076800636689217	neutral	033	sub-09	1.0	3.0	033_neutral	0.0		239.6065647156247	
37.0	214.49995774008494	fix	1.0		444	28.0	male	white	3.9076800636689217	neutral	033	sub-09	1.0	3.0	033_neutral	0.0		239.9064401696196	3.7666108634548436
37.0	214.90007763749963	pulse	1.0	t		28.0	male	white	3.9076800636689217	neutral	033	sub-09	1.0	3.0	033_neutral	0.0		240.3065600670343	
37.0	215.60006363135835	pulse	1.0	t		28.0	male	white	3.9076800636689217	neutral	033	sub-09	1.0	3.0	033_neutral	0.0		241.00654606089302	
37.0	216.30005536048702	pulse	1.0	t		28.0	male	white	3.9076800636689217	neutral	033	sub-09	1.0	3.0	033_neutral	0.0		241.70653779002168	
37.0	217.00004316548439	pulse	1.0	t		28.0	male	white	3.9076800636689217	neutral	033	sub-09	1.0	3.0	033_neutral	0.0		242.40652559501905	
37.0	217.70002553706217	pulse	1.0	t		28.0	male	white	3.9076800636689217	neutral	033	sub-09	1.0	3.0	033_neutral	0.0		243.10650796659684	
38.0	218.26656860353978	face	0.0		145	21.0	male	east_asian/white	3.501790688420215	smiling	036	sub-09	1.0	3.0	036_smiling	1.0	dominance	243.67305103307444	1.2333296708056878
38.0	218.400028434884	pulse	0.0	t		21.0	male	east_asian/white	3.501790688420215	smiling	036	sub-09	1.0	3.0	036_smiling	1.0	dominance	243.80651086441867	
38.0	219.10001382502742	pulse	0.0	t		21.0	male	east_asian/white	3.501790688420215	smiling	036	sub-09	1.0	3.0	036_smiling	1.0	dominance	244.50649625456208	
38.0	219.49989827434547	fix	1.0		177	21.0	male	east_asian/white	3.501790688420215	smiling	036	sub-09	1.0	3.0	036_smiling	1.0	dominance	244.90638070388013	1.4999628716468578
38.0	219.80000283745176	pulse	1.0	t		21.0	male	east_asian/white	3.501790688420215	smiling	036	sub-09	1.0	3.0	036_smiling	1.0	dominance	245.20648526698642	
38.0	220.4999870201682	pulse	1.0	t		21.0	male	east_asian/white	3.501790688420215	smiling	036	sub-09	1.0	3.0	036_smiling	1.0	dominance	245.90646944970285	
38.0	220.99986114599233	rating	2.0		294	21.0	male	east_asian/white	3.501790688420215	smiling	036	sub-09	1.0	3.0	036_smiling	1.0	dominance	246.406343575527	2.4999803793252795
38.0	221.19997542887722	pulse	2.0	t		21.0	male	east_asian/white	3.501790688420215	smiling	036	sub-09	1.0	3.0	036_smiling	1.0	dominance	246.6064578584119	
38.0	221.89995629117402	pulse	2.0	t		21.0	male	east_asian/white	3.501790688420215	smiling	036	sub-09	1.0	3.0	036_smiling	1.0	dominance	247.30643872070868	
38.0	222.5999573778572	pulse	2.0	t		21.0	male	east_asian/white	3.501790688420215	smiling	036	sub-09	1.0	3.0	036_smiling	1.0	dominance	248.00643980739187	
38.0	222.77798753453317	response	2.0	b		21.0	male	east_asian/white	3.501790688420215	smiling	036	sub-09	1.0	3.0	036_smiling	1.0	dominance	248.18446996406783	
38.0	223.29993461787308	pulse	2.0	t		21.0	male	east_asian/white	3.501790688420215	smiling	036	sub-09	1.0	3.0	036_smiling	1.0	dominance	248.70641704740774	
38.0	223.4998415253176	fix	3.0		444	21.0	male	east_asian/white	3.501790688420215	smiling	036	sub-09	1.0	3.0	036_smiling	1.0	dominance	248.90632395485227	3.7583590112626553
38.0	223.99994023240288	pulse	3.0	t		21.0	male	east_asian/white	3.501790688420215	smiling	036	sub-09	1.0	3.0	036_smiling	1.0	dominance	249.40642266193754	
38.0	224.69991566128374	pulse	3.0	t		21.0	male	east_asian/white	3.501790688420215	smiling	036	sub-09	1.0	3.0	036_smiling	1.0	dominance	250.1063980908184	
38.0	225.3999049755621	pulse	3.0	t		21.0	male	east_asian/white	3.501790688420215	smiling	036	sub-09	1.0	3.0	036_smiling	1.0	dominance	250.80638740509676	
38.0	226.09989096941717	pulse	3.0	t		21.0	male	east_asian/white	3.501790688420215	smiling	036	sub-09	1.0	3.0	036_smiling	1.0	dominance	251.50637339895184	
38.0	226.79988118926485	pulse	3.0	t		21.0	male	east_asian/white	3.501790688420215	smiling	036	sub-09	1.0	3.0	036_smiling	1.0	dominance	252.20636361879951	
39.0	227.25820053658026	face	0.0		146	27.0	female	white	4.181058495821727	neutral	039	sub-09	1.0	3.0	039_neutral	0.0		252.66468296611492	1.241547111352702
39.0	227.49988137037872	pulse	0.0	t		27.0	female	white	4.181058495821727	neutral	039	sub-09	1.0	3.0	039_neutral	0.0		252.90636379991338	
39.0	228.1998643456718	pulse	0.0	t		27.0	female	white	4.181058495821727	neutral	039	sub-09	1.0	3.0	039_neutral	0.0		253.60634677520648	
39.0	228.49974764793296	fix	1.0		444	27.0	female	white	4.181058495821727	neutral	039	sub-09	1.0	3.0	039_neutral	0.0		253.90623007746763	3.749940836118185
39.0	228.89985486737714	pulse	1.0	t		27.0	female	white	4.181058495821727	neutral	039	sub-09	1.0	3.0	039_neutral	0.0		254.3063372969118	
39.0	229.5998342203893	pulse	1.0	t		27.0	female	white	4.181058495821727	neutral	039	sub-09	1.0	3.0	039_neutral	0.0		255.00631664992397	
39.0	230.2998368163535	pulse	1.0	t		27.0	female	white	4.181058495821727	neutral	039	sub-09	1.0	3.0	039_neutral	0.0		255.70631924588815	
39.0	230.99981948978893	pulse	1.0	t		27.0	female	white	4.181058495821727	neutral	039	sub-09	1.0	3.0	039_neutral	0.0		256.4063019193236	
39.0	231.6998241987494	pulse	1.0	t		27.0	female	white	4.181058495821727	neutral	039	sub-09	1.0	3.0	039_neutral	0.0		257.1063066282841	
40.0	232.24968848405115	fix	0.0		720													257.6561709135858	5.999925743290078
40.0	232.39980355176522	pulse	0.0	t														257.8062859812999	
40.0	233.09978652705468	pulse	0.0	t														258.50626895658934	
40.0	233.79977523762136	pulse	0.0	t														259.206257667156	
40.0	234.49977511687757	pulse	0.0	t														259.90625754641223	
40.0	235.19976744972155	pulse	0.0	t														260.6062498792562	
40.0	235.89975616028823	pulse	0.0	t														261.3062385898229	
40.0	236.5997497005592	pulse	0.0	t														262.00623213009385	
40.0	237.29972180901314	pulse	0.0	t														262.7062042385478	
40.0	237.99972470683497	pulse	0.0	t														263.40620713636963	
