trial_nr	onset	event_type	phase	response	nr_frames	face_age	face_sex	face_eth	attractiveness	expression	face_id	sub_id	ses	run	trial_type	catch	onset_abs	duration
-1.0	0.06232660432578996	fix	0.0		713												19.055115638369898	5.9578806418976455
-1.0	0.7038106826385047	pulse	0.0	t													19.696599716682613	
-1.0	1.403770928600352	pulse	0.0	t													20.39655996264446	
-1.0	2.1037565302121948	pulse	0.0	t													21.096545564256303	
-1.0	2.8037357929115387	pulse	0.0	t													21.796524826955647	
-1.0	3.503721696377397	pulse	0.0	t													22.496510730421505	
-1.0	4.203698544253712	pulse	0.0	t													23.19648757829782	
-1.0	4.903679316219495	pulse	0.0	t													23.896468350263603	
-1.0	5.60363352512104	pulse	0.0	t													24.59642255916515	
0.0	6.0202072462234355	face	0.0		144	40.0	female	west_asian	1.5777954635893354	smiling	038	sub-05	1.0	6.0	038_smiling	0.0	25.012996280267544	1.233300662777765
0.0	6.303642671266061	pulse	0.0	t		40.0	female	west_asian	1.5777954635893354	smiling	038	sub-05	1.0	6.0	038_smiling	0.0	25.29643170531017	
0.0	7.003621632113209	pulse	0.0	t		40.0	female	west_asian	1.5777954635893354	smiling	038	sub-05	1.0	6.0	038_smiling	0.0	25.996410666157317	
0.0	7.2535079090012005	fix	1.0		445	40.0	female	west_asian	1.5777954635893354	smiling	038	sub-05	1.0	6.0	038_smiling	0.0	26.24629694304531	3.7582233054054086
0.0	7.703609950402097	pulse	1.0	t		40.0	female	west_asian	1.5777954635893354	smiling	038	sub-05	1.0	6.0	038_smiling	0.0	26.696398984446205	
0.0	8.403587100132427	pulse	1.0	t		40.0	female	west_asian	1.5777954635893354	smiling	038	sub-05	1.0	6.0	038_smiling	0.0	27.396376134176535	
0.0	9.10362099822305	pulse	1.0	t		40.0	female	west_asian	1.5777954635893354	smiling	038	sub-05	1.0	6.0	038_smiling	0.0	28.09641003226716	
0.0	9.80354985147278	pulse	1.0	t		40.0	female	west_asian	1.5777954635893354	smiling	038	sub-05	1.0	6.0	038_smiling	0.0	28.79633888551689	
0.0	10.50352790676152	pulse	1.0	t		40.0	female	west_asian	1.5777954635893354	smiling	038	sub-05	1.0	6.0	038_smiling	0.0	29.496316940805627	
1.0	11.011731214406609	face	0.0		146	26.0	male	white	2.7966573816155993	smiling	117	sub-05	1.0	6.0	117_smiling	0.0	30.004520248450717	1.2416411626054469
1.0	11.20351441393359	pulse	0.0	t		26.0	male	white	2.7966573816155993	smiling	117	sub-05	1.0	6.0	117_smiling	0.0	30.196303447977698	
1.0	11.903495185897555	pulse	0.0	t		26.0	male	white	2.7966573816155993	smiling	117	sub-05	1.0	6.0	117_smiling	0.0	30.896284219941663	
1.0	12.253372377012056	fix	1.0		444	26.0	male	white	2.7966573816155993	smiling	117	sub-05	1.0	6.0	117_smiling	0.0	31.246161411056164	3.7582205887265445
1.0	12.603462072625916	pulse	1.0	t		26.0	male	white	2.7966573816155993	smiling	117	sub-05	1.0	6.0	117_smiling	0.0	31.596251106670024	
1.0	13.303452503885637	pulse	1.0	t		26.0	male	white	2.7966573816155993	smiling	117	sub-05	1.0	6.0	117_smiling	0.0	32.296241537929745	
1.0	14.003438407351496	pulse	1.0	t		26.0	male	white	2.7966573816155993	smiling	117	sub-05	1.0	6.0	117_smiling	0.0	32.996227441395604	
1.0	14.703416160786219	pulse	1.0	t		26.0	male	white	2.7966573816155993	smiling	117	sub-05	1.0	6.0	117_smiling	0.0	33.69620519483033	
1.0	15.403392404956321	pulse	1.0	t		26.0	male	white	2.7966573816155993	smiling	117	sub-05	1.0	6.0	117_smiling	0.0	34.39618143900043	
2.0	16.0115929657386	face	0.0		146	19.0	male	white	3.2522881018702745	smiling	018	sub-05	1.0	6.0	018_smiling	1.0	35.00438199978271	1.2416441811346886
2.0	16.103432641959444	pulse	0.0	t		19.0	male	white	3.2522881018702745	smiling	018	sub-05	1.0	6.0	018_smiling	1.0	35.09622167600355	
2.0	16.80336330632963	pulse	0.0	t		19.0	male	white	3.2522881018702745	smiling	018	sub-05	1.0	6.0	018_smiling	1.0	35.79615234037374	
2.0	17.25323714687329	fix	1.0		236	19.0	male	white	3.2522881018702745	smiling	018	sub-05	1.0	6.0	018_smiling	1.0	36.2460261809174	2.0082946181737498
2.0	17.503344983852003	pulse	1.0	t		19.0	male	white	3.2522881018702745	smiling	018	sub-05	1.0	6.0	018_smiling	1.0	36.49613401789611	
2.0	18.20332243543453	pulse	1.0	t		19.0	male	white	3.2522881018702745	smiling	018	sub-05	1.0	6.0	018_smiling	1.0	37.19611146947864	
2.0	18.903317092637735	pulse	1.0	t		19.0	male	white	3.2522881018702745	smiling	018	sub-05	1.0	6.0	018_smiling	1.0	37.89610612668184	
2.0	19.26153176504704	rating	2.0		234	19.0	male	white	3.2522881018702745	smiling	018	sub-05	1.0	6.0	018_smiling	1.0	38.25432079909115	1.991600336988995
2.0	19.603293638660034	pulse	2.0	t		19.0	male	white	3.2522881018702745	smiling	018	sub-05	1.0	6.0	018_smiling	1.0	38.59608267270414	
2.0	20.303277731007256	pulse	2.0	t		19.0	male	white	3.2522881018702745	smiling	018	sub-05	1.0	6.0	018_smiling	1.0	39.296066765051364	
2.0	20.453252782857817	response	2.0	b		19.0	male	white	3.2522881018702745	smiling	018	sub-05	1.0	6.0	018_smiling	1.0	39.446041816901925	
2.0	21.003239184381528	pulse	2.0	t		19.0	male	white	3.2522881018702745	smiling	018	sub-05	1.0	6.0	018_smiling	1.0	39.996028218425636	
2.0	21.253132102036034	fix	3.0		445	19.0	male	white	3.2522881018702745	smiling	018	sub-05	1.0	6.0	018_smiling	1.0	40.24592113608014	3.7582142498140456
2.0	21.70323263417231	pulse	3.0	t		19.0	male	white	3.2522881018702745	smiling	018	sub-05	1.0	6.0	018_smiling	1.0	40.69602166821642	
2.0	22.403211595019457	pulse	3.0	t		19.0	male	white	3.2522881018702745	smiling	018	sub-05	1.0	6.0	018_smiling	1.0	41.396000629063565	
2.0	23.10317908545221	pulse	3.0	t		19.0	male	white	3.2522881018702745	smiling	018	sub-05	1.0	6.0	018_smiling	1.0	42.09596811949632	
2.0	23.80316891300754	pulse	3.0	t		19.0	male	white	3.2522881018702745	smiling	018	sub-05	1.0	6.0	018_smiling	1.0	42.79595794705165	
2.0	24.503677323989905	pulse	3.0	t		19.0	male	white	3.2522881018702745	smiling	018	sub-05	1.0	6.0	018_smiling	1.0	43.49646635803401	
3.0	25.01134635185008	face	0.0		146	31.0	female	east_asian	3.395941106247513	smiling	087	sub-05	1.0	6.0	087_smiling	0.0	44.00413538589419	1.2416505200471875
3.0	25.203135588437362	pulse	0.0	t		31.0	female	east_asian	3.395941106247513	smiling	087	sub-05	1.0	6.0	087_smiling	0.0	44.19592462248147	
3.0	25.903117265961555	pulse	0.0	t		31.0	female	east_asian	3.395941106247513	smiling	087	sub-05	1.0	6.0	087_smiling	0.0	44.89590630000566	
3.0	26.252996871897267	fix	1.0		445	31.0	female	east_asian	3.395941106247513	smiling	087	sub-05	1.0	6.0	087_smiling	0.0	45.245785905941375	3.7582163627866976
3.0	26.603103169427413	pulse	1.0	t		31.0	female	east_asian	3.395941106247513	smiling	087	sub-05	1.0	6.0	087_smiling	0.0	45.59589220347152	
3.0	27.303071867272592	pulse	1.0	t		31.0	female	east_asian	3.395941106247513	smiling	087	sub-05	1.0	6.0	087_smiling	0.0	46.2958609013167	
3.0	28.003055054061406	pulse	1.0	t		31.0	female	east_asian	3.395941106247513	smiling	087	sub-05	1.0	6.0	087_smiling	0.0	46.995844088105514	
3.0	28.703039448260824	pulse	1.0	t		31.0	female	east_asian	3.395941106247513	smiling	087	sub-05	1.0	6.0	087_smiling	0.0	47.69582848230493	
3.0	29.403014183166306	pulse	1.0	t		31.0	female	east_asian	3.395941106247513	smiling	087	sub-05	1.0	6.0	087_smiling	0.0	48.395803217210414	
4.0	30.011213234683964	face	0.0		146	21.0	male	east_asian/white	3.501790688420215	neutral	036	sub-05	1.0	6.0	036_neutral	1.0	49.00400226872807	1.2416478033701424
4.0	30.10303238490087	pulse	0.0	t		21.0	male	east_asian/white	3.501790688420215	neutral	036	sub-05	1.0	6.0	036_neutral	1.0	49.09582141894498	
4.0	30.802979651185524	pulse	0.0	t		21.0	male	east_asian/white	3.501790688420215	neutral	036	sub-05	1.0	6.0	036_neutral	1.0	49.79576868522963	
4.0	31.252861038054107	fix	1.0		236	21.0	male	east_asian/white	3.501790688420215	neutral	036	sub-05	1.0	6.0	036_neutral	1.0	50.245650072098215	1.9999471757273568
4.0	31.50298064729941	pulse	1.0	t		21.0	male	east_asian/white	3.501790688420215	neutral	036	sub-05	1.0	6.0	036_neutral	1.0	50.49576968134352	
4.0	32.20294511920292	pulse	1.0	t		21.0	male	east_asian/white	3.501790688420215	neutral	036	sub-05	1.0	6.0	036_neutral	1.0	51.19573415324703	
4.0	32.9029325319334	pulse	1.0	t		21.0	male	east_asian/white	3.501790688420215	neutral	036	sub-05	1.0	6.0	036_neutral	1.0	51.89572156597751	
4.0	33.252808213781464	rating	2.0		235	21.0	male	east_asian/white	3.501790688420215	neutral	036	sub-05	1.0	6.0	036_neutral	1.0	52.24559724782557	1.999946270168948
4.0	33.60291451131161	pulse	2.0	t		21.0	male	east_asian/white	3.501790688420215	neutral	036	sub-05	1.0	6.0	036_neutral	1.0	52.59570354535572	
4.0	34.0862161551122	response	2.0	y		21.0	male	east_asian/white	3.501790688420215	neutral	036	sub-05	1.0	6.0	036_neutral	1.0	53.079005189156305	
4.0	34.3028777758027	pulse	2.0	t		21.0	male	east_asian/white	3.501790688420215	neutral	036	sub-05	1.0	6.0	036_neutral	1.0	53.29566680984681	
4.0	35.00286609409159	pulse	2.0	t		21.0	male	east_asian/white	3.501790688420215	neutral	036	sub-05	1.0	6.0	036_neutral	1.0	53.995655128135695	
4.0	35.25275448395041	fix	3.0		445	21.0	male	east_asian/white	3.501790688420215	neutral	036	sub-05	1.0	6.0	036_neutral	1.0	54.24554351799452	3.766555051495743
4.0	35.70285411052828	pulse	3.0	t		21.0	male	east_asian/white	3.501790688420215	neutral	036	sub-05	1.0	6.0	036_neutral	1.0	54.69564314457239	
4.0	36.40282643061073	pulse	3.0	t		21.0	male	east_asian/white	3.501790688420215	neutral	036	sub-05	1.0	6.0	036_neutral	1.0	55.39561546465484	
4.0	37.102813541487194	pulse	3.0	t		21.0	male	east_asian/white	3.501790688420215	neutral	036	sub-05	1.0	6.0	036_neutral	1.0	56.0956025755313	
4.0	37.802786767128055	pulse	3.0	t		21.0	male	east_asian/white	3.501790688420215	neutral	036	sub-05	1.0	6.0	036_neutral	1.0	56.79557580117216	
4.0	38.50277900950641	pulse	3.0	t		21.0	male	east_asian/white	3.501790688420215	neutral	036	sub-05	1.0	6.0	036_neutral	1.0	57.49556804355052	
5.0	39.019309535446155	face	0.0		145	24.0	male	white	3.1153999204138483	neutral	012	sub-05	1.0	6.0	012_neutral	0.0	58.01209856949026	1.2332994553653407
5.0	39.2027609888828	pulse	0.0	t		24.0	male	white	3.1153999204138483	neutral	012	sub-05	1.0	6.0	012_neutral	0.0	58.19555002292691	
5.0	39.90271942372601	pulse	0.0	t		24.0	male	white	3.1153999204138483	neutral	012	sub-05	1.0	6.0	012_neutral	0.0	58.89550845777012	
5.0	40.252608990811495	fix	1.0		444	24.0	male	white	3.1153999204138483	neutral	012	sub-05	1.0	6.0	012_neutral	0.0	59.245398024855604	3.7582260220824537
5.0	40.602781394145495	pulse	1.0	t		24.0	male	white	3.1153999204138483	neutral	012	sub-05	1.0	6.0	012_neutral	0.0	59.5955704281896	
5.0	41.302713265926286	pulse	1.0	t		24.0	male	white	3.1153999204138483	neutral	012	sub-05	1.0	6.0	012_neutral	0.0	60.295502299970394	
5.0	42.002681963771465	pulse	1.0	t		24.0	male	white	3.1153999204138483	neutral	012	sub-05	1.0	6.0	012_neutral	0.0	60.99547099781557	
5.0	42.702660019060204	pulse	1.0	t		24.0	male	white	3.1153999204138483	neutral	012	sub-05	1.0	6.0	012_neutral	0.0	61.69544905310431	
5.0	43.40264230028879	pulse	1.0	t		24.0	male	white	3.1153999204138483	neutral	012	sub-05	1.0	6.0	012_neutral	0.0	62.3954313343329	
6.0	44.01083501289395	face	0.0		146	21.0	male	black	2.969757262236371	smiling	137	sub-05	1.0	6.0	137_smiling	0.0	63.00362404693806	1.2416478033701424
6.0	44.102635448225556	pulse	0.0	t		21.0	male	black	2.969757262236371	smiling	137	sub-05	1.0	6.0	137_smiling	0.0	63.095424482269664	
6.0	44.802604146072554	pulse	0.0	t		21.0	male	black	2.969757262236371	smiling	137	sub-05	1.0	6.0	137_smiling	0.0	63.79539318011666	
6.0	45.25248281626409	fix	1.0		444	21.0	male	black	2.969757262236371	smiling	137	sub-05	1.0	6.0	137_smiling	0.0	64.2452718503082	3.7665465996124112
6.0	45.502664909077794	pulse	1.0	t		21.0	male	black	2.969757262236371	smiling	137	sub-05	1.0	6.0	137_smiling	0.0	64.4954539431219	
6.0	46.20258832897525	pulse	1.0	t		21.0	male	black	2.969757262236371	smiling	137	sub-05	1.0	6.0	137_smiling	0.0	65.19537736301936	
6.0	46.90255400829119	pulse	1.0	t		21.0	male	black	2.969757262236371	smiling	137	sub-05	1.0	6.0	137_smiling	0.0	65.8953430423353	
6.0	47.602558928494545	pulse	1.0	t		21.0	male	black	2.969757262236371	smiling	137	sub-05	1.0	6.0	137_smiling	0.0	66.59534796253865	
6.0	48.30252279669185	pulse	1.0	t		21.0	male	black	2.969757262236371	smiling	137	sub-05	1.0	6.0	137_smiling	0.0	67.29531183073595	
7.0	49.0190294158765	face	0.0		146	25.0	female	west_asian	2.6756864305610826	neutral	064	sub-05	1.0	6.0	064_neutral	0.0	68.01181844992061	1.2333293388110178
7.0	49.005305368064	pulse	0.0	t		25.0	female	west_asian	2.6756864305610826	neutral	064	sub-05	1.0	6.0	064_neutral	0.0	67.99809440210811	
7.0	49.70247709615069	pulse	0.0	t		25.0	female	west_asian	2.6756864305610826	neutral	064	sub-05	1.0	6.0	064_neutral	0.0	68.6952661301948	
7.0	50.25235875468752	fix	1.0		443	25.0	female	west_asian	2.6756864305610826	neutral	064	sub-05	1.0	6.0	064_neutral	0.0	69.24514778873163	3.766526677314687
7.0	50.40247748856018	pulse	1.0	t		25.0	female	west_asian	2.6756864305610826	neutral	064	sub-05	1.0	6.0	064_neutral	0.0	69.39526652260429	
7.0	51.10243381043256	pulse	1.0	t		25.0	female	west_asian	2.6756864305610826	neutral	064	sub-05	1.0	6.0	064_neutral	0.0	70.09522284447667	
7.0	51.80241488425054	pulse	1.0	t		25.0	female	west_asian	2.6756864305610826	neutral	064	sub-05	1.0	6.0	064_neutral	0.0	70.79520391829465	
7.0	52.50239897659776	pulse	1.0	t		25.0	female	west_asian	2.6756864305610826	neutral	064	sub-05	1.0	6.0	064_neutral	0.0	71.49518801064187	
7.0	53.202395444917784	pulse	1.0	t		25.0	female	west_asian	2.6756864305610826	neutral	064	sub-05	1.0	6.0	064_neutral	0.0	72.19518447896189	
7.0	53.90236142608592	pulse	1.0	t		25.0	female	west_asian	2.6756864305610826	neutral	064	sub-05	1.0	6.0	064_neutral	0.0	72.89515046013003	
8.0	54.01888543200221	face	0.0		146	26.0	male	white	2.7966573816155993	neutral	117	sub-05	1.0	6.0	117_neutral	0.0	73.01167446604632	1.2333290369588212
8.0	54.60234310361011	pulse	0.0	t		26.0	male	white	2.7966573816155993	neutral	117	sub-05	1.0	6.0	117_neutral	0.0	73.59513213765422	
8.0	55.25221446896103	fix	1.0		443	26.0	male	white	2.7966573816155993	neutral	117	sub-05	1.0	6.0	117_neutral	0.0	74.24500350300514	3.7665505237000616
8.0	55.30237337946528	pulse	1.0	t		26.0	male	white	2.7966573816155993	neutral	117	sub-05	1.0	6.0	117_neutral	0.0	74.29516241350939	
8.0	56.002298610481375	pulse	1.0	t		26.0	male	white	2.7966573816155993	neutral	117	sub-05	1.0	6.0	117_neutral	0.0	74.99508764452548	
8.0	56.70226821388496	pulse	1.0	t		26.0	male	white	2.7966573816155993	neutral	117	sub-05	1.0	6.0	117_neutral	0.0	75.69505724792907	
8.0	57.40226588961741	pulse	1.0	t		26.0	male	white	2.7966573816155993	neutral	117	sub-05	1.0	6.0	117_neutral	0.0	76.39505492366152	
8.0	58.10224726528759	pulse	1.0	t		26.0	male	white	2.7966573816155993	neutral	117	sub-05	1.0	6.0	117_neutral	0.0	77.0950362993317	
8.0	58.80223105578261	pulse	1.0	t		26.0	male	white	2.7966573816155993	neutral	117	sub-05	1.0	6.0	117_neutral	0.0	77.79502008982672	
9.0	59.01876499266109	face	0.0		145	47.0	male	east_asian	2.171110226820533	smiling	024	sub-05	1.0	6.0	024_smiling	0.0	78.0115540267052	1.2333142461629905
9.0	59.502215148129835	pulse	0.0	t		47.0	male	east_asian	2.171110226820533	smiling	024	sub-05	1.0	6.0	024_smiling	0.0	78.49500418217394	
9.0	60.20226625184114	pulse	0.0	t		47.0	male	east_asian	2.171110226820533	smiling	024	sub-05	1.0	6.0	024_smiling	0.0	79.19505528588525	
9.0	60.25207923882408	fix	1.0		445	47.0	male	east_asian	2.171110226820533	smiling	024	sub-05	1.0	6.0	024_smiling	0.0	79.24486827286819	3.766550825552258
9.0	60.902176692059584	pulse	1.0	t		47.0	male	east_asian	2.171110226820533	smiling	024	sub-05	1.0	6.0	024_smiling	0.0	79.89496572610369	
9.0	61.60215504920052	pulse	1.0	t		47.0	male	east_asian	2.171110226820533	smiling	024	sub-05	1.0	6.0	024_smiling	0.0	80.59494408324463	
9.0	62.30213189707683	pulse	1.0	t		47.0	male	east_asian	2.171110226820533	smiling	024	sub-05	1.0	6.0	024_smiling	0.0	81.29492093112094	
9.0	63.00210934865936	pulse	1.0	t		47.0	male	east_asian	2.171110226820533	smiling	024	sub-05	1.0	6.0	024_smiling	0.0	81.99489838270347	
9.0	63.70209525212522	pulse	1.0	t		47.0	male	east_asian	2.171110226820533	smiling	024	sub-05	1.0	6.0	024_smiling	0.0	82.69488428616933	
10.0	64.01863006437634	face	0.0		145	40.0	male	black	2.408674890569041	smiling	061	sub-05	1.0	6.0	061_smiling	1.0	83.01141909842045	1.233318773958672
10.0	64.40207904262024	pulse	0.0	t		40.0	male	black	2.408674890569041	smiling	061	sub-05	1.0	6.0	061_smiling	1.0	83.39486807666435	
10.0	65.10205407937792	pulse	0.0	t		40.0	male	black	2.408674890569041	smiling	061	sub-05	1.0	6.0	061_smiling	1.0	84.09484311342203	
10.0	65.25194883833501	fix	1.0		237	40.0	male	black	2.408674890569041	smiling	061	sub-05	1.0	6.0	061_smiling	1.0	84.24473787237912	1.9999432516378874
10.0	65.80203998284378	pulse	1.0	t		40.0	male	black	2.408674890569041	smiling	061	sub-05	1.0	6.0	061_smiling	1.0	84.79482901688789	
10.0	66.50202226407237	pulse	1.0	t		40.0	male	black	2.408674890569041	smiling	061	sub-05	1.0	6.0	061_smiling	1.0	85.49481129811647	
10.0	67.20199488600701	pulse	1.0	t		40.0	male	black	2.408674890569041	smiling	061	sub-05	1.0	6.0	061_smiling	1.0	86.19478392005112	
10.0	67.2518920899729	rating	2.0		236	40.0	male	black	2.408674890569041	smiling	061	sub-05	1.0	6.0	061_smiling	1.0	86.244681124017	1.999943553491903
10.0	67.90201610627264	pulse	2.0	t		40.0	male	black	2.408674890569041	smiling	061	sub-05	1.0	6.0	061_smiling	1.0	86.89480514031675	
10.0	68.1603062721133	response	2.0	e		40.0	male	black	2.408674890569041	smiling	061	sub-05	1.0	6.0	061_smiling	1.0	87.15309530615741	
10.0	68.60195884476161	pulse	2.0	t		40.0	male	black	2.408674890569041	smiling	061	sub-05	1.0	6.0	061_smiling	1.0	87.59474787880572	
10.0	69.2518356434648	fix	3.0		443	40.0	male	black	2.408674890569041	smiling	061	sub-05	1.0	6.0	061_smiling	1.0	88.24462467750891	3.7665505237000616
10.0	69.30196316125875	pulse	3.0	t		40.0	male	black	2.408674890569041	smiling	061	sub-05	1.0	6.0	061_smiling	1.0	88.29475219530286	
10.0	70.00192884057469	pulse	3.0	t		40.0	male	black	2.408674890569041	smiling	061	sub-05	1.0	6.0	061_smiling	1.0	88.9947178746188	
10.0	70.70188999209495	pulse	3.0	t		40.0	male	black	2.408674890569041	smiling	061	sub-05	1.0	6.0	061_smiling	1.0	89.69467902613906	
10.0	71.40188193262111	pulse	3.0	t		40.0	male	black	2.408674890569041	smiling	061	sub-05	1.0	6.0	061_smiling	1.0	90.39467096666522	
10.0	72.10187508055787	pulse	3.0	t		40.0	male	black	2.408674890569041	smiling	061	sub-05	1.0	6.0	061_smiling	1.0	91.09466411460198	
10.0	72.80185132472798	pulse	3.0	t		40.0	male	black	2.408674890569041	smiling	061	sub-05	1.0	6.0	061_smiling	1.0	91.79464035877209	
11.0	73.01838616716486	face	0.0		145	20.0	male	black	3.1070433744528456	smiling	082	sub-05	1.0	6.0	082_smiling	0.0	92.01117520120897	1.2333127368983696
11.0	73.50180492992331	pulse	0.0	t		20.0	male	black	3.1070433744528456	smiling	082	sub-05	1.0	6.0	082_smiling	0.0	92.49459396396742	
11.0	74.20180200194955	pulse	0.0	t		20.0	male	black	3.1070433744528456	smiling	082	sub-05	1.0	6.0	082_smiling	0.0	93.19459103599365	
11.0	74.25169890406323	fix	1.0		445	20.0	male	black	3.1070433744528456	smiling	082	sub-05	1.0	6.0	082_smiling	0.0	93.24448793810734	3.766554447787712
11.0	74.90185461492547	pulse	1.0	t		20.0	male	black	3.1070433744528456	smiling	082	sub-05	1.0	6.0	082_smiling	0.0	93.89464364896958	
11.0	75.60179041079573	pulse	1.0	t		20.0	male	black	3.1070433744528456	smiling	082	sub-05	1.0	6.0	082_smiling	0.0	94.59457944483984	
11.0	76.30175880678689	pulse	1.0	t		20.0	male	black	3.1070433744528456	smiling	082	sub-05	1.0	6.0	082_smiling	0.0	95.294547840831	
11.0	77.00174018245889	pulse	1.0	t		20.0	male	black	3.1070433744528456	smiling	082	sub-05	1.0	6.0	082_smiling	0.0	95.994529216503	
11.0	77.70171793589361	pulse	1.0	t		20.0	male	black	3.1070433744528456	smiling	082	sub-05	1.0	6.0	082_smiling	0.0	96.69450696993772	
12.0	78.01825335185094	face	0.0		145	23.0	male	white	2.6275368085953046	neutral	141	sub-05	1.0	6.0	141_neutral	0.0	97.01104238589505	1.2333139443107939
12.0	78.40170323565326	pulse	0.0	t		23.0	male	white	2.6275368085953046	neutral	141	sub-05	1.0	6.0	141_neutral	0.0	97.39449226969737	
12.0	79.10167947982336	pulse	0.0	t		23.0	male	white	2.6275368085953046	neutral	141	sub-05	1.0	6.0	141_neutral	0.0	98.09446851386747	
12.0	79.25156729616174	fix	1.0		445	23.0	male	white	2.6275368085953046	neutral	141	sub-05	1.0	6.0	141_neutral	0.0	98.24435633020585	3.7665493162876373
12.0	79.80166628884763	pulse	1.0	t		23.0	male	white	2.6275368085953046	neutral	141	sub-05	1.0	6.0	141_neutral	0.0	98.79445532289174	
12.0	80.50164494784258	pulse	1.0	t		23.0	male	white	2.6275368085953046	neutral	141	sub-05	1.0	6.0	141_neutral	0.0	99.49443398188669	
12.0	81.20162360683571	pulse	1.0	t		23.0	male	white	2.6275368085953046	neutral	141	sub-05	1.0	6.0	141_neutral	0.0	100.19441264087982	
12.0	81.90160618991831	pulse	1.0	t		23.0	male	white	2.6275368085953046	neutral	141	sub-05	1.0	6.0	141_neutral	0.0	100.89439522396242	
12.0	82.60159028226553	pulse	1.0	t		23.0	male	white	2.6275368085953046	neutral	141	sub-05	1.0	6.0	141_neutral	0.0	101.59437931630964	
13.0	83.01811661244938	face	0.0		145	24.0	female	east_asian	4.409868682849185	neutral	030	sub-05	1.0	6.0	030_neutral	0.0	102.01090564649348	1.23331666098602
13.0	83.3015698468189	pulse	0.0	t		24.0	female	east_asian	4.409868682849185	neutral	030	sub-05	1.0	6.0	030_neutral	0.0	102.294358880863	
13.0	84.00154488357657	pulse	0.0	t		24.0	female	east_asian	4.409868682849185	neutral	030	sub-05	1.0	6.0	030_neutral	0.0	102.99433391762068	
13.0	84.2514332734354	fix	1.0		445	24.0	female	east_asian	4.409868682849185	neutral	030	sub-05	1.0	6.0	030_neutral	0.0	103.2442223074795	3.758365176308871
13.0	84.70153320186728	pulse	1.0	t		24.0	female	east_asian	4.409868682849185	neutral	030	sub-05	1.0	6.0	030_neutral	0.0	103.69432223591139	
13.0	85.40151065344799	pulse	1.0	t		24.0	female	east_asian	4.409868682849185	neutral	030	sub-05	1.0	6.0	030_neutral	0.0	104.3942996874921	
13.0	86.10149051985536	pulse	1.0	t		24.0	female	east_asian	4.409868682849185	neutral	030	sub-05	1.0	6.0	030_neutral	0.0	105.09427955389947	
13.0	86.80148729002758	pulse	1.0	t		24.0	female	east_asian	4.409868682849185	neutral	030	sub-05	1.0	6.0	030_neutral	0.0	105.79427632407169	
13.0	87.50144904525405	pulse	1.0	t		24.0	female	east_asian	4.409868682849185	neutral	030	sub-05	1.0	6.0	030_neutral	0.0	106.49423807929816	
14.0	88.00979844974427	face	0.0		146	27.0	male	black	3.5523278949462798	smiling	042	sub-05	1.0	6.0	042_smiling	0.0	107.00258748378837	1.2414977824373636
14.0	88.20144460801566	pulse	0.0	t		27.0	male	black	3.5523278949462798	smiling	042	sub-05	1.0	6.0	042_smiling	0.0	107.19423364205977	
14.0	88.90141783365652	pulse	0.0	t		27.0	male	black	3.5523278949462798	smiling	042	sub-05	1.0	6.0	042_smiling	0.0	107.89420686770063	
14.0	89.25129623218163	fix	1.0		444	27.0	male	black	3.5523278949462798	smiling	042	sub-05	1.0	6.0	042_smiling	0.0	108.24408526622574	3.7665520329646824
14.0	89.60139649264966	pulse	1.0	t		27.0	male	black	3.5523278949462798	smiling	042	sub-05	1.0	6.0	042_smiling	0.0	108.59418552669376	
14.0	90.30138330167392	pulse	1.0	t		27.0	male	black	3.5523278949462798	smiling	042	sub-05	1.0	6.0	042_smiling	0.0	109.29417233571803	
14.0	91.00136799772736	pulse	1.0	t		27.0	male	black	3.5523278949462798	smiling	042	sub-05	1.0	6.0	042_smiling	0.0	109.99415703177146	
14.0	91.70134333633905	pulse	1.0	t		27.0	male	black	3.5523278949462798	smiling	042	sub-05	1.0	6.0	042_smiling	0.0	110.69413237038316	
14.0	92.40132078792158	pulse	1.0	t		27.0	male	black	3.5523278949462798	smiling	042	sub-05	1.0	6.0	042_smiling	0.0	111.39410982196569	
15.0	93.01784826514631	face	0.0		145	20.0	male	black	2.609629924393156	smiling	043	sub-05	1.0	6.0	043_smiling	0.0	112.01063729919042	1.2333160572798079
15.0	93.10143558261188	pulse	0.0	t		20.0	male	black	2.609629924393156	smiling	043	sub-05	1.0	6.0	043_smiling	0.0	112.09422461665599	
15.0	93.80129531152852	pulse	0.0	t		20.0	male	black	2.609629924393156	smiling	043	sub-05	1.0	6.0	043_smiling	0.0	112.79408434557263	
15.0	94.25116432242612	fix	1.0		444	20.0	male	black	2.609629924393156	smiling	043	sub-05	1.0	6.0	043_smiling	0.0	113.24395335647023	3.766546901464608
15.0	94.50125525563817	pulse	1.0	t		20.0	male	black	2.609629924393156	smiling	043	sub-05	1.0	6.0	043_smiling	0.0	113.49404428968228	
15.0	95.20124478133948	pulse	1.0	t		20.0	male	black	2.609629924393156	smiling	043	sub-05	1.0	6.0	043_smiling	0.0	114.19403381538359	
15.0	95.9012288736867	pulse	1.0	t		20.0	male	black	2.609629924393156	smiling	043	sub-05	1.0	6.0	043_smiling	0.0	114.89401790773081	
15.0	96.6012102493587	pulse	1.0	t		20.0	male	black	2.609629924393156	smiling	043	sub-05	1.0	6.0	043_smiling	0.0	115.59399928340281	
15.0	97.30118256943933	pulse	1.0	t		20.0	male	black	2.609629924393156	smiling	043	sub-05	1.0	6.0	043_smiling	0.0	116.29397160348344	
16.0	98.01771122389073	face	0.0		146	20.0	female	white	3.9502586549940313	neutral	091	sub-05	1.0	6.0	091_neutral	0.0	117.01050025793484	1.233320886927686
16.0	98.0038471162934	pulse	0.0	t		20.0	female	white	3.9502586549940313	neutral	091	sub-05	1.0	6.0	091_neutral	0.0	116.99663615033751	
16.0	98.70116041342953	pulse	0.0	t		20.0	female	white	3.9502586549940313	neutral	091	sub-05	1.0	6.0	091_neutral	0.0	117.69394944747364	
16.0	99.25103211081841	fix	1.0		443	20.0	female	white	3.9502586549940313	neutral	091	sub-05	1.0	6.0	091_neutral	0.0	118.24382114486252	3.766548712583244
16.0	99.40113937427668	pulse	1.0	t		20.0	female	white	3.9502586549940313	neutral	091	sub-05	1.0	6.0	091_neutral	0.0	118.39392840832079	
16.0	100.10111984438845	pulse	1.0	t		20.0	female	white	3.9502586549940313	neutral	091	sub-05	1.0	6.0	091_neutral	0.0	119.09390887843256	
16.0	100.80109910708961	pulse	1.0	t		20.0	female	white	3.9502586549940313	neutral	091	sub-05	1.0	6.0	091_neutral	0.0	119.79388814113372	
16.0	101.50108048275979	pulse	1.0	t		20.0	female	white	3.9502586549940313	neutral	091	sub-05	1.0	6.0	091_neutral	0.0	120.4938695168039	
16.0	102.2010639714008	pulse	1.0	t		20.0	female	white	3.9502586549940313	neutral	091	sub-05	1.0	6.0	091_neutral	0.0	121.19385300544491	
16.0	102.90104142298333	pulse	1.0	t		20.0	female	white	3.9502586549940313	neutral	091	sub-05	1.0	6.0	091_neutral	0.0	121.89383045702743	
17.0	103.01758082340166	face	0.0		146	24.0	female	black	3.0955033824114606	smiling	099	sub-05	1.0	6.0	099_smiling	0.0	122.01036985744577	1.2333142461629905
17.0	103.60102611903676	pulse	0.0	t		24.0	female	black	3.0955033824114606	smiling	099	sub-05	1.0	6.0	099_smiling	0.0	122.59381515308087	
17.0	104.25089506956465	fix	1.0		443	24.0	female	black	3.0955033824114606	smiling	099	sub-05	1.0	6.0	099_smiling	0.0	123.24368410360876	3.7583174835363025
17.0	104.30099360947133	pulse	1.0	t		24.0	female	black	3.0955033824114606	smiling	099	sub-05	1.0	6.0	099_smiling	0.0	123.29378264351544	
17.0	105.00098766296651	pulse	1.0	t		24.0	female	black	3.0955033824114606	smiling	099	sub-05	1.0	6.0	099_smiling	0.0	123.99377669701062	
17.0	105.7009630015782	pulse	1.0	t		24.0	female	black	3.0955033824114606	smiling	099	sub-05	1.0	6.0	099_smiling	0.0	124.69375203562231	
17.0	106.40093622721906	pulse	1.0	t		24.0	female	black	3.0955033824114606	smiling	099	sub-05	1.0	6.0	099_smiling	0.0	125.39372526126317	
17.0	107.10092635662659	pulse	1.0	t		24.0	female	black	3.0955033824114606	smiling	099	sub-05	1.0	6.0	099_smiling	0.0	126.0937153906707	
17.0	107.800910750826	pulse	1.0	t		24.0	female	black	3.0955033824114606	smiling	099	sub-05	1.0	6.0	099_smiling	0.0	126.79369978487011	
18.0	108.00921255310095	face	0.0		146	31.0	male	west_asian	1.9538400318344609	smiling	070	sub-05	1.0	6.0	070_smiling	0.0	127.00200158714506	1.2415472863249306
18.0	108.50090752100004	pulse	0.0	t		31.0	male	west_asian	1.9538400318344609	smiling	070	sub-05	1.0	6.0	070_smiling	0.0	127.49369655504415	
18.0	109.20086957807871	pulse	0.0	t		31.0	male	west_asian	1.9538400318344609	smiling	070	sub-05	1.0	6.0	070_smiling	0.0	128.19365861212282	
18.0	109.25075983942588	fix	1.0		445	31.0	male	west_asian	1.9538400318344609	smiling	070	sub-05	1.0	6.0	070_smiling	0.0	128.24354887347	3.7665511274062737
18.0	109.90084250186737	pulse	1.0	t		31.0	male	west_asian	1.9538400318344609	smiling	070	sub-05	1.0	6.0	070_smiling	0.0	128.89363153591148	
18.0	110.60083474424573	pulse	1.0	t		31.0	male	west_asian	1.9538400318344609	smiling	070	sub-05	1.0	6.0	070_smiling	0.0	129.59362377828984	
18.0	111.30081913844515	pulse	1.0	t		31.0	male	west_asian	1.9538400318344609	smiling	070	sub-05	1.0	6.0	070_smiling	0.0	130.29360817248926	
18.0	112.00079477890904	pulse	1.0	t		31.0	male	west_asian	1.9538400318344609	smiling	070	sub-05	1.0	6.0	070_smiling	0.0	130.99358381295315	
18.0	112.70077856940406	pulse	1.0	t		31.0	male	west_asian	1.9538400318344609	smiling	070	sub-05	1.0	6.0	070_smiling	0.0	131.69356760344817	
19.0	113.01731096683216	face	0.0		145	24.0	female	east_asian	2.9076800636689217	neutral	034	sub-05	1.0	6.0	034_neutral	1.0	132.01010000087626	1.2333163591338234
19.0	113.40076115248667	pulse	0.0	t		24.0	female	east_asian	2.9076800636689217	neutral	034	sub-05	1.0	6.0	034_neutral	1.0	132.39355018653077	
19.0	114.100738302217	pulse	0.0	t		24.0	female	east_asian	2.9076800636689217	neutral	034	sub-05	1.0	6.0	034_neutral	1.0	133.0935273362611	
19.0	114.25062732596598	fix	1.0		237	24.0	female	east_asian	2.9076800636689217	neutral	034	sub-05	1.0	6.0	034_neutral	1.0	133.2434163600101	1.9999441571981151
19.0	114.8007220927102	pulse	1.0	t		24.0	female	east_asian	2.9076800636689217	neutral	034	sub-05	1.0	6.0	034_neutral	1.0	133.7935111267543	
19.0	115.50070075170515	pulse	1.0	t		24.0	female	east_asian	2.9076800636689217	neutral	034	sub-05	1.0	6.0	034_neutral	1.0	134.49348978574926	
19.0	116.20068484405238	pulse	1.0	t		24.0	female	east_asian	2.9076800636689217	neutral	034	sub-05	1.0	6.0	034_neutral	1.0	135.19347387809648	
19.0	116.2505714831641	rating	2.0		236	24.0	female	east_asian	2.9076800636689217	neutral	034	sub-05	1.0	6.0	034_neutral	1.0	135.2433605172082	1.9999471757273568
19.0	116.90067165307664	pulse	2.0	t		24.0	female	east_asian	2.9076800636689217	neutral	034	sub-05	1.0	6.0	034_neutral	1.0	135.89346068712075	
19.0	117.15371923627572	response	2.0	e		24.0	female	east_asian	2.9076800636689217	neutral	034	sub-05	1.0	6.0	034_neutral	1.0	136.14650827031983	
19.0	117.60064216204046	pulse	2.0	t		24.0	female	east_asian	2.9076800636689217	neutral	034	sub-05	1.0	6.0	034_neutral	1.0	136.59343119608457	
19.0	118.25051865889145	fix	3.0		443	24.0	female	east_asian	2.9076800636689217	neutral	034	sub-05	1.0	6.0	034_neutral	1.0	137.24330769293556	3.766514603194082
19.0	118.30063048032935	pulse	3.0	t		24.0	female	east_asian	2.9076800636689217	neutral	034	sub-05	1.0	6.0	034_neutral	1.0	137.29341951437345	
19.0	119.00061185600134	pulse	3.0	t		24.0	female	east_asian	2.9076800636689217	neutral	034	sub-05	1.0	6.0	034_neutral	1.0	137.99340089004545	
19.0	119.7005853834944	pulse	3.0	t		24.0	female	east_asian	2.9076800636689217	neutral	034	sub-05	1.0	6.0	034_neutral	1.0	138.6933744175385	
19.0	120.40057309807707	pulse	3.0	t		24.0	female	east_asian	2.9076800636689217	neutral	034	sub-05	1.0	6.0	034_neutral	1.0	139.39336213212118	
19.0	121.10054873854097	pulse	3.0	t		24.0	female	east_asian	2.9076800636689217	neutral	034	sub-05	1.0	6.0	034_neutral	1.0	140.09333777258507	
19.0	121.80051471971092	pulse	3.0	t		24.0	female	east_asian	2.9076800636689217	neutral	034	sub-05	1.0	6.0	034_neutral	1.0	140.79330375375503	
20.0	122.01703326208553	face	0.0		145	19.0	male	white	3.2522881018702745	neutral	018	sub-05	1.0	6.0	018_neutral	1.0	141.00982229612964	1.2333516759335907
20.0	122.50051843250185	pulse	0.0	t		19.0	male	white	3.2522881018702745	neutral	018	sub-05	1.0	6.0	018_neutral	1.0	141.49330746654596	
20.0	123.20048954517188	pulse	0.0	t		19.0	male	white	3.2522881018702745	neutral	018	sub-05	1.0	6.0	018_neutral	1.0	142.19327857921598	
20.0	123.25038493801912	fix	1.0		238	19.0	male	white	3.2522881018702745	neutral	018	sub-05	1.0	6.0	018_neutral	1.0	142.24317397206323	1.9999468738751602
20.0	123.90048118384402	pulse	1.0	t		19.0	male	white	3.2522881018702745	neutral	018	sub-05	1.0	6.0	018_neutral	1.0	142.89327021788813	
20.0	124.60044203351208	pulse	1.0	t		19.0	male	white	3.2522881018702745	neutral	018	sub-05	1.0	6.0	018_neutral	1.0	143.5932310675562	
20.0	125.25033181189428	rating	2.0		235	19.0	male	white	3.2522881018702745	neutral	018	sub-05	1.0	6.0	018_neutral	1.0	144.2431208459384	1.999943553491903
20.0	125.30054445222959	pulse	2.0	t		19.0	male	white	3.2522881018702745	neutral	018	sub-05	1.0	6.0	018_neutral	1.0	144.2933334862737	
20.0	126.00042229232713	pulse	2.0	t		19.0	male	white	3.2522881018702745	neutral	018	sub-05	1.0	6.0	018_neutral	1.0	144.99321132637124	
20.0	126.7004091013514	pulse	2.0	t		19.0	male	white	3.2522881018702745	neutral	018	sub-05	1.0	6.0	018_neutral	1.0	145.6931981353955	
20.0	126.75345553750776	response	2.0	y		19.0	male	white	3.2522881018702745	neutral	018	sub-05	1.0	6.0	018_neutral	1.0	145.74624457155187	
20.0	127.25027536538619	fix	3.0		443	19.0	male	white	3.2522881018702745	neutral	018	sub-05	1.0	6.0	018_neutral	1.0	146.2430643994303	3.766550221846046
20.0	127.40038293069665	pulse	3.0	t		19.0	male	white	3.2522881018702745	neutral	018	sub-05	1.0	6.0	018_neutral	1.0	146.39317196474076	
20.0	128.10036611748546	pulse	3.0	t		19.0	male	white	3.2522881018702745	neutral	018	sub-05	1.0	6.0	018_neutral	1.0	147.09315515152957	
20.0	128.80034296536178	pulse	3.0	t		19.0	male	white	3.2522881018702745	neutral	018	sub-05	1.0	6.0	018_neutral	1.0	147.7931319994059	
20.0	129.5003198132381	pulse	3.0	t		19.0	male	white	3.2522881018702745	neutral	018	sub-05	1.0	6.0	018_neutral	1.0	148.4931088472822	
20.0	130.20030088705607	pulse	3.0	t		19.0	male	white	3.2522881018702745	neutral	018	sub-05	1.0	6.0	018_neutral	1.0	149.19308992110018	
20.0	130.9002849794033	pulse	3.0	t		19.0	male	white	3.2522881018702745	neutral	018	sub-05	1.0	6.0	018_neutral	1.0	149.8930740134474	
21.0	131.01682558723223	face	0.0		146	28.0	female	white	5.676880222841227	smiling	124	sub-05	1.0	6.0	124_smiling	0.0	150.00961462127634	1.2333178683984443
21.0	131.6002745051046	pulse	0.0	t		28.0	female	white	5.676880222841227	smiling	124	sub-05	1.0	6.0	124_smiling	0.0	150.59306353914872	
21.0	132.25014345563068	fix	1.0		443	28.0	female	white	5.676880222841227	smiling	124	sub-05	1.0	6.0	124_smiling	0.0	151.24293248967479	3.7582371906428307
21.0	132.30034945520129	pulse	1.0	t		28.0	female	white	5.676880222841227	smiling	124	sub-05	1.0	6.0	124_smiling	0.0	151.2931384892454	
21.0	133.00023363421133	pulse	1.0	t		28.0	female	white	5.676880222841227	smiling	124	sub-05	1.0	6.0	124_smiling	0.0	151.99302266825543	
21.0	133.70019569129	pulse	1.0	t		28.0	female	white	5.676880222841227	smiling	124	sub-05	1.0	6.0	124_smiling	0.0	152.6929847253341	
21.0	134.40019246146403	pulse	1.0	t		28.0	female	white	5.676880222841227	smiling	124	sub-05	1.0	6.0	124_smiling	0.0	153.39298149550814	
21.0	135.100173233428	pulse	1.0	t		28.0	female	white	5.676880222841227	smiling	124	sub-05	1.0	6.0	124_smiling	0.0	154.0929622674721	
21.0	135.80015340168757	pulse	1.0	t		28.0	female	white	5.676880222841227	smiling	124	sub-05	1.0	6.0	124_smiling	0.0	154.79294243573167	
22.0	136.0083806462735	face	0.0		146	25.0	female	black	3.858336649423	smiling	126	sub-05	1.0	6.0	126_smiling	0.0	155.00116968031762	1.241627881074237
22.0	136.50015319039085	pulse	0.0	t		25.0	female	black	3.858336649423	smiling	126	sub-05	1.0	6.0	126_smiling	0.0	155.49294222443496	
22.0	137.20011554932353	pulse	0.0	t		25.0	female	black	3.858336649423	smiling	126	sub-05	1.0	6.0	126_smiling	0.0	156.19290458336764	
22.0	137.25000852734775	fix	1.0		445	25.0	female	black	3.858336649423	smiling	126	sub-05	1.0	6.0	126_smiling	0.0	156.24279756139185	3.7665456940521835
22.0	137.9001150361728	pulse	1.0	t		25.0	female	black	3.858336649423	smiling	126	sub-05	1.0	6.0	126_smiling	0.0	156.8929040702169	
22.0	138.60008343216577	pulse	1.0	t		25.0	female	black	3.858336649423	smiling	126	sub-05	1.0	6.0	126_smiling	0.0	157.59287246620988	
22.0	139.30005816707126	pulse	1.0	t		25.0	female	black	3.858336649423	smiling	126	sub-05	1.0	6.0	126_smiling	0.0	158.29284720111536	
22.0	140.00003441124136	pulse	1.0	t		25.0	female	black	3.858336649423	smiling	126	sub-05	1.0	6.0	126_smiling	0.0	158.99282344528547	
22.0	140.70002303138244	pulse	1.0	t		25.0	female	black	3.858336649423	smiling	126	sub-05	1.0	6.0	126_smiling	0.0	159.69281206542655	
23.0	141.01655422139993	face	0.0		145	24.0	female	east_asian	2.9076800636689217	smiling	034	sub-05	1.0	6.0	034_smiling	0.0	160.00934325544404	1.2333199813692772
23.0	141.39997482546096	pulse	0.0	t		24.0	female	east_asian	2.9076800636689217	smiling	034	sub-05	1.0	6.0	034_smiling	0.0	160.39276385950507	
23.0	142.0999782363997	pulse	0.0	t		24.0	female	east_asian	2.9076800636689217	smiling	034	sub-05	1.0	6.0	034_smiling	0.0	161.0927672704438	
23.0	142.2498742027692	fix	1.0		1185	24.0	female	east_asian	2.9076800636689217	smiling	034	sub-05	1.0	6.0	034_smiling	0.0	161.2426632368133	10.016367978107155
23.0	142.79997047877805	pulse	1.0	t		24.0	female	east_asian	2.9076800636689217	smiling	034	sub-05	1.0	6.0	034_smiling	0.0	161.79275951282216	
23.0	143.49994823221277	pulse	1.0	t		24.0	female	east_asian	2.9076800636689217	smiling	034	sub-05	1.0	6.0	034_smiling	0.0	162.49273726625688	
23.0	144.1999262875015	pulse	1.0	t		24.0	female	east_asian	2.9076800636689217	smiling	034	sub-05	1.0	6.0	034_smiling	0.0	163.19271532154562	
23.0	144.89991068170275	pulse	1.0	t		24.0	female	east_asian	2.9076800636689217	smiling	034	sub-05	1.0	6.0	034_smiling	0.0	163.89269971574686	
23.0	145.5998908499605	pulse	1.0	t		24.0	female	east_asian	2.9076800636689217	smiling	034	sub-05	1.0	6.0	034_smiling	0.0	164.5926798840046	
23.0	146.29987132007227	pulse	1.0	t		24.0	female	east_asian	2.9076800636689217	smiling	034	sub-05	1.0	6.0	034_smiling	0.0	165.29266035411638	
23.0	146.99985179018404	pulse	1.0	t		24.0	female	east_asian	2.9076800636689217	smiling	034	sub-05	1.0	6.0	034_smiling	0.0	165.99264082422815	
23.0	147.69982803435414	pulse	1.0	t		24.0	female	east_asian	2.9076800636689217	smiling	034	sub-05	1.0	6.0	034_smiling	0.0	166.69261706839825	
23.0	148.3998145415262	pulse	1.0	t		24.0	female	east_asian	2.9076800636689217	smiling	034	sub-05	1.0	6.0	034_smiling	0.0	167.39260357557032	
23.0	149.09979259681495	pulse	1.0	t		24.0	female	east_asian	2.9076800636689217	smiling	034	sub-05	1.0	6.0	034_smiling	0.0	168.09258163085906	
23.0	149.7997791039852	pulse	1.0	t		24.0	female	east_asian	2.9076800636689217	smiling	034	sub-05	1.0	6.0	034_smiling	0.0	168.7925681380293	
23.0	150.4997607815094	pulse	1.0	t		24.0	female	east_asian	2.9076800636689217	smiling	034	sub-05	1.0	6.0	034_smiling	0.0	169.4925498155535	
23.0	151.1997361201211	pulse	1.0	t		24.0	female	east_asian	2.9076800636689217	smiling	034	sub-05	1.0	6.0	034_smiling	0.0	170.1925251541652	
23.0	151.89972081617452	pulse	1.0	t		24.0	female	east_asian	2.9076800636689217	smiling	034	sub-05	1.0	6.0	034_smiling	0.0	170.89250985021863	
24.0	152.26624218087636	face	0.0		145	28.0	female	white	5.676880222841227	neutral	124	sub-05	1.0	6.0	124_neutral	0.0	171.25903121492047	1.2333290369588212
24.0	152.59970370111114	pulse	0.0	t		28.0	female	white	5.676880222841227	neutral	124	sub-05	1.0	6.0	124_neutral	0.0	171.59249273515525	
24.0	153.29969201940003	pulse	0.0	t		28.0	female	white	5.676880222841227	neutral	124	sub-05	1.0	6.0	124_neutral	0.0	172.29248105344413	
24.0	153.49957121783518	fix	1.0		444	28.0	female	white	5.676880222841227	neutral	124	sub-05	1.0	6.0	124_neutral	0.0	172.4923602518793	3.758348574394404
24.0	153.99967007468877	pulse	1.0	t		28.0	female	white	5.676880222841227	neutral	124	sub-05	1.0	6.0	124_neutral	0.0	172.99245910873287	
24.0	154.69964511144644	pulse	1.0	t		28.0	female	white	5.676880222841227	neutral	124	sub-05	1.0	6.0	124_neutral	0.0	173.69243414549055	
24.0	155.39962739267503	pulse	1.0	t		28.0	female	white	5.676880222841227	neutral	124	sub-05	1.0	6.0	124_neutral	0.0	174.39241642671914	
24.0	156.0996069572284	pulse	1.0	t		28.0	female	white	5.676880222841227	neutral	124	sub-05	1.0	6.0	124_neutral	0.0	175.0923959912725	
24.0	156.79959406810667	pulse	1.0	t		28.0	female	white	5.676880222841227	neutral	124	sub-05	1.0	6.0	124_neutral	0.0	175.79238310215078	
25.0	157.2579197922296	face	0.0		146	31.0	female	white	2.1822522881018704	smiling	102	sub-05	1.0	6.0	102_smiling	0.0	176.2507088262737	1.2414875194353954
25.0	157.49957393451223	pulse	0.0	t		31.0	female	white	2.1822522881018704	smiling	102	sub-05	1.0	6.0	102_smiling	0.0	176.49236296855634	
25.0	158.1995547064762	pulse	0.0	t		31.0	female	white	2.1822522881018704	smiling	102	sub-05	1.0	6.0	102_smiling	0.0	177.1923437405203	
25.0	158.49940731166498	fix	1.0		444	31.0	female	white	2.1822522881018704	smiling	102	sub-05	1.0	6.0	102_smiling	0.0	177.4921963457091	3.7665770867624815
25.0	158.89952763026486	pulse	1.0	t		31.0	female	white	2.1822522881018704	smiling	102	sub-05	1.0	6.0	102_smiling	0.0	177.89231666430896	
25.0	159.59951353373071	pulse	1.0	t		31.0	female	white	2.1822522881018704	smiling	102	sub-05	1.0	6.0	102_smiling	0.0	178.59230256777482	
25.0	160.29949973904877	pulse	1.0	t		31.0	female	white	2.1822522881018704	smiling	102	sub-05	1.0	6.0	102_smiling	0.0	179.29228877309288	
25.0	160.99945485351054	pulse	1.0	t		31.0	female	white	2.1822522881018704	smiling	102	sub-05	1.0	6.0	102_smiling	0.0	179.99224388755465	
25.0	161.6994600755661	pulse	1.0	t		31.0	female	white	2.1822522881018704	smiling	102	sub-05	1.0	6.0	102_smiling	0.0	180.6922491096102	
26.0	162.26598439842746	face	0.0		145	40.0	male	white	1.868682849184242	neutral	172	sub-05	1.0	6.0	172_neutral	0.0	181.25877343247157	1.2333151517213992
26.0	162.39944537532574	pulse	0.0	t		40.0	male	white	1.868682849184242	neutral	172	sub-05	1.0	6.0	172_neutral	0.0	181.39223440936985	
26.0	163.09941709170198	pulse	0.0	t		40.0	male	white	1.868682849184242	neutral	172	sub-05	1.0	6.0	172_neutral	0.0	182.0922061257461	
26.0	163.49929955014886	fix	1.0		444	40.0	male	white	1.868682849184242	neutral	172	sub-05	1.0	6.0	172_neutral	0.0	182.49208858419297	3.7665601829958177
26.0	163.79940510813685	pulse	1.0	t		40.0	male	white	1.868682849184242	neutral	172	sub-05	1.0	6.0	172_neutral	0.0	182.79219414218096	
26.0	164.49937923933612	pulse	1.0	t		40.0	male	white	1.868682849184242	neutral	172	sub-05	1.0	6.0	172_neutral	0.0	183.49216827338023	
26.0	165.19935880388948	pulse	1.0	t		40.0	male	white	1.868682849184242	neutral	172	sub-05	1.0	6.0	172_neutral	0.0	184.1921478379336	
26.0	165.89934319809072	pulse	1.0	t		40.0	male	white	1.868682849184242	neutral	172	sub-05	1.0	6.0	172_neutral	0.0	184.89213223213483	
26.0	166.5993306108212	pulse	1.0	t		40.0	male	white	1.868682849184242	neutral	172	sub-05	1.0	6.0	172_neutral	0.0	185.5921196448653	
27.0	167.26585973314468	face	0.0		145	20.0	male	black	3.1070433744528456	neutral	082	sub-05	1.0	6.0	082_neutral	0.0	186.2586487671888	1.2333060961318552
27.0	167.2993192309641	pulse	0.0	t		20.0	male	black	3.1070433744528456	neutral	082	sub-05	1.0	6.0	082_neutral	0.0	186.2921082650082	
27.0	167.99929275845716	pulse	0.0	t		20.0	male	black	3.1070433744528456	neutral	082	sub-05	1.0	6.0	082_neutral	0.0	186.99208179250127	
27.0	168.49916582927654	fix	1.0		444	20.0	male	black	3.1070433744528456	neutral	082	sub-05	1.0	6.0	082_neutral	0.0	187.49195486332064	3.774882269790396
27.0	168.6992717193043	pulse	1.0	t		20.0	male	black	3.1070433744528456	neutral	082	sub-05	1.0	6.0	082_neutral	0.0	187.69206075334841	
27.0	169.39924464309115	pulse	1.0	t		20.0	male	black	3.1070433744528456	neutral	082	sub-05	1.0	6.0	082_neutral	0.0	188.39203367713526	
27.0	170.099230244703	pulse	1.0	t		20.0	male	black	3.1070433744528456	neutral	082	sub-05	1.0	6.0	082_neutral	0.0	189.0920192787471	
27.0	170.7992119222272	pulse	1.0	t		20.0	male	black	3.1070433744528456	neutral	082	sub-05	1.0	6.0	082_neutral	0.0	189.7920009562713	
27.0	171.499195109016	pulse	1.0	t		20.0	male	black	3.1070433744528456	neutral	082	sub-05	1.0	6.0	082_neutral	0.0	190.4919841430601	
27.0	172.19918614398193	pulse	1.0	t		20.0	male	black	3.1070433744528456	neutral	082	sub-05	1.0	6.0	082_neutral	0.0	191.19197517802604	
28.0	172.27404809906693	face	0.0		146	22.0	female	white	4.614007162753682	smiling	009	sub-05	1.0	6.0	009_smiling	0.0	191.26683713311104	1.2333157554276113
28.0	172.89916057703522	pulse	0.0	t		22.0	female	white	4.614007162753682	smiling	009	sub-05	1.0	6.0	009_smiling	0.0	191.89194961107933	
28.0	173.50736385449454	fix	1.0		443	22.0	female	white	4.614007162753682	smiling	009	sub-05	1.0	6.0	009_smiling	0.0	192.50015288853865	3.7665505237000616
28.0	173.59914527308865	pulse	1.0	t		22.0	female	white	4.614007162753682	smiling	009	sub-05	1.0	6.0	009_smiling	0.0	192.59193430713276	
28.0	174.29911366908163	pulse	1.0	t		22.0	female	white	4.614007162753682	smiling	009	sub-05	1.0	6.0	009_smiling	0.0	193.29190270312574	
28.0	174.9990887058393	pulse	1.0	t		22.0	female	white	4.614007162753682	smiling	009	sub-05	1.0	6.0	009_smiling	0.0	193.99187773988342	
28.0	175.6990634407448	pulse	1.0	t		22.0	female	white	4.614007162753682	smiling	009	sub-05	1.0	6.0	009_smiling	0.0	194.6918524747889	
28.0	176.39904421270876	pulse	1.0	t		22.0	female	white	4.614007162753682	smiling	009	sub-05	1.0	6.0	009_smiling	0.0	195.39183324675287	
28.0	177.09904249214742	pulse	1.0	t		22.0	female	white	4.614007162753682	smiling	009	sub-05	1.0	6.0	009_smiling	0.0	196.09183152619153	
29.0	177.2739143781946	face	0.0		146	24.0	female	black	3.0955033824114606	neutral	099	sub-05	1.0	6.0	099_neutral	0.0	196.2667034122387	1.2416493126347632
29.0	177.79902688634684	pulse	0.0	t		24.0	female	black	3.0955033824114606	neutral	099	sub-05	1.0	6.0	099_neutral	0.0	196.79181592039095	
29.0	178.49900313051694	pulse	0.0	t		24.0	female	black	3.0955033824114606	neutral	099	sub-05	1.0	6.0	099_neutral	0.0	197.49179216456105	
29.0	178.51556369082937	fix	1.0		443	24.0	female	black	3.0955033824114606	neutral	099	sub-05	1.0	6.0	099_neutral	0.0	197.50835272487348	3.758213344255637
29.0	179.1989887321306	pulse	1.0	t		24.0	female	black	3.0955033824114606	neutral	099	sub-05	1.0	6.0	099_neutral	0.0	198.1917777661747	
29.0	179.898970711507	pulse	1.0	t		24.0	female	black	3.0955033824114606	neutral	099	sub-05	1.0	6.0	099_neutral	0.0	198.8917597455511	
29.0	180.59893156117505	pulse	1.0	t		24.0	female	black	3.0955033824114606	neutral	099	sub-05	1.0	6.0	099_neutral	0.0	199.59172059521916	
29.0	181.29892531281803	pulse	1.0	t		24.0	female	black	3.0955033824114606	neutral	099	sub-05	1.0	6.0	099_neutral	0.0	200.29171434686214	
29.0	181.99890910331305	pulse	1.0	t		24.0	female	black	3.0955033824114606	neutral	099	sub-05	1.0	6.0	099_neutral	0.0	200.99169813735716	
30.0	182.273777035085	face	0.0		145	31.0	female	west_asian	2.364902506963788	smiling	006	sub-05	1.0	6.0	006_smiling	0.0	201.2665660691291	1.2333199813710962
30.0	182.6988947049249	pulse	0.0	t		31.0	female	west_asian	2.364902506963788	smiling	006	sub-05	1.0	6.0	006_smiling	0.0	201.691683738969	
30.0	183.398870949095	pulse	0.0	t		31.0	female	west_asian	2.364902506963788	smiling	006	sub-05	1.0	6.0	006_smiling	0.0	202.3916599831391	
30.0	183.5070970164561	fix	1.0		444	31.0	female	west_asian	2.364902506963788	smiling	006	sub-05	1.0	6.0	006_smiling	0.0	202.4998860505002	3.75819432751814
30.0	184.09885715441487	pulse	1.0	t		31.0	female	west_asian	2.364902506963788	smiling	006	sub-05	1.0	6.0	006_smiling	0.0	203.09164618845898	
30.0	184.79883309673096	pulse	1.0	t		31.0	female	west_asian	2.364902506963788	smiling	006	sub-05	1.0	6.0	006_smiling	0.0	203.79162213077507	
30.0	185.49881628351977	pulse	1.0	t		31.0	female	west_asian	2.364902506963788	smiling	006	sub-05	1.0	6.0	006_smiling	0.0	204.49160531756388	
30.0	186.1987940369545	pulse	1.0	t		31.0	female	west_asian	2.364902506963788	smiling	006	sub-05	1.0	6.0	006_smiling	0.0	205.1915830709986	
30.0	186.89877903486195	pulse	1.0	t		31.0	female	west_asian	2.364902506963788	smiling	006	sub-05	1.0	6.0	006_smiling	0.0	205.89156806890605	
31.0	187.26529134397424	face	0.0		146	31.0	female	east_asian	3.395941106247513	neutral	087	sub-05	1.0	6.0	087_neutral	0.0	206.25808037801835	1.241668933078472
31.0	187.59876282535697	pulse	0.0	t		31.0	female	east_asian	3.395941106247513	neutral	087	sub-05	1.0	6.0	087_neutral	0.0	206.59155185940108	
31.0	188.29873937137927	pulse	0.0	t		31.0	female	east_asian	3.395941106247513	neutral	087	sub-05	1.0	6.0	087_neutral	0.0	207.29152840542338	
31.0	188.5069602770527	fix	1.0		444	31.0	female	east_asian	3.395941106247513	neutral	087	sub-05	1.0	6.0	087_neutral	0.0	207.49974931109682	3.766544788493775
31.0	188.9987418767596	pulse	1.0	t		31.0	female	east_asian	3.395941106247513	neutral	087	sub-05	1.0	6.0	087_neutral	0.0	207.9915309108037	
31.0	189.69870121716303	pulse	1.0	t		31.0	female	east_asian	3.395941106247513	neutral	087	sub-05	1.0	6.0	087_neutral	0.0	208.69149025120714	
31.0	190.39868349839162	pulse	1.0	t		31.0	female	east_asian	3.395941106247513	neutral	087	sub-05	1.0	6.0	087_neutral	0.0	209.39147253243573	
31.0	191.09866577962202	pulse	1.0	t		31.0	female	east_asian	3.395941106247513	neutral	087	sub-05	1.0	6.0	087_neutral	0.0	210.09145481366613	
31.0	191.7986344774672	pulse	1.0	t		31.0	female	east_asian	3.395941106247513	neutral	087	sub-05	1.0	6.0	087_neutral	0.0	210.7914235115113	
32.0	192.2735050655465	face	0.0		145	47.0	male	east_asian	2.171110226820533	neutral	024	sub-05	1.0	6.0	024_neutral	0.0	211.2662940995906	1.2333199813692772
32.0	192.49860770310806	pulse	0.0	t		47.0	male	east_asian	2.171110226820533	neutral	024	sub-05	1.0	6.0	024_neutral	0.0	211.49139673715217	
32.0	193.1986053788387	pulse	0.0	t		47.0	male	east_asian	2.171110226820533	neutral	024	sub-05	1.0	6.0	024_neutral	0.0	212.1913944128828	
32.0	193.50682504691576	fix	1.0		444	47.0	male	east_asian	2.171110226820533	neutral	024	sub-05	1.0	6.0	024_neutral	0.0	212.49961408095987	3.766548712581425
32.0	193.8985930934232	pulse	1.0	t		47.0	male	east_asian	2.171110226820533	neutral	024	sub-05	1.0	6.0	024_neutral	0.0	212.8913821274673	
32.0	194.598576280212	pulse	1.0	t		47.0	male	east_asian	2.171110226820533	neutral	024	sub-05	1.0	6.0	024_neutral	0.0	213.5913653142561	
32.0	195.29855403364672	pulse	1.0	t		47.0	male	east_asian	2.171110226820533	neutral	024	sub-05	1.0	6.0	024_neutral	0.0	214.29134306769083	
32.0	195.998528164846	pulse	1.0	t		47.0	male	east_asian	2.171110226820533	neutral	024	sub-05	1.0	6.0	024_neutral	0.0	214.9913171988901	
32.0	196.69851829425352	pulse	1.0	t		47.0	male	east_asian	2.171110226820533	neutral	024	sub-05	1.0	6.0	024_neutral	0.0	215.69130732829763	
33.0	197.2733737594972	face	0.0		145	22.0	female	west_asian	3.8205332272184642	neutral	066	sub-05	1.0	6.0	066_neutral	0.0	216.2661627935413	1.2333082091045071
33.0	197.39850902736725	pulse	0.0	t		22.0	female	west_asian	3.8205332272184642	neutral	066	sub-05	1.0	6.0	066_neutral	0.0	216.39129806141136	
33.0	198.09847319741675	pulse	0.0	t		22.0	female	west_asian	3.8205332272184642	neutral	066	sub-05	1.0	6.0	066_neutral	0.0	217.09126223146086	
33.0	198.5066819686017	fix	1.0		444	22.0	female	west_asian	3.8205332272184642	neutral	066	sub-05	1.0	6.0	066_neutral	0.0	217.4994710026458	3.7665568626125605
33.0	198.79847841947412	pulse	1.0	t		22.0	female	west_asian	3.8205332272184642	neutral	066	sub-05	1.0	6.0	066_neutral	0.0	217.79126745351823	
33.0	199.49843685431733	pulse	1.0	t		22.0	female	west_asian	3.8205332272184642	neutral	066	sub-05	1.0	6.0	066_neutral	0.0	218.49122588836144	
33.0	200.1984161170185	pulse	1.0	t		22.0	female	west_asian	3.8205332272184642	neutral	066	sub-05	1.0	6.0	066_neutral	0.0	219.1912051510626	
33.0	200.89840141677814	pulse	1.0	t		22.0	female	west_asian	3.8205332272184642	neutral	066	sub-05	1.0	6.0	066_neutral	0.0	219.89119045082225	
33.0	201.59837826465446	pulse	1.0	t		22.0	female	west_asian	3.8205332272184642	neutral	066	sub-05	1.0	6.0	066_neutral	0.0	220.59116729869856	
34.0	202.27323883121426	face	0.0		145	27.0	female	white	3.504576203740549	smiling	144	sub-05	1.0	6.0	144_smiling	0.0	221.26602786525837	1.2333178683984443
34.0	202.29849698343241	pulse	0.0	t		27.0	female	white	3.504576203740549	smiling	144	sub-05	1.0	6.0	144_smiling	0.0	221.29128601747652	
34.0	202.99834252525943	pulse	0.0	t		27.0	female	white	3.504576203740549	smiling	144	sub-05	1.0	6.0	144_smiling	0.0	221.99113155930354	
34.0	203.5065566996127	fix	1.0		443	27.0	female	white	3.504576203740549	smiling	144	sub-05	1.0	6.0	144_smiling	0.0	222.4993457336568	3.7665493162876373
34.0	203.6983163546065	pulse	1.0	t		27.0	female	white	3.504576203740549	smiling	144	sub-05	1.0	6.0	144_smiling	0.0	222.6911053886506	
34.0	204.39830678586623	pulse	1.0	t		27.0	female	white	3.504576203740549	smiling	144	sub-05	1.0	6.0	144_smiling	0.0	223.39109581991033	
34.0	205.09828453930095	pulse	1.0	t		27.0	female	white	3.504576203740549	smiling	144	sub-05	1.0	6.0	144_smiling	0.0	224.09107357334506	
34.0	205.79826802794378	pulse	1.0	t		27.0	female	white	3.504576203740549	smiling	144	sub-05	1.0	6.0	144_smiling	0.0	224.79105706198789	
34.0	206.49825483696804	pulse	1.0	t		27.0	female	white	3.504576203740549	smiling	144	sub-05	1.0	6.0	144_smiling	0.0	225.49104387101215	
34.0	207.19823198669656	pulse	1.0	t		27.0	female	white	3.504576203740549	smiling	144	sub-05	1.0	6.0	144_smiling	0.0	226.19102102074066	
35.0	207.27310601590034	face	0.0		146	26.0	female	white	4.854755272582572	neutral	027	sub-05	1.0	6.0	027_neutral	0.0	226.26589504994445	1.2333157554276113
35.0	207.898216984604	pulse	0.0	t		26.0	female	white	4.854755272582572	neutral	027	sub-05	1.0	6.0	027_neutral	0.0	226.8910060186481	
35.0	208.50642177132795	fix	1.0		443	26.0	female	white	4.854755272582572	neutral	027	sub-05	1.0	6.0	027_neutral	0.0	227.49921080537206	3.766550825552258
35.0	208.59820349177608	pulse	1.0	t		26.0	female	white	4.854755272582572	neutral	027	sub-05	1.0	6.0	027_neutral	0.0	227.59099252582018	
35.0	209.29818275447542	pulse	1.0	t		26.0	female	white	4.854755272582572	neutral	027	sub-05	1.0	6.0	027_neutral	0.0	228.29097178851953	
35.0	209.99814149117265	pulse	1.0	t		26.0	female	white	4.854755272582572	neutral	027	sub-05	1.0	6.0	027_neutral	0.0	228.99093052521675	
35.0	210.69813826134487	pulse	1.0	t		26.0	female	white	4.854755272582572	neutral	027	sub-05	1.0	6.0	027_neutral	0.0	229.69092729538897	
35.0	211.39812778704618	pulse	1.0	t		26.0	female	white	4.854755272582572	neutral	027	sub-05	1.0	6.0	027_neutral	0.0	230.3909168210903	
35.0	212.0981046349225	pulse	1.0	t		26.0	female	white	4.854755272582572	neutral	027	sub-05	1.0	6.0	027_neutral	0.0	231.0908936689666	
36.0	212.2729725968802	face	0.0		146	19.0	male	white	2.243931555909272	neutral	130	sub-05	1.0	6.0	130_neutral	0.0	231.26576163092432	1.2416505200490064
36.0	212.79808389762366	pulse	0.0	t		19.0	male	white	2.243931555909272	neutral	130	sub-05	1.0	6.0	130_neutral	0.0	231.79087293166776	
36.0	213.49806104735217	pulse	0.0	t		19.0	male	white	2.243931555909272	neutral	130	sub-05	1.0	6.0	130_neutral	0.0	232.49085008139627	
36.0	213.51462311692922	fix	1.0		443	19.0	male	white	2.243931555909272	neutral	130	sub-05	1.0	6.0	130_neutral	0.0	232.50741215097332	3.7582121368432126
36.0	214.19804725267022	pulse	1.0	t		19.0	male	white	2.243931555909272	neutral	130	sub-05	1.0	6.0	130_neutral	0.0	233.19083628671433	
36.0	214.89802470425275	pulse	1.0	t		19.0	male	white	2.243931555909272	neutral	130	sub-05	1.0	6.0	130_neutral	0.0	233.89081373829686	
36.0	215.59800849474777	pulse	1.0	t		19.0	male	white	2.243931555909272	neutral	130	sub-05	1.0	6.0	130_neutral	0.0	234.59079752879188	
36.0	216.29798504077007	pulse	1.0	t		19.0	male	white	2.243931555909272	neutral	130	sub-05	1.0	6.0	130_neutral	0.0	235.29077407481418	
36.0	216.99797064238192	pulse	1.0	t		19.0	male	white	2.243931555909272	neutral	130	sub-05	1.0	6.0	130_neutral	0.0	235.99075967642602	
37.0	217.27283525377243	face	0.0		145	27.0	female	white	4.181058495821727	neutral	039	sub-05	1.0	6.0	039_neutral	0.0	236.26562428781654	1.2333042850150377
37.0	217.69796711070376	pulse	0.0	t		27.0	female	white	4.181058495821727	neutral	039	sub-05	1.0	6.0	039_neutral	0.0	236.69075614474787	
37.0	218.39793520484272	pulse	0.0	t		27.0	female	white	4.181058495821727	neutral	039	sub-05	1.0	6.0	039_neutral	0.0	237.39072423888683	
37.0	218.50613953878747	fix	1.0		444	27.0	female	white	4.181058495821727	neutral	039	sub-05	1.0	6.0	039_neutral	0.0	237.49892857283157	3.758333783596754
37.0	219.09792020274836	pulse	1.0	t		27.0	female	white	4.181058495821727	neutral	039	sub-05	1.0	6.0	039_neutral	0.0	238.09070923679246	
37.0	219.79789010800596	pulse	1.0	t		27.0	female	white	4.181058495821727	neutral	039	sub-05	1.0	6.0	039_neutral	0.0	238.79067914205007	
37.0	220.49787903000106	pulse	1.0	t		27.0	female	white	4.181058495821727	neutral	039	sub-05	1.0	6.0	039_neutral	0.0	239.49066806404517	
37.0	221.19784863340647	pulse	1.0	t		27.0	female	white	4.181058495821727	neutral	039	sub-05	1.0	6.0	039_neutral	0.0	240.19063766745057	
37.0	221.89785023322656	pulse	1.0	t		27.0	female	white	4.181058495821727	neutral	039	sub-05	1.0	6.0	039_neutral	0.0	240.89063926727067	
38.0	222.26447332238422	face	0.0		146	28.0	male	white	3.9076800636689217	neutral	033	sub-05	1.0	6.0	033_neutral	0.0	241.25726235642833	1.2415466826205375
38.0	222.5978291940737	pulse	0.0	t		28.0	male	white	3.9076800636689217	neutral	033	sub-05	1.0	6.0	033_neutral	0.0	241.59061822811782	
38.0	223.29780966418548	pulse	0.0	t		28.0	male	white	3.9076800636689217	neutral	033	sub-05	1.0	6.0	033_neutral	0.0	242.2905986982296	
38.0	223.50602000500476	fix	1.0		444	28.0	male	white	3.9076800636689217	neutral	033	sub-05	1.0	6.0	033_neutral	0.0	242.49880903904887	3.7665568626125605
38.0	223.99778409723876	pulse	1.0	t		28.0	male	white	3.9076800636689217	neutral	033	sub-05	1.0	6.0	033_neutral	0.0	242.99057313128287	
38.0	224.69776637846735	pulse	1.0	t		28.0	male	white	3.9076800636689217	neutral	033	sub-05	1.0	6.0	033_neutral	0.0	243.69055541251146	
38.0	225.39773386890192	pulse	1.0	t		28.0	male	white	3.9076800636689217	neutral	033	sub-05	1.0	6.0	033_neutral	0.0	244.39052290294603	
38.0	226.09772641313248	pulse	1.0	t		28.0	male	white	3.9076800636689217	neutral	033	sub-05	1.0	6.0	033_neutral	0.0	245.09051544717659	
38.0	226.79769390356705	pulse	1.0	t		28.0	male	white	3.9076800636689217	neutral	033	sub-05	1.0	6.0	033_neutral	0.0	245.79048293761116	
39.0	227.27257686761732	face	0.0		145	37.0	male	white	3.898925586947871	smiling	101	sub-05	1.0	6.0	101_smiling	0.0	246.26536590166143	1.2332900979236001
39.0	227.4976936922685	pulse	0.0	t		37.0	male	white	3.898925586947871	smiling	101	sub-05	1.0	6.0	101_smiling	0.0	246.49048272631262	
39.0	228.19766782346778	pulse	0.0	t		37.0	male	white	3.898925586947871	smiling	101	sub-05	1.0	6.0	101_smiling	0.0	247.1904568575119	
39.0	228.50586696554092	fix	1.0		444	37.0	male	white	3.898925586947871	smiling	101	sub-05	1.0	6.0	101_smiling	0.0	247.49865599958503	3.7499024260232545
39.0	228.89765312322743	pulse	1.0	t		37.0	male	white	3.898925586947871	smiling	101	sub-05	1.0	6.0	101_smiling	0.0	247.89044215727154	
39.0	229.59763178222238	pulse	1.0	t		37.0	male	white	3.898925586947871	smiling	101	sub-05	1.0	6.0	101_smiling	0.0	248.5904208162665	
39.0	230.29761285604036	pulse	1.0	t		37.0	male	white	3.898925586947871	smiling	101	sub-05	1.0	6.0	101_smiling	0.0	249.29040189008447	
39.0	230.99758728909183	pulse	1.0	t		37.0	male	white	3.898925586947871	smiling	101	sub-05	1.0	6.0	101_smiling	0.0	249.99037632313593	
39.0	231.69757681479314	pulse	1.0	t		37.0	male	white	3.898925586947871	smiling	101	sub-05	1.0	6.0	101_smiling	0.0	250.69036584883725	
40.0	232.25576939156417	fix	0.0		720												251.24855842560828	5.99985088462563
40.0	232.39756694420066	pulse	0.0	t													251.39035597824477	
40.0	233.09753534019364	pulse	0.0	t													252.09032437423775	
40.0	233.7975155084514	pulse	0.0	t													252.7903045424955	
40.0	234.4974977896818	pulse	0.0	t													253.4902868237259	
40.0	235.19747735423516	pulse	0.0	t													254.19026638827927	
40.0	235.89745329655125	pulse	0.0	t													254.89024233059536	
40.0	236.59743406851703	pulse	0.0	t													255.59022310256114	
40.0	237.29741634974744	pulse	0.0	t													256.29020538379154	
40.0	237.99739893283004	pulse	0.0	t													256.99018796687415	
