trial_nr	onset	event_type	phase	response	nr_frames	face_age	face_sex	face_eth	attractiveness	expression	face_id	sub_id	ses	run	trial_type	catch	rating_type	onset_abs	duration
-1.0	0.05539790349757823	fix	0.0		714													24.878410468807488	5.966322662865423
-1.0	0.7052768144403672	pulse	0.0	t														25.528289379750277	
-1.0	1.405264830804299	pulse	0.0	t														26.22827739611421	
-1.0	2.1052413766865357	pulse	0.0	t														26.928253941996445	
-1.0	2.8052456932109635	pulse	0.0	t														27.628258258520873	
-1.0	3.505204731513004	pulse	0.0	t														28.328217296822913	
-1.0	4.205189729329504	pulse	0.0	t														29.028202294639414	
-1.0	4.80518592595763	response	0.0	b														29.62819849126754	
-1.0	4.90517502900002	pulse	0.0	t														29.72818759430993	
-1.0	5.605164554637668	pulse	0.0	t														30.428177119947577	
0.0	6.021720566363001	face	0.0		144	26.0	female	white	4.854755272582572	neutral	027	sub-08	2.0	6.0	027_neutral	0.0		30.84473313167291	1.2332981471245148
0.0	6.305152571001599	pulse	0.0	t		26.0	female	white	4.854755272582572	neutral	027	sub-08	2.0	6.0	027_neutral	0.0		31.12816513631151	
0.0	7.0051472281720635	pulse	0.0	t		26.0	female	white	4.854755272582572	neutral	027	sub-08	2.0	6.0	027_neutral	0.0		31.828159793481973	
0.0	7.255018713487516	fix	1.0		445	26.0	female	white	4.854755272582572	neutral	027	sub-08	2.0	6.0	027_neutral	0.0		32.078031278797425	3.7582517294013087
0.0	7.705134037116295	pulse	1.0	t		26.0	female	white	4.854755272582572	neutral	027	sub-08	2.0	6.0	027_neutral	0.0		32.528146602426204	
0.0	8.405101527354418	pulse	1.0	t		26.0	female	white	4.854755272582572	neutral	027	sub-08	2.0	6.0	027_neutral	0.0		33.22811409266433	
0.0	9.105095882669048	pulse	1.0	t		26.0	female	white	4.854755272582572	neutral	027	sub-08	2.0	6.0	027_neutral	0.0		33.92810844797896	
0.0	9.80507454153485	pulse	1.0	t		26.0	female	white	4.854755272582572	neutral	027	sub-08	2.0	6.0	027_neutral	0.0		34.62808710684476	
0.0	10.50507070797903	pulse	1.0	t		26.0	female	white	4.854755272582572	neutral	027	sub-08	2.0	6.0	027_neutral	0.0		35.32808327328894	
1.0	11.013270442888825	face	0.0		146	25.0	female	west_asian	2.6756864305610826	neutral	064	sub-08	2.0	6.0	064_neutral	0.0		35.836283008198734	1.2416435269806243
1.0	11.205040613054734	pulse	0.0	t		25.0	female	west_asian	2.6756864305610826	neutral	064	sub-08	2.0	6.0	064_neutral	0.0		36.028053178364644	
1.0	11.905031647966098	pulse	0.0	t		25.0	female	west_asian	2.6756864305610826	neutral	064	sub-08	2.0	6.0	064_neutral	0.0		36.72804421327601	
1.0	12.254913969869449	fix	1.0		445	25.0	female	west_asian	2.6756864305610826	neutral	064	sub-08	2.0	6.0	064_neutral	0.0		37.07792653517936	3.7582553516604094
1.0	12.605026606990577	pulse	1.0	t		25.0	female	west_asian	2.6756864305610826	neutral	064	sub-08	2.0	6.0	064_neutral	0.0		37.42803917230049	
1.0	13.305017943757775	pulse	1.0	t		25.0	female	west_asian	2.6756864305610826	neutral	064	sub-08	2.0	6.0	064_neutral	0.0		38.128030509067685	
1.0	14.005015317621655	pulse	1.0	t		25.0	female	west_asian	2.6756864305610826	neutral	064	sub-08	2.0	6.0	064_neutral	0.0		38.828027882931565	
1.0	14.704965903989432	pulse	1.0	t		25.0	female	west_asian	2.6756864305610826	neutral	064	sub-08	2.0	6.0	064_neutral	0.0		39.52797846929934	
1.0	15.40494486470925	pulse	1.0	t		25.0	female	west_asian	2.6756864305610826	neutral	064	sub-08	2.0	6.0	064_neutral	0.0		40.22795743001916	
2.0	16.01316932152986	face	0.0		146	40.0	male	white	1.868682849184242	neutral	172	sub-08	2.0	6.0	172_neutral	0.0		40.83618188683977	1.2416377917379577
2.0	16.105096788234732	pulse	0.0	t		40.0	male	white	1.868682849184242	neutral	172	sub-08	2.0	6.0	172_neutral	0.0		40.92810935354464	
2.0	16.804945649531874	pulse	0.0	t		40.0	male	white	1.868682849184242	neutral	172	sub-08	2.0	6.0	172_neutral	0.0		41.62795821484178	
2.0	17.254807113267816	fix	1.0		444	40.0	male	white	1.868682849184242	neutral	172	sub-08	2.0	6.0	172_neutral	0.0		42.077819678577725	3.758237844080213
2.0	17.504925515815557	pulse	1.0	t		40.0	male	white	1.868682849184242	neutral	172	sub-08	2.0	6.0	172_neutral	0.0		42.32793808112547	
2.0	18.20490598581091	pulse	1.0	t		40.0	male	white	1.868682849184242	neutral	172	sub-08	2.0	6.0	172_neutral	0.0		43.02791855112082	
2.0	18.90489098362559	pulse	1.0	t		40.0	male	white	1.868682849184242	neutral	172	sub-08	2.0	6.0	172_neutral	0.0		43.7279035489355	
2.0	19.604869642491394	pulse	1.0	t		40.0	male	white	1.868682849184242	neutral	172	sub-08	2.0	6.0	172_neutral	0.0		44.427882207801304	
2.0	20.304857055145476	pulse	1.0	t		40.0	male	white	1.868682849184242	neutral	172	sub-08	2.0	6.0	172_neutral	0.0		45.127869620455385	
3.0	21.01304495734803	face	0.0		147	26.0	male	white	2.7966573816155993	neutral	117	sub-08	2.0	6.0	117_neutral	0.0		45.83605752265794	1.2416691846392496
3.0	21.0054593460427	pulse	0.0	t		26.0	male	white	2.7966573816155993	neutral	117	sub-08	2.0	6.0	117_neutral	0.0		45.82847191135261	
3.0	21.704840936099572	pulse	0.0	t		26.0	male	white	2.7966573816155993	neutral	117	sub-08	2.0	6.0	117_neutral	0.0		46.52785350140948	
3.0	22.25471414198728	fix	1.0		443	26.0	male	white	2.7966573816155993	neutral	117	sub-08	2.0	6.0	117_neutral	0.0		47.07772670729719	3.7582505219834275
3.0	22.404819594965375	pulse	1.0	t		26.0	male	white	2.7966573816155993	neutral	117	sub-08	2.0	6.0	117_neutral	0.0		47.227832160275284	
3.0	23.104798555685193	pulse	1.0	t		26.0	male	white	2.7966573816155993	neutral	117	sub-08	2.0	6.0	117_neutral	0.0		47.9278111209951	
3.0	23.804788986886706	pulse	1.0	t		26.0	male	white	2.7966573816155993	neutral	117	sub-08	2.0	6.0	117_neutral	0.0		48.627801552196615	
3.0	24.50477006059009	pulse	1.0	t		26.0	male	white	2.7966573816155993	neutral	117	sub-08	2.0	6.0	117_neutral	0.0		49.3277826259	
3.0	25.204759284373722	pulse	1.0	t		26.0	male	white	2.7966573816155993	neutral	117	sub-08	2.0	6.0	117_neutral	0.0		50.02777184968363	
3.0	25.904735528400124	pulse	1.0	t		26.0	male	white	2.7966573816155993	neutral	117	sub-08	2.0	6.0	117_neutral	0.0		50.727748093710034	
4.0	26.012964663970706	face	0.0		147	22.0	female	white	4.614007162753682	neutral	009	sub-08	2.0	6.0	009_neutral	0.0		50.835977229280616	1.2416371880281076
4.0	26.604738335650836	pulse	0.0	t		22.0	female	white	4.614007162753682	neutral	009	sub-08	2.0	6.0	009_neutral	0.0		51.427750900960746	
4.0	27.254601851998814	fix	1.0		444	22.0	female	white	4.614007162753682	neutral	009	sub-08	2.0	6.0	009_neutral	0.0		52.07761441730872	3.7665847332100384
4.0	27.304710655564122	pulse	1.0	t		22.0	female	white	4.614007162753682	neutral	009	sub-08	2.0	6.0	009_neutral	0.0		52.12772322087403	
4.0	28.004701086767454	pulse	1.0	t		22.0	female	white	4.614007162753682	neutral	009	sub-08	2.0	6.0	009_neutral	0.0		52.827713652077364	
4.0	28.704680953051138	pulse	1.0	t		22.0	female	white	4.614007162753682	neutral	009	sub-08	2.0	6.0	009_neutral	0.0		53.52769351836105	
4.0	29.404673799092052	pulse	1.0	t		22.0	female	white	4.614007162753682	neutral	009	sub-08	2.0	6.0	009_neutral	0.0		54.22768636440196	
4.0	30.104658495054537	pulse	1.0	t		22.0	female	white	4.614007162753682	neutral	009	sub-08	2.0	6.0	009_neutral	0.0		54.927671060364446	
4.0	30.80463956875792	pulse	1.0	t		22.0	female	white	4.614007162753682	neutral	009	sub-08	2.0	6.0	009_neutral	0.0		55.62765213406783	
5.0	31.021186585208852	face	0.0		145	24.0	female	black	3.0955033824114606	neutral	099	sub-08	2.0	6.0	099_neutral	0.0		55.84419915051876	1.2333093157521944
5.0	31.504635433346266	pulse	0.0	t		24.0	female	black	3.0955033824114606	neutral	099	sub-08	2.0	6.0	099_neutral	0.0		56.327647998656175	
5.0	32.204621034872616	pulse	0.0	t		24.0	female	black	3.0955033824114606	neutral	099	sub-08	2.0	6.0	099_neutral	0.0		57.027633600182526	
5.0	32.25449590096105	fix	1.0		445	24.0	female	black	3.0955033824114606	neutral	099	sub-08	2.0	6.0	099_neutral	0.0		57.077508466270956	3.766574772002059
5.0	32.90460814567268	pulse	1.0	t		24.0	female	black	3.0955033824114606	neutral	099	sub-08	2.0	6.0	099_neutral	0.0		57.72762071098259	
5.0	33.604593143487364	pulse	1.0	t		24.0	female	black	3.0955033824114606	neutral	099	sub-08	2.0	6.0	099_neutral	0.0		58.42760570879727	
5.0	34.30457512275643	pulse	1.0	t		24.0	female	black	3.0955033824114606	neutral	099	sub-08	2.0	6.0	099_neutral	0.0		59.12758768806634	
5.0	35.004555592749966	pulse	1.0	t		24.0	female	black	3.0955033824114606	neutral	099	sub-08	2.0	6.0	099_neutral	0.0		59.827568158059876	
5.0	35.7045360627435	pulse	1.0	t		24.0	female	black	3.0955033824114606	neutral	099	sub-08	2.0	6.0	099_neutral	0.0		60.52754862805341	
6.0	36.021070672963106	face	0.0		145	36.0	female	white	2.7548746518105847	neutral	011	sub-08	2.0	6.0	011_neutral	0.0		60.844083238273015	1.2333219936554087
6.0	36.4046375765156	pulse	0.0	t		36.0	female	white	2.7548746518105847	neutral	011	sub-08	2.0	6.0	011_neutral	0.0		61.22765014182551	
6.0	37.10451601958448	pulse	0.0	t		36.0	female	white	2.7548746518105847	neutral	011	sub-08	2.0	6.0	011_neutral	0.0		61.92752858489439	
6.0	37.254392666618514	fix	1.0		445	36.0	female	white	2.7548746518105847	neutral	011	sub-08	2.0	6.0	011_neutral	0.0		62.077405231928424	3.7665859406279196
6.0	37.804497696997714	pulse	1.0	t		36.0	female	white	2.7548746518105847	neutral	011	sub-08	2.0	6.0	011_neutral	0.0		62.627510262307624	
6.0	38.5044748465898	pulse	1.0	t		36.0	female	white	2.7548746518105847	neutral	011	sub-08	2.0	6.0	011_neutral	0.0		63.32748741189971	
6.0	39.20447342787156	pulse	1.0	t		36.0	female	white	2.7548746518105847	neutral	011	sub-08	2.0	6.0	011_neutral	0.0		64.02748599318147	
6.0	39.904462047945344	pulse	1.0	t		36.0	female	white	2.7548746518105847	neutral	011	sub-08	2.0	6.0	011_neutral	0.0		64.72747461325525	
6.0	40.60444251793888	pulse	1.0	t		36.0	female	white	2.7548746518105847	neutral	011	sub-08	2.0	6.0	011_neutral	0.0		65.42745508324879	
7.0	41.020978607246434	face	0.0		145	31.0	male	west_asian	1.9538400318344609	smiling	070	sub-08	2.0	6.0	070_smiling	1.0	attractiveness	65.84399117255634	1.233310221317879
7.0	41.30442359164226	pulse	0.0	t		31.0	male	west_asian	1.9538400318344609	smiling	070	sub-08	2.0	6.0	070_smiling	1.0	attractiveness	66.12743615695217	
7.0	42.004402250508065	pulse	0.0	t		31.0	male	west_asian	1.9538400318344609	smiling	070	sub-08	2.0	6.0	070_smiling	1.0	attractiveness	66.82741481581797	
7.0	42.25428882856431	fix	1.0		177	31.0	male	west_asian	1.9538400318344609	smiling	070	sub-08	2.0	6.0	070_smiling	1.0	attractiveness	67.07730139387422	1.5083234953817737
7.0	42.70440324662923	pulse	1.0	t		31.0	male	west_asian	1.9538400318344609	smiling	070	sub-08	2.0	6.0	070_smiling	1.0	attractiveness	67.52741581193914	
7.0	43.40438371662276	pulse	1.0	t		31.0	male	west_asian	1.9538400318344609	smiling	070	sub-08	2.0	6.0	070_smiling	1.0	attractiveness	68.22739628193267	
7.0	43.76261232394609	rating	2.0		293	31.0	male	west_asian	1.9538400318344609	smiling	070	sub-08	2.0	6.0	070_smiling	1.0	attractiveness	68.585624889256	2.491593192691653
7.0	44.09910829071305	pulse	2.0	t		31.0	male	west_asian	1.9538400318344609	smiling	070	sub-08	2.0	6.0	070_smiling	1.0	attractiveness	68.92212085602296	
7.0	44.79909872191638	pulse	2.0	t		31.0	male	west_asian	1.9538400318344609	smiling	070	sub-08	2.0	6.0	070_smiling	1.0	attractiveness	69.62211128722629	
7.0	45.23261474783976	response	2.0	d		31.0	male	west_asian	1.9538400318344609	smiling	070	sub-08	2.0	6.0	070_smiling	1.0	attractiveness	70.05562731314967	
7.0	45.499230119314234	pulse	2.0	t		31.0	male	west_asian	1.9538400318344609	smiling	070	sub-08	2.0	6.0	070_smiling	1.0	attractiveness	70.32224268462414	
7.0	46.20431767079026	pulse	2.0	t		31.0	male	west_asian	1.9538400318344609	smiling	070	sub-08	2.0	6.0	070_smiling	1.0	attractiveness	71.02733023610017	
7.0	46.25420551663774	fix	3.0		444	31.0	male	west_asian	1.9538400318344609	smiling	070	sub-08	2.0	6.0	070_smiling	1.0	attractiveness	71.07721808194765	3.766585035064054
7.0	46.90431745949354	pulse	3.0	t		31.0	male	west_asian	1.9538400318344609	smiling	070	sub-08	2.0	6.0	070_smiling	1.0	attractiveness	71.72733002480345	
7.0	47.60428072376271	pulse	3.0	t		31.0	male	west_asian	1.9538400318344609	smiling	070	sub-08	2.0	6.0	070_smiling	1.0	attractiveness	72.42729328907262	
7.0	48.304266928997095	pulse	3.0	t		31.0	male	west_asian	1.9538400318344609	smiling	070	sub-08	2.0	6.0	070_smiling	1.0	attractiveness	73.127279494307	
7.0	49.00428181043935	pulse	3.0	t		31.0	male	west_asian	1.9538400318344609	smiling	070	sub-08	2.0	6.0	070_smiling	1.0	attractiveness	73.82729437574926	
7.0	49.70424084874321	pulse	3.0	t		31.0	male	west_asian	1.9538400318344609	smiling	070	sub-08	2.0	6.0	070_smiling	1.0	attractiveness	74.52725341405312	
8.0	50.02079055170179	face	0.0		145	23.0	male	white	2.6275368085953046	smiling	141	sub-08	2.0	6.0	141_smiling	0.0		74.8438031170117	1.2333084101883287
8.0	50.404231279944725	pulse	0.0	t		23.0	male	white	2.6275368085953046	smiling	141	sub-08	2.0	6.0	141_smiling	0.0		75.22724384525463	
8.0	51.10422110743821	pulse	0.0	t		23.0	male	white	2.6275368085953046	smiling	141	sub-08	2.0	6.0	141_smiling	0.0		75.92723367274812	
8.0	51.25409896189012	fix	1.0		444	23.0	male	white	2.6275368085953046	smiling	141	sub-08	2.0	6.0	141_smiling	0.0		76.07711152720003	3.7583769991470035
8.0	51.80420369041531	pulse	1.0	t		23.0	male	white	2.6275368085953046	smiling	141	sub-08	2.0	6.0	141_smiling	0.0		76.62721625572522	
8.0	52.504185065974525	pulse	1.0	t		23.0	male	white	2.6275368085953046	smiling	141	sub-08	2.0	6.0	141_smiling	0.0		77.32719763128443	
8.0	53.20417127120891	pulse	1.0	t		23.0	male	white	2.6275368085953046	smiling	141	sub-08	2.0	6.0	141_smiling	0.0		78.02718383651882	
8.0	53.90416592837937	pulse	1.0	t		23.0	male	white	2.6275368085953046	smiling	141	sub-08	2.0	6.0	141_smiling	0.0		78.72717849368928	
8.0	54.60414126684191	pulse	1.0	t		23.0	male	white	2.6275368085953046	smiling	141	sub-08	2.0	6.0	141_smiling	0.0		79.42715383215182	
9.0	55.012475961037126	face	0.0		146	31.0	female	east_asian	3.395941106247513	smiling	087	sub-08	2.0	6.0	087_smiling	1.0	dominance	79.83548852634704	1.2415270110250276
9.0	55.30413169804342	pulse	0.0	t		31.0	female	east_asian	3.395941106247513	smiling	087	sub-08	2.0	6.0	087_smiling	1.0	dominance	80.12714426335333	
9.0	56.004125147794184	pulse	0.0	t		31.0	female	east_asian	3.395941106247513	smiling	087	sub-08	2.0	6.0	087_smiling	1.0	dominance	80.8271377131041	
9.0	56.25400297206215	fix	1.0		177	31.0	female	east_asian	3.395941106247513	smiling	087	sub-08	2.0	6.0	087_smiling	1.0	dominance	81.07701553737206	1.4999696635914006
9.0	56.70410229738627	pulse	1.0	t		31.0	female	east_asian	3.395941106247513	smiling	087	sub-08	2.0	6.0	087_smiling	1.0	dominance	81.52711486269618	
9.0	57.40408820076664	pulse	1.0	t		31.0	female	east_asian	3.395941106247513	smiling	087	sub-08	2.0	6.0	087_smiling	1.0	dominance	82.22710076607655	
9.0	57.753972635653554	rating	2.0		294	31.0	female	east_asian	3.395941106247513	smiling	087	sub-08	2.0	6.0	087_smiling	1.0	dominance	82.57698520096346	2.4999409873853438
9.0	58.09885805307749	pulse	2.0	t		31.0	female	east_asian	3.395941106247513	smiling	087	sub-08	2.0	6.0	087_smiling	1.0	dominance	82.9218706183874	
9.0	58.798847276861125	pulse	2.0	t		31.0	female	east_asian	3.395941106247513	smiling	087	sub-08	2.0	6.0	087_smiling	1.0	dominance	83.62185984217103	
9.0	58.91238090695879	response	2.0	b		31.0	female	east_asian	3.395941106247513	smiling	087	sub-08	2.0	6.0	087_smiling	1.0	dominance	83.7353934722687	
9.0	59.50401602728198	pulse	2.0	t		31.0	female	east_asian	3.395941106247513	smiling	087	sub-08	2.0	6.0	087_smiling	1.0	dominance	84.32702859259189	
9.0	60.204018532676855	pulse	2.0	t		31.0	female	east_asian	3.395941106247513	smiling	087	sub-08	2.0	6.0	087_smiling	1.0	dominance	85.02703109798676	
9.0	60.2539136230389	fix	3.0		444	31.0	female	east_asian	3.395941106247513	smiling	087	sub-08	2.0	6.0	087_smiling	1.0	dominance	85.0769261883488	3.7665865443395887
9.0	60.904012887991485	pulse	3.0	t		31.0	female	east_asian	3.395941106247513	smiling	087	sub-08	2.0	6.0	087_smiling	1.0	dominance	85.7270254533014	
9.0	61.603997885807985	pulse	3.0	t		31.0	female	east_asian	3.395941106247513	smiling	087	sub-08	2.0	6.0	087_smiling	1.0	dominance	86.4270104511179	
9.0	62.303980468785085	pulse	3.0	t		31.0	female	east_asian	3.395941106247513	smiling	087	sub-08	2.0	6.0	087_smiling	1.0	dominance	87.126993034095	
9.0	63.00398055934238	pulse	3.0	t		31.0	female	east_asian	3.395941106247513	smiling	087	sub-08	2.0	6.0	087_smiling	1.0	dominance	87.82699312465229	
9.0	63.703973405383294	pulse	3.0	t		31.0	female	east_asian	3.395941106247513	smiling	087	sub-08	2.0	6.0	087_smiling	1.0	dominance	88.5269859706932	
10.0	64.02050016737849	face	0.0		145	21.0	male	east_asian/white	3.501790688420215	smiling	036	sub-08	2.0	6.0	036_smiling	0.0		88.8435127326884	1.2333065990587784
10.0	64.4039508568294	pulse	0.0	t		21.0	male	east_asian/white	3.501790688420215	smiling	036	sub-08	2.0	6.0	036_smiling	0.0		89.2269634221393	
10.0	65.10392861012951	pulse	0.0	t		21.0	male	east_asian/white	3.501790688420215	smiling	036	sub-08	2.0	6.0	036_smiling	0.0		89.92694117543942	
10.0	65.25380676643726	fix	1.0		444	21.0	male	east_asian/white	3.501790688420215	smiling	036	sub-08	2.0	6.0	036_smiling	0.0		90.07681933174717	3.758239353353929
10.0	65.80390545786577	pulse	1.0	t		21.0	male	east_asian/white	3.501790688420215	smiling	036	sub-08	2.0	6.0	036_smiling	0.0		90.62691802317568	
10.0	66.50389317237568	pulse	1.0	t		21.0	male	east_asian/white	3.501790688420215	smiling	036	sub-08	2.0	6.0	036_smiling	0.0		91.32690573768559	
10.0	67.20390020559171	pulse	1.0	t		21.0	male	east_asian/white	3.501790688420215	smiling	036	sub-08	2.0	6.0	036_smiling	0.0		92.02691277090162	
10.0	67.9038761477641	pulse	1.0	t		21.0	male	east_asian/white	3.501790688420215	smiling	036	sub-08	2.0	6.0	036_smiling	0.0		92.726888713074	
10.0	68.60384907138905	pulse	1.0	t		21.0	male	east_asian/white	3.501790688420215	smiling	036	sub-08	2.0	6.0	036_smiling	0.0		93.42686163669896	
11.0	69.0120461197912	face	0.0		146	30.0	female	black	2.7345801830481498	neutral	062	sub-08	2.0	6.0	062_neutral	0.0		93.8350586851011	1.2416347731905262
11.0	69.30384825638066	pulse	0.0	t		30.0	female	black	2.7345801830481498	neutral	062	sub-08	2.0	6.0	062_neutral	0.0		94.12686082169057	
11.0	70.00382902822821	pulse	0.0	t		30.0	female	black	2.7345801830481498	neutral	062	sub-08	2.0	6.0	062_neutral	0.0		94.82684159353812	
11.0	70.25368089298172	fix	1.0		444	30.0	female	black	2.7345801830481498	neutral	062	sub-08	2.0	6.0	062_neutral	0.0		95.07669345829163	3.7583721694700216
11.0	70.70380678153015	pulse	1.0	t		30.0	female	black	2.7345801830481498	neutral	062	sub-08	2.0	6.0	062_neutral	0.0		95.52681934684006	
11.0	71.40380898506919	pulse	1.0	t		30.0	female	black	2.7345801830481498	neutral	062	sub-08	2.0	6.0	062_neutral	0.0		96.2268215503791	
11.0	72.10377919200073	pulse	1.0	t		30.0	female	black	2.7345801830481498	neutral	062	sub-08	2.0	6.0	062_neutral	0.0		96.92679175731064	
11.0	72.80377445287922	pulse	1.0	t		30.0	female	black	2.7345801830481498	neutral	062	sub-08	2.0	6.0	062_neutral	0.0		97.62678701818913	
11.0	73.50374405610091	pulse	1.0	t		30.0	female	black	2.7345801830481498	neutral	062	sub-08	2.0	6.0	062_neutral	0.0		98.32675662141082	
12.0	74.01205306245174	face	0.0		146	24.0	female	black	3.0955033824114606	smiling	099	sub-08	2.0	6.0	099_smiling	0.0		98.83506562776165	1.2415578002146503
12.0	74.20374112810896	pulse	0.0	t		24.0	female	black	3.0955033824114606	smiling	099	sub-08	2.0	6.0	099_smiling	0.0		99.02675369341887	
12.0	74.90371465544195	pulse	0.0	t		24.0	female	black	3.0955033824114606	smiling	099	sub-08	2.0	6.0	099_smiling	0.0		99.72672722075185	
12.0	75.25361086266639	fix	1.0		444	24.0	female	black	3.0955033824114606	smiling	099	sub-08	2.0	6.0	099_smiling	0.0		100.0766234279763	3.766576281275775
12.0	75.60374945930198	pulse	1.0	t		24.0	female	black	3.0955033824114606	smiling	099	sub-08	2.0	6.0	099_smiling	0.0		100.42676202461189	
12.0	76.30369672526649	pulse	1.0	t		24.0	female	black	3.0955033824114606	smiling	099	sub-08	2.0	6.0	099_smiling	0.0		101.1267092905764	
12.0	77.003676591552	pulse	1.0	t		24.0	female	black	3.0955033824114606	smiling	099	sub-08	2.0	6.0	099_smiling	0.0		101.8266891568619	
12.0	77.70367094686662	pulse	1.0	t		24.0	female	black	3.0955033824114606	smiling	099	sub-08	2.0	6.0	099_smiling	0.0		102.52668351217653	
12.0	78.40365352984372	pulse	1.0	t		24.0	female	black	3.0955033824114606	smiling	099	sub-08	2.0	6.0	099_smiling	0.0		103.22666609515363	
13.0	79.02018714394217	face	0.0		145	24.0	female	east_asian	4.409868682849185	neutral	030	sub-08	2.0	6.0	030_neutral	0.0		103.84319970925208	1.2333247103488247
13.0	79.1037155006361	pulse	0.0	t		24.0	female	east_asian	4.409868682849185	neutral	030	sub-08	2.0	6.0	030_neutral	0.0		103.92672806594601	
13.0	79.80362744958802	pulse	0.0	t		24.0	female	east_asian	4.409868682849185	neutral	030	sub-08	2.0	6.0	030_neutral	0.0		104.62664001489793	
13.0	80.25351185429099	fix	1.0		444	24.0	female	east_asian	4.409868682849185	neutral	030	sub-08	2.0	6.0	030_neutral	0.0		105.0765244196009	3.766572055306824
13.0	80.50361576780779	pulse	1.0	t		24.0	female	east_asian	4.409868682849185	neutral	030	sub-08	2.0	6.0	030_neutral	0.0		105.3266283331177	
13.0	81.20359050256047	pulse	1.0	t		24.0	female	east_asian	4.409868682849185	neutral	030	sub-08	2.0	6.0	030_neutral	0.0		106.02660306787038	
13.0	81.90358244303752	pulse	1.0	t		24.0	female	east_asian	4.409868682849185	neutral	030	sub-08	2.0	6.0	030_neutral	0.0		106.72659500834743	
13.0	82.60355778150006	pulse	1.0	t		24.0	female	east_asian	4.409868682849185	neutral	030	sub-08	2.0	6.0	030_neutral	0.0		107.42657034680997	
13.0	83.30357658705361	pulse	1.0	t		24.0	female	east_asian	4.409868682849185	neutral	030	sub-08	2.0	6.0	030_neutral	0.0		108.12658915236352	
14.0	84.02008390959782	face	0.0		146	27.0	male	black	3.5523278949462798	neutral	042	sub-08	2.0	6.0	042_neutral	0.0		108.84309647490772	1.2333108250277292
14.0	84.00626318539435	pulse	0.0	t		27.0	male	black	3.5523278949462798	neutral	042	sub-08	2.0	6.0	042_neutral	0.0		108.82927575070426	
14.0	84.70351700091487	pulse	0.0	t		27.0	male	black	3.5523278949462798	neutral	042	sub-08	2.0	6.0	042_neutral	0.0		109.52652956622478	
14.0	85.25339473462554	fix	1.0		443	27.0	male	black	3.5523278949462798	neutral	042	sub-08	2.0	6.0	042_neutral	0.0		110.07640729993545	3.7665841295001883
14.0	85.40351920445573	pulse	1.0	t		27.0	male	black	3.5523278949462798	neutral	042	sub-08	2.0	6.0	042_neutral	0.0		110.22653176976564	
14.0	86.10359113645609	pulse	1.0	t		27.0	male	black	3.5523278949462798	neutral	042	sub-08	2.0	6.0	042_neutral	0.0		110.926603701766	
14.0	86.80347712589537	pulse	1.0	t		27.0	male	black	3.5523278949462798	neutral	042	sub-08	2.0	6.0	042_neutral	0.0		111.62648969120528	
14.0	87.50349049806209	pulse	1.0	t		27.0	male	black	3.5523278949462798	neutral	042	sub-08	2.0	6.0	042_neutral	0.0		112.326503063372	
14.0	88.2034413862857	pulse	1.0	t		27.0	male	black	3.5523278949462798	neutral	042	sub-08	2.0	6.0	042_neutral	0.0		113.02645395159561	
14.0	88.90342487482849	pulse	1.0	t		27.0	male	black	3.5523278949462798	neutral	042	sub-08	2.0	6.0	042_neutral	0.0		113.7264374401384	
15.0	89.01997886412573	face	0.0		146	21.0	male	east_asian/white	3.501790688420215	neutral	036	sub-08	2.0	6.0	036_neutral	0.0		113.84299142943564	1.2333111268817447
15.0	89.60342587094783	pulse	0.0	t		21.0	male	east_asian/white	3.501790688420215	neutral	036	sub-08	2.0	6.0	036_neutral	0.0		114.42643843625774	
15.0	90.25328999100748	fix	1.0		442	21.0	male	east_asian/white	3.501790688420215	neutral	036	sub-08	2.0	6.0	036_neutral	0.0		115.07630255631739	3.7665675274856767
15.0	90.30340754836106	pulse	1.0	t		21.0	male	east_asian/white	3.501790688420215	neutral	036	sub-08	2.0	6.0	036_neutral	0.0		115.12642011367097	
15.0	91.00336205884196	pulse	1.0	t		21.0	male	east_asian/white	3.501790688420215	neutral	036	sub-08	2.0	6.0	036_neutral	0.0		115.82637462415187	
15.0	91.70338388294476	pulse	1.0	t		21.0	male	east_asian/white	3.501790688420215	neutral	036	sub-08	2.0	6.0	036_neutral	0.0		116.52639644825467	
15.0	92.40336616406785	pulse	1.0	t		21.0	male	east_asian/white	3.501790688420215	neutral	036	sub-08	2.0	6.0	036_neutral	0.0		117.22637872937776	
15.0	93.0200102570252	response	1.0	g		21.0	male	east_asian/white	3.501790688420215	neutral	036	sub-08	2.0	6.0	036_neutral	0.0		117.84302282233512	
15.0	93.10334904890078	pulse	1.0	t		21.0	male	east_asian/white	3.501790688420215	neutral	036	sub-08	2.0	6.0	036_neutral	0.0		117.92636161421069	
15.0	93.80333163187788	pulse	1.0	t		21.0	male	east_asian/white	3.501790688420215	neutral	036	sub-08	2.0	6.0	036_neutral	0.0		118.62634419718779	
16.0	94.01985751849315	face	0.0		145	31.0	female	west_asian	2.364902506963788	smiling	006	sub-08	2.0	6.0	006_smiling	0.0		118.84287008380306	1.2333376901042357
16.0	94.50332477977281	pulse	0.0	t		31.0	female	west_asian	2.364902506963788	smiling	006	sub-08	2.0	6.0	006_smiling	0.0		119.32633734508272	
16.0	95.20329196815692	pulse	0.0	t		31.0	female	west_asian	2.364902506963788	smiling	006	sub-08	2.0	6.0	006_smiling	0.0		120.02630453346683	
16.0	95.25319520859739	fix	1.0		444	31.0	female	west_asian	2.364902506963788	smiling	006	sub-08	2.0	6.0	006_smiling	0.0		120.0762077739073	3.7665759794217593
16.0	95.90328481419783	pulse	1.0	t		31.0	female	west_asian	2.364902506963788	smiling	006	sub-08	2.0	6.0	006_smiling	0.0		120.72629737950774	
16.0	96.60327856580261	pulse	1.0	t		31.0	female	west_asian	2.364902506963788	smiling	006	sub-08	2.0	6.0	006_smiling	0.0		121.42629113111252	
16.0	97.30325873394213	pulse	1.0	t		31.0	female	west_asian	2.364902506963788	smiling	006	sub-08	2.0	6.0	006_smiling	0.0		122.12627129925204	
16.0	98.00325248554691	pulse	1.0	t		31.0	female	west_asian	2.364902506963788	smiling	006	sub-08	2.0	6.0	006_smiling	0.0		122.82626505085682	
16.0	98.70323838892728	pulse	1.0	t		31.0	female	west_asian	2.364902506963788	smiling	006	sub-08	2.0	6.0	006_smiling	0.0		123.52625095423718	
17.0	99.01977118801915	face	0.0		145	54.0	female	white	2.286908077994429	smiling	136	sub-08	2.0	6.0	136_smiling	0.0		123.84278375332906	1.2333153528470575
17.0	99.40320376618183	pulse	0.0	t		54.0	female	white	2.286908077994429	smiling	136	sub-08	2.0	6.0	136_smiling	0.0		124.22621633149174	
17.0	100.10321321423726	pulse	0.0	t		54.0	female	white	2.286908077994429	smiling	136	sub-08	2.0	6.0	136_smiling	0.0		124.92622577954717	
17.0	100.2530865408662	fix	1.0		443	54.0	female	white	2.286908077994429	smiling	136	sub-08	2.0	6.0	136_smiling	0.0		125.07609910617612	3.7665799035348755
17.0	100.80321421035842	pulse	1.0	t		54.0	female	white	2.286908077994429	smiling	136	sub-08	2.0	6.0	136_smiling	0.0		125.62622677566833	
17.0	101.50317807833744	pulse	1.0	t		54.0	female	white	2.286908077994429	smiling	136	sub-08	2.0	6.0	136_smiling	0.0		126.32619064364735	
17.0	101.76149334817637	response	1.0	b		54.0	female	white	2.286908077994429	smiling	136	sub-08	2.0	6.0	136_smiling	0.0		126.58450591348628	
17.0	102.20315673720324	pulse	1.0	t		54.0	female	white	2.286908077994429	smiling	136	sub-08	2.0	6.0	136_smiling	0.0		127.02616930251315	
17.0	102.9033213386283	pulse	1.0	t		54.0	female	white	2.286908077994429	smiling	136	sub-08	2.0	6.0	136_smiling	0.0		127.72633390393821	
17.0	103.60312763839829	pulse	1.0	t		54.0	female	white	2.286908077994429	smiling	136	sub-08	2.0	6.0	136_smiling	0.0		128.4261402037082	
18.0	104.01966644440108	face	0.0		144	34.0	male	white	2.651014723438122	smiling	121	sub-08	2.0	6.0	121_smiling	0.0		128.842679009711	1.23330961760621
18.0	104.30311263621479	pulse	0.0	t		34.0	male	white	2.651014723438122	smiling	121	sub-08	2.0	6.0	121_smiling	0.0		129.1261252015247	
18.0	104.66143089441539	response	0.0	b		34.0	male	white	2.651014723438122	smiling	121	sub-08	2.0	6.0	121_smiling	0.0		129.4844434597253	
18.0	105.00308586169376	pulse	0.0	t		34.0	male	white	2.651014723438122	smiling	121	sub-08	2.0	6.0	121_smiling	0.0		129.82609842700367	
18.0	105.25297606200729	fix	1.0		443	34.0	male	white	2.651014723438122	smiling	121	sub-08	2.0	6.0	121_smiling	0.0		130.0759886273172	3.766550925471165
18.0	105.70308474483136	pulse	1.0	t		34.0	male	white	2.651014723438122	smiling	121	sub-08	2.0	6.0	121_smiling	0.0		130.52609731014127	
18.0	105.9114016899639	response	1.0	e		34.0	male	white	2.651014723438122	smiling	121	sub-08	2.0	6.0	121_smiling	0.0		130.7344142552738	
18.0	106.40306461111504	pulse	1.0	t		34.0	male	white	2.651014723438122	smiling	121	sub-08	2.0	6.0	121_smiling	0.0		131.22607717642495	
18.0	107.1030592682855	pulse	1.0	t		34.0	male	white	2.651014723438122	smiling	121	sub-08	2.0	6.0	121_smiling	0.0		131.92607183359542	
18.0	107.80303611602176	pulse	1.0	t		34.0	male	white	2.651014723438122	smiling	121	sub-08	2.0	6.0	121_smiling	0.0		132.62604868133167	
18.0	108.50301628416128	pulse	1.0	t		34.0	male	white	2.651014723438122	smiling	121	sub-08	2.0	6.0	121_smiling	0.0		133.3260288494712	
19.0	109.01952698747846	face	0.0		145	20.0	male	black	2.609629924393156	smiling	043	sub-08	2.0	6.0	043_smiling	1.0	attractiveness	133.84253955278837	1.2333482550238841
19.0	109.20302422294117	pulse	0.0	t		20.0	male	black	2.609629924393156	smiling	043	sub-08	2.0	6.0	043_smiling	1.0	attractiveness	134.02603678825108	
19.0	109.90299171317929	pulse	0.0	t		20.0	male	black	2.609629924393156	smiling	043	sub-08	2.0	6.0	043_smiling	1.0	attractiveness	134.7260042784892	
19.0	110.25287524250234	fix	1.0		177	20.0	male	black	2.609629924393156	smiling	043	sub-08	2.0	6.0	043_smiling	1.0	attractiveness	135.07588780781225	1.4999826433486305
19.0	110.60299180373659	pulse	1.0	t		20.0	male	black	2.609629924393156	smiling	043	sub-08	2.0	6.0	043_smiling	1.0	attractiveness	135.4260043690465	
19.0	111.30295929397289	pulse	1.0	t		20.0	male	black	2.609629924393156	smiling	043	sub-08	2.0	6.0	043_smiling	1.0	attractiveness	136.1259718592828	
19.0	111.75285788585097	rating	2.0		293	20.0	male	black	2.609629924393156	smiling	043	sub-08	2.0	6.0	043_smiling	1.0	attractiveness	136.57587045116088	2.4999424966590595
19.0	111.99768115136976	pulse	2.0	t		20.0	male	black	2.609629924393156	smiling	043	sub-08	2.0	6.0	043_smiling	1.0	attractiveness	136.82069371667967	
19.0	112.62793799056999	response	2.0	b		20.0	male	black	2.609629924393156	smiling	043	sub-08	2.0	6.0	043_smiling	1.0	attractiveness	137.4509505558799	
19.0	112.69768667531389	pulse	2.0	t		20.0	male	black	2.609629924393156	smiling	043	sub-08	2.0	6.0	043_smiling	1.0	attractiveness	137.5206992406238	
19.0	113.16125717697469	response	2.0	b		20.0	male	black	2.609629924393156	smiling	043	sub-08	2.0	6.0	043_smiling	1.0	attractiveness	137.9842697422846	
19.0	113.39763967651925	pulse	2.0	t		20.0	male	black	2.609629924393156	smiling	043	sub-08	2.0	6.0	043_smiling	1.0	attractiveness	138.22065224182916	
19.0	114.1029122649943	pulse	2.0	t		20.0	male	black	2.609629924393156	smiling	043	sub-08	2.0	6.0	043_smiling	1.0	attractiveness	138.9259248303042	
19.0	114.25280038251003	fix	3.0		444	20.0	male	black	2.609629924393156	smiling	043	sub-08	2.0	6.0	043_smiling	1.0	attractiveness	139.07581294781994	3.766557264421863
19.0	114.80289454611739	pulse	3.0	t		20.0	male	black	2.609629924393156	smiling	043	sub-08	2.0	6.0	043_smiling	1.0	attractiveness	139.6259071114273	
19.0	115.50290731457426	pulse	3.0	t		20.0	male	black	2.609629924393156	smiling	043	sub-08	2.0	6.0	043_smiling	1.0	attractiveness	140.32591987988417	
19.0	116.20286816400585	pulse	3.0	t		20.0	male	black	2.609629924393156	smiling	043	sub-08	2.0	6.0	043_smiling	1.0	attractiveness	141.02588072931576	
19.0	116.90285919891903	pulse	3.0	t		20.0	male	black	2.609629924393156	smiling	043	sub-08	2.0	6.0	043_smiling	1.0	attractiveness	141.72587176422894	
19.0	117.60283785778483	pulse	3.0	t		20.0	male	black	2.609629924393156	smiling	043	sub-08	2.0	6.0	043_smiling	1.0	attractiveness	142.42585042309474	
20.0	118.0193576469319	face	0.0		145	23.0	male	white	2.6275368085953046	neutral	141	sub-08	2.0	6.0	141_neutral	0.0		142.8423702122418	1.233331954863388
20.0	118.3028137999554	pulse	0.0	t		23.0	male	white	2.6275368085953046	neutral	141	sub-08	2.0	6.0	141_neutral	0.0		143.1258263652653	
20.0	119.00281177752913	pulse	0.0	t		23.0	male	white	2.6275368085953046	neutral	141	sub-08	2.0	6.0	141_neutral	0.0		143.82582434283904	
20.0	119.25268960179528	fix	1.0		1185	23.0	male	white	2.6275368085953046	neutral	141	sub-08	2.0	6.0	141_neutral	0.0		144.0757021671052	10.016455312961625
20.0	119.7027988883292	pulse	1.0	t		23.0	male	white	2.6275368085953046	neutral	141	sub-08	2.0	6.0	141_neutral	0.0		144.5258114536391	
20.0	120.40279686590111	pulse	1.0	t		23.0	male	white	2.6275368085953046	neutral	141	sub-08	2.0	6.0	141_neutral	0.0		145.22580943121102	
20.0	121.10277099694395	pulse	1.0	t		23.0	male	white	2.6275368085953046	neutral	141	sub-08	2.0	6.0	141_neutral	0.0		145.92578356225386	
20.0	121.80275961701773	pulse	1.0	t		23.0	male	white	2.6275368085953046	neutral	141	sub-08	2.0	6.0	141_neutral	0.0		146.62577218232764	
20.0	122.502731635077	pulse	1.0	t		23.0	male	white	2.6275368085953046	neutral	141	sub-08	2.0	6.0	141_neutral	0.0		147.3257442003869	
20.0	123.20272659410148	pulse	1.0	t		23.0	male	white	2.6275368085953046	neutral	141	sub-08	2.0	6.0	141_neutral	0.0		148.0257391594114	
20.0	123.90270827151471	pulse	1.0	t		23.0	male	white	2.6275368085953046	neutral	141	sub-08	2.0	6.0	141_neutral	0.0		148.72572083682462	
20.0	124.60268632667066	pulse	1.0	t		23.0	male	white	2.6275368085953046	neutral	141	sub-08	2.0	6.0	141_neutral	0.0		149.42569889198057	
20.0	125.30267102263133	pulse	1.0	t		23.0	male	white	2.6275368085953046	neutral	141	sub-08	2.0	6.0	141_neutral	0.0		150.12568358794124	
20.0	126.00267624471962	pulse	1.0	t		23.0	male	white	2.6275368085953046	neutral	141	sub-08	2.0	6.0	141_neutral	0.0		150.82568881002953	
20.0	126.70265007390844	pulse	1.0	t		23.0	male	white	2.6275368085953046	neutral	141	sub-08	2.0	6.0	141_neutral	0.0		151.52566263921835	
20.0	127.40263235503153	pulse	1.0	t		23.0	male	white	2.6275368085953046	neutral	141	sub-08	2.0	6.0	141_neutral	0.0		152.22564492034144	
20.0	128.102622182525	pulse	1.0	t		23.0	male	white	2.6275368085953046	neutral	141	sub-08	2.0	6.0	141_neutral	0.0		152.92563474783492	
20.0	128.80259752098573	pulse	1.0	t		23.0	male	white	2.6275368085953046	neutral	141	sub-08	2.0	6.0	141_neutral	0.0		153.62561008629564	
21.0	129.2691449147569	face	0.0		145	22.0	male	black	2.767608436132113	neutral	044	sub-08	2.0	6.0	044_neutral	0.0		154.09215748006682	1.2333093157521944
21.0	129.5025909707365	pulse	0.0	t		22.0	male	black	2.767608436132113	neutral	044	sub-08	2.0	6.0	044_neutral	0.0		154.3256035360464	
21.0	130.2025798926661	pulse	0.0	t		22.0	male	black	2.767608436132113	neutral	044	sub-08	2.0	6.0	044_neutral	0.0		155.02559245797602	
21.0	130.5024542305091	fix	1.0		444	22.0	male	black	2.767608436132113	neutral	044	sub-08	2.0	6.0	044_neutral	0.0		155.325466795819	3.766580809098741
21.0	130.90257334241687	pulse	1.0	t		22.0	male	black	2.767608436132113	neutral	044	sub-08	2.0	6.0	044_neutral	0.0		155.72558590772678	
21.0	131.6025435493466	pulse	1.0	t		22.0	male	black	2.767608436132113	neutral	044	sub-08	2.0	6.0	044_neutral	0.0		156.4255561146565	
21.0	132.30252552861566	pulse	1.0	t		22.0	male	black	2.767608436132113	neutral	044	sub-08	2.0	6.0	044_neutral	0.0		157.12553809392557	
21.0	133.00251686538286	pulse	1.0	t		22.0	male	black	2.767608436132113	neutral	044	sub-08	2.0	6.0	044_neutral	0.0		157.82552943069277	
21.0	133.7025012594877	pulse	1.0	t		22.0	male	black	2.767608436132113	neutral	044	sub-08	2.0	6.0	044_neutral	0.0		158.5255138247976	
22.0	134.26903503960784	face	0.0		145	30.0	female	black	2.7345801830481498	smiling	062	sub-08	2.0	6.0	062_smiling	0.0		159.09204760491775	1.2333241066371556
22.0	134.4024699571455	pulse	0.0	t		30.0	female	black	2.7345801830481498	smiling	062	sub-08	2.0	6.0	062_smiling	0.0		159.22548252245542	
22.0	135.10247487737797	pulse	0.0	t		30.0	female	black	2.7345801830481498	smiling	062	sub-08	2.0	6.0	062_smiling	0.0		159.92548744268788	
22.0	135.502359146245	fix	1.0		444	30.0	female	black	2.7345801830481498	smiling	062	sub-08	2.0	6.0	062_smiling	0.0		160.3253717115549	3.7665723571626586
22.0	135.80246500672547	pulse	1.0	t		30.0	female	black	2.7345801830481498	smiling	062	sub-08	2.0	6.0	062_smiling	0.0		160.62547757203538	
22.0	136.50243098768988	pulse	1.0	t		30.0	female	black	2.7345801830481498	smiling	062	sub-08	2.0	6.0	062_smiling	0.0		161.3254435529998	
22.0	137.20243953017962	pulse	1.0	t		30.0	female	black	2.7345801830481498	smiling	062	sub-08	2.0	6.0	062_smiling	0.0		162.02545209548953	
22.0	137.902420302029	pulse	1.0	t		30.0	female	black	2.7345801830481498	smiling	062	sub-08	2.0	6.0	062_smiling	0.0		162.7254328673389	
22.0	138.60240469613564	pulse	1.0	t		30.0	female	black	2.7345801830481498	smiling	062	sub-08	2.0	6.0	062_smiling	0.0		163.42541726144555	
23.0	139.26893150340766	face	0.0		145	27.0	female	white	4.181058495821727	neutral	039	sub-08	2.0	6.0	039_neutral	1.0	trustworthiness	164.09194406871757	1.2333241066389746
23.0	139.30239603290283	pulse	0.0	t		27.0	female	white	4.181058495821727	neutral	039	sub-08	2.0	6.0	039_neutral	1.0	trustworthiness	164.12540859821274	
23.0	140.00237620104235	pulse	0.0	t		27.0	female	white	4.181058495821727	neutral	039	sub-08	2.0	6.0	039_neutral	1.0	trustworthiness	164.82538876635226	
23.0	140.50225561004663	fix	1.0		177	27.0	female	white	4.181058495821727	neutral	039	sub-08	2.0	6.0	039_neutral	1.0	trustworthiness	165.32526817535654	1.4999678524618503
23.0	140.7023566710359	pulse	1.0	t		27.0	female	white	4.181058495821727	neutral	039	sub-08	2.0	6.0	039_neutral	1.0	trustworthiness	165.5253692363458	
23.0	141.40234378183595	pulse	1.0	t		27.0	female	white	4.181058495821727	neutral	039	sub-08	2.0	6.0	039_neutral	1.0	trustworthiness	166.22535634714586	
23.0	142.00222346250848	rating	2.0		294	27.0	female	white	4.181058495821727	neutral	039	sub-08	2.0	6.0	039_neutral	1.0	trustworthiness	166.8252360278184	2.499949741175442
23.0	142.09707771342437	pulse	2.0	t		27.0	female	white	4.181058495821727	neutral	039	sub-08	2.0	6.0	039_neutral	1.0	trustworthiness	166.92009027873428	
23.0	142.79707297430468	pulse	2.0	t		27.0	female	white	4.181058495821727	neutral	039	sub-08	2.0	6.0	039_neutral	1.0	trustworthiness	167.6200855396146	
23.0	143.49720588097625	pulse	2.0	t		27.0	female	white	4.181058495821727	neutral	039	sub-08	2.0	6.0	039_neutral	1.0	trustworthiness	168.32021844628616	
23.0	144.06061667125869	response	2.0	b		27.0	female	white	4.181058495821727	neutral	039	sub-08	2.0	6.0	039_neutral	1.0	trustworthiness	168.8836292365686	
23.0	144.19700855848896	pulse	2.0	t		27.0	female	white	4.181058495821727	neutral	039	sub-08	2.0	6.0	039_neutral	1.0	trustworthiness	169.02002112379887	
23.0	144.50217320368392	fix	3.0		444	27.0	female	white	4.181058495821727	neutral	039	sub-08	2.0	6.0	039_neutral	1.0	trustworthiness	169.32518576899383	3.766569338615227
23.0	144.90227963768848	pulse	3.0	t		27.0	female	white	4.181058495821727	neutral	039	sub-08	2.0	6.0	039_neutral	1.0	trustworthiness	169.7252922029984	
23.0	145.6022456186529	pulse	3.0	t		27.0	female	white	4.181058495821727	neutral	039	sub-08	2.0	6.0	039_neutral	1.0	trustworthiness	170.4252581839628	
23.0	146.3022448036445	pulse	3.0	t		27.0	female	white	4.181058495821727	neutral	039	sub-08	2.0	6.0	039_neutral	1.0	trustworthiness	171.1252573689544	
23.0	147.00221561428407	pulse	3.0	t		27.0	female	white	4.181058495821727	neutral	039	sub-08	2.0	6.0	039_neutral	1.0	trustworthiness	171.82522817959398	
23.0	147.70221087516438	pulse	3.0	t		27.0	female	white	4.181058495821727	neutral	039	sub-08	2.0	6.0	039_neutral	1.0	trustworthiness	172.5252234404743	
24.0	148.26874254229915	face	0.0		145	24.0	female	east_asian	2.9076800636689217	smiling	034	sub-08	2.0	6.0	034_smiling	0.0		173.09175510760906	1.2333304455896723
24.0	148.4022037212053	pulse	0.0	t		24.0	female	east_asian	2.9076800636689217	smiling	034	sub-08	2.0	6.0	034_smiling	0.0		173.2252162865152	
24.0	149.1022152822443	pulse	0.0	t		24.0	female	east_asian	2.9076800636689217	smiling	034	sub-08	2.0	6.0	034_smiling	0.0		173.9252278475542	
24.0	149.50207298788882	fix	1.0		444	24.0	female	east_asian	2.9076800636689217	smiling	034	sub-08	2.0	6.0	034_smiling	0.0		174.32508555319873	3.7583084781053913
24.0	149.80217673538573	pulse	1.0	t		24.0	female	east_asian	2.9076800636689217	smiling	034	sub-08	2.0	6.0	034_smiling	0.0		174.62518930069564	
24.0	150.50215931836283	pulse	1.0	t		24.0	female	east_asian	2.9076800636689217	smiling	034	sub-08	2.0	6.0	034_smiling	0.0		175.32517188367274	
24.0	151.2021515606939	pulse	1.0	t		24.0	female	east_asian	2.9076800636689217	smiling	034	sub-08	2.0	6.0	034_smiling	0.0		176.0251641260038	
24.0	151.90211723980246	pulse	1.0	t		24.0	female	east_asian	2.9076800636689217	smiling	034	sub-08	2.0	6.0	034_smiling	0.0		176.72512980511237	
24.0	152.6021052561664	pulse	1.0	t		24.0	female	east_asian	2.9076800636689217	smiling	034	sub-08	2.0	6.0	034_smiling	0.0		177.4251178214763	
25.0	153.26038146599421	face	0.0		146	31.0	female	east_asian	3.395941106247513	neutral	087	sub-08	2.0	6.0	087_neutral	0.0		178.08339403130412	1.2415837597272912
25.0	153.30210866712696	pulse	0.0	t		31.0	female	east_asian	3.395941106247513	neutral	087	sub-08	2.0	6.0	087_neutral	0.0		178.12512123243687	
25.0	154.00210241873174	pulse	0.0	t		31.0	female	east_asian	3.395941106247513	neutral	087	sub-08	2.0	6.0	087_neutral	0.0		178.82511498404165	
25.0	154.5019652257215	fix	1.0		443	31.0	female	east_asian	3.395941106247513	neutral	087	sub-08	2.0	6.0	087_neutral	0.0		179.32497779103142	3.766557868131713
25.0	154.7020780590483	pulse	1.0	t		31.0	female	east_asian	3.395941106247513	neutral	087	sub-08	2.0	6.0	087_neutral	0.0		179.5250906243582	
25.0	155.40204886968968	pulse	1.0	t		31.0	female	east_asian	3.395941106247513	neutral	087	sub-08	2.0	6.0	087_neutral	0.0		180.2250614349996	
25.0	156.1020405083109	pulse	1.0	t		31.0	female	east_asian	3.395941106247513	neutral	087	sub-08	2.0	6.0	087_neutral	0.0		180.9250530736208	
25.0	156.80201282822418	pulse	1.0	t		31.0	female	east_asian	3.395941106247513	neutral	087	sub-08	2.0	6.0	087_neutral	0.0		181.6250253935341	
25.0	157.5020159373289	pulse	1.0	t		31.0	female	east_asian	3.395941106247513	neutral	087	sub-08	2.0	6.0	087_neutral	0.0		182.32502850263882	
25.0	158.20198403127688	pulse	1.0	t		31.0	female	east_asian	3.395941106247513	neutral	087	sub-08	2.0	6.0	087_neutral	0.0		183.0249965965868	
26.0	158.26852309385322	face	0.0		146	22.0	male	black	2.767608436132113	smiling	044	sub-08	2.0	6.0	044_smiling	0.0		183.09153565916313	1.2333376901060547
26.0	158.90198563110607	pulse	0.0	t		22.0	male	black	2.767608436132113	smiling	044	sub-08	2.0	6.0	044_smiling	0.0		183.72499819641598	
26.0	159.50186078395927	fix	1.0		442	22.0	male	black	2.767608436132113	smiling	044	sub-08	2.0	6.0	044_smiling	0.0		184.32487334926918	3.76657537571009
26.0	159.60197696787327	pulse	1.0	t		22.0	male	black	2.767608436132113	smiling	044	sub-08	2.0	6.0	044_smiling	0.0		184.42498953318318	
26.0	160.30193902472456	pulse	1.0	t		22.0	male	black	2.767608436132113	smiling	044	sub-08	2.0	6.0	044_smiling	0.0		185.12495159003447	
26.0	161.0019246262509	pulse	1.0	t		22.0	male	black	2.767608436132113	smiling	044	sub-08	2.0	6.0	044_smiling	0.0		185.82493719156082	
26.0	161.51026713848478	response	1.0	b		22.0	male	black	2.767608436132113	smiling	044	sub-08	2.0	6.0	044_smiling	0.0		186.3332797037947	
26.0	161.70191535930826	pulse	1.0	t		22.0	male	black	2.767608436132113	smiling	044	sub-08	2.0	6.0	044_smiling	0.0		186.52492792461817	
26.0	162.40190005526892	pulse	1.0	t		22.0	male	black	2.767608436132113	smiling	044	sub-08	2.0	6.0	044_smiling	0.0		187.22491262057883	
26.0	163.1018835438117	pulse	1.0	t		22.0	male	black	2.767608436132113	smiling	044	sub-08	2.0	6.0	044_smiling	0.0		187.92489610912162	
27.0	163.26843615966936	face	0.0		146	19.0	male	white	3.2522881018702745	neutral	018	sub-08	2.0	6.0	018_neutral	0.0		188.09144872497927	1.2333090138981788
27.0	163.8018836343672	pulse	0.0	t		19.0	male	white	3.2522881018702745	neutral	018	sub-08	2.0	6.0	018_neutral	0.0		188.6248961996771	
27.0	164.50174517356754	fix	1.0		443	19.0	male	white	3.2522881018702745	neutral	018	sub-08	2.0	6.0	018_neutral	0.0		189.32475773887745	3.766567225631661
27.0	164.5092692064918	pulse	1.0	t		19.0	male	white	3.2522881018702745	neutral	018	sub-08	2.0	6.0	018_neutral	0.0		189.33228177180172	
27.0	165.20186510048188	pulse	1.0	t		19.0	male	white	3.2522881018702745	neutral	018	sub-08	2.0	6.0	018_neutral	0.0		190.0248776657918	
27.0	165.8518393975446	response	1.0	b		19.0	male	white	3.2522881018702745	neutral	018	sub-08	2.0	6.0	018_neutral	0.0		190.67485196285452	
27.0	165.9018226295102	pulse	1.0	t		19.0	male	white	3.2522881018702745	neutral	018	sub-08	2.0	6.0	018_neutral	0.0		190.72483519482012	
27.0	166.60180974031027	pulse	1.0	t		19.0	male	white	3.2522881018702745	neutral	018	sub-08	2.0	6.0	018_neutral	0.0		191.42482230562018	
27.0	167.30179443627276	pulse	1.0	t		19.0	male	white	3.2522881018702745	neutral	018	sub-08	2.0	6.0	018_neutral	0.0		192.12480700158267	
27.0	168.00179271569868	pulse	1.0	t		19.0	male	white	3.2522881018702745	neutral	018	sub-08	2.0	6.0	018_neutral	0.0		192.8248052810086	
28.0	168.2683123991992	face	0.0		144	27.0	male	black	3.5523278949462798	smiling	042	sub-08	2.0	6.0	042_smiling	0.0		193.0913249645091	1.2333382938140858
28.0	168.70177560053162	pulse	0.0	t		27.0	male	black	3.5523278949462798	smiling	042	sub-08	2.0	6.0	042_smiling	0.0		193.52478816584153	
28.0	169.12676573742647	response	0.0	b		27.0	male	black	3.5523278949462798	smiling	042	sub-08	2.0	6.0	042_smiling	0.0		193.94977830273638	
28.0	169.40175727794485	pulse	0.0	t		27.0	male	black	3.5523278949462798	smiling	042	sub-08	2.0	6.0	042_smiling	0.0		194.22476984325476	
28.0	169.5016506930133	fix	1.0		442	27.0	male	black	3.5523278949462798	smiling	042	sub-08	2.0	6.0	042_smiling	0.0		194.3246632583232	3.758264407302704
28.0	170.10173744608437	pulse	1.0	t		27.0	male	black	3.5523278949462798	smiling	042	sub-08	2.0	6.0	042_smiling	0.0		194.92475001139428	
28.0	170.63516167796115	response	1.0	b		27.0	male	black	3.5523278949462798	smiling	042	sub-08	2.0	6.0	042_smiling	0.0		195.45817424327106	
28.0	170.80183624316305	pulse	1.0	t		27.0	male	black	3.5523278949462798	smiling	042	sub-08	2.0	6.0	042_smiling	0.0		195.62484880847296	
28.0	171.50173400493986	pulse	1.0	t		27.0	male	black	3.5523278949462798	smiling	042	sub-08	2.0	6.0	042_smiling	0.0		196.32474657024977	
28.0	172.06836588786973	response	1.0	b		27.0	male	black	3.5523278949462798	smiling	042	sub-08	2.0	6.0	042_smiling	0.0		196.89137845317964	
28.0	172.20168096905036	pulse	1.0	t		27.0	male	black	3.5523278949462798	smiling	042	sub-08	2.0	6.0	042_smiling	0.0		197.02469353436027	
28.0	172.90170792468416	pulse	1.0	t		27.0	male	black	3.5523278949462798	smiling	042	sub-08	2.0	6.0	042_smiling	0.0		197.72472048999407	
29.0	173.259915100316	face	0.0		146	28.0	male	white	3.9076800636689217	neutral	033	sub-08	2.0	6.0	033_neutral	0.0		198.0829276656259	1.241633565772645
29.0	173.60167813161388	pulse	0.0	t		28.0	male	white	3.9076800636689217	neutral	033	sub-08	2.0	6.0	033_neutral	0.0		198.4246906969238	
29.0	174.30164260330457	pulse	0.0	t		28.0	male	white	3.9076800636689217	neutral	033	sub-08	2.0	6.0	033_neutral	0.0		199.12465516861448	
29.0	174.50154866608864	fix	1.0		443	28.0	male	white	3.9076800636689217	neutral	033	sub-08	2.0	6.0	033_neutral	0.0		199.32456123139855	3.766571451596974
29.0	175.00164269386005	pulse	1.0	t		28.0	male	white	3.9076800636689217	neutral	033	sub-08	2.0	6.0	033_neutral	0.0		199.82465525916996	
29.0	175.70163403062725	pulse	1.0	t		28.0	male	white	3.9076800636689217	neutral	033	sub-08	2.0	6.0	033_neutral	0.0		200.52464659593716	
29.0	176.40160152086537	pulse	1.0	t		28.0	male	white	3.9076800636689217	neutral	033	sub-08	2.0	6.0	033_neutral	0.0		201.22461408617528	
29.0	177.0266045771441	response	1.0	b		28.0	male	white	3.9076800636689217	neutral	033	sub-08	2.0	6.0	033_neutral	0.0		201.849617142454	
29.0	177.10159315948658	pulse	1.0	t		28.0	male	white	3.9076800636689217	neutral	033	sub-08	2.0	6.0	033_neutral	0.0		201.9246057247965	
29.0	177.80158268512423	pulse	1.0	t		28.0	male	white	3.9076800636689217	neutral	033	sub-08	2.0	6.0	033_neutral	0.0		202.62459525043414	
30.0	178.2681201176856	face	0.0		145	22.0	female	white	4.614007162753682	smiling	009	sub-08	2.0	6.0	009_smiling	0.0		203.09113268299552	1.2333008638179308
30.0	178.50157915342243	pulse	0.0	t		22.0	female	white	4.614007162753682	smiling	009	sub-08	2.0	6.0	009_smiling	0.0		203.32459171873234	
30.0	179.20154694551456	pulse	0.0	t		22.0	female	white	4.614007162753682	smiling	009	sub-08	2.0	6.0	009_smiling	0.0		204.02455951082447	
30.0	179.50142098150354	fix	1.0		444	22.0	female	white	4.614007162753682	smiling	009	sub-08	2.0	6.0	009_smiling	0.0		204.32443354681345	3.758314817057908
30.0	179.90153647115403	pulse	1.0	t		22.0	female	white	4.614007162753682	smiling	009	sub-08	2.0	6.0	009_smiling	0.0		204.72454903646394	
30.0	180.60151452630998	pulse	1.0	t		22.0	female	white	4.614007162753682	smiling	009	sub-08	2.0	6.0	009_smiling	0.0		205.4245270916199	
30.0	181.30151461686546	pulse	1.0	t		22.0	female	white	4.614007162753682	smiling	009	sub-08	2.0	6.0	009_smiling	0.0		206.12452718217537	
30.0	182.0014965961327	pulse	1.0	t		22.0	female	white	4.614007162753682	smiling	009	sub-08	2.0	6.0	009_smiling	0.0		206.82450916144262	
30.0	182.70148431064263	pulse	1.0	t		22.0	female	white	4.614007162753682	smiling	009	sub-08	2.0	6.0	009_smiling	0.0		207.52449687595254	
31.0	183.25973579856145	face	0.0		146	31.0	female	white	2.1822522881018704	smiling	102	sub-08	2.0	6.0	102_smiling	0.0		208.08274836387136	1.2415991543221025
31.0	183.401470214023	pulse	0.0	t		31.0	female	white	2.1822522881018704	smiling	102	sub-08	2.0	6.0	102_smiling	0.0		208.2244827793329	
31.0	184.1014416283724	pulse	0.0	t		31.0	female	white	2.1822522881018704	smiling	102	sub-08	2.0	6.0	102_smiling	0.0		208.92445419368232	
31.0	184.50133495288355	fix	1.0		444	31.0	female	white	2.1822522881018704	smiling	102	sub-08	2.0	6.0	102_smiling	0.0		209.32434751819346	3.7665771868414595
31.0	184.80146133949165	pulse	1.0	t		31.0	female	white	2.1822522881018704	smiling	102	sub-08	2.0	6.0	102_smiling	0.0		209.62447390480156	
31.0	185.50140649247442	pulse	1.0	t		31.0	female	white	2.1822522881018704	smiling	102	sub-08	2.0	6.0	102_smiling	0.0		210.32441905778433	
31.0	186.2013978292398	pulse	1.0	t		31.0	female	white	2.1822522881018704	smiling	102	sub-08	2.0	6.0	102_smiling	0.0		211.0244103945497	
31.0	186.90139580681353	pulse	1.0	t		31.0	female	white	2.1822522881018704	smiling	102	sub-08	2.0	6.0	102_smiling	0.0		211.72440837212343	
31.0	187.6015262986457	pulse	1.0	t		31.0	female	white	2.1822522881018704	smiling	102	sub-08	2.0	6.0	102_smiling	0.0		212.4245388639556	
32.0	188.267912139725	face	0.0		145	47.0	male	east_asian	2.171110226820533	smiling	024	sub-08	2.0	6.0	024_smiling	0.0		213.09092470503492	1.233320484379874
32.0	188.3014125899408	pulse	0.0	t		47.0	male	east_asian	2.171110226820533	smiling	024	sub-08	2.0	6.0	024_smiling	0.0		213.12442515525072	
32.0	189.0013568373579	pulse	0.0	t		47.0	male	east_asian	2.171110226820533	smiling	024	sub-08	2.0	6.0	024_smiling	0.0		213.8243694026678	
32.0	189.5012326241049	fix	1.0		443	47.0	male	east_asian	2.171110226820533	smiling	024	sub-08	2.0	6.0	024_smiling	0.0		214.3242451894148	3.7665738664363744
32.0	189.7013496833988	pulse	1.0	t		47.0	male	east_asian	2.171110226820533	smiling	024	sub-08	2.0	6.0	024_smiling	0.0		214.5243622487087	
32.0	190.4013183810548	pulse	1.0	t		47.0	male	east_asian	2.171110226820533	smiling	024	sub-08	2.0	6.0	024_smiling	0.0		215.22433094636472	
32.0	191.10131032153186	pulse	1.0	t		47.0	male	east_asian	2.171110226820533	smiling	024	sub-08	2.0	6.0	024_smiling	0.0		215.92432288684176	
32.0	191.80130377128262	pulse	1.0	t		47.0	male	east_asian	2.171110226820533	smiling	024	sub-08	2.0	6.0	024_smiling	0.0		216.62431633659253	
32.0	192.50127548748787	pulse	1.0	t		47.0	male	east_asian	2.171110226820533	smiling	024	sub-08	2.0	6.0	024_smiling	0.0		217.32428805279778	
32.0	193.20126410756166	pulse	1.0	t		47.0	male	east_asian	2.171110226820533	smiling	024	sub-08	2.0	6.0	024_smiling	0.0		218.02427667287157	
33.0	193.26780649054126	face	0.0		146	24.0	male	white	3.1153999204138483	smiling	012	sub-08	2.0	6.0	012_smiling	0.0		218.09081905585117	1.2333093157521944
33.0	193.9012521239256	pulse	0.0	t		24.0	male	white	3.1153999204138483	smiling	012	sub-08	2.0	6.0	012_smiling	0.0		218.7242646892355	
33.0	194.50111580629346	fix	1.0		442	24.0	male	white	3.1153999204138483	smiling	012	sub-08	2.0	6.0	012_smiling	0.0		219.32412837160336	3.766585638775723
33.0	194.60124647924022	pulse	1.0	t		24.0	male	white	3.1153999204138483	smiling	012	sub-08	2.0	6.0	012_smiling	0.0		219.42425904455013	
33.0	195.30121185649477	pulse	1.0	t		24.0	male	white	3.1153999204138483	smiling	012	sub-08	2.0	6.0	012_smiling	0.0		220.12422442180468	
33.0	196.00120590995357	pulse	1.0	t		24.0	male	white	3.1153999204138483	smiling	012	sub-08	2.0	6.0	012_smiling	0.0		220.82421847526348	
33.0	196.70120660422072	pulse	1.0	t		24.0	male	white	3.1153999204138483	smiling	012	sub-08	2.0	6.0	012_smiling	0.0		221.52421916953062	
33.0	197.40116715179647	pulse	1.0	t		24.0	male	white	3.1153999204138483	smiling	012	sub-08	2.0	6.0	012_smiling	0.0		222.22417971710638	
33.0	197.9511671367036	response	1.0	b		24.0	male	white	3.1153999204138483	smiling	012	sub-08	2.0	6.0	012_smiling	0.0		222.7741797020135	
33.0	198.1011560737261	pulse	1.0	t		24.0	male	white	3.1153999204138483	smiling	012	sub-08	2.0	6.0	012_smiling	0.0		222.924168639036	
34.0	198.26770144506918	face	0.0		146	20.0	male	black	3.1070433744528456	neutral	082	sub-08	2.0	6.0	082_neutral	1.0	trustworthiness	223.0907140103791	1.2333247103470057
34.0	198.8011465049276	pulse	0.0	t		20.0	male	black	3.1070433744528456	neutral	082	sub-08	2.0	6.0	082_neutral	1.0	trustworthiness	223.6241590702375	
34.0	199.50102615541618	fix	1.0		176	20.0	male	black	3.1070433744528456	neutral	082	sub-08	2.0	6.0	082_neutral	1.0	trustworthiness	224.3240387207261	1.4999820396387804
34.0	199.50897429434553	pulse	1.0	t		20.0	male	black	3.1070433744528456	neutral	082	sub-08	2.0	6.0	082_neutral	1.0	trustworthiness	224.33198685965544	
34.0	200.20108933362826	pulse	1.0	t		20.0	male	black	3.1070433744528456	neutral	082	sub-08	2.0	6.0	082_neutral	1.0	trustworthiness	225.02410189893817	
34.0	200.9011129688588	pulse	1.0	t		20.0	male	black	3.1070433744528456	neutral	082	sub-08	2.0	6.0	082_neutral	1.0	trustworthiness	225.7241255341687	
34.0	201.00100819505496	rating	2.0		295	20.0	male	black	3.1070433744528456	neutral	082	sub-08	2.0	6.0	082_neutral	1.0	trustworthiness	225.82402076036487	2.499936761418212
34.0	201.59583331698195	pulse	2.0	t		20.0	male	black	3.1070433744528456	neutral	082	sub-08	2.0	6.0	082_neutral	1.0	trustworthiness	226.41884588229186	
34.0	202.29579446826756	pulse	2.0	t		20.0	male	black	3.1070433744528456	neutral	082	sub-08	2.0	6.0	082_neutral	1.0	trustworthiness	227.11880703357747	
34.0	202.99594246767992	pulse	2.0	t		20.0	male	black	3.1070433744528456	neutral	082	sub-08	2.0	6.0	082_neutral	1.0	trustworthiness	227.81895503298983	
34.0	203.17604051615854	response	2.0	y		20.0	male	black	3.1070433744528456	neutral	082	sub-08	2.0	6.0	082_neutral	1.0	trustworthiness	227.99905308146845	
34.0	203.50094495647318	fix	3.0		443	20.0	male	black	3.1070433744528456	neutral	082	sub-08	2.0	6.0	082_neutral	1.0	trustworthiness	228.3239575217831	3.7665690367612115
34.0	203.7010571860901	pulse	3.0	t		20.0	male	black	3.1070433744528456	neutral	082	sub-08	2.0	6.0	082_neutral	1.0	trustworthiness	228.52406975140002	
34.0	204.40103282640848	pulse	3.0	t		20.0	male	black	3.1070433744528456	neutral	082	sub-08	2.0	6.0	082_neutral	1.0	trustworthiness	229.2240453917184	
34.0	205.10101390011187	pulse	3.0	t		20.0	male	black	3.1070433744528456	neutral	082	sub-08	2.0	6.0	082_neutral	1.0	trustworthiness	229.92402646542178	
34.0	205.8010022183298	pulse	3.0	t		20.0	male	black	3.1070433744528456	neutral	082	sub-08	2.0	6.0	082_neutral	1.0	trustworthiness	230.62401478363972	
34.0	206.50098057533978	pulse	3.0	t		20.0	male	black	3.1070433744528456	neutral	082	sub-08	2.0	6.0	082_neutral	1.0	trustworthiness	231.3239931406497	
34.0	207.20095349896474	pulse	3.0	t		20.0	male	black	3.1070433744528456	neutral	082	sub-08	2.0	6.0	082_neutral	1.0	trustworthiness	232.02396606427465	
35.0	207.2675139932344	face	0.0		146	24.0	female	east_asian	4.409868682849185	smiling	030	sub-08	2.0	6.0	030_smiling	0.0		232.0905265585443	1.2333235029273055
35.0	207.90096506000373	pulse	0.0	t		24.0	female	east_asian	4.409868682849185	smiling	030	sub-08	2.0	6.0	030_smiling	0.0		232.72397762531364	
35.0	208.5008374961617	fix	1.0		443	24.0	female	east_asian	4.409868682849185	smiling	030	sub-08	2.0	6.0	030_smiling	0.0		233.3238500614716	3.766572659018493
35.0	208.60093526693345	pulse	1.0	t		24.0	female	east_asian	4.409868682849185	smiling	030	sub-08	2.0	6.0	030_smiling	0.0		233.42394783224336	
35.0	209.3009335463612	pulse	1.0	t		24.0	female	east_asian	4.409868682849185	smiling	030	sub-08	2.0	6.0	030_smiling	0.0		234.1239461116711	
35.0	210.0009049607106	pulse	1.0	t		24.0	female	east_asian	4.409868682849185	smiling	030	sub-08	2.0	6.0	030_smiling	0.0		234.82391752602052	
35.0	210.7008935807844	pulse	1.0	t		24.0	female	east_asian	4.409868682849185	smiling	030	sub-08	2.0	6.0	030_smiling	0.0		235.5239061460943	
35.0	211.40088582311728	pulse	1.0	t		24.0	female	east_asian	4.409868682849185	smiling	030	sub-08	2.0	6.0	030_smiling	0.0		236.2238983884272	
35.0	212.10087051907794	pulse	1.0	t		24.0	female	east_asian	4.409868682849185	smiling	030	sub-08	2.0	6.0	030_smiling	0.0		236.92388308438785	
36.0	212.2674101551802	face	0.0		146	40.0	female	west_asian	1.5777954635893354	neutral	038	sub-08	2.0	6.0	038_neutral	0.0		237.0904227204901	1.2333132398653106
36.0	212.8008473668142	pulse	0.0	t		40.0	female	west_asian	1.5777954635893354	neutral	038	sub-08	2.0	6.0	038_neutral	0.0		237.6238599321241	
36.0	213.5007233950455	fix	1.0		444	40.0	female	west_asian	1.5777954635893354	neutral	038	sub-08	2.0	6.0	038_neutral	0.0		238.3237359603554	3.766584431354204
36.0	213.50834100296015	pulse	1.0	t		40.0	female	west_asian	1.5777954635893354	neutral	038	sub-08	2.0	6.0	038_neutral	0.0		238.33135356827006	
36.0	214.2008300403486	pulse	1.0	t		40.0	female	west_asian	1.5777954635893354	neutral	038	sub-08	2.0	6.0	038_neutral	0.0		239.0238426056585	
36.0	214.9008102084881	pulse	1.0	t		40.0	female	west_asian	1.5777954635893354	neutral	038	sub-08	2.0	6.0	038_neutral	0.0		239.72382277379802	
36.0	215.60080245081917	pulse	1.0	t		40.0	female	west_asian	1.5777954635893354	neutral	038	sub-08	2.0	6.0	038_neutral	0.0		240.42381501612908	
36.0	216.30078080782914	pulse	1.0	t		40.0	female	west_asian	1.5777954635893354	neutral	038	sub-08	2.0	6.0	038_neutral	0.0		241.12379337313905	
36.0	217.0007730501602	pulse	1.0	t		40.0	female	west_asian	1.5777954635893354	neutral	038	sub-08	2.0	6.0	038_neutral	0.0		241.82378561547011	
37.0	217.2673078263997	face	0.0		145	20.0	male	black	3.1070433744528456	smiling	082	sub-08	2.0	6.0	082_smiling	0.0		242.0903203917096	1.2333186732521426
37.0	217.70075140717017	pulse	0.0	t		20.0	male	black	3.1070433744528456	smiling	082	sub-08	2.0	6.0	082_smiling	0.0		242.52376397248008	
37.0	218.40072312337543	pulse	0.0	t		20.0	male	black	3.1070433744528456	smiling	082	sub-08	2.0	6.0	082_smiling	0.0		243.22373568868534	
37.0	218.50062649965184	fix	1.0		444	20.0	male	black	3.1070433744528456	smiling	082	sub-08	2.0	6.0	082_smiling	0.0		243.32363906496175	3.766571451598793
37.0	219.1007204972393	pulse	1.0	t		20.0	male	black	3.1070433744528456	smiling	082	sub-08	2.0	6.0	082_smiling	0.0		243.92373306254922	
37.0	219.80071847481122	pulse	1.0	t		20.0	male	black	3.1070433744528456	smiling	082	sub-08	2.0	6.0	082_smiling	0.0		244.62373104012113	
37.0	220.5006853613395	pulse	1.0	t		20.0	male	black	3.1070433744528456	smiling	082	sub-08	2.0	6.0	082_smiling	0.0		245.3236979266494	
37.0	221.20068545189497	pulse	1.0	t		20.0	male	black	3.1070433744528456	smiling	082	sub-08	2.0	6.0	082_smiling	0.0		246.02369801720488	
37.0	221.90082831977634	pulse	1.0	t		20.0	male	black	3.1070433744528456	smiling	082	sub-08	2.0	6.0	082_smiling	0.0		246.72384088508625	
38.0	222.26719795125064	face	0.0		145	20.0	female	white	3.9502586549940313	smiling	091	sub-08	2.0	6.0	091_smiling	0.0		247.09021051656055	1.233328634460122
38.0	222.6006469955937	pulse	0.0	t		20.0	female	white	3.9502586549940313	smiling	091	sub-08	2.0	6.0	091_smiling	0.0		247.42365956090362	
38.0	223.3006422564722	pulse	0.0	t		20.0	female	white	3.9502586549940313	smiling	091	sub-08	2.0	6.0	091_smiling	0.0		248.1236548217821	
38.0	223.50052658571076	fix	1.0		444	20.0	female	white	3.9502586549940313	smiling	091	sub-08	2.0	6.0	091_smiling	0.0		248.32353915102067	3.7665705460331083
38.0	224.0005916354221	pulse	1.0	t		20.0	female	white	3.9502586549940313	smiling	091	sub-08	2.0	6.0	091_smiling	0.0		248.823604200732	
38.0	224.7005959519447	pulse	1.0	t		20.0	female	white	3.9502586549940313	smiling	091	sub-08	2.0	6.0	091_smiling	0.0		249.52360851725462	
38.0	225.40059574064617	pulse	1.0	t		20.0	female	white	3.9502586549940313	smiling	091	sub-08	2.0	6.0	091_smiling	0.0		250.22360830595608	
38.0	226.10057771991524	pulse	1.0	t		20.0	female	white	3.9502586549940313	smiling	091	sub-08	2.0	6.0	091_smiling	0.0		250.92359028522515	
38.0	226.80055909547264	pulse	1.0	t		20.0	female	white	3.9502586549940313	smiling	091	sub-08	2.0	6.0	091_smiling	0.0		251.62357166078255	
39.0	227.26709713174387	face	0.0		145	19.0	male	white	2.243931555909272	neutral	130	sub-08	2.0	6.0	130_neutral	0.0		252.09010969705378	1.2333213899455586
39.0	227.50054892296612	pulse	0.0	t		19.0	male	white	2.243931555909272	neutral	130	sub-08	2.0	6.0	130_neutral	0.0		252.32356148827603	
39.0	228.20052546884835	pulse	0.0	t		19.0	male	white	2.243931555909272	neutral	130	sub-08	2.0	6.0	130_neutral	0.0		253.02353803415826	
39.0	228.50041852168943	fix	1.0		444	19.0	male	white	2.243931555909272	neutral	130	sub-08	2.0	6.0	130_neutral	0.0		253.32343108699934	3.749927479382677
39.0	228.90051318335645	pulse	1.0	t		19.0	male	white	2.243931555909272	neutral	130	sub-08	2.0	6.0	130_neutral	0.0		253.72352574866636	
39.0	229.60050150157622	pulse	1.0	t		19.0	male	white	2.243931555909272	neutral	130	sub-08	2.0	6.0	130_neutral	0.0		254.42351406688613	
39.0	230.30049042350402	pulse	1.0	t		19.0	male	white	2.243931555909272	neutral	130	sub-08	2.0	6.0	130_neutral	0.0		255.12350298881393	
39.0	231.0004802509975	pulse	1.0	t		19.0	male	white	2.243931555909272	neutral	130	sub-08	2.0	6.0	130_neutral	0.0		255.8234928163074	
39.0	231.70046766365158	pulse	1.0	t		19.0	male	white	2.243931555909272	neutral	130	sub-08	2.0	6.0	130_neutral	0.0		256.5234802289615	
40.0	232.2503460010721	fix	0.0		720													257.073358566382	5.999859033805478
40.0	232.4004568874352	pulse	0.0	t														257.2234694527451	
40.0	233.10042558509122	pulse	0.0	t														257.9234381504011	
40.0	233.80041058290772	pulse	0.0	t														258.6234231482176	
40.0	234.5003940714505	pulse	0.0	t														259.3234066367604	
40.0	235.20038057854072	pulse	0.0	t														260.0233931438506	
40.0	235.90036889675866	pulse	0.0	t														260.7233814620686	
40.0	236.60034725376863	pulse	0.0	t														261.42335981907854	
40.0	237.30033527013438	pulse	0.0	t														262.1233478354443	
40.0	238.00033415327016	pulse	0.0	t														262.82334671858007	
