trial_nr	onset	event_type	phase	response	nr_frames	trial_type	stim_name	task_probe	onset_abs	duration
0.0	0.05868130295857554	baseline	0.0		40.0		baseline	0.0	89.67680171308166	0.3413729100011551
0.0	0.40005421295973065	ISI	1.0		11.0		baseline	0.0	90.01817462308281	0.09999604571385134
1.0	0.500050258673582	baseline	0.0		48.0		baseline	0.0	90.11817066879667	0.3999932384731437
1.0	0.7001582619977853	pulse	0.0	t			baseline	0.0	90.31827867212087	
1.0	0.9000434971467257	ISI	1.0		11.0		baseline	0.0	90.51816390726981	0.09999544200582022
2.0	1.000038939152546	baseline	0.0		48.0		baseline	0.0	90.61815934927563	0.3999699957230405
2.0	1.4000089348755864	ISI	1.0		11.0		baseline	0.0	91.01812934499867	0.09999785683703521
2.0	1.4047060833518117	pulse	1.0	t			baseline	0.0	91.0228264934749	
3.0	1.5000067917126216	baseline	0.0		48.0		baseline	0.0	91.1181272018357	0.39998901251783536
3.0	1.899995804230457	ISI	1.0		11.0		baseline	0.0	91.51811621435354	0.0999987623990819
4.0	1.999994566629539	baseline	0.0		48.0		baseline	0.0	91.61811497675262	0.3999908236419287
4.0	2.1001074298019375	pulse	0.0	t			baseline	0.0	91.71822783992502	
4.0	2.3999853902714676	ISI	1.0		11.0		baseline	0.0	92.01810580039455	0.09999785683703521
5.0	2.499983247108503	baseline	0.0		48.0		baseline	0.0	92.11810365723159	0.3999911254959443
5.0	2.800088201708604	pulse	0.0	t			baseline	0.0	92.41820861183169	
5.0	2.899974372604447	ISI	1.0		11.0		baseline	0.0	92.51809478272753	0.09999815869105078
6.0	2.999972531295498	baseline	0.0		48.0		baseline	0.0	92.61809294141858	0.3999911254950348
6.0	3.3999636567905327	ISI	1.0		11.0		baseline	0.0	93.01808406691362	0.0999963475678669
7.0	3.4999600043583996	baseline	0.0		47.0		baseline	0.0	93.11808041448148	0.39998901251874486
7.0	3.5041110991378446	pulse	0.0	t			baseline	0.0	93.12223150926093	
7.0	3.8999490168771445	ISI	1.0		11.0		baseline	0.0	93.51806942700023	0.09999815869105078
8.0	3.9999471755681952	baseline	0.0		48.0		baseline	0.0	93.61806758569128	0.3999920310570815
8.0	4.200052160353152	pulse	0.0	t			baseline	0.0	93.81817257047624	
8.0	4.399939206625277	ISI	1.0		11.0		baseline	0.0	94.01805961674836	0.09999695127589803
9.0	4.499936157901175	baseline	0.0		48.0		baseline	0.0	94.11805656802426	0.3999926347642031
9.0	4.899928792665378	ISI	1.0		11.0		baseline	0.0	94.51804920278846	0.09999544200672972
9.0	4.90440588965248	pulse	1.0	t			baseline	0.0	94.52252629977556	
10.0	4.999924234672108	baseline	0.0		48.0		baseline	0.0	94.61804464479519	0.3999932384722342
10.0	5.399917473144342	ISI	1.0		11.0		baseline	0.0	95.01803788326743	0.09999332902953029
11.0	5.499910802173872	baseline	0.0		48.0		baseline	0.0	95.11803121229696	0.39999233291109704
11.0	5.600023363491346	pulse	0.0	t			baseline	0.0	95.21814377361443	
11.0	5.899903135084969	ISI	1.0		3.0		baseline	0.0	95.51802354520805	0.12499075572395668
12.0	6.024893890808926	word	0.0		45.0	character	word-78.jpg	0.0	95.64301430093201	0.37495325037798466
12.0	6.299947990573855	pulse	0.0	t		character	word-78.jpg	0.0	95.91806840069694	
12.0	6.3998471411869104	ISI	1.0		5.0	character	word-78.jpg	0.0	96.01796755131	0.11665596594593808
13.0	6.5165031071328485	word	0.0		46.0	character	word-7.jpg	0.0	96.13462351725593	0.38333060155582643
13.0	6.899833708688675	ISI	1.0		7.0	character	word-7.jpg	0.0	96.51795411881176	0.1166722660564119
14.0	7.016505974745087	word	0.0		45.0	character	word-121.jpg	0.0	96.63462638486817	0.3833143014453526
14.0	7.008294039502289	pulse	0.0	t		character	word-121.jpg	0.0	96.62641444962537	
14.0	7.3998202761904395	ISI	1.0		6.0	character	word-121.jpg	0.0	97.01794068631352	0.11668675504279236
15.0	7.516507031233232	word	0.0		46.0	character	word-127.jpg	0.0	97.13462744135632	0.38330373655935546
15.0	7.699924928935616	pulse	0.0	t		character	word-127.jpg	0.0	97.3180453390587	
15.0	7.899810767792587	ISI	1.0		7.0	character	word-127.jpg	0.0	97.51793117791567	0.1166840383584713
16.0	8.016494806151059	word	0.0		46.0	character	word-66.jpg	0.0	97.63461521627414	0.3833043402664771
16.0	8.399799146417536	ISI	1.0		7.0	character	word-66.jpg	0.0	98.01791955654062	0.11668886802090128
16.0	8.439576245425997	pulse	1.0	t		character	word-66.jpg	0.0	98.05769665554908	
17.0	8.516488014438437	word	0.0		46.0	character	word-23.jpg	0.0	98.13460842456152	0.3832980013348788
17.0	8.899786015773316	ISI	1.0		7.0	character	word-23.jpg	0.0	98.5179064258964	0.11668584948165517
18.0	9.016471865254971	word	0.0		46.0	character	word-16.jpg	0.0	98.63459227537805	0.38330222728927765
18.0	9.099894320950625	pulse	0.0	t		character	word-16.jpg	0.0	98.71801473107371	
18.0	9.399774092544249	ISI	1.0		3.0	character	word-16.jpg	0.0	99.01789450266733	0.11668615133567073
19.0	9.51646024387992	word	0.0		46.0	character	word-103.jpg	0.0	99.134580654003	0.38330132172723097
19.0	9.799874791004186	pulse	0.0	t		character	word-103.jpg	0.0	99.41799520112727	
19.0	9.89976156560715	ISI	1.0		7.0	character	word-103.jpg	0.0	99.51788197573023	0.11668464206650242
20.0	10.016446207673653	word	0.0		46.0	character	word-131.jpg	0.0	99.63456661779674	0.3833025291432932
20.0	10.399748736816946	ISI	1.0		7.0	character	word-131.jpg	0.0	100.01786914694003	0.11668283094240905
21.0	10.516431567759355	word	0.0		45.0	character	word-140.jpg	0.0	100.13455197788244	0.38330766065973876
21.0	10.50832437581903	pulse	0.0	t		character	word-140.jpg	0.0	100.12644478594211	
21.0	10.899739228419094	ISI	1.0		7.0	character	word-140.jpg	0.0	100.51785963854218	0.11667377532558021
22.0	11.016413003744674	word	0.0		46.0	character	word-137.jpg	0.0	100.63453341386776	0.3833146032993682
22.0	11.199845692288363	pulse	0.0	t		character	word-137.jpg	0.0	100.81796610241145	
22.0	11.399727607044042	ISI	1.0		6.0	character	word-137.jpg	0.0	101.01784801716713	0.11668524577362405
23.0	11.516412852817666	word	0.0		46.0	character	word-119.jpg	0.0	101.13453326294075	0.38330615139057045
23.0	11.899719004208237	ISI	1.0		7.0	character	word-119.jpg	0.0	101.51783941433132	0.11668464206559293
23.0	11.935882610227054	pulse	1.0	t		character	word-119.jpg	0.0	101.55400302035014	
24.0	12.01640364627383	adult	0.0		46.0	face	adult-125.jpg	0.0	101.63452405639691	0.38331158476012206
24.0	12.399715231033952	ISI	1.0		2.0	face	adult-125.jpg	0.0	102.01783564115703	0.1167075829625901
25.0	12.516422813996542	adult	0.0		46.0	face	adult-9.jpg	0.0	102.13454322411962	0.3832650992599156
25.0	12.59980633054056	pulse	0.0	t		face	adult-9.jpg	0.0	102.21792674066364	
25.0	12.899687913256457	ISI	1.0		6.0	face	adult-9.jpg	0.0	102.51780832337954	0.11669007543696353
26.0	13.01637798869342	adult	0.0		46.0	face	adult-78.jpg	0.0	102.6344983988165	0.3833034347044304
26.0	13.299797667333223	pulse	0.0	t		face	adult-78.jpg	0.0	102.9179180774563	
26.0	13.399681423397851	ISI	1.0		6.0	face	adult-78.jpg	0.0	103.01780183352093	0.11668283094331855
27.0	13.51636425434117	adult	0.0		46.0	face	adult-43.jpg	0.0	103.13448466446425	0.3833058495356454
27.0	13.899670103876815	ISI	1.0		8.0	face	adult-43.jpg	0.0	103.5177905139999	0.11667800128088857
28.0	14.016348105157704	adult	0.0		45.0	face	adult-44.jpg	0.0	103.63446851528079	0.38331098105209094
28.0	14.00819865367157	pulse	0.0	t		face	adult-44.jpg	0.0	103.62631906379465	
28.0	14.399659086209795	ISI	1.0		7.0	face	adult-44.jpg	0.0	104.01777949633288	0.11668766060483904
29.0	14.516346746814634	adult	0.0		46.0	face	adult-46.jpg	0.0	104.13446715693772	0.3833004161660938
29.0	14.699822600465268	pulse	0.0	t		face	adult-46.jpg	0.0	104.31794301058835	
29.0	14.899647162980727	ISI	1.0		7.0	face	adult-46.jpg	0.0	104.51776757310381	0.11668343465044018
30.0	15.016330597631168	adult	0.0		46.0	face	adult-110.jpg	0.0	104.63445100775425	0.38330313285132434
30.0	15.399633730482492	ISI	1.0		7.0	face	adult-110.jpg	0.0	105.01775414060558	0.11668434021248686
30.0	15.438365811302901	pulse	1.0	t		face	adult-110.jpg	0.0	105.05648622142598	
31.0	15.516318070694979	adult	0.0		46.0	face	adult-40.jpg	0.0	105.13443848081806	0.38330132172723097
31.0	15.89961939242221	ISI	1.0		7.0	face	adult-40.jpg	0.0	105.5177398025453	0.11668524577453354
32.0	16.016304638196743	adult	0.0		46.0	face	adult-8.jpg	0.0	105.63442504831983	0.38330856622087595
32.0	16.099729508723613	pulse	0.0	t		face	adult-8.jpg	0.0	105.7178499188467	
32.0	16.39961320441762	ISI	1.0		7.0	face	adult-8.jpg	0.0	106.0177336145407	0.11668554762763961
33.0	16.51629875204526	adult	0.0		46.0	face	adult-28.jpg	0.0	106.13441916216834	0.3832989068969255
33.0	16.799714506584678	pulse	0.0	t		face	adult-28.jpg	0.0	106.41783491670776	
33.0	16.899597658942184	ISI	1.0		6.0	face	adult-28.jpg	0.0	106.51771806906527	0.11668584948165517
34.0	17.01628350842384	adult	0.0		46.0	face	adult-61.jpg	0.0	106.63440391854692	0.38330464212049264
34.0	17.399588150544332	ISI	1.0		5.0	face	adult-61.jpg	0.0	107.01770856066742	0.11667769942596351
35.0	17.516265849970296	adult	0.0		45.0	face	adult-135.jpg	0.0	107.13438626009338	0.38331067919898487
35.0	17.507976640130437	pulse	0.0	t		face	adult-135.jpg	0.0	107.12609705025352	
35.0	17.89957652916928	ISI	1.0		5.0	face	adult-135.jpg	0.0	107.51769693929236	0.11668615133567073
36.0	18.01626268050495	body	0.0		46.0	body	body-93.jpg	0.0	107.63438309062803	0.3832986050420004
36.0	18.199678767083242	pulse	0.0	t		body	body-93.jpg	0.0	107.81779917720633	
36.0	18.39956128554695	ISI	1.0		6.0	body	body-93.jpg	0.0	108.01768169567003	0.11668766060574853
37.0	18.5162489461527	body	0.0		46.0	body	body-30.jpg	0.0	108.13436935627578	0.3833339219481786
37.0	18.89958286810088	ISI	1.0		7.0	body	body-30.jpg	0.0	108.51770327822396	0.11668856616688572
37.0	18.937096968451442	pulse	1.0	t		body	body-30.jpg	0.0	108.55521737857453	
38.0	19.016271434267765	body	0.0		46.0	body	body-144.jpg	0.0	108.63439184439085	0.38326962706833
38.0	19.399541061336095	ISI	1.0		6.0	body	body-144.jpg	0.0	109.01766147145918	0.11668313279733411
39.0	19.51622419413343	body	0.0		46.0	body	body-45.jpg	0.0	109.13434460425651	0.38330554768162983
39.0	19.59964755539113	pulse	0.0	t		body	body-45.jpg	0.0	109.21776796551421	
39.0	19.89952974181506	ISI	1.0		6.0	body	body-45.jpg	0.0	109.51765015193814	0.11668464206650242
40.0	20.01621438388156	body	0.0		46.0	body	body-9.jpg	0.0	109.63433479400464	0.3833010198732154
40.0	20.299630440274996	pulse	0.0	t		body	body-9.jpg	0.0	109.91775085039808	
40.0	20.399515403754776	ISI	1.0		7.0	body	body-9.jpg	0.0	110.01763581387786	0.11669007543696353
41.0	20.51620547919174	body	0.0		46.0	body	body-140.jpg	0.0	110.13432588931482	0.38329920875003154
41.0	20.89950468794177	ISI	1.0		7.0	body	body-140.jpg	0.0	110.51762509806485	0.11667890684202575
42.0	21.016183594783797	body	0.0		45.0	body	body-51.jpg	0.0	110.63430400490688	0.38330856622178544
42.0	21.007914005446764	pulse	0.0	t		body	body-51.jpg	0.0	110.62603441556985	
42.0	21.399492161005583	ISI	1.0		5.0	body	body-51.jpg	0.0	111.01761257112867	0.11668826431287016
43.0	21.516180425318453	body	0.0		46.0	body	body-121.jpg	0.0	111.13430083544154	0.3833010198732154
43.0	21.69959953043599	pulse	0.0	t		body	body-121.jpg	0.0	111.31771994055907	
43.0	21.899481445191668	ISI	1.0		6.0	body	body-121.jpg	0.0	111.51760185531475	0.11668343465044018
44.0	22.01616487984211	body	0.0		46.0	body	body-11.jpg	0.0	111.63428528996519	0.38330373655935546
44.0	22.399468616401464	ISI	1.0		7.0	body	body-11.jpg	0.0	112.01758902652455	0.11668947172802291
44.0	22.436311091832977	pulse	1.0	t		body	body-11.jpg	0.0	112.05443150195606	
45.0	22.516158088129487	body	0.0		46.0	body	body-27.jpg	0.0	112.13427849825257	0.38329920875094103
45.0	22.899457296880428	ISI	1.0		7.0	body	body-27.jpg	0.0	112.51757770700351	0.11669067914408515
46.0	23.016147976024513	body	0.0		46.0	body	body-27.jpg	1.0	112.6342683861476	0.3832970957728321
46.0	23.099568016888952	pulse	0.0	t		body	body-27.jpg	1.0	112.71768842701204	
46.0	23.399445071797345	ISI	1.0		6.0	body	body-27.jpg	1.0	113.01756548192043	0.11668977358203847
46.0	23.457900286187396	response	1.0	b		body	body-27.jpg	1.0	113.07602069631048	
47.0	23.516134845379383	body	0.0		46.0	body	body-60.jpg	0.0	113.13425525550247	0.3833034347053399
47.0	23.79952947014681	pulse	0.0	t		body	body-60.jpg	0.0	113.41764988026989	
47.0	23.899438280084723	ISI	1.0		7.0	body	body-60.jpg	0.0	113.5175586902078	0.11666321043958305
48.0	24.016101490524306	car	0.0		46.0	object	car-50.jpg	0.0	113.63422190064739	0.38332184779210365
48.0	24.39942333831641	ISI	1.0		6.0	object	car-50.jpg	0.0	114.0175437484395	0.11668705689771741
49.0	24.516110395214127	car	0.0		45.0	object	car-8.jpg	0.0	114.13423080533721	0.3832995106040471
49.0	24.507422436377055	pulse	0.0	t		object	car-8.jpg	0.0	114.12554284650014	
49.0	24.899409905818175	ISI	1.0		6.0	object	car-8.jpg	0.0	114.51753031594126	0.11668826431287016
50.0	25.016098170131045	car	0.0		46.0	object	car-48.jpg	0.0	114.63421858025413	0.38333271453302586
50.0	25.207886174517625	pulse	0.0	t		object	car-48.jpg	0.0	114.82600658464071	
50.0	25.39943088466407	ISI	1.0		6.0	object	car-48.jpg	0.0	115.01755129478715	0.11669007543605403
51.0	25.516120960100125	car	0.0		46.0	object	car-34.jpg	0.0	115.13424137022321	0.3832650992608251
51.0	25.89938605936095	ISI	1.0		7.0	object	car-34.jpg	0.0	115.51750646948403	0.11668615133567073
51.0	25.933924182148985	pulse	1.0	t		object	car-34.jpg	0.0	115.55204459227207	
52.0	26.01607221069662	car	0.0		46.0	object	car-5.jpg	0.0	115.6341926208197	0.3833040384124615
52.0	26.399376249109082	ISI	1.0		7.0	object	car-5.jpg	0.0	116.01749665923217	0.11668464206650242
53.0	26.516060891175584	car	0.0		46.0	object	car-86.jpg	0.0	116.13418130129867	0.3833028309963993
53.0	26.599481535748055	pulse	0.0	t		object	car-86.jpg	0.0	116.21760194587114	
53.0	26.899363722171984	ISI	1.0		7.0	object	car-86.jpg	0.0	116.51748413229507	0.11668735875173297
54.0	27.016051080923717	car	0.0		46.0	object	car-21.jpg	0.0	116.6341714910468	0.38330464212049264
54.0	27.29946653360912	pulse	0.0	t		object	car-21.jpg	0.0	116.9175869437322	
54.0	27.39935572304421	ISI	1.0		7.0	object	car-21.jpg	0.0	117.01747613316729	0.11667256791042746
55.0	27.516028290954637	car	0.0		46.0	object	car-91.jpg	0.0	117.13414870107772	0.38331490515247424
55.0	27.89934319610711	ISI	1.0		6.0	object	car-91.jpg	0.0	117.5174636062302	0.11667588830368913
56.0	28.0160190844108	car	0.0		45.0	object	car-64.jpg	0.0	117.63413949453388	0.38331007549004426
56.0	28.007739835748907	pulse	0.0	t		object	car-64.jpg	0.0	117.62586024587199	
56.0	28.399329159900844	ISI	1.0		7.0	object	car-64.jpg	0.0	118.01744957002393	0.11668735875173297
57.0	28.516016518652577	car	0.0		46.0	object	car-51.jpg	0.0	118.13413692877566	0.383296492064801
57.0	28.707765583886612	pulse	0.0	t		object	car-51.jpg	0.0	118.3258859940097	
57.0	28.89931301071738	ISI	1.0		7.0	object	car-51.jpg	0.0	118.51743342084046	0.11668916987491684
58.0	29.016002180592295	car	0.0		46.0	object	car-10.jpg	0.0	118.63412259071538	0.38328200307842053
58.0	29.399284183670716	ISI	1.0		5.0	object	car-10.jpg	0.0	119.0174045937938	0.11670667740054341
58.0	29.4509431575907	pulse	1.0	t		object	car-10.jpg	0.0	119.06906356771378	
59.0	29.51599086107126	car	0.0		46.0	object	car-124.jpg	0.0	119.13411127119434	0.3832989068969255
59.0	29.899289767968185	ISI	1.0		6.0	object	car-124.jpg	0.0	119.51741017809127	0.11668826431287016
60.0	30.015978032281055	word	0.0		46.0	character	word-128.jpg	0.0	119.63409844240414	0.38330524582761427
60.0	30.099396563876326	pulse	0.0	t		character	word-128.jpg	0.0	119.71751697399941	
60.0	30.39928327810867	ISI	1.0		2.0	character	word-128.jpg	0.0	120.01740368823175	0.11668494392051798
61.0	30.515968222029187	word	0.0		46.0	character	word-50.jpg	0.0	120.13408863215227	0.3833049439745082
61.0	30.79938427842262	pulse	0.0	t		character	word-50.jpg	0.0	120.4175046885457	
61.0	30.899273166003695	ISI	1.0		6.0	character	word-50.jpg	0.0	120.51739357612678	0.11668464206559293
62.0	31.015957808069288	word	0.0		46.0	character	word-69.jpg	0.0	120.63407821819237	0.3832995106049566
62.0	31.399257318674245	ISI	1.0		6.0	character	word-69.jpg	0.0	121.01737772879733	0.11668222723437793
63.0	31.515939545908623	word	0.0		45.0	character	word-144.jpg	0.0	121.1340599560317	0.38333844975750253
63.0	31.507632224835106	pulse	0.0	t		character	word-144.jpg	0.0	121.12575263495819	
63.0	31.899277995666125	ISI	1.0		7.0	character	word-144.jpg	0.0	121.51739840578921	0.11669037729006959
64.0	32.015968372956195	word	0.0		46.0	character	word-133.jpg	0.0	121.63408878307928	0.3832650992599156
64.0	32.207683932407235	pulse	0.0	t		character	word-133.jpg	0.0	121.82580434253032	
64.0	32.39923347221611	ISI	1.0		7.0	character	word-133.jpg	0.0	122.0173538823392	0.1166879624588546
65.0	32.515921434674965	word	0.0		46.0	character	word-85.jpg	0.0	122.13404184479805	0.38330132172814046
65.0	32.899222756403105	ISI	1.0		7.0	character	word-85.jpg	0.0	122.51734316652619	0.1166840383584713
65.0	32.9380366396299	pulse	1.0	t		character	word-85.jpg	0.0	122.55615704975298	
66.0	33.01590679476158	word	0.0		46.0	character	word-2.jpg	0.0	122.63402720488466	0.38330524582761427
66.0	33.39921204058919	ISI	1.0		8.0	character	word-2.jpg	0.0	123.01733245071227	0.11668283094331855
67.0	33.51589487153251	word	0.0		46.0	character	word-2.jpg	1.0	123.13401528165559	0.3833049439745082
67.0	33.60765302256823	pulse	0.0	t		character	word-2.jpg	1.0	123.22577343269131	
67.0	33.89919981550702	ISI	1.0		6.0	character	word-2.jpg	1.0	123.5173202256301	0.11668373650445574
68.0	34.01588355201147	word	0.0		46.0	character	word-101.jpg	0.0	123.63400396213456	0.3833040384124615
68.0	34.024323688799086	response	0.0	b		character	word-101.jpg	0.0	123.64244409892217	
68.0	34.30761357026404	pulse	0.0	t		character	word-101.jpg	0.0	123.92573398038712	
68.0	34.399187590423935	ISI	1.0		6.0	character	word-101.jpg	0.0	124.01730800054702	0.11668916987491684
69.0	34.51587676029885	word	0.0		46.0	character	word-93.jpg	0.0	124.13399717042194	0.3833001143120782
69.0	34.89917687461093	ISI	1.0		5.0	character	word-93.jpg	0.0	124.51729728473401	0.1083139316742745
70.0	35.007490806285205	word	0.0		46.0	character	word-3.jpg	0.0	124.62561121640829	0.391675050658705
70.0	35.00306502446074	pulse	0.0	t		character	word-3.jpg	0.0	124.62118543458382	
70.0	35.39916585694391	ISI	1.0		5.0	character	word-3.jpg	0.0	125.01728626706699	0.10834321150196047
71.0	35.50750906844587	word	0.0		47.0	character	word-57.jpg	0.0	125.12562947856895	0.39164395970692567
71.0	35.70759775312035	pulse	0.0	t		character	word-57.jpg	0.0	125.32571816324344	
71.0	35.899153028152796	ISI	1.0		5.0	character	word-57.jpg	0.0	125.51727343827588	0.1083586060512971
72.0	36.00751163420409	car	0.0		47.0	object	car-104.jpg	0.0	125.62563204432718	0.3916303762816824
72.0	36.399142010485775	ISI	1.0		6.0	object	car-104.jpg	0.0	126.01726242060886	0.10835196526477375
72.0	36.440384610160436	pulse	1.0	t		object	car-104.jpg	0.0	126.05850502028352	
73.0	36.50749397575055	car	0.0		48.0	object	car-104.jpg	1.0	126.12561438587363	0.3999681845998566
73.0	36.907462160350406	ISI	1.0		5.0	object	car-104.jpg	1.0	126.52558257047349	0.10849323288857704
73.0	36.958533424734924	response	1.0	b		object	car-104.jpg	1.0	126.576653834858	
74.0	37.01595539323898	car	0.0		47.0	object	car-44.jpg	0.0	126.63407580336207	0.3914963531515241
74.0	37.10756865440453	pulse	0.0	t		object	car-44.jpg	0.0	126.72568906452761	
74.0	37.40745174639051	ISI	1.0		5.0	object	car-44.jpg	0.0	127.02557215651359	0.10835015414158988
75.0	37.5158019005321	car	0.0		47.0	object	car-37.jpg	0.0	127.13392231065518	0.3916373189222213
75.0	37.80758595063253	pulse	0.0	t		object	car-37.jpg	0.0	127.42570636075561	
75.0	37.90743921945432	ISI	1.0		6.0	object	car-37.jpg	0.0	127.5255596295774	0.10835256897280487
76.0	38.01579178842712	car	0.0		47.0	object	car-141.jpg	0.0	127.6339121985502	0.39166750431104447
76.0	38.40745929273817	ISI	1.0		5.0	object	car-141.jpg	0.0	128.02557970286125	0.10835045599560544
77.0	38.51580974873377	car	0.0		46.0	object	car-19.jpg	0.0	128.13393015885686	0.3916397337525268
77.0	38.50423757592034	pulse	0.0	t		object	car-19.jpg	0.0	128.12235798604343	
77.0	38.9074494824863	ISI	1.0		5.0	object	car-19.jpg	0.0	128.52556989260938	0.10835105970363657
78.0	39.015800542189936	car	0.0		47.0	object	car-61.jpg	0.0	128.63392095231302	0.39163611150615907
78.0	39.207554135232385	pulse	0.0	t		object	car-61.jpg	0.0	128.82567454535547	
78.0	39.407436653696095	ISI	1.0		5.0	object	car-61.jpg	0.0	129.02555706381918	0.10836373756683315
79.0	39.51580039126293	car	0.0		47.0	object	car-90.jpg	0.0	129.133920801386	0.39159143712913647
79.0	39.907391828392065	ISI	1.0		7.0	object	car-90.jpg	0.0	129.52551223851515	0.11668615133567073
79.0	39.94772796081725	pulse	1.0	t		object	car-90.jpg	0.0	129.56584837094033	
80.0	40.024077979727736	car	0.0		46.0	object	car-84.jpg	0.0	129.64219838985082	0.3833043402664771
80.0	40.40738231999421	ISI	1.0		7.0	object	car-84.jpg	0.0	130.0255027301173	0.1166855476285491
81.0	40.52406786762276	car	0.0		46.0	object	car-137.jpg	0.0	130.14218827774584	0.38330071801919985
81.0	40.60753680881862	pulse	0.0	t		object	car-137.jpg	0.0	130.2256572189417	
81.0	40.90736858564196	ISI	1.0		6.0	object	car-137.jpg	0.0	130.52548899576504	0.11668343465134967
82.0	41.02405202029331	car	0.0		46.0	object	car-57.jpg	0.0	130.6421724304164	0.3833049439735987
82.0	41.307474415618344	pulse	0.0	t		object	car-57.jpg	0.0	130.92559482574143	
82.0	41.40735696426691	ISI	1.0		5.0	object	car-57.jpg	0.0	131.02547737439	0.11668494392051798
83.0	41.52404190818743	car	0.0		46.0	object	car-111.jpg	0.0	131.1421623183105	0.38330313285132434
83.0	41.90734504103875	ISI	1.0		11.0	object	car-111.jpg	0.0	131.52546545116184	0.0999987623990819
84.0	42.007343803437834	baseline	0.0		47.0		baseline	0.0	131.62546421356092	0.3999893143718509
84.0	42.01154802450219	pulse	0.0	t			baseline	0.0	131.62966843462527	
84.0	42.407333117809685	ISI	1.0		11.0		baseline	0.0	132.02545352793277	0.0999987623990819
85.0	42.50733188020877	baseline	0.0		48.0		baseline	0.0	132.12545229033185	0.39998991807988205
85.0	42.70745075027298	pulse	0.0	t			baseline	0.0	132.32557116039607	
85.0	42.90732179828865	ISI	1.0		11.0		baseline	0.0	132.52544220841173	0.09999604571385134
86.0	43.0073178440025	baseline	0.0		48.0		baseline	0.0	132.62543825412558	0.39999233291109704
86.0	43.4073101769136	ISI	1.0		11.0		baseline	0.0	133.02543058703668	0.09999755498301965
86.0	43.411904393211444	pulse	1.0	t			baseline	0.0	133.03002480333453	
87.0	43.50730773189662	baseline	0.0		48.0		baseline	0.0	133.1254281420197	0.39998991807988205
87.0	43.9072976499765	ISI	1.0		11.0		baseline	0.0	133.52541806009958	0.10000057352226577
88.0	44.007298223498765	baseline	0.0		48.0		baseline	0.0	133.62541863362185	0.39998901251874486
88.0	44.107452440654924	pulse	0.0	t			baseline	0.0	133.725572850778	
88.0	44.40728723601751	ISI	1.0		11.0		baseline	0.0	134.0254076461406	0.09999604571385134
89.0	44.50728328173136	baseline	0.0		48.0		baseline	0.0	134.12540369185444	0.3999926347651126
89.0	44.80738823633055	pulse	0.0	t			baseline	0.0	134.42550864645364	
89.0	44.907275916496474	ISI	1.0		11.0		baseline	0.0	134.52539632661956	0.0999972531290041
90.0	45.00727316962548	baseline	0.0		48.0		baseline	0.0	134.62539357974856	0.3999911254959443
90.0	45.40726429512142	ISI	1.0		11.0		baseline	0.0	135.0253847052445	0.09999755498301965
91.0	45.50726185010444	baseline	0.0		47.0		baseline	0.0	135.12538226022752	0.4000578352070079
91.0	45.51152131043182	pulse	0.0	t			baseline	0.0	135.1296417205549	
91.0	45.90731968531145	ISI	1.0		11.0		baseline	0.0	135.52544009543453	0.09999966796021909
92.0	46.00731935327167	baseline	0.0		48.0		baseline	0.0	135.62543976339475	0.3999911254959443
92.0	46.207441543729146	pulse	0.0	t			baseline	0.0	135.82556195385223	
92.0	46.40731047876761	ISI	1.0		11.0		baseline	0.0	136.0254308888907	0.09999695127498853
93.0	46.5073074300426	baseline	0.0		48.0		baseline	0.0	136.12542784016568	0.3999932384731437
93.0	46.907300668515745	ISI	1.0		11.0		baseline	0.0	136.52542107863883	0.09999453644468304
93.0	46.91186258644666	pulse	1.0	t			baseline	0.0	136.52998299656974	
94.0	47.00729520496043	baseline	0.0		48.0		baseline	0.0	136.6254156150835	0.3999902199338976
94.0	47.407285424894326	ISI	1.0		11.0		baseline	0.0	137.0254058350174	0.09999695127498853
95.0	47.507282376169314	baseline	0.0		48.0		baseline	0.0	137.1254027862924	0.3999902199338976
95.0	47.59939762036447	pulse	0.0	t			baseline	0.0	137.21751803048755	
95.0	47.90727259610321	ISI	1.0		8.0		baseline	0.0	137.5253930062263	0.11665083443040203
96.0	48.023923430533614	adult	0.0		46.0	face	adult-119.jpg	0.0	137.6420438406567	0.3832690233602989
96.0	48.30731262192967	pulse	0.0	t		face	adult-119.jpg	0.0	137.92543303205275	
96.0	48.40719245389391	ISI	1.0		3.0	face	adult-119.jpg	0.0	138.025312864017	0.11668434021248686
97.0	48.5238767941064	adult	0.0		46.0	face	adult-68.jpg	0.0	138.14199720422948	0.3833067550976921
97.0	48.90718354920409	ISI	1.0		7.0	face	adult-68.jpg	0.0	138.52530395932718	0.11666260673155193
98.0	49.023846155935644	adult	0.0		45.0	face	adult-76.jpg	0.0	138.64196656605873	0.3833245644782437
98.0	49.01565685973492	pulse	0.0	t		face	adult-76.jpg	0.0	138.633777269858	
98.0	49.40717072041389	ISI	1.0		6.0	face	adult-76.jpg	0.0	139.02529113053697	0.11668494391960849
99.0	49.523855664333496	adult	0.0		46.0	face	adult-103.jpg	0.0	139.14197607445658	0.38330313285132434
99.0	49.70727265647383	pulse	0.0	t		face	adult-103.jpg	0.0	139.32539306659692	
99.0	49.90715879718482	ISI	1.0		6.0	face	adult-103.jpg	0.0	139.5252792073079	0.11668524577362405
100.0	50.023844042958444	adult	0.0		46.0	face	adult-54.jpg	0.0	139.64196445308153	0.3833025291432932
100.0	50.40714657210174	ISI	1.0		6.0	face	adult-54.jpg	0.0	140.02526698222482	0.11668494392051798
100.0	50.451152644194735	pulse	1.0	t		face	adult-54.jpg	0.0	140.06927305431782	
101.0	50.523831516022256	adult	0.0		46.0	face	adult-95.jpg	0.0	140.14195192614534	0.38330947178201313
101.0	50.90714098780427	ISI	1.0		8.0	face	adult-95.jpg	0.0	140.52526139792735	0.11668071796611912
102.0	51.02382170577039	adult	0.0		46.0	face	adult-34.jpg	0.0	140.64194211589347	0.3833049439745082
102.0	51.09922782754802	pulse	0.0	t		face	adult-34.jpg	0.0	140.7173482376711	
102.0	51.407126649744896	ISI	1.0		6.0	face	adult-34.jpg	0.0	141.02524705986798	0.11668071796520962
103.0	51.523807367710106	adult	0.0		46.0	face	adult-128.jpg	0.0	141.1419277778332	0.3832940772344955
103.0	51.80722070741831	pulse	0.0	t		face	adult-128.jpg	0.0	141.4253411175414	
103.0	51.9071014449446	ISI	1.0		7.0	face	adult-128.jpg	0.0	141.52522185506768	0.11669701807568345
104.0	52.023798463020285	adult	0.0		46.0	face	adult-133.jpg	0.0	141.64191887314337	0.3832844179096355
104.0	52.40708288092992	ISI	1.0		7.0	face	adult-133.jpg	0.0	142.025203291053	0.11669943290689844
105.0	52.52378231383682	adult	0.0		45.0	face	adult-14.jpg	0.0	142.1419027239599	0.38330615138966095
105.0	52.5169365693273	pulse	0.0	t		face	adult-14.jpg	0.0	142.13505697945038	
105.0	52.90708846522648	ISI	1.0		8.0	face	adult-14.jpg	0.0	142.52520887534956	0.11668675504370185
106.0	53.02377522027018	adult	0.0		46.0	face	adult-14.jpg	1.0	142.64189563039326	0.3833004161660938
106.0	53.20719009943332	pulse	0.0	t		face	adult-14.jpg	1.0	142.8253105095564	
106.0	53.407075636436275	ISI	1.0		6.0	face	adult-14.jpg	1.0	143.02519604655936	0.11668766060483904
107.0	53.523763297041114	adult	0.0		46.0	face	adult-92.jpg	0.0	143.1418837071642	0.3833010198741249
107.0	53.53219830231319	response	0.0	b		face	adult-92.jpg	0.0	143.15031871243627	
107.0	53.90706431691524	ISI	1.0		3.0	face	adult-92.jpg	0.0	143.52518472703832	0.11668645318968629
107.0	53.97763715410929	pulse	1.0	t		face	adult-92.jpg	0.0	143.59575756423237	
108.0	54.023750770104925	word	0.0		46.0	character	word-38.jpg	0.0	143.641871180228	0.3833342238021942
108.0	54.40708499390712	ISI	1.0		7.0	character	word-38.jpg	0.0	144.0252054040302	0.11668916987491684
109.0	54.523774163782036	word	0.0		46.0	character	word-32.jpg	0.0	144.14189457390512	0.38329920875003154
109.0	54.607196317623675	pulse	0.0	t		character	word-32.jpg	0.0	144.22531672774676	
109.0	54.90707337253207	ISI	1.0		6.0	character	word-32.jpg	0.0	144.52519378265515	0.11669098099810071
110.0	55.02376435353017	word	0.0		46.0	character	word-36.jpg	0.0	144.64188476365325	0.38329679391881655
110.0	55.30723383806344	pulse	0.0	t		character	word-36.jpg	0.0	144.92535424818652	
110.0	55.407061147448985	ISI	1.0		5.0	character	word-36.jpg	0.0	145.02518155757207	0.11668856616688572
111.0	55.52374971361587	word	0.0		46.0	character	word-70.jpg	0.0	145.14187012373895	0.3833001143120782
111.0	55.90704982792795	ISI	1.0		5.0	character	word-70.jpg	0.0	145.52517023805103	0.11668252908930299
112.0	56.02373235701725	word	0.0		45.0	character	word-67.jpg	0.0	145.64185276714034	0.38330615138966095
112.0	56.01093646850859	pulse	0.0	t		character	word-67.jpg	0.0	145.62905687863167	
112.0	56.40703850840691	ISI	1.0		5.0	character	word-67.jpg	0.0	146.02515891853	0.11668886802090128
113.0	56.523727376427814	word	0.0		46.0	character	word-10.jpg	0.0	146.1418477865509	0.38329769948086323
113.0	56.70714195373694	pulse	0.0	t		character	word-10.jpg	0.0	146.32526236386002	
113.0	56.90702507590868	ISI	1.0		5.0	character	word-10.jpg	0.0	146.52514548603176	0.11669007543605403
114.0	57.02371515134473	word	0.0		46.0	character	word-53.jpg	0.0	146.64183556146781	0.38330071802010934
114.0	57.40701586936484	ISI	1.0		6.0	character	word-53.jpg	0.0	147.02513627948792	0.11668554762763961
114.0	57.45268274159389	pulse	1.0	t		character	word-53.jpg	0.0	147.07080315171697	
115.0	57.52370141699248	word	0.0		46.0	character	word-14.jpg	0.0	147.14182182711556	0.3833019254352621
115.0	57.90700334242774	ISI	1.0		6.0	character	word-14.jpg	0.0	147.52512375255083	0.11668675504370185
116.0	58.023690097471444	word	0.0		46.0	character	word-92.jpg	0.0	147.64181050759453	0.3833010198741249
116.0	58.10711164760596	pulse	0.0	t		character	word-92.jpg	0.0	147.72523205772904	
116.0	58.40699111734557	ISI	1.0		5.0	character	word-92.jpg	0.0	148.02511152746865	0.11669852734485175
117.0	58.52368964469042	word	0.0		46.0	character	word-83.jpg	0.0	148.1418100548135	0.3832910586952494
117.0	58.807096041759905	pulse	0.0	t		character	word-83.jpg	0.0	148.425216451883	
117.0	58.90698070338567	ISI	1.0		6.0	character	word-83.jpg	0.0	148.52510111350875	0.1166879624588546
118.0	59.023668665844525	word	0.0		46.0	character	word-12.jpg	0.0	148.6417890759676	0.38329769948086323
118.0	59.40696636532539	ISI	1.0		6.0	character	word-12.jpg	0.0	149.02508677544847	0.1166840383584713
119.0	59.52365040368386	word	0.0		45.0	character	word-28.jpg	0.0	149.14177081380694	0.3833055476825393
119.0	59.51491897788674	pulse	0.0	t		character	word-28.jpg	0.0	149.13303938800982	
119.0	59.9069559513664	ISI	1.0		11.0	character	word-28.jpg	0.0	149.52507636148948	0.10003498486639728
120.0	60.006990936232796	baseline	0.0		48.0		baseline	0.0	149.62511134635588	0.39998901251874486
120.0	60.19896307149611	pulse	0.0	t			baseline	0.0	149.8170834816192	
120.0	60.40697994875154	ISI	1.0		11.0		baseline	0.0	150.02510035887462	0.0999987623981724
121.0	60.50697871114971	baseline	0.0		48.0		baseline	0.0	150.1250991212728	0.3999887106647293
121.0	60.90696742181444	ISI	1.0		11.0		baseline	0.0	150.52508783193753	0.09999846054506634
121.0	60.89894776750316	pulse	1.0	t			baseline	0.0	150.51706817762624	
122.0	61.00696588235951	baseline	0.0		48.0		baseline	0.0	150.6250862924826	0.39998991807988205
122.0	61.40695580043939	ISI	1.0		11.0		baseline	0.0	151.02507621056247	0.09999785683703521
123.0	61.506953657276426	baseline	0.0		48.0		baseline	0.0	151.1250740673995	0.3999911254959443
123.0	61.59892461530944	pulse	0.0	t			baseline	0.0	151.21704502543253	
123.0	61.90694478277237	ISI	1.0		11.0		baseline	0.0	151.52506519289545	0.09999695127589803
124.0	62.00694173404827	baseline	0.0		48.0		baseline	0.0	151.62506214417135	0.39999233291109704
124.0	62.29893315777463	pulse	0.0	t			baseline	0.0	151.9170535678977	
124.0	62.406934066959366	ISI	1.0		11.0		baseline	0.0	152.02505447708245	0.0999948382977891
125.0	62.506928905257155	baseline	0.0		48.0		baseline	0.0	152.12504931538024	0.39999233291109704
125.0	62.90692123816825	ISI	1.0		11.0		baseline	0.0	152.52504164829134	0.0999987623990819
126.0	63.006920000567334	baseline	0.0		47.0		baseline	0.0	152.62504041069042	0.3999893143718509
126.0	62.99896162259756	pulse	0.0	t			baseline	0.0	152.61708203272065	
126.0	63.406909314939185	ISI	1.0		11.0		baseline	0.0	153.02502972506227	0.09999604571385134
127.0	63.506905360653036	baseline	0.0		48.0		baseline	0.0	153.12502577077612	0.3999932384731437
127.0	63.70701758993164	pulse	0.0	t			baseline	0.0	153.32513800005472	
127.0	63.90689859912618	ISI	1.0		11.0		baseline	0.0	153.52501900924926	0.09999815869105078
128.0	64.00689675781723	baseline	0.0		48.0		baseline	0.0	153.6250171679403	0.39998901251874486
128.0	64.40688577033598	ISI	1.0		11.0		baseline	0.0	154.02500618045906	0.09999936610620352
128.0	64.3988516270374	pulse	1.0	t			baseline	0.0	154.01697203716049	
129.0	64.50688513644218	baseline	0.0		48.0		baseline	0.0	154.12500554656526	0.39998901251874486
129.0	64.90687414896092	ISI	1.0		11.0		baseline	0.0	154.524994559084	0.09999664942097297
130.0	65.0068707983819	baseline	0.0		48.0		baseline	0.0	154.62499120850498	0.39999384218117484
130.0	65.09885473613303	pulse	0.0	t			baseline	0.0	154.71697514625612	
130.0	65.40686464056307	ISI	1.0		11.0		baseline	0.0	155.02498505068615	0.1000105347011413
131.0	65.50687517526421	baseline	0.0		48.0		baseline	0.0	155.1249955853873	0.3999763346537293
131.0	65.79883460247765	pulse	0.0	t			baseline	0.0	155.41695501260074	
131.0	65.90685150991794	ISI	1.0		5.0		baseline	0.0	155.52497192004103	0.1166487214532026
132.0	66.02350023137114	body	0.0		46.0	body	body-119.jpg	0.0	155.64162064149423	0.38327174004552944
132.0	66.40677197141667	ISI	1.0		4.0	body	body-119.jpg	0.0	156.02489238153976	0.11667890684202575
133.0	66.5234508782587	body	0.0		45.0	body	body-112.jpg	0.0	156.14157128838178	0.3833088680748915
133.0	66.5152558468344	pulse	0.0	t		body	body-112.jpg	0.0	156.1333762569575	
133.0	66.90675974633359	ISI	1.0		6.0	body	body-112.jpg	0.0	156.52488015645667	0.11668524577453354
134.0	67.02344499210813	body	0.0		46.0	body	body-5.jpg	0.0	156.6415654022312	0.3833019254352621
134.0	67.2068816047522	pulse	0.0	t		body	body-5.jpg	0.0	156.82500201487528	
134.0	67.40674691754339	ISI	1.0		6.0	body	body-5.jpg	0.0	157.02486732766647	0.11668705689771741
135.0	67.5234339744411	body	0.0		46.0	body	body-135.jpg	0.0	157.1415543845642	0.38330162358124653
135.0	67.90673559802235	ISI	1.0		6.0	body	body-135.jpg	0.0	157.52485600814543	0.11670094217606675
135.0	67.94899121937215	pulse	1.0	t		body	body-135.jpg	0.0	157.56711162949523	
136.0	68.02343654019842	body	0.0		46.0	body	body-47.jpg	0.0	157.6415569503215	0.38328804015691276
136.0	68.40672458035533	ISI	1.0		7.0	body	body-47.jpg	0.0	158.0248449904784	0.11668494391960849
137.0	68.52340952427494	body	0.0		46.0	body	body-23.jpg	0.0	158.14152993439802	0.38330373655935546
137.0	68.60683530036385	pulse	0.0	t		body	body-23.jpg	0.0	158.22495571048694	
137.0	68.9067132608343	ISI	1.0		6.0	body	body-23.jpg	0.0	158.52483367095738	0.11668584948165517
138.0	69.02339911031595	body	0.0		46.0	body	body-6.jpg	0.0	158.64151952043903	0.38328019195432717
138.0	69.30678649058882	pulse	0.0	t		body	body-6.jpg	0.0	158.9249069007119	
138.0	69.40667930227028	ISI	1.0		6.0	body	body-6.jpg	0.0	159.02479971239336	0.11670577183940622
139.0	69.52338507410968	body	0.0		46.0	body	body-92.jpg	0.0	159.14150548423277	0.3832901531332027
139.0	69.90667522724289	ISI	1.0		7.0	body	body-92.jpg	0.0	159.52479563736597	0.11669399953734683
140.0	70.02336922678023	body	0.0		45.0	body	body-64.jpg	0.0	159.64148963690332	0.3833058495356454
140.0	70.01335401636243	pulse	0.0	t		body	body-64.jpg	0.0	159.6314744264855	
140.0	70.40667507631588	ISI	1.0		7.0	body	body-64.jpg	0.0	160.02479548643896	0.11668645318968629
141.0	70.52336152950556	body	0.0		46.0	body	body-54.jpg	0.0	160.14148193962865	0.3833043402664771
141.0	70.70678063462401	pulse	0.0	t		body	body-54.jpg	0.0	160.3249010447471	
141.0	70.90666586977204	ISI	1.0		6.0	body	body-54.jpg	0.0	160.52478627989512	0.11668615133567073
142.0	71.02335202110771	body	0.0		46.0	body	body-2.jpg	0.0	160.6414724312308	0.38330222728927765
142.0	71.40665424839699	ISI	1.0		7.0	body	body-2.jpg	0.0	161.02477465852007	0.11667166234929027
142.0	71.44425316969227	pulse	1.0	t		body	body-2.jpg	0.0	161.06237357981536	
143.0	71.52332591074628	body	0.0		46.0	body	body-95.jpg	0.0	161.14144632086936	0.3833161125685365
143.0	71.90664202331482	ISI	1.0		6.0	body	body-95.jpg	0.0	161.5247624334379	0.11668434021157736
144.0	72.0233263635264	body	0.0		46.0	body	body-35.jpg	0.0	161.64144677364948	0.38333603492628754
144.0	72.10678292871307	pulse	0.0	t		body	body-35.jpg	0.0	161.72490333883616	
144.0	72.40666239845268	ISI	1.0		7.0	body	body-35.jpg	0.0	162.02478280857576	0.11668675504279236
145.0	72.52334915349547	body	0.0		46.0	body	body-48.jpg	0.0	162.14146956361856	0.38330071802010934
145.0	72.80676370061974	pulse	0.0	t		body	body-48.jpg	0.0	162.42488411074282	
145.0	72.90664987151558	ISI	1.0		6.0	body	body-48.jpg	0.0	162.52477028163867	0.11668886802090128
146.0	73.02333873953648	body	0.0		46.0	body	body-15.jpg	0.0	162.64145914965957	0.38329981245806266
146.0	73.40663855199455	ISI	1.0		5.0	body	body-15.jpg	0.0	163.02475896211763	0.11668222723528743
147.0	73.52332077922983	body	0.0		45.0	body	body-59.jpg	0.0	163.14144118935292	0.3833058495356454
147.0	73.51342027329247	pulse	0.0	t		body	body-59.jpg	0.0	163.13154068341555	
147.0	73.90662662876548	ISI	1.0		7.0	body	body-59.jpg	0.0	163.52474703888856	0.11668615133567073
148.0	74.02331278010115	body	0.0		46.0	body	body-38.jpg	0.0	163.64143319022423	0.3833010198741249
148.0	74.19854289087289	pulse	0.0	t		body	body-38.jpg	0.0	163.81666330099597	
148.0	74.40661379997528	ISI	1.0		6.0	body	body-38.jpg	0.0	164.02473421009836	0.1166879624588546
149.0	74.52330176243413	body	0.0		46.0	body	body-109.jpg	0.0	164.1414221725572	0.3832907568412338
149.0	74.90659251927536	ISI	1.0		7.0	body	body-109.jpg	0.0	164.52471292939845	0.11670275330016011
149.0	74.94444318671958	pulse	1.0	t		body	body-109.jpg	0.0	164.56256359684266	
150.0	75.02329527257552	body	0.0		46.0	body	body-29.jpg	0.0	164.6414156826986	0.3832650992599156
150.0	75.40656037183544	ISI	1.0		6.0	body	body-29.jpg	0.0	165.02468078195852	0.11668434021248686
151.0	75.52324471204793	body	0.0		46.0	body	body-73.jpg	0.0	165.141365122171	0.38330524582852377
151.0	75.6066695825748	pulse	0.0	t		body	body-73.jpg	0.0	165.22478999269788	
151.0	75.90654995787645	ISI	1.0		7.0	body	body-73.jpg	0.0	165.52467036799953	0.11668222723437793
152.0	76.02323218511083	body	0.0		46.0	body	body-41.jpg	0.0	165.6413525952339	0.383304038413371
152.0	76.3066488452123	pulse	0.0	t		body	body-41.jpg	0.0	165.92476925533538	
152.0	76.4065362235242	ISI	1.0		6.0	body	body-41.jpg	0.0	166.02465663364728	0.11668373650445574
153.0	76.52321996002865	body	0.0		46.0	body	body-72.jpg	0.0	166.14134037015174	0.38330524582761427
153.0	76.90652520585627	ISI	1.0		7.0	body	body-72.jpg	0.0	166.52464561597935	0.11667739757285744
154.0	77.02320260342913	body	0.0		45.0	body	body-75.jpg	0.0	166.6413230135522	0.38331007549095375
154.0	77.01327070468687	pulse	0.0	t		body	body-75.jpg	0.0	166.63139111480996	
154.0	77.40651267892008	ISI	1.0		7.0	body	body-75.jpg	0.0	167.02463308904316	0.11666924751716579
155.0	77.52318192643725	body	0.0		46.0	body	body-91.jpg	0.0	167.14130233656033	0.3833197348158137
155.0	77.70662004835049	pulse	0.0	t		body	body-91.jpg	0.0	167.32474045847357	
155.0	77.90650166125306	ISI	1.0		6.0	body	body-91.jpg	0.0	167.52462207137614	0.11668434021157736
156.0	78.02318600146464	house	0.0		46.0	place	house-22.jpg	0.0	167.64130641158772	0.3832901531341122
156.0	78.40647615459875	ISI	1.0		7.0	place	house-22.jpg	0.0	168.02459656472183	0.11670003661492956
156.0	78.44369806037776	pulse	1.0	t		place	house-22.jpg	0.0	168.06181847050084	
157.0	78.52317619121368	house	0.0		46.0	place	house-85.jpg	0.0	168.14129660133676	0.38330222728927765
157.0	78.90647841850296	ISI	1.0		3.0	place	house-85.jpg	0.0	168.52459882862604	0.11668313279642462
158.0	79.02316155129938	house	0.0		46.0	place	house-81.jpg	0.0	168.64128196142246	0.38330373655935546
158.0	79.10658642182716	pulse	0.0	t		place	house-81.jpg	0.0	168.72470683195024	
158.0	79.40646528785874	ISI	1.0		7.0	place	house-81.jpg	0.0	169.02458569798182	0.11668705689680792
159.0	79.52315234475554	house	0.0		46.0	place	house-81.jpg	1.0	169.14127275487863	0.38330132172814046
159.0	79.79837638826393	pulse	0.0	t		place	house-81.jpg	1.0	169.41649679838702	
159.0	79.90645366648369	ISI	1.0		1.0	place	house-81.jpg	1.0	169.52457407660677	0.10835287082682044
159.0	79.9849869946247	response	1.0	b		place	house-81.jpg	1.0	169.6031074047478	
160.0	80.0148065373105	house	0.0		47.0	place	house-15.jpg	0.0	169.6329269474336	0.3916352059441124
160.0	80.40644174325462	ISI	1.0		7.0	place	house-15.jpg	0.0	170.0245621533777	0.1166825290883935
161.0	80.52312427234301	house	0.0		45.0	place	house-116.jpg	0.0	170.1412446824661	0.3833082643677699
161.0	80.51321772932806	pulse	0.0	t		place	house-116.jpg	0.0	170.13133813945115	
161.0	80.90643253671078	ISI	1.0		5.0	place	house-116.jpg	0.0	170.52455294683386	0.11667437903361133
162.0	81.02310691574439	house	0.0		46.0	place	house-63.jpg	0.0	170.64122732586748	0.38334690166630025
162.0	81.19838471943149	pulse	0.0	t		place	house-63.jpg	0.0	170.81650512955457	
162.0	81.40645381741069	ISI	1.0		6.0	place	house-63.jpg	0.0	171.02457422753378	0.11668373650445574
163.0	81.52313755391515	house	0.0		46.0	place	house-73.jpg	0.0	171.14125796403823	0.3833010198732154
163.0	81.90643857378836	ISI	1.0		5.0	place	house-73.jpg	0.0	171.52455898391145	0.11667196420239634
163.0	81.95605128014722	pulse	1.0	t		place	house-73.jpg	0.0	171.5741716902703	
164.0	82.02311053799076	house	0.0		46.0	place	house-42.jpg	0.0	171.64123094811384	0.38331882925376703
164.0	82.40642936724453	ISI	1.0		7.0	place	house-42.jpg	0.0	172.0245497773676	0.11668434021248686
165.0	82.52311370745701	house	0.0		46.0	place	house-119.jpg	0.0	172.1412341175801	0.38330222728927765
165.0	82.59835652627771	pulse	0.0	t		place	house-119.jpg	0.0	172.2164769364008	
165.0	82.90641593474629	ISI	1.0		7.0	place	house-119.jpg	0.0	172.52453634486938	0.1166894717289324
166.0	83.02310540647522	house	0.0		46.0	place	house-69.jpg	0.0	172.6412258165983	0.3832986050420004
166.0	83.29834242970082	pulse	0.0	t		place	house-69.jpg	0.0	172.9164628398239	
166.0	83.40640401151722	ISI	1.0		4.0	place	house-69.jpg	0.0	173.0245244216403	0.11667800128088857
167.0	83.52308201279811	house	0.0		46.0	place	house-133.jpg	0.0	173.1412024229212	0.3833118866141376
167.0	83.90639389941225	ISI	1.0		6.0	place	house-133.jpg	0.0	173.52451430953533	0.11668071796520962
168.0	84.02307461737746	adult	0.0		45.0	face	adult-24.jpg	0.0	173.64119502750054	0.38330524582852377
168.0	84.01320459868384	pulse	0.0	t		face	adult-24.jpg	0.0	173.63132500880693	
168.0	84.40637986320598	ISI	1.0		6.0	face	adult-24.jpg	0.0	174.02450027332907	0.11668947172802291
169.0	84.52306933493401	adult	0.0		46.0	face	adult-33.jpg	0.0	174.1411897450571	0.3833028309973088
169.0	84.69828888081884	pulse	0.0	t		face	adult-33.jpg	0.0	174.31640929094192	
169.0	84.90637216593132	ISI	1.0		6.0	face	adult-33.jpg	0.0	174.5244925760544	0.11668615133567073
170.0	85.02305831726699	adult	0.0		46.0	face	adult-29.jpg	0.0	174.64117872739007	0.3833004161660938
170.0	85.40635873343308	ISI	1.0		6.0	face	adult-29.jpg	0.0	175.02447914355616	0.11668554762763961
170.0	85.44748179896487	pulse	1.0	t		face	adult-29.jpg	0.0	175.06560220908796	
171.0	85.52304428106072	adult	0.0		46.0	face	adult-2.jpg	0.0	175.1411646911838	0.38329981245806266
171.0	85.90634409351878	ISI	1.0		6.0	face	adult-2.jpg	0.0	175.52446450364187	0.11668977358294796
172.0	86.02303386710173	adult	0.0		46.0	face	adult-51.jpg	0.0	175.6411542772248	0.38326600482196227
172.0	86.0982570654187	pulse	0.0	t		face	adult-51.jpg	0.0	175.71637747554178	
172.0	86.4062998719237	ISI	1.0		7.0	face	adult-51.jpg	0.0	176.02442028204678	0.11672358121813886
173.0	86.52302345314183	adult	0.0		46.0	face	adult-25.jpg	0.0	176.14114386326492	0.3832940772344955
173.0	86.79823813917938	pulse	0.0	t		face	adult-25.jpg	0.0	176.41635854930246	
173.0	86.90631753037633	ISI	1.0		7.0	face	adult-25.jpg	0.0	176.5244379404994	0.1167051681313751
174.0	87.0230226985077	adult	0.0		46.0	face	adult-47.jpg	0.0	176.64114310863079	0.38330222728927765
174.0	87.40632492579698	ISI	1.0		7.0	face	adult-47.jpg	0.0	177.02444533592006	0.11666894566315023
175.0	87.52299387146013	adult	0.0		45.0	face	adult-47.jpg	1.0	177.1411142815832	0.38330705695170764
175.0	87.51308491361397	pulse	0.0	t		face	adult-47.jpg	1.0	177.13120532373705	
175.0	87.90630092841184	ISI	1.0		6.0	face	adult-47.jpg	1.0	177.52442133853492	0.11668856616688572
176.0	88.02298949457872	adult	0.0		46.0	face	adult-127.jpg	0.0	177.6411099047018	0.38329769948086323
176.0	88.05641166351325	response	0.0	b		face	adult-127.jpg	0.0	177.67453207363633	
176.0	88.19820058855476	pulse	0.0	t		face	adult-127.jpg	0.0	177.81632099867784	
176.0	88.40628719405959	ISI	1.0		2.0	face	adult-127.jpg	0.0	178.02440760418267	0.11668766060483904
177.0	88.52297485466443	adult	0.0		46.0	face	adult-111.jpg	0.0	178.1410952647875	0.3833028309973088
177.0	88.90627768566173	ISI	1.0		6.0	face	adult-111.jpg	0.0	178.52439809578482	0.11668494392051798
177.0	88.94976607832268	pulse	1.0	t		face	adult-111.jpg	0.0	178.56788648844577	
178.0	89.02296262958225	adult	0.0		46.0	face	adult-86.jpg	0.0	178.64108303970534	0.38330132172723097
178.0	89.40626395130948	ISI	1.0		6.0	face	adult-86.jpg	0.0	179.02438436143257	0.11668584948165517
179.0	89.52294980079114	adult	0.0		46.0	face	adult-136.jpg	0.0	179.14107021091422	0.3833034347053399
179.0	89.59821465494588	pulse	0.0	t		face	adult-136.jpg	0.0	179.21633506506896	
179.0	89.90625323549648	ISI	1.0		6.0	face	adult-136.jpg	0.0	179.52437364561956	0.11668464206559293
180.0	90.02293787756207	house	0.0		46.0	place	house-12.jpg	0.0	179.64105828768515	0.3833034347053399
180.0	90.29815588399288	pulse	0.0	t		place	house-12.jpg	0.0	179.91627629411596	
180.0	90.40624131226741	ISI	1.0		7.0	place	house-12.jpg	0.0	180.0243617223905	0.11668886802090128
181.0	90.52293018028831	house	0.0		46.0	place	house-12.jpg	1.0	180.1410505904114	0.383296492064801
181.0	90.90622667235311	ISI	1.0		5.0	place	house-12.jpg	1.0	180.5243470824762	0.11668313279733411
182.0	91.02290980515045	house	0.0		45.0	place	house-80.jpg	0.0	180.64103021527353	0.38330705695170764
182.0	91.01293081719996	pulse	0.0	t		place	house-80.jpg	0.0	180.63105122732304	
182.0	91.18132574834817	response	0.0	b		place	house-80.jpg	0.0	180.79944615847126	
182.0	91.40621686210216	ISI	1.0		3.0	place	house-80.jpg	0.0	181.02433727222524	0.11667377532558021
183.0	91.52289063742774	house	0.0		46.0	place	house-53.jpg	0.0	181.14101104755082	0.3833136977373215
183.0	91.69812316303069	pulse	0.0	t		place	house-53.jpg	0.0	181.31624357315377	
183.0	91.90620433516506	ISI	1.0		6.0	place	house-53.jpg	0.0	181.52432474528814	0.11668645318968629
184.0	92.02289078835474	house	0.0		46.0	place	house-37.jpg	0.0	181.64101119847783	0.38330947178292263
184.0	92.40620026013767	ISI	1.0		6.0	place	house-37.jpg	0.0	182.02432067026075	0.116680114258088
184.0	92.44803388974015	pulse	1.0	t		place	house-37.jpg	0.0	182.06615429986323	
185.0	92.52288037439575	house	0.0		46.0	place	house-99.jpg	0.0	182.14100078451884	0.3833004161651843
185.0	92.90618079056094	ISI	1.0		7.0	place	house-99.jpg	0.0	182.52430120068402	0.11668705689771741
186.0	93.02286784745866	house	0.0		46.0	place	house-2.jpg	0.0	182.64098825758174	0.3833028309973088
186.0	93.09809346060683	pulse	0.0	t		place	house-2.jpg	0.0	182.71621387072992	
186.0	93.40617067845596	ISI	1.0		7.0	place	house-2.jpg	0.0	183.02429108857905	0.11667166234838078
187.0	93.52284234080435	house	0.0		45.0	place	house-39.jpg	0.0	183.14096275092743	0.3833152070064898
187.0	93.79807574178358	pulse	0.0	t		place	house-39.jpg	0.0	183.41619615190666	
187.0	93.90615754781084	ISI	1.0		5.0	place	house-39.jpg	0.0	183.52427795793392	0.11669369768333127
188.0	94.02285124549417	house	0.0		46.0	place	house-96.jpg	0.0	183.64097165561725	0.3832949827956327
188.0	94.4061462282898	ISI	1.0		0.0	place	house-96.jpg	0.0	184.02426663841288	0.1084724049696888
189.0	94.51461863325949	house	0.0		46.0	place	house-112.jpg	0.0	184.13273904338257	0.3915156718021535
189.0	94.50775839976359	pulse	0.0	t		place	house-112.jpg	0.0	184.12587880988667	
189.0	94.90613430506164	ISI	1.0		4.0	place	house-112.jpg	0.0	184.52425471518472	0.11668886801999179
190.0	95.02282317308163	house	0.0		46.0	place	house-136.jpg	0.0	184.64094358320472	0.3833001143120782
190.0	95.19804302082048	pulse	0.0	t		place	house-136.jpg	0.0	184.81616343094356	
190.0	95.40612328739371	ISI	1.0		7.0	place	house-136.jpg	0.0	185.0242436975168	0.11668675504370185
191.0	95.52281004243741	house	0.0		46.0	place	house-126.jpg	0.0	185.1409304525605	0.38329981245806266
191.0	95.90610985489548	ISI	1.0		5.0	place	house-126.jpg	0.0	185.52423026501856	0.11668886802090128
191.0	95.95781108836127	pulse	1.0	t		place	house-126.jpg	0.0	185.57593149848435	
192.0	96.02279872291638	house	0.0		46.0	place	house-100.jpg	0.0	185.64091913303946	0.38330313285132434
192.0	96.4061018557677	ISI	1.0		7.0	place	house-100.jpg	0.0	186.02422226589078	0.11667105864034966
193.0	96.52277291440805	house	0.0		46.0	place	house-43.jpg	0.0	186.14089332453113	0.3833146032993682
193.0	96.5980127146895	pulse	0.0	t		place	house-43.jpg	0.0	186.2161331248126	
193.0	96.90608751770742	ISI	1.0		6.0	place	house-43.jpg	0.0	186.5242079278305	0.11668524577362405
194.0	97.02277276348104	house	0.0		46.0	place	house-87.jpg	0.0	186.64089317360413	0.38330313285132434
194.0	97.29799167547299	pulse	0.0	t		place	house-87.jpg	0.0	186.91611208559607	
194.0	97.40607589633237	ISI	1.0		6.0	place	house-87.jpg	0.0	187.02419630645545	0.11668222723528743
195.0	97.52275812356766	house	0.0		46.0	place	house-26.jpg	0.0	187.14087853369074	0.38330554768162983
195.0	97.90606367124929	ISI	1.0		7.0	place	house-26.jpg	0.0	187.52418408137237	0.12502245038376714
195.0	97.9979081524998	pulse	1.0	t		place	house-26.jpg	0.0	187.6160285626229	
196.0	98.03108612163305	house	0.0		45.0	place	house-3.jpg	0.0	187.64920653175614	0.37496683380322793
196.0	98.40605295543628	ISI	1.0		7.0	place	house-3.jpg	0.0	188.02417336555936	0.11667951055005688
197.0	98.52273246598634	house	0.0		46.0	place	house-9.jpg	0.0	188.14085287610942	0.3833088680748915
197.0	98.6979674064196	pulse	0.0	t		place	house-9.jpg	0.0	188.31608781654268	
197.0	98.90604133406123	ISI	1.0		3.0	place	house-9.jpg	0.0	188.5241617441843	0.11668675504370185
198.0	99.02272808910493	house	0.0		46.0	place	house-58.jpg	0.0	188.640848499228	0.3833025291432932
198.0	99.39781626817421	pulse	0.0	t		place	house-58.jpg	0.0	189.0159366782973	
198.0	99.40603061824822	ISI	1.0		7.0	place	house-58.jpg	0.0	189.0241510283713	0.11668615133567073
199.0	99.5227167695839	house	0.0		46.0	place	house-111.jpg	0.0	189.14083717970698	0.3833028309973088
199.0	99.9060196005812	ISI	1.0		2.0	place	house-111.jpg	0.0	189.5241400107043	0.11668705689680792
200.0	100.02270665747801	house	0.0		46.0	place	house-139.jpg	0.0	189.6408270676011	0.38329981245806266
200.0	100.09779371968853	pulse	0.0	t		place	house-139.jpg	0.0	189.7159141298116	
200.0	100.40600646993607	ISI	1.0		7.0	place	house-139.jpg	0.0	190.02412688005916	0.11668615133567073
201.0	100.52269262127174	house	0.0		46.0	place	house-6.jpg	0.0	190.14081303139483	0.38329981245806266
201.0	100.79779471580605	pulse	0.0	t		place	house-6.jpg	0.0	190.41591512592913	
201.0	100.9059924337298	ISI	1.0		6.0	place	house-6.jpg	0.0	190.5241128438529	0.11669218841416296
202.0	101.02268462214397	house	0.0		46.0	place	house-7.jpg	0.0	190.64080503226705	0.3832970957728321
202.0	101.4059817179168	ISI	1.0		6.0	place	house-7.jpg	0.0	191.02410212803989	0.12502395965293545
202.0	101.49779058040713	pulse	1.0	t		place	house-7.jpg	0.0	191.1159109905302	
203.0	101.53100567756974	house	0.0		45.0	place	house-18.jpg	0.0	191.14912608769282	0.3749638152639818
203.0	101.90596949283372	ISI	1.0		6.0	place	house-18.jpg	0.0	191.5240899029568	0.11668826431287016
204.0	102.02265775714659	body	0.0		46.0	body	body-141.jpg	0.0	191.64077816726967	0.3832672122380245
204.0	102.19784681578858	pulse	0.0	t		body	body-141.jpg	0.0	191.81596722591166	
204.0	102.40592496938461	ISI	1.0		7.0	body	body-141.jpg	0.0	192.0240453795077	0.11668826431287016
205.0	102.52261323369748	body	0.0		46.0	body	body-53.jpg	0.0	192.14073364382057	0.38330373655844596
205.0	102.89769628125032	pulse	0.0	t		body	body-53.jpg	0.0	192.5158166913734	
205.0	102.90591697025593	ISI	1.0		3.0	body	body-53.jpg	0.0	192.524037380379	0.11667981240407244
206.0	103.02259678266	body	0.0		46.0	body	body-82.jpg	0.0	192.6407171927831	0.3833143014453526
206.0	103.40591108410536	ISI	1.0		7.0	body	body-82.jpg	0.0	193.02403149422844	0.11667981240407244
207.0	103.52259089650943	body	0.0		46.0	body	body-111.jpg	0.0	193.1407113066325	0.383294077233586
207.0	103.59781620780359	pulse	0.0	t		body	body-111.jpg	0.0	193.21593661792667	
207.0	103.90588497374301	ISI	1.0		7.0	body	body-111.jpg	0.0	193.5240053838661	0.11669158470613183
208.0	104.02257655844915	body	0.0		46.0	body	body-88.jpg	0.0	193.64069696857223	0.38331399959133705
208.0	104.29779547044109	pulse	0.0	t		body	body-88.jpg	0.0	193.91591588056417	
208.0	104.40589055804048	ISI	1.0		7.0	body	body-88.jpg	0.0	194.02401096816357	0.11667437903361133
209.0	104.5225649370741	body	0.0		46.0	body	body-131.jpg	0.0	194.14068534719718	0.38330373655844596
209.0	104.90586867363254	ISI	1.0		7.0	body	body-131.jpg	0.0	194.52398908375562	0.11667830313490413
210.0	105.02254697676744	body	0.0		45.0	body	body-138.jpg	0.0	194.64066738689053	0.38331007549004426
210.0	105.01428100967678	pulse	0.0	t		body	body-138.jpg	0.0	194.63240141979986	
210.0	105.40585705225749	ISI	1.0		7.0	body	body-138.jpg	0.0	195.02397746238057	0.11668524577453354
211.0	105.52254229803202	body	0.0		46.0	body	body-143.jpg	0.0	195.1406627081551	0.3833034347044304
211.0	105.69764351718914	pulse	0.0	t		body	body-143.jpg	0.0	195.31576392731222	
211.0	105.90584573273645	ISI	1.0		6.0	body	body-143.jpg	0.0	195.52396614285954	0.11669822549174569
212.0	106.0225439582282	body	0.0		46.0	body	body-100.jpg	0.0	195.64066436835128	0.38328894571804994
212.0	106.40583290394625	ISI	1.0		6.0	body	body-100.jpg	0.0	196.02395331406933	0.11668615133567073
212.0	106.39764602257674	pulse	1.0	t		body	body-100.jpg	0.0	196.01576643269982	
213.0	106.52251905528192	body	0.0		46.0	body	body-39.jpg	0.0	196.140639465405	0.3833001143120782
213.0	106.905819169594	ISI	1.0		7.0	body	body-39.jpg	0.0	196.52393957971708	0.11668947172802291
214.0	107.02250864132202	body	0.0		46.0	body	body-116.jpg	0.0	196.6406290514451	0.38329920875094103
214.0	107.09759751465572	pulse	0.0	t		body	body-116.jpg	0.0	196.7157179247788	
214.0	107.40580785007296	ISI	1.0		7.0	body	body-116.jpg	0.0	197.02392826019604	0.11668675504279236
215.0	107.52249460511575	body	0.0		46.0	body	body-103.jpg	0.0	197.14061501523884	0.383301623582156
215.0	107.7975954922349	pulse	0.0	t		body	body-103.jpg	0.0	197.415715902358	
215.0	107.90579622869791	ISI	1.0		11.0	body	body-103.jpg	0.0	197.523916638821	0.09999695127498853
216.0	108.0057931799729	baseline	0.0		48.0		baseline	0.0	197.62391359009598	0.400060853746254
216.0	108.40585403371915	ISI	1.0		11.0		baseline	0.0	198.02397444384223	0.09999755498301965
216.0	108.49763452194293	pulse	1.0	t			baseline	0.0	198.115754932066	
217.0	108.50585158870217	baseline	0.0		48.0		baseline	0.0	198.12397199882525	0.39998991807988205
217.0	108.90584150678205	ISI	1.0		11.0		baseline	0.0	198.52396191690514	0.09999695127589803
218.0	109.00583845805795	baseline	0.0		48.0		baseline	0.0	198.62395886818103	0.39999142734905035
218.0	109.19763068839893	pulse	0.0	t			baseline	0.0	198.81575109852201	
218.0	109.405829885407	ISI	1.0		11.0		baseline	0.0	199.02395029553008	0.0999963475678669
219.0	109.50582623297487	baseline	0.0		48.0		baseline	0.0	199.12394664309795	0.39999444588829647
219.0	109.89760481951998	pulse	0.0	t			baseline	0.0	199.51572522964307	
219.0	109.90582067886317	ISI	1.0		11.0		baseline	0.0	199.52394108898625	0.09999514015271416
220.0	110.00581581901588	baseline	0.0		48.0		baseline	0.0	199.62393622913896	0.39999052178700367
220.0	110.40580634080288	ISI	1.0		11.0		baseline	0.0	200.02392675092597	0.10000087537628133
221.0	110.50580721617916	baseline	0.0		48.0		baseline	0.0	200.12392762630225	0.39998991807988205
221.0	110.5977171997256	pulse	0.0	t			baseline	0.0	200.21583760984868	
221.0	110.90579713425905	ISI	1.0		11.0		baseline	0.0	200.52391754438213	0.09999574386074528
222.0	111.00579287811979	baseline	0.0		48.0		baseline	0.0	200.62391328824287	0.3999917292030659
222.0	111.29757149484976	pulse	0.0	t			baseline	0.0	200.91569190497285	
222.0	111.40578460732286	ISI	1.0		11.0		baseline	0.0	201.02390501744594	0.09999604571385134
223.0	111.50578065303671	baseline	0.0		48.0		baseline	0.0	201.1239010631598	0.39999233291109704
223.0	111.9057729859478	ISI	1.0		11.0		baseline	0.0	201.5238933960709	0.09999846054506634
223.0	111.9975537760265	pulse	1.0	t			baseline	0.0	201.6156741861496	
224.0	112.00577144649287	baseline	0.0		48.0		baseline	0.0	201.62389185661596	0.39998901251783536
224.0	112.40576045901071	ISI	1.0		11.0		baseline	0.0	202.0238808691338	0.0999963475678669
225.0	112.50575680657857	baseline	0.0		48.0		baseline	0.0	202.12387721670166	0.3999908236419287
225.0	112.69753424607916	pulse	0.0	t			baseline	0.0	202.31565465620224	
225.0	112.9057476302205	ISI	1.0		11.0		baseline	0.0	202.5238680403436	0.10001808104789234
226.0	113.0057657112684	baseline	0.0		48.0		baseline	0.0	202.62388612139148	0.3999724105542555
226.0	113.39751139573946	pulse	0.0	t			baseline	0.0	203.01563180586254	
226.0	113.40573812182265	ISI	1.0		11.0		baseline	0.0	203.02385853194573	0.09999544200582022
227.0	113.50573356382847	baseline	0.0		48.0		baseline	0.0	203.12385397395155	0.39999142734995985
227.0	113.90572499117843	ISI	1.0		5.0		baseline	0.0	203.52384540130151	0.1166511362835081
228.0	114.02237612746194	car	0.0		46.0	object	car-28.jpg	0.0	203.64049653758502	0.3832729474615917
228.0	114.09750514736334	pulse	0.0	t		object	car-28.jpg	0.0	203.71562555748642	
228.0	114.40564907492353	ISI	1.0		6.0	object	car-28.jpg	0.0	204.0237694850466	0.11667890684202575
229.0	114.52232798176556	car	0.0		46.0	object	car-70.jpg	0.0	204.14044839188864	0.38330373655844596
229.0	114.79738419450769	pulse	0.0	t		object	car-70.jpg	0.0	204.41550460463077	
229.0	114.905631718324	ISI	1.0		8.0	object	car-70.jpg	0.0	204.5237521284471	0.11667075678724359
230.0	115.02230247511125	car	0.0		46.0	object	car-2.jpg	0.0	204.64042288523433	0.3833185273997515
230.0	115.405621002511	ISI	1.0		6.0	object	car-2.jpg	0.0	205.02374141263408	0.12502003555255214
230.0	115.49737915354763	pulse	1.0	t		object	car-2.jpg	0.0	205.1154995636707	
231.0	115.53064103806355	car	0.0		45.0	object	car-138.jpg	0.0	205.14876144818663	0.37496653194921237
231.0	115.90560757001276	ISI	1.0		7.0	object	car-138.jpg	0.0	205.52372798013585	0.11668977358203847
232.0	116.0222973435948	car	0.0		46.0	object	car-127.jpg	0.0	205.64041775371788	0.3833004161660938
232.0	116.19738467747356	pulse	0.0	t		object	car-127.jpg	0.0	205.81550508759665	
232.0	116.4055977597609	ISI	1.0		8.0	object	car-127.jpg	0.0	206.02371816988398	0.11669128285211627
233.0	116.52228904261301	car	0.0		46.0	object	car-127.jpg	1.0	206.1404094527361	0.3832970957728321
233.0	116.8973838624679	pulse	0.0	t		object	car-127.jpg	1.0	206.515504272591	
233.0	116.90558613838584	ISI	1.0		6.0	object	car-127.jpg	1.0	206.52370654850893	0.11668524577453354
234.0	117.02227138416038	car	0.0		46.0	object	car-46.jpg	0.0	206.64039179428346	0.38330313285041484
234.0	117.0890520308576	response	0.0	b		object	car-46.jpg	0.0	206.70717244098068	
234.0	117.40557451701079	ISI	1.0		6.0	object	car-46.jpg	0.0	207.02369492713387	0.11668675504370185
235.0	117.5222612720545	car	0.0		46.0	object	car-92.jpg	0.0	207.14038168217758	0.3833001143120782
235.0	117.59739240493309	pulse	0.0	t		object	car-92.jpg	0.0	207.21551281505617	
235.0	117.90556138636657	ISI	1.0		6.0	object	car-92.jpg	0.0	207.52368179648965	0.10835377638795762
236.0	118.01391516275453	car	0.0		47.0	object	car-75.jpg	0.0	207.6320355728776	0.39163792263025243
236.0	118.29733031358683	pulse	0.0	t		object	car-75.jpg	0.0	207.9154507237099	
236.0	118.40555308538478	ISI	1.0		6.0	object	car-75.jpg	0.0	208.02367349550786	0.10835196526477375
237.0	118.51390505064956	car	0.0		47.0	object	car-43.jpg	0.0	208.13202546077264	0.3916333948209285
237.0	118.90553844547048	ISI	1.0		5.0	object	car-43.jpg	0.0	208.52365885559357	0.11668977358203847
237.0	118.99732315964957	pulse	1.0	t		object	car-43.jpg	0.0	208.61544356977265	
238.0	119.02222821905252	car	0.0		46.0	object	car-106.jpg	0.0	208.6403486291756	0.3832995106049566
238.0	119.40552772965748	ISI	1.0		7.0	object	car-106.jpg	0.0	209.02364813978056	0.11668615133567073
239.0	119.52221388099315	car	0.0		46.0	object	car-82.jpg	0.0	209.14033429111623	0.38328109751637385
239.0	119.69728974442296	pulse	0.0	t		object	car-82.jpg	0.0	209.31541015454604	
239.0	119.90549497850952	ISI	1.0		2.0	object	car-82.jpg	0.0	209.5236153886326	0.11670788481569616
240.0	120.02220286332522	house	0.0		46.0	place	house-76.jpg	0.0	209.6403232734483	0.3833408645887175
240.0	120.39729889059618	pulse	0.0	t		place	house-76.jpg	0.0	210.01541930071926	
240.0	120.40554372791394	ISI	1.0		5.0	place	house-76.jpg	0.0	210.02366413803702	0.11667800127997907
241.0	120.52222172919392	house	0.0		46.0	place	house-140.jpg	0.0	210.140342139317	0.38328743644888164
241.0	120.9055091656428	ISI	1.0		5.0	place	house-140.jpg	0.0	210.52362957576588	0.11670305515326618
242.0	121.02221222079606	house	0.0		46.0	place	house-129.jpg	0.0	210.64033263091915	0.3833182255457359
242.0	121.09728539772732	pulse	0.0	t		place	house-129.jpg	0.0	210.7154058078504	
242.0	121.4055304463418	ISI	1.0		6.0	place	house-129.jpg	0.0	211.02365085646488	0.11667045493322803
243.0	121.52220090127503	house	0.0		46.0	place	house-129.jpg	1.0	211.1403213113981	0.38329739762684767
243.0	121.79730631620168	pulse	0.0	t		place	house-129.jpg	1.0	211.41542672632477	
243.0	121.90549829890188	ISI	1.0		5.0	place	house-129.jpg	1.0	211.52361870902496	0.1166879624597641
244.0	122.02218626136164	house	0.0		46.0	place	house-36.jpg	0.0	211.64030667148472	0.38330313285041484
244.0	122.03894669894089	response	0.0	b		place	house-36.jpg	0.0	211.65706710906397	
244.0	122.40548939421205	ISI	1.0		6.0	place	house-36.jpg	0.0	212.02360980433514	0.12502607263013488
244.0	122.49732331057658	pulse	1.0	t		place	house-36.jpg	0.0	212.11544372069966	
245.0	122.53051546684219	house	0.0		45.0	place	house-104.jpg	0.0	212.14863587696527	0.3749614004336763
245.0	122.90547686727587	ISI	1.0		7.0	place	house-104.jpg	0.0	212.52359727739895	0.11668947172802291
246.0	123.02216633900389	house	0.0		46.0	place	house-8.jpg	0.0	212.64028674912697	0.3832657029679467
246.0	123.19724612653499	pulse	0.0	t		place	house-8.jpg	0.0	212.81536653665808	
246.0	123.40543204197184	ISI	1.0		7.0	place	house-8.jpg	0.0	213.02355245209492	0.11667075678724359
247.0	123.52210279875908	house	0.0		46.0	place	house-17.jpg	0.0	213.14022320888216	0.38331882925376703
247.0	123.89720939091603	pulse	0.0	t		place	house-17.jpg	0.0	213.51532980103912	
247.0	123.90542162801285	ISI	1.0		7.0	place	house-17.jpg	0.0	213.52354203813593	0.11668645318968629
248.0	124.02210808120253	house	0.0		46.0	place	house-122.jpg	0.0	213.64022849132562	0.38330132172723097
248.0	124.40540940292976	ISI	1.0		7.0	place	house-122.jpg	0.0	214.02352981305285	0.11668675504370185
249.0	124.52209615797346	house	0.0		46.0	place	house-23.jpg	0.0	214.14021656809655	0.3833019254352621
249.0	124.59720797220234	pulse	0.0	t		place	house-23.jpg	0.0	214.21532838232542	
249.0	124.90539808340873	ISI	1.0		7.0	place	house-23.jpg	0.0	214.5235184935318	0.11670275330016011
250.0	125.02210083670889	house	0.0		46.0	place	house-102.jpg	0.0	214.64022124683197	0.3832853234707727
250.0	125.2971863292787	pulse	0.0	t		place	house-102.jpg	0.0	214.91530673940179	
250.0	125.40538616017966	ISI	1.0		6.0	place	house-102.jpg	0.0	215.02350657030274	0.1166840383584713
251.0	125.52207019853813	house	0.0		46.0	place	house-59.jpg	0.0	215.14019060866121	0.3833034347053399
251.0	125.90537363324347	ISI	1.0		2.0	place	house-59.jpg	0.0	215.52349404336655	0.11676372778674704
251.0	125.99714838624368	pulse	1.0	t		place	house-59.jpg	0.0	215.61526879636676	
252.0	126.02213736103022	word	0.0		46.0	character	word-111.jpg	0.0	215.6402577711533	0.3832243489841858
252.0	126.4053617100144	ISI	1.0		6.0	character	word-111.jpg	0.0	216.0234821201375	0.11668524577362405
253.0	126.52204695578803	word	0.0		46.0	character	word-17.jpg	0.0	216.1401673659111	0.383304038413371
253.0	126.69714032674437	pulse	0.0	t		character	word-17.jpg	0.0	216.31526073686746	
253.0	126.9053509942014	ISI	1.0		7.0	character	word-17.jpg	0.0	216.52347140432448	0.1166864531887768
254.0	127.02203744739018	word	0.0		46.0	character	word-48.jpg	0.0	216.64015785751326	0.3833034347053399
254.0	127.3971180801127	pulse	0.0	t		character	word-48.jpg	0.0	217.0152384902358	
254.0	127.40534088209552	ISI	1.0		6.0	character	word-48.jpg	0.0	217.0234612922186	0.11668584948165517
255.0	127.52202673157717	word	0.0		46.0	character	word-68.jpg	0.0	217.14014714170025	0.3833010198741249
255.0	127.9053277514513	ISI	1.0		7.0	character	word-68.jpg	0.0	217.52344816157438	0.11668524577362405
256.0	128.02201299722492	word	0.0		46.0	character	word-45.jpg	0.0	217.640133407348	0.3833028309973088
256.0	128.09710307797377	pulse	0.0	t		character	word-45.jpg	0.0	217.71522348809685	
256.0	128.40531582822223	ISI	1.0		6.0	character	word-45.jpg	0.0	218.0234362383453	0.11669098099810071
257.0	128.52200680922033	word	0.0		46.0	character	word-4.jpg	0.0	218.1401272193434	0.3832970957728321
257.0	128.79707811465687	pulse	0.0	t		character	word-4.jpg	0.0	218.41519852477995	
257.0	128.90530390499316	ISI	1.0		6.0	character	word-4.jpg	0.0	218.52342431511624	0.11668766060483904
258.0	129.021991565598	word	0.0		46.0	character	word-135.jpg	0.0	218.64011197572108	0.3833302997018109
258.0	129.4053218652998	ISI	1.0		6.0	character	word-135.jpg	0.0	219.0234422754229	0.125024261506951
258.0	129.49718325036883	pulse	1.0	t		character	word-135.jpg	0.0	219.11530366049192	
259.0	129.53034612680676	word	0.0		45.0	character	word-58.jpg	0.0	219.14846653692985	0.37496653194921237
259.0	129.90531265875597	ISI	1.0		6.0	character	word-58.jpg	0.0	219.52343306887906	0.1166879624588546
260.0	130.02200062121483	word	0.0		46.0	character	word-106.jpg	0.0	219.6401210313379	0.38326841965317726
260.0	130.19704690296385	pulse	0.0	t		character	word-106.jpg	0.0	219.81516731308693	
260.0	130.405269040868	ISI	1.0		6.0	character	word-106.jpg	0.0	220.0233894509911	0.11668554762763961
261.0	130.52195458849565	word	0.0		46.0	character	word-91.jpg	0.0	220.14007499861873	0.38330373655935546
261.0	130.89701529886133	pulse	0.0	t		character	word-91.jpg	0.0	220.51513570898442	
261.0	130.905258325055	ISI	1.0		6.0	character	word-91.jpg	0.0	220.52337873517808	0.11668434021248686
262.0	131.0219426652675	word	0.0		46.0	character	word-72.jpg	0.0	220.64006307539057	0.3833025291432932
262.0	131.40524519441078	ISI	1.0		7.0	character	word-72.jpg	0.0	221.02336560453386	0.11668735875082348
263.0	131.5219325531616	word	0.0		46.0	character	word-130.jpg	0.0	221.1400529632847	0.3833004161660938
263.0	131.59700754121604	pulse	0.0	t		character	word-130.jpg	0.0	221.21512795133913	
263.0	131.9052329693277	ISI	1.0		6.0	character	word-130.jpg	0.0	221.52335337945078	0.11669762178371457
264.0	132.0219305911114	house	0.0		46.0	place	house-114.jpg	0.0	221.6400510012345	0.3832916624032805
264.0	132.296969296327	pulse	0.0	t		place	house-114.jpg	0.0	221.9150897064501	
264.0	132.4052222535147	ISI	1.0		8.0	place	house-114.jpg	0.0	222.02334266363778	0.11667769942596351
265.0	132.52189995294066	house	0.0		46.0	place	house-114.jpg	1.0	222.14002036306374	0.38331007549095375
265.0	132.9052100284316	ISI	1.0		6.0	place	house-114.jpg	1.0	222.5233304385547	0.12502094111368933
265.0	132.9969992704191	pulse	1.0	t		place	house-114.jpg	1.0	222.6151196805422	
266.0	133.0302309695453	house	0.0		44.0	place	house-92.jpg	0.0	222.64835137966838	0.3749662300951968
266.0	133.0346978034995	response	0.0	b		place	house-92.jpg	0.0	222.6528182136226	
266.0	133.4051971996405	ISI	1.0		6.0	place	house-92.jpg	0.0	223.02331760976358	0.11668584948256466
267.0	133.52188304912306	house	0.0		46.0	place	house-27.jpg	0.0	223.14000345924615	0.38330373655844596
267.0	133.69697521266335	pulse	0.0	t		place	house-27.jpg	0.0	223.31509562278643	
267.0	133.9051867856815	ISI	1.0		6.0	place	house-27.jpg	0.0	223.5233071958046	0.10835347453485156
268.0	134.01354026021636	house	0.0		47.0	place	house-105.jpg	0.0	223.63166067033944	0.3916358096521435
268.0	134.3969535697388	pulse	0.0	t		place	house-105.jpg	0.0	224.01507397986188	
268.0	134.4051760698685	ISI	1.0		5.0	place	house-105.jpg	0.0	224.0232964799916	0.10835196526477375
269.0	134.51352803513328	house	0.0		47.0	place	house-144.jpg	0.0	224.13164844525636	0.3916343003829752
269.0	134.90516233551625	ISI	1.0		5.0	place	house-144.jpg	0.0	224.52328274563934	0.10835377638795762
270.0	135.0135161119042	house	0.0		47.0	place	house-134.jpg	0.0	224.6316365220273	0.3916352059441124
270.0	135.09694007686994	pulse	0.0	t		place	house-134.jpg	0.0	224.71506048699302	
270.0	135.40515131784832	ISI	1.0		3.0	place	house-134.jpg	0.0	225.0232717279714	0.10835287082682044
271.0	135.51350418867514	house	0.0		47.0	place	house-49.jpg	0.0	225.13162459879823	0.3916352059450219
271.0	135.7969187357994	pulse	0.0	t		place	house-49.jpg	0.0	225.4150391459225	
271.0	135.90513939462016	ISI	1.0		6.0	place	house-49.jpg	0.0	225.52325980474325	0.10835166341075819
272.0	136.01349105803092	house	0.0		47.0	place	house-68.jpg	0.0	225.631611468154	0.3916696172882439
272.0	136.40516067531917	ISI	1.0		2.0	place	house-68.jpg	0.0	226.02328108544225	0.11668675504370185
272.0	136.49695655809228	pulse	1.0	t		place	house-68.jpg	0.0	226.11507696821536	
273.0	136.52184743036287	house	0.0		46.0	place	house-48.jpg	0.0	226.13996784048595	0.3832690233612084
273.0	136.90511645372408	ISI	1.0		6.0	place	house-48.jpg	0.0	226.52323686384716	0.10835196526477375
274.0	137.01346841898885	house	0.0		47.0	place	house-25.jpg	0.0	226.63158882911193	0.3916333948209285
274.0	137.19689325933086	pulse	0.0	t		place	house-25.jpg	0.0	226.81501366945395	
274.0	137.40510181380978	ISI	1.0		6.0	place	house-25.jpg	0.0	227.02322222393286	0.10838365992458421
275.0	137.51348547373436	house	0.0		47.0	place	house-98.jpg	0.0	227.13160588385745	0.39160019089194975
275.0	137.89686618303585	pulse	0.0	t		place	house-98.jpg	0.0	227.51498659315894	
275.0	137.9050856646263	ISI	1.0		11.0	place	house-98.jpg	0.0	227.5232060747494	0.0999909141974058
276.0	138.00507657882372	baseline	0.0		48.0		baseline	0.0	227.6231969889468	0.399997162573527
276.0	138.40507374139725	ISI	1.0		11.0		baseline	0.0	228.02319415152033	0.10000449762355856
277.0	138.5050782390208	baseline	0.0		48.0		baseline	0.0	228.1231986491439	0.3999893143718509
277.0	138.59685359572904	pulse	0.0	t			baseline	0.0	228.21497400585213	
277.0	138.90506755339266	ISI	1.0		11.0		baseline	0.0	228.52318796351574	0.09999906425309746
278.0	139.00506661764575	baseline	0.0		48.0		baseline	0.0	228.62318702776884	0.3999887106638198
278.0	139.29683738617496	pulse	0.0	t			baseline	0.0	228.91495779629804	
278.0	139.40505532830957	ISI	1.0		11.0		baseline	0.0	229.02317573843266	0.09999755498392915
279.0	139.5050528832935	baseline	0.0		48.0		baseline	0.0	229.12317329341658	0.39999142734905035
279.0	139.90504431064255	ISI	1.0		11.0		baseline	0.0	229.52316472076564	0.09999996981423465
279.0	139.99682117661996	pulse	1.0	t			baseline	0.0	229.61494158674304	
280.0	140.0050442804568	baseline	0.0		48.0		baseline	0.0	229.62316469057987	0.39998991807988205
280.0	140.40503419853667	ISI	1.0		11.0		baseline	0.0	230.02315460865975	0.0999963475678669
281.0	140.50503054610454	baseline	0.0		48.0		baseline	0.0	230.12315095622762	0.39999142734995985
281.0	140.69680617448194	pulse	0.0	t			baseline	0.0	230.31492658460502	
281.0	140.9050219734545	ISI	1.0		11.0		baseline	0.0	230.52314238357758	0.09999695127498853
282.0	141.00501892472948	baseline	0.0		48.0		baseline	0.0	230.62313933485257	0.3999911254959443
282.0	141.39678845565777	pulse	0.0	t			baseline	0.0	231.01490886578085	
282.0	141.40501005022543	ISI	1.0		11.0		baseline	0.0	231.0231304603485	0.09998608453497582
283.0	141.5049961347604	baseline	0.0		48.0		baseline	0.0	231.1231165448835	0.40000169038194144
283.0	141.90499782514235	ISI	1.0		11.0		baseline	0.0	231.52311823526543	0.09999785683794471
284.0	142.0049956819803	baseline	0.0		48.0		baseline	0.0	231.62311609210337	0.39999082364101923
284.0	142.09677526464293	pulse	0.0	t			baseline	0.0	231.714895674766	
284.0	142.4049865056213	ISI	1.0		11.0		baseline	0.0	232.0231069157444	0.09999906425309746
285.0	142.5049855698744	baseline	0.0		48.0		baseline	0.0	232.1231059799975	0.4000593444761762
285.0	142.79682485923786	pulse	0.0	t			baseline	0.0	232.41494526936094	
285.0	142.90504491435058	ISI	1.0		11.0		baseline	0.0	232.52316532447367	0.09999664942188247
286.0	143.00504156377247	baseline	0.0		48.0		baseline	0.0	232.62316197389555	0.3999911254950348
286.0	143.4050326892675	ISI	1.0		11.0		baseline	0.0	233.02315309939058	0.1000002716682502
286.0	143.4968092533918	pulse	1.0	t			baseline	0.0	233.11492966351489	
287.0	143.50503296093575	baseline	0.0		48.0		baseline	0.0	233.12315337105883	0.39998840881071374
287.0	143.90502136974646	ISI	1.0		11.0		baseline	0.0	233.52314177986955	0.0999987623990819
288.0	144.00502013214555	baseline	0.0		48.0		baseline	0.0	233.62314054226863	0.3999896162258665
288.0	144.1967948549609	pulse	0.0	t			baseline	0.0	233.81491526508398	
288.0	144.4050097483714	ISI	1.0		11.0		baseline	0.0	234.0231301584945	0.09999695127589803
289.0	144.5050066996473	baseline	0.0		48.0		baseline	0.0	234.1231271097704	0.39999535144943366
289.0	144.8967870973156	pulse	0.0	t			baseline	0.0	234.5149075074387	
289.0	144.90500205109674	ISI	1.0		11.0		baseline	0.0	234.52312246121983	0.10001445880243409
290.0	145.00501650989918	baseline	0.0		48.0		baseline	0.0	234.62313692002226	0.39997029757614655
290.0	145.40498680747532	ISI	1.0		11.0		baseline	0.0	235.0231072175984	0.09999695127589803
291.0	145.50498375875122	baseline	0.0		48.0		baseline	0.0	235.1231041688743	0.39999082364101923
291.0	145.5967600210206	pulse	0.0	t			baseline	0.0	235.21488043114368	
291.0	145.90497458239224	ISI	1.0		11.0		baseline	0.0	235.52309499251533	0.09999664942188247
292.0	146.00497123181412	baseline	0.0		48.0		baseline	0.0	235.6230916419372	0.39999142734995985
292.0	146.2967438114665	pulse	0.0	t			baseline	0.0	235.9148642215896	
292.0	146.40496265916408	ISI	1.0		11.0		baseline	0.0	236.02308306928717	0.09999815869105078
293.0	146.50496081785514	baseline	0.0		48.0		baseline	0.0	236.12308122797822	0.3999896162258665
293.0	146.904950434081	ISI	1.0		11.0		baseline	0.0	236.52307084420409	0.09999815869105078
293.0	146.99672639449727	pulse	1.0	t			baseline	0.0	236.61484680462036	
294.0	147.00494859277205	baseline	0.0		48.0		baseline	0.0	236.62306900289514	0.3999908236419287
294.0	147.40493941641398	ISI	1.0		11.0		baseline	0.0	237.02305982653706	0.09999604571385134
295.0	147.50493546212783	baseline	0.0		48.0		baseline	0.0	237.12305587225092	0.39999142734905035
295.0	147.69670927938114	pulse	0.0	t			baseline	0.0	237.31482968950422	
295.0	147.90492688947688	ISI	1.0		11.0		baseline	0.0	237.52304729959997	0.1000002716682502
296.0	148.00492716114513	baseline	0.0		48.0		baseline	0.0	237.62304757126822	0.39999052178791317
296.0	148.39669367353508	pulse	0.0	t			baseline	0.0	238.01481408365817	
296.0	148.40491768293305	ISI	1.0		11.0		baseline	0.0	238.02303809305613	0.09999514015271416
297.0	148.50491282308576	baseline	0.0		48.0		baseline	0.0	238.12303323320884	0.39999142734905035
297.0	148.9049042504348	ISI	1.0		11.0		baseline	0.0	238.5230246605579	0.09999695127589803
298.0	149.0049012017107	baseline	0.0		48.0		baseline	0.0	238.6230216118338	0.3999911254950348
298.0	149.09664516561315	pulse	0.0	t			baseline	0.0	238.71476557573624	
298.0	149.40489232720574	ISI	1.0		11.0		baseline	0.0	239.02301273732883	0.09999604571385134
299.0	149.5048883729196	baseline	0.0		48.0		baseline	0.0	239.12300878304268	0.3999920310570815
299.0	149.79665612290955	pulse	0.0	t			baseline	0.0	239.41477653303264	
299.0	149.90488040397668	ISI	1.0		4.0		baseline	0.0	239.52300081409976	0.11665777707003144
300.0	150.0215381810467	house	0.0		46.0	place	house-90.jpg	0.0	239.6396585911698	0.38325996774347004
300.0	150.40479814879018	ISI	1.0		7.0	place	house-90.jpg	0.0	240.02291855891326	0.11668615133567073
300.0	150.49657199622925	pulse	1.0	t		place	house-90.jpg	0.0	240.11469240635233	
301.0	150.52148430012585	house	0.0		46.0	place	house-20.jpg	0.0	240.13960471024893	0.38330071802010934
301.0	150.90478501814596	ISI	1.0		7.0	place	house-20.jpg	0.0	240.52290542826904	0.11669007543605403
302.0	151.021475093582	house	0.0		46.0	place	house-20.jpg	1.0	240.6395955037051	0.38329981245806266
302.0	151.1965585033604	pulse	0.0	t		place	house-20.jpg	1.0	240.81467891348348	
302.0	151.40477490604007	ISI	1.0		7.0	place	house-20.jpg	1.0	241.02289531616316	0.11668494392051798
303.0	151.5214598499606	house	0.0		46.0	place	house-115.jpg	0.0	241.13958026008368	0.3833058495356454
303.0	151.63821482398453	response	0.0	b		place	house-115.jpg	0.0	241.2563352341076	
303.0	151.89652176774052	pulse	0.0	t		place	house-115.jpg	0.0	241.5146421778636	
303.0	151.90476569949624	ISI	1.0		6.0	place	house-115.jpg	0.0	241.52288610961932	0.11668222723528743
304.0	152.02144792673153	house	0.0		46.0	place	house-124.jpg	0.0	241.6395683368546	0.38330373655844596
304.0	152.40475166328997	ISI	1.0		7.0	place	house-124.jpg	0.0	242.02287207341305	0.11668434021248686
305.0	152.52143600350246	house	0.0		46.0	place	house-91.jpg	0.0	242.13955641362554	0.3833028309973088
305.0	152.59652910279056	pulse	0.0	t		place	house-91.jpg	0.0	242.21464951291364	
305.0	152.90473883449977	ISI	1.0		6.0	place	house-91.jpg	0.0	242.52285924462285	0.11668675504370185
306.0	153.02142558954347	house	0.0		46.0	place	house-84.jpg	0.0	242.63954599966655	0.3833034347044304
306.0	153.29653160817816	pulse	0.0	t		place	house-84.jpg	0.0	242.91465201830124	
306.0	153.4047290242479	ISI	1.0		6.0	place	house-84.jpg	0.0	243.02284943437098	0.11669792363773013
307.0	153.52142694788563	house	0.0		46.0	place	house-62.jpg	0.0	243.1395473580087	0.38327626785394386
307.0	153.90470321573957	ISI	1.0		6.0	place	house-62.jpg	0.0	243.52282362586266	0.11669822549174569
307.0	153.99649004289677	pulse	1.0	t		place	house-62.jpg	0.0	243.61461045301985	
308.0	154.02140144123132	house	0.0		46.0	place	house-33.jpg	0.0	243.6395218513544	0.3833152070073993
308.0	154.40471664823872	ISI	1.0		7.0	place	house-33.jpg	0.0	244.0228370583618	0.11667649201081076
309.0	154.52139314024953	house	0.0		46.0	place	house-125.jpg	0.0	244.1395135503726	0.38327415487674443
309.0	154.69647715373503	pulse	0.0	t		place	house-125.jpg	0.0	244.31459756385811	
309.0	154.90466729512627	ISI	1.0		5.0	place	house-125.jpg	0.0	244.52278770524936	0.11671120520895784
310.0	155.02137850033523	house	0.0		46.0	place	house-61.jpg	0.0	244.63949891045831	0.38329739762684767
310.0	155.39645671822655	pulse	0.0	t		place	house-61.jpg	0.0	245.01457712834963	
310.0	155.40467589796208	ISI	1.0		6.0	place	house-61.jpg	0.0	245.02279630808516	0.11669037729097909
311.0	155.52136627525306	house	0.0		46.0	place	house-30.jpg	0.0	245.13948668537614	0.38330313285041484
311.0	155.90466940810347	ISI	1.0		6.0	place	house-30.jpg	0.0	245.52278981822656	0.1166840383584713
312.0	156.02135344646194	car	0.0		46.0	object	car-118.jpg	0.0	245.63947385658503	0.3833348275102253
312.0	156.09647673113977	pulse	0.0	t		object	car-118.jpg	0.0	245.71459714126286	
312.0	156.40468827397217	ISI	1.0		6.0	object	car-118.jpg	0.0	246.02280868409525	0.11668886802090128
313.0	156.52137714199307	car	0.0		46.0	object	car-135.jpg	0.0	246.13949755211615	0.38330132172723097
313.0	156.79645961602364	pulse	0.0	t		object	car-135.jpg	0.0	246.41458002614672	
313.0	156.9046784637203	ISI	1.0		6.0	object	car-135.jpg	0.0	246.52279887384339	0.11666713454087585
314.0	157.02134559826118	car	0.0		46.0	object	car-65.jpg	0.0	246.63946600838426	0.3833206403769509
314.0	157.40466623863813	ISI	1.0		7.0	object	car-65.jpg	0.0	247.0227866487612	0.12501430032807548
314.0	157.4964760066905	pulse	1.0	t		object	car-65.jpg	0.0	247.11459641681358	
315.0	157.5296805389662	car	0.0		45.0	object	car-65.jpg	1.0	247.1478009490893	0.37497528571202565
315.0	157.90465582467823	ISI	1.0		7.0	object	car-65.jpg	1.0	247.5227762348013	0.11668766060483904
316.0	158.02134348528307	car	0.0		46.0	object	car-45.jpg	0.0	247.63946389540615	0.38329830318889435
316.0	158.18809482196775	response	0.0	b		object	car-45.jpg	0.0	247.80621523209084	
316.0	158.19641059495098	pulse	0.0	t		object	car-45.jpg	0.0	247.81453100507406	
316.0	158.40464178847196	ISI	1.0		6.0	object	car-45.jpg	0.0	248.02276219859505	0.11667075678724359
317.0	158.5213125452592	car	0.0		46.0	object	car-3.jpg	0.0	248.1394329553823	0.38332033852293534
317.0	158.89640917623728	pulse	0.0	t		object	car-3.jpg	0.0	248.51452958636037	
317.0	158.90463288378214	ISI	1.0		7.0	object	car-3.jpg	0.0	248.52275329390523	0.11668373650445574
318.0	159.0213166202866	car	0.0		46.0	object	car-32.jpg	0.0	248.63943703040968	0.38330162358124653
318.0	159.40461824386784	ISI	1.0		6.0	object	car-32.jpg	0.0	249.02273865399093	0.11668826431377965
319.0	159.52130650818162	car	0.0		46.0	object	car-99.jpg	0.0	249.1394269183047	0.38330071801919985
319.0	159.59639387224524	pulse	0.0	t		object	car-99.jpg	0.0	249.21451428236833	
319.0	159.90460722620082	ISI	1.0		6.0	object	car-99.jpg	0.0	249.5227276363239	0.1166879624588546
320.0	160.02129518865968	car	0.0		46.0	object	car-93.jpg	0.0	249.63941559878276	0.3832980013348788
320.0	160.2963743422979	pulse	0.0	t		object	car-93.jpg	0.0	249.91449475242098	
320.0	160.40459318999456	ISI	1.0		6.0	object	car-93.jpg	0.0	250.02271360011764	0.11667860498891969
321.0	160.52127179498348	car	0.0		46.0	object	car-144.jpg	0.0	250.13939220510656	0.3833106791980754
321.0	160.90458247418155	ISI	1.0		7.0	object	car-144.jpg	0.0	250.52270288430464	0.1250118854968605
321.0	160.99639888301954	pulse	1.0	t		object	car-144.jpg	0.0	250.61451929314262	
322.0	161.0295943596784	car	0.0		45.0	object	car-73.jpg	0.0	250.6477147698015	0.374977096836119
322.0	161.40457145651453	ISI	1.0		6.0	object	car-73.jpg	0.0	251.02269186663762	0.1166918865592379
323.0	161.52126334307377	car	0.0		46.0	object	car-41.jpg	0.0	251.13938375319685	0.38329739762684767
323.0	161.6963413194817	pulse	0.0	t		object	car-41.jpg	0.0	251.31446172960477	
323.0	161.90456074070062	ISI	1.0		6.0	object	car-41.jpg	0.0	251.5226811508237	0.11668705689771741
324.0	162.02124779759833	adult	0.0		46.0	face	adult-23.jpg	0.0	251.63936820772142	0.3833025291432932
324.0	162.3963248080736	pulse	0.0	t		face	adult-23.jpg	0.0	252.01444521819667	
324.0	162.40455032674163	ISI	1.0		2.0	face	adult-23.jpg	0.0	252.0226707368647	0.11668615133567073
325.0	162.5212364780773	adult	0.0		46.0	face	adult-83.jpg	0.0	252.13935688820038	0.38329920875003154
325.0	162.90453568682733	ISI	1.0		7.0	face	adult-83.jpg	0.0	252.5226560969504	0.11668886802090128
326.0	163.02122455484823	adult	0.0		46.0	face	adult-88.jpg	0.0	252.63934496497131	0.3833004161660938
326.0	163.09630920222753	pulse	0.0	t		face	adult-88.jpg	0.0	252.7144296123506	
326.0	163.40452497101433	ISI	1.0		7.0	face	adult-88.jpg	0.0	253.0226453811374	0.11668826431287016
327.0	163.5212132353272	adult	0.0		46.0	face	adult-88.jpg	1.0	253.13933364545028	0.3832986050429099
327.0	163.7962923889654	pulse	0.0	t		face	adult-88.jpg	1.0	253.4144127990885	
327.0	163.9045118403701	ISI	1.0		6.0	face	adult-88.jpg	1.0	253.5226322504932	0.11669037729006959
327.0	163.97965474555076	response	1.0	b		face	adult-88.jpg	1.0	253.59777515567384	
328.0	164.02120221766017	adult	0.0		46.0	face	adult-57.jpg	0.0	253.63932262778326	0.3832995106040471
328.0	164.40450172826422	ISI	1.0		6.0	face	adult-57.jpg	0.0	254.0226221383873	0.12502245038376714
328.0	164.4963096851934	pulse	1.0	t		face	adult-57.jpg	0.0	254.1144300953165	
329.0	164.529524178648	adult	0.0		45.0	face	adult-75.jpg	0.0	254.14764458877107	0.3749662300951968
329.0	164.9044904087432	ISI	1.0		6.0	face	adult-75.jpg	0.0	254.52261081886627	0.11668977358294796
330.0	165.02118018232613	adult	0.0		46.0	face	adult-66.jpg	0.0	254.63930059244922	0.383296492064801
330.0	165.19625846058716	pulse	0.0	t		face	adult-66.jpg	0.0	254.81437887071024	
330.0	165.40447667439093	ISI	1.0		7.0	face	adult-66.jpg	0.0	255.02259708451402	0.11668584948165517
331.0	165.5211625238726	adult	0.0		46.0	face	adult-90.jpg	0.0	255.13928293399567	0.3833040384124615
331.0	165.89624194917906	pulse	0.0	t		face	adult-90.jpg	0.0	255.51436235930214	
331.0	165.90446656228505	ISI	1.0		6.0	face	adult-90.jpg	0.0	255.52258697240813	0.11669067914408515
332.0	166.02115724142914	adult	0.0		46.0	face	adult-112.jpg	0.0	255.63927765155222	0.38329739762775716
332.0	166.4044546390569	ISI	1.0		6.0	face	adult-112.jpg	0.0	256.02257504918	0.11667498274164245
333.0	166.52112962179854	adult	0.0		46.0	face	adult-81.jpg	0.0	256.1392500319216	0.3833127921752748
333.0	166.59621487288496	pulse	0.0	t		face	adult-81.jpg	0.0	256.21433528300804	
333.0	166.9044424139738	ISI	1.0		7.0	face	adult-81.jpg	0.0	256.5225628240969	0.11668313279642462
334.0	167.02112554677024	adult	0.0		46.0	face	adult-70.jpg	0.0	256.6392459568933	0.38330524582852377
334.0	167.2962225097881	pulse	0.0	t		face	adult-70.jpg	0.0	256.9143429199112	
334.0	167.40443079259876	ISI	1.0		7.0	face	adult-70.jpg	0.0	257.02255120272184	0.11668675504370185
335.0	167.52111754764246	adult	0.0		46.0	face	adult-22.jpg	0.0	257.13923795776554	0.38329920875003154
335.0	167.9044167563925	ISI	1.0		7.0	face	adult-22.jpg	0.0	257.5225371665156	0.1250251670689977
335.0	167.99622592073683	pulse	1.0	t		face	adult-22.jpg	0.0	257.6143463308599	
336.0	168.0294419234615	car	0.0		45.0	object	car-49.jpg	0.0	257.6475623335846	0.37496441897201294
336.0	168.4044063424335	ISI	1.0		6.0	object	car-49.jpg	0.0	258.0225267525566	0.11669067914408515
337.0	168.5210970215776	car	0.0		46.0	object	car-80.jpg	0.0	258.1392174317007	0.38329769948086323
337.0	168.6961774128158	pulse	0.0	t		object	car-80.jpg	0.0	258.3142978229389	
337.0	168.90439472105845	ISI	1.0		7.0	object	car-80.jpg	0.0	258.52251513118154	0.11668856616688572
338.0	169.02108328722534	car	0.0		46.0	object	car-98.jpg	0.0	258.6392036973484	0.38330132172723097
338.0	169.39616422180097	pulse	0.0	t		object	car-98.jpg	0.0	259.01428463192406	
338.0	169.40438460895257	ISI	1.0		7.0	object	car-98.jpg	0.0	259.02250501907565	0.11668826431287016
339.0	169.52107287326544	car	0.0		46.0	object	car-101.jpg	0.0	259.1391932833885	0.3832986050429099
339.0	169.90437147830835	ISI	1.0		6.0	object	car-101.jpg	0.0	259.52249188843143	0.11668916987491684
340.0	170.02106064818327	car	0.0		46.0	object	car-123.jpg	0.0	259.63918105830635	0.383298906896016
340.0	170.0961462011237	pulse	0.0	t		object	car-123.jpg	0.0	259.7142666112468	
340.0	170.40435955507928	ISI	1.0		6.0	object	car-123.jpg	0.0	260.02247996520236	0.11668766060483904
341.0	170.52104721568412	car	0.0		46.0	object	car-120.jpg	0.0	260.1391676258072	0.3832940772344955
341.0	170.7961299915687	pulse	0.0	t		object	car-120.jpg	0.0	260.4142504016918	
341.0	170.90434129291862	ISI	1.0		6.0	object	car-120.jpg	0.0	260.5224617030417	0.11669460324446845
342.0	171.02103589616308	car	0.0		46.0	object	car-96.jpg	0.0	260.63915630628617	0.38330071802010934
342.0	171.4043366141832	ISI	1.0		6.0	object	car-96.jpg	0.0	261.0224570243063	0.1250188281364899
342.0	171.49614879706678	pulse	1.0	t		object	car-96.jpg	0.0	261.11426920718986	
343.0	171.52935544231968	car	0.0		45.0	object	car-39.jpg	0.0	261.14747585244277	0.3749366484134953
343.0	171.90429209073318	ISI	1.0		6.0	object	car-39.jpg	0.0	261.52241250085626	0.11672146824184892
344.0	172.02101355897503	car	0.0		46.0	object	car-71.jpg	0.0	261.6391339690981	0.38329437908851105
344.0	172.19609606319136	pulse	0.0	t		object	car-71.jpg	0.0	261.81421647331445	
344.0	172.40430793806354	ISI	1.0		7.0	object	car-71.jpg	0.0	262.0224283481866	0.11669641436765232
345.0	172.5210043524312	car	0.0		46.0	object	car-71.jpg	1.0	262.1391247625543	0.3833097736369382
345.0	172.89607985363727	pulse	0.0	t		object	car-71.jpg	1.0	262.51420026376036	
345.0	172.90431412606813	ISI	1.0		6.0	object	car-71.jpg	1.0	262.5224345361912	0.11666864380913466
346.0	173.02098276987726	car	0.0		45.0	object	car-132.jpg	0.0	262.63910318000035	0.38330675509860157
346.0	173.01102642096976	response	0.0	b		object	car-132.jpg	0.0	262.62914683109284	
346.0	173.40428952497587	ISI	1.0		6.0	object	car-132.jpg	0.0	263.02240993509895	0.11669067914408515
347.0	173.52098020411995	car	0.0		46.0	object	car-1.jpg	0.0	263.13910061424303	0.38329679391881655
347.0	173.5960657570604	pulse	0.0	t		object	car-1.jpg	0.0	263.21418616718347	
347.0	173.90427699803877	ISI	1.0		7.0	object	car-1.jpg	0.0	263.52239740816185	0.11668856616688572
348.0	174.02096556420565	car	0.0		46.0	object	car-121.jpg	0.0	263.63908597432874	0.38330162358124653
348.0	174.2960495475054	pulse	0.0	t		object	car-121.jpg	0.0	263.9141699576285	
348.0	174.4042671877869	ISI	1.0		5.0	object	car-121.jpg	0.0	264.02238759791	0.11668554762763961
349.0	174.52095273541454	car	0.0		46.0	object	car-4.jpg	0.0	264.1390731455376	0.3833019254361716
349.0	174.9042546608507	ISI	1.0		7.0	object	car-4.jpg	0.0	264.5223750709738	0.12502184667573601
349.0	174.99606231592588	pulse	1.0	t		object	car-4.jpg	0.0	264.61418272604897	
350.0	175.02927650752645	car	0.0		45.0	object	car-58.jpg	0.0	264.64739691764953	0.37496502267913456
350.0	175.40424153020558	ISI	1.0		7.0	object	car-58.jpg	0.0	265.02236194032866	0.1166894717289324
351.0	175.5209310019345	car	0.0		46.0	object	car-129.jpg	0.0	265.1390514120576	0.383298906896016
351.0	175.6960122987348	pulse	0.0	t		object	car-129.jpg	0.0	265.31413270885787	
351.0	175.90422990883053	ISI	1.0		6.0	object	car-129.jpg	0.0	265.5223503189536	0.11668192538127187
352.0	176.0209118342118	car	0.0		46.0	object	car-128.jpg	0.0	265.6390322443349	0.3833088680748915
352.0	176.39599518361956	pulse	0.0	t		object	car-128.jpg	0.0	266.01411559374264	
352.0	176.4042207022867	ISI	1.0		7.0	object	car-128.jpg	0.0	266.0223411124098	0.11668675504370185
353.0	176.5209074573304	car	0.0		45.0	object	car-128.jpg	1.0	266.1390278674535	0.37496804121929017
353.0	176.88765179100483	response	0.0	b		object	car-128.jpg	1.0	266.5057722011279	
353.0	176.89587549854969	ISI	1.0		7.0	object	car-128.jpg	1.0	266.51399590867277	0.12502094111368933
354.0	177.02089643966337	car	0.0		46.0	object	car-18.jpg	0.0	266.63901684978646	0.3832989068969255
354.0	177.09595150536006	pulse	0.0	t		object	car-18.jpg	0.0	266.71407191548315	
354.0	177.4041953465603	ISI	1.0		7.0	object	car-18.jpg	0.0	267.0223157566834	0.11668826431287016
355.0	177.52088361087317	car	0.0		46.0	object	car-72.jpg	0.0	267.13900402099625	0.3832986050420004
355.0	177.79596487748768	pulse	0.0	t		object	car-72.jpg	0.0	267.41408528761076	
355.0	177.90418221591517	ISI	1.0		6.0	object	car-72.jpg	0.0	267.52230262603825	0.11669007543696353
356.0	178.02087229135213	car	0.0		46.0	object	car-140.jpg	0.0	267.6389927014752	0.3832995106040471
356.0	178.40417180195618	ISI	1.0		6.0	object	car-140.jpg	0.0	268.02229221207926	0.12502214852975158
356.0	178.4959827774237	pulse	1.0	t		object	car-140.jpg	0.0	268.1141031875468	
357.0	178.52919395048593	car	0.0		45.0	object	car-89.jpg	0.0	268.147314360609	0.3749662300951968
357.0	178.90416018058113	ISI	1.0		7.0	object	car-89.jpg	0.0	268.5222805907042	0.11668826431287016
358.0	179.020848444894	car	0.0		46.0	object	car-143.jpg	0.0	268.6389688550171	0.38329981245806266
358.0	179.19593094911033	pulse	0.0	t		object	car-143.jpg	0.0	268.8140513592334	
358.0	179.40414825735206	ISI	1.0		7.0	object	car-143.jpg	0.0	269.02226866747515	0.11669037729006959
359.0	179.52083863464213	car	0.0		46.0	object	car-79.jpg	0.0	269.1389590447652	0.3832675140911306
359.0	179.89588183748128	pulse	0.0	t		object	car-79.jpg	0.0	269.51400224760437	
359.0	179.90410614873326	ISI	1.0		6.0	object	car-79.jpg	0.0	269.52222655885635	0.11668464206650242
360.0	180.02079079079977	body	0.0		46.0	body	body-130.jpg	0.0	269.63891120092285	0.38330132172723097
360.0	180.404092112527	ISI	1.0		6.0	body	body-130.jpg	0.0	270.0222125226501	0.11667196420330583
361.0	180.5207640767303	body	0.0		46.0	body	body-49.jpg	0.0	270.1388844868534	0.38331641442255204
361.0	180.59587347612796	pulse	0.0	t		body	body-49.jpg	0.0	270.21399388625105	
361.0	180.90408049115285	ISI	1.0		6.0	body	body-49.jpg	0.0	270.52220090127594	0.11668584948165517
362.0	181.0207663406345	body	0.0		46.0	body	body-32.jpg	0.0	270.6388867507576	0.3833025291432932
362.0	181.29584821095705	pulse	0.0	t		body	body-32.jpg	0.0	270.91396862108013	
362.0	181.4040688697778	ISI	1.0		6.0	body	body-32.jpg	0.0	271.0221892799009	0.11668584948165517
363.0	181.52075471925946	body	0.0		46.0	body	body-118.jpg	0.0	271.13887512938254	0.38330464212049264
363.0	181.90405936137995	ISI	1.0		7.0	body	body-118.jpg	0.0	271.52217977150303	0.11668343465044018
363.0	181.99583200140296	pulse	1.0	t		body	body-118.jpg	0.0	271.61395241152604	
364.0	182.0207427960304	body	0.0		46.0	body	body-36.jpg	0.0	271.6388632061535	0.3833019254352621
364.0	182.40404472146565	ISI	1.0		6.0	body	body-36.jpg	0.0	272.02216513158874	0.11668735875173297
365.0	182.52073208021739	body	0.0		46.0	body	body-61.jpg	0.0	272.13885249034047	0.3833019254352621
365.0	182.69581066033243	pulse	0.0	t		body	body-61.jpg	0.0	272.3139310704555	
365.0	182.90403400565265	ISI	1.0		6.0	body	body-61.jpg	0.0	272.52215441577573	0.11668705689680792
366.0	183.02072106254946	body	0.0		46.0	body	body-101.jpg	0.0	272.63884147267254	0.383304038413371
366.0	183.39578901740788	pulse	0.0	t		body	body-101.jpg	0.0	273.01390942753096	
366.0	183.40402510096283	ISI	1.0		7.0	body	body-101.jpg	0.0	273.0221455110859	0.11667136049436522
367.0	183.5206964614572	body	0.0		46.0	body	body-101.jpg	1.0	273.1388168715803	0.38331399959133705
367.0	183.90401046104853	ISI	1.0		7.0	body	body-101.jpg	1.0	273.5221308711716	0.11667860498801019
368.0	184.02068906603654	body	0.0		45.0	body	body-108.jpg	0.0	273.6388094761596	0.38330916992890707
368.0	184.01079731386199	response	0.0	b		body	body-108.jpg	0.0	273.62891772398507	
368.0	184.09583680087962	pulse	0.0	t		body	body-108.jpg	0.0	273.7139572110027	
368.0	184.40399823596545	ISI	1.0		3.0	body	body-108.jpg	0.0	274.02211864608853	0.11668705689771741
369.0	184.52068529286316	body	0.0		46.0	body	body-77.jpg	0.0	274.13880570298625	0.3833019254352621
369.0	184.79576655947858	pulse	0.0	t		body	body-77.jpg	0.0	274.41388696960166	
369.0	184.90398721829843	ISI	1.0		6.0	body	body-77.jpg	0.0	274.5221076284215	0.11668554762763961
370.0	185.02067276592607	body	0.0		46.0	body	body-44.jpg	0.0	274.63879317604915	0.38330222728927765
370.0	185.40397499321534	ISI	1.0		7.0	body	body-44.jpg	0.0	275.0220954033384	0.11668856616688572
370.0	185.49574672767721	pulse	1.0	t		body	body-44.jpg	0.0	275.1138671378003	
371.0	185.52066355938223	body	0.0		46.0	body	body-55.jpg	0.0	275.1387839695053	0.38333060155582643
371.0	185.90399416093805	ISI	1.0		5.0	body	body-55.jpg	0.0	275.52211457106114	0.1166879624588546
372.0	186.0206821233969	word	0.0		46.0	character	word-74.jpg	0.0	275.63880253352	0.383301623582156
372.0	186.19577096654484	pulse	0.0	t		character	word-74.jpg	0.0	275.8138913766679	
372.0	186.40398374697907	ISI	1.0		6.0	character	word-74.jpg	0.0	276.02210415710215	0.11668947172802291
373.0	186.5206732187071	word	0.0		46.0	character	word-19.jpg	0.0	276.1387936288302	0.3833010198741249
373.0	186.89575083289037	pulse	0.0	t		character	word-19.jpg	0.0	276.51387124301345	
373.0	186.9039742385812	ISI	1.0		6.0	character	word-19.jpg	0.0	276.5220946487043	0.11668373650445574
374.0	187.02065797508567	word	0.0		46.0	character	word-126.jpg	0.0	276.63877838520875	0.38330222728927765
374.0	187.40396020237495	ISI	1.0		6.0	character	word-126.jpg	0.0	277.02208061249803	0.11668645318968629
375.0	187.52064665556463	word	0.0		46.0	character	word-134.jpg	0.0	277.1387670656877	0.38330071801919985
375.0	187.59580103119333	pulse	0.0	t		character	word-134.jpg	0.0	277.2139214413164	
375.0	187.90394737358383	ISI	1.0		6.0	character	word-134.jpg	0.0	277.5220677837069	0.11668705689771741
376.0	188.02063443048155	word	0.0		46.0	character	word-113.jpg	0.0	277.63875484060463	0.3832970957728321
376.0	188.2957187156353	pulse	0.0	t		character	word-113.jpg	0.0	277.9138391257584	
376.0	188.40393152625438	ISI	1.0		6.0	character	word-113.jpg	0.0	278.02205193637747	0.1166918865601474
377.0	188.52062341281453	word	0.0		46.0	character	word-21.jpg	0.0	278.1387438229376	0.3832847197636511
377.0	188.90390813257818	ISI	1.0		6.0	character	word-21.jpg	0.0	278.52202854270126	0.12504146717856202
377.0	188.99573631371823	pulse	1.0	t		character	word-21.jpg	0.0	278.6138567238413	
378.0	189.02894959975674	word	0.0		45.0	character	word-59.jpg	0.0	278.6470700098798	0.3749481188615391
378.0	189.40389771861828	ISI	1.0		7.0	character	word-59.jpg	0.0	279.02201812874137	0.11670275330016011
379.0	189.52060047191844	word	0.0		46.0	character	word-122.jpg	0.0	279.1387208820415	0.38328109751637385
379.0	189.695685390966	pulse	0.0	t		character	word-122.jpg	0.0	279.3138058010891	
379.0	189.90388156943482	ISI	1.0		6.0	character	word-122.jpg	0.0	279.5220019795579	0.1167075829625901
380.0	190.0205891523974	word	0.0		46.0	character	word-142.jpg	0.0	279.6387095625205	0.38330132172723097
380.0	190.39566646472667	pulse	0.0	t		character	word-142.jpg	0.0	280.01378687484976	
380.0	190.40389047412464	ISI	1.0		7.0	character	word-142.jpg	0.0	280.0220108842477	0.11668675504370185
381.0	190.52057722916834	word	0.0		46.0	character	word-142.jpg	1.0	280.1386976392914	0.3833001143120782
381.0	190.90387734348042	ISI	1.0		4.0	character	word-142.jpg	1.0	280.5219977536035	0.11669007543605403
381.0	190.96368124107812	response	1.0	b		character	word-142.jpg	1.0	280.5818016512012	
382.0	191.02056741891647	word	0.0		46.0	character	word-115.jpg	0.0	280.63868782903955	0.3832970957737416
382.0	191.09565357556494	pulse	0.0	t		character	word-115.jpg	0.0	280.713773985688	
382.0	191.4038645146902	ISI	1.0		7.0	character	word-115.jpg	0.0	281.0219849248133	0.11668886801999179
383.0	191.5205533827102	word	0.0		46.0	character	word-84.jpg	0.0	281.1386737928333	0.3833019254361716
383.0	191.7956343474716	pulse	0.0	t		character	word-84.jpg	0.0	281.4137547575947	
383.0	191.90385530814638	ISI	1.0		7.0	character	word-84.jpg	0.0	281.52197571826946	0.1166864531887768
384.0	192.02054176133515	word	0.0		46.0	character	word-65.jpg	0.0	281.63866217145824	0.38330222728927765
384.0	192.40384398862443	ISI	1.0		7.0	character	word-65.jpg	0.0	282.0219643987475	0.1250212429686144
384.0	192.4956579826321	pulse	1.0	t		character	word-65.jpg	0.0	282.1137783927552	
385.0	192.52886523159304	word	0.0		45.0	character	word-1.jpg	0.0	282.1469856417161	0.37496502267913456
385.0	192.90383025427218	ISI	1.0		7.0	character	word-1.jpg	0.0	282.52195066439526	0.11668675504370185
386.0	193.02051700931588	word	0.0		46.0	character	word-98.jpg	0.0	282.63863741943896	0.3833004161660938
386.0	193.19560253207146	pulse	0.0	t		character	word-98.jpg	0.0	282.81372294219454	
386.0	193.40381742548198	ISI	1.0		6.0	character	word-98.jpg	0.0	283.02193783560506	0.11668977358203847
387.0	193.520507199064	word	0.0		46.0	character	word-51.jpg	0.0	283.1386276091871	0.3832690233612084
387.0	193.89555191117233	pulse	0.0	t		character	word-51.jpg	0.0	283.5136723212954	
387.0	193.90377622242522	ISI	1.0		7.0	character	word-51.jpg	0.0	283.5218966325483	0.11668494391960849
388.0	194.02046116634483	word	0.0		46.0	character	word-81.jpg	0.0	283.6385815764679	0.38330222729018715
388.0	194.40376339363502	ISI	1.0		6.0	character	word-81.jpg	0.0	284.0218838037581	0.11668735875082348
389.0	194.52045075238584	word	0.0		46.0	character	word-95.jpg	0.0	284.1385711625089	0.3833004161660938
389.0	194.5955369090343	pulse	0.0	t		character	word-95.jpg	0.0	284.2136573191574	
389.0	194.90375116855193	ISI	1.0		6.0	character	word-95.jpg	0.0	284.521871578675	0.11669762178371457
