trial_nr	onset	event_type	phase	response	nr_frames	face_age	face_sex	face_eth	attractiveness	expression	face_id	sub_id	ses	run	trial_type	catch	rating_type	onset_abs	duration
-1.0	0.060631397962652045	fix	0.0		713													94.45064567862755	5.957881245602266
-1.0	0.7021218151867288	pulse	0.0	t														95.09213609585163	
-1.0	1.4021010778867549	pulse	0.0	t														95.79211535855165	
-1.0	2.1020827554104926	pulse	0.0	t														96.49209703607539	
-1.0	2.8020656403462	pulse	0.0	t														97.1920799210111	
-1.0	3.5020361493095606	pulse	0.0	t														97.89205042997446	
-1.0	4.202028693541024	pulse	0.0	t														98.59204297420592	
-1.0	4.901991656179689	pulse	0.0	t														99.29200593684459	
-1.0	5.601981181881001	pulse	0.0	t														99.9919954625459	
0.0	6.018512643564918	face	0.0		144	31.0	female	white	2.1822522881018704	smiling	102	sub-12	1.0	1.0	102_smiling	0.0		100.40852692422982	1.233319981369732
0.0	6.301979763172085	pulse	0.0	t		31.0	female	white	2.1822522881018704	smiling	102	sub-12	1.0	1.0	102_smiling	0.0		100.69199404383698	
0.0	7.001940310987038	pulse	0.0	t		31.0	female	white	2.1822522881018704	smiling	102	sub-12	1.0	1.0	102_smiling	0.0		101.39195459165194	
0.0	7.25183262493465	fix	1.0		445	31.0	female	white	2.1822522881018704	smiling	102	sub-12	1.0	1.0	102_smiling	0.0		101.64184690559955	3.7665635033781655
0.0	7.701942514513803	pulse	1.0	t		31.0	female	white	2.1822522881018704	smiling	102	sub-12	1.0	1.0	102_smiling	0.0		102.0919567951787	
0.0	8.401912117918073	pulse	1.0	t		31.0	female	white	2.1822522881018704	smiling	102	sub-12	1.0	1.0	102_smiling	0.0		102.79192639858297	
0.0	9.102150974185179	pulse	1.0	t		31.0	female	white	2.1822522881018704	smiling	102	sub-12	1.0	1.0	102_smiling	0.0		103.49216525485008	
0.0	9.801873963700928	pulse	1.0	t		31.0	female	white	2.1822522881018704	smiling	102	sub-12	1.0	1.0	102_smiling	0.0		104.19188824436583	
0.0	10.501854433812696	pulse	1.0	t		31.0	female	white	2.1822522881018704	smiling	102	sub-12	1.0	1.0	102_smiling	0.0		104.8918687144776	
1.0	11.018396128312816	face	0.0		145	20.0	male	black	2.609629924393156	neutral	043	sub-12	1.0	1.0	043_neutral	0.0		105.40841040897772	1.2333054924263251
1.0	11.201840639131433	pulse	0.0	t		20.0	male	black	2.609629924393156	neutral	043	sub-12	1.0	1.0	043_neutral	0.0		105.59185491979633	
1.0	11.901821109243201	pulse	0.0	t		20.0	male	black	2.609629924393156	neutral	043	sub-12	1.0	1.0	043_neutral	0.0		106.2918353899081	
1.0	12.25170162073914	fix	1.0		444	20.0	male	black	2.609629924393156	neutral	043	sub-12	1.0	1.0	043_neutral	0.0		106.64171590140404	3.7582963538272907
1.0	12.60180731456171	pulse	1.0	t		20.0	male	black	2.609629924393156	neutral	043	sub-12	1.0	1.0	043_neutral	0.0		106.99182159522661	
1.0	13.301807706970749	pulse	1.0	t		20.0	male	black	2.609629924393156	neutral	043	sub-12	1.0	1.0	043_neutral	0.0		107.69182198763565	
1.0	14.001751049165478	pulse	1.0	t		20.0	male	black	2.609629924393156	neutral	043	sub-12	1.0	1.0	043_neutral	0.0		108.39176532983038	
1.0	14.701777099078072	pulse	1.0	t		20.0	male	black	2.609629924393156	neutral	043	sub-12	1.0	1.0	043_neutral	0.0		109.09179137974297	
1.0	15.401721044978785	pulse	1.0	t		20.0	male	black	2.609629924393156	neutral	043	sub-12	1.0	1.0	043_neutral	0.0		109.79173532564369	
2.0	16.00999797456643	face	0.0		146	37.0	male	white	3.898925586947871	smiling	101	sub-12	1.0	1.0	101_smiling	0.0		110.40001225523133	1.2415732456831847
2.0	16.10170906141525	pulse	0.0	t		37.0	male	white	3.898925586947871	smiling	101	sub-12	1.0	1.0	101_smiling	0.0		110.49172334208015	
2.0	16.80169496488088	pulse	0.0	t		37.0	male	white	3.898925586947871	smiling	101	sub-12	1.0	1.0	101_smiling	0.0		111.19170924554578	
2.0	17.251571220249616	fix	1.0		444	37.0	male	white	3.898925586947871	smiling	101	sub-12	1.0	1.0	101_smiling	0.0		111.64158550091452	3.7581946293712463
2.0	17.501681773905375	pulse	1.0	t		37.0	male	white	3.898925586947871	smiling	101	sub-12	1.0	1.0	101_smiling	0.0		111.89169605457028	
2.0	18.201656810663508	pulse	1.0	t		37.0	male	white	3.898925586947871	smiling	101	sub-12	1.0	1.0	101_smiling	0.0		112.59167109132841	
2.0	18.901633658539595	pulse	1.0	t		37.0	male	white	3.898925586947871	smiling	101	sub-12	1.0	1.0	101_smiling	0.0		113.2916479392045	
2.0	19.601619863858105	pulse	1.0	t		37.0	male	white	3.898925586947871	smiling	101	sub-12	1.0	1.0	101_smiling	0.0		113.991634144523	
2.0	20.301616634031234	pulse	1.0	t		37.0	male	white	3.898925586947871	smiling	101	sub-12	1.0	1.0	101_smiling	0.0		114.69163091469613	
3.0	21.009765849620862	face	0.0		147	26.0	male	white	2.7966573816155993	smiling	117	sub-12	1.0	1.0	117_smiling	0.0		115.39978013028576	1.2416619904608979
3.0	21.003880621974076	pulse	0.0	t		26.0	male	white	2.7966573816155993	smiling	117	sub-12	1.0	1.0	117_smiling	0.0		115.39389490263898	
3.0	21.701535012984095	pulse	0.0	t		26.0	male	white	2.7966573816155993	smiling	117	sub-12	1.0	1.0	117_smiling	0.0		116.091549293649	
3.0	22.25142784008176	fix	1.0		443	26.0	male	white	2.7966573816155993	smiling	117	sub-12	1.0	1.0	117_smiling	0.0		116.64144212074666	3.758324426154786
3.0	22.40155140360116	pulse	1.0	t		26.0	male	white	2.7966573816155993	smiling	117	sub-12	1.0	1.0	117_smiling	0.0		116.79156568426606	
3.0	23.101524931094445	pulse	1.0	t		26.0	male	white	2.7966573816155993	smiling	117	sub-12	1.0	1.0	117_smiling	0.0		117.49153921175935	
3.0	23.801592334865973	pulse	1.0	t		26.0	male	white	2.7966573816155993	smiling	117	sub-12	1.0	1.0	117_smiling	0.0		118.19160661553087	
3.0	24.50148315464139	pulse	1.0	t		26.0	male	white	2.7966573816155993	smiling	117	sub-12	1.0	1.0	117_smiling	0.0		118.89149743530629	
3.0	25.201470265518765	pulse	1.0	t		26.0	male	white	2.7966573816155993	smiling	117	sub-12	1.0	1.0	117_smiling	0.0		119.59148454618366	
3.0	25.901445302276898	pulse	1.0	t		26.0	male	white	2.7966573816155993	smiling	117	sub-12	1.0	1.0	117_smiling	0.0		120.2914595829418	
4.0	26.009752266236546	face	0.0		147	24.0	female	east_asian	2.9076800636689217	smiling	034	sub-12	1.0	1.0	034_smiling	0.0		120.39976654690145	1.2415433622379624
4.0	26.60142879091859	pulse	0.0	t		24.0	female	east_asian	2.9076800636689217	smiling	034	sub-12	1.0	1.0	034_smiling	0.0		120.99144307158349	
4.0	27.25129562847451	fix	1.0		443	24.0	female	east_asian	2.9076800636689217	smiling	034	sub-12	1.0	1.0	034_smiling	0.0		121.64130990913941	3.7582531888504036
4.0	27.30142163700293	pulse	1.0	t		24.0	female	east_asian	2.9076800636689217	smiling	034	sub-12	1.0	1.0	034_smiling	0.0		121.69143591766783	
4.0	28.001385807053566	pulse	1.0	t		24.0	female	east_asian	2.9076800636689217	smiling	034	sub-12	1.0	1.0	034_smiling	0.0		122.39140008771847	
4.0	28.7013686919895	pulse	1.0	t		24.0	female	east_asian	2.9076800636689217	smiling	034	sub-12	1.0	1.0	034_smiling	0.0		123.0913829726544	
4.0	29.40135851954392	pulse	1.0	t		24.0	female	east_asian	2.9076800636689217	smiling	034	sub-12	1.0	1.0	034_smiling	0.0		123.79137280020882	
4.0	30.10133748039084	pulse	1.0	t		24.0	female	east_asian	2.9076800636689217	smiling	034	sub-12	1.0	1.0	034_smiling	0.0		124.49135176105574	
4.0	30.80132096903253	pulse	1.0	t		24.0	female	east_asian	2.9076800636689217	smiling	034	sub-12	1.0	1.0	034_smiling	0.0		125.19133524969743	
5.0	31.009548817324912	face	0.0		146	40.0	female	west_asian	1.5777954635893354	smiling	038	sub-12	1.0	1.0	038_smiling	0.0		125.39956309798981	1.2416124865712845
5.0	31.5013264929421	pulse	0.0	t		40.0	female	west_asian	1.5777954635893354	smiling	038	sub-12	1.0	1.0	038_smiling	0.0		125.891340773607	
5.0	32.201273759225614	pulse	0.0	t		40.0	female	west_asian	1.5777954635893354	smiling	038	sub-12	1.0	1.0	038_smiling	0.0		126.59128803989051	
5.0	32.2511613038962	fix	1.0		445	40.0	female	west_asian	1.5777954635893354	smiling	038	sub-12	1.0	1.0	038_smiling	0.0		126.6411755845611	3.766557768171424
5.0	32.901270529398744	pulse	1.0	t		40.0	female	west_asian	1.5777954635893354	smiling	038	sub-12	1.0	1.0	038_smiling	0.0		127.29128481006364	
5.0	33.601246773568846	pulse	1.0	t		40.0	female	west_asian	1.5777954635893354	smiling	038	sub-12	1.0	1.0	038_smiling	0.0		127.99126105423375	
5.0	34.301228149239705	pulse	1.0	t		40.0	female	west_asian	1.5777954635893354	smiling	038	sub-12	1.0	1.0	038_smiling	0.0		128.6912424299046	
5.0	35.001207411939504	pulse	1.0	t		40.0	female	west_asian	1.5777954635893354	smiling	038	sub-12	1.0	1.0	038_smiling	0.0		129.3912216926044	
5.0	35.70118244869764	pulse	1.0	t		40.0	female	west_asian	1.5777954635893354	smiling	038	sub-12	1.0	1.0	038_smiling	0.0		130.09119672936254	
6.0	36.01771907206762	face	0.0		145	20.0	male	black	3.1070433744528456	smiling	082	sub-12	1.0	1.0	082_smiling	0.0		130.40773335273252	1.2333139443098844
6.0	36.40116805031039	pulse	0.0	t		20.0	male	black	3.1070433744528456	smiling	082	sub-12	1.0	1.0	082_smiling	0.0		130.7911823309753	
6.0	37.10114248336254	pulse	0.0	t		20.0	male	black	3.1070433744528456	smiling	082	sub-12	1.0	1.0	082_smiling	0.0		131.49115676402744	
6.0	37.251033016377505	fix	1.0		445	20.0	male	black	3.1070433744528456	smiling	082	sub-12	1.0	1.0	082_smiling	0.0		131.6410472970424	3.758202175695942
6.0	37.801132612769834	pulse	1.0	t		20.0	male	black	3.1070433744528456	smiling	082	sub-12	1.0	1.0	082_smiling	0.0		132.19114689343473	
6.0	38.50110764952797	pulse	1.0	t		20.0	male	black	3.1070433744528456	smiling	082	sub-12	1.0	1.0	082_smiling	0.0		132.89112193019287	
6.0	39.20109445855269	pulse	1.0	t		20.0	male	black	3.1070433744528456	smiling	082	sub-12	1.0	1.0	082_smiling	0.0		133.5911087392176	
6.0	39.901071306428776	pulse	1.0	t		20.0	male	black	3.1070433744528456	smiling	082	sub-12	1.0	1.0	082_smiling	0.0		134.29108558709368	
6.0	40.60105449321736	pulse	1.0	t		20.0	male	black	3.1070433744528456	smiling	082	sub-12	1.0	1.0	082_smiling	0.0		134.99106877388226	
7.0	41.00923519207345	face	0.0		146	27.0	male	black	3.5523278949462798	neutral	042	sub-12	1.0	1.0	042_neutral	0.0		135.39924947273835	1.2416713479033206
7.0	41.30104884856655	pulse	0.0	t		27.0	male	black	3.5523278949462798	neutral	042	sub-12	1.0	1.0	042_neutral	0.0		135.69106312923145	
7.0	42.00101150935234	pulse	0.0	t		27.0	male	black	3.5523278949462798	neutral	042	sub-12	1.0	1.0	042_neutral	0.0		136.39102579001724	
7.0	42.25090653997677	fix	1.0		444	27.0	male	black	3.5523278949462798	neutral	042	sub-12	1.0	1.0	042_neutral	0.0		136.64092082064167	3.758296051974412
7.0	42.701001638759635	pulse	1.0	t		27.0	male	black	3.5523278949462798	neutral	042	sub-12	1.0	1.0	042_neutral	0.0		137.09101591942454	
7.0	43.400981807018525	pulse	1.0	t		27.0	male	black	3.5523278949462798	neutral	042	sub-12	1.0	1.0	042_neutral	0.0		137.79099608768342	
7.0	44.10098189757446	pulse	1.0	t		27.0	male	black	3.5523278949462798	neutral	042	sub-12	1.0	1.0	042_neutral	0.0		138.49099617823936	
7.0	44.80095934915653	pulse	1.0	t		27.0	male	black	3.5523278949462798	neutral	042	sub-12	1.0	1.0	042_neutral	0.0		139.19097362982143	
7.0	45.500923217354284	pulse	1.0	t		27.0	male	black	3.5523278949462798	neutral	042	sub-12	1.0	1.0	042_neutral	0.0		139.89093749801918	
8.0	46.00920259195118	face	0.0		146	34.0	male	white	2.651014723438122	smiling	121	sub-12	1.0	1.0	121_smiling	0.0		140.39921687261608	1.2415623789756864
8.0	46.20091002637878	pulse	0.0	t		34.0	male	white	2.651014723438122	smiling	121	sub-12	1.0	1.0	121_smiling	0.0		140.59092430704368	
8.0	46.90089321316759	pulse	0.0	t		34.0	male	white	2.651014723438122	smiling	121	sub-12	1.0	1.0	121_smiling	0.0		141.2909074938325	
8.0	47.250764970926866	fix	1.0		444	34.0	male	white	2.651014723438122	smiling	121	sub-12	1.0	1.0	121_smiling	0.0		141.64077925159177	3.7583651763079615
8.0	47.600870664749664	pulse	1.0	t		34.0	male	white	2.651014723438122	smiling	121	sub-12	1.0	1.0	121_smiling	0.0		141.99088494541456	
8.0	48.300855662656204	pulse	1.0	t		34.0	male	white	2.651014723438122	smiling	121	sub-12	1.0	1.0	121_smiling	0.0		142.6908699433211	
8.0	49.00082315308987	pulse	1.0	t		34.0	male	white	2.651014723438122	smiling	121	sub-12	1.0	1.0	121_smiling	0.0		143.39083743375477	
8.0	49.70081056582035	pulse	1.0	t		34.0	male	white	2.651014723438122	smiling	121	sub-12	1.0	1.0	121_smiling	0.0		144.09082484648525	
8.0	50.400791035932116	pulse	1.0	t		34.0	male	white	2.651014723438122	smiling	121	sub-12	1.0	1.0	121_smiling	0.0		144.79080531659702	
9.0	51.00913014723483	face	0.0		146	27.0	female	white	3.504576203740549	neutral	144	sub-12	1.0	1.0	144_neutral	0.0		145.39914442789973	1.2415044232025139
9.0	51.100780863486534	pulse	0.0	t		27.0	female	white	3.504576203740549	neutral	144	sub-12	1.0	1.0	144_neutral	0.0		145.49079514415143	
9.0	51.80077159660004	pulse	0.0	t		27.0	female	white	3.504576203740549	neutral	144	sub-12	1.0	1.0	144_neutral	0.0		146.19078587726494	
9.0	52.25063457043734	fix	1.0		444	27.0	female	white	3.504576203740549	neutral	144	sub-12	1.0	1.0	144_neutral	0.0		146.64064885110224	3.766561088554454
9.0	52.50074029444545	pulse	1.0	t		27.0	female	white	3.504576203740549	neutral	144	sub-12	1.0	1.0	144_neutral	0.0		146.89075457511035	
9.0	53.20072800902881	pulse	1.0	t		27.0	female	white	3.504576203740549	neutral	144	sub-12	1.0	1.0	144_neutral	0.0		147.5907422896937	
9.0	53.90070334764005	pulse	1.0	t		27.0	female	white	3.504576203740549	neutral	144	sub-12	1.0	1.0	144_neutral	0.0		148.29071762830495	
9.0	54.60069166592962	pulse	1.0	t		27.0	female	white	3.504576203740549	neutral	144	sub-12	1.0	1.0	144_neutral	0.0		148.99070594659452	
9.0	55.300672136041385	pulse	1.0	t		27.0	female	white	3.504576203740549	neutral	144	sub-12	1.0	1.0	144_neutral	0.0		149.69068641670628	
10.0	56.017195658991795	face	0.0		146	19.0	male	white	2.243931555909272	neutral	130	sub-12	1.0	1.0	130_neutral	0.0		150.4072099396567	1.233303077602386
10.0	56.00356246892784	pulse	0.0	t		19.0	male	white	2.243931555909272	neutral	130	sub-12	1.0	1.0	130_neutral	0.0		150.39357674959274	
10.0	56.70064092444272	pulse	0.0	t		19.0	male	white	2.243931555909272	neutral	130	sub-12	1.0	1.0	130_neutral	0.0		151.09065520510762	
10.0	57.25049873659418	fix	1.0		443	19.0	male	white	2.243931555909272	neutral	130	sub-12	1.0	1.0	130_neutral	0.0		151.64051301725908	3.7582057979318506
10.0	57.40060690561131	pulse	1.0	t		19.0	male	white	2.243931555909272	neutral	130	sub-12	1.0	1.0	130_neutral	0.0		151.7906211862762	
10.0	58.10060246837247	pulse	1.0	t		19.0	male	white	2.243931555909272	neutral	130	sub-12	1.0	1.0	130_neutral	0.0		152.49061674903737	
10.0	58.80057327918894	pulse	1.0	t		19.0	male	white	2.243931555909272	neutral	130	sub-12	1.0	1.0	130_neutral	0.0		153.19058755985384	
10.0	59.50055706968351	pulse	1.0	t		19.0	male	white	2.243931555909272	neutral	130	sub-12	1.0	1.0	130_neutral	0.0		153.8905713503484	
10.0	60.20054146388429	pulse	1.0	t		19.0	male	white	2.243931555909272	neutral	130	sub-12	1.0	1.0	130_neutral	0.0		154.5905557445492	
10.0	60.90052404696689	pulse	1.0	t		19.0	male	white	2.243931555909272	neutral	130	sub-12	1.0	1.0	130_neutral	0.0		155.2905383276318	
11.0	61.00870453452603	face	0.0		147	32.0	male	white	2.389176283326701	neutral	092	sub-12	1.0	1.0	092_neutral	0.0		155.39871881519093	1.2416625941666553
11.0	61.60050542263775	pulse	0.0	t		32.0	male	white	2.389176283326701	neutral	092	sub-12	1.0	1.0	092_neutral	0.0		155.99051970330265	
11.0	62.25036712869269	fix	1.0		443	32.0	male	white	2.389176283326701	neutral	092	sub-12	1.0	1.0	092_neutral	0.0		156.6403814093576	3.766564710790135
11.0	62.30047864827816	pulse	1.0	t		32.0	male	white	2.389176283326701	neutral	092	sub-12	1.0	1.0	092_neutral	0.0		156.69049292894306	
11.0	63.000463042478714	pulse	1.0	t		32.0	male	white	2.389176283326701	neutral	092	sub-12	1.0	1.0	092_neutral	0.0		157.3904773231436	
11.0	63.70043717367798	pulse	1.0	t		32.0	male	white	2.389176283326701	neutral	092	sub-12	1.0	1.0	092_neutral	0.0		158.09045145434288	
11.0	64.4004378679399	pulse	1.0	t		32.0	male	white	2.389176283326701	neutral	092	sub-12	1.0	1.0	092_neutral	0.0		158.7904521486048	
11.0	65.10039901946061	pulse	1.0	t		32.0	male	white	2.389176283326701	neutral	092	sub-12	1.0	1.0	092_neutral	0.0		159.4904133001255	
11.0	65.80038220624942	pulse	1.0	t		32.0	male	white	2.389176283326701	neutral	092	sub-12	1.0	1.0	092_neutral	0.0		160.19039648691432	
12.0	66.01693183948282	face	0.0		145	31.0	female	east_asian	3.395941106247513	neutral	087	sub-12	1.0	1.0	087_neutral	0.0		160.40694612014772	1.2333054924265525
12.0	66.50036871342104	pulse	0.0	t		31.0	female	east_asian	3.395941106247513	neutral	087	sub-12	1.0	1.0	087_neutral	0.0		160.89038299408594	
12.0	67.20034314647319	pulse	0.0	t		31.0	female	east_asian	3.395941106247513	neutral	087	sub-12	1.0	1.0	087_neutral	0.0		161.5903574271381	
12.0	67.25023733190937	fix	1.0		445	31.0	female	east_asian	3.395941106247513	neutral	087	sub-12	1.0	1.0	087_neutral	0.0		161.64025161257427	3.766550825552713
12.0	67.90034263332313	pulse	1.0	t		31.0	female	east_asian	3.395941106247513	neutral	087	sub-12	1.0	1.0	087_neutral	0.0		162.29035691398803	
12.0	68.60030831263862	pulse	1.0	t		31.0	female	east_asian	3.395941106247513	neutral	087	sub-12	1.0	1.0	087_neutral	0.0		162.99032259330352	
12.0	69.3002924049863	pulse	1.0	t		31.0	female	east_asian	3.395941106247513	neutral	087	sub-12	1.0	1.0	087_neutral	0.0		163.6903066856512	
12.0	70.00027498806912	pulse	1.0	t		31.0	female	east_asian	3.395941106247513	neutral	087	sub-12	1.0	1.0	087_neutral	0.0		164.39028926873402	
12.0	70.70025123223922	pulse	1.0	t		31.0	female	east_asian	3.395941106247513	neutral	087	sub-12	1.0	1.0	087_neutral	0.0		165.09026551290412	
13.0	71.01678815746209	face	0.0		145	37.0	male	white	3.898925586947871	neutral	101	sub-12	1.0	1.0	101_neutral	0.0		165.406802438127	1.2333136424570057
13.0	71.40025011538319	pulse	0.0	t		37.0	male	white	3.898925586947871	neutral	101	sub-12	1.0	1.0	101_neutral	0.0		165.7902643960481	
13.0	72.100211568757	pulse	0.0	t		37.0	male	white	3.898925586947871	neutral	101	sub-12	1.0	1.0	101_neutral	0.0		166.4902258494219	
13.0	72.2501017999191	fix	1.0		444	37.0	male	white	3.898925586947871	neutral	101	sub-12	1.0	1.0	101_neutral	0.0		166.640116080584	3.758207307196699
13.0	72.80020501854733	pulse	1.0	t		37.0	male	white	3.898925586947871	neutral	101	sub-12	1.0	1.0	101_neutral	0.0		167.19021929921223	
13.0	73.50017945159948	pulse	1.0	t		37.0	male	white	3.898925586947871	neutral	101	sub-12	1.0	1.0	101_neutral	0.0		167.89019373226438	
13.0	74.20017742918435	pulse	1.0	t		37.0	male	white	3.898925586947871	neutral	101	sub-12	1.0	1.0	101_neutral	0.0		168.59019170984925	
13.0	74.90015457891354	pulse	1.0	t		37.0	male	white	3.898925586947871	neutral	101	sub-12	1.0	1.0	101_neutral	0.0		169.29016885957844	
13.0	75.6001281064066	pulse	1.0	t		37.0	male	white	3.898925586947871	neutral	101	sub-12	1.0	1.0	101_neutral	0.0		169.9901423870715	
14.0	76.00830910711579	face	0.0		146	54.0	female	white	2.286908077994429	smiling	136	sub-12	1.0	1.0	136_smiling	0.0		170.3983233877807	1.2416538404302173
14.0	76.30010978393057	pulse	0.0	t		54.0	female	white	2.286908077994429	smiling	136	sub-12	1.0	1.0	136_smiling	0.0		170.69012406459547	
14.0	77.00008270771787	pulse	0.0	t		54.0	female	white	2.286908077994429	smiling	136	sub-12	1.0	1.0	136_smiling	0.0		171.39009698838277	
14.0	77.24996294754601	fix	1.0		444	54.0	female	white	2.286908077994429	smiling	136	sub-12	1.0	1.0	136_smiling	0.0		171.6399772282109	3.7665550514946062
14.0	77.70007374268403	pulse	1.0	t		54.0	female	white	2.286908077994429	smiling	136	sub-12	1.0	1.0	136_smiling	0.0		172.09008802334893	
14.0	78.40005179797208	pulse	1.0	t		54.0	female	white	2.286908077994429	smiling	136	sub-12	1.0	1.0	136_smiling	0.0		172.79006607863698	
14.0	79.10002804214218	pulse	1.0	t		54.0	female	white	2.286908077994429	smiling	136	sub-12	1.0	1.0	136_smiling	0.0		173.49004232280708	
14.0	79.80001304004873	pulse	1.0	t		54.0	female	white	2.286908077994429	smiling	136	sub-12	1.0	1.0	136_smiling	0.0		174.19002732071363	
14.0	80.4999904916308	pulse	1.0	t		54.0	female	white	2.286908077994429	smiling	136	sub-12	1.0	1.0	136_smiling	0.0		174.8900047722957	
15.0	81.01651799904062	face	0.0		145	25.0	female	black	3.858336649423	smiling	126	sub-12	1.0	1.0	126_smiling	1.0	trustworthiness	175.40653227970552	1.2333299425181394
15.0	81.1999776025084	pulse	0.0	t		25.0	female	black	3.858336649423	smiling	126	sub-12	1.0	1.0	126_smiling	1.0	trustworthiness	175.5899918831733	
15.0	81.89995354482562	pulse	0.0	t		25.0	female	black	3.858336649423	smiling	126	sub-12	1.0	1.0	126_smiling	1.0	trustworthiness	176.28996782549052	
15.0	82.24984794155876	fix	1.0		177	25.0	female	black	3.858336649423	smiling	126	sub-12	1.0	1.0	126_smiling	1.0	trustworthiness	176.63986222222366	1.5083113710131784
15.0	82.59993854273216	pulse	1.0	t		25.0	female	black	3.858336649423	smiling	126	sub-12	1.0	1.0	126_smiling	1.0	trustworthiness	176.98995282339706	
15.0	83.29991901284393	pulse	1.0	t		25.0	female	black	3.858336649423	smiling	126	sub-12	1.0	1.0	126_smiling	1.0	trustworthiness	177.68993329350883	
15.0	83.75815931257193	rating	2.0		294	25.0	female	black	3.858336649423	smiling	126	sub-12	1.0	1.0	126_smiling	1.0	trustworthiness	178.14817359323683	2.4915615488800995
15.0	83.99990853854547	pulse	2.0	t		25.0	female	black	3.858336649423	smiling	126	sub-12	1.0	1.0	126_smiling	1.0	trustworthiness	178.38992281921037	
15.0	84.69988931051034	pulse	2.0	t		25.0	female	black	3.858336649423	smiling	126	sub-12	1.0	1.0	126_smiling	1.0	trustworthiness	179.08990359117524	
15.0	85.39986796950438	pulse	2.0	t		25.0	female	black	3.858336649423	smiling	126	sub-12	1.0	1.0	126_smiling	1.0	trustworthiness	179.78988225016928	
15.0	86.09985870261767	pulse	2.0	t		25.0	female	black	3.858336649423	smiling	126	sub-12	1.0	1.0	126_smiling	1.0	trustworthiness	180.48987298328257	
15.0	86.24972086145203	fix	3.0		444	25.0	female	black	3.858336649423	smiling	126	sub-12	1.0	1.0	126_smiling	1.0	trustworthiness	180.63973514211693	3.7665725589677095
15.0	86.79982921158103	pulse	3.0	t		25.0	female	black	3.858336649423	smiling	126	sub-12	1.0	1.0	126_smiling	1.0	trustworthiness	181.18984349224593	
15.0	87.49981722801749	pulse	3.0	t		25.0	female	black	3.858336649423	smiling	126	sub-12	1.0	1.0	126_smiling	1.0	trustworthiness	181.8898315086824	
15.0	88.19978864253994	pulse	3.0	t		25.0	female	black	3.858336649423	smiling	126	sub-12	1.0	1.0	126_smiling	1.0	trustworthiness	182.58980292320484	
15.0	88.89977454600535	pulse	3.0	t		25.0	female	black	3.858336649423	smiling	126	sub-12	1.0	1.0	126_smiling	1.0	trustworthiness	183.28978882667025	
15.0	89.59975290314651	pulse	3.0	t		25.0	female	black	3.858336649423	smiling	126	sub-12	1.0	1.0	126_smiling	1.0	trustworthiness	183.9897671838114	
16.0	90.01629342041974	face	0.0		145	26.0	female	white	4.854755272582572	neutral	027	sub-12	1.0	1.0	027_neutral	0.0		184.40630770108464	1.2333057942794312
16.0	90.29972763805154	pulse	0.0	t		26.0	female	white	4.854755272582572	neutral	027	sub-12	1.0	1.0	027_neutral	0.0		184.68974191871644	
16.0	90.99972561563663	pulse	0.0	t		26.0	female	white	4.854755272582572	neutral	027	sub-12	1.0	1.0	027_neutral	0.0		185.38973989630153	
16.0	91.24959921469917	fix	1.0		443	26.0	female	white	4.854755272582572	neutral	027	sub-12	1.0	1.0	027_neutral	0.0		185.63961349536407	3.7582060997847293
16.0	91.69970004868878	pulse	1.0	t		26.0	female	white	4.854755272582572	neutral	027	sub-12	1.0	1.0	027_neutral	0.0		186.08971432935368	
16.0	92.39967840582972	pulse	1.0	t		26.0	female	white	4.854755272582572	neutral	027	sub-12	1.0	1.0	027_neutral	0.0		186.78969268649462	
16.0	93.09966762967815	pulse	1.0	t		26.0	female	white	4.854755272582572	neutral	027	sub-12	1.0	1.0	027_neutral	0.0		187.48968191034305	
16.0	93.79963844049462	pulse	1.0	t		26.0	female	white	4.854755272582572	neutral	027	sub-12	1.0	1.0	027_neutral	0.0		188.18965272115952	
16.0	94.49963038101987	pulse	1.0	t		26.0	female	white	4.854755272582572	neutral	027	sub-12	1.0	1.0	027_neutral	0.0		188.88964466168477	
16.0	94.58293546594473	response	1.0	n		26.0	female	white	4.854755272582572	neutral	027	sub-12	1.0	1.0	027_neutral	0.0		188.97294974660963	
17.0	95.0078053144839	face	0.0		146	47.0	male	east_asian	2.171110226820533	smiling	024	sub-12	1.0	1.0	024_smiling	0.0		189.3978195951488	1.2416595756369588
17.0	95.19960904001391	pulse	0.0	t		47.0	male	east_asian	2.171110226820533	smiling	024	sub-12	1.0	1.0	024_smiling	0.0		189.5896233206788	
17.0	95.89958679344886	pulse	0.0	t		47.0	male	east_asian	2.171110226820533	smiling	024	sub-12	1.0	1.0	024_smiling	0.0		190.28960107411376	
17.0	96.24946489012086	fix	1.0		443	47.0	male	east_asian	2.171110226820533	smiling	024	sub-12	1.0	1.0	024_smiling	0.0		190.63947917078576	3.758267677793583
17.0	96.5995717913554	pulse	1.0	t		47.0	male	east_asian	2.171110226820533	smiling	024	sub-12	1.0	1.0	024_smiling	0.0		190.9895860720203	
17.0	97.29954743181952	pulse	1.0	t		47.0	male	east_asian	2.171110226820533	smiling	024	sub-12	1.0	1.0	024_smiling	0.0		191.68956171248442	
17.0	97.5497286190739	response	1.0	n		47.0	male	east_asian	2.171110226820533	smiling	024	sub-12	1.0	1.0	024_smiling	0.0		191.9397428997388	
17.0	97.9995242796956	pulse	1.0	t		47.0	male	east_asian	2.171110226820533	smiling	024	sub-12	1.0	1.0	024_smiling	0.0		192.3895385603605	
17.0	98.69951108872033	pulse	1.0	t		47.0	male	east_asian	2.171110226820533	smiling	024	sub-12	1.0	1.0	024_smiling	0.0		193.08952536938523	
17.0	99.39949699218573	pulse	1.0	t		47.0	male	east_asian	2.171110226820533	smiling	024	sub-12	1.0	1.0	024_smiling	0.0		193.78951127285063	
18.0	100.00773256791445	face	0.0		146	24.0	female	east_asian	4.409868682849185	neutral	030	sub-12	1.0	1.0	030_neutral	0.0		194.39774684857935	1.2415982994812111
18.0	100.09947927341568	pulse	0.0	t		24.0	female	east_asian	4.409868682849185	neutral	030	sub-12	1.0	1.0	030_neutral	0.0		194.48949355408058	
18.0	100.79944495273116	pulse	0.0	t		24.0	female	east_asian	4.409868682849185	neutral	030	sub-12	1.0	1.0	030_neutral	0.0		195.18945923339606	
18.0	101.24933086739566	fix	1.0		444	24.0	female	east_asian	4.409868682849185	neutral	030	sub-12	1.0	1.0	030_neutral	0.0		195.63934514806056	3.7665544477886215
18.0	101.4994377988155	pulse	1.0	t		24.0	female	east_asian	4.409868682849185	neutral	030	sub-12	1.0	1.0	030_neutral	0.0		195.8894520794804	
18.0	102.19943909678341	pulse	1.0	t		24.0	female	east_asian	4.409868682849185	neutral	030	sub-12	1.0	1.0	030_neutral	0.0		196.5894533774483	
18.0	102.89939783348018	pulse	1.0	t		24.0	female	east_asian	4.409868682849185	neutral	030	sub-12	1.0	1.0	030_neutral	0.0		197.28941211414508	
18.0	103.59937830359218	pulse	1.0	t		24.0	female	east_asian	4.409868682849185	neutral	030	sub-12	1.0	1.0	030_neutral	0.0		197.98939258425708	
18.0	103.6071193233904	response	1.0	y		24.0	female	east_asian	4.409868682849185	neutral	030	sub-12	1.0	1.0	030_neutral	0.0		197.9971336040553	
18.0	104.29937597932417	pulse	1.0	t		24.0	female	east_asian	4.409868682849185	neutral	030	sub-12	1.0	1.0	030_neutral	0.0		198.68939025998907	
19.0	105.01588531518428	face	0.0		146	27.0	female	white	3.504576203740549	smiling	144	sub-12	1.0	1.0	144_smiling	0.0		199.40589959584918	1.2333157554278387
19.0	105.00204294100172	pulse	0.0	t		27.0	female	white	3.504576203740549	smiling	144	sub-12	1.0	1.0	144_smiling	0.0		199.39205722166662	
19.0	105.69932937322324	pulse	0.0	t		27.0	female	white	3.504576203740549	smiling	144	sub-12	1.0	1.0	144_smiling	0.0		200.08934365388814	
19.0	106.24920107061212	fix	1.0		443	27.0	female	white	3.504576203740549	smiling	144	sub-12	1.0	1.0	144_smiling	0.0		200.63921535127702	3.7748958531738026
19.0	106.3993107488941	pulse	1.0	t		27.0	female	white	3.504576203740549	smiling	144	sub-12	1.0	1.0	144_smiling	0.0		200.789325029559	
19.0	107.09929303012382	pulse	1.0	t		27.0	female	white	3.504576203740549	smiling	144	sub-12	1.0	1.0	144_smiling	0.0		201.48930731078872	
19.0	107.34094053164154	response	1.0	w		27.0	female	white	3.504576203740549	smiling	144	sub-12	1.0	1.0	144_smiling	0.0		201.73095481230644	
19.0	107.79930338368126	pulse	1.0	t		27.0	female	white	3.504576203740549	smiling	144	sub-12	1.0	1.0	144_smiling	0.0		202.18931766434616	
19.0	108.49925215922985	pulse	1.0	t		27.0	female	white	3.504576203740549	smiling	144	sub-12	1.0	1.0	144_smiling	0.0		202.88926643989475	
19.0	109.19921512186852	pulse	1.0	t		27.0	female	white	3.504576203740549	smiling	144	sub-12	1.0	1.0	144_smiling	0.0		203.58922940253342	
19.0	109.89921430686536	pulse	1.0	t		27.0	female	white	3.504576203740549	smiling	144	sub-12	1.0	1.0	144_smiling	0.0		204.28922858753026	
20.0	110.02409692378592	face	0.0		146	28.0	male	east_asian	1.5563072025467568	smiling	005	sub-12	1.0	1.0	005_smiling	1.0	dominance	204.41411120445082	1.2333054924263251
20.0	110.59920292700781	pulse	0.0	t		28.0	male	east_asian	1.5563072025467568	smiling	005	sub-12	1.0	1.0	005_smiling	1.0	dominance	204.9892172076727	
20.0	111.25740241621224	fix	1.0		175	28.0	male	east_asian	1.5563072025467568	smiling	005	sub-12	1.0	1.0	005_smiling	1.0	dominance	205.64741669687714	1.4999587970676203
20.0	111.29918701935571	pulse	1.0	t		28.0	male	east_asian	1.5563072025467568	smiling	005	sub-12	1.0	1.0	005_smiling	1.0	dominance	205.6892013000206	
20.0	111.99916235796672	pulse	1.0	t		28.0	male	east_asian	1.5563072025467568	smiling	005	sub-12	1.0	1.0	005_smiling	1.0	dominance	206.38917663863162	
20.0	112.05747824168202	response	1.0	b		28.0	male	east_asian	1.5563072025467568	smiling	005	sub-12	1.0	1.0	005_smiling	1.0	dominance	206.44749252234692	
20.0	112.6991389039897	pulse	1.0	t		28.0	male	east_asian	1.5563072025467568	smiling	005	sub-12	1.0	1.0	005_smiling	1.0	dominance	207.0891531846546	
20.0	112.75736121327986	rating	2.0		296	28.0	male	east_asian	1.5563072025467568	smiling	005	sub-12	1.0	1.0	005_smiling	1.0	dominance	207.14737549394476	2.4999331395638364
20.0	113.39912933525011	pulse	2.0	t		28.0	male	east_asian	1.5563072025467568	smiling	005	sub-12	1.0	1.0	005_smiling	1.0	dominance	207.789143615915	
20.0	114.09911131462695	pulse	2.0	t		28.0	male	east_asian	1.5563072025467568	smiling	005	sub-12	1.0	1.0	005_smiling	1.0	dominance	208.48912559529185	
20.0	114.79909782179857	pulse	2.0	t		28.0	male	east_asian	1.5563072025467568	smiling	005	sub-12	1.0	1.0	005_smiling	1.0	dominance	209.18911210246347	
20.0	115.2572943528437	fix	3.0		1185	28.0	male	east_asian	1.5563072025467568	smiling	005	sub-12	1.0	1.0	005_smiling	1.0	dominance	209.6473086335086	10.016395748581772
20.0	115.49907980117541	pulse	3.0	t		28.0	male	east_asian	1.5563072025467568	smiling	005	sub-12	1.0	1.0	005_smiling	1.0	dominance	209.8890940818403	
20.0	116.19905031013877	pulse	3.0	t		28.0	male	east_asian	1.5563072025467568	smiling	005	sub-12	1.0	1.0	005_smiling	1.0	dominance	210.58906459080367	
20.0	116.8990292709857	pulse	3.0	t		28.0	male	east_asian	1.5563072025467568	smiling	005	sub-12	1.0	1.0	005_smiling	1.0	dominance	211.2890435516506	
20.0	117.59900279847898	pulse	3.0	t		28.0	male	east_asian	1.5563072025467568	smiling	005	sub-12	1.0	1.0	005_smiling	1.0	dominance	211.98901707914388	
20.0	118.29900922794741	pulse	3.0	t		28.0	male	east_asian	1.5563072025467568	smiling	005	sub-12	1.0	1.0	005_smiling	1.0	dominance	212.6890235086123	
20.0	118.9989688702035	pulse	3.0	t		28.0	male	east_asian	1.5563072025467568	smiling	005	sub-12	1.0	1.0	005_smiling	1.0	dominance	213.3889831508684	
20.0	119.69895326440405	pulse	3.0	t		28.0	male	east_asian	1.5563072025467568	smiling	005	sub-12	1.0	1.0	005_smiling	1.0	dominance	214.08896754506895	
20.0	120.39893252710408	pulse	3.0	t		28.0	male	east_asian	1.5563072025467568	smiling	005	sub-12	1.0	1.0	005_smiling	1.0	dominance	214.78894680776898	
20.0	121.098911487951	pulse	3.0	t		28.0	male	east_asian	1.5563072025467568	smiling	005	sub-12	1.0	1.0	005_smiling	1.0	dominance	215.4889257686159	
20.0	121.79892365262617	pulse	3.0	t		28.0	male	east_asian	1.5563072025467568	smiling	005	sub-12	1.0	1.0	005_smiling	1.0	dominance	216.18893793329107	
20.0	122.498889030089	pulse	3.0	t		28.0	male	east_asian	1.5563072025467568	smiling	005	sub-12	1.0	1.0	005_smiling	1.0	dominance	216.8889033107539	
20.0	123.19886014275835	pulse	3.0	t		28.0	male	east_asian	1.5563072025467568	smiling	005	sub-12	1.0	1.0	005_smiling	1.0	dominance	217.58887442342325	
20.0	123.89883668878133	pulse	3.0	t		28.0	male	east_asian	1.5563072025467568	smiling	005	sub-12	1.0	1.0	005_smiling	1.0	dominance	218.28885096944623	
20.0	124.59881836630507	pulse	3.0	t		28.0	male	east_asian	1.5563072025467568	smiling	005	sub-12	1.0	1.0	005_smiling	1.0	dominance	218.98883264696997	
21.0	125.27369010142547	face	0.0		145	34.0	male	white	2.651014723438122	neutral	121	sub-12	1.0	1.0	121_neutral	0.0		219.66370438209037	1.2333103220742032
21.0	125.29882902171539	pulse	0.0	t		34.0	male	white	2.651014723438122	neutral	121	sub-12	1.0	1.0	121_neutral	0.0		219.6888433023803	
21.0	125.99879983253186	pulse	0.0	t		34.0	male	white	2.651014723438122	neutral	121	sub-12	1.0	1.0	121_neutral	0.0		220.38881411319676	
21.0	126.50700042349968	fix	1.0		443	34.0	male	white	2.651014723438122	neutral	121	sub-12	1.0	1.0	121_neutral	0.0		220.89701470416458	3.758306616828577
21.0	126.69876913408325	pulse	1.0	t		34.0	male	white	2.651014723438122	neutral	121	sub-12	1.0	1.0	121_neutral	0.0		221.08878341474815	
21.0	127.39875171716608	pulse	1.0	t		34.0	male	white	2.651014723438122	neutral	121	sub-12	1.0	1.0	121_neutral	0.0		221.78876599783098	
21.0	128.0987349039549	pulse	1.0	t		34.0	male	white	2.651014723438122	neutral	121	sub-12	1.0	1.0	121_neutral	0.0		222.4887491846198	
21.0	128.79871567591977	pulse	1.0	t		34.0	male	white	2.651014723438122	neutral	121	sub-12	1.0	1.0	121_neutral	0.0		223.18872995658467	
21.0	129.49874112212638	pulse	1.0	t		34.0	male	white	2.651014723438122	neutral	121	sub-12	1.0	1.0	121_neutral	0.0		223.88875540279128	
21.0	130.19867450317247	pulse	1.0	t		34.0	male	white	2.651014723438122	neutral	121	sub-12	1.0	1.0	121_neutral	0.0		224.58868878383737	
22.0	130.26530704032825	face	0.0		147	54.0	female	white	2.286908077994429	neutral	136	sub-12	1.0	1.0	136_neutral	0.0		224.65532132099315	1.241554832651218
22.0	130.8986534640194	pulse	0.0	t		54.0	female	white	2.286908077994429	neutral	136	sub-12	1.0	1.0	136_neutral	0.0		225.2886677446843	
22.0	131.50686187297947	fix	1.0		443	54.0	female	white	2.286908077994429	neutral	136	sub-12	1.0	1.0	136_neutral	0.0		225.89687615364437	3.7582559055274487
22.0	131.59864117860297	pulse	1.0	t		54.0	female	white	2.286908077994429	neutral	136	sub-12	1.0	1.0	136_neutral	0.0		225.98865545926787	
22.0	132.29862466724467	pulse	1.0	t		54.0	female	white	2.286908077994429	neutral	136	sub-12	1.0	1.0	136_neutral	0.0		226.68863894790957	
22.0	132.99860453365068	pulse	1.0	t		54.0	female	white	2.286908077994429	neutral	136	sub-12	1.0	1.0	136_neutral	0.0		227.38861881431558	
22.0	133.69857806114373	pulse	1.0	t		54.0	female	white	2.286908077994429	neutral	136	sub-12	1.0	1.0	136_neutral	0.0		228.08859234180863	
22.0	134.3986095444102	pulse	1.0	t		54.0	female	white	2.286908077994429	neutral	136	sub-12	1.0	1.0	136_neutral	0.0		228.7886238250751	
22.0	135.0985574143997	pulse	1.0	t		54.0	female	white	2.286908077994429	neutral	136	sub-12	1.0	1.0	136_neutral	0.0		229.4885716950646	
23.0	135.26511777850692	face	0.0		147	23.0	male	white	2.6275368085953046	smiling	141	sub-12	1.0	1.0	141_smiling	1.0	trustworthiness	229.65513205917182	1.2499614382811615
23.0	135.79853396042267	pulse	0.0	t		23.0	male	white	2.6275368085953046	smiling	141	sub-12	1.0	1.0	141_smiling	1.0	trustworthiness	230.18854824108757	
23.0	136.49850778976884	pulse	0.0	t		23.0	male	white	2.6275368085953046	smiling	141	sub-12	1.0	1.0	141_smiling	1.0	trustworthiness	230.88852207043374	
23.0	136.51507921678808	fix	1.0		176	23.0	male	white	2.6275368085953046	smiling	141	sub-12	1.0	1.0	141_smiling	1.0	trustworthiness	230.90509349745298	1.4916095435046373
23.0	137.19849188211674	pulse	1.0	t		23.0	male	white	2.6275368085953046	smiling	141	sub-12	1.0	1.0	141_smiling	1.0	trustworthiness	231.58850616278164	
23.0	137.89847355964048	pulse	1.0	t		23.0	male	white	2.6275368085953046	smiling	141	sub-12	1.0	1.0	141_smiling	1.0	trustworthiness	232.28848784030538	
23.0	138.00668876029272	rating	2.0		295	23.0	male	white	2.6275368085953046	smiling	141	sub-12	1.0	1.0	141_smiling	1.0	trustworthiness	232.39670304095762	2.499934346975806
23.0	138.5984561427233	pulse	2.0	t		23.0	male	white	2.6275368085953046	smiling	141	sub-12	1.0	1.0	141_smiling	1.0	trustworthiness	232.9884704233882	
23.0	139.29843993321788	pulse	2.0	t		23.0	male	white	2.6275368085953046	smiling	141	sub-12	1.0	1.0	141_smiling	1.0	trustworthiness	233.68845421388278	
23.0	139.9984158755351	pulse	2.0	t		23.0	male	white	2.6275368085953046	smiling	141	sub-12	1.0	1.0	141_smiling	1.0	trustworthiness	234.3884301562	
23.0	140.2234059219329	response	2.0	b		23.0	male	white	2.6275368085953046	smiling	141	sub-12	1.0	1.0	141_smiling	1.0	trustworthiness	234.6134202025978	
23.0	140.50662310726852	fix	3.0		443	23.0	male	white	2.6275368085953046	smiling	141	sub-12	1.0	1.0	141_smiling	1.0	trustworthiness	234.89663738793342	3.7665628996721807
23.0	140.69839030858725	pulse	3.0	t		23.0	male	white	2.6275368085953046	smiling	141	sub-12	1.0	1.0	141_smiling	1.0	trustworthiness	235.08840458925215	
23.0	141.3983897954372	pulse	3.0	t		23.0	male	white	2.6275368085953046	smiling	141	sub-12	1.0	1.0	141_smiling	1.0	trustworthiness	235.7884040761021	
23.0	142.09836453034222	pulse	3.0	t		23.0	male	white	2.6275368085953046	smiling	141	sub-12	1.0	1.0	141_smiling	1.0	trustworthiness	236.48837881100712	
23.0	142.79837246907573	pulse	3.0	t		23.0	male	white	2.6275368085953046	smiling	141	sub-12	1.0	1.0	141_smiling	1.0	trustworthiness	237.18838674974063	
23.0	143.49831701868243	pulse	3.0	t		23.0	male	white	2.6275368085953046	smiling	141	sub-12	1.0	1.0	141_smiling	1.0	trustworthiness	237.88833129934733	
23.0	144.19831831665033	pulse	3.0	t		23.0	male	white	2.6275368085953046	smiling	141	sub-12	1.0	1.0	141_smiling	1.0	trustworthiness	238.58833259731523	
24.0	144.2731860069407	face	0.0		146	22.0	female	white	4.614007162753682	neutral	009	sub-12	1.0	1.0	009_neutral	1.0	attractiveness	238.6632002876056	1.2333057942794312
24.0	144.89828641078975	pulse	0.0	t		22.0	female	white	4.614007162753682	neutral	009	sub-12	1.0	1.0	009_neutral	1.0	attractiveness	239.28830069145465	
24.0	145.50649180122014	fix	1.0		177	22.0	female	white	4.614007162753682	neutral	009	sub-12	1.0	1.0	009_neutral	1.0	attractiveness	239.89650608188504	1.5082989950408319
24.0	145.598278351315	pulse	1.0	t		22.0	female	white	4.614007162753682	neutral	009	sub-12	1.0	1.0	009_neutral	1.0	attractiveness	239.9882926319799	
24.0	146.29824644545465	pulse	1.0	t		22.0	female	white	4.614007162753682	neutral	009	sub-12	1.0	1.0	009_neutral	1.0	attractiveness	240.68826072611955	
24.0	146.9982241988896	pulse	1.0	t		22.0	female	white	4.614007162753682	neutral	009	sub-12	1.0	1.0	009_neutral	1.0	attractiveness	241.3882384795545	
24.0	147.01479079626097	rating	2.0		295	22.0	female	white	4.614007162753682	neutral	009	sub-12	1.0	1.0	009_neutral	1.0	attractiveness	241.40480507692587	2.4915947527083517
24.0	147.69823002465228	pulse	2.0	t		22.0	female	white	4.614007162753682	neutral	009	sub-12	1.0	1.0	009_neutral	1.0	attractiveness	242.08824430531718	
24.0	148.3982047595573	pulse	2.0	t		22.0	female	white	4.614007162753682	neutral	009	sub-12	1.0	1.0	009_neutral	1.0	attractiveness	242.7882190402222	
24.0	149.09817496666778	pulse	2.0	t		22.0	female	white	4.614007162753682	neutral	009	sub-12	1.0	1.0	009_neutral	1.0	attractiveness	243.48818924733268	
24.0	149.50638554896932	fix	3.0		442	22.0	female	white	4.614007162753682	neutral	009	sub-12	1.0	1.0	009_neutral	1.0	attractiveness	243.89639982963422	3.7665619941133173
24.0	149.6648263696352	response	3.0	y		22.0	female	white	4.614007162753682	neutral	009	sub-12	1.0	1.0	009_neutral	1.0	attractiveness	244.0548406503001	
24.0	149.7981439663663	pulse	3.0	t		22.0	female	white	4.614007162753682	neutral	009	sub-12	1.0	1.0	009_neutral	1.0	attractiveness	244.1881582470312	
24.0	150.4981407365392	pulse	3.0	t		22.0	female	white	4.614007162753682	neutral	009	sub-12	1.0	1.0	009_neutral	1.0	attractiveness	244.8881550172041	
24.0	151.19811879182726	pulse	3.0	t		22.0	female	white	4.614007162753682	neutral	009	sub-12	1.0	1.0	009_neutral	1.0	attractiveness	245.58813307249216	
24.0	151.2897622636076	response	3.0	y		22.0	female	white	4.614007162753682	neutral	009	sub-12	1.0	1.0	009_neutral	1.0	attractiveness	245.6797765442725	
24.0	151.8980802452013	pulse	3.0	t		22.0	female	white	4.614007162753682	neutral	009	sub-12	1.0	1.0	009_neutral	1.0	attractiveness	246.2880945258662	
24.0	152.5980761098151	pulse	3.0	t		22.0	female	white	4.614007162753682	neutral	009	sub-12	1.0	1.0	009_neutral	1.0	attractiveness	246.98809039048	
25.0	153.27294754308264	face	0.0		145	19.0	male	white	3.2522881018702745	smiling	018	sub-12	1.0	1.0	018_smiling	0.0		247.66296182374754	1.2333202832223833
25.0	153.29810970605263	pulse	0.0	t		19.0	male	white	3.2522881018702745	smiling	018	sub-12	1.0	1.0	018_smiling	0.0		247.68812398671753	
25.0	153.99804972786455	pulse	0.0	t		19.0	male	white	3.2522881018702745	smiling	018	sub-12	1.0	1.0	018_smiling	0.0		248.38806400852945	
25.0	154.50626782630502	fix	1.0		443	19.0	male	white	3.2522881018702745	smiling	018	sub-12	1.0	1.0	018_smiling	0.0		248.89628210696992	3.7665484107292286
25.0	154.69803925356587	pulse	1.0	t		19.0	male	white	3.2522881018702745	smiling	018	sub-12	1.0	1.0	018_smiling	0.0		249.08805353423077	
25.0	155.39803542003278	pulse	1.0	t		19.0	male	white	3.2522881018702745	smiling	018	sub-12	1.0	1.0	018_smiling	0.0		249.78804970069768	
25.0	156.097990232641	pulse	1.0	t		19.0	male	white	3.2522881018702745	smiling	018	sub-12	1.0	1.0	018_smiling	0.0		250.4880045133059	
25.0	156.7979945491386	pulse	1.0	t		19.0	male	white	3.2522881018702745	smiling	018	sub-12	1.0	1.0	018_smiling	0.0		251.1880088298035	
25.0	157.49794815433484	pulse	1.0	t		19.0	male	white	3.2522881018702745	smiling	018	sub-12	1.0	1.0	018_smiling	0.0		251.88796243499974	
25.0	158.19793586891842	pulse	1.0	t		19.0	male	white	3.2522881018702745	smiling	018	sub-12	1.0	1.0	018_smiling	0.0		252.58795014958332	
26.0	158.27281623703425	face	0.0		146	20.0	female	white	3.9502586549940313	smiling	091	sub-12	1.0	1.0	091_smiling	0.0		252.66283051769915	1.2333042850141283
26.0	158.89791241494163	pulse	0.0	t		20.0	female	white	3.9502586549940313	smiling	091	sub-12	1.0	1.0	091_smiling	0.0		253.28792669560653	
26.0	159.50612052204838	fix	1.0		443	20.0	female	white	3.9502586549940313	smiling	091	sub-12	1.0	1.0	091_smiling	0.0		253.89613480271328	3.7582679796469165
26.0	159.59789560173044	pulse	1.0	t		20.0	female	white	3.9502586549940313	smiling	091	sub-12	1.0	1.0	091_smiling	0.0		253.98790988239534	
26.0	160.29788180704895	pulse	1.0	t		20.0	female	white	3.9502586549940313	smiling	091	sub-12	1.0	1.0	091_smiling	0.0		254.68789608771385	
26.0	160.99786408827845	pulse	1.0	t		20.0	female	white	3.9502586549940313	smiling	091	sub-12	1.0	1.0	091_smiling	0.0		255.38787836894335	
26.0	161.69783882318393	pulse	1.0	t		20.0	female	white	3.9502586549940313	smiling	091	sub-12	1.0	1.0	091_smiling	0.0		256.08785310384883	
26.0	162.39783166926804	pulse	1.0	t		20.0	female	white	3.9502586549940313	smiling	091	sub-12	1.0	1.0	091_smiling	0.0		256.78784594993294	
26.0	163.0978236097933	pulse	1.0	t		20.0	female	white	3.9502586549940313	smiling	091	sub-12	1.0	1.0	091_smiling	0.0		257.4878378904582	
27.0	163.2643885016953	face	0.0		147	40.0	male	black	2.408674890569041	neutral	061	sub-12	1.0	1.0	061_neutral	0.0		257.6544027823602	1.2499333659534386
27.0	163.79778717613794	pulse	0.0	t		40.0	male	black	2.408674890569041	neutral	061	sub-12	1.0	1.0	061_neutral	0.0		258.18780145680284	
27.0	164.4977860592819	pulse	0.0	t		40.0	male	black	2.408674890569041	neutral	061	sub-12	1.0	1.0	061_neutral	0.0		258.8878003399468	
27.0	164.51432186764873	fix	1.0		443	40.0	male	black	2.408674890569041	neutral	061	sub-12	1.0	1.0	061_neutral	0.0		258.90433614831363	3.7582293424648014
27.0	165.19774630524375	pulse	1.0	t		40.0	male	black	2.408674890569041	neutral	061	sub-12	1.0	1.0	061_neutral	0.0		259.58776058590865	
27.0	165.89772919017946	pulse	1.0	t		40.0	male	black	2.408674890569041	neutral	061	sub-12	1.0	1.0	061_neutral	0.0		260.28774347084436	
27.0	166.59770905658547	pulse	1.0	t		40.0	male	black	2.408674890569041	neutral	061	sub-12	1.0	1.0	061_neutral	0.0		260.9877233372504	
27.0	167.29770099711072	pulse	1.0	t		40.0	male	black	2.408674890569041	neutral	061	sub-12	1.0	1.0	061_neutral	0.0		261.6877152777756	
27.0	167.99767331719227	pulse	1.0	t		40.0	male	black	2.408674890569041	neutral	061	sub-12	1.0	1.0	061_neutral	0.0		262.38768759785717	
28.0	168.27255121011353	face	0.0		145	27.0	female	white	4.181058495821727	smiling	039	sub-12	1.0	1.0	039_smiling	0.0		262.66256549077843	1.2333066998380673
28.0	168.69765680583373	pulse	0.0	t		27.0	female	white	4.181058495821727	smiling	039	sub-12	1.0	1.0	039_smiling	0.0		263.08767108649863	
28.0	169.39765025562406	pulse	0.0	t		27.0	female	white	4.181058495821727	smiling	039	sub-12	1.0	1.0	039_smiling	0.0		263.78766453628896	
28.0	169.5058579099516	fix	1.0		444	27.0	female	white	4.181058495821727	smiling	039	sub-12	1.0	1.0	039_smiling	0.0		263.8958721906165	3.766559881142257
28.0	170.09762106644052	pulse	1.0	t		27.0	female	white	4.181058495821727	smiling	039	sub-12	1.0	1.0	039_smiling	0.0		264.4876353471054	
28.0	170.79759912172835	pulse	1.0	t		27.0	female	white	4.181058495821727	smiling	039	sub-12	1.0	1.0	039_smiling	0.0		265.18761340239325	
28.0	171.49757687516353	pulse	1.0	t		27.0	female	white	4.181058495821727	smiling	039	sub-12	1.0	1.0	039_smiling	0.0		265.88759115582843	
28.0	172.19756247677628	pulse	1.0	t		27.0	female	white	4.181058495821727	smiling	039	sub-12	1.0	1.0	039_smiling	0.0		266.5875767574412	
28.0	172.8975517006245	pulse	1.0	t		27.0	female	white	4.181058495821727	smiling	039	sub-12	1.0	1.0	039_smiling	0.0		267.2875659812894	
29.0	173.27241779109386	face	0.0		145	31.0	female	east_asian	3.395941106247513	smiling	087	sub-12	1.0	1.0	087_smiling	0.0		267.66243207175876	1.2333048887207951
29.0	173.59753669853103	pulse	0.0	t		31.0	female	east_asian	3.395941106247513	smiling	087	sub-12	1.0	1.0	087_smiling	0.0		267.98755097919593	
29.0	174.29750992417144	pulse	0.0	t		31.0	female	east_asian	3.395941106247513	smiling	087	sub-12	1.0	1.0	087_smiling	0.0		268.68752420483634	
29.0	174.50572267981465	fix	1.0		444	31.0	female	east_asian	3.395941106247513	smiling	087	sub-12	1.0	1.0	087_smiling	0.0		268.89573696047955	3.758268281499568
29.0	174.9974876776066	pulse	1.0	t		31.0	female	east_asian	3.395941106247513	smiling	087	sub-12	1.0	1.0	087_smiling	0.0		269.3875019582715	
29.0	175.69744430133255	pulse	1.0	t		31.0	female	east_asian	3.395941106247513	smiling	087	sub-12	1.0	1.0	087_smiling	0.0		270.08745858199745	
29.0	176.39746854012697	pulse	1.0	t		31.0	female	east_asian	3.395941106247513	smiling	087	sub-12	1.0	1.0	087_smiling	0.0		270.78748282079187	
29.0	177.09742938979502	pulse	1.0	t		31.0	female	east_asian	3.395941106247513	smiling	087	sub-12	1.0	1.0	087_smiling	0.0		271.4874436704599	
29.0	177.7974137839958	pulse	1.0	t		31.0	female	east_asian	3.395941106247513	smiling	087	sub-12	1.0	1.0	087_smiling	0.0		272.1874280646607	
30.0	178.26399096131422	face	0.0		146	36.0	female	white	2.7548746518105847	neutral	011	sub-12	1.0	1.0	011_neutral	0.0		272.6540052419791	1.2416034309817405
30.0	178.49739455596068	pulse	0.0	t		36.0	female	white	2.7548746518105847	neutral	011	sub-12	1.0	1.0	011_neutral	0.0		272.8874088366256	
30.0	179.19738860945677	pulse	0.0	t		36.0	female	white	2.7548746518105847	neutral	011	sub-12	1.0	1.0	011_neutral	0.0		273.58740289012167	
30.0	179.50559439229596	fix	1.0		444	36.0	female	white	2.7548746518105847	neutral	011	sub-12	1.0	1.0	011_neutral	0.0		273.89560867296086	3.7583256335665283
30.0	179.89735640174308	pulse	1.0	t		36.0	female	white	2.7548746518105847	neutral	011	sub-12	1.0	1.0	011_neutral	0.0		274.287370682408	
30.0	180.59734109779697	pulse	1.0	t		36.0	female	white	2.7548746518105847	neutral	011	sub-12	1.0	1.0	011_neutral	0.0		274.98735537846187	
30.0	181.29732036049677	pulse	1.0	t		36.0	female	white	2.7548746518105847	neutral	011	sub-12	1.0	1.0	011_neutral	0.0		275.68733464116167	
30.0	181.99729479354914	pulse	1.0	t		36.0	female	white	2.7548746518105847	neutral	011	sub-12	1.0	1.0	011_neutral	0.0		276.38730907421404	
30.0	182.69728250813273	pulse	1.0	t		36.0	female	white	2.7548746518105847	neutral	011	sub-12	1.0	1.0	011_neutral	0.0		277.08729678879763	
31.0	183.2639200258625	face	0.0		146	40.0	male	black	2.408674890569041	smiling	061	sub-12	1.0	1.0	061_smiling	0.0		277.6539343065274	1.2415427585319776
31.0	183.39727716533457	pulse	0.0	t		40.0	male	black	2.408674890569041	smiling	061	sub-12	1.0	1.0	061_smiling	0.0		277.7872914459995	
31.0	184.09724707059218	pulse	0.0	t		40.0	male	black	2.408674890569041	smiling	061	sub-12	1.0	1.0	061_smiling	0.0		278.4872613512571	
31.0	184.50546278439447	fix	1.0		444	40.0	male	black	2.408674890569041	smiling	061	sub-12	1.0	1.0	061_smiling	0.0		278.89547706505937	3.7583512910705394
31.0	184.79722965367478	pulse	1.0	t		40.0	male	black	2.408674890569041	smiling	061	sub-12	1.0	1.0	061_smiling	0.0		279.1872439343397	
31.0	185.49720559599223	pulse	1.0	t		40.0	male	black	2.408674890569041	smiling	061	sub-12	1.0	1.0	061_smiling	0.0		279.8872198766571	
31.0	186.19718727351596	pulse	1.0	t		40.0	male	black	2.408674890569041	smiling	061	sub-12	1.0	1.0	061_smiling	0.0		280.58720155418087	
31.0	186.89717287512826	pulse	1.0	t		40.0	male	black	2.408674890569041	smiling	061	sub-12	1.0	1.0	061_smiling	0.0		281.28718715579316	
31.0	187.59714670447443	pulse	1.0	t		40.0	male	black	2.408674890569041	smiling	061	sub-12	1.0	1.0	061_smiling	0.0		281.9871609851393	
32.0	188.263814075465	face	0.0		146	32.0	male	white	2.389176283326701	smiling	092	sub-12	1.0	1.0	092_smiling	0.0		282.6538283561299	1.2415195158519055
32.0	188.29719780818482	pulse	0.0	t		32.0	male	white	2.389176283326701	smiling	092	sub-12	1.0	1.0	092_smiling	0.0		282.6872120888497	
32.0	188.9971260577306	pulse	0.0	t		32.0	male	white	2.389176283326701	smiling	092	sub-12	1.0	1.0	092_smiling	0.0		283.3871403383955	
32.0	189.5053335913169	fix	1.0		443	32.0	male	white	2.389176283326701	smiling	092	sub-12	1.0	1.0	092_smiling	0.0		283.8953478719818	3.7665475051699104
32.0	189.6971267519923	pulse	1.0	t		32.0	male	white	2.389176283326701	smiling	092	sub-12	1.0	1.0	092_smiling	0.0		284.0871410326572	
32.0	190.39708005533544	pulse	1.0	t		32.0	male	white	2.389176283326701	smiling	092	sub-12	1.0	1.0	092_smiling	0.0		284.78709433600034	
32.0	191.09705660135864	pulse	1.0	t		32.0	male	white	2.389176283326701	smiling	092	sub-12	1.0	1.0	092_smiling	0.0		285.48707088202354	
32.0	191.79703918444125	pulse	1.0	t		32.0	male	white	2.389176283326701	smiling	092	sub-12	1.0	1.0	092_smiling	0.0		286.18705346510615	
32.0	192.49701965455347	pulse	1.0	t		32.0	male	white	2.389176283326701	smiling	092	sub-12	1.0	1.0	092_smiling	0.0		286.88703393521837	
32.0	193.19700223763607	pulse	1.0	t		32.0	male	white	2.389176283326701	smiling	092	sub-12	1.0	1.0	092_smiling	0.0		287.58701651830097	
33.0	193.27188109648682	face	0.0		146	28.0	female	white	5.676880222841227	neutral	124	sub-12	1.0	1.0	124_neutral	0.0		287.6618953771517	1.2333187739577625
33.0	193.89698995221966	pulse	0.0	t		28.0	female	white	5.676880222841227	neutral	124	sub-12	1.0	1.0	124_neutral	0.0		288.28700423288456	
33.0	194.50519987044459	fix	1.0		443	28.0	female	white	5.676880222841227	neutral	124	sub-12	1.0	1.0	124_neutral	0.0		288.8952141511095	3.7665526366708946
33.0	194.59696951677256	pulse	1.0	t		28.0	female	white	5.676880222841227	neutral	124	sub-12	1.0	1.0	124_neutral	0.0		288.98698379743746	
33.0	195.29695391097334	pulse	1.0	t		28.0	female	white	5.676880222841227	neutral	124	sub-12	1.0	1.0	124_neutral	0.0		289.68696819163824	
33.0	195.99694132370382	pulse	1.0	t		28.0	female	white	5.676880222841227	neutral	124	sub-12	1.0	1.0	124_neutral	0.0		290.3869556043687	
33.0	196.69691273822605	pulse	1.0	t		28.0	female	white	5.676880222841227	neutral	124	sub-12	1.0	1.0	124_neutral	0.0		291.08692701889095	
33.0	197.39689200092585	pulse	1.0	t		28.0	female	white	5.676880222841227	neutral	124	sub-12	1.0	1.0	124_neutral	0.0		291.78690628159075	
33.0	198.09688907295208	pulse	1.0	t		28.0	female	white	5.676880222841227	neutral	124	sub-12	1.0	1.0	124_neutral	0.0		292.486903353617	
34.0	198.27175250711548	face	0.0		146	22.0	male	black	2.767608436132113	neutral	044	sub-12	1.0	1.0	044_neutral	0.0		292.6617667877804	1.2416435774284764
34.0	198.79685897820923	pulse	0.0	t		22.0	male	black	2.767608436132113	neutral	044	sub-12	1.0	1.0	044_neutral	0.0		293.18687325887413	
34.0	199.4968364297913	pulse	0.0	t		22.0	male	black	2.767608436132113	neutral	044	sub-12	1.0	1.0	044_neutral	0.0		293.8868507104562	
34.0	199.51339608454396	fix	1.0		443	22.0	male	black	2.767608436132113	neutral	044	sub-12	1.0	1.0	044_neutral	0.0		293.90341036520886	3.7582248146700294
34.0	200.19682022028633	pulse	1.0	t		22.0	male	black	2.767608436132113	neutral	044	sub-12	1.0	1.0	044_neutral	0.0		294.5868345009512	
34.0	200.89679435148514	pulse	1.0	t		22.0	male	black	2.767608436132113	neutral	044	sub-12	1.0	1.0	044_neutral	0.0		295.28680863215004	
34.0	201.5967736141854	pulse	1.0	t		22.0	male	black	2.767608436132113	neutral	044	sub-12	1.0	1.0	044_neutral	0.0		295.9867878948503	
34.0	202.29676555471065	pulse	1.0	t		22.0	male	black	2.767608436132113	neutral	044	sub-12	1.0	1.0	044_neutral	0.0		296.68677983537555	
34.0	202.99673878035105	pulse	1.0	t		22.0	male	black	2.767608436132113	neutral	044	sub-12	1.0	1.0	044_neutral	0.0		297.38675306101595	
35.0	203.27162089921399	face	0.0		145	22.0	female	white	4.614007162753682	smiling	009	sub-12	1.0	1.0	009_smiling	0.0		297.6616351798789	1.233310623927082
35.0	203.6967252875222	pulse	0.0	t		22.0	female	white	4.614007162753682	smiling	009	sub-12	1.0	1.0	009_smiling	0.0		298.0867395681871	
35.0	204.39671058728186	pulse	0.0	t		22.0	female	white	4.614007162753682	smiling	009	sub-12	1.0	1.0	009_smiling	0.0		298.78672486794676	
35.0	204.50493152314107	fix	1.0		444	22.0	female	white	4.614007162753682	smiling	009	sub-12	1.0	1.0	009_smiling	0.0		298.89494580380597	3.7582130424034403
35.0	205.09669015183476	pulse	1.0	t		22.0	female	white	4.614007162753682	smiling	009	sub-12	1.0	1.0	009_smiling	0.0		299.48670443249966	
35.0	205.79666790526994	pulse	1.0	t		22.0	female	white	4.614007162753682	smiling	009	sub-12	1.0	1.0	009_smiling	0.0		300.18668218593484	
35.0	206.49665139391186	pulse	1.0	t		22.0	female	white	4.614007162753682	smiling	009	sub-12	1.0	1.0	009_smiling	0.0		300.88666567457676	
35.0	207.19662703437575	pulse	1.0	t		22.0	female	white	4.614007162753682	smiling	009	sub-12	1.0	1.0	009_smiling	0.0		301.58664131504065	
35.0	207.89664855649357	pulse	1.0	t		22.0	female	white	4.614007162753682	smiling	009	sub-12	1.0	1.0	009_smiling	0.0		302.2866628371585	
36.0	208.2631445655445	face	0.0		146	22.0	female	west_asian	3.8205332272184642	neutral	066	sub-12	1.0	1.0	066_neutral	0.0		302.6531588462094	1.2416526330180204
36.0	208.5965970301893	pulse	0.0	t		22.0	female	west_asian	3.8205332272184642	neutral	066	sub-12	1.0	1.0	066_neutral	0.0		302.9866113108542	
36.0	209.2965865558906	pulse	0.0	t		22.0	female	west_asian	3.8205332272184642	neutral	066	sub-12	1.0	1.0	066_neutral	0.0		303.6866008365555	
36.0	209.50479719856253	fix	1.0		444	22.0	female	west_asian	3.8205332272184642	neutral	066	sub-12	1.0	1.0	066_neutral	0.0		303.8948114792274	3.76655807002453
36.0	209.99654317961654	pulse	1.0	t		22.0	female	west_asian	3.8205332272184642	neutral	066	sub-12	1.0	1.0	066_neutral	0.0		304.38655746028144	
36.0	210.69655624985103	pulse	1.0	t		22.0	female	west_asian	3.8205332272184642	neutral	066	sub-12	1.0	1.0	066_neutral	0.0		305.0865705305159	
36.0	211.39651891063681	pulse	1.0	t		22.0	female	west_asian	3.8205332272184642	neutral	066	sub-12	1.0	1.0	066_neutral	0.0		305.7865331913017	
36.0	212.09650028630745	pulse	1.0	t		22.0	female	west_asian	3.8205332272184642	neutral	066	sub-12	1.0	1.0	066_neutral	0.0		306.48651456697235	
36.0	212.79648317124315	pulse	1.0	t		22.0	female	west_asian	3.8205332272184642	neutral	066	sub-12	1.0	1.0	066_neutral	0.0		307.18649745190805	
37.0	213.27135526858706	face	0.0		145	27.0	female	white	4.181058495821727	neutral	039	sub-12	1.0	1.0	039_neutral	0.0		307.66136954925196	1.2332982479547354
37.0	213.4964621320903	pulse	0.0	t		27.0	female	white	4.181058495821727	neutral	039	sub-12	1.0	1.0	039_neutral	0.0		307.8864764127552	
37.0	214.19645346890934	pulse	0.0	t		27.0	female	white	4.181058495821727	neutral	039	sub-12	1.0	1.0	039_neutral	0.0		308.58646774957424	
37.0	214.5046535165418	fix	1.0		444	27.0	female	white	4.181058495821727	neutral	039	sub-12	1.0	1.0	039_neutral	0.0		308.8946677972067	3.7665686348791496
37.0	214.89643001493255	pulse	1.0	t		27.0	female	white	4.181058495821727	neutral	039	sub-12	1.0	1.0	039_neutral	0.0		309.28644429559745	
37.0	215.59640746651462	pulse	1.0	t		27.0	female	white	4.181058495821727	neutral	039	sub-12	1.0	1.0	039_neutral	0.0		309.9864217471795	
37.0	216.29640061445184	pulse	1.0	t		27.0	female	white	4.181058495821727	neutral	039	sub-12	1.0	1.0	039_neutral	0.0		310.68641489511674	
37.0	216.9963678030324	pulse	1.0	t		27.0	female	white	4.181058495821727	neutral	039	sub-12	1.0	1.0	039_neutral	0.0		311.3863820836973	
37.0	217.69635219723318	pulse	1.0	t		27.0	female	white	4.181058495821727	neutral	039	sub-12	1.0	1.0	039_neutral	0.0		312.0863664778981	
38.0	218.27122215142094	face	0.0		145	28.0	male	white	3.9076800636689217	neutral	033	sub-12	1.0	1.0	033_neutral	0.0		312.66123643208584	1.2332967386896598
38.0	218.39634021366942	pulse	0.0	t		28.0	male	white	3.9076800636689217	neutral	033	sub-12	1.0	1.0	033_neutral	0.0		312.7863544943343	
38.0	219.09631042078013	pulse	0.0	t		28.0	male	white	3.9076800636689217	neutral	033	sub-12	1.0	1.0	033_neutral	0.0		313.486324701445	
38.0	219.5045188901106	fix	1.0		444	28.0	male	white	3.9076800636689217	neutral	033	sub-12	1.0	1.0	033_neutral	0.0		313.8945331707755	3.7583078242405463
38.0	219.7963011538934	pulse	1.0	t		28.0	male	white	3.9076800636689217	neutral	033	sub-12	1.0	1.0	033_neutral	0.0		314.1863154345583	
38.0	220.4962767943573	pulse	1.0	t		28.0	male	white	3.9076800636689217	neutral	033	sub-12	1.0	1.0	033_neutral	0.0		314.8862910750222	
38.0	221.1962684330299	pulse	1.0	t		28.0	male	white	3.9076800636689217	neutral	033	sub-12	1.0	1.0	033_neutral	0.0		315.5862827136948	
38.0	221.89623803643394	pulse	1.0	t		28.0	male	white	3.9076800636689217	neutral	033	sub-12	1.0	1.0	033_neutral	0.0		316.28625231709884	
38.0	222.59621911025192	pulse	1.0	t		28.0	male	white	3.9076800636689217	neutral	033	sub-12	1.0	1.0	033_neutral	0.0		316.9862333909168	
39.0	223.26282671435115	face	0.0		146	40.0	male	white	1.868682849184242	neutral	172	sub-12	1.0	1.0	172_neutral	1.0	attractiveness	317.65284099501605	1.2415554363574302
39.0	223.29624938610618	pulse	0.0	t		40.0	male	white	1.868682849184242	neutral	172	sub-12	1.0	1.0	172_neutral	1.0	attractiveness	317.6862636667711	
39.0	223.99617642824	pulse	0.0	t		40.0	male	white	1.868682849184242	neutral	172	sub-12	1.0	1.0	172_neutral	1.0	attractiveness	318.3861907089049	
39.0	224.50438215070858	fix	1.0		177	40.0	male	white	1.868682849184242	neutral	172	sub-12	1.0	1.0	172_neutral	1.0	attractiveness	318.8943964313735	1.4999651359798918
39.0	224.69617893361988	pulse	1.0	t		40.0	male	white	1.868682849184242	neutral	172	sub-12	1.0	1.0	172_neutral	1.0	attractiveness	319.0861932142848	
39.0	225.39617660935187	pulse	1.0	t		40.0	male	white	1.868682849184242	neutral	172	sub-12	1.0	1.0	172_neutral	1.0	attractiveness	319.78619089001677	
39.0	226.00434728668847	rating	2.0		295	40.0	male	white	1.868682849184242	neutral	172	sub-12	1.0	1.0	172_neutral	1.0	attractiveness	320.39436156735337	2.4999409877418657
39.0	226.09613896828455	pulse	2.0	t		40.0	male	white	1.868682849184242	neutral	172	sub-12	1.0	1.0	172_neutral	1.0	attractiveness	320.48615324894945	
39.0	226.79610072351147	pulse	2.0	t		40.0	male	white	1.868682849184242	neutral	172	sub-12	1.0	1.0	172_neutral	1.0	attractiveness	321.1861150041764	
39.0	227.49608964550657	pulse	2.0	t		40.0	male	white	1.868682849184242	neutral	172	sub-12	1.0	1.0	172_neutral	1.0	attractiveness	321.8861039261715	
39.0	228.1960933582984	pulse	2.0	t		40.0	male	white	1.868682849184242	neutral	172	sub-12	1.0	1.0	172_neutral	1.0	attractiveness	322.5861076389633	
39.0	228.50428827443034	fix	3.0		443	40.0	male	white	1.868682849184242	neutral	172	sub-12	1.0	1.0	172_neutral	1.0	attractiveness	322.89430255509524	3.7499018223165876
39.0	228.56273003084038	response	3.0	y		40.0	male	white	1.868682849184242	neutral	172	sub-12	1.0	1.0	172_neutral	1.0	attractiveness	322.9527443115053	
39.0	228.89604002087594	pulse	3.0	t		40.0	male	white	1.868682849184242	neutral	172	sub-12	1.0	1.0	172_neutral	1.0	attractiveness	323.28605430154084	
39.0	229.596039205873	pulse	3.0	t		40.0	male	white	1.868682849184242	neutral	172	sub-12	1.0	1.0	172_neutral	1.0	attractiveness	323.9860534865379	
39.0	230.29603265566334	pulse	3.0	t		40.0	male	white	1.868682849184242	neutral	172	sub-12	1.0	1.0	172_neutral	1.0	attractiveness	324.68604693632824	
39.0	230.99600437203867	pulse	3.0	t		40.0	male	white	1.868682849184242	neutral	172	sub-12	1.0	1.0	172_neutral	1.0	attractiveness	325.38601865270357	
39.0	231.69598423844423	pulse	3.0	t		40.0	male	white	1.868682849184242	neutral	172	sub-12	1.0	1.0	172_neutral	1.0	attractiveness	326.0859985191091	
40.0	232.25419009674692	fix	0.0		720													326.6442043774118	5.999824321562755
40.0	232.39596319929137	pulse	0.0	t														326.7859774799563	
40.0	233.09594608422708	pulse	0.0	t														327.485960364892	
40.0	233.7959211209852	pulse	0.0	t														328.1859354016501	
40.0	234.49590823186304	pulse	0.0	t														328.88592251252794	
40.0	235.1958844760327	pulse	0.0	t														329.5858987566976	
40.0	235.89586705911574	pulse	0.0	t														330.28588133978064	
40.0	236.59585477369933	pulse	0.0	t														330.98586905436423	
40.0	236.7791761285	response	0.0	y														331.1691904091649	
40.0	237.29581743448512	pulse	0.0	t														331.68583171515	
40.0	237.9958114879812	pulse	0.0	t														332.3858257686461	
