trial_nr	onset	event_type	phase	response	nr_frames	rating_type	face_id	repetition	session	rating	onset_abs	duration
0.0	0.007955709314273918	cue	0.0		479						50.21933138354666	3.9921245843067936
0.0	4.0000802936210675	fix	1.0		120						54.21145596785345	1.0167858946444994
0.0	5.016866188265567	face	0.0		147	attractiveness	087	1.0	2		55.22824186249795	1.2836667983765437
0.0	6.300532986642111	rating	1.0		1099	attractiveness	087	1.0	2		56.5119086608745	9.16756101485089
0.0	15.468094001493	fix	2.0		60	attractiveness	087	1.0	2	0.0	65.67946967572539	0.5167534451547908
1.0	15.984847446647791	face	0.0		147	attractiveness	126	1.0	2		66.19622312088018	1.2334582311677877
1.0	17.21830567781558	rating	1.0		552	attractiveness	126	1.0	2		67.42968135204796	4.608868038037372
1.0	21.82717371585295	fix	2.0		60	attractiveness	126	1.0	2	0.4400000000000004	72.03854939008534	0.5167507284534167
2.0	22.343924444306367	face	0.0		147	attractiveness	012	1.0	2		72.55530011853875	1.233460042302113
2.0	23.57738448660848	rating	1.0		266	attractiveness	012	1.0	2		73.78876016084087	2.225255905731501
2.0	25.80264039233998	fix	2.0		60	attractiveness	012	1.0	2	0.2400000000000002	76.01401606657237	0.516748615463257
3.0	26.319389007803238	face	0.0		147	attractiveness	064	1.0	2		76.53076468203562	1.2334597404465057
3.0	27.552848748249744	rating	1.0		235	attractiveness	064	1.0	2		77.76422442248213	1.9669003130545661
3.0	29.51974906130431	fix	2.0		60	attractiveness	064	1.0	2	1.21	79.7311247355367	0.5167594822689807
4.0	30.03650854357329	face	0.0		147	attractiveness	136	1.0	2		80.24788421780568	1.2334884167396467
4.0	31.269996960312938	rating	1.0		232	attractiveness	136	1.0	2		81.48137263454532	1.9418707387405902
4.0	33.21186769905353	fix	2.0		60	attractiveness	136	1.0	2	-0.18000000000000016	83.42324337328591	0.5167299004087909
5.0	33.72859759946232	face	0.0		147	attractiveness	100	1.0	2		83.9399732736947	1.2334657775606956
5.0	34.962063377023014	rating	1.0		205	attractiveness	100	1.0	2		85.1734390512554	1.7168542045935737
5.0	36.67891758161659	fix	2.0		60	attractiveness	100	1.0	2	-0.2400000000000002	86.89029325584897	0.5167519358760728
6.0	37.19566951749266	face	0.0		147	attractiveness	141	1.0	2		87.40704519172505	1.2334573256007388
6.0	38.4291268430934	rating	1.0		91	attractiveness	141	1.0	2		88.64050251732579	0.7667542752578811
6.0	39.19588111835128	fix	2.0		60	attractiveness	141	1.0	2	-2.49	89.40725679258367	0.516743483916116
7.0	39.7126246022674	face	0.0		147	attractiveness	043	1.0	2		89.92400027649978	1.233476040655205
7.0	40.9461006429226	rating	1.0		81	attractiveness	043	1.0	2		91.15747631715499	0.6833989316119187
7.0	41.62949957453452	fix	2.0		60	attractiveness	043	1.0	2	0.40000000000000036	91.8408752487669	0.5167516340204656
8.0	42.146251208554986	face	0.0		147	attractiveness	082	1.0	2		92.35762688278737	1.233473022097769
8.0	43.379724230652755	rating	1.0		104	attractiveness	082	1.0	2		93.59109990488514	0.8750773127960656
8.0	44.25480154344882	fix	2.0		60	attractiveness	082	1.0	2	0.96	94.4661772176812	0.5167546525774469
9.0	44.77155619602627	face	0.0		147	attractiveness	070	1.0	2		94.98293187025865	1.2334609478693892
9.0	46.00501714389566	rating	1.0		73	attractiveness	070	1.0	2		96.21639281812804	0.6167410388845838
9.0	46.62175818278024	fix	2.0		60	attractiveness	070	1.0	2	-0.2400000000000002	96.83313385701263	0.5167522377319074
10.0	47.13851042051215	face	0.0		147	attractiveness	033	1.0	2		97.34988609474453	1.233453401476254
10.0	48.3719638219884	rating	1.0		73	attractiveness	033	1.0	2		98.58333949622079	0.6167380203276025
10.0	48.988701842316004	fix	2.0		60	attractiveness	033	1.0	2	0.5	99.20007751654839	0.5167492191746987
11.0	49.5054510614907	face	0.0		147	attractiveness	005	1.0	2		99.71682673572309	1.2334588348792295
11.0	50.73890989636993	rating	1.0		107	attractiveness	005	1.0	2		100.95028557060232	0.9001023592741149
11.0	51.63901225564405	fix	2.0		60	attractiveness	005	1.0	2	-2.9	101.85038792987643	0.5167510303090239
12.0	52.15576328595307	face	0.0		147	attractiveness	011	1.0	2		102.36713896018546	1.233455212610579
12.0	53.38921849856365	rating	1.0		199	attractiveness	011	1.0	2		103.60059417279604	1.6668551252535053
12.0	55.056073623817156	fix	2.0		60	attractiveness	011	1.0	2	-1.0099999999999998	105.26744929804954	0.5167522377319074
13.0	55.57282586154906	face	0.0		147	attractiveness	099	1.0	2		105.78420153578145	1.2334591367348366
13.0	56.8062849982839	rating	1.0		153	attractiveness	099	1.0	2		107.01766067251629	1.2834841756668993
13.0	58.0897691739508	fix	2.0		60	attractiveness	099	1.0	2	0.16999999999999993	108.30114484818318	0.5167489173188642
14.0	58.60651809126966	face	0.0		147	attractiveness	102	1.0	2		108.81789376550205	1.2334603441579475
14.0	59.83997843542761	rating	1.0		133	attractiveness	102	1.0	2		110.05135410966	1.1167994479662866
14.0	60.9567778833939	fix	2.0		60	attractiveness	102	1.0	2	-2.9	111.16815355762628	0.5167431820602815
15.0	61.47352106545418	face	0.0		147	attractiveness	034	1.0	2		111.68489673968656	1.2334727202421618
15.0	62.70699378569634	rating	1.0		95	attractiveness	034	1.0	2		112.91836945992873	0.8000734113106773
15.0	63.50706719700702	fix	2.0		60	attractiveness	034	1.0	2	-0.9199999999999999	113.7184428712394	0.5167516340204656
16.0	64.02381883102748	face	0.0		147	attractiveness	061	1.0	2		114.23519450525987	1.2334579293121806
16.0	65.25727676033966	rating	1.0		165	attractiveness	061	1.0	2		115.46865243457205	1.3834877677497843
16.0	66.64076452808945	fix	2.0		60	attractiveness	061	1.0	2	-0.69	116.85214020232183	0.5167609915476987
17.0	67.15752551963715	face	0.0		147	attractiveness	027	1.0	2		117.36890119386953	1.233450986630487
17.0	68.39097650626763	rating	1.0		45	attractiveness	027	1.0	2		118.60235218050002	0.3833748737110909
17.0	68.77435137997873	fix	2.0		60	attractiveness	027	1.0	2	0.46999999999999975	118.98572705421111	0.5167597841248153
18.0	69.29111116410354	face	0.0		147	attractiveness	121	1.0	2		119.50248683833593	1.2334497792076036
18.0	70.52456094331114	rating	1.0		90	attractiveness	121	1.0	2		120.73593661754353	0.7584215481517731
18.0	71.28298249146292	fix	2.0		60	attractiveness	121	1.0	2	1.5199999999999996	121.4943581656953	0.5167501247417476
19.0	71.79973261620466	face	0.0		147	attractiveness	042	1.0	2		122.01110829043705	1.2334530996206468
19.0	73.03318571582531	rating	1.0		148	attractiveness	042	1.0	2		123.2445613900577	1.241816012298841
19.0	74.27500172812415	fix	2.0		60	attractiveness	042	1.0	2	2.12	124.48637740235654	0.5167555581447232
20.0	74.79175728626888	face	0.0		147	attractiveness	030	1.0	2		125.00313296050126	1.2334543070433028
20.0	76.02521159331218	rating	1.0		105	attractiveness	030	1.0	2		126.23658726754456	0.8834329809369592
20.0	76.90864457424914	fix	2.0		60	attractiveness	030	1.0	2	1.2199999999999998	127.12002024848152	0.5167492191746987
21.0	77.42539379342384	face	0.0		147	attractiveness	066	1.0	2		127.63676946765622	1.233486907461156
21.0	78.65888070088499	rating	1.0		144	attractiveness	066	1.0	2		128.87025637511738	1.208434995823609
21.0	79.8673156967086	fix	2.0		60	attractiveness	066	1.0	2	1.2599999999999998	130.078691370941	0.5167537470106254
22.0	80.38406944371923	face	0.0		147	attractiveness	144	1.0	2		130.5954451179516	1.2334742295208798
22.0	81.6175436732401	rating	1.0		99	attractiveness	144	1.0	2		131.8289193474725	0.8334166958209153
22.0	82.45096036906102	fix	2.0		60	attractiveness	144	1.0	2	0.6200000000000001	132.6623360432934	0.5167558600003304
23.0	82.96771622906135	face	0.0		147	attractiveness	130	1.0	2		133.17909190329374	1.2334606460135547
23.0	84.2011768750749	rating	1.0		97	attractiveness	130	1.0	2		134.4125525493073	0.8167461100608762
23.0	85.01792298513578	fix	2.0		60	attractiveness	130	1.0	2	-3.13	135.22929865936817	0.5167649156721836
24.0	85.53468790080797	face	0.0		147	attractiveness	024	1.0	2		135.74606357504035	1.2334476662174438
24.0	86.76813556702541	rating	1.0		73	attractiveness	024	1.0	2		136.9795112412578	0.6167422463076946
24.0	87.3848778133331	fix	2.0		60	attractiveness	024	1.0	2	-1.0299999999999998	137.5962534875655	0.5167446913389995
25.0	87.9016225046721	face	0.0		147	attractiveness	038	1.0	2		138.1129981789045	1.233461249724769
25.0	89.13508375439687	rating	1.0		92	attractiveness	038	1.0	2		139.34645942862926	0.7751048118518611
25.0	89.91018856624873	fix	2.0		61	attractiveness	038	1.0	2	-0.81	140.12156424048112	0.5251073021615866
26.0	90.43529586841032	face	0.0		146	attractiveness	009	1.0	2		140.6466715426427	1.2250805275591574
26.0	91.66037639596948	rating	1.0		47	attractiveness	009	1.0	2		141.87175207020186	0.40004093163543075
26.0	92.06041732760491	fix	2.0		60	attractiveness	009	1.0	2	0.46999999999999975	142.2717930018373	0.5167561618563923
27.0	92.5771734894613	face	0.0		147	attractiveness	006	1.0	2		142.7885491636937	1.2334579293119532
27.0	93.81063141877326	rating	1.0		137	attractiveness	006	1.0	2		144.02200709300564	1.1501270359790396
27.0	94.9607584547523	fix	2.0		60	attractiveness	006	1.0	2	0.4900000000000002	145.17213412898468	0.516756765567834
28.0	95.47751522032013	face	0.0		147	attractiveness	039	1.0	2		145.68889089455251	1.2334482699288856
28.0	96.71096349024901	rating	1.0		75	attractiveness	039	1.0	2		146.9223391644814	0.6334107190778013
28.0	97.34437420932682	fix	2.0		60	attractiveness	039	1.0	2	-1.35	147.5557498835592	0.5167498228861405
29.0	97.86112403221296	face	0.0		147	attractiveness	137	1.0	2		148.07249970644534	1.2334600423018856
29.0	99.09458407451484	rating	1.0		177	attractiveness	137	1.0	2		149.30595974874723	1.4835191305589888
29.0	100.57810320507383	fix	2.0		61	attractiveness	137	1.0	2	0.46999999999999975	150.78947887930622	0.5250728906096356
30.0	101.10317609568347	face	0.0		146	attractiveness	091	1.0	2		151.31455176991585	1.2251188632355934
30.0	102.32829495891906	rating	1.0		123	attractiveness	091	1.0	2		152.53967063315145	1.0334893826777716
30.0	103.36178434159683	fix	2.0		60	attractiveness	091	1.0	2	2.1500000000000004	153.57316001582922	0.5167145057671405
31.0	103.87849884736397	face	0.0		147	attractiveness	018	1.0	2		154.08987452159636	1.2334709091078366
31.0	105.11196975647181	rating	1.0		81	attractiveness	018	1.0	2		155.3233454307042	0.6833995353233604
31.0	105.79536929179517	fix	2.0		60	attractiveness	018	1.0	2	-2.42	156.00674496602755	0.5167606896920915
32.0	106.31212998148726	face	0.0		147	attractiveness	124	1.0	2		156.52350565571965	1.2334431383817446
32.0	107.545573119869	rating	1.0		117	attractiveness	124	1.0	2		157.7569487941014	0.9834465342587464
32.0	108.52901965412775	fix	2.0		60	attractiveness	124	1.0	2	2.1500000000000004	158.74039532836014	0.5167531432989563
33.0	109.04577279742671	face	0.0		147	attractiveness	101	1.0	2		159.2571484716591	1.233455212610579
33.0	110.27922801003729	rating	1.0		95	attractiveness	101	1.0	2		160.49060368426967	0.8000912207980946
33.0	111.07931923083538	fix	2.0		60	attractiveness	101	1.0	2	1.5099999999999998	161.29069490506777	0.5167612934035333
34.0	111.59608052423891	face	0.0		147	attractiveness	172	1.0	2		161.8074561984713	1.2334543070435302
34.0	112.82953483128244	rating	1.0		64	attractiveness	172	1.0	2		163.04091050551483	0.5417199316234473
34.0	113.37125476290589	fix	2.0		60	attractiveness	172	1.0	2	-0.6699999999999999	163.58263043713828	0.5167480117520427
35.0	113.88800277465793	face	0.0		147	attractiveness	092	1.0	2		164.09937844889032	1.2334524959089777
35.0	115.12145527056691	rating	1.0		84	attractiveness	092	1.0	2		165.3328309447993	0.7084215632444284
35.0	115.82987683381134	fix	2.0		60	attractiveness	092	1.0	2	0.8200000000000003	166.04125250804373	0.5167597841248153
36.0	116.34663661793616	face	0.0		147	attractiveness	117	1.0	2		166.55801229216854	1.2334564200334626
36.0	117.58009303796962	rating	1.0		143	attractiveness	117	1.0	2		167.791468712202	1.2001309450106419
36.0	118.78022398298026	fix	2.0		60	attractiveness	117	1.0	2	1.21	168.99159965721265	0.5167504265975822
37.0	119.29697440957784	face	0.0		147	attractiveness	062	1.0	2		169.50835008381023	1.233456118177628
37.0	120.53043052775547	rating	1.0		83	attractiveness	062	1.0	2		170.74180620198786	0.7000794786106326
37.0	121.2305100063661	fix	2.0		60	attractiveness	062	1.0	2	0.2699999999999996	171.4418856805985	0.5167561618563923
38.0	121.7472661682225	face	0.0		147	attractiveness	036	1.0	2		171.95864184245488	1.2334875111723704
38.0	122.98075367939487	rating	1.0		76	attractiveness	036	1.0	2		173.19212935362725	0.6417042049406518
38.0	123.62245788433552	fix	2.0		60	attractiveness	036	1.0	2	0.5700000000000003	173.8338335585679	0.5167504265975822
39.0	124.1392083109331	face	0.0		147	attractiveness	044	1.0	2		174.35058398516549	1.2334567218892971
39.0	125.3726650328224	rating	1.0		130	attractiveness	044	1.0	2		175.58404070705478	1.0917891924182186
39.0	126.46445422524062	fix	2.0		60	attractiveness	044	1.0	2	3.26	176.675829899473	0.5000674647531014
40.0	126.96452168999372	cue	0.0		480						177.1758973642261	4.000458820691847
40.0	130.96498051068556	fix	1.0		120						181.17635618491795	1.0168160802163584
40.0	131.98179659090192	face	0.0		147	trustworthiness	039	1.0	2		182.1931722651343	1.23346034415772
40.0	133.21525693505964	rating	1.0		147	trustworthiness	039	1.0	2		183.42663260929203	1.2334687961179043
40.0	134.44872573117755	fix	2.0		60	trustworthiness	039	1.0	2	-0.9199999999999999	184.66010140540993	0.5167516340204656
41.0	134.965477365198	face	0.0		147	trustworthiness	102	1.0	2		185.1768530394304	1.233465173849254
41.0	136.19894253904727	rating	1.0		125	trustworthiness	102	1.0	2		186.41031821327965	1.0501125770902036
41.0	137.24905511613747	fix	2.0		60	trustworthiness	102	1.0	2	0.5800000000000001	187.46043079036986	0.516743483916116
42.0	137.76579860005359	face	0.0		147	trustworthiness	117	1.0	2		187.97717427428597	1.2334881148838122
42.0	138.9992867149374	rating	1.0		74	trustworthiness	117	1.0	2		189.21066238916978	0.6250520323794717
42.0	139.62433874731687	fix	2.0		60	trustworthiness	117	1.0	2	1.0300000000000002	189.83571442154926	0.5167419746376254
43.0	140.1410807219545	face	0.0		147	trustworthiness	042	1.0	2		190.35245639618688	1.2334917371524625
43.0	141.37457245910696	rating	1.0		128	trustworthiness	042	1.0	2		191.58594813333934	1.0751032120165291
43.0	142.4496756711235	fix	2.0		60	trustworthiness	042	1.0	2	1.1799999999999997	192.66105134535587	0.5167446913387721
44.0	142.96642036246226	face	0.0		147	trustworthiness	091	1.0	2		193.17779603669464	1.2334715128195057
44.0	144.19989187528176	rating	1.0		112	trustworthiness	091	1.0	2		194.41126754951415	0.9417572409904551
44.0	145.14164911627222	fix	2.0		60	trustworthiness	091	1.0	2	2.24	195.3530247905046	0.5167498228861405
45.0	145.65839893915836	face	0.0		147	trustworthiness	038	1.0	2		195.86977461339075	1.2334573256005115
45.0	146.89185626475887	rating	1.0		84	trustworthiness	038	1.0	2		197.10323193899126	0.7084052630355018
45.0	147.60026152779437	fix	2.0		60	trustworthiness	038	1.0	2	0.5700000000000003	197.81163720202676	0.5167606896920915
46.0	148.11702221748646	face	0.0		147	trustworthiness	144	1.0	2		198.32839789171885	1.2334597404462784
46.0	149.35048195793274	rating	1.0		74	trustworthiness	144	1.0	2		199.56185763216513	0.6250695400112818
46.0	149.97555149794402	fix	2.0		61	trustworthiness	144	1.0	2	1.6900000000000004	200.1869271721764	0.5250734943210773
47.0	150.5006249922651	face	0.0		146	trustworthiness	061	1.0	2		200.7120006664975	1.2251242966383415
47.0	151.72574928890344	rating	1.0		101	trustworthiness	061	1.0	2		201.93712496313583	0.8417617990116923
47.0	152.56751108791514	fix	2.0		60	trustworthiness	061	1.0	2	0.7000000000000002	202.77888676214752	0.5167549544335088
48.0	153.08426604234864	face	0.0		147	trustworthiness	006	1.0	2		203.29564171658103	1.2334564200334626
48.0	154.3177224623821	rating	1.0		122	trustworthiness	006	1.0	2		204.5290981366145	1.0251358275268103
48.0	155.34285828990892	fix	2.0		60	trustworthiness	006	1.0	2	0.3099999999999996	205.5542339641413	0.5167679342291649
49.0	155.85962622413808	face	0.0		147	trustworthiness	011	1.0	2		206.07100189837047	1.233423819616064
49.0	157.09305004375415	rating	1.0		67	trustworthiness	011	1.0	2		207.30442571798653	0.5667298853159082
49.0	157.65977992907006	fix	2.0		60	trustworthiness	011	1.0	2	-1.3599999999999999	207.87115560330244	0.5167498228861405
50.0	158.1765297519562	face	0.0		147	trustworthiness	082	1.0	2		208.38790542618858	1.2334977742668798
50.0	159.41002752622308	rating	1.0		180	trustworthiness	082	1.0	2		209.62140320045546	1.5084638834159705
50.0	160.91849140963905	fix	2.0		60	trustworthiness	082	1.0	2	0.96	211.12986708387143	0.516760387836257
51.0	161.4352517974753	face	0.0		147	trustworthiness	024	1.0	2		211.6466274717077	1.2334630608593216
51.0	162.66871485833462	rating	1.0		71	trustworthiness	024	1.0	2		212.880090532567	0.6000556621945634
51.0	163.2687705205292	fix	2.0		60	trustworthiness	024	1.0	2	2.71	213.48014619476157	0.5167516340204656
52.0	163.78552215454965	face	0.0		147	trustworthiness	005	1.0	2		213.99689782878204	1.2334558163220208
52.0	165.01897797087167	rating	1.0		166	trustworthiness	005	1.0	2		215.23035364510406	1.391829248671911
52.0	166.41080721954359	fix	2.0		60	trustworthiness	005	1.0	2	-0.5899999999999999	216.62218289377597	0.5167489173190916
53.0	166.92755613686268	face	0.0		147	trustworthiness	141	1.0	2		217.13893181109506	1.2334527977648122
53.0	168.1610089346275	rating	1.0		86	trustworthiness	141	1.0	2		218.37238460885987	0.7250873193129337
53.0	168.88609625394042	fix	2.0		60	trustworthiness	141	1.0	2	-1.7200000000000002	219.0974719281728	0.5167531432989563
54.0	169.40284939723938	face	0.0		147	trustworthiness	030	1.0	2		219.61422507147176	1.2334503829190453
54.0	170.63629978015842	rating	1.0		101	trustworthiness	030	1.0	2		220.8476754543908	0.8501096189042983
54.0	171.48640939906272	fix	2.0		60	trustworthiness	030	1.0	2	1.2400000000000002	221.6977850732951	0.5167416727817908
55.0	172.0031510718445	face	0.0		147	trustworthiness	062	1.0	2		222.2145267460769	1.2334618534362107
55.0	173.23661292528072	rating	1.0		139	trustworthiness	062	1.0	2		223.4479885995131	1.1667973198834716
55.0	174.4034102451642	fix	2.0		60	trustworthiness	062	1.0	2	-0.2999999999999998	224.61478591939658	0.5167585767021592
56.0	174.92016882186635	face	0.0		147	trustworthiness	018	1.0	2		225.13154449609874	1.2334579293119532
56.0	176.1536267511783	rating	1.0		107	trustworthiness	018	1.0	2		226.3650024254107	0.9001014537068386
56.0	177.05372820488515	fix	2.0		61	trustworthiness	018	1.0	2	2.75	227.26510387911753	0.5250759091668442
57.0	177.578804114052	face	0.0		146	trustworthiness	087	1.0	2		227.79017978828438	1.2251200706584768
57.0	178.80392418471047	rating	1.0		104	trustworthiness	087	1.0	2		229.01529985894285	0.8751087057905806
57.0	179.67903289050105	fix	2.0		60	trustworthiness	087	1.0	2	1.3200000000000003	229.89040856473343	0.5167474080403736
58.0	180.19578029854142	face	0.0		147	trustworthiness	092	1.0	2		230.4071559727738	1.233445855083346
58.0	181.42922615362477	rating	1.0		54	trustworthiness	092	1.0	2		231.64060182785715	0.45839658468366906
58.0	181.88762273830844	fix	2.0		60	trustworthiness	092	1.0	2	-0.43999999999999995	232.09899841254082	0.5167643119605145
59.0	182.40438705026895	face	0.0		147	trustworthiness	043	1.0	2		232.61576272450134	1.2334488736405547
59.0	183.6378359239095	rating	1.0		193	trustworthiness	043	1.0	2		233.8492115981419	1.6168554422019952
59.0	185.2546913661115	fix	2.0		60	trustworthiness	043	1.0	2	-0.75	235.4660670403439	0.5167326171101649
60.0	185.77142398322167	face	0.0		147	trustworthiness	101	1.0	2		235.98279965745405	1.2334624571478798
60.0	187.00488644036955	rating	1.0		84	trustworthiness	101	1.0	2		237.21626211460193	0.708411300149919
60.0	187.71329774051947	fix	2.0		60	trustworthiness	101	1.0	2	1.2800000000000002	237.92467341475185	0.5167712546422081
61.0	188.23006899516167	face	0.0		147	trustworthiness	126	1.0	2		238.44144466939406	1.2334383086902108
61.0	189.46350730385188	rating	1.0		112	trustworthiness	126	1.0	2		239.67488297808427	0.9417696170748968
61.0	190.40527692092678	fix	2.0		60	trustworthiness	126	1.0	2	2.0199999999999996	240.61665259515917	0.5167525395877419
62.0	190.92202946051452	face	0.0		147	trustworthiness	172	1.0	2		241.1334051347469	1.233462759003487
62.0	192.155492219518	rating	1.0		74	trustworthiness	172	1.0	2		242.3668678937504	0.6250674270211221
62.0	192.78055964653913	fix	2.0		60	trustworthiness	172	1.0	2	-0.8300000000000001	242.99193532077152	0.5167606896918642
63.0	193.297320336231	face	0.0		147	trustworthiness	124	1.0	2		243.50869601046338	1.233448269929113
63.0	194.5307686061601	rating	1.0		155	trustworthiness	124	1.0	2		244.7421442803925	1.3001632133868952
63.0	195.830931819547	fix	2.0		60	trustworthiness	124	1.0	2	0.6699999999999999	246.0423074937794	0.5167407672147419
64.0	196.34767258676175	face	0.0		147	trustworthiness	033	1.0	2		246.55904826099413	1.233461249724769
64.0	197.58113383648652	rating	1.0		73	trustworthiness	033	1.0	2		247.7925095107189	0.6167380203276025
64.0	198.19787185681412	fix	2.0		60	trustworthiness	033	1.0	2	-1.4700000000000002	248.4092475310465	0.5167573692792757
65.0	198.7146292260934	face	0.0		147	trustworthiness	009	1.0	2		248.92600490032578	1.2334455532275115
65.0	199.9480747793209	rating	1.0		79	trustworthiness	009	1.0	2		250.1594504535533	0.6667352885333457
65.0	200.61481006785425	fix	2.0		60	trustworthiness	009	1.0	2	2.01	250.82618574208664	0.5167534451547908
66.0	201.13156351300904	face	0.0		147	trustworthiness	066	1.0	2		251.34293918724143	1.233456118177628
66.0	202.36501963118667	rating	1.0		85	trustworthiness	066	1.0	2		252.57639530541906	0.7167515736493897
66.0	203.08177120483606	fix	2.0		60	trustworthiness	066	1.0	2	2.34	253.29314687906844	0.5167498228861405
67.0	203.5985210277222	face	0.0		147	trustworthiness	070	1.0	2		253.80989670195459	1.2334636645707633
67.0	204.83198469229296	rating	1.0		93	trustworthiness	070	1.0	2		255.04336036652535	0.7834097682321044
67.0	205.61539446052507	fix	2.0		60	trustworthiness	070	1.0	2	0.8200000000000003	255.82677013475745	0.516755256289116
68.0	206.13214971681418	face	0.0		147	trustworthiness	121	1.0	2		256.34352539104657	1.2334497792076036
68.0	207.3655994960218	rating	1.0		102	trustworthiness	121	1.0	2		257.5769751702542	0.8584450627120077
68.0	208.2240445587338	fix	2.0		60	trustworthiness	121	1.0	2	2.17	258.4354202329662	0.5167531432989563
69.0	208.74079770203275	face	0.0		147	trustworthiness	099	1.0	2		258.95217337626514	1.2334558163220208
69.0	209.97425351835477	rating	1.0		127	trustworthiness	099	1.0	2		260.18562919258716	1.0667783331589362
69.0	211.0410318515137	fix	2.0		60	trustworthiness	099	1.0	2	1.2800000000000002	261.2524075257461	0.516748615463257
70.0	211.55778046697696	face	0.0		147	trustworthiness	036	1.0	2		261.76915614120935	1.233461249724769
70.0	212.79124171670173	rating	1.0		227	trustworthiness	036	1.0	2		263.0026173909341	1.9002258182629248
70.0	214.69146753496466	fix	2.0		60	trustworthiness	036	1.0	2	0.7199999999999998	264.90284320919704	0.516756765567834
71.0	215.2082243005325	face	0.0		147	trustworthiness	137	1.0	2		265.4195999747649	1.233437704978769
71.0	216.44166200551126	rating	1.0		173	trustworthiness	137	1.0	2		266.65303767974365	1.4501770534716343
71.0	217.8918390589829	fix	2.0		60	trustworthiness	137	1.0	2	1.25	268.1032147332153	0.5167477098962081
72.0	218.4085867688791	face	0.0		147	trustworthiness	130	1.0	2		268.6199624431115	1.2334564200334626
72.0	219.64204318891257	rating	1.0		76	trustworthiness	130	1.0	2		269.85341886314495	0.6417422387612532
72.0	220.28378542767382	fix	2.0		60	trustworthiness	130	1.0	2	-1.23	270.4951611019062	0.5167534451547908
73.0	220.8005388728286	face	0.0		147	trustworthiness	044	1.0	2		271.011914547061	1.2334600423018856
73.0	222.0339989151305	rating	1.0		85	trustworthiness	044	1.0	2		272.2453745893629	0.7167382919978991
73.0	222.7507372071284	fix	2.0		60	trustworthiness	044	1.0	2	-1.87	272.9621128813608	0.5167492191746987
74.0	223.2674864263031	face	0.0		147	trustworthiness	027	1.0	2		273.4788621005355	1.2334558163220208
74.0	224.50094224262511	rating	1.0		374	trustworthiness	027	1.0	2		274.7123179168575	3.1253685281001253
74.0	227.62631077072524	fix	2.0		60	trustworthiness	027	1.0	2	1.9299999999999997	277.8376864449576	0.5167480117518153
75.0	228.14305878247706	face	0.0		147	trustworthiness	136	1.0	2		278.35443445670944	1.2334570237449043
75.0	229.37651580622196	rating	1.0		199	trustworthiness	136	1.0	2		279.58789148045435	1.6668605586564809
75.0	231.04337636487844	fix	2.0		60	trustworthiness	136	1.0	2	0.7000000000000002	281.2547520391108	0.5167498228861405
76.0	231.56012618776458	face	0.0		147	trustworthiness	034	1.0	2		281.77150186199697	1.2334570237449043
76.0	232.79358321150949	rating	1.0		110	trustworthiness	034	1.0	2		283.00495888574187	0.9250963146132563
76.0	233.71867952612274	fix	2.0		60	trustworthiness	034	1.0	2	-0.45999999999999996	283.9300552003551	0.5167791028909505
77.0	234.2354586290137	face	0.0		147	trustworthiness	064	1.0	2		284.4468343032461	1.2334340827101187
77.0	235.4688927117238	rating	1.0		108	trustworthiness	064	1.0	2		285.6802683859562	0.9084365956591682
77.0	236.37732930738298	fix	2.0		60	trustworthiness	064	1.0	2	1.5700000000000003	286.58870498161536	0.5167570674234412
78.0	236.89408637480642	face	0.0		147	trustworthiness	012	1.0	2		287.1054620490388	1.2334570237449043
78.0	238.12754339855132	rating	1.0		87	trustworthiness	012	1.0	2		288.3389190727837	0.7334109907478705
78.0	238.8609543892992	fix	2.0		60	trustworthiness	012	1.0	2	0.8300000000000001	289.0723300635316	0.5167495210303059
79.0	239.3777039103295	face	0.0		147	trustworthiness	100	1.0	2		289.5890795845619	1.2334636645707633
79.0	240.61116757490026	rating	1.0		187	trustworthiness	100	1.0	2		290.82254324913265	1.5668436849218779
79.0	242.17801125982214	fix	2.0		60	trustworthiness	100	1.0	2	2.7199999999999998	292.3893869340545	0.5000611257828496
80.0	242.678072385605	cue	0.0		480						292.8894480598374	4.0004615373934485
80.0	246.67853392299844	fix	1.0		120						296.8899095972308	1.0168160802163584
80.0	247.6953500032148	face	0.0		147	dominance	042	1.0	2		297.9067256774472	1.2334564200334626
80.0	248.92880642324826	rating	1.0		132	dominance	042	1.0	2		299.14018209748065	1.1084600800340922
80.0	250.03726650328235	fix	2.0		60	dominance	042	1.0	2	-0.8900000000000001	300.24864217751474	0.5167528414433491
81.0	250.5540193447257	face	0.0		147	dominance	039	1.0	2		300.7653950189581	1.2334540051876957
81.0	251.7874733499134	rating	1.0		77	dominance	039	1.0	2		301.9988490241458	0.6500773807133555
81.0	252.43755073062675	fix	2.0		60	dominance	039	1.0	2	1.1600000000000001	302.64892640485914	0.5167516340204656
82.0	252.95430236464722	face	0.0		147	dominance	011	1.0	2		303.1656780388796	1.2334485717847201
82.0	254.18775093643194	rating	1.0		100	dominance	011	1.0	2		304.3991266106643	0.8417962105636434
82.0	255.02954714699558	fix	2.0		60	dominance	011	1.0	2	1.2300000000000004	305.24092282122797	0.516719939170116
83.0	255.5462670861657	face	0.0		147	dominance	030	1.0	2		305.7576427603981	1.233456118177628
83.0	256.7797232043433	rating	1.0		109	dominance	030	1.0	2		306.9910988785757	0.916772945034154
83.0	257.6964961493775	fix	2.0		60	dominance	030	1.0	2	-0.20999999999999996	307.90787182360987	0.5167576711348829
84.0	258.21325382051236	face	0.0		147	dominance	070	1.0	2		308.42462949474475	1.2334543070435302
84.0	259.4467081275559	rating	1.0		190	dominance	070	1.0	2		309.6580838017883	1.591847601499694
84.0	261.0385557290556	fix	2.0		61	dominance	070	1.0	2	0.16999999999999993	311.249931403288	0.5250801351469363
85.0	261.5636358642025	face	0.0		146	dominance	018	1.0	2		311.7750115384349	1.2251309374642005
85.0	262.7887668016667	rating	1.0		155	dominance	018	1.0	2		313.0001424758991	1.3001408760637787
85.0	264.0889076777305	fix	2.0		60	dominance	018	1.0	2	-3.49	314.3002833519629	0.5167597841248153
86.0	264.6056674618553	face	0.0		147	dominance	006	1.0	2		314.8170431360877	1.2334506847748798
86.0	265.8391181466302	rating	1.0		139	dominance	006	1.0	2		316.0504938208626	1.1667952068933118
86.0	267.0059133535235	fix	2.0		60	dominance	006	1.0	2	1.58	317.2172890277559	0.5167664249506743
87.0	267.5226797784742	face	0.0		147	dominance	124	1.0	2		317.73405545270657	1.2334455532275115
87.0	268.7561253317017	rating	1.0		110	dominance	124	1.0	2		318.9675010059341	0.9251044647178333
87.0	269.68122979641953	fix	2.0		60	dominance	124	1.0	2	1.83	319.8926054706519	0.5167697453634901
88.0	270.197999541783	face	0.0		147	dominance	027	1.0	2		320.4093752160154	1.2334389124018799
88.0	271.4314384541849	rating	1.0		145	dominance	027	1.0	2		321.6428141284173	1.2168045493278896
88.0	272.6482430035128	fix	2.0		60	dominance	027	1.0	2	0.15000000000000036	322.8596186777452	0.5167733676321404
89.0	273.16501637114493	face	0.0		147	dominance	044	1.0	2		323.3763920453773	1.233445855083346
89.0	274.3984622262283	rating	1.0		163	dominance	044	1.0	2		324.60983790046066	1.3668171819897452
89.0	275.765279408218	fix	2.0		60	dominance	044	1.0	2	-1.73	325.9766550824504	0.5167546525776743
90.0	276.2820340607957	face	0.0		147	dominance	005	1.0	2		326.4934097350281	1.233456118177628
90.0	277.5154901789733	rating	1.0		229	dominance	005	1.0	2		327.7268658532057	1.916889763197105
90.0	279.4323799421704	fix	2.0		60	dominance	005	1.0	2	-3.0300000000000002	329.6437556164028	0.5167531432991836
91.0	279.9491330854696	face	0.0		147	dominance	024	1.0	2		330.160508759702	1.2334543070433028
91.0	281.1825873925129	rating	1.0		170	dominance	024	1.0	2		331.3939630667453	1.425158044107775
91.0	282.6077454366207	fix	2.0		60	dominance	024	1.0	2	-3.56	332.8191211108531	0.5167513321648585
92.0	283.12449676878555	face	0.0		147	dominance	066	1.0	2		333.33587244301793	1.2334591367348366
92.0	284.3579559055204	rating	1.0		102	dominance	066	1.0	2		334.56933157975277	0.8584263476575416
92.0	285.2163822531779	fix	2.0		60	dominance	066	1.0	2	2.6500000000000004	335.4277579274103	0.5167504265975822
93.0	285.7331326797755	face	0.0		147	dominance	144	1.0	2		335.9445083540079	1.2334582311677877
93.0	286.9665909109433	rating	1.0		267	dominance	144	1.0	2		337.1779665851757	2.2335943680966466
93.0	289.20018527903994	fix	2.0		60	dominance	144	1.0	2	-0.43000000000000016	339.4115609532723	0.5167440876275577
94.0	289.7169293666675	face	0.0		147	dominance	012	1.0	2		339.9283050408999	1.2334588348792295
94.0	290.95038820154673	rating	1.0		55	dominance	012	1.0	2		341.1617638757791	0.4667154264270721
94.0	291.4171036279738	fix	2.0		60	dominance	012	1.0	2	0.6600000000000001	341.6284793022062	0.5167618971147476
95.0	291.93386552508855	face	0.0		147	dominance	062	1.0	2		342.14524119932094	1.2334651738494813
95.0	293.16733069893803	rating	1.0		83	dominance	062	1.0	2		343.3787063731704	0.7000680080932398
95.0	293.86739870703127	fix	2.0		60	dominance	062	1.0	2	-0.8700000000000001	344.07877438126366	0.516748615463257
96.0	294.3841473224945	face	0.0		147	dominance	121	1.0	2		344.5955229967269	1.23346034415772
96.0	295.61760766665225	rating	1.0		65	dominance	121	1.0	2		345.82898334088463	0.5500611106901943
96.0	296.16766877734244	fix	2.0		60	dominance	121	1.0	2	2.08	346.3790444515748	0.5167504265975822
97.0	296.68441920394	face	0.0		147	dominance	064	1.0	2		346.8957948781724	1.2334573256007388
97.0	297.91787652954076	rating	1.0		79	dominance	064	1.0	2		348.12925220377315	0.6667383070905544
97.0	298.5846148366313	fix	2.0		60	dominance	064	1.0	2	-1.3599999999999999	348.7959905108637	0.5167452950502138
98.0	299.10136013168153	face	0.0		147	dominance	101	1.0	2		349.3127358059139	1.2334573256007388
98.0	300.33481745728227	rating	1.0		52	dominance	101	1.0	2		350.54619313151466	0.44171724510761123
98.0	300.7765347023899	fix	2.0		60	dominance	101	1.0	2	0.41000000000000014	350.98791037662227	0.5168110995971347
99.0	301.293345801987	face	0.0		147	dominance	137	1.0	2		351.5047214762194	1.2334045008497014
99.0	302.5267503028367	rating	1.0		117	dominance	137	1.0	2		352.7381259770691	0.9834447231244212
99.0	303.51019502596114	fix	2.0		60	dominance	137	1.0	2	0.5800000000000001	353.7215707001935	0.5167938938211591
100.0	304.0269889197823	face	0.0		147	dominance	036	1.0	2		354.2383645940147	1.2334105379641187
100.0	305.2603994577464	rating	1.0		83	dominance	036	1.0	2		355.4717751319788	0.7000791767550254
100.0	305.96047863450144	fix	2.0		60	dominance	036	1.0	2	-1.9	356.1718543087338	0.5167522377319074
101.0	306.47723087223335	face	0.0		147	dominance	034	1.0	2		356.68860654646573	1.233457627456346
101.0	307.7106884996897	rating	1.0		97	dominance	034	1.0	2		357.9220641739221	0.8167624102695754
101.0	308.52745090995927	fix	2.0		61	dominance	034	1.0	2	-1.02	358.73882658419166	0.5250801351467089
102.0	309.052531045106	face	0.0		146	dominance	038	1.0	2		359.26390671933837	1.2251212780813603
102.0	310.27765232318734	rating	1.0		121	dominance	038	1.0	2		360.4890279974197	1.0167804612415239
102.0	311.29443278442886	fix	2.0		60	dominance	038	1.0	2	0.17999999999999972	361.50580845866125	0.5167516340204656
103.0	311.81118441844933	face	0.0		147	dominance	033	1.0	2		362.0225600926817	1.233490529729579
103.0	313.0446749481789	rating	1.0		203	dominance	033	1.0	2		363.2560506224113	1.7001624889333016
103.0	314.7448374371122	fix	2.0		60	dominance	033	1.0	2	0.9199999999999999	364.9562131113446	0.5167555581447232
104.0	315.26159299525693	face	0.0		147	dominance	092	1.0	2		365.4729686694893	1.2334561181778554
104.0	316.4950491134348	rating	1.0		74	dominance	092	1.0	2		366.7064247876672	0.6250653140309623
104.0	317.12011442746575	fix	2.0		60	dominance	092	1.0	2	-0.8500000000000001	367.33149010169814	0.5167468043289318
105.0	317.6368612317947	face	0.0		147	dominance	130	1.0	2		367.84823690602707	1.2334645701378122
105.0	318.8703258019325	rating	1.0		175	dominance	130	1.0	2		369.0817014761649	1.4668358668589008
105.0	320.3371616687914	fix	2.0		60	dominance	130	1.0	2	-0.29000000000000004	370.5485373430238	0.5167504265975822
106.0	320.853912095389	face	0.0		147	dominance	091	1.0	2		371.06528776962136	1.2334564200332352
106.0	322.0873685154222	rating	1.0		162	dominance	091	1.0	2		372.2987441896546	1.358491397564876
106.0	323.4458599129871	fix	2.0		60	dominance	091	1.0	2	-1.81	373.6572355872195	0.5167483136076498
107.0	323.96260822659474	face	0.0		147	dominance	061	1.0	2		374.1739839008271	1.2334515903419287
107.0	325.19605981693667	rating	1.0		104	dominance	061	1.0	2		375.40743549116905	0.8751002538303965
107.0	326.07116007076706	fix	2.0		60	dominance	061	1.0	2	1.4699999999999998	376.28253574499945	0.5167576711348829
108.0	326.58791774190195	face	0.0		147	dominance	141	1.0	2		376.79929341613433	1.2334555144661863
108.0	327.82137325636813	rating	1.0		197	dominance	141	1.0	2		378.0327489306005	1.7001905615152282
108.0	329.52156381788336	fix	2.0		60	dominance	141	1.0	2	-0.08000000000000007	379.73293949211575	0.5167649156719563
109.0	330.0383287335553	face	0.0		147	dominance	102	1.0	2		380.2497044077877	1.233444345804628
109.0	331.27177307935995	rating	1.0		135	dominance	102	1.0	2		381.48314875359233	1.1334664114579027
109.0	332.40523949081785	fix	2.0		60	dominance	102	1.0	2	1.0599999999999996	382.61661516505023	0.5167480117518153
110.0	332.92198750256966	face	0.0		147	dominance	100	1.0	2		383.13336317680205	1.2334588348792295
110.0	334.1554463374489	rating	1.0		145	dominance	100	1.0	2		384.3668220116813	1.2168449979940306
110.0	335.3722913354429	fix	2.0		60	dominance	100	1.0	2	-2.19	385.5836670096753	0.5167151094785822
111.0	335.8890064449215	face	0.0		147	dominance	136	1.0	2		386.1003821191539	1.2334512884863216
111.0	337.1224577334078	rating	1.0		167	dominance	136	1.0	2		387.3338334076402	1.4001671073256148
111.0	338.52262484073344	fix	2.0		60	dominance	136	1.0	2	-0.20999999999999996	388.7340005149658	0.5167546525776743
112.0	339.0393794933111	face	0.0		147	dominance	043	1.0	2		389.2507551675435	1.233453401476254
112.0	340.27283289478737	rating	1.0		110	dominance	043	1.0	2		390.48420856901976	0.9251062758519311
112.0	341.1979391706393	fix	2.0		60	dominance	043	1.0	2	-1.02	391.4093148448717	0.5167498228861405
113.0	341.71468899352544	face	0.0		147	dominance	087	1.0	2		391.9260646677578	1.233447364362064
113.0	342.9481363578875	rating	1.0		93	dominance	087	1.0	2		393.1595120321199	0.783431199988172
113.0	343.7315675578757	fix	2.0		60	dominance	087	1.0	2	0.28000000000000025	393.94294323210806	0.5167416727817908
114.0	344.24830923065747	face	0.0		147	dominance	126	1.0	2		394.45968490488985	1.2334573256005115
114.0	345.481766556258	rating	1.0		75	dominance	126	1.0	2		395.69314223049037	0.6334043801075495
114.0	346.11517093636553	fix	2.0		60	dominance	126	1.0	2	1.5300000000000002	396.3265466105979	0.5167658212392325
115.0	346.63193675760476	face	0.0		147	dominance	009	1.0	2		396.84331243183715	1.2334500810634381
115.0	347.8653868386682	rating	1.0		344	dominance	009	1.0	2		398.0767625129006	2.8753396254151085
115.0	350.7407264640833	fix	2.0		60	dominance	009	1.0	2	-2.66	400.9521021383157	0.5167431820602815
116.0	351.2574696461436	face	0.0		147	dominance	172	1.0	2		401.468845320376	1.2334567218892971
116.0	352.4909263680329	rating	1.0		229	dominance	172	1.0	2		402.7023020422653	1.9168885557742215
116.0	354.4078149238071	fix	2.0		60	dominance	172	1.0	2	0.6299999999999999	404.6191905980395	0.5167597841248153
117.0	354.9245747079319	face	0.0		147	dominance	099	1.0	2		405.1359503821643	1.233448269929113
117.0	356.15802297786104	rating	1.0		97	dominance	099	1.0	2		406.3693986520934	0.8167633158368517
117.0	356.9747862936979	fix	2.0		60	dominance	099	1.0	2	-1.5099999999999998	407.1861619679303	0.5167498228861405
118.0	357.49153611658403	face	0.0		147	dominance	082	1.0	2		407.7029117908164	1.233444345804628
118.0	358.72498046238866	rating	1.0		677	dominance	082	1.0	2		408.93635613662104	5.650674753180056
118.0	364.3756552155687	fix	2.0		60	dominance	082	1.0	2	-0.31999999999999984	414.5870308898011	0.5167422764932326
119.0	364.89239749206195	face	0.0		147	dominance	117	1.0	2		415.10377316629433	1.2334597404465057
119.0	366.12585723250845	rating	1.0		77	dominance	117	1.0	2		416.33723290674084	0.6500728528774289
119.0	366.7759300853859	fix	2.0		60	dominance	117	1.0	2	1.2199999999999998	416.98730575961827	0.5000517682558439
120.0	367.2759818536417	cue	0.0		3600						417.4873575278741	30.003508770870667
120.0	397.2794906245124	fix	1.0		120						447.4908662987448	1.0001279868245092
120.0	398.2796186113369	cue	0.0		480						448.4909942855693	4.00045248172205
120.0	402.28007109305895	fix	1.0		120						452.49144676729134	1.0168079301117814
120.0	403.29687902317073	face	0.0		147	dominance	091	2.0	2		453.5082546974031	1.2334660794165302
120.0	404.53034510258726	rating	1.0		278	dominance	091	2.0	2		454.74172077681965	2.325269157197681
120.0	406.85561425978494	fix	2.0		60	dominance	091	2.0	2	-2.7	457.06698993401733	0.5167498228861405
121.0	407.3723640826711	face	0.0		147	dominance	070	2.0	2		457.58373975690347	1.2334567218890697
121.0	408.60582080456015	rating	1.0		335	dominance	070	2.0	2		458.81719647879254	2.8003281775370397
121.0	411.4061489820972	fix	2.0		60	dominance	070	2.0	2	0.7400000000000002	461.6175246563296	0.5167474080406009
122.0	411.9228963901378	face	0.0		147	dominance	061	2.0	2		462.1342720643702	1.2334600423018856
122.0	413.1563564324397	rating	1.0		72	dominance	061	2.0	2		463.36773210667207	0.6083965394054758
122.0	413.76475297184516	fix	2.0		60	dominance	061	2.0	2	1.5	463.97612864607754	0.5167585767019318
123.0	414.2815115485471	face	0.0		147	dominance	172	2.0	2		464.4928872227795	1.2334530996204194
123.0	415.5149646481675	rating	1.0		68	dominance	172	2.0	2		465.7263403223999	0.5750574808753299
123.0	416.09002212904284	fix	2.0		60	dominance	172	2.0	2	0.5800000000000001	466.3013978032752	0.5083986825809461
124.0	416.5984208116238	face	0.0		148	dominance	092	2.0	2		466.80979648585617	1.241811786318749
124.0	417.84023259794253	rating	1.0		71	dominance	092	2.0	2		468.0516082721749	0.6000707549803792
124.0	418.4403033529229	fix	2.0		60	dominance	092	2.0	2	-1.0	468.6516790271553	0.5167458987616556
125.0	418.95704925168457	face	0.0		147	dominance	082	2.0	2		469.16842492591695	1.2334564200334626
125.0	420.19050567171803	rating	1.0		149	dominance	082	2.0	2		470.4018813459504	1.250148135693962
125.0	421.440653807412	fix	2.0		60	dominance	082	2.0	2	-0.6800000000000002	471.6520294816444	0.5167510303090239
126.0	421.957404837721	face	0.0		147	dominance	027	2.0	2		472.1687805119534	1.2334540051876957
126.0	423.1908588429087	rating	1.0		63	dominance	027	2.0	2		473.4022345171411	0.5333986750345048
126.0	423.7242575179432	fix	2.0		60	dominance	027	2.0	2	0.2599999999999998	473.9356331921756	0.516741974637398
127.0	424.2409994925806	face	0.0		147	dominance	144	2.0	2		474.452375166813	1.2334709091078366
127.0	425.47447040168845	rating	1.0		62	dominance	144	2.0	2		475.68584607592084	0.525051458853568
127.0	425.999521860542	fix	2.0		60	dominance	144	2.0	2	-0.43999999999999995	476.2108975347744	0.5167489173190916
128.0	426.5162707778611	face	0.0		147	dominance	038	2.0	2		476.7276464520935	1.2334491754961618
128.0	427.74971995335727	rating	1.0		345	dominance	038	2.0	2		477.96109562758966	2.88367537107888
128.0	430.63339532443615	fix	2.0		60	dominance	038	2.0	2	0.2999999999999998	480.84477099866854	0.516741974637398
129.0	431.15013729907355	face	0.0		147	dominance	100	2.0	2		481.36151297330593	1.233468494262297
129.0	432.38360579333585	rating	1.0		98	dominance	100	2.0	2		482.59498146756823	0.8250924206745367
129.0	433.2086982140104	fix	2.0		60	dominance	100	2.0	2	-1.85	483.42007388824277	0.5167794047465577
130.0	433.72547761875694	face	0.0		147	dominance	034	2.0	2		483.9368532929893	1.233423215904395
130.0	434.95890083466134	rating	1.0		58	dominance	034	2.0	2		485.1702765088937	0.4917184374378394
130.0	435.4506192720992	fix	2.0		60	dominance	034	2.0	2	0.6900000000000004	485.66199494633156	0.5167516340204656
131.0	435.96737090611964	face	0.0		147	dominance	137	2.0	2		486.178746580352	1.23346034415772
131.0	437.20083125027736	rating	1.0		378	dominance	137	2.0	2		487.41220692450975	3.158702153227523
131.0	440.3595334035049	fix	2.0		60	dominance	137	2.0	2	0.21999999999999975	490.57090907773727	0.5167455969060484
132.0	440.87627900041093	face	0.0		147	dominance	087	2.0	2		491.0876546746433	1.233455212610579
132.0	442.1097342130215	rating	1.0		95	dominance	087	2.0	2		492.3211098872539	0.8000981634795608
132.0	442.9098323765011	fix	2.0		61	dominance	087	2.0	2	0.6500000000000004	493.12120805073346	0.5250756073110097
133.0	443.4349079838121	face	0.0		146	dominance	117	2.0	2		493.64628365804447	1.22512942818571
133.0	444.6600374119978	rating	1.0		71	dominance	117	2.0	2		494.8714130862302	0.6000710568362138
133.0	445.260108468834	fix	2.0		60	dominance	117	2.0	2	1.0	495.4714841430664	0.5167531432989563
134.0	445.77686161213296	face	0.0		147	dominance	099	2.0	2		495.98823728636535	1.2334558163220208
134.0	447.010317428455	rating	1.0		74	dominance	099	2.0	2		497.22169310268737	0.625065917742404
134.0	447.6353833461974	fix	2.0		60	dominance	099	2.0	2	-1.1	497.8467590204298	0.5167534451547908
135.0	448.1521367913522	face	0.0		147	dominance	136	2.0	2		498.36351246558456	1.233473625809438
135.0	449.3856104171616	rating	1.0		75	dominance	136	2.0	2		499.596986091394	0.6333844576301999
135.0	450.0189948747918	fix	2.0		60	dominance	136	2.0	2	0.16999999999999993	500.2303705490242	0.5167416727817908
136.0	450.5357365475736	face	0.0		147	dominance	012	2.0	2		500.747112221806	1.2334660794163028
136.0	451.7692026269899	rating	1.0		43	dominance	012	2.0	2		501.9805783012223	0.36670458980688636
136.0	452.1359072167968	fix	2.0		60	dominance	012	2.0	2	0.5999999999999996	502.3472828910292	0.5167504265975822
137.0	452.6526576433944	face	0.0		147	dominance	039	2.0	2		502.86403331762676	1.2334579293119532
137.0	453.88611557270633	rating	1.0		171	dominance	039	2.0	2		504.0974912469387	1.4335064677115952
137.0	455.3196220404179	fix	2.0		60	dominance	039	2.0	2	0.9699999999999998	505.5309977146503	0.5167462006174901
138.0	455.8363682410354	face	0.0		147	dominance	126	2.0	2		506.0477439152678	1.2334597404465057
138.0	457.0698279814819	rating	1.0		80	dominance	126	2.0	2		507.2812036557143	0.6750692230625646
138.0	457.7448972045445	fix	2.0		60	dominance	126	2.0	2	1.0700000000000003	507.9562728787769	0.5167576711348829
139.0	458.26165487567937	face	0.0		147	dominance	066	2.0	2		508.47303054991175	1.2334530996204194
139.0	459.4951079752998	rating	1.0		103	dominance	066	2.0	2		509.7064836495322	0.8667672248684539
139.0	460.36187520016824	fix	2.0		60	dominance	066	2.0	2	2.1500000000000004	510.5732508744006	0.5167507284531894
140.0	460.87862592862143	face	0.0		147	dominance	062	2.0	2		511.0900016028538	1.2334567218890697
140.0	462.1120826505105	rating	1.0		201	dominance	062	2.0	2		512.3234583247429	1.68352510730233
140.0	463.79560775781283	fix	2.0		60	dominance	062	2.0	2	0.7699999999999996	514.0069834320452	0.5167507284531894
141.0	464.312358486266	face	0.0		147	dominance	043	2.0	2		514.5237341604984	1.233459136735064
141.0	465.5458176230011	rating	1.0		86	dominance	043	2.0	2		515.7571932972335	0.7251162974619092
141.0	466.270933920463	fix	2.0		60	dominance	043	2.0	2	-0.7400000000000002	516.4823095946954	0.5167163169012383
142.0	466.78765023736423	face	0.0		147	dominance	121	2.0	2		516.9990259115966	1.2334570237449043
142.0	468.02110726110914	rating	1.0		52	dominance	121	2.0	2		518.2324829353415	0.44171633954056233
142.0	468.4628236006497	fix	2.0		60	dominance	121	2.0	2	0.4900000000000002	518.6741992748821	0.5167540488662326
143.0	468.97957764951593	face	0.0		147	dominance	064	2.0	2		519.1909533237483	1.2334530996206468
143.0	470.2130307491366	rating	1.0		63	dominance	064	2.0	2		520.424406423369	0.5333995806015537
143.0	470.74643032973813	fix	2.0		59	dominance	064	2.0	2	-1.0099999999999998	520.9578060039705	0.5167579729907175
144.0	471.26318830272885	face	0.0		147	dominance	036	2.0	2		521.4745639769612	1.2334358938444439
144.0	472.4966241965733	rating	1.0		76	dominance	036	2.0	2		522.7079998708057	0.6417458610299036
144.0	473.1383700576032	fix	2.0		60	dominance	036	2.0	2	-2.0700000000000003	523.3497457318356	0.5167446913389995
145.0	473.6551147489422	face	0.0		147	dominance	024	2.0	2		523.8664904231746	1.2334540051876957
145.0	474.8885687541299	rating	1.0		91	dominance	024	2.0	2		525.0999444283623	0.7667636327851142
145.0	475.655332386915	fix	2.0		60	dominance	024	2.0	2	-2.92	525.8667080611474	0.5167480117520427
146.0	476.17208039866705	face	0.0		147	dominance	102	2.0	2		526.3834560728994	1.2334552126103517
146.0	477.4055356112774	rating	1.0		63	dominance	102	2.0	2		527.6169112855098	0.5334001843132228
146.0	477.9389357955906	fix	2.0		60	dominance	102	2.0	2	0.9199999999999999	528.150311469823	0.5167431820602815
147.0	478.4556789776509	face	0.0		147	dominance	130	2.0	2		528.6670546518833	1.2334597404465057
147.0	479.6891387180974	rating	1.0		119	dominance	130	2.0	2		529.9005143923298	1.0001137996057423
147.0	480.68925251770315	fix	2.0		60	dominance	130	2.0	2	-0.06999999999999984	530.9006281919355	0.5167446913389995
148.0	481.20599720904215	face	0.0		147	dominance	101	2.0	2		531.4173728832745	1.233461249724769
148.0	482.4394584587669	rating	1.0		75	dominance	101	2.0	2		532.6508341329993	0.6334061912421021
148.0	483.072864650009	fix	2.0		60	dominance	101	2.0	2	1.1600000000000001	533.2842403242414	0.5167504265975822
149.0	483.5896150766066	face	0.0		147	dominance	011	2.0	2		533.800990750839	1.2334567218890697
149.0	484.8230717984957	rating	1.0		86	dominance	011	2.0	2		535.0344474727281	0.7250821877657927
149.0	485.54815398626147	fix	2.0		60	dominance	011	2.0	2	1.1900000000000004	535.7595296604939	0.5167519358760728
150.0	486.06490592213754	face	0.0		147	dominance	042	2.0	2		536.2762815963699	1.2334540051876957
150.0	487.29835992732524	rating	1.0		73	dominance	042	2.0	2		537.5097356015576	0.616745868576345
150.0	487.9151057959016	fix	2.0		60	dominance	042	2.0	2	-0.6000000000000001	538.126481470134	0.5167383523687477
151.0	488.43184414827033	face	0.0		147	dominance	018	2.0	2		538.6432198225027	1.23346034415772
151.0	489.66530449242805	rating	1.0		86	dominance	018	2.0	2		539.8766801666604	0.7250785654971423
151.0	490.3903830579252	fix	2.0		60	dominance	018	2.0	2	-3.19	540.6017587321576	0.516756765567834
152.0	490.907139823493	face	0.0		147	dominance	124	2.0	2		541.1185154977254	1.2334482699288856
152.0	492.1405880934219	rating	1.0		175	dominance	124	2.0	2		542.3519637676543	1.4668394891273238
152.0	493.60742758254924	fix	2.0		60	dominance	124	2.0	2	2.51	543.8188032567816	0.5167504265975822
153.0	494.1241780091468	face	0.0		147	dominance	006	2.0	2		544.3355536833792	1.2334543070435302
153.0	495.35763231619035	rating	1.0		74	dominance	006	2.0	2		545.5690079904227	0.6250804068170055
153.0	495.98271272300735	fix	2.0		60	dominance	006	2.0	2	2.17	546.1940883972397	0.5167513321646311
154.0	496.499464055172	face	0.0		147	dominance	009	2.0	2		546.7108397294044	1.2334561181778554
154.0	497.73292017334984	rating	1.0		89	dominance	009	2.0	2		547.9442958475822	0.7500933488809096
154.0	498.48301352223075	fix	2.0		59	dominance	009	2.0	2	-2.73	548.6943891964631	0.5167534451547908
155.0	498.99976696738554	face	0.0		147	dominance	030	2.0	2		549.2111426416179	1.2334352901330021
155.0	500.23320225751854	rating	1.0		104	dominance	030	2.0	2		550.4445779317509	0.8751087057905806
155.0	501.1083109633091	fix	2.0		59	dominance	030	2.0	2	-1.58	551.3196866375415	0.516756765567834
156.0	501.62506772887696	face	0.0		147	dominance	033	2.0	2		551.8364434031093	1.233450986630487
156.0	502.85851871550744	rating	1.0		51	dominance	033	2.0	2		553.0698943897398	0.44170969871470334
156.0	503.30022841422215	fix	2.0		60	dominance	033	2.0	2	0.8799999999999999	553.5116040884545	0.5167682360849994
157.0	503.81699665030715	face	0.0		147	dominance	141	2.0	2		554.0283723245395	1.2334733239536035
157.0	505.05046997426075	rating	1.0		81	dominance	141	2.0	2		555.2618456484931	0.6833750850100841
157.0	505.73384505927083	fix	2.0		60	dominance	141	2.0	2	0.11000000000000032	555.9452207335032	0.5168117033085764
158.0	506.2506567625794	face	0.0		147	dominance	044	2.0	2		556.4620324368118	1.233395445178303
158.0	507.4840522077577	rating	1.0		111	dominance	044	2.0	2		557.6954278819901	0.9334447382170765
158.0	508.4174969459748	fix	2.0		59	dominance	044	2.0	2	-1.65	558.6288726202072	0.5167471061847664
159.0	508.93424405215956	face	0.0		147	dominance	005	2.0	2		559.1456197263919	1.233465475704861
159.0	510.1677095278644	rating	1.0		113	dominance	005	2.0	2		560.3790852020968	0.9500984200569746
159.0	511.1178079479214	fix	2.0		60	dominance	005	2.0	2	-2.6799999999999997	561.3291836221538	0.5000584090817028
160.0	511.6178663570031	cue	0.0		480						561.8292420312355	4.000471196776289
160.0	515.6183375537794	fix	1.0		120						565.8297132280118	1.016807326400567
160.0	516.63514488018	face	0.0		147	trustworthiness	005	2.0	2		566.8465205544123	1.2334518921977633
160.0	517.8685967723777	rating	1.0		536	trustworthiness	005	2.0	2		568.0799724466101	4.475524783712672
160.0	522.3441215560904	fix	2.0		60	trustworthiness	005	2.0	2	-0.3999999999999999	572.5554972303228	0.5167528414433491
161.0	522.8608743975337	face	0.0		147	trustworthiness	141	2.0	2		573.0722500717661	1.2334567218892971
161.0	524.094331119423	rating	1.0		269	trustworthiness	141	2.0	2		574.3057067936554	2.2502767262296857
161.0	526.3446078456527	fix	2.0		59	trustworthiness	141	2.0	2	-0.9100000000000001	576.5559835198851	0.5167561618563923
162.0	526.8613640075091	face	0.0		147	trustworthiness	066	2.0	2		577.0727396817415	1.2334449495160698
162.0	528.0948089570252	rating	1.0		110	trustworthiness	066	2.0	2		578.3061846312576	0.9251120111107412
162.0	529.0199209681359	fix	2.0		59	trustworthiness	066	2.0	2	1.7800000000000002	579.2312966423683	0.516730202264398
163.0	529.5366511704003	face	0.0		147	trustworthiness	064	2.0	2		579.7480268446327	1.233457627456346
163.0	530.7701087978567	rating	1.0		118	trustworthiness	064	2.0	2		580.981484472089	0.9917765446637077
163.0	531.7618853425204	fix	2.0		60	trustworthiness	064	2.0	2	2.5599999999999996	581.9732610167528	0.5167564637117721
164.0	532.2786418062321	face	0.0		147	trustworthiness	121	2.0	2		582.4900174804645	1.233453401476254
164.0	533.5120952077084	rating	1.0		100	trustworthiness	121	2.0	2		583.7234708819408	0.8417693454048276
164.0	534.3538645531132	fix	2.0		60	trustworthiness	121	2.0	2	2.3499999999999996	584.5652402273456	0.5167392579360239
165.0	534.8706038110492	face	0.0		147	trustworthiness	172	2.0	2		585.0819794852816	1.2334612497249964
165.0	536.1040650607742	rating	1.0		204	trustworthiness	172	2.0	2		586.3154407350066	1.7085326461485693
165.0	537.8125977069228	fix	2.0		60	trustworthiness	172	2.0	2	-0.25	588.0239733811552	0.5167480117520427
166.0	538.3293457186749	face	0.0		147	trustworthiness	136	2.0	2		588.5407213929072	1.2334875111723704
166.0	539.5628332298472	rating	1.0		74	trustworthiness	136	2.0	2		589.7742089040796	0.6250408637179135
166.0	540.1878740935651	fix	2.0		60	trustworthiness	136	2.0	2	0.3099999999999996	590.3992497677975	0.5167455969060484
167.0	540.7046196904712	face	0.0		147	trustworthiness	039	2.0	2		590.9159953647036	1.2334612497249964
167.0	541.9380809401962	rating	1.0		50	trustworthiness	039	2.0	2		592.1494566144286	0.42504394264619805
167.0	542.3631248828424	fix	2.0		60	trustworthiness	039	2.0	2	-1.5299999999999998	592.5745005570748	0.5167763861893491
168.0	542.8799012690317	face	0.0		147	trustworthiness	092	2.0	2		593.0912769432641	1.233432573431628
168.0	544.1133338424634	rating	1.0		136	trustworthiness	092	2.0	2		594.3247095166957	1.1417955162955877
168.0	545.255129358759	fix	2.0		60	trustworthiness	092	2.0	2	-0.029999999999999805	595.4665050329913	0.5167576711348829
169.0	545.7718870298938	face	0.0		147	trustworthiness	126	2.0	2		595.9832627041262	1.2334543070433028
169.0	547.0053413369371	rating	1.0		61	trustworthiness	126	2.0	2		597.2167170111695	0.5167283911300729
169.0	547.5220697280672	fix	2.0		60	trustworthiness	126	2.0	2	1.79	597.7334454022996	0.5167471061847664
170.0	548.038816834252	face	0.0		147	trustworthiness	124	2.0	2		598.2501925084844	1.2334543070435302
170.0	549.2722711412955	rating	1.0		108	trustworthiness	124	2.0	2		599.4836468155279	0.9084323696790761
170.0	550.1807035109746	fix	2.0		60	trustworthiness	124	2.0	2	1.0099999999999998	600.392079185207	0.5167558600003304
171.0	550.6974593709749	face	0.0		147	trustworthiness	009	2.0	2		600.9088350452073	1.2334588348792295
171.0	551.9309182058541	rating	1.0		86	trustworthiness	009	2.0	2		602.1422938800865	0.7250849044671668
171.0	552.6560031103213	fix	2.0		60	trustworthiness	009	2.0	2	2.87	602.8673787845537	0.5167519358763002
172.0	553.1727550461976	face	0.0		147	trustworthiness	144	2.0	2		603.38413072043	1.2334473643618367
172.0	554.4062024105594	rating	1.0		174	trustworthiness	144	2.0	2		604.6175780847918	1.4584983100608042
172.0	555.8647007206202	fix	2.0		60	trustworthiness	144	2.0	2	0.3799999999999999	606.0760763948526	0.5167579729904901
173.0	556.3814586936107	face	0.0		147	trustworthiness	011	2.0	2		606.5928343678431	1.2334582311677877
173.0	557.6149169247785	rating	1.0		75	trustworthiness	011	2.0	2		607.8262925990109	0.6334037763961078
173.0	558.2483207011746	fix	2.0		60	trustworthiness	011	2.0	2	-1.21	608.459696375407	0.516755256289116
174.0	558.7650759574638	face	0.0		147	trustworthiness	102	2.0	2		608.9764516316961	1.2334455532275115
174.0	559.9985215106913	rating	1.0		99	trustworthiness	102	2.0	2		610.2098971849236	0.8334396368554735
174.0	560.8319611475467	fix	2.0		60	trustworthiness	102	2.0	2	0.3799999999999999	611.0433368217791	0.5167443894833923
175.0	561.3487055370301	face	0.0		147	trustworthiness	036	2.0	2		611.5600812112625	1.2334546088991374
175.0	562.5821601459293	rating	1.0		163	trustworthiness	036	2.0	2		612.7935358201617	1.3668265395169783
175.0	563.9489866854462	fix	2.0		60	trustworthiness	036	2.0	2	1.9400000000000004	614.1603623596786	0.516758878557539
176.0	564.4657455640038	face	0.0		147	trustworthiness	061	2.0	2		614.6771212382362	1.2334413272476468
176.0	565.6991868912514	rating	1.0		173	trustworthiness	061	2.0	2		615.9105625654838	1.45016860151145
176.0	567.1493554927629	fix	2.0		60	trustworthiness	061	2.0	2	2.2699999999999996	617.3607311669953	0.5167573692790484
177.0	567.6661128620419	face	0.0		147	trustworthiness	070	2.0	2		617.8774885362743	1.2334537033320885
177.0	568.899566565374	rating	1.0		107	trustworthiness	070	2.0	2		619.1109422396064	0.9001080945326976
177.0	569.7996746599067	fix	2.0		60	trustworthiness	070	2.0	2	-0.1200000000000001	620.0110503341391	0.516756765567834
178.0	570.3164314254745	face	0.0		147	trustworthiness	101	2.0	2		620.5278070997069	1.2334434402373518
178.0	571.5498748657119	rating	1.0		66	trustworthiness	101	2.0	2		621.7612505399443	0.5584068175926404
178.0	572.1082816833045	fix	2.0		60	trustworthiness	101	2.0	2	0.20000000000000018	622.3196573575369	0.5167477098962081
179.0	572.6250293932007	face	0.0		147	trustworthiness	062	2.0	2		622.8364050674331	1.2334500810632107
179.0	573.858479474264	rating	1.0		99	trustworthiness	062	2.0	2		624.0698551484963	0.8334284681939153
179.0	574.6919079424579	fix	2.0		60	trustworthiness	062	2.0	2	0.2400000000000002	624.9032836166903	0.5167570674234412
180.0	575.2086650098813	face	0.0		147	trustworthiness	091	2.0	2		625.4200406841137	1.2334515903419287
180.0	576.4421166002232	rating	1.0		95	trustworthiness	091	2.0	2		626.6534922744556	0.8000839762607939
180.0	577.242200576484	fix	2.0		60	trustworthiness	091	2.0	2	2.92	627.4535762507164	0.5167594822692081
181.0	577.7589600587532	face	0.0		147	trustworthiness	099	2.0	2		627.9703357329856	1.2334546088991374
181.0	578.9924146676524	rating	1.0		203	trustworthiness	099	2.0	2		629.2037903418848	1.7002204452312526
181.0	580.6926351128836	fix	2.0		60	trustworthiness	099	2.0	2	2.13	630.904010787116	0.5167489173188642
182.0	581.2093840302025	face	0.0		147	trustworthiness	034	2.0	2		631.4207597044349	1.2334310641531374
182.0	582.4428150943556	rating	1.0		64	trustworthiness	034	2.0	2		632.654190768588	0.5417307984293984
182.0	582.984545892785	fix	2.0		60	trustworthiness	034	2.0	2	-0.20999999999999996	633.1959215670174	0.5167603878364844
183.0	583.5013062806215	face	0.0		147	trustworthiness	100	2.0	2		633.7126819548539	1.2334461569389532
183.0	584.7347524375605	rating	1.0		313	trustworthiness	100	2.0	2		634.9461281117929	2.616969543663572
183.0	587.351721981224	fix	2.0		60	trustworthiness	100	2.0	2	3.4699999999999998	637.5630976554564	0.5167489173190916
184.0	587.8684708985431	face	0.0		147	trustworthiness	012	2.0	2		638.0798465727755	1.2334579293119532
184.0	589.1019288278551	rating	1.0		137	trustworthiness	012	2.0	2		639.3133045020875	1.1501324693820152
184.0	590.2520612972371	fix	2.0		60	trustworthiness	012	2.0	2	0.6500000000000004	640.4634369714695	0.5167513321646311
185.0	590.7688126294017	face	0.0		147	trustworthiness	027	2.0	2		640.9801883036341	1.2334582311677877
185.0	592.0022708605695	rating	1.0		102	trustworthiness	027	2.0	2		642.2136465348019	0.8584290643589156
185.0	592.8606999249284	fix	2.0		60	trustworthiness	027	2.0	2	1.0099999999999998	643.0720755991608	0.5167600859806498
186.0	593.3774600109091	face	0.0		147	trustworthiness	043	2.0	2		643.5888356851415	1.2334464587947878
186.0	594.6109064697039	rating	1.0		306	trustworthiness	043	2.0	2		644.8222821439363	2.55867154505745
186.0	597.1695780147613	fix	2.0		60	trustworthiness	043	2.0	2	1.5300000000000002	647.3809536889937	0.5167184298916254
187.0	597.686296444653	face	0.0		147	trustworthiness	087	2.0	2		647.8976721188853	1.233451892197536
187.0	598.9197483368505	rating	1.0		99	trustworthiness	087	2.0	2		649.1311240110829	0.8334203180895656
187.0	599.75316865494	fix	2.0		60	trustworthiness	087	2.0	2	0.33000000000000007	649.9645443291724	0.5167534451547908
188.0	600.2699221000948	face	0.0		147	trustworthiness	024	2.0	2		650.4812977743272	1.2334555144661863
188.0	601.503377614561	rating	1.0		164	trustworthiness	024	2.0	2		651.7147532887934	1.3751619833249151
188.0	602.878539597886	fix	2.0		60	trustworthiness	024	2.0	2	3.4800000000000004	653.0899152721183	0.5167567655676066
189.0	603.3952963634536	face	0.0		147	trustworthiness	137	2.0	2		653.6066720376859	1.2334965668439963
189.0	604.6287929302975	rating	1.0		400	trustworthiness	137	2.0	2		654.8401686045299	3.342009773484506
189.0	607.970802703782	fix	2.0		60	trustworthiness	137	2.0	2	1.2800000000000002	658.1821783780144	0.5167455969060484
190.0	608.4875483006881	face	0.0		147	trustworthiness	018	2.0	2		658.6989239749205	1.2334612497249964
190.0	609.7210095504131	rating	1.0		176	trustworthiness	018	2.0	2		659.9323852246455	1.4751698013881196
190.0	611.1961793518012	fix	2.0		60	trustworthiness	018	2.0	2	2.13	661.4075550260336	0.5167513321646311
191.0	611.7129306839659	face	0.0		147	trustworthiness	038	2.0	2		661.9243063581982	1.233448269929113
191.0	612.946378953895	rating	1.0		92	trustworthiness	038	2.0	2		663.1577546281273	0.7751002840159344
191.0	613.7214792379109	fix	2.0		60	trustworthiness	038	2.0	2	-0.29000000000000004	663.9328549121433	0.5167615952591404
192.0	614.23824083317	face	0.0		147	trustworthiness	042	2.0	2		664.4496165074024	1.2334395161133216
192.0	615.4716803492834	rating	1.0		196	trustworthiness	042	2.0	2		665.6830560235157	1.641854529088505
192.0	617.1135348783719	fix	2.0		60	trustworthiness	042	2.0	2	1.5599999999999996	667.3249105526043	0.5167555581447232
193.0	617.6302904365166	face	0.0		147	trustworthiness	117	2.0	2		667.841666110749	1.2334579293121806
193.0	618.8637483658288	rating	1.0		223	trustworthiness	117	2.0	2		669.0751240400612	1.8668783077725948
193.0	620.7306266736014	fix	2.0		60	trustworthiness	117	2.0	2	2.29	670.9420023478337	0.5167570674234412
194.0	621.2473837410248	face	0.0		147	trustworthiness	044	2.0	2		671.4587594152572	1.2334482699288856
194.0	622.4808320109537	rating	1.0		102	trustworthiness	044	2.0	2		672.6922076851861	0.8584263476575416
194.0	623.3392583586112	fix	2.0		61	trustworthiness	044	2.0	2	-1.3599999999999999	673.5506340328436	0.5250919075199363
195.0	623.8643502661312	face	0.0		146	trustworthiness	033	2.0	2		674.0757259403636	1.2251267114841085
195.0	625.0894769776153	rating	1.0		273	trustworthiness	033	2.0	2		675.3008526518477	2.283594956715433
195.0	627.3730719343307	fix	2.0		60	trustworthiness	033	2.0	2	-1.7200000000000002	677.5844476085631	0.5167537470106254
196.0	627.8898256813413	face	0.0		147	trustworthiness	030	2.0	2		678.1012013555737	1.2334582311675604
196.0	629.1232839125089	rating	1.0		86	trustworthiness	030	2.0	2		679.3346595867413	0.7250788673529769
196.0	629.8483627798619	fix	2.0		60	trustworthiness	030	2.0	2	1.2000000000000002	680.0597384540943	0.5167585767019318
197.0	630.3651213565638	face	0.0		147	trustworthiness	006	2.0	2		680.5764970307962	1.2334404216803705
197.0	631.5985617782442	rating	1.0		165	trustworthiness	006	2.0	2		681.8099374524766	1.3834916918740419
197.0	632.9820534701182	fix	2.0		60	trustworthiness	006	2.0	2	0.5499999999999998	683.1934291443506	0.516750124741975
198.0	633.4988035948602	face	0.0		147	trustworthiness	082	2.0	2		683.7101792690926	1.233457627456346
198.0	634.7322612223165	rating	1.0		340	trustworthiness	082	2.0	2		684.9436368965489	2.8419960390492633
198.0	637.5742572613658	fix	2.0		60	trustworthiness	082	2.0	2	-0.06000000000000005	687.7856329355982	0.5167555581447232
199.0	638.0910128195105	face	0.0		147	trustworthiness	130	2.0	2		688.3023884937429	1.2334497792076036
199.0	639.3244625987181	rating	1.0		142	trustworthiness	130	2.0	2		689.5358382729505	1.1918121032672389
199.0	640.5162747019854	fix	2.0		60	trustworthiness	130	2.0	2	-1.42	690.7276503762178	0.500053579390169
200.0	641.0163282813755	cue	0.0		480						691.2277039556079	4.000473007910614
200.0	645.0168012892861	fix	1.0		120						695.2281769635185	1.0168076282561742
200.0	646.0336089175423	face	0.0		147	attractiveness	009	2.0	2		696.2449845917747	1.2334537033320885
200.0	647.2670626208744	rating	1.0		141	attractiveness	009	2.0	2		697.4784382951068	1.1834685093549524
200.0	648.4505311302294	fix	2.0		60	attractiveness	009	2.0	2	1.2999999999999998	698.6619068044618	0.5167597841248153
201.0	648.9672909143542	face	0.0		147	attractiveness	102	2.0	2		699.1786665885866	1.2334530996206468
201.0	650.2007440139748	rating	1.0		101	attractiveness	102	2.0	2		700.4121196882072	0.8500987520981198
201.0	651.050842766073	fix	2.0		60	attractiveness	102	2.0	2	-2.85	701.2622184403053	0.5167471061847664
202.0	651.5675898722577	face	0.0		147	attractiveness	136	2.0	2		701.7789655464901	1.2335053206597877
202.0	652.8010951929175	rating	1.0		107	attractiveness	136	2.0	2		703.0124708671499	0.9000510438020228
202.0	653.7011462367195	fix	2.0		60	attractiveness	136	2.0	2	0.1900000000000004	703.9125219109519	0.5167597841248153
203.0	654.2179060208443	face	0.0		147	attractiveness	018	2.0	2		704.4292816950767	1.2334479680732784
203.0	655.4513539889176	rating	1.0		108	attractiveness	018	2.0	2		705.66272966315	0.9084906278328617
203.0	656.3598446167505	fix	2.0		60	attractiveness	018	2.0	2	-3.27	706.5712202909829	0.5167033371055822
204.0	656.8765479538561	face	0.0		147	attractiveness	082	2.0	2		707.0879236280884	1.233450986630487
204.0	658.1099989404865	rating	1.0		71	attractiveness	082	2.0	2		708.3213746147189	0.6001166370494957
204.0	658.710115577536	fix	2.0		60	attractiveness	082	2.0	2	0.5800000000000001	708.9214912517684	0.5167060538069563
205.0	659.226821631343	face	0.0		147	attractiveness	036	2.0	2		709.4381973055754	1.2334555144664137
205.0	660.4602771458094	rating	1.0		80	attractiveness	036	2.0	2		710.6716528200418	0.6750725434753804
205.0	661.1353496892848	fix	2.0		60	attractiveness	036	2.0	2	0.40000000000000036	711.3467253635172	0.5167606896920915
206.0	661.6521103789769	face	0.0		147	attractiveness	024	2.0	2		711.8634860532093	1.2334588348792295
206.0	662.8855692138561	rating	1.0		84	attractiveness	024	2.0	2		713.0969448880885	0.7084073760256615
206.0	663.5939765898818	fix	2.0		60	attractiveness	024	2.0	2	-1.21	713.8053522641142	0.5167483136074225
207.0	664.1107249034892	face	0.0		147	attractiveness	011	2.0	2		714.3221005777216	1.2334630608593216
207.0	665.3441879643485	rating	1.0		85	attractiveness	011	2.0	2		715.5555636385809	0.716747045813463
207.0	666.060935010162	fix	2.0		60	attractiveness	011	2.0	2	-1.5499999999999998	716.2723106843944	0.5167471061847664
208.0	666.5776821163468	face	0.0		147	attractiveness	144	2.0	2		716.7890577905791	1.2334582311677877
208.0	667.8111403475145	rating	1.0		99	attractiveness	144	2.0	2		718.0225160217469	0.8334281663380807
208.0	668.6445685138526	fix	2.0		60	attractiveness	144	2.0	2	0.4500000000000002	718.855944188085	0.5167555581449506
209.0	669.1613240719976	face	0.0		147	attractiveness	121	2.0	2		719.37269974623	1.2334512884860942
209.0	670.3947753604837	rating	1.0		94	attractiveness	121	2.0	2		720.606151034716	0.7917569844130412
209.0	671.1865323448967	fix	2.0		60	attractiveness	121	2.0	2	1.62	721.3979080191291	0.5167558600005577
210.0	671.7032882048973	face	0.0		147	attractiveness	137	2.0	2		721.9146638791296	1.2334497792076036
210.0	672.9367379841049	rating	1.0		90	attractiveness	137	2.0	2		723.1481136583373	0.7584218500073803
210.0	673.6951598341122	fix	2.0		60	attractiveness	137	2.0	2	1.9299999999999997	723.9065355083446	0.5167540488662326
211.0	674.2119138829785	face	0.0		147	attractiveness	044	2.0	2		724.4232895572109	1.233446760650395
211.0	675.4453606436289	rating	1.0		140	attractiveness	044	2.0	2		725.6567363178613	1.175143630497132
211.0	676.620504274126	fix	2.0		60	attractiveness	044	2.0	2	3.42	726.8318799483584	0.5167537470106254
212.0	677.1372580211366	face	0.0		147	attractiveness	039	2.0	2		727.348633695369	1.233445855083346
212.0	678.37070387622	rating	1.0		138	attractiveness	039	2.0	2		728.5820795504524	1.158468818757001
212.0	679.529172694977	fix	2.0		60	attractiveness	039	2.0	2	-2.24	729.7405483692094	0.5167540488662326
213.0	680.0459267438432	face	0.0		147	attractiveness	066	2.0	2		730.2573024180756	1.233453401476254
213.0	681.2793801453195	rating	1.0		90	attractiveness	066	2.0	2		731.4907558195519	0.758420944440104
213.0	682.0378010897596	fix	2.0		60	attractiveness	066	2.0	2	2.5999999999999996	732.249176763992	0.5167567655676066
214.0	682.5545578553272	face	0.0		147	attractiveness	006	2.0	2		732.7659335295596	1.2334497792076036
214.0	683.7880076345348	rating	1.0		76	attractiveness	006	2.0	2		733.9993833087672	0.6417395220598792
214.0	684.4297471565947	fix	2.0		60	attractiveness	006	2.0	2	0.4800000000000004	734.641122830827	0.5167926863982757
215.0	684.9465398429929	face	0.0		147	attractiveness	027	2.0	2		735.1579155172253	1.233414160232769
215.0	686.1799540032257	rating	1.0		64	attractiveness	027	2.0	2		736.3913296774581	0.5417274780165826
215.0	686.7216814812423	fix	2.0		60	attractiveness	027	2.0	2	-0.41999999999999993	736.9330571554747	0.5167507284534167
216.0	687.2384322096957	face	0.0		147	attractiveness	141	2.0	2		737.4498078839281	1.2334911334410208
216.0	688.4719233431367	rating	1.0		79	attractiveness	141	2.0	2		738.6832990173691	0.6667211013145788
216.0	689.1386444444513	fix	2.0		60	attractiveness	141	2.0	2	-2.33	739.3500201186837	0.5167458987616556
217.0	689.655390343213	face	0.0		147	attractiveness	005	2.0	2		739.8667660174453	1.233443138381972
217.0	690.8888334815949	rating	1.0		103	attractiveness	005	2.0	2		741.1002091558273	0.866769941569828
217.0	691.7556034231648	fix	2.0		60	attractiveness	005	2.0	2	-3.08	741.9669790973971	0.5167618971147476
218.0	692.2723653202795	face	0.0		147	attractiveness	172	2.0	2		742.4837409945119	1.2334579293119532
218.0	693.5058232495915	rating	1.0		84	attractiveness	172	2.0	2		743.7171989238238	0.708401942622686
218.0	694.2142251922141	fix	2.0		60	attractiveness	172	2.0	2	-1.13	744.4256008664465	0.5167797066023923
219.0	694.7310048988165	face	0.0		147	attractiveness	034	2.0	2		744.9423805730489	1.2334217066259043
219.0	695.9644266054424	rating	1.0		86	attractiveness	034	2.0	2		746.1758022796748	0.7250912434371912
219.0	696.6895178488796	fix	2.0		60	attractiveness	034	2.0	2	-0.7599999999999998	746.900893523112	0.516753747010398
220.0	697.20627159589	face	0.0		147	attractiveness	064	2.0	2		747.4176472701224	1.2334612497249964
220.0	698.439732845615	rating	1.0		71	attractiveness	064	2.0	2		748.6511085198474	0.600068943846054
220.0	699.0398017894611	fix	2.0		60	attractiveness	064	2.0	2	0.6600000000000001	749.2511774636935	0.5167468043289318
221.0	699.55654859379	face	0.0		147	attractiveness	042	2.0	2		749.7679242680224	1.233463362715156
221.0	700.7900119565052	rating	1.0		128	attractiveness	042	2.0	2		751.0013876307376	1.0751146825336946
221.0	701.8651266390389	fix	2.0		61	attractiveness	042	2.0	2	2.59	752.0765023132712	0.5250819462812615
222.0	702.3902085853201	face	0.0		146	attractiveness	043	2.0	2		752.6015842595525	1.225118863235366
222.0	703.6153274485555	rating	1.0		85	attractiveness	043	2.0	2		753.8267031227879	0.7167452346793652
222.0	704.3320726832349	fix	2.0		60	attractiveness	043	2.0	2	0.21999999999999975	754.5434483574672	0.5167474080403736
223.0	704.8488200912752	face	0.0		147	attractiveness	101	2.0	2		755.0601957655076	1.2334633627149287
223.0	706.0822834539902	rating	1.0		71	attractiveness	101	2.0	2		756.2936591282225	0.6000653215774037
223.0	706.6823487755676	fix	2.0		60	attractiveness	101	2.0	2	0.7800000000000002	756.8937244498	0.5167679342293923
224.0	707.199116709797	face	0.0		147	attractiveness	012	2.0	2		757.4104923840293	1.2334361957002784
224.0	708.4325529054972	rating	1.0		72	attractiveness	012	2.0	2		758.6439285797296	0.6084089154896901
224.0	709.0409618209869	fix	2.0		61	attractiveness	012	2.0	2	0.5899999999999999	759.2523374952193	0.5250903982412183
225.0	709.5660522192281	face	0.0		146	attractiveness	100	2.0	2		759.7774278934605	1.225112524265569
225.0	710.7911647434937	rating	1.0		92	attractiveness	100	2.0	2		761.0025404177261	0.7750975673145604
225.0	711.5662623108083	fix	2.0		60	attractiveness	100	2.0	2	-1.38	761.7776379850407	0.5167621989705822
226.0	712.0830245097789	face	0.0		147	attractiveness	092	2.0	2		762.2944001840112	1.2334588348792295
226.0	713.3164833446581	rating	1.0		73	attractiveness	092	2.0	2		763.5278590188905	0.616714173725768
226.0	713.9331975183838	fix	2.0		61	attractiveness	092	2.0	2	1.1799999999999997	764.1445731926162	0.5250913038084946
227.0	714.4582888221923	face	0.0		146	attractiveness	099	2.0	2		764.6696644964247	1.2251167502454336
227.0	715.6834055724378	rating	1.0		70	attractiveness	099	2.0	2		765.8947812466702	0.5917283684909762
227.0	716.2751339409288	fix	2.0		61	attractiveness	099	2.0	2	0.34999999999999964	766.4865096151611	0.5251039817485434
228.0	716.8002379226773	face	0.0		146	attractiveness	030	2.0	2		767.0116135969097	1.2251089019969186
228.0	718.0253468246742	rating	1.0		72	attractiveness	030	2.0	2		768.2367224989066	0.6084206878626901
228.0	718.6337675125369	fix	2.0		60	attractiveness	030	2.0	2	1.2699999999999996	768.8451431867693	0.5167386542245822
229.0	719.1505061667615	face	0.0		147	attractiveness	033	2.0	2		769.3618818409939	1.233458533023395
229.0	720.3839646997849	rating	1.0		86	attractiveness	033	2.0	2		770.5953403740173	0.7250779617857006
229.0	721.1090426615706	fix	2.0		60	attractiveness	033	2.0	2	0.5800000000000001	771.320418335803	0.5167483136076498
230.0	721.6257909751782	face	0.0		147	attractiveness	130	2.0	2		771.8371666494106	1.2334624571476525
230.0	722.8592534323259	rating	1.0		106	attractiveness	130	2.0	2		773.0706291065583	0.8918010251625219
230.0	723.7510544574884	fix	2.0		60	attractiveness	130	2.0	2	-3.24	773.9624301317208	0.5167214484486067
231.0	724.267775905937	face	0.0		147	attractiveness	087	2.0	2		774.4791515801694	1.2334543070433028
231.0	725.5012302129803	rating	1.0		101	attractiveness	087	2.0	2		775.7126058872127	0.8500912057054393
231.0	726.3513214186858	fix	2.0		60	attractiveness	087	2.0	2	0.46999999999999975	776.5626970929181	0.516767028662116
232.0	726.8680884473479	face	0.0		147	attractiveness	062	2.0	2		777.0794641215803	1.2334588348792295
232.0	728.1015472822271	rating	1.0		123	attractiveness	062	2.0	2		778.3129229564595	1.0334465191658637
232.0	729.134993801393	fix	2.0		60	attractiveness	062	2.0	2	0.29000000000000004	779.3463694756254	0.5167625008261894
233.0	729.6517563022192	face	0.0		147	attractiveness	091	2.0	2		779.8631319764515	1.2334259326059964
233.0	730.8851822348252	rating	1.0		111	attractiveness	091	2.0	2		781.0965579090575	0.9334634532715427
233.0	731.8186456880967	fix	2.0		60	attractiveness	091	2.0	2	2.4000000000000004	782.0300213623291	0.5167492191746987
234.0	732.3353949072714	face	0.0		147	attractiveness	124	2.0	2		782.5467705815038	1.2334609478693892
234.0	733.5688558551408	rating	1.0		124	attractiveness	124	2.0	2		783.7802315293732	1.0417602293618984
234.0	734.6106160845027	fix	2.0		60	attractiveness	124	2.0	2	2.13	784.8219917587351	0.5167606896920915
235.0	735.1273767741948	face	0.0		147	attractiveness	117	2.0	2		785.3387524484272	1.2334612497249964
235.0	736.3608380239198	rating	1.0		107	attractiveness	117	2.0	2		786.5722136981522	0.9001086982441393
235.0	737.2609467221639	fix	2.0		60	attractiveness	117	2.0	2	1.17	787.4723223963963	0.5167428802046743
236.0	737.7776896023686	face	0.0		147	attractiveness	070	2.0	2		787.989065276601	1.233437704978769
236.0	739.0111273073474	rating	1.0		113	attractiveness	070	2.0	2		789.2225029815797	0.9501165314002264
236.0	739.9612438387476	fix	2.0		60	attractiveness	070	2.0	2	-0.1299999999999999	790.17261951298	0.5167519358760728
237.0	740.4779957746237	face	0.0		147	attractiveness	061	2.0	2		790.689371448856	1.2334537033320885
237.0	741.7114494779557	rating	1.0		73	attractiveness	061	2.0	2		791.9228251521881	0.6167380203276025
237.0	742.3281874982833	fix	2.0		60	attractiveness	061	2.0	2	-1.4300000000000002	792.5395631725157	0.5167510303090239
238.0	742.8449385285924	face	0.0		147	attractiveness	038	2.0	2		793.0563142028248	1.2334624571476525
238.0	744.07840098574	rating	1.0		81	attractiveness	038	2.0	2		794.2897766599724	0.6834022520247345
238.0	744.7618032377648	fix	2.0		60	attractiveness	038	2.0	2	-0.4700000000000002	794.9731789119971	0.5167498228863678
239.0	745.2785530606511	face	0.0		147	attractiveness	126	2.0	2		795.4899287348835	1.2334672868391863
239.0	746.5120203474903	rating	1.0		129	attractiveness	126	2.0	2		796.7233960217227	1.0834468059288156
239.0	747.5954671534191	fix	2.0		60	attractiveness	126	2.0	2	0.17999999999999972	797.8068428276515	0.5000614276386841
