trial_nr	onset	event_type	phase	response	nr_frames	face_age	face_sex	face_eth	attractiveness	expression	face_id	sub_id	ses	run	trial_type	catch	rating_type	onset_abs	duration
-1.0	0.058258153651195244	fix	0.0		713													24.206817652884638	5.957936103785187
-1.0	0.6999499825074054	pulse	0.0	t														24.848509481740848	
-1.0	1.399929546875228	pulse	0.0	t														25.54848904610867	
-1.0	2.0999139409345844	pulse	0.0	t														26.248473440168027	
-1.0	2.799901655406984	pulse	0.0	t														26.948461154640427	
-1.0	3.499920461018064	pulse	0.0	t														27.648479960251507	
-1.0	4.1998719528041875	pulse	0.0	t														28.34843145203763	
-1.0	4.899868421092378	pulse	0.0	t														29.04842792032582	
-1.0	5.599741128535925	pulse	0.0	t														29.748300627769368	
0.0	6.016194257436382	face	0.0		144	40.0	female	west_asian	1.5777954635893354	neutral	038	sub-15	1.0	2.0	038_neutral	0.0		30.164753756669825	1.233324810940303
0.0	6.299794345698956	pulse	0.0	t		40.0	female	west_asian	1.5777954635893354	neutral	038	sub-15	1.0	2.0	038_neutral	0.0		30.4483538449324	
0.0	6.999768778519638	pulse	0.0	t		40.0	female	west_asian	1.5777954635893354	neutral	038	sub-15	1.0	2.0	038_neutral	0.0		31.14832827775308	
0.0	7.249519068376685	fix	1.0		445	40.0	female	west_asian	1.5777954635893354	neutral	038	sub-15	1.0	2.0	038_neutral	0.0		31.398078567610128	3.758265790600717
0.0	7.699669558545111	pulse	1.0	t		40.0	female	west_asian	1.5777954635893354	neutral	038	sub-15	1.0	2.0	038_neutral	0.0		31.848229057778553	
0.0	8.3996560655944	pulse	1.0	t		40.0	female	west_asian	1.5777954635893354	neutral	038	sub-15	1.0	2.0	038_neutral	0.0		32.54821556482784	
0.0	9.099610575937731	pulse	1.0	t		40.0	female	west_asian	1.5777954635893354	neutral	038	sub-15	1.0	2.0	038_neutral	0.0		33.248170075171174	
0.0	9.799599497832787	pulse	1.0	t		40.0	female	west_asian	1.5777954635893354	neutral	038	sub-15	1.0	2.0	038_neutral	0.0		33.94815899706623	
0.0	10.499592041996493	pulse	1.0	t		40.0	female	west_asian	1.5777954635893354	neutral	038	sub-15	1.0	2.0	038_neutral	0.0		34.648151541229936	
1.0	11.007784858977402	face	0.0		146	25.0	female	black	3.858336649423	smiling	126	sub-15	1.0	2.0	126_smiling	0.0		35.156344358210845	1.2416481805194053
1.0	11.199579756468893	pulse	0.0	t		25.0	female	black	3.858336649423	smiling	126	sub-15	1.0	2.0	126_smiling	0.0		35.348139255702336	
1.0	11.899560528259599	pulse	0.0	t		25.0	female	black	3.858336649423	smiling	126	sub-15	1.0	2.0	126_smiling	0.0		36.04812002749304	
1.0	12.249433039496807	fix	1.0		445	25.0	female	black	3.858336649423	smiling	126	sub-15	1.0	2.0	126_smiling	0.0		36.39799253873025	3.758244358844877
1.0	12.599551865000421	pulse	1.0	t		25.0	female	black	3.858336649423	smiling	126	sub-15	1.0	2.0	126_smiling	0.0		36.748111364233864	
1.0	13.299531731224079	pulse	1.0	t		25.0	female	black	3.858336649423	smiling	126	sub-15	1.0	2.0	126_smiling	0.0		37.44809123045752	
1.0	13.999514012293275	pulse	1.0	t		25.0	female	black	3.858336649423	smiling	126	sub-15	1.0	2.0	126_smiling	0.0		38.14807351152672	
1.0	14.699534327183073	pulse	1.0	t		25.0	female	black	3.858336649423	smiling	126	sub-15	1.0	2.0	126_smiling	0.0		38.848093826416516	
1.0	15.399490950516338	pulse	1.0	t		25.0	female	black	3.858336649423	smiling	126	sub-15	1.0	2.0	126_smiling	0.0		39.54805044974978	
2.0	16.007677398341684	face	0.0		146	24.0	female	black	3.0955033824114606	neutral	099	sub-15	1.0	2.0	099_neutral	0.0		40.15623689757513	1.241668102996755
2.0	16.099497983754645	pulse	0.0	t		24.0	female	black	3.0955033824114606	neutral	099	sub-15	1.0	2.0	099_neutral	0.0		40.24805748298809	
2.0	16.799466681316744	pulse	0.0	t		24.0	female	black	3.0955033824114606	neutral	099	sub-15	1.0	2.0	099_neutral	0.0		40.94802618055019	
2.0	17.24934550133844	fix	1.0		445	24.0	female	black	3.0955033824114606	neutral	099	sub-15	1.0	2.0	099_neutral	0.0		41.39790500057188	3.7582606590538035
2.0	17.499461338470383	pulse	1.0	t		24.0	female	black	3.0955033824114606	neutral	099	sub-15	1.0	2.0	099_neutral	0.0		41.648020837703825	
2.0	18.199439091704107	pulse	1.0	t		24.0	female	black	3.0955033824114606	neutral	099	sub-15	1.0	2.0	099_neutral	0.0		42.34799859093755	
2.0	18.89943857854928	pulse	1.0	t		24.0	female	black	3.0955033824114606	neutral	099	sub-15	1.0	2.0	099_neutral	0.0		43.04799807778272	
2.0	19.59942327446447	pulse	1.0	t		24.0	female	black	3.0955033824114606	neutral	099	sub-15	1.0	2.0	099_neutral	0.0		43.74798277369791	
2.0	20.29940012213069	pulse	1.0	t		24.0	female	black	3.0955033824114606	neutral	099	sub-15	1.0	2.0	099_neutral	0.0		44.447959621364134	
3.0	21.007606160392243	face	0.0		147	20.0	male	black	2.609629924393156	smiling	043	sub-15	1.0	2.0	043_smiling	0.0		45.156165659625685	1.2416527083551046
3.0	21.000860288797412	pulse	0.0	t		20.0	male	black	2.609629924393156	smiling	043	sub-15	1.0	2.0	043_smiling	0.0		45.149419788030855	
3.0	21.699390040149865	pulse	0.0	t		20.0	male	black	2.609629924393156	smiling	043	sub-15	1.0	2.0	043_smiling	0.0		45.84794953938331	
3.0	22.249258868747347	fix	1.0		443	20.0	male	black	2.609629924393156	smiling	043	sub-15	1.0	2.0	043_smiling	0.0		46.39781836798079	3.7582682054467114
3.0	22.399380773179246	pulse	1.0	t		20.0	male	black	2.609629924393156	smiling	043	sub-15	1.0	2.0	043_smiling	0.0		46.54794027241269	
3.0	23.099358224557136	pulse	1.0	t		20.0	male	black	2.609629924393156	smiling	043	sub-15	1.0	2.0	043_smiling	0.0		47.24791772379058	
3.0	23.799352277999333	pulse	1.0	t		20.0	male	black	2.609629924393156	smiling	043	sub-15	1.0	2.0	043_smiling	0.0		47.947911777232775	
3.0	24.499330936800106	pulse	1.0	t		20.0	male	black	2.609629924393156	smiling	043	sub-15	1.0	2.0	043_smiling	0.0		48.64789043603355	
3.0	25.19930748261072	pulse	1.0	t		20.0	male	black	2.609629924393156	smiling	043	sub-15	1.0	2.0	043_smiling	0.0		49.34786698184416	
3.0	25.899300932341703	pulse	1.0	t		20.0	male	black	2.609629924393156	smiling	043	sub-15	1.0	2.0	043_smiling	0.0		50.047860431575145	
4.0	26.00752707419406	face	0.0		147	24.0	female	black	3.0955033824114606	smiling	099	sub-15	1.0	2.0	099_smiling	0.0		50.1560865734275	1.2416460675292456
4.0	26.59928985423676	pulse	0.0	t		24.0	female	black	3.0955033824114606	smiling	099	sub-15	1.0	2.0	099_smiling	0.0		50.7478493534702	
4.0	27.249173141723304	fix	1.0		445	24.0	female	black	3.0955033824114606	smiling	099	sub-15	1.0	2.0	099_smiling	0.0		51.39773264095675	3.7665964047173475
4.0	27.29928692623639	pulse	1.0	t		24.0	female	black	3.0955033824114606	smiling	099	sub-15	1.0	2.0	099_smiling	0.0		51.447846425469834	
4.0	27.999289733494606	pulse	1.0	t		24.0	female	black	3.0955033824114606	smiling	099	sub-15	1.0	2.0	099_smiling	0.0		52.14784923272805	
4.0	28.699250582807963	pulse	1.0	t		24.0	female	black	3.0955033824114606	smiling	099	sub-15	1.0	2.0	099_smiling	0.0		52.847810082041406	
4.0	29.39927753852362	pulse	1.0	t		24.0	female	black	3.0955033824114606	smiling	099	sub-15	1.0	2.0	099_smiling	0.0		53.54783703775706	
4.0	30.09928366619465	pulse	1.0	t		24.0	female	black	3.0955033824114606	smiling	099	sub-15	1.0	2.0	099_smiling	0.0		54.247843165428094	
4.0	30.79925477860229	pulse	1.0	t		24.0	female	black	3.0955033824114606	smiling	099	sub-15	1.0	2.0	099_smiling	0.0		54.94781427783573	
5.0	31.01576954644065	face	0.0		146	40.0	male	white	1.868682849184242	smiling	172	sub-15	1.0	2.0	172_smiling	0.0		55.164329045674094	1.2416524064994974
5.0	31.499253359880413	pulse	0.0	t		40.0	male	white	1.868682849184242	smiling	172	sub-15	1.0	2.0	172_smiling	0.0		55.647812859113856	
5.0	32.19921843517386	pulse	0.0	t		40.0	male	white	1.868682849184242	smiling	172	sub-15	1.0	2.0	172_smiling	0.0		56.347777934407304	
5.0	32.25742195294015	fix	1.0		445	40.0	male	white	1.868682849184242	smiling	172	sub-15	1.0	2.0	172_smiling	0.0		56.40598145217359	3.758276657406668
5.0	32.89921007377052	pulse	1.0	t		40.0	male	white	1.868682849184242	smiling	172	sub-15	1.0	2.0	172_smiling	0.0		57.04776957300396	
5.0	33.59918812885985	pulse	1.0	t		40.0	male	white	1.868682849184242	smiling	172	sub-15	1.0	2.0	172_smiling	0.0		57.74774762809329	
5.0	34.29915229858602	pulse	1.0	t		40.0	male	white	1.868682849184242	smiling	172	sub-15	1.0	2.0	172_smiling	0.0		58.447711797819466	
5.0	34.999153898421355	pulse	1.0	t		40.0	male	white	1.868682849184242	smiling	172	sub-15	1.0	2.0	172_smiling	0.0		59.1477133976548	
5.0	35.69914734815211	pulse	1.0	t		40.0	male	white	1.868682849184242	smiling	172	sub-15	1.0	2.0	172_smiling	0.0		59.84770684738555	
6.0	36.01569861034682	face	0.0		146	20.0	male	black	3.1070433744528456	neutral	082	sub-15	1.0	2.0	082_neutral	0.0		60.16425810958026	1.2416342951562456
6.0	36.39912600695288	pulse	0.0	t		20.0	male	black	3.1070433744528456	neutral	082	sub-15	1.0	2.0	082_neutral	0.0		60.547685506186326	
6.0	37.099100439773565	pulse	0.0	t		20.0	male	black	3.1070433744528456	neutral	082	sub-15	1.0	2.0	082_neutral	0.0		61.24765993900701	
6.0	37.25733290550306	fix	1.0		444	20.0	male	black	3.1070433744528456	neutral	082	sub-15	1.0	2.0	082_neutral	0.0		61.405892404736505	3.7582567349293186
6.0	37.799094795071596	pulse	1.0	t		20.0	male	black	3.1070433744528456	neutral	082	sub-15	1.0	2.0	082_neutral	0.0		61.94765429430504	
6.0	38.499078283563904	pulse	1.0	t		20.0	male	black	3.1070433744528456	neutral	082	sub-15	1.0	2.0	082_neutral	0.0		62.64763778279735	
6.0	39.19906026277749	pulse	1.0	t		20.0	male	black	3.1070433744528456	neutral	082	sub-15	1.0	2.0	082_neutral	0.0		63.347619762010936	
6.0	39.899070918284224	pulse	1.0	t		20.0	male	black	3.1070433744528456	neutral	082	sub-15	1.0	2.0	082_neutral	0.0		64.04763041751767	
6.0	40.5990423325477	pulse	1.0	t		20.0	male	black	3.1070433744528456	neutral	082	sub-15	1.0	2.0	082_neutral	0.0		64.74760183178114	
7.0	41.01558964043238	face	0.0		146	22.0	male	black	2.767608436132113	smiling	044	sub-15	1.0	2.0	044_smiling	0.0		65.16414913966582	1.2416533120665463
7.0	41.29903155629859	pulse	0.0	t		22.0	male	black	2.767608436132113	smiling	044	sub-15	1.0	2.0	044_smiling	0.0		65.44759105553203	
7.0	41.99902621345245	pulse	0.0	t		22.0	male	black	2.767608436132113	smiling	044	sub-15	1.0	2.0	044_smiling	0.0		66.1475857126859	
7.0	42.25724295249893	fix	1.0		445	22.0	male	black	2.767608436132113	smiling	044	sub-15	1.0	2.0	044_smiling	0.0		66.40580245173237	3.758273035138245
7.0	42.6990238891633	pulse	1.0	t		22.0	male	black	2.767608436132113	smiling	044	sub-15	1.0	2.0	044_smiling	0.0		66.84758338839674	
7.0	43.39899922755126	pulse	1.0	t		22.0	male	black	2.767608436132113	smiling	044	sub-15	1.0	2.0	044_smiling	0.0		67.5475587267847	
7.0	44.09899207357057	pulse	1.0	t		22.0	male	black	2.767608436132113	smiling	044	sub-15	1.0	2.0	044_smiling	0.0		68.24755157280401	
7.0	44.79898824000293	pulse	1.0	t		22.0	male	black	2.767608436132113	smiling	044	sub-15	1.0	2.0	044_smiling	0.0		68.94754773923637	
7.0	45.498976256330934	pulse	1.0	t		22.0	male	black	2.767608436132113	smiling	044	sub-15	1.0	2.0	044_smiling	0.0		69.64753575556438	
8.0	46.01551598763717	face	0.0		146	36.0	female	white	2.7548746518105847	neutral	011	sub-15	1.0	2.0	011_neutral	0.0		70.16407548687062	1.2416439545393132
8.0	46.198957329977475	pulse	0.0	t		36.0	female	white	2.7548746518105847	neutral	011	sub-15	1.0	2.0	011_neutral	0.0		70.34751682921092	
8.0	46.89894232774827	pulse	0.0	t		36.0	female	white	2.7548746518105847	neutral	011	sub-15	1.0	2.0	011_neutral	0.0		71.04750182698172	
8.0	47.257159942176486	fix	1.0		445	36.0	female	white	2.7548746518105847	neutral	011	sub-15	1.0	2.0	011_neutral	0.0		71.40571944140993	3.7582660924565516
8.0	47.598951172120906	pulse	1.0	t		36.0	female	white	2.7548746518105847	neutral	011	sub-15	1.0	2.0	011_neutral	0.0		71.74751067135435	
8.0	48.29893375504594	pulse	1.0	t		36.0	female	white	2.7548746518105847	neutral	011	sub-15	1.0	2.0	011_neutral	0.0		72.44749325427938	
8.0	48.99890818786639	pulse	1.0	t		36.0	female	white	2.7548746518105847	neutral	011	sub-15	1.0	2.0	011_neutral	0.0		73.14746768709983	
8.0	49.69889378934863	pulse	1.0	t		36.0	female	white	2.7548746518105847	neutral	011	sub-15	1.0	2.0	011_neutral	0.0		73.84745328858207	
8.0	50.398880598253754	pulse	1.0	t		36.0	female	white	2.7548746518105847	neutral	011	sub-15	1.0	2.0	011_neutral	0.0		74.5474400974872	
9.0	51.01542603463304	face	0.0		146	31.0	female	white	2.1822522881018704	neutral	102	sub-15	1.0	2.0	102_neutral	0.0		75.16398553386648	1.24164636938508
9.0	51.09887585911906	pulse	0.0	t		31.0	female	white	2.1822522881018704	neutral	102	sub-15	1.0	2.0	102_neutral	0.0		75.2474353583525	
9.0	51.79886206431274	pulse	0.0	t		31.0	female	white	2.1822522881018704	neutral	102	sub-15	1.0	2.0	102_neutral	0.0		75.94742156354619	
9.0	52.25707240401812	fix	1.0		445	31.0	female	white	2.1822522881018704	neutral	102	sub-15	1.0	2.0	102_neutral	0.0		76.40563190325156	3.7666030455432065
9.0	52.49884887321787	pulse	1.0	t		31.0	female	white	2.1822522881018704	neutral	102	sub-15	1.0	2.0	102_neutral	0.0		76.64740837245131	
9.0	53.1988314561429	pulse	1.0	t		31.0	female	white	2.1822522881018704	neutral	102	sub-15	1.0	2.0	102_neutral	0.0		77.34739095537634	
9.0	53.898824604018046	pulse	1.0	t		31.0	female	white	2.1822522881018704	neutral	102	sub-15	1.0	2.0	102_neutral	0.0		78.04738410325149	
9.0	54.59881141292317	pulse	1.0	t		31.0	female	white	2.1822522881018704	neutral	102	sub-15	1.0	2.0	102_neutral	0.0		78.74737091215661	
9.0	55.29879309028115	pulse	1.0	t		31.0	female	white	2.1822522881018704	neutral	102	sub-15	1.0	2.0	102_neutral	0.0		79.4473525895146	
9.0	55.99878321959909	pulse	1.0	t		31.0	female	white	2.1822522881018704	neutral	102	sub-15	1.0	2.0	102_neutral	0.0		80.14734271883253	
10.0	56.023675449561324	face	0.0		146	37.0	male	white	3.898925586947871	neutral	101	sub-15	1.0	2.0	101_neutral	0.0		80.17223494879477	1.233311529288585
10.0	56.698773650772864	pulse	0.0	t		37.0	male	white	3.898925586947871	neutral	101	sub-15	1.0	2.0	101_neutral	0.0		80.8473331500063	
10.0	57.25698697884991	fix	1.0		443	37.0	male	white	3.898925586947871	neutral	101	sub-15	1.0	2.0	101_neutral	0.0		81.40554647808335	3.7583204264858523
10.0	57.398764383802245	pulse	1.0	t		37.0	male	white	3.898925586947871	neutral	101	sub-15	1.0	2.0	101_neutral	0.0		81.54732388303569	
10.0	58.09874787229455	pulse	1.0	t		37.0	male	white	3.898925586947871	neutral	101	sub-15	1.0	2.0	101_neutral	0.0		82.247307371528	
10.0	58.7987383034681	pulse	1.0	t		37.0	male	white	3.898925586947871	neutral	101	sub-15	1.0	2.0	101_neutral	0.0		82.94729780270154	
10.0	59.49873628103478	pulse	1.0	t		37.0	male	white	3.898925586947871	neutral	101	sub-15	1.0	2.0	101_neutral	0.0		83.64729578026822	
10.0	60.198708299009695	pulse	1.0	t		37.0	male	white	3.898925586947871	neutral	101	sub-15	1.0	2.0	101_neutral	0.0		84.34726779824314	
10.0	60.89870205059651	pulse	1.0	t		37.0	male	white	3.898925586947871	neutral	101	sub-15	1.0	2.0	101_neutral	0.0		85.04726154982995	
11.0	61.01530740533576	face	0.0		147	22.0	female	white	4.614007162753682	smiling	009	sub-15	1.0	2.0	009_smiling	1.0	attractiveness	85.1638669045692	1.2415938464901046
11.0	61.5986813131085	pulse	0.0	t		22.0	female	white	4.614007162753682	smiling	009	sub-15	1.0	2.0	009_smiling	1.0	attractiveness	85.74724081234194	
11.0	62.256901251825866	fix	1.0		176	22.0	female	white	4.614007162753682	smiling	009	sub-15	1.0	2.0	009_smiling	1.0	attractiveness	86.40546075105931	1.5083383114372282
11.0	62.29867868696374	pulse	1.0	t		22.0	female	white	4.614007162753682	smiling	009	sub-15	1.0	2.0	009_smiling	1.0	attractiveness	86.44723818619718	
11.0	62.998666099580305	pulse	1.0	t		22.0	female	white	4.614007162753682	smiling	009	sub-15	1.0	2.0	009_smiling	1.0	attractiveness	87.14722559881375	
11.0	63.6986510973511	pulse	1.0	t		22.0	female	white	4.614007162753682	smiling	009	sub-15	1.0	2.0	009_smiling	1.0	attractiveness	87.84721059658455	
11.0	63.765239563263094	rating	2.0		294	22.0	female	white	4.614007162753682	smiling	009	sub-15	1.0	2.0	009_smiling	1.0	attractiveness	87.91379906249654	2.4915931673147043
11.0	64.39867171409674	pulse	2.0	t		22.0	female	white	4.614007162753682	smiling	009	sub-15	1.0	2.0	009_smiling	1.0	attractiveness	88.54723121333018	
11.0	65.09863135598721	pulse	2.0	t		22.0	female	white	4.614007162753682	smiling	009	sub-15	1.0	2.0	009_smiling	1.0	attractiveness	89.24719085522065	
11.0	65.54029215407559	response	2.0	y		22.0	female	white	4.614007162753682	smiling	009	sub-15	1.0	2.0	009_smiling	1.0	attractiveness	89.68885165330903	
11.0	65.79861454262368	pulse	2.0	t		22.0	female	white	4.614007162753682	smiling	009	sub-15	1.0	2.0	009_smiling	1.0	attractiveness	89.94717404185712	
11.0	66.2568327305778	fix	3.0		444	22.0	female	white	4.614007162753682	smiling	009	sub-15	1.0	2.0	009_smiling	1.0	attractiveness	90.40539222981124	3.7666015362644885
11.0	66.49860738864322	pulse	3.0	t		22.0	female	white	4.614007162753682	smiling	009	sub-15	1.0	2.0	009_smiling	1.0	attractiveness	90.64716688787666	
11.0	67.19859299012523	pulse	3.0	t		22.0	female	white	4.614007162753682	smiling	009	sub-15	1.0	2.0	009_smiling	1.0	attractiveness	91.34715248935868	
11.0	67.89858100645324	pulse	3.0	t		22.0	female	white	4.614007162753682	smiling	009	sub-15	1.0	2.0	009_smiling	1.0	attractiveness	92.04714050568668	
11.0	68.59856419308971	pulse	3.0	t		22.0	female	white	4.614007162753682	smiling	009	sub-15	1.0	2.0	009_smiling	1.0	attractiveness	92.74712369232316	
11.0	69.29855100199484	pulse	3.0	t		22.0	female	white	4.614007162753682	smiling	009	sub-15	1.0	2.0	009_smiling	1.0	attractiveness	93.44711050122828	
11.0	69.9985544129645	pulse	3.0	t		22.0	female	white	4.614007162753682	smiling	009	sub-15	1.0	2.0	009_smiling	1.0	attractiveness	94.14711391219794	
12.0	70.02343426684229	face	0.0		146	30.0	female	black	2.7345801830481498	smiling	062	sub-15	1.0	2.0	062_smiling	0.0		94.17199376607573	1.2333109255771433
12.0	70.69853126063094	pulse	0.0	t		30.0	female	black	2.7345801830481498	smiling	062	sub-15	1.0	2.0	062_smiling	0.0		94.84709075986439	
12.0	71.25674519241943	fix	1.0		443	30.0	female	black	2.7345801830481498	smiling	062	sub-15	1.0	2.0	062_smiling	0.0		95.40530469165287	3.766586141622838
12.0	71.39852320108321	pulse	1.0	t		30.0	female	black	2.7345801830481498	smiling	062	sub-15	1.0	2.0	062_smiling	0.0		95.54708270031665	
12.0	72.0985051802968	pulse	1.0	t		30.0	female	black	2.7345801830481498	smiling	062	sub-15	1.0	2.0	062_smiling	0.0		96.24706467953024	
12.0	72.79849953559483	pulse	1.0	t		30.0	female	black	2.7345801830481498	smiling	062	sub-15	1.0	2.0	062_smiling	0.0		96.94705903482827	
12.0	73.49849207975876	pulse	1.0	t		30.0	female	black	2.7345801830481498	smiling	062	sub-15	1.0	2.0	062_smiling	0.0		97.6470515789922	
12.0	74.198465908868	pulse	1.0	t		30.0	female	black	2.7345801830481498	smiling	062	sub-15	1.0	2.0	062_smiling	0.0		98.34702540810144	
12.0	74.89845754746443	pulse	1.0	t		30.0	female	black	2.7345801830481498	smiling	062	sub-15	1.0	2.0	062_smiling	0.0		99.04701704669787	
13.0	75.02333133404227	face	0.0		146	24.0	male	white	3.1153999204138483	neutral	012	sub-15	1.0	2.0	012_neutral	0.0		99.17189083327571	1.233327527641677
13.0	75.59844918606109	pulse	0.0	t		24.0	male	white	3.1153999204138483	neutral	012	sub-15	1.0	2.0	012_neutral	0.0		99.74700868529453	
13.0	76.25665886168395	fix	1.0		443	24.0	male	white	3.1153999204138483	neutral	012	sub-15	1.0	2.0	012_neutral	0.0		100.40521836091739	3.758266394312386
13.0	76.2984326745534	pulse	1.0	t		24.0	male	white	3.1153999204138483	neutral	012	sub-15	1.0	2.0	012_neutral	0.0		100.44699217378684	
13.0	76.99842461500566	pulse	1.0	t		24.0	male	white	3.1153999204138483	neutral	012	sub-15	1.0	2.0	012_neutral	0.0		101.1469841142391	
13.0	77.69840236823916	pulse	1.0	t		24.0	male	white	3.1153999204138483	neutral	012	sub-15	1.0	2.0	012_neutral	0.0		101.8469618674726	
13.0	78.3984027606516	pulse	1.0	t		24.0	male	white	3.1153999204138483	neutral	012	sub-15	1.0	2.0	012_neutral	0.0		102.54696225988505	
13.0	79.09836481738785	pulse	1.0	t		24.0	male	white	3.1153999204138483	neutral	012	sub-15	1.0	2.0	012_neutral	0.0		103.24692431662129	
13.0	79.79837637846185	pulse	1.0	t		24.0	male	white	3.1153999204138483	neutral	012	sub-15	1.0	2.0	012_neutral	0.0		103.9469358776953	
14.0	80.01492525599633	face	0.0		146	31.0	male	west_asian	1.9538400318344609	neutral	070	sub-15	1.0	2.0	070_neutral	1.0	trustworthiness	104.16348475522977	1.2416451619621967
14.0	80.49837073375988	pulse	0.0	t		31.0	male	west_asian	1.9538400318344609	neutral	070	sub-15	1.0	2.0	070_neutral	1.0	trustworthiness	104.64693023299333	
14.0	81.19834063874487	pulse	0.0	t		31.0	male	west_asian	1.9538400318344609	neutral	070	sub-15	1.0	2.0	070_neutral	1.0	trustworthiness	105.34690013797831	
14.0	81.25657041795853	fix	1.0		177	31.0	male	west_asian	1.9538400318344609	neutral	070	sub-15	1.0	2.0	070_neutral	1.0	trustworthiness	105.40512991719197	1.4999772098931317
14.0	81.8983588406445	pulse	1.0	t		31.0	male	west_asian	1.9538400318344609	neutral	070	sub-15	1.0	2.0	070_neutral	1.0	trustworthiness	106.04691833987795	
14.0	82.59834534769402	pulse	1.0	t		31.0	male	west_asian	1.9538400318344609	neutral	070	sub-15	1.0	2.0	070_neutral	1.0	trustworthiness	106.74690484692746	
14.0	82.75654762785166	rating	2.0		295	31.0	male	west_asian	1.9538400318344609	neutral	070	sub-15	1.0	2.0	070_neutral	1.0	trustworthiness	106.9051071270851	2.499959400405942
14.0	83.29832189350464	pulse	2.0	t		31.0	male	west_asian	1.9538400318344609	neutral	070	sub-15	1.0	2.0	070_neutral	1.0	trustworthiness	107.44688139273808	
14.0	83.99830568385255	pulse	2.0	t		31.0	male	west_asian	1.9538400318344609	neutral	070	sub-15	1.0	2.0	070_neutral	1.0	trustworthiness	108.14686518308599	
14.0	84.30662232204918	response	2.0	w		31.0	male	west_asian	1.9538400318344609	neutral	070	sub-15	1.0	2.0	070_neutral	1.0	trustworthiness	108.45518182128262	
14.0	84.69827558883753	pulse	2.0	t		31.0	male	west_asian	1.9538400318344609	neutral	070	sub-15	1.0	2.0	070_neutral	1.0	trustworthiness	108.84683508807097	
14.0	85.2565070282576	fix	3.0		443	31.0	male	west_asian	1.9538400318344609	neutral	070	sub-15	1.0	2.0	070_neutral	1.0	trustworthiness	109.40506652749104	3.7582199085316006
14.0	85.39827809423991	pulse	3.0	t		31.0	male	west_asian	1.9538400318344609	neutral	070	sub-15	1.0	2.0	070_neutral	1.0	trustworthiness	109.54683759347336	
14.0	86.09826611056792	pulse	3.0	t		31.0	male	west_asian	1.9538400318344609	neutral	070	sub-15	1.0	2.0	070_neutral	1.0	trustworthiness	110.24682560980136	
14.0	86.79825563617442	pulse	3.0	t		31.0	male	west_asian	1.9538400318344609	neutral	070	sub-15	1.0	2.0	070_neutral	1.0	trustworthiness	110.94681513540786	
14.0	87.49825723600975	pulse	3.0	t		31.0	male	west_asian	1.9538400318344609	neutral	070	sub-15	1.0	2.0	070_neutral	1.0	trustworthiness	111.64681673524319	
14.0	88.19822502800457	pulse	3.0	t		31.0	male	west_asian	1.9538400318344609	neutral	070	sub-15	1.0	2.0	070_neutral	1.0	trustworthiness	112.34678452723801	
14.0	88.89822391113853	pulse	3.0	t		31.0	male	west_asian	1.9538400318344609	neutral	070	sub-15	1.0	2.0	070_neutral	1.0	trustworthiness	113.04678341037197	
15.0	89.0147269367892	face	0.0		147	27.0	male	black	3.5523278949462798	smiling	042	sub-15	1.0	2.0	042_smiling	0.0		113.16328643602264	1.241688327329939
15.0	89.59820528664068	pulse	0.0	t		27.0	male	black	3.5523278949462798	smiling	042	sub-15	1.0	2.0	042_smiling	0.0		113.74676478587412	
15.0	90.25641526411914	fix	1.0		443	27.0	male	black	3.5523278949462798	smiling	042	sub-15	1.0	2.0	042_smiling	0.0		114.40497476335258	3.7582464718350366
15.0	90.29819300111285	pulse	1.0	t		27.0	male	black	3.5523278949462798	smiling	042	sub-15	1.0	2.0	042_smiling	0.0		114.44675250034629	
15.0	90.99817890445092	pulse	1.0	t		27.0	male	black	3.5523278949462798	smiling	042	sub-15	1.0	2.0	042_smiling	0.0		115.14673840368437	
15.0	91.69816812820159	pulse	1.0	t		27.0	male	black	3.5523278949462798	smiling	042	sub-15	1.0	2.0	042_smiling	0.0		115.84672762743503	
15.0	92.39815493710671	pulse	1.0	t		27.0	male	black	3.5523278949462798	smiling	042	sub-15	1.0	2.0	042_smiling	0.0		116.54671443634015	
15.0	93.0981441608576	pulse	1.0	t		27.0	male	black	3.5523278949462798	smiling	042	sub-15	1.0	2.0	042_smiling	0.0		117.24670366009104	
15.0	93.79813459203137	pulse	1.0	t		27.0	male	black	3.5523278949462798	smiling	042	sub-15	1.0	2.0	042_smiling	0.0		117.94669409126482	
16.0	94.01466173595418	face	0.0		146	21.0	male	black	2.969757262236371	neutral	137	sub-15	1.0	2.0	137_neutral	0.0		118.16322123518762	1.2416711215539635
16.0	94.49812019351361	pulse	0.0	t		21.0	male	black	2.969757262236371	neutral	137	sub-15	1.0	2.0	137_neutral	0.0		118.64667969274706	
16.0	95.19808979664276	pulse	0.0	t		21.0	male	black	2.969757262236371	neutral	137	sub-15	1.0	2.0	137_neutral	0.0		119.3466492958762	
16.0	95.25633285750814	fix	1.0		444	21.0	male	black	2.969757262236371	neutral	137	sub-15	1.0	2.0	137_neutral	0.0		119.40489235674158	3.766597913995838
16.0	95.89810467812958	pulse	1.0	t		21.0	male	black	2.969757262236371	neutral	137	sub-15	1.0	2.0	137_neutral	0.0		120.04666417736303	
16.0	96.59808001651754	pulse	1.0	t		21.0	male	black	2.969757262236371	neutral	137	sub-15	1.0	2.0	137_neutral	0.0		120.74663951575099	
16.0	97.2980882571785	pulse	1.0	t		21.0	male	black	2.969757262236371	neutral	137	sub-15	1.0	2.0	137_neutral	0.0		121.44664775641195	
16.0	97.99805936958637	pulse	1.0	t		21.0	male	black	2.969757262236371	neutral	137	sub-15	1.0	2.0	137_neutral	0.0		122.14661886881981	
16.0	98.69804889519287	pulse	1.0	t		21.0	male	black	2.969757262236371	neutral	137	sub-15	1.0	2.0	137_neutral	0.0		122.84660839442631	
17.0	99.02293077150398	face	0.0		145	31.0	female	west_asian	2.364902506963788	smiling	006	sub-15	1.0	2.0	006_smiling	0.0		123.17149027073742	1.2333121330000267
17.0	99.39803811894376	pulse	0.0	t		31.0	female	west_asian	2.364902506963788	smiling	006	sub-15	1.0	2.0	006_smiling	0.0		123.5465976181772	
17.0	100.09803851135621	pulse	0.0	t		31.0	female	west_asian	2.364902506963788	smiling	006	sub-15	1.0	2.0	006_smiling	0.0		124.24659801058965	
17.0	100.256242904504	fix	1.0		444	31.0	female	west_asian	2.364902506963788	smiling	006	sub-15	1.0	2.0	006_smiling	0.0		124.40480240373745	3.7582688091579257
17.0	100.79801384974394	pulse	1.0	t		31.0	female	west_asian	2.364902506963788	smiling	006	sub-15	1.0	2.0	006_smiling	0.0		124.94657334897738	
17.0	101.4980054883406	pulse	1.0	t		31.0	female	west_asian	2.364902506963788	smiling	006	sub-15	1.0	2.0	006_smiling	0.0		125.64656498757404	
17.0	102.19798444899698	pulse	1.0	t		31.0	female	west_asian	2.364902506963788	smiling	006	sub-15	1.0	2.0	006_smiling	0.0		126.34654394823042	
17.0	102.89797306903642	pulse	1.0	t		31.0	female	west_asian	2.364902506963788	smiling	006	sub-15	1.0	2.0	006_smiling	0.0		127.04653256826987	
17.0	103.59796319835436	pulse	1.0	t		31.0	female	west_asian	2.364902506963788	smiling	006	sub-15	1.0	2.0	006_smiling	0.0		127.7465226975878	
18.0	104.01451171366193	face	0.0		146	47.0	male	east_asian	2.171110226820533	neutral	024	sub-15	1.0	2.0	024_neutral	0.0		128.16307121289537	1.2416406341264974
18.0	104.2979515165382	pulse	0.0	t		47.0	male	east_asian	2.171110226820533	neutral	024	sub-15	1.0	2.0	024_neutral	0.0		128.44651101577165	
18.0	104.99794345699047	pulse	0.0	t		47.0	male	east_asian	2.171110226820533	neutral	024	sub-15	1.0	2.0	024_neutral	0.0		129.1465029562239	
18.0	105.25615234778843	fix	1.0		444	47.0	male	east_asian	2.171110226820533	neutral	024	sub-15	1.0	2.0	024_neutral	0.0		129.40471184702187	3.758251301526343
18.0	105.69792694548278	pulse	1.0	t		47.0	male	east_asian	2.171110226820533	neutral	024	sub-15	1.0	2.0	024_neutral	0.0		129.84648644471622	
18.0	106.39790469871627	pulse	1.0	t		47.0	male	east_asian	2.171110226820533	neutral	024	sub-15	1.0	2.0	024_neutral	0.0		130.54646419794972	
18.0	107.09790509112872	pulse	1.0	t		47.0	male	east_asian	2.171110226820533	neutral	024	sub-15	1.0	2.0	024_neutral	0.0		131.24646459036217	
18.0	107.79789220188945	pulse	1.0	t		47.0	male	east_asian	2.171110226820533	neutral	024	sub-15	1.0	2.0	024_neutral	0.0		131.9464517011229	
18.0	108.49787961450602	pulse	1.0	t		47.0	male	east_asian	2.171110226820533	neutral	024	sub-15	1.0	2.0	024_neutral	0.0		132.64643911373946	
19.0	109.01440364931477	face	0.0		146	23.0	male	white	2.6275368085953046	neutral	141	sub-15	1.0	2.0	141_neutral	1.0	dominance	133.16296314854822	1.2416653862953808
19.0	109.19786823454547	pulse	0.0	t		23.0	male	white	2.6275368085953046	neutral	141	sub-15	1.0	2.0	141_neutral	1.0	dominance	133.3464277337789	
19.0	109.89785323231627	pulse	0.0	t		23.0	male	white	2.6275368085953046	neutral	141	sub-15	1.0	2.0	141_neutral	1.0	dominance	134.0464127315497	
19.0	110.25606903561015	fix	1.0		177	23.0	male	white	2.6275368085953046	neutral	141	sub-15	1.0	2.0	141_neutral	1.0	dominance	134.4046285348436	1.4999705690675
19.0	110.5978460783358	pulse	1.0	t		23.0	male	white	2.6275368085953046	neutral	141	sub-15	1.0	2.0	141_neutral	1.0	dominance	134.74640557756925	
19.0	111.29782443528075	pulse	1.0	t		23.0	male	white	2.6275368085953046	neutral	141	sub-15	1.0	2.0	141_neutral	1.0	dominance	135.4463839345142	
19.0	111.75603960467765	rating	2.0		294	23.0	male	white	2.6275368085953046	neutral	141	sub-15	1.0	2.0	141_neutral	1.0	dominance	135.9045991039111	2.4999603059729907
19.0	111.99782573326024	pulse	2.0	t		23.0	male	white	2.6275368085953046	neutral	141	sub-15	1.0	2.0	141_neutral	1.0	dominance	136.14638523249369	
19.0	112.69782793680702	pulse	2.0	t		23.0	male	white	2.6275368085953046	neutral	141	sub-15	1.0	2.0	141_neutral	1.0	dominance	136.84638743604046	
19.0	113.3977863712746	pulse	2.0	t		23.0	male	white	2.6275368085953046	neutral	141	sub-15	1.0	2.0	141_neutral	1.0	dominance	137.54634587050805	
19.0	113.48114050749791	response	2.0	n		23.0	male	white	2.6275368085953046	neutral	141	sub-15	1.0	2.0	141_neutral	1.0	dominance	137.62970000673135	
19.0	114.09777378389117	pulse	2.0	t		23.0	male	white	2.6275368085953046	neutral	141	sub-15	1.0	2.0	141_neutral	1.0	dominance	138.2463332831246	
19.0	114.25599991065064	fix	3.0		444	23.0	male	white	2.6275368085953046	neutral	141	sub-15	1.0	2.0	141_neutral	1.0	dominance	138.4045594098841	3.7666015362644885
19.0	114.7977678373336	pulse	3.0	t		23.0	male	white	2.6275368085953046	neutral	141	sub-15	1.0	2.0	141_neutral	1.0	dominance	138.94632733656704	
19.0	115.49776279634307	pulse	3.0	t		23.0	male	white	2.6275368085953046	neutral	141	sub-15	1.0	2.0	141_neutral	1.0	dominance	139.6463222955765	
19.0	116.19775805720815	pulse	3.0	t		23.0	male	white	2.6275368085953046	neutral	141	sub-15	1.0	2.0	141_neutral	1.0	dominance	140.3463175564416	
19.0	116.89773460301899	pulse	3.0	t		23.0	male	white	2.6275368085953046	neutral	141	sub-15	1.0	2.0	141_neutral	1.0	dominance	141.04629410225243	
19.0	117.59772111006828	pulse	3.0	t		23.0	male	white	2.6275368085953046	neutral	141	sub-15	1.0	2.0	141_neutral	1.0	dominance	141.74628060930172	
20.0	118.02260144691513	face	0.0		145	36.0	female	white	2.7548746518105847	smiling	011	sub-15	1.0	2.0	011_smiling	0.0		142.17116094614858	1.2333094162986526
20.0	118.29771788021208	pulse	0.0	t		36.0	female	white	2.7548746518105847	smiling	011	sub-15	1.0	2.0	011_smiling	0.0		142.44627737944552	
20.0	118.99769050189843	pulse	0.0	t		36.0	female	white	2.7548746518105847	smiling	011	sub-15	1.0	2.0	011_smiling	0.0		143.14625000113188	
20.0	119.25591086321378	fix	1.0		1185	36.0	female	white	2.7548746518105847	smiling	011	sub-15	1.0	2.0	011_smiling	0.0		143.40447036244723	10.008150406252525
20.0	119.69768576276374	pulse	1.0	t		36.0	female	white	2.7548746518105847	smiling	011	sub-15	1.0	2.0	011_smiling	0.0		143.84624526199718	
20.0	120.39767981620594	pulse	1.0	t		36.0	female	white	2.7548746518105847	smiling	011	sub-15	1.0	2.0	011_smiling	0.0		144.54623931543938	
20.0	121.09765938057399	pulse	1.0	t		36.0	female	white	2.7548746518105847	smiling	011	sub-15	1.0	2.0	011_smiling	0.0		145.24621887980743	
20.0	121.79765101917042	pulse	1.0	t		36.0	female	white	2.7548746518105847	smiling	011	sub-15	1.0	2.0	011_smiling	0.0		145.94621051840386	
20.0	122.49763239467279	pulse	1.0	t		36.0	female	white	2.7548746518105847	smiling	011	sub-15	1.0	2.0	011_smiling	0.0		146.64619189390623	
20.0	123.19761859986625	pulse	1.0	t		36.0	female	white	2.7548746518105847	smiling	011	sub-15	1.0	2.0	011_smiling	0.0		147.3461780990997	
20.0	123.89761144588579	pulse	1.0	t		36.0	female	white	2.7548746518105847	smiling	011	sub-15	1.0	2.0	011_smiling	0.0		148.04617094511923	
20.0	124.59759704736803	pulse	1.0	t		36.0	female	white	2.7548746518105847	smiling	011	sub-15	1.0	2.0	011_smiling	0.0		148.74615654660147	
20.0	125.29757963029306	pulse	1.0	t		36.0	female	white	2.7548746518105847	smiling	011	sub-15	1.0	2.0	011_smiling	0.0		149.4461391295265	
20.0	125.99757398559109	pulse	1.0	t		36.0	female	white	2.7548746518105847	smiling	011	sub-15	1.0	2.0	011_smiling	0.0		150.14613348482453	
20.0	126.69755807779484	pulse	1.0	t		36.0	female	white	2.7548746518105847	smiling	011	sub-15	1.0	2.0	011_smiling	0.0		150.84611757702828	
20.0	127.39755182938143	pulse	1.0	t		36.0	female	white	2.7548746518105847	smiling	011	sub-15	1.0	2.0	011_smiling	0.0		151.54611132861487	
20.0	128.09753833643072	pulse	1.0	t		36.0	female	white	2.7548746518105847	smiling	011	sub-15	1.0	2.0	011_smiling	0.0		152.24609783566416	
20.0	128.79752544719167	pulse	1.0	t		36.0	female	white	2.7548746518105847	smiling	011	sub-15	1.0	2.0	011_smiling	0.0		152.94608494642512	
21.0	129.2640612694663	face	0.0		146	23.0	male	white	2.6275368085953046	smiling	141	sub-15	1.0	2.0	141_smiling	0.0		153.41262076869975	1.2416569343351966
21.0	129.49749233361945	pulse	0.0	t		23.0	male	white	2.6275368085953046	smiling	141	sub-15	1.0	2.0	141_smiling	0.0		153.6460518328529	
21.0	130.19748668891748	pulse	0.0	t		23.0	male	white	2.6275368085953046	smiling	141	sub-15	1.0	2.0	141_smiling	0.0		154.34604618815092	
21.0	130.5057182038015	fix	1.0		444	23.0	male	white	2.6275368085953046	smiling	141	sub-15	1.0	2.0	141_smiling	0.0		154.65427770303495	3.7666033473988136
21.0	130.8974940240114	pulse	1.0	t		23.0	male	white	2.6275368085953046	smiling	141	sub-15	1.0	2.0	141_smiling	0.0		155.04605352324484	
21.0	131.59747570136915	pulse	1.0	t		23.0	male	white	2.6275368085953046	smiling	141	sub-15	1.0	2.0	141_smiling	0.0		155.7460352006026	
21.0	132.29746643439876	pulse	1.0	t		23.0	male	white	2.6275368085953046	smiling	141	sub-15	1.0	2.0	141_smiling	0.0		156.4460259336322	
21.0	132.99747195835835	pulse	1.0	t		23.0	male	white	2.6275368085953046	smiling	141	sub-15	1.0	2.0	141_smiling	0.0		157.1460314575918	
21.0	133.69744397633326	pulse	1.0	t		23.0	male	white	2.6275368085953046	smiling	141	sub-15	1.0	2.0	141_smiling	0.0		157.8460034755667	
22.0	134.27232155120032	face	0.0		145	19.0	female	white	4.298846000795861	neutral	100	sub-15	1.0	2.0	100_neutral	0.0		158.42088105043376	1.2333054921741677
22.0	134.39743289822832	pulse	0.0	t		19.0	female	white	4.298846000795861	neutral	100	sub-15	1.0	2.0	100_neutral	0.0		158.54599239746176	
22.0	135.09741276445197	pulse	0.0	t		19.0	female	white	4.298846000795861	neutral	100	sub-15	1.0	2.0	100_neutral	0.0		159.24597226368542	
22.0	135.5056270433745	fix	1.0		444	19.0	female	white	4.298846000795861	neutral	100	sub-15	1.0	2.0	100_neutral	0.0		159.65418654260793	3.7583572528835703
22.0	135.79741104387426	pulse	1.0	t		19.0	female	white	4.298846000795861	neutral	100	sub-15	1.0	2.0	100_neutral	0.0		159.9459705431077	
22.0	136.49739845649083	pulse	1.0	t		19.0	female	white	4.298846000795861	neutral	100	sub-15	1.0	2.0	100_neutral	0.0		160.64595795572427	
22.0	137.19737832271448	pulse	1.0	t		19.0	female	white	4.298846000795861	neutral	100	sub-15	1.0	2.0	100_neutral	0.0		161.34593782194793	
22.0	137.89736784832098	pulse	1.0	t		19.0	female	white	4.298846000795861	neutral	100	sub-15	1.0	2.0	100_neutral	0.0		162.04592734755443	
22.0	138.59735767578331	pulse	1.0	t		19.0	female	white	4.298846000795861	neutral	100	sub-15	1.0	2.0	100_neutral	0.0		162.74591717501676	
23.0	139.26398429625806	face	0.0		146	25.0	female	black	3.858336649423	neutral	126	sub-15	1.0	2.0	126_neutral	0.0		163.4125437954915	1.241560642361037
23.0	139.29734931437997	pulse	0.0	t		25.0	female	black	3.858336649423	neutral	126	sub-15	1.0	2.0	126_neutral	0.0		163.4459088136134	
23.0	139.9973315954494	pulse	0.0	t		25.0	female	black	3.858336649423	neutral	126	sub-15	1.0	2.0	126_neutral	0.0		164.14589109468284	
23.0	140.5055449386191	fix	1.0		443	25.0	female	black	3.858336649423	neutral	126	sub-15	1.0	2.0	126_neutral	0.0		164.65410443785254	3.758255225650828
23.0	140.6973244414687	pulse	1.0	t		25.0	female	black	3.858336649423	neutral	126	sub-15	1.0	2.0	126_neutral	0.0		164.84588394070215	
23.0	141.3973064206823	pulse	1.0	t		25.0	female	black	3.858336649423	neutral	126	sub-15	1.0	2.0	126_neutral	0.0		165.54586591991574	
23.0	142.0972944370103	pulse	1.0	t		25.0	female	black	3.858336649423	neutral	126	sub-15	1.0	2.0	126_neutral	0.0		166.24585393624375	
23.0	142.79728456632847	pulse	1.0	t		25.0	female	black	3.858336649423	neutral	126	sub-15	1.0	2.0	126_neutral	0.0		166.94584406556191	
23.0	143.49727831791506	pulse	1.0	t		25.0	female	black	3.858336649423	neutral	126	sub-15	1.0	2.0	126_neutral	0.0		167.6458378171485	
23.0	144.19725335444718	pulse	1.0	t		25.0	female	black	3.858336649423	neutral	126	sub-15	1.0	2.0	126_neutral	0.0		168.34581285368063	
24.0	144.26380016426992	face	0.0		147	32.0	male	white	2.389176283326701	smiling	092	sub-15	1.0	2.0	092_smiling	0.0		168.41235966350337	1.2416596510365707
24.0	144.8972489171681	pulse	0.0	t		32.0	male	white	2.389176283326701	smiling	092	sub-15	1.0	2.0	092_smiling	0.0		169.04580841640154	
24.0	145.5054598153065	fix	1.0		443	32.0	male	white	2.389176283326701	smiling	092	sub-15	1.0	2.0	092_smiling	0.0		169.65401931453994	3.7583403489634293
24.0	145.5972414613318	pulse	1.0	t		32.0	male	white	2.389176283326701	smiling	092	sub-15	1.0	2.0	092_smiling	0.0		169.74580096056525	
24.0	146.297223742401	pulse	1.0	t		32.0	male	white	2.389176283326701	smiling	092	sub-15	1.0	2.0	092_smiling	0.0		170.44578324163444	
24.0	146.99722715337066	pulse	1.0	t		32.0	male	white	2.389176283326701	smiling	092	sub-15	1.0	2.0	092_smiling	0.0		171.1457866526041	
24.0	147.69719041752978	pulse	1.0	t		32.0	male	white	2.389176283326701	smiling	092	sub-15	1.0	2.0	092_smiling	0.0		171.84574991676322	
24.0	148.39718748952941	pulse	1.0	t		32.0	male	white	2.389176283326701	smiling	092	sub-15	1.0	2.0	092_smiling	0.0		172.54574698876286	
24.0	149.097169468743	pulse	1.0	t		32.0	male	white	2.389176283326701	smiling	092	sub-15	1.0	2.0	092_smiling	0.0		173.24572896797645	
25.0	149.26380016426992	face	0.0		147	22.0	female	white	4.614007162753682	neutral	009	sub-15	1.0	2.0	009_neutral	0.0		173.41235966350337	1.2499045381289307
25.0	149.79716563517536	pulse	0.0	t		22.0	female	white	4.614007162753682	neutral	009	sub-15	1.0	2.0	009_neutral	0.0		173.9457251344088	
25.0	150.49715033109032	pulse	0.0	t		22.0	female	white	4.614007162753682	neutral	009	sub-15	1.0	2.0	009_neutral	0.0		174.64570983032377	
25.0	150.51370470239885	fix	1.0		443	22.0	female	white	4.614007162753682	neutral	009	sub-15	1.0	2.0	009_neutral	0.0		174.6622642016323	3.758266998023828
25.0	151.1972681453774	pulse	1.0	t		22.0	female	white	4.614007162753682	neutral	009	sub-15	1.0	2.0	009_neutral	0.0		175.34582764461084	
25.0	151.897118213642	pulse	1.0	t		22.0	female	white	4.614007162753682	neutral	009	sub-15	1.0	2.0	009_neutral	0.0		176.04567771287543	
25.0	152.59711105966153	pulse	1.0	t		22.0	female	white	4.614007162753682	neutral	009	sub-15	1.0	2.0	009_neutral	0.0		176.74567055889497	
25.0	153.29710088712363	pulse	1.0	t		22.0	female	white	4.614007162753682	neutral	009	sub-15	1.0	2.0	009_neutral	0.0		177.44566038635708	
25.0	153.9970879978846	pulse	1.0	t		22.0	female	white	4.614007162753682	neutral	009	sub-15	1.0	2.0	009_neutral	0.0		178.14564749711803	
26.0	154.27197170042268	face	0.0		145	22.0	female	west_asian	3.8205332272184642	smiling	066	sub-15	1.0	2.0	066_smiling	1.0	dominance	178.42053119965612	1.233320886815818
26.0	154.69707661792404	pulse	0.0	t		22.0	female	west_asian	3.8205332272184642	smiling	066	sub-15	1.0	2.0	066_smiling	1.0	dominance	178.84563611715748	
26.0	155.39706463425205	pulse	0.0	t		22.0	female	west_asian	3.8205332272184642	smiling	066	sub-15	1.0	2.0	066_smiling	1.0	dominance	179.5456241334855	
26.0	155.5052925872385	fix	1.0		177	22.0	female	west_asian	3.8205332272184642	smiling	066	sub-15	1.0	2.0	066_smiling	1.0	dominance	179.65385208647194	1.499978115460408
26.0	156.09706291367434	pulse	1.0	t		22.0	female	west_asian	3.8205332272184642	smiling	066	sub-15	1.0	2.0	066_smiling	1.0	dominance	180.24562241290778	
26.0	156.79704217618655	pulse	1.0	t		22.0	female	west_asian	3.8205332272184642	smiling	066	sub-15	1.0	2.0	066_smiling	1.0	dominance	180.94560167542	
26.0	157.0052707026989	rating	2.0		295	22.0	female	west_asian	3.8205332272184642	smiling	066	sub-15	1.0	2.0	066_smiling	1.0	dominance	181.15383020193235	2.499951854013034
26.0	157.49704317231044	pulse	2.0	t		22.0	female	west_asian	3.8205332272184642	smiling	066	sub-15	1.0	2.0	066_smiling	1.0	dominance	181.64560267154388	
26.0	158.1970191144096	pulse	2.0	t		22.0	female	west_asian	3.8205332272184642	smiling	066	sub-15	1.0	2.0	066_smiling	1.0	dominance	182.34557861364306	
26.0	158.68036165937338	response	2.0	b		22.0	female	west_asian	3.8205332272184642	smiling	066	sub-15	1.0	2.0	066_smiling	1.0	dominance	182.82892115860682	
26.0	158.89698298228018	pulse	2.0	t		22.0	female	west_asian	3.8205332272184642	smiling	066	sub-15	1.0	2.0	066_smiling	1.0	dominance	183.04554248151362	
26.0	159.50522255671194	fix	3.0		443	22.0	female	west_asian	3.8205332272184642	smiling	066	sub-15	1.0	2.0	066_smiling	1.0	dominance	183.65378205594538	3.766577991518261
26.0	159.596997863767	pulse	3.0	t		22.0	female	west_asian	3.8205332272184642	smiling	066	sub-15	1.0	2.0	066_smiling	1.0	dominance	183.74555736300044	
26.0	160.29697471143345	pulse	3.0	t		22.0	female	west_asian	3.8205332272184642	smiling	066	sub-15	1.0	2.0	066_smiling	1.0	dominance	184.4455342106669	
26.0	160.99696574631866	pulse	3.0	t		22.0	female	west_asian	3.8205332272184642	smiling	066	sub-15	1.0	2.0	066_smiling	1.0	dominance	185.1455252455521	
26.0	161.6969543663581	pulse	3.0	t		22.0	female	west_asian	3.8205332272184642	smiling	066	sub-15	1.0	2.0	066_smiling	1.0	dominance	185.84551386559156	
26.0	162.39694660866598	pulse	3.0	t		22.0	female	west_asian	3.8205332272184642	smiling	066	sub-15	1.0	2.0	066_smiling	1.0	dominance	186.54550610789943	
26.0	163.09692919159102	pulse	3.0	t		22.0	female	west_asian	3.8205332272184642	smiling	066	sub-15	1.0	2.0	066_smiling	1.0	dominance	187.24548869082446	
27.0	163.2718005482302	face	0.0		146	20.0	male	black	3.1070433744528456	smiling	082	sub-15	1.0	2.0	082_smiling	0.0		187.42036004746365	1.2416632733054485
27.0	163.79692535802337	pulse	0.0	t		20.0	male	black	3.1070433744528456	smiling	082	sub-15	1.0	2.0	082_smiling	0.0		187.94548485725682	
27.0	164.49691156321705	pulse	0.0	t		20.0	male	black	3.1070433744528456	smiling	082	sub-15	1.0	2.0	082_smiling	0.0		188.6454710624505	
27.0	164.51346382153565	fix	1.0		443	20.0	male	black	3.1070433744528456	smiling	082	sub-15	1.0	2.0	082_smiling	0.0		188.6620233207691	3.7499360820515903
27.0	165.19689535356497	pulse	1.0	t		20.0	male	black	3.1070433744528456	smiling	082	sub-15	1.0	2.0	082_smiling	0.0		189.3454548527984	
27.0	165.8968836717488	pulse	1.0	t		20.0	male	black	3.1070433744528456	smiling	082	sub-15	1.0	2.0	082_smiling	0.0		190.04544317098225	
27.0	166.59686957508666	pulse	1.0	t		20.0	male	black	3.1070433744528456	smiling	082	sub-15	1.0	2.0	082_smiling	0.0		190.7454290743201	
27.0	167.29686151553892	pulse	1.0	t		20.0	male	black	3.1070433744528456	smiling	082	sub-15	1.0	2.0	082_smiling	0.0		191.44542101477236	
27.0	167.99684651330972	pulse	1.0	t		20.0	male	black	3.1070433744528456	smiling	082	sub-15	1.0	2.0	082_smiling	0.0		192.14540601254316	
28.0	168.26339990358724	face	0.0		146	40.0	male	black	2.408674890569041	neutral	061	sub-15	1.0	2.0	061_neutral	0.0		192.41195940282068	1.2416469730965218
28.0	168.6968426797423	pulse	0.0	t		40.0	male	black	2.408674890569041	neutral	061	sub-15	1.0	2.0	061_neutral	0.0		192.84540217897575	
28.0	169.39682103668724	pulse	0.0	t		40.0	male	black	2.408674890569041	neutral	061	sub-15	1.0	2.0	061_neutral	0.0		193.54538053592069	
28.0	169.50504687668376	fix	1.0		444	40.0	male	black	2.408674890569041	neutral	061	sub-15	1.0	2.0	061_neutral	0.0		193.6536063759172	3.7666009325530467
28.0	170.09681056229374	pulse	1.0	t		40.0	male	black	2.408674890569041	neutral	061	sub-15	1.0	2.0	061_neutral	0.0		194.24537006152718	
28.0	170.79679888047735	pulse	1.0	t		40.0	male	black	2.408674890569041	neutral	061	sub-15	1.0	2.0	061_neutral	0.0		194.9453583797108	
28.0	171.49679383948705	pulse	1.0	t		40.0	male	black	2.408674890569041	neutral	061	sub-15	1.0	2.0	061_neutral	0.0		195.6453533387205	
28.0	172.19677310199904	pulse	1.0	t		40.0	male	black	2.408674890569041	neutral	061	sub-15	1.0	2.0	061_neutral	0.0		196.34533260123249	
28.0	172.8967605146156	pulse	1.0	t		40.0	male	black	2.408674890569041	neutral	061	sub-15	1.0	2.0	061_neutral	0.0		197.04532001384905	
29.0	173.2716478092368	face	0.0		145	19.0	male	white	2.243931555909272	smiling	130	sub-15	1.0	2.0	130_smiling	0.0		197.42020730847025	1.2333100200100944
29.0	173.59675154950082	pulse	0.0	t		19.0	male	white	2.243931555909272	smiling	130	sub-15	1.0	2.0	130_smiling	0.0		197.74531104873427	
29.0	174.29672990644576	pulse	0.0	t		19.0	male	white	2.243931555909272	smiling	130	sub-15	1.0	2.0	130_smiling	0.0		198.4452894056792	
29.0	174.5049578292469	fix	1.0		444	19.0	male	white	2.243931555909272	smiling	130	sub-15	1.0	2.0	130_smiling	0.0		198.65351732848035	3.758246471834809
29.0	174.99672546916668	pulse	1.0	t		19.0	male	white	2.243931555909272	smiling	130	sub-15	1.0	2.0	130_smiling	0.0		199.14528496840012	
29.0	175.6967122780718	pulse	1.0	t		19.0	male	white	2.243931555909272	smiling	130	sub-15	1.0	2.0	130_smiling	0.0		199.84527177730524	
29.0	176.39670210553413	pulse	1.0	t		19.0	male	white	2.243931555909272	smiling	130	sub-15	1.0	2.0	130_smiling	0.0		200.54526160476757	
29.0	177.09668740516076	pulse	1.0	t		19.0	male	white	2.243931555909272	smiling	130	sub-15	1.0	2.0	130_smiling	0.0		201.2452469043942	
29.0	177.79670349407047	pulse	1.0	t		19.0	male	white	2.243931555909272	smiling	130	sub-15	1.0	2.0	130_smiling	0.0		201.9452629933039	
30.0	178.26320430108171	face	0.0		146	22.0	male	black	2.767608436132113	neutral	044	sub-15	1.0	2.0	044_neutral	0.0		202.41176380031516	1.2416650844395463
30.0	178.4966670600852	pulse	0.0	t		22.0	male	black	2.767608436132113	neutral	044	sub-15	1.0	2.0	044_neutral	0.0		202.64522655931864	
30.0	179.19664270032877	pulse	0.0	t		22.0	male	black	2.767608436132113	neutral	044	sub-15	1.0	2.0	044_neutral	0.0		203.3452021995622	
30.0	179.50486938552126	fix	1.0		444	22.0	male	black	2.767608436132113	neutral	044	sub-15	1.0	2.0	044_neutral	0.0		203.6534288847547	3.7582624701881286
30.0	179.89665395954717	pulse	1.0	t		22.0	male	black	2.767608436132113	neutral	044	sub-15	1.0	2.0	044_neutral	0.0		204.0452134587806	
30.0	180.59662839236762	pulse	1.0	t		22.0	male	black	2.767608436132113	neutral	044	sub-15	1.0	2.0	044_neutral	0.0		204.74518789160106	
30.0	181.29661912539723	pulse	1.0	t		22.0	male	black	2.767608436132113	neutral	044	sub-15	1.0	2.0	044_neutral	0.0		205.44517862463067	
30.0	181.99659627491928	pulse	1.0	t		22.0	male	black	2.767608436132113	neutral	044	sub-15	1.0	2.0	044_neutral	0.0		206.14515577415273	
30.0	182.6965918376402	pulse	1.0	t		22.0	male	black	2.767608436132113	neutral	044	sub-15	1.0	2.0	044_neutral	0.0		206.84515133687364	
31.0	183.2631318557094	face	0.0		146	22.0	female	west_asian	3.8205332272184642	neutral	066	sub-15	1.0	2.0	066_neutral	0.0		207.41169135494283	1.2416596510365707
31.0	183.3965931356197	pulse	0.0	t		22.0	female	west_asian	3.8205332272184642	neutral	066	sub-15	1.0	2.0	066_neutral	0.0		207.54515263485314	
31.0	184.0965663610175	pulse	0.0	t		22.0	female	west_asian	3.8205332272184642	neutral	066	sub-15	1.0	2.0	066_neutral	0.0		208.24512586025094	
31.0	184.50479150674596	fix	1.0		444	22.0	female	west_asian	3.8205332272184642	neutral	066	sub-15	1.0	2.0	066_neutral	0.0		208.6533510059794	3.758262772043736
31.0	184.79657490353452	pulse	1.0	t		22.0	female	west_asian	3.8205332272184642	neutral	066	sub-15	1.0	2.0	066_neutral	0.0		208.94513440276796	
31.0	185.4965538641909	pulse	1.0	t		22.0	female	west_asian	3.8205332272184642	neutral	066	sub-15	1.0	2.0	066_neutral	0.0		209.64511336342434	
31.0	186.19654218237451	pulse	1.0	t		22.0	female	west_asian	3.8205332272184642	neutral	066	sub-15	1.0	2.0	066_neutral	0.0		210.34510168160796	
31.0	186.89653050055813	pulse	1.0	t		22.0	female	west_asian	3.8205332272184642	neutral	066	sub-15	1.0	2.0	066_neutral	0.0		211.04508999979157	
31.0	187.5965194224534	pulse	1.0	t		22.0	female	west_asian	3.8205332272184642	neutral	066	sub-15	1.0	2.0	066_neutral	0.0		211.74507892168685	
32.0	188.2630542787897	face	0.0		146	19.0	male	white	3.2522881018702745	smiling	018	sub-15	1.0	2.0	018_smiling	0.0		212.41161377802314	1.241644860106362
32.0	188.29653128538303	pulse	0.0	t		19.0	male	white	3.2522881018702745	smiling	018	sub-15	1.0	2.0	018_smiling	0.0		212.44509078461647	
32.0	188.99648881428357	pulse	0.0	t		19.0	male	white	3.2522881018702745	smiling	018	sub-15	1.0	2.0	018_smiling	0.0		213.145048313517	
32.0	189.50469913889606	fix	1.0		443	19.0	male	white	3.2522881018702745	smiling	018	sub-15	1.0	2.0	018_smiling	0.0		213.6532586381295	3.758242849566386
32.0	189.69650912917336	pulse	1.0	t		19.0	male	white	3.2522881018702745	smiling	018	sub-15	1.0	2.0	018_smiling	0.0		213.8450686284068	
32.0	190.39646997848672	pulse	1.0	t		19.0	male	white	3.2522881018702745	smiling	018	sub-15	1.0	2.0	018_smiling	0.0		214.54502947772016	
32.0	191.09645075027743	pulse	1.0	t		19.0	male	white	3.2522881018702745	smiling	018	sub-15	1.0	2.0	018_smiling	0.0		215.24501024951087	
32.0	191.79643665361527	pulse	1.0	t		19.0	male	white	3.2522881018702745	smiling	018	sub-15	1.0	2.0	018_smiling	0.0		215.94499615284872	
32.0	192.49642255695335	pulse	1.0	t		19.0	male	white	3.2522881018702745	smiling	018	sub-15	1.0	2.0	018_smiling	0.0		216.6449820561868	
32.0	193.19640031018685	pulse	1.0	t		19.0	male	white	3.2522881018702745	smiling	018	sub-15	1.0	2.0	018_smiling	0.0		217.3449598094203	
33.0	193.26294198846244	face	0.0		147	25.0	female	west_asian	2.6756864305610826	smiling	064	sub-15	1.0	2.0	064_smiling	0.0		217.4115014876959	1.2416684048525894
33.0	193.89639406177344	pulse	0.0	t		25.0	female	west_asian	2.6756864305610826	smiling	064	sub-15	1.0	2.0	064_smiling	0.0		218.04495356100688	
33.0	194.50461039331503	fix	1.0		443	25.0	female	west_asian	2.6756864305610826	smiling	064	sub-15	1.0	2.0	064_smiling	0.0		218.65316989254848	3.758279675963877
33.0	194.5963890207829	pulse	1.0	t		25.0	female	west_asian	2.6756864305610826	smiling	064	sub-15	1.0	2.0	064_smiling	0.0		218.74494852001635	
33.0	195.29636013319077	pulse	1.0	t		25.0	female	west_asian	2.6756864305610826	smiling	064	sub-15	1.0	2.0	064_smiling	0.0		219.44491963242422	
33.0	195.99636112931466	pulse	1.0	t		25.0	female	west_asian	2.6756864305610826	smiling	064	sub-15	1.0	2.0	064_smiling	0.0		220.1449206285481	
33.0	196.69633767512528	pulse	1.0	t		25.0	female	west_asian	2.6756864305610826	smiling	064	sub-15	1.0	2.0	064_smiling	0.0		220.84489717435872	
33.0	197.39632991743338	pulse	1.0	t		25.0	female	west_asian	2.6756864305610826	smiling	064	sub-15	1.0	2.0	064_smiling	0.0		221.54488941666682	
33.0	198.09636109912913	pulse	1.0	t		25.0	female	west_asian	2.6756864305610826	smiling	064	sub-15	1.0	2.0	064_smiling	0.0		222.24492059836257	
34.0	198.2628900692789	face	0.0		147	30.0	female	black	2.7345801830481498	neutral	062	sub-15	1.0	2.0	062_neutral	0.0		222.41144956851235	1.2499688333971335
34.0	198.79634760617841	pulse	0.0	t		30.0	female	black	2.7345801830481498	neutral	062	sub-15	1.0	2.0	062_neutral	0.0		222.94490710541186	
34.0	199.49629698497438	pulse	0.0	t		30.0	female	black	2.7345801830481498	neutral	062	sub-15	1.0	2.0	062_neutral	0.0		223.64485648420782	
34.0	199.51285890267604	fix	1.0		443	30.0	female	black	2.7345801830481498	neutral	062	sub-15	1.0	2.0	062_neutral	0.0		223.6614184019095	3.749911631738314
34.0	200.19678517622788	pulse	1.0	t		30.0	female	black	2.7345801830481498	neutral	062	sub-15	1.0	2.0	062_neutral	0.0		224.34534467546132	
34.0	200.89628569557067	pulse	1.0	t		30.0	female	black	2.7345801830481498	neutral	062	sub-15	1.0	2.0	062_neutral	0.0		225.0448451948041	
34.0	201.59627371189868	pulse	1.0	t		30.0	female	black	2.7345801830481498	neutral	062	sub-15	1.0	2.0	062_neutral	0.0		225.74483321113212	
34.0	202.29625146513217	pulse	1.0	t		30.0	female	black	2.7345801830481498	neutral	062	sub-15	1.0	2.0	062_neutral	0.0		226.44481096436562	
34.0	202.99624521671876	pulse	1.0	t		30.0	female	black	2.7345801830481498	neutral	062	sub-15	1.0	2.0	062_neutral	0.0		227.1448047159522	
35.0	203.26277053441436	face	0.0		146	34.0	male	white	2.651014723438122	neutral	121	sub-15	1.0	2.0	121_neutral	0.0		227.4113300336478	1.241653915777988
35.0	203.6962383645939	pulse	0.0	t		34.0	male	white	2.651014723438122	neutral	121	sub-15	1.0	2.0	121_neutral	0.0		227.84479786382735	
35.0	204.3962040435988	pulse	0.0	t		34.0	male	white	2.651014723438122	neutral	121	sub-15	1.0	2.0	121_neutral	0.0		228.54476354283224	
35.0	204.50442445019235	fix	1.0		444	34.0	male	white	2.651014723438122	neutral	121	sub-15	1.0	2.0	121_neutral	0.0		228.6529839494258	3.758341254530478
35.0	205.09619447477257	pulse	1.0	t		34.0	male	white	2.651014723438122	neutral	121	sub-15	1.0	2.0	121_neutral	0.0		229.24475397400602	
35.0	205.7961843022349	pulse	1.0	t		34.0	male	white	2.651014723438122	neutral	121	sub-15	1.0	2.0	121_neutral	0.0		229.94474380146835	
35.0	206.4961662814485	pulse	1.0	t		34.0	male	white	2.651014723438122	neutral	121	sub-15	1.0	2.0	121_neutral	0.0		230.64472578068194	
35.0	207.19616093860213	pulse	1.0	t		34.0	male	white	2.651014723438122	neutral	121	sub-15	1.0	2.0	121_neutral	0.0		231.34472043783558	
35.0	207.89614593637293	pulse	1.0	t		34.0	male	white	2.651014723438122	neutral	121	sub-15	1.0	2.0	121_neutral	0.0		232.04470543560637	
36.0	208.26276570472282	face	0.0		146	28.0	female	white	5.676880222841227	neutral	124	sub-15	1.0	2.0	124_neutral	0.0		232.41132520395627	1.2415835833955953
36.0	208.596131839711	pulse	0.0	t		28.0	female	white	5.676880222841227	neutral	124	sub-15	1.0	2.0	124_neutral	0.0		232.74469133894445	
36.0	209.29611351706876	pulse	0.0	t		28.0	female	white	5.676880222841227	neutral	124	sub-15	1.0	2.0	124_neutral	0.0		233.4446730163022	
36.0	209.50434928811842	fix	1.0		444	28.0	female	white	5.676880222841227	neutral	124	sub-15	1.0	2.0	124_neutral	0.0		233.65290878735186	3.758276355551061
36.0	209.99610968350112	pulse	1.0	t		28.0	female	white	5.676880222841227	neutral	124	sub-15	1.0	2.0	124_neutral	0.0		234.14466918273456	
36.0	210.6960943794163	pulse	1.0	t		28.0	female	white	5.676880222841227	neutral	124	sub-15	1.0	2.0	124_neutral	0.0		234.84465387864975	
36.0	211.39609597925164	pulse	1.0	t		28.0	female	white	5.676880222841227	neutral	124	sub-15	1.0	2.0	124_neutral	0.0		235.54465547848508	
36.0	212.09608610856958	pulse	1.0	t		28.0	female	white	5.676880222841227	neutral	124	sub-15	1.0	2.0	124_neutral	0.0		236.24464560780302	
36.0	212.79606808778317	pulse	1.0	t		28.0	female	white	5.676880222841227	neutral	124	sub-15	1.0	2.0	124_neutral	0.0		236.9446275870166	
37.0	213.26262564366948	face	0.0		146	28.0	female	white	5.676880222841227	smiling	124	sub-15	1.0	2.0	124_smiling	0.0		237.41118514290292	1.2416388229921722
37.0	213.49605851895694	pulse	0.0	t		28.0	female	white	5.676880222841227	smiling	124	sub-15	1.0	2.0	124_smiling	0.0		237.64461801819039	
37.0	214.1960432148719	pulse	0.0	t		28.0	female	white	5.676880222841227	smiling	124	sub-15	1.0	2.0	124_smiling	0.0		238.34460271410535	
37.0	214.50426446666165	fix	1.0		444	28.0	female	white	5.676880222841227	smiling	124	sub-15	1.0	2.0	124_smiling	0.0		238.6528239658951	3.7582887316355027
37.0	214.89604330542875	pulse	1.0	t		28.0	female	white	5.676880222841227	smiling	124	sub-15	1.0	2.0	124_smiling	0.0		239.0446028046622	
37.0	215.59602377536385	pulse	1.0	t		28.0	female	white	5.676880222841227	smiling	124	sub-15	1.0	2.0	124_smiling	0.0		239.7445832745973	
37.0	216.29599307663716	pulse	1.0	t		28.0	female	white	5.676880222841227	smiling	124	sub-15	1.0	2.0	124_smiling	0.0		240.4445525758706	
37.0	216.99599890245258	pulse	1.0	t		28.0	female	white	5.676880222841227	smiling	124	sub-15	1.0	2.0	124_smiling	0.0		241.14455840168603	
37.0	217.69598631506915	pulse	1.0	t		28.0	female	white	5.676880222841227	smiling	124	sub-15	1.0	2.0	124_smiling	0.0		241.8445458143026	
38.0	218.26255319829716	face	0.0		146	24.0	female	east_asian	2.9076800636689217	smiling	034	sub-15	1.0	2.0	034_smiling	1.0	trustworthiness	242.4111126975306	1.2416231264946873
38.0	218.3960102522276	pulse	0.0	t		24.0	female	east_asian	2.9076800636689217	smiling	034	sub-15	1.0	2.0	034_smiling	1.0	trustworthiness	242.54456975146104	
38.0	219.0959599328794	pulse	0.0	t		24.0	female	east_asian	2.9076800636689217	smiling	034	sub-15	1.0	2.0	034_smiling	1.0	trustworthiness	243.24451943211284	
38.0	219.50417632479184	fix	1.0		177	24.0	female	east_asian	2.9076800636689217	smiling	034	sub-15	1.0	2.0	034_smiling	1.0	trustworthiness	243.65273582402529	1.4999766061819173
38.0	219.79595368446599	pulse	1.0	t		24.0	female	east_asian	2.9076800636689217	smiling	034	sub-15	1.0	2.0	034_smiling	1.0	trustworthiness	243.94451318369943	
38.0	220.4959389840924	pulse	1.0	t		24.0	female	east_asian	2.9076800636689217	smiling	034	sub-15	1.0	2.0	034_smiling	1.0	trustworthiness	244.64449848332583	
38.0	221.00415293097376	rating	2.0		294	24.0	female	east_asian	2.9076800636689217	smiling	034	sub-15	1.0	2.0	034_smiling	1.0	trustworthiness	245.1527124302072	2.4999551744258497
38.0	221.19593333939042	pulse	2.0	t		24.0	female	east_asian	2.9076800636689217	smiling	034	sub-15	1.0	2.0	034_smiling	1.0	trustworthiness	245.34449283862386	
38.0	221.89591833716122	pulse	2.0	t		24.0	female	east_asian	2.9076800636689217	smiling	034	sub-15	1.0	2.0	034_smiling	1.0	trustworthiness	246.04447783639466	
38.0	222.59590182565353	pulse	2.0	t		24.0	female	east_asian	2.9076800636689217	smiling	034	sub-15	1.0	2.0	034_smiling	1.0	trustworthiness	246.74446132488697	
38.0	222.82392725760155	response	2.0	g		24.0	female	east_asian	2.9076800636689217	smiling	034	sub-15	1.0	2.0	034_smiling	1.0	trustworthiness	246.972486756835	
38.0	223.29588018259847	pulse	2.0	t		24.0	female	east_asian	2.9076800636689217	smiling	034	sub-15	1.0	2.0	034_smiling	1.0	trustworthiness	247.4444396818319	
38.0	223.5041081053996	fix	3.0		444	24.0	female	east_asian	2.9076800636689217	smiling	034	sub-15	1.0	2.0	034_smiling	1.0	trustworthiness	247.65266760463305	3.7666018381200956
38.0	223.99588057501091	pulse	3.0	t		24.0	female	east_asian	2.9076800636689217	smiling	034	sub-15	1.0	2.0	034_smiling	1.0	trustworthiness	248.14444007424436	
38.0	224.69586345979178	pulse	3.0	t		24.0	female	east_asian	2.9076800636689217	smiling	034	sub-15	1.0	2.0	034_smiling	1.0	trustworthiness	248.84442295902522	
38.0	225.39585207983123	pulse	3.0	t		24.0	female	east_asian	2.9076800636689217	smiling	034	sub-15	1.0	2.0	034_smiling	1.0	trustworthiness	249.54441157906467	
38.0	226.0958295312089	pulse	3.0	t		24.0	female	east_asian	2.9076800636689217	smiling	034	sub-15	1.0	2.0	034_smiling	1.0	trustworthiness	250.24438903044233	
38.0	226.79583294217855	pulse	3.0	t		24.0	female	east_asian	2.9076800636689217	smiling	034	sub-15	1.0	2.0	034_smiling	1.0	trustworthiness	250.944392441412	
39.0	227.2707099435197	face	0.0		145	21.0	male	black	2.969757262236371	smiling	137	sub-15	1.0	2.0	137_smiling	0.0		251.41926944275315	1.233311529288585
39.0	227.49587197212304	pulse	0.0	t		21.0	male	black	2.969757262236371	smiling	137	sub-15	1.0	2.0	137_smiling	0.0		251.64443147135648	
39.0	228.19579871174005	pulse	0.0	t		21.0	male	black	2.969757262236371	smiling	137	sub-15	1.0	2.0	137_smiling	0.0		252.3443582109735	
39.0	228.5040214728083	fix	1.0		444	21.0	male	black	2.969757262236371	smiling	137	sub-15	1.0	2.0	137_smiling	0.0		252.65258097204173	3.7499345727730997
39.0	228.8957903503367	pulse	1.0	t		21.0	male	black	2.969757262236371	smiling	137	sub-15	1.0	2.0	137_smiling	0.0		253.04434984957015	
39.0	229.5957798759432	pulse	1.0	t		21.0	male	black	2.969757262236371	smiling	137	sub-15	1.0	2.0	137_smiling	0.0		253.74433937517665	
39.0	230.29576638299272	pulse	1.0	t		21.0	male	black	2.969757262236371	smiling	137	sub-15	1.0	2.0	137_smiling	0.0		254.44432588222617	
39.0	230.9957568141665	pulse	1.0	t		21.0	male	black	2.969757262236371	smiling	137	sub-15	1.0	2.0	137_smiling	0.0		255.14431631339994	
39.0	231.69574422678284	pulse	1.0	t		21.0	male	black	2.969757262236371	smiling	137	sub-15	1.0	2.0	137_smiling	0.0		255.84430372601628	
40.0	232.2539560455814	fix	0.0		720													256.40251554481483	5.9998961616329325
40.0	232.39574975074265	pulse	0.0	t														256.5443092499761	
40.0	233.09570275180727	pulse	0.0	t														257.2442622510407	
40.0	233.79570616277692	pulse	0.0	t														257.94426566201037	
40.0	234.4956908586919	pulse	0.0	t														258.64425035792533	
40.0	235.19567525275124	pulse	0.0	t														259.3442347519847	
40.0	235.8956744377408	pulse	0.0	t														260.04423393697425	
40.0	236.59565852994456	pulse	0.0	t														260.744218029178	
40.0	237.29564684812817	pulse	0.0	t														261.4442063473616	
40.0	237.9956369774461	pulse	0.0	t														262.14419647667955	
