trial_nr	onset	event_type	phase	response	nr_frames	face_age	face_sex	face_eth	attractiveness	expression	face_id	sub_id	ses	run	trial_type	catch	rating_type	onset_abs	duration
-1.0	0.05684579491207842	fix	0.0		714													23.077401381655363	5.9662828247383
-1.0	0.7066555341589265	pulse	0.0	t														23.72721112090221	
-1.0	1.406666280279751	pulse	0.0	t														24.427221867023036	
-1.0	2.106636577518657	pulse	0.0	t														25.127192164261942	
-1.0	2.806622571326443	pulse	0.0	t														25.827178158069728	
-1.0	3.5066136967216153	pulse	0.0	t														26.5271692834649	
-1.0	4.206613274116535	pulse	0.0	t														27.22716886085982	
-1.0	4.906608625518857	pulse	0.0	t														27.92716421226214	
-1.0	5.606598543468863	pulse	0.0	t														28.627154130212148	
0.0	6.023128619650379	face	0.0		144	22.0	male	black	2.767608436132113	smiling	044	sub-17	2.0	3.0	044_smiling	0.0		29.043684206393664	1.2333376197057078
0.0	6.30660476173216	pulse	0.0	t		22.0	male	black	2.767608436132113	smiling	044	sub-17	2.0	3.0	044_smiling	0.0		29.327160348475445	
0.0	7.006592566700419	pulse	0.0	t		22.0	male	black	2.767608436132113	smiling	044	sub-17	2.0	3.0	044_smiling	0.0		30.027148153443704	
0.0	7.256466239356087	fix	1.0		445	22.0	male	black	2.767608436132113	smiling	044	sub-17	2.0	3.0	044_smiling	0.0		30.27702182609937	3.758276478474727
0.0	7.706561656494159	pulse	1.0	t		22.0	male	black	2.767608436132113	smiling	044	sub-17	2.0	3.0	044_smiling	0.0		30.727117243237444	
0.0	8.40659987165418	pulse	1.0	t		22.0	male	black	2.767608436132113	smiling	044	sub-17	2.0	3.0	044_smiling	0.0		31.427155458397465	
0.0	9.106559000152629	pulse	1.0	t		22.0	male	black	2.767608436132113	smiling	044	sub-17	2.0	3.0	044_smiling	0.0		32.127114586895914	
0.0	9.80656219983939	pulse	1.0	t		22.0	male	black	2.767608436132113	smiling	044	sub-17	2.0	3.0	044_smiling	0.0		32.827117786582676	
0.0	10.506541250928422	pulse	1.0	t		22.0	male	black	2.767608436132113	smiling	044	sub-17	2.0	3.0	044_smiling	0.0		33.52709683767171	
1.0	11.014742717830813	face	0.0		146	20.0	male	black	3.1070433744528456	neutral	082	sub-17	2.0	3.0	082_neutral	0.0		34.0352983045741	1.2416619426076068
1.0	11.206529659611988	pulse	0.0	t		20.0	male	black	3.1070433744528456	neutral	082	sub-17	2.0	3.0	082_neutral	0.0		34.22708524635527	
1.0	11.906547348451568	pulse	0.0	t		20.0	male	black	3.1070433744528456	neutral	082	sub-17	2.0	3.0	082_neutral	0.0		34.92710293519485	
1.0	12.25640466043842	fix	1.0		445	20.0	male	black	3.1070433744528456	neutral	082	sub-17	2.0	3.0	082_neutral	0.0		35.276960247181705	3.7582964010653086
1.0	12.606508288095938	pulse	1.0	t		20.0	male	black	3.1070433744528456	neutral	082	sub-17	2.0	3.0	082_neutral	0.0		35.62706387483922	
1.0	13.306510582217015	pulse	1.0	t		20.0	male	black	3.1070433744528456	neutral	082	sub-17	2.0	3.0	082_neutral	0.0		36.3270661689603	
1.0	14.006499594601337	pulse	1.0	t		20.0	male	black	3.1070433744528456	neutral	082	sub-17	2.0	3.0	082_neutral	0.0		37.02705518134462	
1.0	14.706496153434273	pulse	1.0	t		20.0	male	black	3.1070433744528456	neutral	082	sub-17	2.0	3.0	082_neutral	0.0		37.72705174017756	
1.0	15.406508106985711	pulse	1.0	t		20.0	male	black	3.1070433744528456	neutral	082	sub-17	2.0	3.0	082_neutral	0.0		38.427063693728996	
2.0	16.01470106150373	face	0.0		146	19.0	male	white	2.243931555909272	smiling	130	sub-17	2.0	3.0	130_smiling	0.0		39.035256648247014	1.2416504720167723
2.0	16.106485950644128	pulse	0.0	t		19.0	male	white	2.243931555909272	smiling	130	sub-17	2.0	3.0	130_smiling	0.0		39.12704153738741	
2.0	16.80647949090053	pulse	0.0	t		19.0	male	white	2.243931555909272	smiling	130	sub-17	2.0	3.0	130_smiling	0.0		39.827035077643814	
2.0	17.2563515335205	fix	1.0		445	19.0	male	white	2.243931555909272	smiling	130	sub-17	2.0	3.0	130_smiling	0.0		40.276907120263786	3.758263196752523
2.0	17.50646457914263	pulse	1.0	t		19.0	male	white	2.243931555909272	smiling	130	sub-17	2.0	3.0	130_smiling	0.0		40.527020165885915	
2.0	18.206450572950416	pulse	1.0	t		19.0	male	white	2.243931555909272	smiling	130	sub-17	2.0	3.0	130_smiling	0.0		41.2270061596937	
2.0	18.90645135777595	pulse	1.0	t		19.0	male	white	2.243931555909272	smiling	130	sub-17	2.0	3.0	130_smiling	0.0		41.927006944519235	
2.0	19.607418086452526	pulse	1.0	t		19.0	male	white	2.243931555909272	smiling	130	sub-17	2.0	3.0	130_smiling	0.0		42.62797367319581	
2.0	20.306429986274452	pulse	1.0	t		19.0	male	white	2.243931555909272	smiling	130	sub-17	2.0	3.0	130_smiling	0.0		43.32698557301774	
3.0	21.014614730273024	face	0.0		147	40.0	female	west_asian	1.5777954635893354	smiling	038	sub-17	2.0	3.0	038_smiling	0.0		44.03517031701631	1.241677639191039
3.0	21.007851614122046	pulse	0.0	t		40.0	female	west_asian	1.5777954635893354	smiling	038	sub-17	2.0	3.0	038_smiling	0.0		44.02840720086533	
3.0	21.706414651911473	pulse	0.0	t		40.0	female	west_asian	1.5777954635893354	smiling	038	sub-17	2.0	3.0	038_smiling	0.0		44.72697023865476	
3.0	22.256292369464063	fix	1.0		444	40.0	female	west_asian	1.5777954635893354	smiling	038	sub-17	2.0	3.0	038_smiling	0.0		45.27684795620735	3.7582734599127434
3.0	22.40642298318562	pulse	1.0	t		40.0	female	west_asian	1.5777954635893354	smiling	038	sub-17	2.0	3.0	038_smiling	0.0		45.426978569928906	
3.0	23.10640263798996	pulse	1.0	t		40.0	female	west_asian	1.5777954635893354	smiling	038	sub-17	2.0	3.0	038_smiling	0.0		46.126958224733244	
3.0	23.806391046658973	pulse	1.0	t		40.0	female	west_asian	1.5777954635893354	smiling	038	sub-17	2.0	3.0	038_smiling	0.0		46.82694663340226	
3.0	24.506374323755153	pulse	1.0	t		40.0	female	west_asian	1.5777954635893354	smiling	038	sub-17	2.0	3.0	038_smiling	0.0		47.52692991049844	
3.0	25.206368165876484	pulse	1.0	t		40.0	female	west_asian	1.5777954635893354	smiling	038	sub-17	2.0	3.0	038_smiling	0.0		48.22692375261977	
3.0	25.90636623397586	pulse	1.0	t		40.0	female	west_asian	1.5777954635893354	smiling	038	sub-17	2.0	3.0	038_smiling	0.0		48.926921820719144	
4.0	26.014565829376807	face	0.0		147	20.0	male	black	2.609629924393156	neutral	043	sub-17	2.0	3.0	043_neutral	0.0		49.03512141612009	1.2416504720167723
4.0	26.60635796308634	pulse	0.0	t		20.0	male	black	2.609629924393156	neutral	043	sub-17	2.0	3.0	043_neutral	0.0		49.626913549829624	
4.0	27.25621630139358	fix	1.0		444	20.0	male	black	2.609629924393156	neutral	043	sub-17	2.0	3.0	043_neutral	0.0		50.276771888136864	3.7582885527808685
4.0	27.30634878661658	pulse	1.0	t		20.0	male	black	2.609629924393156	neutral	043	sub-17	2.0	3.0	043_neutral	0.0		50.326904373359866	
4.0	28.006339912011754	pulse	1.0	t		20.0	male	black	2.609629924393156	neutral	043	sub-17	2.0	3.0	043_neutral	0.0		51.02689549875504	
4.0	28.706359411997255	pulse	1.0	t		20.0	male	black	2.609629924393156	neutral	043	sub-17	2.0	3.0	043_neutral	0.0		51.72691499874054	
4.0	29.40632608694432	pulse	1.0	t		20.0	male	black	2.609629924393156	neutral	043	sub-17	2.0	3.0	043_neutral	0.0		52.4268816736876	
4.0	30.10632143833209	pulse	1.0	t		20.0	male	black	2.609629924393156	neutral	043	sub-17	2.0	3.0	043_neutral	0.0		53.12687702507537	
4.0	30.806312261876883	pulse	1.0	t		20.0	male	black	2.609629924393156	neutral	043	sub-17	2.0	3.0	043_neutral	0.0		53.82686784862017	
5.0	31.014504854174447	face	0.0		146	20.0	female	white	3.9502586549940313	neutral	091	sub-17	2.0	3.0	091_neutral	1.0	dominance	54.03506044091773	1.2416851856105495
5.0	31.506293727827142	pulse	0.0	t		20.0	female	white	3.9502586549940313	neutral	091	sub-17	2.0	3.0	091_neutral	1.0	dominance	54.52684931457043	
5.0	32.206300851656124	pulse	0.0	t		20.0	female	white	3.9502586549940313	neutral	091	sub-17	2.0	3.0	091_neutral	1.0	dominance	55.22685643839941	
5.0	32.256190039785	fix	1.0		177	20.0	female	white	3.9502586549940313	neutral	091	sub-17	2.0	3.0	091_neutral	1.0	dominance	55.27674562652828	1.508327039613505
5.0	32.90630374949251	pulse	1.0	t		20.0	female	white	3.9502586549940313	neutral	091	sub-17	2.0	3.0	091_neutral	1.0	dominance	55.92685933623579	
5.0	33.60627676342847	pulse	1.0	t		20.0	female	white	3.9502586549940313	neutral	091	sub-17	2.0	3.0	091_neutral	1.0	dominance	56.62683235017175	
5.0	33.7645170793985	rating	2.0		294	20.0	female	white	3.9502586549940313	neutral	091	sub-17	2.0	3.0	091_neutral	1.0	dominance	56.78507266614179	2.491602023888845
5.0	34.3011556310521	pulse	2.0	t		20.0	female	white	3.9502586549940313	neutral	091	sub-17	2.0	3.0	091_neutral	1.0	dominance	57.32171121779538	
5.0	35.00112985243322	pulse	2.0	t		20.0	female	white	3.9502586549940313	neutral	091	sub-17	2.0	3.0	091_neutral	1.0	dominance	58.02168543917651	
5.0	35.15941997486516	response	2.0	e		20.0	female	white	3.9502586549940313	neutral	091	sub-17	2.0	3.0	091_neutral	1.0	dominance	58.179975561608444	
5.0	35.70624863031844	pulse	2.0	t		20.0	female	white	3.9502586549940313	neutral	091	sub-17	2.0	3.0	091_neutral	1.0	dominance	58.726804217061726	
5.0	36.25611910328735	fix	3.0		443	20.0	female	white	3.9502586549940313	neutral	091	sub-17	2.0	3.0	091_neutral	1.0	dominance	59.27667469003063	3.7666128756682156
5.0	36.40625877272396	pulse	3.0	t		20.0	female	white	3.9502586549940313	neutral	091	sub-17	2.0	3.0	091_neutral	1.0	dominance	59.426814359467244	
5.0	37.10623359782039	pulse	3.0	t		20.0	female	white	3.9502586549940313	neutral	091	sub-17	2.0	3.0	091_neutral	1.0	dominance	60.12678918456368	
5.0	37.80621717676695	pulse	3.0	t		20.0	female	white	3.9502586549940313	neutral	091	sub-17	2.0	3.0	091_neutral	1.0	dominance	60.826772763510235	
5.0	38.50622369689518	pulse	3.0	t		20.0	female	white	3.9502586549940313	neutral	091	sub-17	2.0	3.0	091_neutral	1.0	dominance	61.52677928363846	
5.0	39.20621029441827	pulse	3.0	t		20.0	female	white	3.9502586549940313	neutral	091	sub-17	2.0	3.0	091_neutral	1.0	dominance	62.226765881161555	
5.0	39.906221040553646	pulse	3.0	t		20.0	female	white	3.9502586549940313	neutral	091	sub-17	2.0	3.0	091_neutral	1.0	dominance	62.92677662729693	
6.0	40.02273197895556	face	0.0		146	40.0	male	white	1.868682849184242	neutral	172	sub-17	2.0	3.0	172_neutral	0.0		63.04328756569885	1.233357844161219
6.0	40.606198582361685	pulse	0.0	t		40.0	male	white	1.868682849184242	neutral	172	sub-17	2.0	3.0	172_neutral	0.0		63.62675416910497	
6.0	41.25608982311678	fix	1.0		443	40.0	male	white	1.868682849184242	neutral	172	sub-17	2.0	3.0	172_neutral	0.0		64.27664540986007	3.7583377555420157
6.0	41.306199669037596	pulse	1.0	t		40.0	male	white	1.868682849184242	neutral	172	sub-17	2.0	3.0	172_neutral	0.0		64.32675525578088	
6.0	42.00617902199156	pulse	1.0	t		40.0	male	white	1.868682849184242	neutral	172	sub-17	2.0	3.0	172_neutral	0.0		65.02673460873484	
6.0	42.70617226038303	pulse	1.0	t		40.0	male	white	1.868682849184242	neutral	172	sub-17	2.0	3.0	172_neutral	0.0		65.72672784712631	
6.0	43.40615734862513	pulse	1.0	t		40.0	male	white	1.868682849184242	neutral	172	sub-17	2.0	3.0	172_neutral	0.0		66.42671293536841	
6.0	44.10615481302375	pulse	1.0	t		40.0	male	white	1.868682849184242	neutral	172	sub-17	2.0	3.0	172_neutral	0.0		67.12671039976703	
6.0	44.80614805141522	pulse	1.0	t		40.0	male	white	1.868682849184242	neutral	172	sub-17	2.0	3.0	172_neutral	0.0		67.8267036381585	
7.0	45.0144275786588	face	0.0		146	28.0	female	white	5.676880222841227	smiling	124	sub-17	2.0	3.0	124_smiling	0.0		68.03498316540208	1.2415958358178614
7.0	45.50614159167162	pulse	0.0	t		28.0	female	white	5.676880222841227	smiling	124	sub-17	2.0	3.0	124_smiling	0.0		68.5266971784149	
7.0	46.206128491059644	pulse	0.0	t		28.0	female	white	5.676880222841227	smiling	124	sub-17	2.0	3.0	124_smiling	0.0		69.22668407780293	
7.0	46.25602341447666	fix	1.0		444	28.0	female	white	5.676880222841227	smiling	124	sub-17	2.0	3.0	124_smiling	0.0		69.27657900121994	3.766600801376626
7.0	46.906123842447414	pulse	1.0	t		28.0	female	white	5.676880222841227	smiling	124	sub-17	2.0	3.0	124_smiling	0.0		69.9266794291907	
7.0	47.60611043998506	pulse	1.0	t		28.0	female	white	5.676880222841227	smiling	124	sub-17	2.0	3.0	124_smiling	0.0		70.62666602672834	
7.0	48.30612631767872	pulse	1.0	t		28.0	female	white	5.676880222841227	smiling	124	sub-17	2.0	3.0	124_smiling	0.0		71.326681904422	
7.0	49.006098124198616	pulse	1.0	t		28.0	female	white	5.676880222841227	smiling	124	sub-17	2.0	3.0	124_smiling	0.0		72.0266537109419	
7.0	49.70608864587848	pulse	1.0	t		28.0	female	white	5.676880222841227	smiling	124	sub-17	2.0	3.0	124_smiling	0.0		72.72664423262177	
8.0	50.022624215853284	face	0.0		145	27.0	male	black	3.5523278949462798	smiling	042	sub-17	2.0	3.0	042_smiling	0.0		73.04317980259657	1.2333330918481806
8.0	50.40607071554405	pulse	0.0	t		27.0	male	black	3.5523278949462798	smiling	042	sub-17	2.0	3.0	042_smiling	0.0		73.42662630228733	
8.0	51.106072707800195	pulse	0.0	t		27.0	male	black	3.5523278949462798	smiling	042	sub-17	2.0	3.0	042_smiling	0.0		74.12662829454348	
8.0	51.255957307701465	fix	1.0		444	27.0	male	black	3.5523278949462798	smiling	042	sub-17	2.0	3.0	042_smiling	0.0		74.27651289444475	3.7583175310865045
8.0	51.80606775733759	pulse	1.0	t		27.0	male	black	3.5523278949462798	smiling	042	sub-17	2.0	3.0	042_smiling	0.0		74.82662334408087	
8.0	52.5060561660066	pulse	1.0	t		27.0	male	black	3.5523278949462798	smiling	042	sub-17	2.0	3.0	042_smiling	0.0		75.52661175274989	
8.0	53.206045178405475	pulse	1.0	t		27.0	male	black	3.5523278949462798	smiling	042	sub-17	2.0	3.0	042_smiling	0.0		76.22660076514876	
8.0	53.90605230223446	pulse	1.0	t		27.0	male	black	3.5523278949462798	smiling	042	sub-17	2.0	3.0	042_smiling	0.0		76.92660788897774	
8.0	54.606032258903724	pulse	1.0	t		27.0	male	black	3.5523278949462798	smiling	042	sub-17	2.0	3.0	042_smiling	0.0		77.62658784564701	
9.0	55.01427483878797	face	0.0		146	26.0	male	white	2.7966573816155993	neutral	117	sub-17	2.0	3.0	117_neutral	0.0		78.03483042553125	1.2416178714192938
9.0	55.306059909038595	pulse	0.0	t		26.0	male	white	2.7966573816155993	neutral	117	sub-17	2.0	3.0	117_neutral	0.0		78.32661549578188	
9.0	56.0060217542632	pulse	0.0	t		26.0	male	white	2.7966573816155993	neutral	117	sub-17	2.0	3.0	117_neutral	0.0		79.02657734100649	
9.0	56.25589271020726	fix	1.0		445	26.0	male	white	2.7966573816155993	neutral	117	sub-17	2.0	3.0	117_neutral	0.0		79.27644829695055	3.766617101660813
9.0	56.706010464797146	pulse	1.0	t		26.0	male	white	2.7966573816155993	neutral	117	sub-17	2.0	3.0	117_neutral	0.0		79.72656605154043	
9.0	57.406001590177766	pulse	1.0	t		26.0	male	white	2.7966573816155993	neutral	117	sub-17	2.0	3.0	117_neutral	0.0		80.42655717692105	
9.0	58.10601203444821	pulse	1.0	t		26.0	male	white	2.7966573816155993	neutral	117	sub-17	2.0	3.0	117_neutral	0.0		81.1265676211915	
9.0	58.80598353910318	pulse	1.0	t		26.0	male	white	2.7966573816155993	neutral	117	sub-17	2.0	3.0	117_neutral	0.0		81.82653912584647	
9.0	59.50597466449835	pulse	1.0	t		26.0	male	white	2.7966573816155993	neutral	117	sub-17	2.0	3.0	117_neutral	0.0		82.52653025124164	
10.0	60.022509811868076	face	0.0		145	27.0	female	white	4.181058495821727	neutral	039	sub-17	2.0	3.0	039_neutral	0.0		83.04306539861136	1.233325545414118
10.0	60.205973940042895	pulse	0.0	t		27.0	female	white	4.181058495821727	neutral	039	sub-17	2.0	3.0	039_neutral	0.0		83.22652952678618	
10.0	60.905963254292146	pulse	0.0	t		27.0	female	white	4.181058495821727	neutral	039	sub-17	2.0	3.0	039_neutral	0.0		83.92651884103543	
10.0	61.255835357282194	fix	1.0		445	27.0	female	white	4.181058495821727	neutral	039	sub-17	2.0	3.0	039_neutral	0.0		84.27639094402548	3.766623138828436
10.0	61.60596222797176	pulse	1.0	t		27.0	female	white	4.181058495821727	neutral	039	sub-17	2.0	3.0	039_neutral	0.0		84.62651781471504	
10.0	62.30607862419856	pulse	1.0	t		27.0	female	white	4.181058495821727	neutral	039	sub-17	2.0	3.0	039_neutral	0.0		85.32663421094185	
10.0	63.005936026747804	pulse	1.0	t		27.0	female	white	4.181058495821727	neutral	039	sub-17	2.0	3.0	039_neutral	0.0		86.02649161349109	
10.0	63.70594194314617	pulse	1.0	t		27.0	female	white	4.181058495821727	neutral	039	sub-17	2.0	3.0	039_neutral	0.0		86.72649752988946	
10.0	64.40592099424975	pulse	1.0	t		27.0	female	white	4.181058495821727	neutral	039	sub-17	2.0	3.0	039_neutral	0.0		87.42647658099304	
11.0	65.02245849611063	face	0.0		145	22.0	female	west_asian	3.8205332272184642	smiling	066	sub-17	2.0	3.0	066_smiling	0.0		88.04301408285392	1.233342147563235
11.0	65.10591634563752	pulse	0.0	t		22.0	female	west_asian	3.8205332272184642	smiling	066	sub-17	2.0	3.0	066_smiling	0.0		88.12647193238081	
11.0	65.80591290447046	pulse	0.0	t		22.0	female	west_asian	3.8205332272184642	smiling	066	sub-17	2.0	3.0	066_smiling	0.0		88.82646849121375	
11.0	66.25580064367387	fix	1.0		444	22.0	female	west_asian	3.8205332272184642	smiling	066	sub-17	2.0	3.0	066_smiling	0.0		89.27635623041715	3.7665938586578704
11.0	66.50590040755924	pulse	1.0	t		22.0	female	west_asian	3.8205332272184642	smiling	066	sub-17	2.0	3.0	066_smiling	0.0		89.52645599430252	
11.0	67.20590330539562	pulse	1.0	t		22.0	female	west_asian	3.8205332272184642	smiling	066	sub-17	2.0	3.0	066_smiling	0.0		90.22645889213891	
11.0	67.90588054533873	pulse	1.0	t		22.0	female	west_asian	3.8205332272184642	smiling	066	sub-17	2.0	3.0	066_smiling	0.0		90.92643613208202	
11.0	68.60587257631414	pulse	1.0	t		22.0	female	west_asian	3.8205332272184642	smiling	066	sub-17	2.0	3.0	066_smiling	0.0		91.62642816305743	
11.0	69.30586490912538	pulse	1.0	t		22.0	female	west_asian	3.8205332272184642	smiling	066	sub-17	2.0	3.0	066_smiling	0.0		92.32642049586866	
12.0	70.02239450233174	face	0.0		146	37.0	male	white	3.898925586947871	neutral	101	sub-17	2.0	3.0	101_neutral	0.0		93.04295008907502	1.233331582552637
12.0	70.00906900521659	pulse	0.0	t		37.0	male	white	3.898925586947871	neutral	101	sub-17	2.0	3.0	101_neutral	0.0		93.02962459195987	
12.0	70.7058474617661	pulse	0.0	t		37.0	male	white	3.898925586947871	neutral	101	sub-17	2.0	3.0	101_neutral	0.0		93.72640304850938	
12.0	71.25572608488437	fix	1.0		443	37.0	male	white	3.898925586947871	neutral	101	sub-17	2.0	3.0	101_neutral	0.0		94.27628167162766	3.7666095552413026
12.0	71.40586001903284	pulse	1.0	t		37.0	male	white	3.898925586947871	neutral	101	sub-17	2.0	3.0	101_neutral	0.0		94.42641560577613	
12.0	72.10582367540337	pulse	1.0	t		37.0	male	white	3.898925586947871	neutral	101	sub-17	2.0	3.0	101_neutral	0.0		95.12637926214666	
12.0	72.80582355466322	pulse	1.0	t		37.0	male	white	3.898925586947871	neutral	101	sub-17	2.0	3.0	101_neutral	0.0		95.8263791414065	
12.0	73.50581649118976	pulse	1.0	t		37.0	male	white	3.898925586947871	neutral	101	sub-17	2.0	3.0	101_neutral	0.0		96.52637207793305	
12.0	74.20581063516147	pulse	1.0	t		37.0	male	white	3.898925586947871	neutral	101	sub-17	2.0	3.0	101_neutral	0.0		97.22636622190475	
12.0	74.90581715527514	pulse	1.0	t		37.0	male	white	3.898925586947871	neutral	101	sub-17	2.0	3.0	101_neutral	0.0		97.92637274201843	
13.0	75.02233564012568	face	0.0		146	22.0	female	white	4.614007162753682	neutral	009	sub-17	2.0	3.0	009_neutral	0.0		98.04289122686896	1.2333261491294252
13.0	75.60579771565972	pulse	0.0	t		22.0	female	white	4.614007162753682	neutral	009	sub-17	2.0	3.0	009_neutral	0.0		98.626353302403	
13.0	76.2556617892551	fix	1.0		443	22.0	female	white	4.614007162753682	neutral	009	sub-17	2.0	3.0	009_neutral	0.0		99.27621737599839	3.7582794970512623
13.0	76.30577978532529	pulse	1.0	t		22.0	female	white	4.614007162753682	neutral	009	sub-17	2.0	3.0	009_neutral	0.0		99.32633537206857	
13.0	77.0057751367276	pulse	1.0	t		22.0	female	white	4.614007162753682	neutral	009	sub-17	2.0	3.0	009_neutral	0.0		100.02633072347089	
13.0	77.70575147110503	pulse	1.0	t		22.0	female	white	4.614007162753682	neutral	009	sub-17	2.0	3.0	009_neutral	0.0		100.72630705784832	
13.0	78.40577761195891	pulse	1.0	t		22.0	female	white	4.614007162753682	neutral	009	sub-17	2.0	3.0	009_neutral	0.0		101.4263331987022	
13.0	79.10575243704079	pulse	1.0	t		22.0	female	white	4.614007162753682	neutral	009	sub-17	2.0	3.0	009_neutral	0.0		102.12630802378408	
13.0	79.80574084572436	pulse	1.0	t		22.0	female	white	4.614007162753682	neutral	009	sub-17	2.0	3.0	009_neutral	0.0		102.82629643246764	
14.0	80.01394128630636	face	0.0		146	28.0	male	white	3.9076800636689217	neutral	033	sub-17	2.0	3.0	033_neutral	0.0		103.03449687304965	1.2416643574542832
14.0	80.50574102683458	pulse	0.0	t		28.0	male	white	3.9076800636689217	neutral	033	sub-17	2.0	3.0	033_neutral	0.0		103.52629661357787	
14.0	81.20573396336113	pulse	0.0	t		28.0	male	white	3.9076800636689217	neutral	033	sub-17	2.0	3.0	033_neutral	0.0		104.22628955010441	
14.0	81.25560564376065	fix	1.0		445	28.0	male	white	3.9076800636689217	neutral	033	sub-17	2.0	3.0	033_neutral	0.0		104.27616123050393	3.758403862331761
14.0	81.90572599433654	pulse	1.0	t		28.0	male	white	3.9076800636689217	neutral	033	sub-17	2.0	3.0	033_neutral	0.0		104.92628158107982	
14.0	82.60571319557494	pulse	1.0	t		28.0	male	white	3.9076800636689217	neutral	033	sub-17	2.0	3.0	033_neutral	0.0		105.62626878231822	
14.0	83.30569677453605	pulse	1.0	t		28.0	male	white	3.9076800636689217	neutral	033	sub-17	2.0	3.0	033_neutral	0.0		106.32625236127933	
14.0	84.0057878147345	pulse	1.0	t		28.0	male	white	3.9076800636689217	neutral	033	sub-17	2.0	3.0	033_neutral	0.0		107.02634340147779	
14.0	84.70568747732614	pulse	1.0	t		28.0	male	white	3.9076800636689217	neutral	033	sub-17	2.0	3.0	033_neutral	0.0		107.72624306406942	
15.0	85.0140095060924	face	0.0		146	21.0	male	black	2.969757262236371	neutral	137	sub-17	2.0	3.0	137_neutral	0.0		108.03456509283569	1.2415472367720213
15.0	85.40568313057884	pulse	0.0	t		21.0	male	black	2.969757262236371	neutral	137	sub-17	2.0	3.0	137_neutral	0.0		108.42623871732212	
15.0	86.10566821882094	pulse	0.0	t		21.0	male	black	2.969757262236371	neutral	137	sub-17	2.0	3.0	137_neutral	0.0		109.12622380556422	
15.0	86.25555674286443	fix	1.0		445	21.0	male	black	2.969757262236371	neutral	137	sub-17	2.0	3.0	137_neutral	0.0		109.27611232960771	3.7582740636134986
15.0	86.80566417392401	pulse	1.0	t		21.0	male	black	2.969757262236371	neutral	137	sub-17	2.0	3.0	137_neutral	0.0		109.8262197606673	
15.0	87.5056474510202	pulse	1.0	t		21.0	male	black	2.969757262236371	neutral	137	sub-17	2.0	3.0	137_neutral	0.0		110.52620303776348	
15.0	88.20565095257189	pulse	1.0	t		21.0	male	black	2.969757262236371	neutral	137	sub-17	2.0	3.0	137_neutral	0.0		111.22620653931517	
15.0	88.90565777455049	pulse	1.0	t		21.0	male	black	2.969757262236371	neutral	137	sub-17	2.0	3.0	137_neutral	0.0		111.92621336129378	
15.0	89.60562927920546	pulse	1.0	t		21.0	male	black	2.969757262236371	neutral	137	sub-17	2.0	3.0	137_neutral	0.0		112.62618486594874	
16.0	90.01383080647793	face	0.0		146	31.0	female	east_asian	3.395941106247513	neutral	087	sub-17	2.0	3.0	087_neutral	0.0		113.03438639322121	1.2416646593192127
16.0	90.3056418364722	pulse	0.0	t		31.0	female	east_asian	3.395941106247513	neutral	087	sub-17	2.0	3.0	087_neutral	0.0		113.32619742321549	
16.0	91.00561786899925	pulse	0.0	t		31.0	female	east_asian	3.395941106247513	neutral	087	sub-17	2.0	3.0	087_neutral	0.0		114.02617345574254	
16.0	91.25549546579714	fix	1.0		444	31.0	female	east_asian	3.395941106247513	neutral	087	sub-17	2.0	3.0	087_neutral	0.0		114.27605105254042	3.766609253376373
16.0	91.70560839066457	pulse	1.0	t		31.0	female	east_asian	3.395941106247513	neutral	087	sub-17	2.0	3.0	087_neutral	0.0		114.72616397740785	
16.0	92.40560917550465	pulse	1.0	t		31.0	female	east_asian	3.395941106247513	neutral	087	sub-17	2.0	3.0	087_neutral	0.0		115.42616476224794	
16.0	93.10559305631614	pulse	1.0	t		31.0	female	east_asian	3.395941106247513	neutral	087	sub-17	2.0	3.0	087_neutral	0.0		116.12614864305942	
16.0	93.80558025755454	pulse	1.0	t		31.0	female	east_asian	3.395941106247513	neutral	087	sub-17	2.0	3.0	087_neutral	0.0		116.82613584429782	
16.0	94.50557500524155	pulse	1.0	t		31.0	female	east_asian	3.395941106247513	neutral	087	sub-17	2.0	3.0	087_neutral	0.0		117.52613059198484	
17.0	95.02210471917351	face	0.0		145	32.0	male	white	2.389176283326701	smiling	092	sub-17	2.0	3.0	092_smiling	0.0		118.0426603059168	1.2333279602753464
17.0	95.20556522505649	pulse	0.0	t		32.0	male	white	2.389176283326701	smiling	092	sub-17	2.0	3.0	092_smiling	0.0		118.22612081179977	
17.0	95.90556329317042	pulse	0.0	t		32.0	male	white	2.389176283326701	smiling	092	sub-17	2.0	3.0	092_smiling	0.0		118.9261188799137	
17.0	96.25543267944886	fix	1.0		444	32.0	male	white	2.389176283326701	smiling	092	sub-17	2.0	3.0	092_smiling	0.0		119.27598826619214	3.7666161960951285
17.0	96.60556075756904	pulse	1.0	t		32.0	male	white	2.389176283326701	smiling	092	sub-17	2.0	3.0	092_smiling	0.0		119.62611634431232	
17.0	97.30554131793906	pulse	1.0	t		32.0	male	white	2.389176283326701	smiling	092	sub-17	2.0	3.0	092_smiling	0.0		120.32609690468234	
17.0	98.00553968791792	pulse	1.0	t		32.0	male	white	2.389176283326701	smiling	092	sub-17	2.0	3.0	092_smiling	0.0		121.0260952746612	
17.0	98.70552719102125	pulse	1.0	t		32.0	male	white	2.389176283326701	smiling	092	sub-17	2.0	3.0	092_smiling	0.0		121.72608277776453	
17.0	99.40551439225965	pulse	1.0	t		32.0	male	white	2.389176283326701	smiling	092	sub-17	2.0	3.0	092_smiling	0.0		122.42606997900293	
18.0	100.02204887554399	face	0.0		145	19.0	female	white	4.298846000795861	smiling	100	sub-17	2.0	3.0	100_smiling	0.0		123.04260446228727	1.2333445624390151
18.0	100.10551759194641	pulse	0.0	t		19.0	female	white	4.298846000795861	smiling	100	sub-17	2.0	3.0	100_smiling	0.0		123.1260731786897	
18.0	100.8055020764732	pulse	0.0	t		19.0	female	white	4.298846000795861	smiling	100	sub-17	2.0	3.0	100_smiling	0.0		123.82605766321649	
18.0	101.255393437983	fix	1.0		444	19.0	female	white	4.298846000795861	smiling	100	sub-17	2.0	3.0	100_smiling	0.0		124.27594902472629	3.7665998957963893
18.0	101.5054871647153	pulse	1.0	t		19.0	female	white	4.298846000795861	smiling	100	sub-17	2.0	3.0	100_smiling	0.0		124.52604275145859	
18.0	102.2054822142527	pulse	1.0	t		19.0	female	white	4.298846000795861	smiling	100	sub-17	2.0	3.0	100_smiling	0.0		125.22603780099598	
18.0	102.90547937680094	pulse	1.0	t		19.0	female	white	4.298846000795861	smiling	100	sub-17	2.0	3.0	100_smiling	0.0		125.92603496354423	
18.0	103.60546748360503	pulse	1.0	t		19.0	female	white	4.298846000795861	smiling	100	sub-17	2.0	3.0	100_smiling	0.0		126.62602307034831	
18.0	104.30547400373325	pulse	1.0	t		19.0	female	white	4.298846000795861	smiling	100	sub-17	2.0	3.0	100_smiling	0.0		127.32602959047654	
19.0	105.02199333377939	face	0.0		145	40.0	male	white	1.868682849184242	smiling	172	sub-17	2.0	3.0	172_smiling	1.0	attractiveness	128.04254892052268	1.233328865841031
19.0	105.0082799498341	pulse	0.0	t		40.0	male	white	1.868682849184242	smiling	172	sub-17	2.0	3.0	172_smiling	1.0	attractiveness	128.0288355365774	
19.0	105.70544719879399	pulse	0.0	t		40.0	male	white	1.868682849184242	smiling	172	sub-17	2.0	3.0	172_smiling	1.0	attractiveness	128.72600278553728	
19.0	106.25532219962042	fix	1.0		177	40.0	male	white	1.868682849184242	smiling	172	sub-17	2.0	3.0	172_smiling	1.0	attractiveness	129.2758777863637	1.4999812848400325
19.0	106.40550201610313	pulse	1.0	t		40.0	male	white	1.868682849184242	smiling	172	sub-17	2.0	3.0	172_smiling	1.0	attractiveness	129.4260576028464	
19.0	107.10543699600385	pulse	1.0	t		40.0	male	white	1.868682849184242	smiling	172	sub-17	2.0	3.0	172_smiling	1.0	attractiveness	130.12599258274713	
19.0	107.75530348446046	rating	2.0		294	40.0	male	white	1.868682849184242	smiling	172	sub-17	2.0	3.0	172_smiling	1.0	attractiveness	130.77585907120374	2.499977058832883
19.0	107.80031948591932	pulse	2.0	t		40.0	male	white	1.868682849184242	smiling	172	sub-17	2.0	3.0	172_smiling	1.0	attractiveness	130.8208750726626	
19.0	108.50028314228985	pulse	2.0	t		40.0	male	white	1.868682849184242	smiling	172	sub-17	2.0	3.0	172_smiling	1.0	attractiveness	131.52083872903313	
19.0	109.20028664382698	pulse	2.0	t		40.0	male	white	1.868682849184242	smiling	172	sub-17	2.0	3.0	172_smiling	1.0	attractiveness	132.22084223057027	
19.0	109.26691533683334	response	2.0	n		40.0	male	white	1.868682849184242	smiling	172	sub-17	2.0	3.0	172_smiling	1.0	attractiveness	132.28747092357662	
19.0	109.90541417559143	pulse	2.0	t		40.0	male	white	1.868682849184242	smiling	172	sub-17	2.0	3.0	172_smiling	1.0	attractiveness	132.92596976233472	
19.0	110.25528054329334	fix	3.0		444	40.0	male	white	1.868682849184242	smiling	172	sub-17	2.0	3.0	172_smiling	1.0	attractiveness	133.27583613003662	3.766619818386971
19.0	110.60538930253824	pulse	3.0	t		40.0	male	white	1.868682849184242	smiling	172	sub-17	2.0	3.0	172_smiling	1.0	attractiveness	133.62594488928153	
19.0	111.30538163534948	pulse	3.0	t		40.0	male	white	1.868682849184242	smiling	172	sub-17	2.0	3.0	172_smiling	1.0	attractiveness	134.32593722209276	
19.0	112.00537608117156	pulse	3.0	t		40.0	male	white	1.868682849184242	smiling	172	sub-17	2.0	3.0	172_smiling	1.0	attractiveness	135.02593166791485	
19.0	112.7053838087304	pulse	3.0	t		40.0	male	white	1.868682849184242	smiling	172	sub-17	2.0	3.0	172_smiling	1.0	attractiveness	135.7259393954737	
19.0	113.40535531338537	pulse	3.0	t		40.0	male	white	1.868682849184242	smiling	172	sub-17	2.0	3.0	172_smiling	1.0	attractiveness	136.42591090012866	
20.0	114.02190036168031	face	0.0		145	31.0	female	west_asian	2.364902506963788	neutral	006	sub-17	2.0	3.0	006_neutral	0.0		137.0424559484236	1.2333192064106697
20.0	114.10535972050275	pulse	0.0	t		31.0	female	west_asian	2.364902506963788	neutral	006	sub-17	2.0	3.0	006_neutral	0.0		137.12591530724603	
20.0	114.80535265704384	pulse	0.0	t		31.0	female	west_asian	2.364902506963788	neutral	006	sub-17	2.0	3.0	006_neutral	0.0		137.82590824378713	
20.0	115.25521956809098	fix	1.0		1185	31.0	female	west_asian	2.364902506963788	neutral	006	sub-17	2.0	3.0	006_neutral	0.0		138.27577515483426	10.008213541208534
20.0	115.5053341229941	pulse	1.0	t		31.0	female	west_asian	2.364902506963788	neutral	006	sub-17	2.0	3.0	006_neutral	0.0		138.52588970973738	
20.0	116.20532494652434	pulse	1.0	t		31.0	female	west_asian	2.364902506963788	neutral	006	sub-17	2.0	3.0	006_neutral	0.0		139.22588053326763	
20.0	116.90530882733583	pulse	1.0	t		31.0	female	west_asian	2.364902506963788	neutral	006	sub-17	2.0	3.0	006_neutral	0.0		139.92586441407911	
20.0	117.60530659358483	pulse	1.0	t		31.0	female	west_asian	2.364902506963788	neutral	006	sub-17	2.0	3.0	006_neutral	0.0		140.6258621803281	
20.0	118.30530194498715	pulse	1.0	t		31.0	female	west_asian	2.364902506963788	neutral	006	sub-17	2.0	3.0	006_neutral	0.0		141.32585753173043	
20.0	119.00530363539292	pulse	1.0	t		31.0	female	west_asian	2.364902506963788	neutral	006	sub-17	2.0	3.0	006_neutral	0.0		142.0258592221362	
20.0	119.70528540319356	pulse	1.0	t		31.0	female	west_asian	2.364902506963788	neutral	006	sub-17	2.0	3.0	006_neutral	0.0		142.72584098993684	
20.0	120.40527954716526	pulse	1.0	t		31.0	female	west_asian	2.364902506963788	neutral	006	sub-17	2.0	3.0	006_neutral	0.0		143.42583513390855	
20.0	121.10526403169206	pulse	1.0	t		31.0	female	west_asian	2.364902506963788	neutral	006	sub-17	2.0	3.0	006_neutral	0.0		144.12581961843534	
20.0	121.80524972364947	pulse	1.0	t		31.0	female	west_asian	2.364902506963788	neutral	006	sub-17	2.0	3.0	006_neutral	0.0		144.82580531039275	
20.0	122.50525684747845	pulse	1.0	t		31.0	female	west_asian	2.364902506963788	neutral	006	sub-17	2.0	3.0	006_neutral	0.0		145.52581243422173	
20.0	123.20524133200524	pulse	1.0	t		31.0	female	west_asian	2.364902506963788	neutral	006	sub-17	2.0	3.0	006_neutral	0.0		146.22579691874853	
20.0	123.90523245740042	pulse	1.0	t		31.0	female	west_asian	2.364902506963788	neutral	006	sub-17	2.0	3.0	006_neutral	0.0		146.9257880441437	
20.0	124.6052241865109	pulse	1.0	t		31.0	female	west_asian	2.364902506963788	neutral	006	sub-17	2.0	3.0	006_neutral	0.0		147.62577977325418	
21.0	125.26343310929951	face	0.0		146	36.0	female	white	2.7548746518105847	neutral	011	sub-17	2.0	3.0	011_neutral	0.0		148.2839886960428	1.2416501701518428
21.0	125.30522225462482	pulse	0.0	t		36.0	female	white	2.7548746518105847	neutral	011	sub-17	2.0	3.0	011_neutral	0.0		148.3257778413681	
21.0	126.00521639858198	pulse	0.0	t		36.0	female	white	2.7548746518105847	neutral	011	sub-17	2.0	3.0	011_neutral	0.0		149.02577198532526	
21.0	126.50508327945136	fix	1.0		443	36.0	female	white	2.7548746518105847	neutral	011	sub-17	2.0	3.0	011_neutral	0.0		149.52563886619464	3.7666300815471914
21.0	126.70520782582753	pulse	1.0	t		36.0	female	white	2.7548746518105847	neutral	011	sub-17	2.0	3.0	011_neutral	0.0		149.7257634125708	
21.0	127.40519774379209	pulse	1.0	t		36.0	female	white	2.7548746518105847	neutral	011	sub-17	2.0	3.0	011_neutral	0.0		150.42575333053537	
21.0	128.10518102088827	pulse	1.0	t		36.0	female	white	2.7548746518105847	neutral	011	sub-17	2.0	3.0	011_neutral	0.0		151.12573660763155	
21.0	128.80518120201305	pulse	1.0	t		36.0	female	white	2.7548746518105847	neutral	011	sub-17	2.0	3.0	011_neutral	0.0		151.82573678875633	
21.0	129.50517051624774	pulse	1.0	t		36.0	female	white	2.7548746518105847	neutral	011	sub-17	2.0	3.0	011_neutral	0.0		152.52572610299103	
21.0	130.20517673451104	pulse	1.0	t		36.0	female	white	2.7548746518105847	neutral	011	sub-17	2.0	3.0	011_neutral	0.0		153.22573232125433	
22.0	130.27171336099855	face	0.0		146	23.0	male	white	2.6275368085953046	neutral	141	sub-17	2.0	3.0	141_neutral	1.0	trustworthiness	153.29226894774183	1.233309848816134
22.0	130.90515850232623	pulse	0.0	t		23.0	male	white	2.6275368085953046	neutral	141	sub-17	2.0	3.0	141_neutral	1.0	trustworthiness	153.92571408906952	
22.0	131.50502320981468	fix	1.0		177	23.0	male	white	2.6275368085953046	neutral	141	sub-17	2.0	3.0	141_neutral	1.0	trustworthiness	154.52557879655797	1.499992755430867
22.0	131.6051484202908	pulse	1.0	t		23.0	male	white	2.6275368085953046	neutral	141	sub-17	2.0	3.0	141_neutral	1.0	trustworthiness	154.62570400703407	
22.0	132.3051262639492	pulse	1.0	t		23.0	male	white	2.6275368085953046	neutral	141	sub-17	2.0	3.0	141_neutral	1.0	trustworthiness	155.3256818506925	
22.0	133.00501596524555	rating	2.0		294	23.0	male	white	2.6275368085953046	neutral	141	sub-17	2.0	3.0	141_neutral	1.0	trustworthiness	156.02557155198883	2.4999622678151354
22.0	133.00120742979925	pulse	2.0	t		23.0	male	white	2.6275368085953046	neutral	141	sub-17	2.0	3.0	141_neutral	1.0	trustworthiness	156.02176301654254	
22.0	133.69993015017826	pulse	2.0	t		23.0	male	white	2.6275368085953046	neutral	141	sub-17	2.0	3.0	141_neutral	1.0	trustworthiness	156.72048573692155	
22.0	134.04990669585823	response	2.0	y		23.0	male	white	2.6275368085953046	neutral	141	sub-17	2.0	3.0	141_neutral	1.0	trustworthiness	157.0704622826015	
22.0	134.40510718655423	pulse	2.0	t		23.0	male	white	2.6275368085953046	neutral	141	sub-17	2.0	3.0	141_neutral	1.0	trustworthiness	157.42566277329752	
22.0	135.1050955952378	pulse	2.0	t		23.0	male	white	2.6275368085953046	neutral	141	sub-17	2.0	3.0	141_neutral	1.0	trustworthiness	158.12565118198108	
22.0	135.50497823306068	fix	3.0		444	23.0	male	white	2.6275368085953046	neutral	141	sub-17	2.0	3.0	141_neutral	1.0	trustworthiness	158.52553381980397	3.7666161960951285
22.0	135.8051150952233	pulse	3.0	t		23.0	male	white	2.6275368085953046	neutral	141	sub-17	2.0	3.0	141_neutral	1.0	trustworthiness	158.82567068196659	
22.0	136.50509837231948	pulse	3.0	t		23.0	male	white	2.6275368085953046	neutral	141	sub-17	2.0	3.0	141_neutral	1.0	trustworthiness	159.52565395906277	
22.0	137.20508014013467	pulse	3.0	t		23.0	male	white	2.6275368085953046	neutral	141	sub-17	2.0	3.0	141_neutral	1.0	trustworthiness	160.22563572687795	
22.0	137.9050703599496	pulse	3.0	t		23.0	male	white	2.6275368085953046	neutral	141	sub-17	2.0	3.0	141_neutral	1.0	trustworthiness	160.9256259466929	
22.0	138.60506510763662	pulse	3.0	t		23.0	male	white	2.6275368085953046	neutral	141	sub-17	2.0	3.0	141_neutral	1.0	trustworthiness	161.6256206943799	
23.0	139.2715944291558	face	0.0		145	30.0	female	black	2.7345801830481498	smiling	062	sub-17	2.0	3.0	062_smiling	0.0		162.2921500158991	1.2333336955634877
23.0	139.305106643209	pulse	0.0	t		30.0	female	black	2.7345801830481498	smiling	062	sub-17	2.0	3.0	062_smiling	0.0		162.3256622299523	
23.0	140.0050473584124	pulse	0.0	t		30.0	female	black	2.7345801830481498	smiling	062	sub-17	2.0	3.0	062_smiling	0.0		163.0256029451557	
23.0	140.5049281247193	fix	1.0		443	30.0	female	black	2.7345801830481498	smiling	062	sub-17	2.0	3.0	062_smiling	0.0		163.52548371146258	3.7583622060046764
23.0	140.70503425780043	pulse	1.0	t		30.0	female	black	2.7345801830481498	smiling	062	sub-17	2.0	3.0	062_smiling	0.0		163.72558984454372	
23.0	141.40502568504598	pulse	1.0	t		30.0	female	black	2.7345801830481498	smiling	062	sub-17	2.0	3.0	062_smiling	0.0		164.42558127178927	
23.0	142.1050337144552	pulse	1.0	t		30.0	female	black	2.7345801830481498	smiling	062	sub-17	2.0	3.0	062_smiling	0.0		165.1255893011985	
23.0	142.80500914326694	pulse	1.0	t		30.0	female	black	2.7345801830481498	smiling	062	sub-17	2.0	3.0	062_smiling	0.0		165.82556473001023	
23.0	143.50503166182898	pulse	1.0	t		30.0	female	black	2.7345801830481498	smiling	062	sub-17	2.0	3.0	062_smiling	0.0		166.52558724857226	
23.0	144.20501101478294	pulse	1.0	t		30.0	female	black	2.7345801830481498	smiling	062	sub-17	2.0	3.0	062_smiling	0.0		167.22556660152622	
24.0	144.26329033072398	face	0.0		147	31.0	female	east_asian	3.395941106247513	smiling	087	sub-17	2.0	3.0	087_smiling	0.0		167.28384591746726	1.2415798373694997
24.0	144.90499640487542	pulse	0.0	t		31.0	female	east_asian	3.395941106247513	smiling	087	sub-17	2.0	3.0	087_smiling	0.0		167.9255519916187	
24.0	145.50487016809348	fix	1.0		443	31.0	female	east_asian	3.395941106247513	smiling	087	sub-17	2.0	3.0	087_smiling	0.0		168.52542575483676	3.7666110645222943
24.0	145.60498571912467	pulse	1.0	t		31.0	female	east_asian	3.395941106247513	smiling	087	sub-17	2.0	3.0	087_smiling	0.0		168.62554130586796	
24.0	146.30498348537367	pulse	1.0	t		31.0	female	east_asian	3.395941106247513	smiling	087	sub-17	2.0	3.0	087_smiling	0.0		169.32553907211695	
24.0	147.00496766805009	pulse	1.0	t		31.0	female	east_asian	3.395941106247513	smiling	087	sub-17	2.0	3.0	087_smiling	0.0		170.02552325479337	
24.0	147.70496301943786	pulse	1.0	t		31.0	female	east_asian	3.395941106247513	smiling	087	sub-17	2.0	3.0	087_smiling	0.0		170.72551860618114	
24.0	148.4049544466834	pulse	1.0	t		31.0	female	east_asian	3.395941106247513	smiling	087	sub-17	2.0	3.0	087_smiling	0.0		171.4255100334267	
24.0	149.1049467795092	pulse	1.0	t		31.0	female	east_asian	3.395941106247513	smiling	087	sub-17	2.0	3.0	087_smiling	0.0		172.12550236625248	
25.0	149.27148123261577	face	0.0		146	25.0	female	black	3.858336649423	smiling	126	sub-17	2.0	3.0	126_smiling	0.0		172.29203681935905	1.2333264509798028
25.0	149.80492764174414	pulse	0.0	t		25.0	female	black	3.858336649423	smiling	126	sub-17	2.0	3.0	126_smiling	0.0		172.82548322848743	
25.0	150.50480768359557	fix	1.0		444	25.0	female	black	3.858336649423	smiling	126	sub-17	2.0	3.0	126_smiling	0.0		173.52536327033886	3.7666324964084197
25.0	150.51217511837604	pulse	1.0	t		25.0	female	black	3.858336649423	smiling	126	sub-17	2.0	3.0	126_smiling	0.0		173.53273070511932	
25.0	151.20491713710362	pulse	1.0	t		25.0	female	black	3.858336649423	smiling	126	sub-17	2.0	3.0	126_smiling	0.0		174.2254727238469	
25.0	151.9049073569331	pulse	1.0	t		25.0	female	black	3.858336649423	smiling	126	sub-17	2.0	3.0	126_smiling	0.0		174.9254629436764	
25.0	152.60489003031398	pulse	1.0	t		25.0	female	black	3.858336649423	smiling	126	sub-17	2.0	3.0	126_smiling	0.0		175.62544561705727	
25.0	153.30489594671235	pulse	1.0	t		25.0	female	black	3.858336649423	smiling	126	sub-17	2.0	3.0	126_smiling	0.0		176.32545153345563	
25.0	154.0048846572463	pulse	1.0	t		25.0	female	black	3.858336649423	smiling	126	sub-17	2.0	3.0	126_smiling	0.0		177.02544024398958	
26.0	154.271440180004	face	0.0		145	54.0	female	white	2.286908077994429	neutral	136	sub-17	2.0	3.0	136_neutral	0.0		177.29199576674728	1.2333068302395986
26.0	154.70497267888277	pulse	0.0	t		54.0	female	white	2.286908077994429	neutral	136	sub-17	2.0	3.0	136_neutral	0.0		177.72552826562605	
26.0	155.40502025160822	pulse	0.0	t		54.0	female	white	2.286908077994429	neutral	136	sub-17	2.0	3.0	136_neutral	0.0		178.4255758383515	
26.0	155.5047470102436	fix	1.0		444	54.0	female	white	2.286908077994429	neutral	136	sub-17	2.0	3.0	136_neutral	0.0		178.52530259698688	3.7666222332627513
26.0	156.10486648543156	pulse	1.0	t		54.0	female	white	2.286908077994429	neutral	136	sub-17	2.0	3.0	136_neutral	0.0		179.12542207217484	
26.0	156.8048606293887	pulse	1.0	t		54.0	female	white	2.286908077994429	neutral	136	sub-17	2.0	3.0	136_neutral	0.0		179.825416216132	
26.0	157.50484662321105	pulse	1.0	t		54.0	female	white	2.286908077994429	neutral	136	sub-17	2.0	3.0	136_neutral	0.0		180.52540220995434	
26.0	158.20483774860622	pulse	1.0	t		54.0	female	white	2.286908077994429	neutral	136	sub-17	2.0	3.0	136_neutral	0.0		181.2253933353495	
26.0	158.9048343074246	pulse	1.0	t		54.0	female	white	2.286908077994429	neutral	136	sub-17	2.0	3.0	136_neutral	0.0		181.9253898941679	
27.0	159.27136924350634	face	0.0		145	24.0	female	east_asian	2.9076800636689217	smiling	034	sub-17	2.0	3.0	034_smiling	0.0		182.29192483024963	1.2333303751220228
27.0	159.60481516965956	pulse	0.0	t		24.0	female	east_asian	2.9076800636689217	smiling	034	sub-17	2.0	3.0	034_smiling	0.0		182.62537075640284	
27.0	160.30481746378064	pulse	0.0	t		24.0	female	east_asian	2.9076800636689217	smiling	034	sub-17	2.0	3.0	034_smiling	0.0		183.32537305052392	
27.0	160.50469961862836	fix	1.0		444	24.0	female	east_asian	2.9076800636689217	smiling	034	sub-17	2.0	3.0	034_smiling	0.0		183.52525520537165	3.7583096828020643
27.0	161.0048085891758	pulse	1.0	t		24.0	female	east_asian	2.9076800636689217	smiling	034	sub-17	2.0	3.0	034_smiling	0.0		184.0253641759191	
27.0	161.7047945829836	pulse	1.0	t		24.0	female	east_asian	2.9076800636689217	smiling	034	sub-17	2.0	3.0	034_smiling	0.0		184.72535016972688	
27.0	162.4047914436669	pulse	1.0	t		24.0	female	east_asian	2.9076800636689217	smiling	034	sub-17	2.0	3.0	034_smiling	0.0		185.4253470304102	
27.0	163.10478739878454	pulse	1.0	t		24.0	female	east_asian	2.9076800636689217	smiling	034	sub-17	2.0	3.0	034_smiling	0.0		186.12534298552782	
27.0	163.8047730907274	pulse	1.0	t		24.0	female	east_asian	2.9076800636689217	smiling	034	sub-17	2.0	3.0	034_smiling	0.0		186.82532867747068	
28.0	164.26300930143043	face	0.0		146	24.0	female	black	3.0955033824114606	neutral	099	sub-17	2.0	3.0	099_neutral	0.0		187.28356488817371	1.241636888429639
28.0	164.50477146070625	pulse	0.0	t		24.0	female	black	3.0955033824114606	neutral	099	sub-17	2.0	3.0	099_neutral	0.0		187.52532704744954	
28.0	165.20475986937527	pulse	0.0	t		24.0	female	black	3.0955033824114606	neutral	099	sub-17	2.0	3.0	099_neutral	0.0		188.22531545611855	
28.0	165.50464618986007	fix	1.0		444	24.0	female	black	3.0955033824114606	neutral	099	sub-17	2.0	3.0	099_neutral	0.0		188.52520177660335	3.7666083478106884
28.0	165.90475401334697	pulse	1.0	t		24.0	female	black	3.0955033824114606	neutral	099	sub-17	2.0	3.0	099_neutral	0.0		188.92530960009026	
28.0	166.60474121458537	pulse	1.0	t		24.0	female	black	3.0955033824114606	neutral	099	sub-17	2.0	3.0	099_neutral	0.0		189.62529680132866	
28.0	167.30473445297685	pulse	1.0	t		24.0	female	black	3.0955033824114606	neutral	099	sub-17	2.0	3.0	099_neutral	0.0		190.32529003972013	
28.0	168.00472678580263	pulse	1.0	t		24.0	female	black	3.0955033824114606	neutral	099	sub-17	2.0	3.0	099_neutral	0.0		191.02528237254592	
28.0	168.70471911862842	pulse	1.0	t		24.0	female	black	3.0955033824114606	neutral	099	sub-17	2.0	3.0	099_neutral	0.0		191.7252747053717	
29.0	169.27125453767076	face	0.0		145	19.0	male	white	3.2522881018702745	neutral	018	sub-17	2.0	3.0	018_neutral	1.0	trustworthiness	192.29181012441404	1.233349995862227
29.0	169.4047144700162	pulse	0.0	t		19.0	male	white	3.2522881018702745	neutral	018	sub-17	2.0	3.0	018_neutral	1.0	trustworthiness	192.42527005675947	
29.0	170.10472068827949	pulse	0.0	t		19.0	male	white	3.2522881018702745	neutral	018	sub-17	2.0	3.0	018_neutral	1.0	trustworthiness	193.12527627502277	
29.0	170.50460453353298	fix	1.0		177	19.0	male	white	3.2522881018702745	neutral	018	sub-17	2.0	3.0	018_neutral	1.0	trustworthiness	193.52516012027627	1.4999619659647578
29.0	170.8046973245073	pulse	1.0	t		19.0	male	white	3.2522881018702745	neutral	018	sub-17	2.0	3.0	018_neutral	1.0	trustworthiness	193.82525291125057	
29.0	171.50467124403804	pulse	1.0	t		19.0	male	white	3.2522881018702745	neutral	018	sub-17	2.0	3.0	018_neutral	1.0	trustworthiness	194.52522683078132	
29.0	172.00456649949774	rating	2.0		294	19.0	male	white	3.2522881018702745	neutral	018	sub-17	2.0	3.0	018_neutral	1.0	trustworthiness	195.02512208624103	2.4999858126975596
29.0	172.19957999554754	pulse	2.0	t		19.0	male	white	3.2522881018702745	neutral	018	sub-17	2.0	3.0	018_neutral	1.0	trustworthiness	195.22013558229082	
29.0	172.89953097389662	pulse	2.0	t		19.0	male	white	3.2522881018702745	neutral	018	sub-17	2.0	3.0	018_neutral	1.0	trustworthiness	195.9200865606399	
29.0	173.1213382427377	response	2.0	y		19.0	male	white	3.2522881018702745	neutral	018	sub-17	2.0	3.0	018_neutral	1.0	trustworthiness	196.14189382948098	
29.0	173.60464914806653	pulse	2.0	t		19.0	male	white	3.2522881018702745	neutral	018	sub-17	2.0	3.0	018_neutral	1.0	trustworthiness	196.6252047348098	
29.0	174.30467860934732	pulse	2.0	t		19.0	male	white	3.2522881018702745	neutral	018	sub-17	2.0	3.0	018_neutral	1.0	trustworthiness	197.3252341960906	
29.0	174.5045523121953	fix	3.0		444	19.0	male	white	3.2522881018702745	neutral	018	sub-17	2.0	3.0	018_neutral	1.0	trustworthiness	197.5251078989386	3.766607442230452
29.0	175.00464286943316	pulse	3.0	t		19.0	male	white	3.2522881018702745	neutral	018	sub-17	2.0	3.0	018_neutral	1.0	trustworthiness	198.02519845617644	
29.0	175.70463942825154	pulse	3.0	t		19.0	male	white	3.2522881018702745	neutral	018	sub-17	2.0	3.0	018_neutral	1.0	trustworthiness	198.72519501499482	
29.0	176.4046293462161	pulse	3.0	t		19.0	male	white	3.2522881018702745	neutral	018	sub-17	2.0	3.0	018_neutral	1.0	trustworthiness	199.42518493295938	
29.0	177.10464039420185	pulse	3.0	t		19.0	male	white	3.2522881018702745	neutral	018	sub-17	2.0	3.0	018_neutral	1.0	trustworthiness	200.12519598094514	
29.0	177.80461642671435	pulse	3.0	t		19.0	male	white	3.2522881018702745	neutral	018	sub-17	2.0	3.0	018_neutral	1.0	trustworthiness	200.82517201345763	
30.0	178.27115975442575	face	0.0		145	31.0	male	west_asian	1.9538400318344609	smiling	070	sub-17	2.0	3.0	070_smiling	1.0	attractiveness	201.29171534116904	1.2333183008304331
30.0	178.50461207996705	pulse	0.0	t		31.0	male	west_asian	1.9538400318344609	smiling	070	sub-17	2.0	3.0	070_smiling	1.0	attractiveness	201.52516766671033	
30.0	179.2046092425153	pulse	0.0	t		31.0	male	west_asian	1.9538400318344609	smiling	070	sub-17	2.0	3.0	070_smiling	1.0	attractiveness	202.22516482925857	
30.0	179.5044780552562	fix	1.0		177	31.0	male	west_asian	1.9538400318344609	smiling	070	sub-17	2.0	3.0	070_smiling	1.0	attractiveness	202.52503364199947	1.4999836997012608
30.0	179.90459010475024	pulse	1.0	t		31.0	male	west_asian	1.9538400318344609	smiling	070	sub-17	2.0	3.0	070_smiling	1.0	attractiveness	202.92514569149353	
30.0	180.60458787099924	pulse	1.0	t		31.0	male	west_asian	1.9538400318344609	smiling	070	sub-17	2.0	3.0	070_smiling	1.0	attractiveness	203.62514345774252	
30.0	181.00446175495745	rating	2.0		294	31.0	male	west_asian	1.9538400318344609	smiling	070	sub-17	2.0	3.0	070_smiling	1.0	attractiveness	204.02501734170073	2.4999655882566003
30.0	181.29940002813237	pulse	2.0	t		31.0	male	west_asian	1.9538400318344609	smiling	070	sub-17	2.0	3.0	070_smiling	1.0	attractiveness	204.31995561487565	
30.0	181.99949378505698	pulse	2.0	t		31.0	male	west_asian	1.9538400318344609	smiling	070	sub-17	2.0	3.0	070_smiling	1.0	attractiveness	205.02004937180027	
30.0	182.26289369002916	response	2.0	n		31.0	male	west_asian	1.9538400318344609	smiling	070	sub-17	2.0	3.0	070_smiling	1.0	attractiveness	205.28344927677244	
30.0	182.70455732302798	pulse	2.0	t		31.0	male	west_asian	1.9538400318344609	smiling	070	sub-17	2.0	3.0	070_smiling	1.0	attractiveness	205.72511290977127	
30.0	183.40454754284292	pulse	2.0	t		31.0	male	west_asian	1.9538400318344609	smiling	070	sub-17	2.0	3.0	070_smiling	1.0	attractiveness	206.4251031295862	
30.0	183.50442734321405	fix	3.0		444	31.0	male	west_asian	1.9538400318344609	smiling	070	sub-17	2.0	3.0	070_smiling	1.0	attractiveness	206.52498292995733	3.7666149886645144
30.0	184.10454229052993	pulse	3.0	t		31.0	male	west_asian	1.9538400318344609	smiling	070	sub-17	2.0	3.0	070_smiling	1.0	attractiveness	207.12509787727322	
30.0	184.80453734006733	pulse	3.0	t		31.0	male	west_asian	1.9538400318344609	smiling	070	sub-17	2.0	3.0	070_smiling	1.0	attractiveness	207.8250929268106	
30.0	185.5045206171635	pulse	3.0	t		31.0	male	west_asian	1.9538400318344609	smiling	070	sub-17	2.0	3.0	070_smiling	1.0	attractiveness	208.5250762039068	
30.0	186.20451657226658	pulse	3.0	t		31.0	male	west_asian	1.9538400318344609	smiling	070	sub-17	2.0	3.0	070_smiling	1.0	attractiveness	209.22507215900987	
30.0	186.9044916992134	pulse	3.0	t		31.0	male	west_asian	1.9538400318344609	smiling	070	sub-17	2.0	3.0	070_smiling	1.0	attractiveness	209.92504728595668	
31.0	187.27104233187856	face	0.0		145	40.0	male	black	2.408674890569041	neutral	061	sub-17	2.0	3.0	061_neutral	0.0		210.29159791862185	1.2333231305528898
31.0	187.60451210477913	pulse	0.0	t		40.0	male	black	2.408674890569041	neutral	061	sub-17	2.0	3.0	061_neutral	0.0		210.62506769152242	
31.0	188.30449387259432	pulse	0.0	t		40.0	male	black	2.408674890569041	neutral	061	sub-17	2.0	3.0	061_neutral	0.0		211.3250494593376	
31.0	188.50436546243145	fix	1.0		444	40.0	male	black	2.408674890569041	neutral	061	sub-17	2.0	3.0	061_neutral	0.0		211.52492104917474	3.7584331425023265
31.0	189.00448318684357	pulse	1.0	t		40.0	male	black	2.408674890569041	neutral	061	sub-17	2.0	3.0	061_neutral	0.0		212.02503877358686	
31.0	189.7044749159395	pulse	1.0	t		40.0	male	black	2.408674890569041	neutral	061	sub-17	2.0	3.0	061_neutral	0.0		212.72503050268278	
31.0	190.40447388963366	pulse	1.0	t		40.0	male	black	2.408674890569041	neutral	061	sub-17	2.0	3.0	061_neutral	0.0		213.42502947637695	
31.0	191.1044662224449	pulse	1.0	t		40.0	male	black	2.408674890569041	neutral	061	sub-17	2.0	3.0	061_neutral	0.0		214.12502180918818	
31.0	191.8044709314272	pulse	1.0	t		40.0	male	black	2.408674890569041	neutral	061	sub-17	2.0	3.0	061_neutral	0.0		214.8250265181705	
32.0	192.26279860493378	face	0.0		146	23.0	male	white	2.6275368085953046	smiling	141	sub-17	2.0	3.0	141_smiling	0.0		215.28335419167706	1.241511315733078
32.0	192.50444515279378	pulse	0.0	t		23.0	male	white	2.6275368085953046	smiling	141	sub-17	2.0	3.0	141_smiling	0.0		215.52500073953706	
32.0	193.2044326558971	pulse	0.0	t		23.0	male	white	2.6275368085953046	smiling	141	sub-17	2.0	3.0	141_smiling	0.0		216.2249882426404	
32.0	193.50430992066686	fix	1.0		444	23.0	male	white	2.6275368085953046	smiling	141	sub-17	2.0	3.0	141_smiling	0.0		216.52486550741014	3.7583154180902056
32.0	193.90443193144165	pulse	1.0	t		23.0	male	white	2.6275368085953046	smiling	141	sub-17	2.0	3.0	141_smiling	0.0		216.92498751818493	
32.0	194.6044318107015	pulse	1.0	t		23.0	male	white	2.6275368085953046	smiling	141	sub-17	2.0	3.0	141_smiling	0.0		217.62498739744478	
32.0	195.30447787414596	pulse	1.0	t		23.0	male	white	2.6275368085953046	smiling	141	sub-17	2.0	3.0	141_smiling	0.0		218.32503346088924	
32.0	196.00440772247384	pulse	1.0	t		23.0	male	white	2.6275368085953046	smiling	141	sub-17	2.0	3.0	141_smiling	0.0		219.02496330921713	
32.0	196.7043985460041	pulse	1.0	t		23.0	male	white	2.6275368085953046	smiling	141	sub-17	2.0	3.0	141_smiling	0.0		219.72495413274737	
33.0	197.26262533875706	face	0.0		146	26.0	male	white	2.7966573816155993	smiling	117	sub-17	2.0	3.0	117_smiling	0.0		220.28318092550035	1.241630247561261
33.0	197.40438846396864	pulse	0.0	t		26.0	male	white	2.7966573816155993	smiling	117	sub-17	2.0	3.0	117_smiling	0.0		220.42494405071193	
33.0	198.10437808008282	pulse	0.0	t		26.0	male	white	2.7966573816155993	smiling	117	sub-17	2.0	3.0	117_smiling	0.0		221.1249336668261	
33.0	198.50425558631832	fix	1.0		444	26.0	male	white	2.7966573816155993	smiling	117	sub-17	2.0	3.0	117_smiling	0.0		221.5248111730616	3.7666140830988297
33.0	198.80466955363227	pulse	1.0	t		26.0	male	white	2.7966573816155993	smiling	117	sub-17	2.0	3.0	117_smiling	0.0		221.82522514037555	
33.0	199.5043618401396	pulse	1.0	t		26.0	male	white	2.7966573816155993	smiling	117	sub-17	2.0	3.0	117_smiling	0.0		222.5249174268829	
33.0	200.20436021011847	pulse	1.0	t		26.0	male	white	2.7966573816155993	smiling	117	sub-17	2.0	3.0	117_smiling	0.0		223.22491579686175	
33.0	200.90434952436772	pulse	1.0	t		26.0	male	white	2.7966573816155993	smiling	117	sub-17	2.0	3.0	117_smiling	0.0		223.924905111111	
33.0	201.6043364237412	pulse	1.0	t		26.0	male	white	2.7966573816155993	smiling	117	sub-17	2.0	3.0	117_smiling	0.0		224.62489201048447	
34.0	202.27086966941715	face	0.0		145	24.0	female	east_asian	4.409868682849185	neutral	030	sub-17	2.0	3.0	030_neutral	0.0		225.29142525616044	1.2333333937131101
34.0	202.30436829989776	pulse	0.0	t		24.0	female	east_asian	4.409868682849185	neutral	030	sub-17	2.0	3.0	030_neutral	0.0		225.32492388664105	
34.0	203.00432078752783	pulse	0.0	t		24.0	female	east_asian	4.409868682849185	neutral	030	sub-17	2.0	3.0	030_neutral	0.0		226.02487637427112	
34.0	203.50420306313026	fix	1.0		443	24.0	female	east_asian	4.409868682849185	neutral	030	sub-17	2.0	3.0	030_neutral	0.0		226.52475864987355	3.7583996363246115
34.0	203.70432640207582	pulse	1.0	t		24.0	female	east_asian	4.409868682849185	neutral	030	sub-17	2.0	3.0	030_neutral	0.0		226.7248819888191	
34.0	204.4043265832006	pulse	1.0	t		24.0	female	east_asian	4.409868682849185	neutral	030	sub-17	2.0	3.0	030_neutral	0.0		227.42488216994388	
34.0	205.10429506927903	pulse	1.0	t		24.0	female	east_asian	4.409868682849185	neutral	030	sub-17	2.0	3.0	030_neutral	0.0		228.12485065602232	
34.0	205.8042910243821	pulse	1.0	t		24.0	female	east_asian	4.409868682849185	neutral	030	sub-17	2.0	3.0	030_neutral	0.0		228.8248466111254	
34.0	206.5042839609232	pulse	1.0	t		24.0	female	east_asian	4.409868682849185	neutral	030	sub-17	2.0	3.0	030_neutral	0.0		229.5248395476665	
34.0	207.20426663430408	pulse	1.0	t		24.0	female	east_asian	4.409868682849185	neutral	030	sub-17	2.0	3.0	030_neutral	0.0		230.22482222104736	
35.0	207.26260269945487	face	0.0		147	24.0	female	black	3.0955033824114606	smiling	099	sub-17	2.0	3.0	099_smiling	0.0		230.28315828619816	1.2415508590493118
35.0	207.90425111883087	pulse	0.0	t		24.0	female	black	3.0955033824114606	smiling	099	sub-17	2.0	3.0	099_smiling	0.0		230.92480670557416	
35.0	208.50415355850419	fix	1.0		443	24.0	female	black	3.0955033824114606	smiling	099	sub-17	2.0	3.0	099_smiling	0.0		231.52470914524747	3.7665989902307047
35.0	208.60429023955658	pulse	1.0	t		24.0	female	black	3.0955033824114606	smiling	099	sub-17	2.0	3.0	099_smiling	0.0		231.62484582629986	
35.0	209.30424876433972	pulse	1.0	t		24.0	female	black	3.0955033824114606	smiling	099	sub-17	2.0	3.0	099_smiling	0.0		232.324804351083	
35.0	210.00423928601958	pulse	1.0	t		24.0	female	black	3.0955033824114606	smiling	099	sub-17	2.0	3.0	099_smiling	0.0		233.02479487276287	
35.0	210.70425244700164	pulse	1.0	t		24.0	female	black	3.0955033824114606	smiling	099	sub-17	2.0	3.0	099_smiling	0.0		233.72480803374492	
35.0	211.40426923027553	pulse	1.0	t		24.0	female	black	3.0955033824114606	smiling	099	sub-17	2.0	3.0	099_smiling	0.0		234.42482481701882	
35.0	212.10421779376338	pulse	1.0	t		24.0	female	black	3.0955033824114606	smiling	099	sub-17	2.0	3.0	099_smiling	0.0		235.12477338050667	
36.0	212.2707525487349	face	0.0		146	31.0	female	white	2.1822522881018704	neutral	102	sub-17	2.0	3.0	102_neutral	0.0		235.29130813547818	1.2333346011291724
36.0	212.8042119377351	pulse	0.0	t		31.0	female	white	2.1822522881018704	neutral	102	sub-17	2.0	3.0	102_neutral	0.0		235.82476752447837	
36.0	213.50408714986406	fix	1.0		444	31.0	female	white	2.1822522881018704	neutral	102	sub-17	2.0	3.0	102_neutral	0.0		236.52464273660735	3.766611366387224
36.0	213.51159947621636	pulse	1.0	t		31.0	female	white	2.1822522881018704	neutral	102	sub-17	2.0	3.0	102_neutral	0.0		236.53215506295965	
36.0	214.20418845322274	pulse	1.0	t		31.0	female	white	2.1822522881018704	neutral	102	sub-17	2.0	3.0	102_neutral	0.0		237.22474403996603	
36.0	214.9041868232016	pulse	1.0	t		31.0	female	white	2.1822522881018704	neutral	102	sub-17	2.0	3.0	102_neutral	0.0		237.92474240994488	
36.0	215.60417372257507	pulse	1.0	t		31.0	female	white	2.1822522881018704	neutral	102	sub-17	2.0	3.0	102_neutral	0.0		238.62472930931835	
36.0	216.30417903527268	pulse	1.0	t		31.0	female	white	2.1822522881018704	neutral	102	sub-17	2.0	3.0	102_neutral	0.0		239.32473462201597	
36.0	217.0041632179491	pulse	1.0	t		31.0	female	white	2.1822522881018704	neutral	102	sub-17	2.0	3.0	102_neutral	0.0		240.02471880469238	
37.0	217.2706985162513	face	0.0		145	21.0	male	east_asian/white	3.501790688420215	smiling	036	sub-17	2.0	3.0	036_smiling	0.0		240.29125410299457	1.233328865841031
37.0	217.7041594749171	pulse	0.0	t		21.0	male	east_asian/white	3.501790688420215	smiling	036	sub-17	2.0	3.0	036_smiling	0.0		240.7247150616604	
37.0	218.40414275201329	pulse	0.0	t		21.0	male	east_asian/white	3.501790688420215	smiling	036	sub-17	2.0	3.0	036_smiling	0.0		241.42469833875657	
37.0	218.50402738209232	fix	1.0		444	21.0	male	east_asian/white	3.501790688420215	smiling	036	sub-17	2.0	3.0	036_smiling	0.0		241.5245829688356	3.7583431889797794
37.0	219.10413599040476	pulse	1.0	t		21.0	male	east_asian/white	3.501790688420215	smiling	036	sub-17	2.0	3.0	036_smiling	0.0		242.12469157714804	
37.0	219.80412590836931	pulse	1.0	t		21.0	male	east_asian/white	3.501790688420215	smiling	036	sub-17	2.0	3.0	036_smiling	0.0		242.8246814951126	
37.0	220.50413695634052	pulse	1.0	t		21.0	male	east_asian/white	3.501790688420215	smiling	036	sub-17	2.0	3.0	036_smiling	0.0		243.5246925430838	
37.0	221.2041160074441	pulse	1.0	t		21.0	male	east_asian/white	3.501790688420215	smiling	036	sub-17	2.0	3.0	036_smiling	0.0		244.22467159418738	
37.0	221.90410139753658	pulse	1.0	t		21.0	male	east_asian/white	3.501790688420215	smiling	036	sub-17	2.0	3.0	036_smiling	0.0		244.92465698427986	
38.0	222.2623705710721	face	0.0		146	22.0	female	white	4.614007162753682	smiling	009	sub-17	2.0	3.0	009_smiling	0.0		245.28292615781538	1.2416012692410732
38.0	222.60409584335866	pulse	0.0	t		22.0	female	white	4.614007162753682	smiling	009	sub-17	2.0	3.0	009_smiling	0.0		245.62465143010195	
38.0	223.30408847803483	pulse	0.0	t		22.0	female	white	4.614007162753682	smiling	009	sub-17	2.0	3.0	009_smiling	0.0		246.3246440647781	
38.0	223.50397184031317	fix	1.0		444	22.0	female	white	4.614007162753682	smiling	009	sub-17	2.0	3.0	009_smiling	0.0		246.52452742705646	3.766608649675618
38.0	224.0040802071453	pulse	1.0	t		22.0	female	white	4.614007162753682	smiling	009	sub-17	2.0	3.0	009_smiling	0.0		247.0246357938886	
38.0	224.70408551982837	pulse	1.0	t		22.0	female	white	4.614007162753682	smiling	009	sub-17	2.0	3.0	009_smiling	0.0		247.72464110657165	
38.0	225.4040687969391	pulse	1.0	t		22.0	female	white	4.614007162753682	smiling	009	sub-17	2.0	3.0	009_smiling	0.0		248.42462438368239	
38.0	226.10404030159407	pulse	1.0	t		22.0	female	white	4.614007162753682	smiling	009	sub-17	2.0	3.0	009_smiling	0.0		249.12459588833735	
38.0	226.80404742542305	pulse	1.0	t		22.0	female	white	4.614007162753682	smiling	009	sub-17	2.0	3.0	009_smiling	0.0		249.82460301216634	
39.0	227.2705804899888	face	0.0		145	24.0	male	white	3.1153999204138483	smiling	012	sub-17	2.0	3.0	012_smiling	0.0		250.29113607673207	1.2333240361185744
39.0	227.5040355322417	pulse	0.0	t		24.0	male	white	3.1153999204138483	smiling	012	sub-17	2.0	3.0	012_smiling	0.0		250.52459111898497	
39.0	228.204040241224	pulse	0.0	t		24.0	male	white	3.1153999204138483	smiling	012	sub-17	2.0	3.0	012_smiling	0.0		251.22459582796728	
39.0	228.50390452610736	fix	1.0		444	24.0	male	white	3.1153999204138483	smiling	012	sub-17	2.0	3.0	012_smiling	0.0		251.52446011285065	3.7499663428898202
39.0	228.90403559261176	pulse	1.0	t		24.0	male	white	3.1153999204138483	smiling	012	sub-17	2.0	3.0	012_smiling	0.0		251.92459117935505	
39.0	229.60400438055512	pulse	1.0	t		24.0	male	white	3.1153999204138483	smiling	012	sub-17	2.0	3.0	012_smiling	0.0		252.6245599672984	
39.0	230.3040072783915	pulse	1.0	t		24.0	male	white	3.1153999204138483	smiling	012	sub-17	2.0	3.0	012_smiling	0.0		253.3245628651348	
39.0	231.00399749820645	pulse	1.0	t		24.0	male	white	3.1153999204138483	smiling	012	sub-17	2.0	3.0	012_smiling	0.0		254.02455308494973	
39.0	231.70398711430607	pulse	1.0	t		24.0	male	white	3.1153999204138483	smiling	012	sub-17	2.0	3.0	012_smiling	0.0		254.72454270104936	
40.0	232.25387086899718	fix	0.0		720													255.27442645574047	5.999925441210507
40.0	232.40398427683976	pulse	0.0	t														255.42453986358305	
40.0	233.1039775152458	pulse	0.0	t														256.1245331019891	
40.0	233.8039668294805	pulse	0.0	t														256.8245224162238	
40.0	234.50395674744505	pulse	0.0	t														257.52451233418833	
40.0	235.2039481746906	pulse	0.0	t														258.2245037614339	
40.0	235.90394262051268	pulse	0.0	t														258.92449820725597	
40.0	236.60393284034217	pulse	0.0	t														259.62448842708545	
40.0	237.30392939916055	pulse	0.0	t														260.32448498590384	
40.0	238.00391690226388	pulse	0.0	t														261.02447248900717	
