trial_nr	onset	event_type	phase	response	nr_frames	face_age	face_sex	face_eth	attractiveness	expression	face_id	sub_id	ses	run	trial_type	catch	onset_abs	duration
-1.0	0.05872283419921587	fix	0.0		713												96.95731229687044	5.957929288096693
-1.0	0.700210483356841	pulse	0.0	t													97.59879994602807	
-1.0	1.4002132906066436	pulse	0.0	t													98.29880275327787	
-1.0	2.1001991939870095	pulse	0.0	t													98.99878865665823	
-1.0	2.8001929455926984	pulse	0.0	t													99.69878240826392	
-1.0	3.5001586247008163	pulse	0.0	t													100.39874808737204	
-1.0	4.200156904128562	pulse	0.0	t													101.09874636679979	
-1.0	4.90013556299391	pulse	0.0	t													101.79872502566514	
-1.0	5.600122371938596	pulse	0.0	t													102.49871183460982	
0.0	6.016652122295909	face	0.0		144	21.0	male	black	2.969757262236371	smiling	137	sub-02	1.0	1.0	137_smiling	0.0	102.91524158496713	1.2333295400244424
0.0	6.300069336049091	pulse	0.0	t		21.0	male	black	2.969757262236371	smiling	137	sub-02	1.0	1.0	137_smiling	0.0	103.19865879872032	
0.0	7.000057352413023	pulse	0.0	t		21.0	male	black	2.969757262236371	smiling	137	sub-02	1.0	1.0	137_smiling	0.0	103.89864681508425	
0.0	7.2499816623203515	fix	1.0		444	21.0	male	black	2.969757262236371	smiling	137	sub-02	1.0	1.0	137_smiling	0.0	104.14857112499158	3.766559377406338
0.0	7.7000843080472805	pulse	1.0	t		21.0	male	black	2.969757262236371	smiling	137	sub-02	1.0	1.0	137_smiling	0.0	104.5986737707185	
0.0	8.400063268767553	pulse	1.0	t		21.0	male	black	2.969757262236371	smiling	137	sub-02	1.0	1.0	137_smiling	0.0	105.29865273143878	
0.0	9.10005249255073	pulse	1.0	t		21.0	male	black	2.969757262236371	smiling	137	sub-02	1.0	1.0	137_smiling	0.0	105.99864195522196	
0.0	9.800033264399644	pulse	1.0	t		21.0	male	black	2.969757262236371	smiling	137	sub-02	1.0	1.0	137_smiling	0.0	106.69862272707087	
0.0	10.500013734393633	pulse	1.0	t		21.0	male	black	2.969757262236371	smiling	137	sub-02	1.0	1.0	137_smiling	0.0	107.39860319706486	
1.0	11.01654103972669	face	0.0		145	31.0	male	west_asian	1.9538400318344609	neutral	070	sub-02	1.0	1.0	070_neutral	0.0	107.91513050239791	1.2332930155930626
1.0	11.199958887375033	pulse	0.0	t		31.0	male	west_asian	1.9538400318344609	neutral	070	sub-02	1.0	1.0	070_neutral	0.0	108.09854835004626	
1.0	11.899992483814913	pulse	0.0	t		31.0	male	west_asian	1.9538400318344609	neutral	070	sub-02	1.0	1.0	070_neutral	0.0	108.79858194648614	
1.0	12.249834055319752	fix	1.0		444	31.0	male	west_asian	1.9538400318344609	neutral	070	sub-02	1.0	1.0	070_neutral	0.0	109.14842351799098	3.7666028444982658
1.0	12.599978085340808	pulse	1.0	t		31.0	male	west_asian	1.9538400318344609	neutral	070	sub-02	1.0	1.0	070_neutral	0.0	109.49856754801203	
1.0	13.299965497995345	pulse	1.0	t		31.0	male	west_asian	1.9538400318344609	neutral	070	sub-02	1.0	1.0	070_neutral	0.0	110.19855496066657	
1.0	13.999953212504806	pulse	1.0	t		31.0	male	west_asian	1.9538400318344609	neutral	070	sub-02	1.0	1.0	070_neutral	0.0	110.89854267517603	
1.0	14.6999318713697	pulse	1.0	t		31.0	male	west_asian	1.9538400318344609	neutral	070	sub-02	1.0	1.0	070_neutral	0.0	111.59852133404092	
1.0	15.399918378459915	pulse	1.0	t		31.0	male	west_asian	1.9538400318344609	neutral	070	sub-02	1.0	1.0	070_neutral	0.0	112.29850784113114	
2.0	16.016436899818018	face	0.0		145	22.0	male	black	2.767608436132113	smiling	044	sub-02	1.0	1.0	044_smiling	1.0	112.91502636248924	1.233331049298613
2.0	16.09984723128173	pulse	0.0	t		22.0	male	black	2.767608436132113	smiling	044	sub-02	1.0	1.0	044_smiling	1.0	112.99843669395295	
2.0	16.799844001435304	pulse	0.0	t		22.0	male	black	2.767608436132113	smiling	044	sub-02	1.0	1.0	044_smiling	1.0	113.69843346410653	
2.0	17.24976794911663	fix	1.0		236	22.0	male	black	2.767608436132113	smiling	044	sub-02	1.0	1.0	044_smiling	1.0	114.14835741178786	2.0083079498595
2.0	17.499845299410936	pulse	1.0	t		22.0	male	black	2.767608436132113	smiling	044	sub-02	1.0	1.0	044_smiling	1.0	114.39843476208216	
2.0	18.199849314079984	pulse	1.0	t		22.0	male	black	2.767608436132113	smiling	044	sub-02	1.0	1.0	044_smiling	1.0	115.09843877675121	
2.0	18.899849706491295	pulse	1.0	t		22.0	male	black	2.767608436132113	smiling	044	sub-02	1.0	1.0	044_smiling	1.0	115.79843916916252	
2.0	19.25807589897613	rating	2.0		234	22.0	male	black	2.767608436132113	smiling	044	sub-02	1.0	1.0	044_smiling	1.0	116.15666536164736	1.9916132660359835
2.0	19.59984225067774	pulse	2.0	t		22.0	male	black	2.767608436132113	smiling	044	sub-02	1.0	1.0	044_smiling	1.0	116.49843171334896	
2.0	20.299819702123386	pulse	2.0	t		22.0	male	black	2.767608436132113	smiling	044	sub-02	1.0	1.0	044_smiling	1.0	117.19840916479461	
2.0	20.47780959662805	response	2.0	w		22.0	male	black	2.767608436132113	smiling	044	sub-02	1.0	1.0	044_smiling	1.0	117.37639905929927	
2.0	20.99980228510094	pulse	2.0	t		22.0	male	black	2.767608436132113	smiling	044	sub-02	1.0	1.0	044_smiling	1.0	117.89839174777217	
2.0	21.249689165012114	fix	3.0		444	22.0	male	black	2.767608436132113	smiling	044	sub-02	1.0	1.0	044_smiling	1.0	118.14827862768334	3.7582263735976085
2.0	21.699832862992935	pulse	3.0	t		22.0	male	black	2.767608436132113	smiling	044	sub-02	1.0	1.0	044_smiling	1.0	118.59842232566416	
2.0	22.399773790007202	pulse	3.0	t		22.0	male	black	2.767608436132113	smiling	044	sub-02	1.0	1.0	044_smiling	1.0	119.29836325267843	
2.0	23.09975244887255	pulse	3.0	t		22.0	male	black	2.767608436132113	smiling	044	sub-02	1.0	1.0	044_smiling	1.0	119.99834191154378	
2.0	23.79974710604256	pulse	3.0	t		22.0	male	black	2.767608436132113	smiling	044	sub-02	1.0	1.0	044_smiling	1.0	120.69833656871378	
2.0	24.49972093523047	pulse	3.0	t		22.0	male	black	2.767608436132113	smiling	044	sub-02	1.0	1.0	044_smiling	1.0	121.3983103979017	
3.0	25.007915538609723	face	0.0		146	27.0	male	black	3.5523278949462798	neutral	042	sub-02	1.0	1.0	042_neutral	1.0	121.90650500128095	1.2416260194017923
3.0	25.199674842001514	pulse	0.0	t		27.0	male	black	3.5523278949462798	neutral	042	sub-02	1.0	1.0	042_neutral	1.0	122.09826430467274	
3.0	25.899654104576257	pulse	0.0	t		27.0	male	black	3.5523278949462798	neutral	042	sub-02	1.0	1.0	042_neutral	1.0	122.79824356724748	
3.0	26.249541558011515	fix	1.0		236	27.0	male	black	3.5523278949462798	neutral	042	sub-02	1.0	1.0	042_neutral	1.0	123.14813102068274	2.000002112983566
3.0	26.599688304725987	pulse	1.0	t		27.0	male	black	3.5523278949462798	neutral	042	sub-02	1.0	1.0	042_neutral	1.0	123.49827776739721	
3.0	27.29967601923545	pulse	1.0	t		27.0	male	black	3.5523278949462798	neutral	042	sub-02	1.0	1.0	042_neutral	1.0	124.19826548190667	
3.0	27.99967097825993	pulse	1.0	t		27.0	male	black	3.5523278949462798	neutral	042	sub-02	1.0	1.0	042_neutral	1.0	124.89826044093115	
3.0	28.24954367099508	rating	2.0		235	27.0	male	black	3.5523278949462798	neutral	042	sub-02	1.0	1.0	042_neutral	1.0	125.1481331336663	1.9999556273432972
3.0	28.699652353818237	pulse	2.0	t		27.0	male	black	3.5523278949462798	neutral	042	sub-02	1.0	1.0	042_neutral	1.0	125.59824181648946	
3.0	29.049641834178146	response	2.0	y		27.0	male	black	3.5523278949462798	neutral	042	sub-02	1.0	1.0	042_neutral	1.0	125.94823129684937	
3.0	29.39961712736249	pulse	2.0	t		27.0	male	black	3.5523278949462798	neutral	042	sub-02	1.0	1.0	042_neutral	1.0	126.29820659003371	
3.0	30.099609671548478	pulse	2.0	t		27.0	male	black	3.5523278949462798	neutral	042	sub-02	1.0	1.0	042_neutral	1.0	126.9981991342197	
3.0	30.249499298338378	fix	3.0		445	27.0	male	black	3.5523278949462798	neutral	042	sub-02	1.0	1.0	042_neutral	1.0	127.1480887610096	3.7665602829706586
3.0	30.799603423154167	pulse	3.0	t		27.0	male	black	3.5523278949462798	neutral	042	sub-02	1.0	1.0	042_neutral	1.0	127.69819288582539	
3.0	31.499587515405892	pulse	3.0	t		27.0	male	black	3.5523278949462798	neutral	042	sub-02	1.0	1.0	042_neutral	1.0	128.39817697807712	
3.0	32.19957160765762	pulse	3.0	t		27.0	male	black	3.5523278949462798	neutral	042	sub-02	1.0	1.0	042_neutral	1.0	129.09816107032884	
3.0	32.89955449248964	pulse	3.0	t		27.0	male	black	3.5523278949462798	neutral	042	sub-02	1.0	1.0	042_neutral	1.0	129.79814395516087	
3.0	33.59954009401554	pulse	3.0	t		27.0	male	black	3.5523278949462798	neutral	042	sub-02	1.0	1.0	042_neutral	1.0	130.49812955668676	
4.0	34.01605958130904	face	0.0		145	30.0	female	black	2.7345801830481498	neutral	062	sub-02	1.0	1.0	062_neutral	0.0	130.91464904398026	1.2332954304315535
4.0	34.29948796369035	pulse	0.0	t		30.0	female	black	2.7345801830481498	neutral	062	sub-02	1.0	1.0	062_neutral	0.0	131.19807742636158	
4.0	34.99946933924866	pulse	0.0	t		30.0	female	black	2.7345801830481498	neutral	062	sub-02	1.0	1.0	062_neutral	0.0	131.8980588019199	
4.0	35.24935501174059	fix	1.0		444	30.0	female	black	2.7345801830481498	neutral	062	sub-02	1.0	1.0	062_neutral	0.0	132.14794447441182	3.7666004296602296
4.0	35.69949870972141	pulse	1.0	t		30.0	female	black	2.7345801830481498	neutral	062	sub-02	1.0	1.0	062_neutral	0.0	132.59808817239264	
4.0	36.399482198263286	pulse	1.0	t		30.0	female	black	2.7345801830481498	neutral	062	sub-02	1.0	1.0	062_neutral	0.0	133.2980716609345	
4.0	37.09946629051501	pulse	1.0	t		30.0	female	black	2.7345801830481498	neutral	062	sub-02	1.0	1.0	062_neutral	0.0	133.99805575318624	
4.0	37.79945491058879	pulse	1.0	t		30.0	female	black	2.7345801830481498	neutral	062	sub-02	1.0	1.0	062_neutral	0.0	134.69804437326002	
4.0	38.49943658800203	pulse	1.0	t		30.0	female	black	2.7345801830481498	neutral	062	sub-02	1.0	1.0	062_neutral	0.0	135.39802605067325	
5.0	39.01595544140082	face	0.0		145	20.0	male	black	3.1070433744528456	neutral	082	sub-02	1.0	1.0	082_neutral	0.0	135.91454490407205	1.2332930155926078
5.0	39.19942611364013	pulse	0.0	t		20.0	male	black	3.1070433744528456	neutral	082	sub-02	1.0	1.0	082_neutral	0.0	136.09801557631135	
5.0	39.89935738130089	pulse	0.0	t		20.0	male	black	3.1070433744528456	neutral	082	sub-02	1.0	1.0	082_neutral	0.0	136.7979468439721	
5.0	40.24924845699343	fix	1.0		444	20.0	male	black	3.1070433744528456	neutral	082	sub-02	1.0	1.0	082_neutral	0.0	137.14783791966465	3.7582668221421045
5.0	40.59939973152996	pulse	1.0	t		20.0	male	black	3.1070433744528456	neutral	082	sub-02	1.0	1.0	082_neutral	0.0	137.49798919420118	
5.0	41.29938503120093	pulse	1.0	t		20.0	male	black	3.1070433744528456	neutral	082	sub-02	1.0	1.0	082_neutral	0.0	138.19797449387215	
5.0	41.99936821788833	pulse	1.0	t		20.0	male	black	3.1070433744528456	neutral	082	sub-02	1.0	1.0	082_neutral	0.0	138.89795768055956	
5.0	42.69935019715649	pulse	1.0	t		20.0	male	black	3.1070433744528456	neutral	082	sub-02	1.0	1.0	082_neutral	0.0	139.59793965982772	
5.0	43.39933519497254	pulse	1.0	t		20.0	male	black	3.1070433744528456	neutral	082	sub-02	1.0	1.0	082_neutral	0.0	140.29792465764376	
6.0	44.00751527913553	face	0.0		146	22.0	male	black	2.767608436132113	neutral	044	sub-02	1.0	1.0	044_neutral	0.0	140.90610474180676	1.2416305472233944
6.0	44.09928185722811	pulse	0.0	t		22.0	male	black	2.767608436132113	neutral	044	sub-02	1.0	1.0	044_neutral	0.0	140.99787131989933	
6.0	44.799301266491966	pulse	0.0	t		22.0	male	black	2.767608436132113	neutral	044	sub-02	1.0	1.0	044_neutral	0.0	141.6978907291632	
6.0	45.24914582635893	fix	1.0		445	22.0	male	black	2.767608436132113	neutral	044	sub-02	1.0	1.0	044_neutral	0.0	142.14773528903015	3.7749346408882047
6.0	45.499291999549314	pulse	1.0	t		22.0	male	black	2.767608436132113	neutral	044	sub-02	1.0	1.0	044_neutral	0.0	142.39788146222054	
6.0	46.199277299220284	pulse	1.0	t		22.0	male	black	2.767608436132113	neutral	044	sub-02	1.0	1.0	044_neutral	0.0	143.0978667618915	
6.0	46.899263504455575	pulse	1.0	t		22.0	male	black	2.767608436132113	neutral	044	sub-02	1.0	1.0	044_neutral	0.0	143.7978529671268	
6.0	47.59924850227162	pulse	1.0	t		22.0	male	black	2.767608436132113	neutral	044	sub-02	1.0	1.0	044_neutral	0.0	144.49783796494285	
6.0	48.29922987782993	pulse	1.0	t		22.0	male	black	2.767608436132113	neutral	044	sub-02	1.0	1.0	044_neutral	0.0	145.19781934050116	
6.0	48.999223025726224	pulse	1.0	t		22.0	male	black	2.767608436132113	neutral	044	sub-02	1.0	1.0	044_neutral	0.0	145.89781248839745	
7.0	49.02408046724713	face	0.0		146	31.0	female	west_asian	2.364902506963788	neutral	006	sub-02	1.0	1.0	006_neutral	1.0	145.92266992991836	1.233276111723626
7.0	49.699159726772905	pulse	0.0	t		31.0	female	west_asian	2.364902506963788	neutral	006	sub-02	1.0	1.0	006_neutral	1.0	146.59774918944413	
7.0	50.25735657897076	fix	1.0		236	31.0	female	west_asian	2.364902506963788	neutral	006	sub-02	1.0	1.0	006_neutral	1.0	147.15594604164198	2.000005131531452
7.0	50.39918939910058	pulse	1.0	t		31.0	female	west_asian	2.364902506963788	neutral	006	sub-02	1.0	1.0	006_neutral	1.0	147.2977788617718	
7.0	51.09917741546451	pulse	1.0	t		31.0	female	west_asian	2.364902506963788	neutral	006	sub-02	1.0	1.0	006_neutral	1.0	147.99776687813574	
7.0	51.799151244652876	pulse	1.0	t		31.0	female	west_asian	2.364902506963788	neutral	006	sub-02	1.0	1.0	006_neutral	1.0	148.6977407073241	
7.0	52.25736171050221	rating	2.0		235	31.0	female	west_asian	2.364902506963788	neutral	006	sub-02	1.0	1.0	006_neutral	1.0	149.15595117317343	1.9999577403273179
7.0	52.49916854093317	pulse	2.0	t		31.0	female	west_asian	2.364902506963788	neutral	006	sub-02	1.0	1.0	006_neutral	1.0	149.3977580036044	
7.0	53.19913935157365	pulse	2.0	t		31.0	female	west_asian	2.364902506963788	neutral	006	sub-02	1.0	1.0	006_neutral	1.0	150.09772881424487	
7.0	53.585462491370436	response	2.0	b		31.0	female	west_asian	2.364902506963788	neutral	006	sub-02	1.0	1.0	006_neutral	1.0	150.48405195404166	
7.0	53.89911136963292	pulse	2.0	t		31.0	female	west_asian	2.364902506963788	neutral	006	sub-02	1.0	1.0	006_neutral	1.0	150.79770083230414	
7.0	54.25731945082953	fix	3.0		444	31.0	female	west_asian	2.364902506963788	neutral	006	sub-02	1.0	1.0	006_neutral	1.0	151.15590891350075	3.7665720553081883
7.0	54.59910300825459	pulse	3.0	t		31.0	female	west_asian	2.364902506963788	neutral	006	sub-02	1.0	1.0	006_neutral	1.0	151.4976924709258	
7.0	55.29909736356967	pulse	3.0	t		31.0	female	west_asian	2.364902506963788	neutral	006	sub-02	1.0	1.0	006_neutral	1.0	152.1976868262409	
7.0	55.99907783356366	pulse	3.0	t		31.0	female	west_asian	2.364902506963788	neutral	006	sub-02	1.0	1.0	006_neutral	1.0	152.89766729623489	
7.0	56.69905619057408	pulse	3.0	t		31.0	female	west_asian	2.364902506963788	neutral	006	sub-02	1.0	1.0	006_neutral	1.0	153.5976456532453	
7.0	57.3990426976643	pulse	3.0	t		31.0	female	west_asian	2.364902506963788	neutral	006	sub-02	1.0	1.0	006_neutral	1.0	154.29763216033552	
8.0	58.023891506137716	face	0.0		145	28.0	male	white	3.9076800636689217	smiling	033	sub-02	1.0	1.0	033_smiling	0.0	154.92248096880894	1.2333207862352538
8.0	58.098993887741926	pulse	0.0	t		28.0	male	white	3.9076800636689217	smiling	033	sub-02	1.0	1.0	033_smiling	0.0	154.99758335041315	
8.0	58.798973452171595	pulse	0.0	t		28.0	male	white	3.9076800636689217	smiling	033	sub-02	1.0	1.0	033_smiling	0.0	155.69756291484282	
8.0	59.25721229237297	fix	1.0		444	28.0	male	white	3.9076800636689217	smiling	033	sub-02	1.0	1.0	033_smiling	0.0	156.1558017550442	3.766575979420395
8.0	59.49900312449881	pulse	1.0	t		28.0	male	white	3.9076800636689217	smiling	033	sub-02	1.0	1.0	033_smiling	0.0	156.39759258717004	
8.0	60.1989835944928	pulse	1.0	t		28.0	male	white	3.9076800636689217	smiling	033	sub-02	1.0	1.0	033_smiling	0.0	157.09757305716403	
8.0	60.89897734609849	pulse	1.0	t		28.0	male	white	3.9076800636689217	smiling	033	sub-02	1.0	1.0	033_smiling	0.0	157.79756680876972	
8.0	61.59895540125399	pulse	1.0	t		28.0	male	white	3.9076800636689217	smiling	033	sub-02	1.0	1.0	033_smiling	0.0	158.4975448639252	
8.0	62.29894070092496	pulse	1.0	t		28.0	male	white	3.9076800636689217	smiling	033	sub-02	1.0	1.0	033_smiling	0.0	159.19753016359618	
8.0	62.99892328390251	pulse	1.0	t		28.0	male	white	3.9076800636689217	smiling	033	sub-02	1.0	1.0	033_smiling	0.0	159.89751274657374	
9.0	63.023788271793364	face	0.0		146	27.0	female	white	4.181058495821727	smiling	039	sub-02	1.0	1.0	039_smiling	1.0	159.9223777344646	1.2332848655132693
9.0	63.69887869994727	pulse	0.0	t		27.0	female	white	4.181058495821727	smiling	039	sub-02	1.0	1.0	039_smiling	1.0	160.5974681626185	
9.0	64.25707313730663	fix	1.0		236	27.0	female	white	4.181058495821727	smiling	039	sub-02	1.0	1.0	039_smiling	1.0	161.15566259997786	1.9999969814521137
9.0	64.39889992034023	pulse	1.0	t		27.0	female	white	4.181058495821727	smiling	039	sub-02	1.0	1.0	039_smiling	1.0	161.29748938301145	
9.0	65.09888401259195	pulse	1.0	t		27.0	female	white	4.181058495821727	smiling	039	sub-02	1.0	1.0	039_smiling	1.0	161.99747347526318	
9.0	65.79887051968217	pulse	1.0	t		27.0	female	white	4.181058495821727	smiling	039	sub-02	1.0	1.0	039_smiling	1.0	162.6974599823534	
9.0	66.25707011875875	rating	2.0		235	27.0	female	white	4.181058495821727	smiling	039	sub-02	1.0	1.0	039_smiling	1.0	163.15565958142997	1.9999535143597313
9.0	66.49886457314233	pulse	2.0	t		27.0	female	white	4.181058495821727	smiling	039	sub-02	1.0	1.0	039_smiling	1.0	163.39745403581355	
9.0	67.19884806168466	pulse	2.0	t		27.0	female	white	4.181058495821727	smiling	039	sub-02	1.0	1.0	039_smiling	1.0	164.09743752435588	
9.0	67.27680749903902	response	2.0	y		27.0	female	white	4.181058495821727	smiling	039	sub-02	1.0	1.0	039_smiling	1.0	164.17539696171025	
9.0	67.89901568165897	pulse	2.0	t		27.0	female	white	4.181058495821727	smiling	039	sub-02	1.0	1.0	039_smiling	1.0	164.7976051443302	
9.0	68.25702363311848	fix	3.0		444	27.0	female	white	4.181058495821727	smiling	039	sub-02	1.0	1.0	039_smiling	1.0	165.1556130957897	3.7665756775659247
9.0	68.59878515514265	pulse	3.0	t		27.0	female	white	4.181058495821727	smiling	039	sub-02	1.0	1.0	039_smiling	1.0	165.49737461781388	
9.0	69.29878584940889	pulse	3.0	t		27.0	female	white	4.181058495821727	smiling	039	sub-02	1.0	1.0	039_smiling	1.0	166.1973753120801	
9.0	69.99897127881695	pulse	3.0	t		27.0	female	white	4.181058495821727	smiling	039	sub-02	1.0	1.0	039_smiling	1.0	166.89756074148818	
9.0	70.69876127842736	pulse	3.0	t		27.0	female	white	4.181058495821727	smiling	039	sub-02	1.0	1.0	039_smiling	1.0	167.59735074109858	
9.0	71.39894821710959	pulse	3.0	t		27.0	female	white	4.181058495821727	smiling	039	sub-02	1.0	1.0	039_smiling	1.0	168.29753767978082	
10.0	72.0235993106844	face	0.0		145	31.0	female	east_asian	3.395941106247513	smiling	087	sub-02	1.0	1.0	087_smiling	0.0	168.92218877335563	1.2333228992188197
10.0	72.10705642964285	pulse	0.0	t		31.0	female	east_asian	3.395941106247513	smiling	087	sub-02	1.0	1.0	087_smiling	0.0	169.00564589231408	
10.0	72.7987195922783	pulse	0.0	t		31.0	female	east_asian	3.395941106247513	smiling	087	sub-02	1.0	1.0	087_smiling	0.0	169.69730905494953	
10.0	73.25692220990322	fix	1.0		444	31.0	female	east_asian	3.395941106247513	smiling	087	sub-02	1.0	1.0	087_smiling	0.0	170.15551167257445	3.7665702441790927
10.0	73.49871304202907	pulse	1.0	t		31.0	female	east_asian	3.395941106247513	smiling	087	sub-02	1.0	1.0	087_smiling	0.0	170.3973025047003	
10.0	74.19888428426157	pulse	1.0	t		31.0	female	east_asian	3.395941106247513	smiling	087	sub-02	1.0	1.0	087_smiling	0.0	171.0974737469328	
10.0	74.89886143385229	pulse	1.0	t		31.0	female	east_asian	3.395941106247513	smiling	087	sub-02	1.0	1.0	087_smiling	0.0	171.79745089652351	
10.0	75.59866773362273	pulse	1.0	t		31.0	female	east_asian	3.395941106247513	smiling	087	sub-02	1.0	1.0	087_smiling	0.0	172.49725719629396	
10.0	76.29884108883834	pulse	1.0	t		31.0	female	east_asian	3.395941106247513	smiling	087	sub-02	1.0	1.0	087_smiling	0.0	173.19743055150957	
11.0	77.02349245408232	face	0.0		146	24.0	female	east_asian	4.409868682849185	smiling	030	sub-02	1.0	1.0	030_smiling	0.0	173.92208191675354	1.233258604144794
11.0	77.0097604751918	pulse	0.0	t		24.0	female	east_asian	4.409868682849185	smiling	030	sub-02	1.0	1.0	030_smiling	0.0	173.90834993786302	
11.0	77.69872656512462	pulse	0.0	t		24.0	female	east_asian	4.409868682849185	smiling	030	sub-02	1.0	1.0	030_smiling	0.0	174.59731602779584	
11.0	78.25675105822711	fix	1.0		443	24.0	female	east_asian	4.409868682849185	smiling	030	sub-02	1.0	1.0	030_smiling	0.0	175.15534052089833	3.7666405763498005
11.0	78.39879578043201	pulse	1.0	t		24.0	female	east_asian	4.409868682849185	smiling	030	sub-02	1.0	1.0	030_smiling	0.0	175.29738524310324	
11.0	79.09878409865087	pulse	1.0	t		24.0	female	east_asian	4.409868682849185	smiling	030	sub-02	1.0	1.0	030_smiling	0.0	175.9973735613221	
11.0	79.79876305937069	pulse	1.0	t		24.0	female	east_asian	4.409868682849185	smiling	030	sub-02	1.0	1.0	030_smiling	0.0	176.6973525220419	
11.0	80.49875409428296	pulse	1.0	t		24.0	female	east_asian	4.409868682849185	smiling	030	sub-02	1.0	1.0	030_smiling	0.0	177.39734355695418	
11.0	81.19873939395393	pulse	1.0	t		24.0	female	east_asian	4.409868682849185	smiling	030	sub-02	1.0	1.0	030_smiling	0.0	178.09732885662515	
11.0	81.89872741031786	pulse	1.0	t		24.0	female	east_asian	4.409868682849185	smiling	030	sub-02	1.0	1.0	030_smiling	0.0	178.7973168729891	
12.0	82.02339163457691	face	0.0		146	36.0	female	white	2.7548746518105847	smiling	011	sub-02	1.0	1.0	011_smiling	0.0	178.92198109724814	1.2333228992188197
12.0	82.59861309790267	pulse	0.0	t		36.0	female	white	2.7548746518105847	smiling	011	sub-02	1.0	1.0	011_smiling	0.0	179.4972025605739	
12.0	83.25671453379573	fix	1.0		444	36.0	female	white	2.7548746518105847	smiling	011	sub-02	1.0	1.0	011_smiling	0.0	180.15530399646696	3.7665729608725087
12.0	83.29870102820769	pulse	1.0	t		36.0	female	white	2.7548746518105847	smiling	011	sub-02	1.0	1.0	011_smiling	0.0	180.1972904908789	
12.0	83.99868451675002	pulse	1.0	t		36.0	female	white	2.7548746518105847	smiling	011	sub-02	1.0	1.0	011_smiling	0.0	180.89727397942124	
12.0	84.69866377932476	pulse	1.0	t		36.0	female	white	2.7548746518105847	smiling	011	sub-02	1.0	1.0	011_smiling	0.0	181.597253241996	
12.0	85.3985041886881	pulse	1.0	t		36.0	female	white	2.7548746518105847	smiling	011	sub-02	1.0	1.0	011_smiling	0.0	182.29709365135932	
12.0	86.09862803971555	pulse	1.0	t		36.0	female	white	2.7548746518105847	smiling	011	sub-02	1.0	1.0	011_smiling	0.0	182.99721750238677	
12.0	86.79862722470762	pulse	1.0	t		36.0	female	white	2.7548746518105847	smiling	011	sub-02	1.0	1.0	011_smiling	0.0	183.69721668737884	
13.0	87.02328749466824	face	0.0		145	24.0	female	black	3.0955033824114606	neutral	099	sub-02	1.0	1.0	099_neutral	0.0	183.92187695733946	1.2332845636583443
13.0	87.49855305898154	pulse	0.0	t		24.0	female	black	3.0955033824114606	neutral	099	sub-02	1.0	1.0	099_neutral	0.0	184.39714252165277	
13.0	88.1984001091505	pulse	0.0	t		24.0	female	black	3.0955033824114606	neutral	099	sub-02	1.0	1.0	099_neutral	0.0	185.09698957182172	
13.0	88.25657205832658	fix	1.0		445	24.0	female	black	3.0955033824114606	neutral	099	sub-02	1.0	1.0	099_neutral	0.0	185.1551615209978	3.766611598287909
13.0	88.89858131259143	pulse	1.0	t		24.0	female	black	3.0955033824114606	neutral	099	sub-02	1.0	1.0	099_neutral	0.0	185.79717077526266	
13.0	89.59857144193893	pulse	1.0	t		24.0	female	black	3.0955033824114606	neutral	099	sub-02	1.0	1.0	099_neutral	0.0	186.49716090461015	
13.0	90.29838347695068	pulse	1.0	t		24.0	female	black	3.0955033824114606	neutral	099	sub-02	1.0	1.0	099_neutral	0.0	187.1969729396219	
13.0	90.99836394694466	pulse	1.0	t		24.0	female	black	3.0955033824114606	neutral	099	sub-02	1.0	1.0	099_neutral	0.0	187.8969534096159	
13.0	91.6983398891166	pulse	1.0	t		24.0	female	black	3.0955033824114606	neutral	099	sub-02	1.0	1.0	099_neutral	0.0	188.59692935178782	
14.0	92.02318365661449	face	0.0		145	24.0	female	black	3.0955033824114606	smiling	099	sub-02	1.0	1.0	099_smiling	0.0	188.92177311928572	1.233284261803874
14.0	92.39840638773057	pulse	0.0	t		24.0	female	black	3.0955033824114606	smiling	099	sub-02	1.0	1.0	099_smiling	0.0	189.2969958504018	
14.0	93.09838715957949	pulse	0.0	t		24.0	female	black	3.0955033824114606	smiling	099	sub-02	1.0	1.0	099_smiling	0.0	189.9969766222507	
14.0	93.25646791841837	fix	1.0		444	24.0	female	black	3.0955033824114606	smiling	099	sub-02	1.0	1.0	099_smiling	0.0	190.1550573810896	3.766610994578059
14.0	93.79829488256473	pulse	1.0	t		24.0	female	black	3.0955033824114606	smiling	099	sub-02	1.0	1.0	099_smiling	0.0	190.69688434523596	
14.0	94.4982693154625	pulse	1.0	t		24.0	female	black	3.0955033824114606	smiling	099	sub-02	1.0	1.0	099_smiling	0.0	191.39685877813372	
14.0	95.1982531058593	pulse	1.0	t		24.0	female	black	3.0955033824114606	smiling	099	sub-02	1.0	1.0	099_smiling	0.0	192.09684256853052	
14.0	95.89824232964293	pulse	1.0	t		24.0	female	black	3.0955033824114606	smiling	099	sub-02	1.0	1.0	099_smiling	0.0	192.79683179231415	
14.0	96.59822551632988	pulse	1.0	t		24.0	female	black	3.0955033824114606	smiling	099	sub-02	1.0	1.0	099_smiling	0.0	193.4968149790011	
15.0	97.02307891299643	face	0.0		145	19.0	male	white	2.243931555909272	neutral	130	sub-02	1.0	1.0	130_neutral	0.0	193.92166837566765	1.2333219936544992
15.0	97.29819723253468	pulse	0.0	t		19.0	male	white	2.243931555909272	neutral	130	sub-02	1.0	1.0	130_neutral	0.0	194.1967866952059	
15.0	97.99819490825257	pulse	0.0	t		19.0	male	white	2.243931555909272	neutral	130	sub-02	1.0	1.0	130_neutral	0.0	194.8967843709238	
15.0	98.25640090665092	fix	1.0		444	19.0	male	white	2.243931555909272	neutral	130	sub-02	1.0	1.0	130_neutral	0.0	195.15499036932215	3.7665696404696973
15.0	98.69818745243902	pulse	1.0	t		19.0	male	white	2.243931555909272	neutral	130	sub-02	1.0	1.0	130_neutral	0.0	195.59677691511024	
15.0	99.39817969477008	pulse	1.0	t		19.0	male	white	2.243931555909272	neutral	130	sub-02	1.0	1.0	130_neutral	0.0	196.2967691574413	
15.0	100.09815382581337	pulse	1.0	t		19.0	male	white	2.243931555909272	neutral	130	sub-02	1.0	1.0	130_neutral	0.0	196.9967432884846	
15.0	100.79813429580736	pulse	1.0	t		19.0	male	white	2.243931555909272	neutral	130	sub-02	1.0	1.0	130_neutral	0.0	197.69672375847858	
15.0	101.4981256325741	pulse	1.0	t		19.0	male	white	2.243931555909272	neutral	130	sub-02	1.0	1.0	130_neutral	0.0	198.39671509524533	
16.0	102.02297054712062	face	0.0		145	25.0	female	black	3.858336649423	neutral	126	sub-02	1.0	1.0	126_neutral	0.0	198.92156000979185	1.233326219621631
16.0	102.19806233362124	pulse	0.0	t		25.0	female	black	3.858336649423	neutral	126	sub-02	1.0	1.0	126_neutral	0.0	199.09665179629246	
16.0	102.89808415772359	pulse	0.0	t		25.0	female	black	3.858336649423	neutral	126	sub-02	1.0	1.0	126_neutral	0.0	199.7966736203948	
16.0	103.25629676674225	fix	1.0		444	25.0	female	black	3.858336649423	neutral	126	sub-02	1.0	1.0	126_neutral	0.0	200.15488622941348	3.766573564582359
16.0	103.59810839666488	pulse	1.0	t		25.0	female	black	3.858336649423	neutral	126	sub-02	1.0	1.0	126_neutral	0.0	200.4966978593361	
16.0	104.29806532198381	pulse	1.0	t		25.0	female	black	3.858336649423	neutral	126	sub-02	1.0	1.0	126_neutral	0.0	201.19665478465504	
16.0	104.99805665875101	pulse	1.0	t		25.0	female	black	3.858336649423	neutral	126	sub-02	1.0	1.0	126_neutral	0.0	201.89664612142224	
16.0	105.69809508486787	pulse	1.0	t		25.0	female	black	3.858336649423	neutral	126	sub-02	1.0	1.0	126_neutral	0.0	202.5966845475391	
16.0	106.39802423954461	pulse	1.0	t		25.0	female	black	3.858336649423	neutral	126	sub-02	1.0	1.0	126_neutral	0.0	203.29661370221584	
17.0	107.02287033132461	face	0.0		145	24.0	male	white	3.1153999204138483	smiling	012	sub-02	1.0	1.0	012_smiling	0.0	203.92145979399584	1.2332887896259308
17.0	107.09797059994526	pulse	0.0	t		24.0	male	white	3.1153999204138483	smiling	012	sub-02	1.0	1.0	012_smiling	0.0	203.99656006261648	
17.0	107.79793476977966	pulse	0.0	t		24.0	male	white	3.1153999204138483	smiling	012	sub-02	1.0	1.0	012_smiling	0.0	204.69652423245088	
17.0	108.25615912095054	fix	1.0		444	24.0	male	white	3.1153999204138483	smiling	012	sub-02	1.0	1.0	012_smiling	0.0	205.15474858362177	3.766611296432984
17.0	108.49797591258994	pulse	1.0	t		24.0	male	white	3.1153999204138483	smiling	012	sub-02	1.0	1.0	012_smiling	0.0	205.39656537526116	
17.0	109.19797177717919	pulse	1.0	t		24.0	male	white	3.1153999204138483	smiling	012	sub-02	1.0	1.0	012_smiling	0.0	206.09656123985042	
17.0	109.89794711564127	pulse	1.0	t		24.0	male	white	3.1153999204138483	smiling	012	sub-02	1.0	1.0	012_smiling	0.0	206.7965365783125	
17.0	110.59793090603807	pulse	1.0	t		24.0	male	white	3.1153999204138483	smiling	012	sub-02	1.0	1.0	012_smiling	0.0	207.4965203687093	
17.0	111.29792616691748	pulse	1.0	t		24.0	male	white	3.1153999204138483	smiling	012	sub-02	1.0	1.0	012_smiling	0.0	208.1965156295887	
17.0	111.99791327771754	pulse	1.0	t		24.0	male	white	3.1153999204138483	smiling	012	sub-02	1.0	1.0	012_smiling	0.0	208.89650274038877	
18.0	112.02277041738353	face	0.0		146	21.0	male	east_asian/white	3.501790688420215	neutral	036	sub-02	1.0	1.0	036_neutral	0.0	208.92135988005475	1.2332806395456828
18.0	112.69785601586045	pulse	0.0	t		21.0	male	east_asian/white	3.501790688420215	neutral	036	sub-02	1.0	1.0	036_neutral	0.0	209.59644547853168	
18.0	113.25605105692921	fix	1.0		443	21.0	male	east_asian/white	3.501790688420215	neutral	036	sub-02	1.0	1.0	036_neutral	0.0	210.15464051960043	3.7666131075620797
18.0	113.39788599004305	pulse	1.0	t		21.0	male	east_asian/white	3.501790688420215	neutral	036	sub-02	1.0	1.0	036_neutral	0.0	210.29647545271428	
18.0	114.09786796931076	pulse	1.0	t		21.0	male	east_asian/white	3.501790688420215	neutral	036	sub-02	1.0	1.0	036_neutral	0.0	210.99645743198198	
18.0	114.7978743988183	pulse	1.0	t		21.0	male	east_asian/white	3.501790688420215	neutral	036	sub-02	1.0	1.0	036_neutral	0.0	211.69646386148952	
18.0	115.49782619260532	pulse	1.0	t		21.0	male	east_asian/white	3.501790688420215	neutral	036	sub-02	1.0	1.0	036_neutral	0.0	212.39641565527654	
18.0	116.19781149227629	pulse	1.0	t		21.0	male	east_asian/white	3.501790688420215	neutral	036	sub-02	1.0	1.0	036_neutral	0.0	213.0964009549475	
18.0	116.89779256598013	pulse	1.0	t		21.0	male	east_asian/white	3.501790688420215	neutral	036	sub-02	1.0	1.0	036_neutral	0.0	213.79638202865135	
19.0	117.02266416449129	face	0.0		146	26.0	male	white	2.7966573816155993	smiling	117	sub-02	1.0	1.0	117_smiling	0.0	213.9212536271625	1.233281243255533
19.0	117.59777937492481	pulse	0.0	t		26.0	male	white	2.7966573816155993	smiling	117	sub-02	1.0	1.0	117_smiling	0.0	214.49636883759604	
19.0	118.25594540774682	fix	1.0		443	26.0	male	white	2.7966573816155993	smiling	117	sub-02	1.0	1.0	117_smiling	0.0	215.15453487041805	3.766613711271475
19.0	118.2977616560479	pulse	1.0	t		26.0	male	white	2.7966573816155993	smiling	117	sub-02	1.0	1.0	117_smiling	0.0	215.19635111871912	
19.0	118.99779163023004	pulse	1.0	t		26.0	male	white	2.7966573816155993	smiling	117	sub-02	1.0	1.0	117_smiling	0.0	215.89638109290127	
19.0	119.69772802942225	pulse	1.0	t		26.0	male	white	2.7966573816155993	smiling	117	sub-02	1.0	1.0	117_smiling	0.0	216.59631749209348	
19.0	120.3977205736087	pulse	1.0	t		26.0	male	white	2.7966573816155993	smiling	117	sub-02	1.0	1.0	117_smiling	0.0	217.29631003627992	
19.0	121.09774994408144	pulse	1.0	t		26.0	male	white	2.7966573816155993	smiling	117	sub-02	1.0	1.0	117_smiling	0.0	217.99633940675267	
19.0	121.797763618104	pulse	1.0	t		26.0	male	white	2.7966573816155993	smiling	117	sub-02	1.0	1.0	117_smiling	0.0	218.69635308077522	
20.0	122.0225591190183	face	0.0		145	19.0	male	white	3.2522881018702745	neutral	018	sub-02	1.0	1.0	018_neutral	0.0	218.92114858168952	1.2333198806709333
20.0	122.49762938327103	pulse	0.0	t		19.0	male	white	3.2522881018702745	neutral	018	sub-02	1.0	1.0	018_neutral	0.0	219.39621884594226	
20.0	123.1976614704372	pulse	0.0	t		19.0	male	white	3.2522881018702745	neutral	018	sub-02	1.0	1.0	018_neutral	0.0	220.09625093310842	
20.0	123.25587899968923	fix	1.0		444	19.0	male	white	3.2522881018702745	neutral	018	sub-02	1.0	1.0	018_neutral	0.0	220.15446846236046	3.7665777905494906
20.0	123.89768752050713	pulse	1.0	t		19.0	male	white	3.2522881018702745	neutral	018	sub-02	1.0	1.0	018_neutral	0.0	220.79627698317836	
20.0	124.59765229405093	pulse	1.0	t		19.0	male	white	3.2522881018702745	neutral	018	sub-02	1.0	1.0	018_neutral	0.0	221.49624175672216	
20.0	125.29763638630266	pulse	1.0	t		19.0	male	white	3.2522881018702745	neutral	018	sub-02	1.0	1.0	018_neutral	0.0	222.19622584897388	
20.0	125.99762500637644	pulse	1.0	t		19.0	male	white	3.2522881018702745	neutral	018	sub-02	1.0	1.0	018_neutral	0.0	222.89621446904766	
20.0	126.69758857250145	pulse	1.0	t		19.0	male	white	3.2522881018702745	neutral	018	sub-02	1.0	1.0	018_neutral	0.0	223.59617803517267	
21.0	127.02245679023872	face	0.0		145	27.0	male	black	3.5523278949462798	smiling	042	sub-02	1.0	1.0	042_smiling	0.0	223.92104625290995	1.2332821488198533
21.0	127.39758594636442	pulse	0.0	t		27.0	male	black	3.5523278949462798	smiling	042	sub-02	1.0	1.0	042_smiling	0.0	224.29617540903564	
21.0	128.0975238548308	pulse	0.0	t		27.0	male	black	3.5523278949462798	smiling	042	sub-02	1.0	1.0	042_smiling	0.0	224.99611331750202	
21.0	128.25573893905857	fix	1.0		444	27.0	male	black	3.5523278949462798	smiling	042	sub-02	1.0	1.0	042_smiling	0.0	225.1543284017298	3.7666097871592683
21.0	128.79755986610917	pulse	1.0	t		27.0	male	black	3.5523278949462798	smiling	042	sub-02	1.0	1.0	042_smiling	0.0	225.6961493287804	
21.0	129.49751407473468	pulse	1.0	t		27.0	male	black	3.5523278949462798	smiling	042	sub-02	1.0	1.0	042_smiling	0.0	226.3961035374059	
21.0	130.19751175045303	pulse	1.0	t		27.0	male	black	3.5523278949462798	smiling	042	sub-02	1.0	1.0	042_smiling	0.0	227.09610121312426	
21.0	130.89748920189868	pulse	1.0	t		27.0	male	black	3.5523278949462798	smiling	042	sub-02	1.0	1.0	042_smiling	0.0	227.7960786645699	
21.0	131.5974790293917	pulse	1.0	t		27.0	male	black	3.5523278949462798	smiling	042	sub-02	1.0	1.0	042_smiling	0.0	228.49606849206293	
22.0	132.02234872621784	face	0.0		145	40.0	female	west_asian	1.5777954635893354	smiling	038	sub-02	1.0	1.0	038_smiling	0.0	228.92093818888907	1.2333225973638946
22.0	132.2974670457561	pulse	0.0	t		40.0	female	west_asian	1.5777954635893354	smiling	038	sub-02	1.0	1.0	038_smiling	0.0	229.19605650842732	
22.0	132.99740374680277	pulse	0.0	t		40.0	female	west_asian	1.5777954635893354	smiling	038	sub-02	1.0	1.0	038_smiling	0.0	229.895993209474	
22.0	133.25567132358174	fix	1.0		444	40.0	female	west_asian	1.5777954635893354	smiling	038	sub-02	1.0	1.0	038_smiling	0.0	230.15426078625296	3.7665747720016043
22.0	133.69746209533696	pulse	1.0	t		40.0	female	west_asian	1.5777954635893354	smiling	038	sub-02	1.0	1.0	038_smiling	0.0	230.59605155800818	
22.0	134.39742898186478	pulse	1.0	t		40.0	female	west_asian	1.5777954635893354	smiling	038	sub-02	1.0	1.0	038_smiling	0.0	231.296018444536	
22.0	135.0974218279057	pulse	1.0	t		40.0	female	west_asian	1.5777954635893354	smiling	038	sub-02	1.0	1.0	038_smiling	0.0	231.99601129057692	
22.0	135.79741014612455	pulse	1.0	t		40.0	female	west_asian	1.5777954635893354	smiling	038	sub-02	1.0	1.0	038_smiling	0.0	232.69599960879577	
22.0	136.49740238845607	pulse	1.0	t		40.0	female	west_asian	1.5777954635893354	smiling	038	sub-02	1.0	1.0	038_smiling	0.0	233.3959918511273	
23.0	137.02224609558334	face	0.0		145	40.0	male	black	2.408674890569041	neutral	061	sub-02	1.0	1.0	061_neutral	0.0	233.92083555825457	1.2333210880901788
23.0	137.19737651949936	pulse	0.0	t		40.0	male	black	2.408674890569041	neutral	061	sub-02	1.0	1.0	061_neutral	0.0	234.09596598217058	
23.0	137.89731925764227	pulse	0.0	t		40.0	male	black	2.408674890569041	neutral	061	sub-02	1.0	1.0	061_neutral	0.0	234.7959087203135	
23.0	138.25556718367352	fix	1.0		1185	40.0	male	black	2.408674890569041	neutral	061	sub-02	1.0	1.0	061_neutral	0.0	235.15415664634475	10.01644323876917
23.0	138.59736070230747	pulse	1.0	t		40.0	male	black	2.408674890569041	neutral	061	sub-02	1.0	1.0	061_neutral	0.0	235.4959501649787	
23.0	139.2973372481888	pulse	1.0	t		40.0	male	black	2.408674890569041	neutral	061	sub-02	1.0	1.0	061_neutral	0.0	236.19592671086002	
23.0	139.99732405713348	pulse	1.0	t		40.0	male	black	2.408674890569041	neutral	061	sub-02	1.0	1.0	061_neutral	0.0	236.8959135198047	
23.0	140.6973461830912	pulse	1.0	t		40.0	male	black	2.408674890569041	neutral	061	sub-02	1.0	1.0	061_neutral	0.0	237.59593564576244	
23.0	141.39729526018527	pulse	1.0	t		40.0	male	black	2.408674890569041	neutral	061	sub-02	1.0	1.0	061_neutral	0.0	238.2958847228565	
23.0	142.09728357840413	pulse	1.0	t		40.0	male	black	2.408674890569041	neutral	061	sub-02	1.0	1.0	061_neutral	0.0	238.99587304107536	
23.0	142.7972613317047	pulse	1.0	t		40.0	male	black	2.408674890569041	neutral	061	sub-02	1.0	1.0	061_neutral	0.0	239.69585079437593	
23.0	143.4972526684719	pulse	1.0	t		40.0	male	black	2.408674890569041	neutral	061	sub-02	1.0	1.0	061_neutral	0.0	240.39584213114313	
23.0	144.19723102548232	pulse	1.0	t		40.0	male	black	2.408674890569041	neutral	061	sub-02	1.0	1.0	061_neutral	0.0	241.09582048815355	
23.0	144.89721662700777	pulse	1.0	t		40.0	male	black	2.408674890569041	neutral	061	sub-02	1.0	1.0	061_neutral	0.0	241.795806089679	
23.0	145.59720464337215	pulse	1.0	t		40.0	male	black	2.408674890569041	neutral	061	sub-02	1.0	1.0	061_neutral	0.0	242.49579410604338	
23.0	146.2971872263497	pulse	1.0	t		40.0	male	black	2.408674890569041	neutral	061	sub-02	1.0	1.0	061_neutral	0.0	243.19577668902093	
23.0	146.99717071489158	pulse	1.0	t		40.0	male	black	2.408674890569041	neutral	061	sub-02	1.0	1.0	061_neutral	0.0	243.8957601775628	
23.0	147.69715752383672	pulse	1.0	t		40.0	male	black	2.408674890569041	neutral	061	sub-02	1.0	1.0	061_neutral	0.0	244.59574698650795	
24.0	148.2720104224427	face	0.0		145	19.0	female	white	4.298846000795861	neutral	100	sub-02	1.0	1.0	100_neutral	0.0	245.17059988511392	1.2332857710775897
24.0	148.3971630477795	pulse	0.0	t		19.0	female	white	4.298846000795861	neutral	100	sub-02	1.0	1.0	100_neutral	0.0	245.2957525104507	
24.0	149.09709039132758	pulse	0.0	t		19.0	female	white	4.298846000795861	neutral	100	sub-02	1.0	1.0	100_neutral	0.0	245.9956798539988	
24.0	149.50529619352028	fix	1.0		444	19.0	female	white	4.298846000795861	neutral	100	sub-02	1.0	1.0	100_neutral	0.0	246.4038856561915	3.766616729819816
24.0	149.79711915809048	pulse	1.0	t		19.0	female	white	4.298846000795861	neutral	100	sub-02	1.0	1.0	100_neutral	0.0	246.6957086207617	
24.0	150.49710445776145	pulse	1.0	t		19.0	female	white	4.298846000795861	neutral	100	sub-02	1.0	1.0	100_neutral	0.0	247.39569392043268	
24.0	151.19709066299674	pulse	1.0	t		19.0	female	white	4.298846000795861	neutral	100	sub-02	1.0	1.0	100_neutral	0.0	248.09568012566797	
24.0	151.89707234040998	pulse	1.0	t		19.0	female	white	4.298846000795861	neutral	100	sub-02	1.0	1.0	100_neutral	0.0	248.7956618030812	
24.0	152.5970537159683	pulse	1.0	t		19.0	female	white	4.298846000795861	neutral	100	sub-02	1.0	1.0	100_neutral	0.0	249.4956431786395	
25.0	153.2719129233401	face	0.0		145	40.0	male	black	2.408674890569041	smiling	061	sub-02	1.0	1.0	061_smiling	0.0	250.17050238601132	1.2333150509934967
25.0	153.2970510898317	pulse	0.0	t		40.0	male	black	2.408674890569041	smiling	061	sub-02	1.0	1.0	061_smiling	0.0	250.19564055250294	
25.0	153.99702522087455	pulse	0.0	t		40.0	male	black	2.408674890569041	smiling	061	sub-02	1.0	1.0	061_smiling	0.0	250.89561468354577	
25.0	154.5052279743336	fix	1.0		443	40.0	male	black	2.408674890569041	smiling	061	sub-02	1.0	1.0	061_smiling	0.0	251.40381743700482	3.7665780924044157
25.0	154.69701685949622	pulse	1.0	t		40.0	male	black	2.408674890569041	smiling	061	sub-02	1.0	1.0	061_smiling	0.0	251.59560632216744	
25.0	155.39699249981322	pulse	1.0	t		40.0	male	black	2.408674890569041	smiling	061	sub-02	1.0	1.0	061_smiling	0.0	252.29558196248445	
25.0	156.09698896811233	pulse	1.0	t		40.0	male	black	2.408674890569041	smiling	061	sub-02	1.0	1.0	061_smiling	0.0	252.99557843078355	
25.0	156.7969718529448	pulse	1.0	t		40.0	male	black	2.408674890569041	smiling	061	sub-02	1.0	1.0	061_smiling	0.0	253.69556131561603	
25.0	157.4969556433416	pulse	1.0	t		40.0	male	black	2.408674890569041	smiling	061	sub-02	1.0	1.0	061_smiling	0.0	254.39554510601283	
25.0	158.19693732075484	pulse	1.0	t		40.0	male	black	2.408674890569041	smiling	061	sub-02	1.0	1.0	061_smiling	0.0	255.09552678342607	
26.0	158.271806066738	face	0.0		146	26.0	male	white	2.7966573816155993	neutral	117	sub-02	1.0	1.0	117_neutral	0.0	255.17039552940923	1.2333020712371763
26.0	158.89688790712262	pulse	0.0	t		26.0	male	white	2.7966573816155993	neutral	117	sub-02	1.0	1.0	117_neutral	0.0	255.79547736979384	
26.0	159.50510813797518	fix	1.0		443	26.0	male	white	2.7966573816155993	neutral	117	sub-02	1.0	1.0	117_neutral	0.0	256.4036976006464	3.7583869603554376
26.0	159.59691878686954	pulse	1.0	t		26.0	male	white	2.7966573816155993	neutral	117	sub-02	1.0	1.0	117_neutral	0.0	256.49550824954076	
26.0	160.29690106799217	pulse	1.0	t		26.0	male	white	2.7966573816155993	neutral	117	sub-02	1.0	1.0	117_neutral	0.0	257.1954905306634	
26.0	160.99689059363072	pulse	1.0	t		26.0	male	white	2.7966573816155993	neutral	117	sub-02	1.0	1.0	117_neutral	0.0	257.89548005630195	
26.0	161.69687136547918	pulse	1.0	t		26.0	male	white	2.7966573816155993	neutral	117	sub-02	1.0	1.0	117_neutral	0.0	258.5954608281504	
26.0	162.39685425031166	pulse	1.0	t		26.0	male	white	2.7966573816155993	neutral	117	sub-02	1.0	1.0	117_neutral	0.0	259.2954437129829	
26.0	163.09683653143475	pulse	1.0	t		26.0	male	white	2.7966573816155993	neutral	117	sub-02	1.0	1.0	117_neutral	0.0	259.995425994106	
27.0	163.26349509833062	face	0.0		147	19.0	male	white	3.2522881018702745	smiling	018	sub-02	1.0	1.0	018_smiling	0.0	260.16208456100185	1.2498440165281863
27.0	163.7967837973997	pulse	0.0	t		19.0	male	white	3.2522881018702745	smiling	018	sub-02	1.0	1.0	018_smiling	0.0	260.69537326007094	
27.0	164.4967642673937	pulse	0.0	t		19.0	male	white	3.2522881018702745	smiling	018	sub-02	1.0	1.0	018_smiling	0.0	261.3953537300649	
27.0	164.5133391148588	fix	1.0		443	19.0	male	white	3.2522881018702745	smiling	018	sub-02	1.0	1.0	018_smiling	0.0	261.41192857753003	3.7582571627881407
27.0	165.1967498689196	pulse	1.0	t		19.0	male	white	3.2522881018702745	smiling	018	sub-02	1.0	1.0	018_smiling	0.0	262.0953393315908	
27.0	165.89672460367183	pulse	1.0	t		19.0	male	white	3.2522881018702745	smiling	018	sub-02	1.0	1.0	018_smiling	0.0	262.79531406634305	
27.0	166.59671352560053	pulse	1.0	t		19.0	male	white	3.2522881018702745	smiling	018	sub-02	1.0	1.0	018_smiling	0.0	263.49530298827176	
27.0	167.2967121068832	pulse	1.0	t		19.0	male	white	3.2522881018702745	smiling	018	sub-02	1.0	1.0	018_smiling	0.0	264.19530156955443	
27.0	167.99672487534144	pulse	1.0	t		19.0	male	white	3.2522881018702745	smiling	018	sub-02	1.0	1.0	018_smiling	0.0	264.89531433801267	
28.0	168.27159627764695	face	0.0		145	40.0	female	west_asian	1.5777954635893354	neutral	038	sub-02	1.0	1.0	038_neutral	1.0	265.1701857403182	1.2333238047835948
28.0	168.69675122726585	pulse	0.0	t		40.0	female	west_asian	1.5777954635893354	neutral	038	sub-02	1.0	1.0	038_neutral	1.0	265.5953406899371	
28.0	169.3967437714523	pulse	0.0	t		40.0	female	west_asian	1.5777954635893354	neutral	038	sub-02	1.0	1.0	038_neutral	1.0	266.2953332341235	
28.0	169.50492008243054	fix	1.0		237	40.0	female	west_asian	1.5777954635893354	neutral	038	sub-02	1.0	1.0	038_neutral	1.0	266.40350954510177	2.0083103646979907
28.0	170.09673993789602	pulse	1.0	t		40.0	female	west_asian	1.5777954635893354	neutral	038	sub-02	1.0	1.0	038_neutral	1.0	266.99532940056724	
28.0	170.796763271273	pulse	1.0	t		40.0	female	west_asian	1.5777954635893354	neutral	038	sub-02	1.0	1.0	038_neutral	1.0	267.6953527339442	
28.0	171.49667703135447	pulse	1.0	t		40.0	female	west_asian	1.5777954635893354	neutral	038	sub-02	1.0	1.0	038_neutral	1.0	268.3952664940257	
28.0	171.51323044712854	rating	2.0		235	40.0	female	west_asian	1.5777954635893354	neutral	038	sub-02	1.0	1.0	038_neutral	1.0	268.41181990979976	1.99159123063464
28.0	172.19668195158783	pulse	2.0	t		40.0	female	west_asian	1.5777954635893354	neutral	038	sub-02	1.0	1.0	038_neutral	1.0	269.09527141425906	
28.0	172.63349060974951	response	2.0	w		40.0	female	west_asian	1.5777954635893354	neutral	038	sub-02	1.0	1.0	038_neutral	1.0	269.53208007242074	
28.0	172.89677531527968	pulse	2.0	t		40.0	female	west_asian	1.5777954635893354	neutral	038	sub-02	1.0	1.0	038_neutral	1.0	269.7953647779509	
28.0	173.50482167776318	fix	3.0		443	40.0	female	west_asian	1.5777954635893354	neutral	038	sub-02	1.0	1.0	038_neutral	1.0	270.4034111404344	3.7665856387748136
28.0	173.59662659141622	pulse	3.0	t		40.0	female	west_asian	1.5777954635893354	neutral	038	sub-02	1.0	1.0	038_neutral	1.0	270.49521605408745	
28.0	174.29661219294167	pulse	3.0	t		40.0	female	west_asian	1.5777954635893354	neutral	038	sub-02	1.0	1.0	038_neutral	1.0	271.1952016556129	
28.0	174.99659236108118	pulse	3.0	t		40.0	female	west_asian	1.5777954635893354	neutral	038	sub-02	1.0	1.0	038_neutral	1.0	271.8951818237524	
28.0	175.6965770570423	pulse	3.0	t		40.0	female	west_asian	1.5777954635893354	neutral	038	sub-02	1.0	1.0	038_neutral	1.0	272.59516651971353	
28.0	176.3965723179217	pulse	3.0	t		40.0	female	west_asian	1.5777954635893354	neutral	038	sub-02	1.0	1.0	038_neutral	1.0	273.29516178059293	
28.0	177.09654856194857	pulse	3.0	t		40.0	female	west_asian	1.5777954635893354	neutral	038	sub-02	1.0	1.0	038_neutral	1.0	273.9951380246198	
29.0	177.271407316538	face	0.0		146	25.0	female	black	3.858336649423	smiling	126	sub-02	1.0	1.0	126_smiling	0.0	274.1699967792092	1.2416712976223607
29.0	177.7965392950059	pulse	0.0	t		25.0	female	black	3.858336649423	smiling	126	sub-02	1.0	1.0	126_smiling	0.0	274.69512875767714	
29.0	178.49648293871314	pulse	0.0	t		25.0	female	black	3.858336649423	smiling	126	sub-02	1.0	1.0	126_smiling	0.0	275.39507240138437	
29.0	178.51307861416035	fix	1.0		443	25.0	female	black	3.858336649423	smiling	126	sub-02	1.0	1.0	126_smiling	0.0	275.4116680768316	3.74988431414522
29.0	179.19650566838027	pulse	1.0	t		25.0	female	black	3.858336649423	smiling	126	sub-02	1.0	1.0	126_smiling	0.0	276.0950951310515	
29.0	179.8964791957137	pulse	1.0	t		25.0	female	black	3.858336649423	smiling	126	sub-02	1.0	1.0	126_smiling	0.0	276.79506865838493	
29.0	180.59646570280393	pulse	1.0	t		25.0	female	black	3.858336649423	smiling	126	sub-02	1.0	1.0	126_smiling	0.0	277.49505516547515	
29.0	181.29646428408614	pulse	1.0	t		25.0	female	black	3.858336649423	smiling	126	sub-02	1.0	1.0	126_smiling	0.0	278.19505374675737	
29.0	181.99644656520923	pulse	1.0	t		25.0	female	black	3.858336649423	smiling	126	sub-02	1.0	1.0	126_smiling	0.0	278.89503602788045	
30.0	182.26296292830557	face	0.0		146	24.0	female	east_asian	2.9076800636689217	smiling	034	sub-02	1.0	1.0	034_smiling	0.0	279.1615523909768	1.2416190767407898
30.0	182.69633708247056	pulse	0.0	t		24.0	female	east_asian	2.9076800636689217	smiling	034	sub-02	1.0	1.0	034_smiling	0.0	279.5949265451418	
30.0	183.396341700849	pulse	0.0	t		24.0	female	east_asian	2.9076800636689217	smiling	034	sub-02	1.0	1.0	034_smiling	0.0	280.29493116352023	
30.0	183.50458200504636	fix	1.0		444	24.0	female	east_asian	2.9076800636689217	smiling	034	sub-02	1.0	1.0	034_smiling	0.0	280.4031714677176	3.7666242761897593
30.0	184.09634148955047	pulse	1.0	t		24.0	female	east_asian	2.9076800636689217	smiling	034	sub-02	1.0	1.0	034_smiling	0.0	280.9949309522217	
30.0	184.796398026956	pulse	1.0	t		24.0	female	east_asian	2.9076800636689217	smiling	034	sub-02	1.0	1.0	034_smiling	0.0	281.69498748962724	
30.0	185.49640355089923	pulse	1.0	t		24.0	female	east_asian	2.9076800636689217	smiling	034	sub-02	1.0	1.0	034_smiling	0.0	282.39499301357046	
30.0	186.19636923000735	pulse	1.0	t		24.0	female	east_asian	2.9076800636689217	smiling	034	sub-02	1.0	1.0	034_smiling	0.0	283.0949586926786	
30.0	186.89638169661112	pulse	1.0	t		24.0	female	east_asian	2.9076800636689217	smiling	034	sub-02	1.0	1.0	034_smiling	0.0	283.79497115928234	
31.0	187.27120628123612	face	0.0		145	54.0	female	white	2.286908077994429	smiling	136	sub-02	1.0	1.0	136_smiling	0.0	284.16979574390734	1.2333056934949127
31.0	187.59634103676854	pulse	0.0	t		54.0	female	white	2.286908077994429	smiling	136	sub-02	1.0	1.0	136_smiling	0.0	284.49493049943976	
31.0	188.29628618974994	pulse	0.0	t		54.0	female	white	2.286908077994429	smiling	136	sub-02	1.0	1.0	136_smiling	0.0	285.19487565242116	
31.0	188.50451197473103	fix	1.0		444	54.0	female	white	2.286908077994429	smiling	136	sub-02	1.0	1.0	136_smiling	0.0	285.40310143740226	3.766585940629284
31.0	188.99643328359753	pulse	1.0	t		54.0	female	white	2.286908077994429	smiling	136	sub-02	1.0	1.0	136_smiling	0.0	285.89502274626875	
31.0	189.696292106104	pulse	1.0	t		54.0	female	white	2.286908077994429	smiling	136	sub-02	1.0	1.0	136_smiling	0.0	286.59488156877524	
31.0	190.39626020005107	pulse	1.0	t		54.0	female	white	2.286908077994429	smiling	136	sub-02	1.0	1.0	136_smiling	0.0	287.2948496627223	
31.0	191.0962448960122	pulse	1.0	t		54.0	female	white	2.286908077994429	smiling	136	sub-02	1.0	1.0	136_smiling	0.0	287.9948343586834	
31.0	191.79622989382824	pulse	1.0	t		54.0	female	white	2.286908077994429	smiling	136	sub-02	1.0	1.0	136_smiling	0.0	288.69481935649947	
32.0	192.27109791536031	face	0.0		145	22.0	female	white	4.614007162753682	smiling	009	sub-02	1.0	1.0	009_smiling	0.0	289.16968737803154	1.2332951285766285
32.0	192.4962170046283	pulse	0.0	t		22.0	female	white	4.614007162753682	smiling	009	sub-02	1.0	1.0	009_smiling	0.0	289.39480646729953	
32.0	193.19620411542792	pulse	0.0	t		22.0	female	white	4.614007162753682	smiling	009	sub-02	1.0	1.0	009_smiling	0.0	290.09479357809914	
32.0	193.50439304393694	fix	1.0		444	22.0	female	white	4.614007162753682	smiling	009	sub-02	1.0	1.0	009_smiling	0.0	290.40298250660817	3.76660133522455
32.0	193.89618669840547	pulse	1.0	t		22.0	female	white	4.614007162753682	smiling	009	sub-02	1.0	1.0	009_smiling	0.0	290.7947761610767	
32.0	194.59616294243233	pulse	1.0	t		22.0	female	white	4.614007162753682	smiling	009	sub-02	1.0	1.0	009_smiling	0.0	291.49475240510355	
32.0	195.29615609032817	pulse	1.0	t		22.0	female	white	4.614007162753682	smiling	009	sub-02	1.0	1.0	009_smiling	0.0	292.1947455529994	
32.0	195.99614380483763	pulse	1.0	t		22.0	female	white	4.614007162753682	smiling	009	sub-02	1.0	1.0	009_smiling	0.0	292.89473326750885	
32.0	196.6961278970889	pulse	1.0	t		22.0	female	white	4.614007162753682	smiling	009	sub-02	1.0	1.0	009_smiling	0.0	293.5947173597601	
33.0	197.2709943791615	face	0.0		145	37.0	male	white	3.898925586947871	smiling	101	sub-02	1.0	1.0	101_smiling	0.0	294.1695838418327	1.2333349734112744
33.0	197.39611500788897	pulse	0.0	t		37.0	male	white	3.898925586947871	smiling	101	sub-02	1.0	1.0	101_smiling	0.0	294.2947044705602	
33.0	198.09609547788295	pulse	0.0	t		37.0	male	white	3.898925586947871	smiling	101	sub-02	1.0	1.0	101_smiling	0.0	294.9946849405542	
33.0	198.50432935257277	fix	1.0		444	37.0	male	white	3.898925586947871	smiling	101	sub-02	1.0	1.0	101_smiling	0.0	295.402918815244	3.7665581699870927
33.0	198.79608560723045	pulse	1.0	t		37.0	male	white	3.898925586947871	smiling	101	sub-02	1.0	1.0	101_smiling	0.0	295.6946750699017	
33.0	199.49606849206293	pulse	1.0	t		37.0	male	white	3.898925586947871	smiling	101	sub-02	1.0	1.0	101_smiling	0.0	296.39465795473416	
33.0	200.19605198060526	pulse	1.0	t		37.0	male	white	3.898925586947871	smiling	101	sub-02	1.0	1.0	101_smiling	0.0	297.0946414432765	
33.0	200.8960348654373	pulse	1.0	t		37.0	male	white	3.898925586947871	smiling	101	sub-02	1.0	1.0	101_smiling	0.0	297.7946243281085	
33.0	201.59604370978332	pulse	1.0	t		37.0	male	white	3.898925586947871	smiling	101	sub-02	1.0	1.0	101_smiling	0.0	298.49463317245454	
34.0	202.27088752255986	face	0.0		145	24.0	female	east_asian	4.409868682849185	neutral	030	sub-02	1.0	1.0	030_neutral	0.0	299.1694769852311	1.2333174658319876
34.0	202.29609511565695	pulse	0.0	t		24.0	female	east_asian	4.409868682849185	neutral	030	sub-02	1.0	1.0	030_neutral	0.0	299.1946845783282	
34.0	202.99606743557115	pulse	0.0	t		24.0	female	east_asian	4.409868682849185	neutral	030	sub-02	1.0	1.0	030_neutral	0.0	299.8946568982424	
34.0	203.50420498839185	fix	1.0		443	24.0	female	east_asian	4.409868682849185	neutral	030	sub-02	1.0	1.0	030_neutral	0.0	300.4027944510631	3.7665786961142658
34.0	203.69600775887602	pulse	1.0	t		24.0	female	east_asian	4.409868682849185	neutral	030	sub-02	1.0	1.0	030_neutral	0.0	300.59459722154725	
34.0	204.3959837010475	pulse	1.0	t		24.0	female	east_asian	4.409868682849185	neutral	030	sub-02	1.0	1.0	030_neutral	0.0	301.2945731637187	
34.0	205.09594575789833	pulse	1.0	t		24.0	female	east_asian	4.409868682849185	neutral	030	sub-02	1.0	1.0	030_neutral	0.0	301.99453522056956	
34.0	205.7960007860297	pulse	1.0	t		24.0	female	east_asian	4.409868682849185	neutral	030	sub-02	1.0	1.0	030_neutral	0.0	302.69459024870093	
34.0	206.49597280408898	pulse	1.0	t		24.0	female	east_asian	4.409868682849185	neutral	030	sub-02	1.0	1.0	030_neutral	0.0	303.3945622667602	
34.0	207.1961811744627	pulse	1.0	t		24.0	female	east_asian	4.409868682849185	neutral	030	sub-02	1.0	1.0	030_neutral	0.0	304.09477063713393	
35.0	207.2707836845061	face	0.0		146	19.0	male	white	2.243931555909272	smiling	130	sub-02	1.0	1.0	130_smiling	0.0	304.16937314717734	1.2333102213169695
35.0	207.89589450295216	pulse	0.0	t		19.0	male	white	2.243931555909272	smiling	130	sub-02	1.0	1.0	130_smiling	0.0	304.7944839656234	
35.0	208.50409390582308	fix	1.0		443	19.0	male	white	2.243931555909272	smiling	130	sub-02	1.0	1.0	130_smiling	0.0	305.4026833684943	3.7665844313551133
35.0	208.59588402859026	pulse	1.0	t		19.0	male	white	2.243931555909272	smiling	130	sub-02	1.0	1.0	130_smiling	0.0	305.4944734912615	
35.0	209.29587295051897	pulse	1.0	t		19.0	male	white	2.243931555909272	smiling	130	sub-02	1.0	1.0	130_smiling	0.0	306.1944624131902	
35.0	209.99584677970688	pulse	1.0	t		19.0	male	white	2.243931555909272	smiling	130	sub-02	1.0	1.0	130_smiling	0.0	306.8944362423781	
35.0	210.69583117381353	pulse	1.0	t		19.0	male	white	2.243931555909272	smiling	130	sub-02	1.0	1.0	130_smiling	0.0	307.59442063648476	
35.0	211.39582251058073	pulse	1.0	t		19.0	male	white	2.243931555909272	smiling	130	sub-02	1.0	1.0	130_smiling	0.0	308.29441197325195	
35.0	212.09580750839677	pulse	1.0	t		19.0	male	white	2.243931555909272	smiling	130	sub-02	1.0	1.0	130_smiling	0.0	308.994396971068	
36.0	212.2706783371782	face	0.0		146	23.0	male	white	2.6275368085953046	neutral	141	sub-02	1.0	1.0	141_neutral	0.0	309.1692677998494	1.2416453381092651
36.0	212.79579582661563	pulse	0.0	t		23.0	male	white	2.6275368085953046	neutral	141	sub-02	1.0	1.0	141_neutral	0.0	309.69438528928686	
36.0	213.49576905209415	pulse	0.0	t		23.0	male	white	2.6275368085953046	neutral	141	sub-02	1.0	1.0	141_neutral	0.0	310.3943585147654	
36.0	213.51232367528746	fix	1.0		443	23.0	male	white	2.6275368085953046	neutral	141	sub-02	1.0	1.0	141_neutral	0.0	310.4109131379587	3.7582514275468384
36.0	214.19576431297355	pulse	1.0	t		23.0	male	white	2.6275368085953046	neutral	141	sub-02	1.0	1.0	141_neutral	0.0	311.0943537756448	
36.0	214.89574448111307	pulse	1.0	t		23.0	male	white	2.6275368085953046	neutral	141	sub-02	1.0	1.0	141_neutral	0.0	311.7943339437843	
36.0	215.59572646038077	pulse	1.0	t		23.0	male	white	2.6275368085953046	neutral	141	sub-02	1.0	1.0	141_neutral	0.0	312.494315923052	
36.0	216.2957205138414	pulse	1.0	t		23.0	male	white	2.6275368085953046	neutral	141	sub-02	1.0	1.0	141_neutral	0.0	313.1943099765126	
36.0	216.99571607657572	pulse	1.0	t		23.0	male	white	2.6275368085953046	neutral	141	sub-02	1.0	1.0	141_neutral	0.0	313.89430553924694	
37.0	217.2705751028343	face	0.0		145	27.0	female	white	3.504576203740549	neutral	144	sub-02	1.0	1.0	144_neutral	0.0	314.1691645655055	1.233341010507047
37.0	217.69569352802137	pulse	0.0	t		27.0	female	white	3.504576203740549	neutral	144	sub-02	1.0	1.0	144_neutral	0.0	314.5942829906926	
37.0	218.39567339430596	pulse	0.0	t		27.0	female	white	3.504576203740549	neutral	144	sub-02	1.0	1.0	144_neutral	0.0	315.2942628569772	
37.0	218.50391611334135	fix	1.0		444	27.0	female	white	3.504576203740549	neutral	144	sub-02	1.0	1.0	144_neutral	0.0	315.4025055760126	3.758340474715169
37.0	219.09566201437974	pulse	1.0	t		27.0	female	white	3.504576203740549	neutral	144	sub-02	1.0	1.0	144_neutral	0.0	315.99425147705097	
37.0	219.7956403713897	pulse	1.0	t		27.0	female	white	3.504576203740549	neutral	144	sub-02	1.0	1.0	144_neutral	0.0	316.69422983406093	
37.0	220.49563895267238	pulse	1.0	t		27.0	female	white	3.504576203740549	neutral	144	sub-02	1.0	1.0	144_neutral	0.0	317.3942284153436	
37.0	221.1956336098424	pulse	1.0	t		27.0	female	white	3.504576203740549	neutral	144	sub-02	1.0	1.0	144_neutral	0.0	318.0942230725136	
37.0	221.8955911388707	pulse	1.0	t		27.0	female	white	3.504576203740549	neutral	144	sub-02	1.0	1.0	144_neutral	0.0	318.79418060154194	
38.0	222.26225658805652	face	0.0		146	22.0	female	west_asian	3.8205332272184642	neutral	066	sub-02	1.0	1.0	066_neutral	0.0	319.16084605072774	1.241542103764914
38.0	222.59559907765242	pulse	0.0	t		22.0	female	west_asian	3.8205332272184642	neutral	066	sub-02	1.0	1.0	066_neutral	0.0	319.49418854032365	
38.0	223.29557471796943	pulse	0.0	t		22.0	female	west_asian	3.8205332272184642	neutral	066	sub-02	1.0	1.0	066_neutral	0.0	320.19416418064066	
38.0	223.50379869182143	fix	1.0		444	22.0	female	west_asian	3.8205332272184642	neutral	066	sub-02	1.0	1.0	066_neutral	0.0	320.40238815449266	3.7665705460344725
38.0	223.99556182876904	pulse	1.0	t		22.0	female	west_asian	3.8205332272184642	neutral	066	sub-02	1.0	1.0	066_neutral	0.0	320.89415129144027	
38.0	224.69554984513343	pulse	1.0	t		22.0	female	west_asian	3.8205332272184642	neutral	066	sub-02	1.0	1.0	066_neutral	0.0	321.59413930780465	
38.0	225.39552940956264	pulse	1.0	t		22.0	female	west_asian	3.8205332272184642	neutral	066	sub-02	1.0	1.0	066_neutral	0.0	322.29411887223387	
38.0	226.09551531294346	pulse	1.0	t		22.0	female	west_asian	3.8205332272184642	neutral	066	sub-02	1.0	1.0	066_neutral	0.0	322.9941047756147	
38.0	226.7954945755182	pulse	1.0	t		22.0	female	west_asian	3.8205332272184642	neutral	066	sub-02	1.0	1.0	066_neutral	0.0	323.69408403818943	
39.0	227.2703692378559	face	0.0		145	26.0	female	white	4.854755272582572	neutral	027	sub-02	1.0	1.0	027_neutral	0.0	324.1689587005271	1.2333165602676672
39.0	227.4955010050253	pulse	0.0	t		26.0	female	white	4.854755272582572	neutral	027	sub-02	1.0	1.0	027_neutral	0.0	324.3940904676965	
39.0	228.1954684952625	pulse	0.0	t		26.0	female	white	4.854755272582572	neutral	027	sub-02	1.0	1.0	027_neutral	0.0	325.0940579579337	
39.0	228.50368579812357	fix	1.0		444	26.0	female	white	4.854755272582572	neutral	027	sub-02	1.0	1.0	027_neutral	0.0	325.4022752607948	3.7499437795422637
39.0	228.89545802090106	pulse	1.0	t		26.0	female	white	4.854755272582572	neutral	027	sub-02	1.0	1.0	027_neutral	0.0	325.7940474835723	
39.0	229.59543758533027	pulse	1.0	t		26.0	female	white	4.854755272582572	neutral	027	sub-02	1.0	1.0	027_neutral	0.0	326.4940270480015	
39.0	230.2954249979848	pulse	1.0	t		26.0	female	white	4.854755272582572	neutral	027	sub-02	1.0	1.0	027_neutral	0.0	327.19401446065604	
39.0	230.995416334752	pulse	1.0	t		26.0	female	white	4.854755272582572	neutral	027	sub-02	1.0	1.0	027_neutral	0.0	327.89400579742323	
39.0	231.69539801216524	pulse	1.0	t		26.0	female	white	4.854755272582572	neutral	027	sub-02	1.0	1.0	027_neutral	0.0	328.59398747483647	
40.0	232.25362957766583	fix	0.0		720												329.15221904033706	5.999872617271194
40.0	232.39537516175642	pulse	0.0	t													329.29396462442764	
40.0	233.09536861150718	pulse	0.0	t													329.9939580741784	
40.0	233.7953563260162	pulse	0.0	t													330.6939457886874	
40.0	234.4953370978651	pulse	0.0	t													331.39392656053633	
40.0	235.19532783092245	pulse	0.0	t													332.0939172935937	
40.0	235.89530950833569	pulse	0.0	t													332.7938989710069	
40.0	236.59529631728083	pulse	0.0	t													333.49388577995205	
40.0	237.29527708912929	pulse	0.0	t													334.1938665518005	
40.0	237.99526238880026	pulse	0.0	t													334.8938518514715	
