trial_nr	onset	event_type	phase	response	nr_frames	face_age	face_sex	face_eth	attractiveness	expression	face_id	sub_id	ses	run	trial_type	catch	rating_type	onset_abs	duration
-1.0	0.056647411406629544	fix	0.0		714													108.35450838414317	5.965824705594514
-1.0	0.7062209975006226	pulse	0.0	t														109.00408197023717	
-1.0	1.406042390550283	pulse	0.0	t														109.70390336328683	
-1.0	2.106034331050978	pulse	0.0	t														110.40389530378752	
-1.0	2.8060135936884762	pulse	0.0	t														111.10387456642502	
-1.0	3.505985309978314	pulse	0.0	t														111.80384628271486	
-1.0	4.2059896264890995	pulse	0.0	t														112.50385059922564	
-1.0	4.905920894356768	pulse	0.0	t														113.20378186709331	
-1.0	5.605951774010464	pulse	0.0	t														113.90381274674701	
0.0	6.0224721170011435	face	0.0		144	24.0	female	east_asian	2.9076800636689217	smiling	034	sub-13	1.0	1.0	034_smiling	0.0		114.32033308973769	1.2333240060479511
0.0	6.305918962491887	pulse	0.0	t		24.0	female	east_asian	2.9076800636689217	smiling	034	sub-13	1.0	1.0	034_smiling	0.0		114.60377993522843	
0.0	7.005909091869853	pulse	0.0	t		24.0	female	east_asian	2.9076800636689217	smiling	034	sub-13	1.0	1.0	034_smiling	0.0		115.3037700646064	
0.0	7.255796123049095	fix	1.0		445	24.0	female	east_asian	2.9076800636689217	smiling	034	sub-13	1.0	1.0	034_smiling	0.0		115.55365709578564	3.7665492153155355
0.0	7.705897410123725	pulse	1.0	t		24.0	female	east_asian	2.9076800636689217	smiling	034	sub-13	1.0	1.0	034_smiling	0.0		116.00375838286027	
0.0	8.40586791899841	pulse	1.0	t		24.0	female	east_asian	2.9076800636689217	smiling	034	sub-13	1.0	1.0	034_smiling	0.0		116.70372889173495	
0.0	9.105861670622744	pulse	1.0	t		24.0	female	east_asian	2.9076800636689217	smiling	034	sub-13	1.0	1.0	034_smiling	0.0		117.40372264335929	
0.0	9.805872627919143	pulse	1.0	t		24.0	female	east_asian	2.9076800636689217	smiling	034	sub-13	1.0	1.0	034_smiling	0.0		118.10373360065569	
0.0	10.505837401569352	pulse	1.0	t		24.0	female	east_asian	2.9076800636689217	smiling	034	sub-13	1.0	1.0	034_smiling	0.0		118.8036983743059	
1.0	11.02234533836463	face	0.0		145	30.0	female	black	2.7345801830481498	neutral	062	sub-13	1.0	1.0	062_neutral	0.0		119.32020631110117	1.2333197800935523
1.0	11.205818475330034	pulse	0.0	t		30.0	female	black	2.7345801830481498	neutral	062	sub-13	1.0	1.0	062_neutral	0.0		119.50367944806658	
1.0	11.905798643529124	pulse	0.0	t		30.0	female	black	2.7345801830481498	neutral	062	sub-13	1.0	1.0	062_neutral	0.0		120.20365961626567	
1.0	12.255665118458182	fix	1.0		445	30.0	female	black	2.7345801830481498	neutral	062	sub-13	1.0	1.0	062_neutral	0.0		120.55352609119473	3.7665760803124613
1.0	12.605783037682613	pulse	1.0	t		30.0	female	black	2.7345801830481498	neutral	062	sub-13	1.0	1.0	062_neutral	0.0		120.90364401041916	
1.0	13.30577618559937	pulse	1.0	t		30.0	female	black	2.7345801830481498	neutral	062	sub-13	1.0	1.0	062_neutral	0.0		121.60363715833591	
1.0	14.005757561213613	pulse	1.0	t		30.0	female	black	2.7345801830481498	neutral	062	sub-13	1.0	1.0	062_neutral	0.0		122.30361853395016	
1.0	14.705723844133445	pulse	1.0	t		30.0	female	black	2.7345801830481498	neutral	062	sub-13	1.0	1.0	062_neutral	0.0		123.00358481686999	
1.0	15.405716388342626	pulse	1.0	t		30.0	female	black	2.7345801830481498	neutral	062	sub-13	1.0	1.0	062_neutral	0.0		123.70357736107917	
2.0	16.022241198770644	face	0.0		145	47.0	male	east_asian	2.171110226820533	neutral	024	sub-13	1.0	1.0	024_neutral	1.0	trustworthiness	124.32010217150719	1.2333158559927142
2.0	16.10570561215809	pulse	0.0	t		47.0	male	east_asian	2.171110226820533	neutral	024	sub-13	1.0	1.0	024_neutral	1.0	trustworthiness	124.40356658489463	
2.0	16.805680950695205	pulse	0.0	t		47.0	male	east_asian	2.171110226820533	neutral	024	sub-13	1.0	1.0	024_neutral	1.0	trustworthiness	125.10354192343175	
2.0	17.255557054763358	fix	1.0		177	47.0	male	east_asian	2.171110226820533	neutral	024	sub-13	1.0	1.0	024_neutral	1.0	trustworthiness	125.5534180274999	1.5083189424490229
2.0	17.50565870406308	pulse	1.0	t		47.0	male	east_asian	2.171110226820533	neutral	024	sub-13	1.0	1.0	024_neutral	1.0	trustworthiness	125.80351967679962	
2.0	18.20564822973256	pulse	1.0	t		47.0	male	east_asian	2.171110226820533	neutral	024	sub-13	1.0	1.0	024_neutral	1.0	trustworthiness	126.5035092024691	
2.0	18.76387599721238	rating	2.0		294	47.0	male	east_asian	2.171110226820533	neutral	024	sub-13	1.0	1.0	024_neutral	1.0	trustworthiness	127.06173696994892	2.491578427226159
2.0	18.900503522484087	pulse	2.0	t		47.0	male	east_asian	2.171110226820533	neutral	024	sub-13	1.0	1.0	024_neutral	1.0	trustworthiness	127.19836449522063	
2.0	19.600566096796683	pulse	2.0	t		47.0	male	east_asian	2.171110226820533	neutral	024	sub-13	1.0	1.0	024_neutral	1.0	trustworthiness	127.89842706953323	
2.0	20.300482573823956	pulse	2.0	t		47.0	male	east_asian	2.171110226820533	neutral	024	sub-13	1.0	1.0	024_neutral	1.0	trustworthiness	128.5983435465605	
2.0	21.000450064159395	pulse	2.0	t		47.0	male	east_asian	2.171110226820533	neutral	024	sub-13	1.0	1.0	024_neutral	1.0	trustworthiness	129.29831103689594	
2.0	21.25545442443854	fix	3.0		443	47.0	male	east_asian	2.171110226820533	neutral	024	sub-13	1.0	1.0	024_neutral	1.0	trustworthiness	129.55331539717508	3.758317357715896
2.0	21.705571709770084	pulse	3.0	t		47.0	male	east_asian	2.171110226820533	neutral	024	sub-13	1.0	1.0	024_neutral	1.0	trustworthiness	130.00343268250663	
2.0	22.405543124205906	pulse	3.0	t		47.0	male	east_asian	2.171110226820533	neutral	024	sub-13	1.0	1.0	024_neutral	1.0	trustworthiness	130.70340409694245	
2.0	23.105539894369485	pulse	3.0	t		47.0	male	east_asian	2.171110226820533	neutral	024	sub-13	1.0	1.0	024_neutral	1.0	trustworthiness	131.40340086710603	
2.0	23.805506479142878	pulse	3.0	t		47.0	male	east_asian	2.171110226820533	neutral	024	sub-13	1.0	1.0	024_neutral	1.0	trustworthiness	132.10336745187942	
2.0	24.505503551160473	pulse	3.0	t		47.0	male	east_asian	2.171110226820533	neutral	024	sub-13	1.0	1.0	024_neutral	1.0	trustworthiness	132.80336452389702	
2.0	24.863813483270405	response	3.0	y		47.0	male	east_asian	2.171110226820533	neutral	024	sub-13	1.0	1.0	024_neutral	1.0	trustworthiness	133.16167445600695	
3.0	25.013771782154436	face	0.0		146	23.0	male	white	2.6275368085953046	neutral	141	sub-13	1.0	1.0	141_neutral	0.0		133.31163275489098	1.2415860490373234
3.0	25.205497604638367	pulse	0.0	t		23.0	male	white	2.6275368085953046	neutral	141	sub-13	1.0	1.0	141_neutral	0.0		133.5033585773749	
3.0	25.905472641321467	pulse	0.0	t		23.0	male	white	2.6275368085953046	neutral	141	sub-13	1.0	1.0	141_neutral	0.0		134.203333614058	
3.0	26.25535783119176	fix	1.0		444	23.0	male	white	2.6275368085953046	neutral	141	sub-13	1.0	1.0	141_neutral	0.0		134.5532188039283	3.7665395559911303
3.0	26.605445866880927	pulse	1.0	t		23.0	male	white	2.6275368085953046	neutral	141	sub-13	1.0	1.0	141_neutral	0.0		134.90330683961747	
3.0	27.305435090696847	pulse	1.0	t		23.0	male	white	2.6275368085953046	neutral	141	sub-13	1.0	1.0	141_neutral	0.0		135.6032960634334	
3.0	28.00542189968155	pulse	1.0	t		23.0	male	white	2.6275368085953046	neutral	141	sub-13	1.0	1.0	141_neutral	0.0		136.3032828724181	
3.0	28.705406595689055	pulse	1.0	t		23.0	male	white	2.6275368085953046	neutral	141	sub-13	1.0	1.0	141_neutral	0.0		137.0032675684256	
3.0	29.405378311978893	pulse	1.0	t		23.0	male	white	2.6275368085953046	neutral	141	sub-13	1.0	1.0	141_neutral	0.0		137.70323928471544	
4.0	30.02189738718289	face	0.0		145	21.0	male	east_asian/white	3.501790688420215	neutral	036	sub-13	1.0	1.0	036_neutral	0.0		138.31975835991943	1.233299857736256
4.0	30.105365422817613	pulse	0.0	t		21.0	male	east_asian/white	3.501790688420215	neutral	036	sub-13	1.0	1.0	036_neutral	0.0		138.40322639555416	
4.0	30.805344685454656	pulse	0.0	t		21.0	male	east_asian/white	3.501790688420215	neutral	036	sub-13	1.0	1.0	036_neutral	0.0		139.1032056581912	
4.0	31.255197244919145	fix	1.0		444	21.0	male	east_asian/white	3.501790688420215	neutral	036	sub-13	1.0	1.0	036_neutral	0.0		139.5530582176557	3.758241290533988
4.0	31.50532726848496	pulse	1.0	t		21.0	male	east_asian/white	3.501790688420215	neutral	036	sub-13	1.0	1.0	036_neutral	0.0		139.8031882412215	
4.0	32.20571735427484	pulse	1.0	t		21.0	male	east_asian/white	3.501790688420215	neutral	036	sub-13	1.0	1.0	036_neutral	0.0		140.50357832701138	
4.0	32.90529213269156	pulse	1.0	t		21.0	male	east_asian/white	3.501790688420215	neutral	036	sub-13	1.0	1.0	036_neutral	0.0		141.2031531054281	
4.0	33.60529644920234	pulse	1.0	t		21.0	male	east_asian/white	3.501790688420215	neutral	036	sub-13	1.0	1.0	036_neutral	0.0		141.9031574219389	
4.0	34.30527329700817	pulse	1.0	t		21.0	male	east_asian/white	3.501790688420215	neutral	036	sub-13	1.0	1.0	036_neutral	0.0		142.60313426974471	
5.0	35.01343853545313	face	0.0		147	27.0	male	black	3.5523278949462798	smiling	042	sub-13	1.0	1.0	042_smiling	0.0		143.31129950818968	1.2416760014984902
5.0	35.00763056463893	pulse	0.0	t		27.0	male	black	3.5523278949462798	smiling	042	sub-13	1.0	1.0	042_smiling	0.0		143.30549153737547	
5.0	35.705230916721575	pulse	0.0	t		27.0	male	black	3.5523278949462798	smiling	042	sub-13	1.0	1.0	042_smiling	0.0		144.00309188945812	
5.0	36.25511453695162	fix	1.0		443	27.0	male	black	3.5523278949462798	smiling	042	sub-13	1.0	1.0	042_smiling	0.0		144.55297550968817	3.7582690610925056
5.0	36.40523100727751	pulse	1.0	t		27.0	male	black	3.5523278949462798	smiling	042	sub-13	1.0	1.0	042_smiling	0.0		144.70309198001405	
5.0	37.10520785508379	pulse	1.0	t		27.0	male	black	3.5523278949462798	smiling	042	sub-13	1.0	1.0	042_smiling	0.0		145.40306882782033	
5.0	37.80518621215924	pulse	1.0	t		27.0	male	black	3.5523278949462798	smiling	042	sub-13	1.0	1.0	042_smiling	0.0		146.1030471848958	
5.0	38.505173021143946	pulse	1.0	t		27.0	male	black	3.5523278949462798	smiling	042	sub-13	1.0	1.0	042_smiling	0.0		146.8030339938805	
5.0	39.20516103754426	pulse	1.0	t		27.0	male	black	3.5523278949462798	smiling	042	sub-13	1.0	1.0	042_smiling	0.0		147.5030220102808	
5.0	39.905135470519326	pulse	1.0	t		27.0	male	black	3.5523278949462798	smiling	042	sub-13	1.0	1.0	042_smiling	0.0		148.20299644325587	
6.0	40.01338359804413	face	0.0		147	22.0	male	black	2.767608436132113	neutral	044	sub-13	1.0	1.0	044_neutral	0.0		148.31124457078067	1.2416029528558283
6.0	40.60512861843608	pulse	0.0	t		22.0	male	black	2.767608436132113	neutral	044	sub-13	1.0	1.0	044_neutral	0.0		148.90298959117263	
6.0	41.25498655089996	fix	1.0		443	22.0	male	black	2.767608436132113	neutral	044	sub-13	1.0	1.0	044_neutral	0.0		149.5528475236365	3.7665748728968538
6.0	41.30511422000518	pulse	1.0	t		22.0	male	black	2.767608436132113	neutral	044	sub-13	1.0	1.0	044_neutral	0.0		149.60297519274172	
6.0	42.00507838994781	pulse	1.0	t		22.0	male	black	2.767608436132113	neutral	044	sub-13	1.0	1.0	044_neutral	0.0		150.30293936268436	
6.0	42.705066406348124	pulse	1.0	t		22.0	male	black	2.767608436132113	neutral	044	sub-13	1.0	1.0	044_neutral	0.0		151.00292737908467	
6.0	43.405053819040404	pulse	1.0	t		22.0	male	black	2.767608436132113	neutral	044	sub-13	1.0	1.0	044_neutral	0.0		151.70291479177695	
6.0	44.10504696695716	pulse	1.0	t		22.0	male	black	2.767608436132113	neutral	044	sub-13	1.0	1.0	044_neutral	0.0		152.4029079396937	
6.0	44.80503136111065	pulse	1.0	t		22.0	male	black	2.767608436132113	neutral	044	sub-13	1.0	1.0	044_neutral	0.0		153.1028923338472	
7.0	45.02156142379681	face	0.0		145	34.0	male	white	2.651014723438122	smiling	121	sub-13	1.0	1.0	121_smiling	0.0		153.31942239653335	1.2333197800930975
7.0	45.50502662200461	pulse	0.0	t		34.0	male	white	2.651014723438122	smiling	121	sub-13	1.0	1.0	121_smiling	0.0		153.80288759474115	
7.0	46.20499954571005	pulse	0.0	t		34.0	male	white	2.651014723438122	smiling	121	sub-13	1.0	1.0	121_smiling	0.0		154.5028605184466	
7.0	46.25488120388991	fix	1.0		445	34.0	male	white	2.651014723438122	smiling	121	sub-13	1.0	1.0	121_smiling	0.0		154.55274217662645	3.766565515426464
7.0	46.904956773013055	pulse	1.0	t		34.0	male	white	2.651014723438122	smiling	121	sub-13	1.0	1.0	121_smiling	0.0		155.2028177457496	
7.0	47.60496954143264	pulse	1.0	t		34.0	male	white	2.651014723438122	smiling	121	sub-13	1.0	1.0	121_smiling	0.0		155.90283051416918	
7.0	48.304945181823314	pulse	1.0	t		34.0	male	white	2.651014723438122	smiling	121	sub-13	1.0	1.0	121_smiling	0.0		156.60280615455986	
7.0	49.00491448328194	pulse	1.0	t		34.0	male	white	2.651014723438122	smiling	121	sub-13	1.0	1.0	121_smiling	0.0		157.30277545601848	
7.0	49.70493962771161	pulse	1.0	t		34.0	male	white	2.651014723438122	smiling	121	sub-13	1.0	1.0	121_smiling	0.0		158.00280060044815	
8.0	50.02144671931637	face	0.0		145	22.0	female	west_asian	3.8205332272184642	smiling	066	sub-13	1.0	1.0	066_smiling	0.0		158.31930769205292	1.233316157846275
8.0	50.40490440136182	pulse	0.0	t		22.0	female	west_asian	3.8205332272184642	smiling	066	sub-13	1.0	1.0	066_smiling	0.0		158.70276537409836	
8.0	51.104882758437725	pulse	0.0	t		22.0	female	west_asian	3.8205332272184642	smiling	066	sub-13	1.0	1.0	066_smiling	0.0		159.40274373117427	
8.0	51.25476287716265	fix	1.0		444	22.0	female	west_asian	3.8205332272184642	smiling	066	sub-13	1.0	1.0	066_smiling	0.0		159.5526238498992	3.766567326549648
8.0	51.804855983997186	pulse	1.0	t		22.0	female	west_asian	3.8205332272184642	smiling	066	sub-13	1.0	1.0	066_smiling	0.0		160.10271695673373	
8.0	52.504838567027036	pulse	1.0	t		22.0	female	west_asian	3.8205332272184642	smiling	066	sub-13	1.0	1.0	066_smiling	0.0		160.80269953976358	
8.0	53.204820848203326	pulse	1.0	t		22.0	female	west_asian	3.8205332272184642	smiling	066	sub-13	1.0	1.0	066_smiling	0.0		161.50268182093987	
8.0	53.90480343123363	pulse	1.0	t		22.0	female	west_asian	3.8205332272184642	smiling	066	sub-13	1.0	1.0	066_smiling	0.0		162.20266440397018	
8.0	54.60479959768918	pulse	1.0	t		22.0	female	west_asian	3.8205332272184642	smiling	066	sub-13	1.0	1.0	066_smiling	0.0		162.90266057042572	
9.0	55.021330203712296	face	0.0		145	20.0	male	black	3.1070433744528456	smiling	082	sub-13	1.0	1.0	082_smiling	0.0		163.31919117644884	1.233304687398686
9.0	55.30478761408949	pulse	0.0	t		20.0	male	black	3.1070433744528456	smiling	082	sub-13	1.0	1.0	082_smiling	0.0		163.60264858682604	
9.0	56.00476204706456	pulse	0.0	t		20.0	male	black	3.1070433744528456	smiling	082	sub-13	1.0	1.0	082_smiling	0.0		164.3026230198011	
9.0	56.25463489111098	fix	1.0		444	20.0	male	black	3.1070433744528456	smiling	082	sub-13	1.0	1.0	082_smiling	0.0		164.55249586384753	3.7665712506500313
9.0	56.70474915790328	pulse	1.0	t		20.0	male	black	3.1070433744528456	smiling	082	sub-13	1.0	1.0	082_smiling	0.0		165.00261013063982	
9.0	57.40471876121592	pulse	1.0	t		20.0	male	black	3.1070433744528456	smiling	082	sub-13	1.0	1.0	082_smiling	0.0		165.70257973395246	
9.0	58.104714323963435	pulse	1.0	t		20.0	male	black	3.1070433744528456	smiling	082	sub-13	1.0	1.0	082_smiling	0.0		166.40257529669998	
9.0	58.80469841626336	pulse	1.0	t		20.0	male	black	3.1070433744528456	smiling	082	sub-13	1.0	1.0	082_smiling	0.0		167.1025593889999	
9.0	59.50464538053393	pulse	1.0	t		20.0	male	black	3.1070433744528456	smiling	082	sub-13	1.0	1.0	082_smiling	0.0		167.80250635327047	
10.0	60.02120614176101	face	0.0		145	20.0	female	white	3.9502586549940313	smiling	091	sub-13	1.0	1.0	091_smiling	0.0		168.31906711449756	1.2333170634083217
10.0	60.20468290097324	pulse	0.0	t		20.0	female	white	3.9502586549940313	smiling	091	sub-13	1.0	1.0	091_smiling	0.0		168.50254387370978	
10.0	60.90464525979223	pulse	0.0	t		20.0	female	white	3.9502586549940313	smiling	091	sub-13	1.0	1.0	091_smiling	0.0		169.20250623252878	
10.0	61.254523205169335	fix	1.0		444	20.0	female	white	3.9502586549940313	smiling	091	sub-13	1.0	1.0	091_smiling	0.0		169.55238417790588	3.7665703450884394
10.0	61.60462572984534	pulse	1.0	t		20.0	female	white	3.9502586549940313	smiling	091	sub-13	1.0	1.0	091_smiling	0.0		169.90248670258188	
10.0	62.3046149536608	pulse	1.0	t		20.0	female	white	3.9502586549940313	smiling	091	sub-13	1.0	1.0	091_smiling	0.0		170.60247592639735	
10.0	63.004615346071205	pulse	1.0	t		20.0	female	white	3.9502586549940313	smiling	091	sub-13	1.0	1.0	091_smiling	0.0		171.30247631880775	
10.0	63.70458676050703	pulse	1.0	t		20.0	female	white	3.9502586549940313	smiling	091	sub-13	1.0	1.0	091_smiling	0.0		172.00244773324357	
10.0	64.40457085280696	pulse	1.0	t		20.0	female	white	3.9502586549940313	smiling	091	sub-13	1.0	1.0	091_smiling	0.0		172.7024318255435	
11.0	65.02109355025777	face	0.0		145	31.0	female	west_asian	2.364902506963788	neutral	006	sub-13	1.0	1.0	006_neutral	0.0		173.31895452299432	1.2333164597002906
11.0	65.10454649319718	pulse	0.0	t		31.0	female	west_asian	2.364902506963788	neutral	006	sub-13	1.0	1.0	006_neutral	0.0		173.40240746593372	
11.0	65.80452394471149	pulse	0.0	t		31.0	female	west_asian	2.364902506963788	neutral	006	sub-13	1.0	1.0	006_neutral	0.0		174.10238491744803	
11.0	66.25441000995806	fix	1.0		444	31.0	female	west_asian	2.364902506963788	neutral	006	sub-13	1.0	1.0	006_neutral	0.0		174.5522709826946	3.766563100595249
11.0	66.50452614824462	pulse	1.0	t		31.0	female	west_asian	2.364902506963788	neutral	006	sub-13	1.0	1.0	006_neutral	0.0		174.80238712098117	
11.0	67.20450148678128	pulse	1.0	t		31.0	female	west_asian	2.364902506963788	neutral	006	sub-13	1.0	1.0	006_neutral	0.0		175.50236245951783	
11.0	67.90448376795757	pulse	1.0	t		31.0	female	west_asian	2.364902506963788	neutral	006	sub-13	1.0	1.0	006_neutral	0.0		176.20234474069412	
11.0	68.60449472525443	pulse	1.0	t		31.0	female	west_asian	2.364902506963788	neutral	006	sub-13	1.0	1.0	006_neutral	0.0		176.90235569799097	
11.0	69.30445587665781	pulse	1.0	t		31.0	female	west_asian	2.364902506963788	neutral	006	sub-13	1.0	1.0	006_neutral	0.0		177.60231684939436	
12.0	70.02097311055331	face	0.0		146	20.0	male	black	2.609629924393156	neutral	043	sub-13	1.0	1.0	043_neutral	1.0	attractiveness	178.31883408328986	1.2333212893627206
12.0	70.00733052186615	pulse	0.0	t		20.0	male	black	2.609629924393156	neutral	043	sub-13	1.0	1.0	043_neutral	1.0	attractiveness	178.3051914946027	
12.0	70.70442043901039	pulse	0.0	t		20.0	male	black	2.609629924393156	neutral	043	sub-13	1.0	1.0	043_neutral	1.0	attractiveness	179.00228141174694	
12.0	71.25429439991603	fix	1.0		177	20.0	male	black	2.609629924393156	neutral	043	sub-13	1.0	1.0	043_neutral	1.0	attractiveness	179.55215537265258	1.4999669469984838
12.0	71.40442535922875	pulse	1.0	t		20.0	male	black	2.609629924393156	neutral	043	sub-13	1.0	1.0	043_neutral	1.0	attractiveness	179.7022863319653	
12.0	72.10438077540857	pulse	1.0	t		20.0	male	black	2.609629924393156	neutral	043	sub-13	1.0	1.0	043_neutral	1.0	attractiveness	180.40224174814512	
12.0	72.75426134691452	rating	2.0		295	20.0	male	black	2.609629924393156	neutral	043	sub-13	1.0	1.0	043_neutral	1.0	attractiveness	181.05212231965106	2.4999403838555736
12.0	72.79930549455594	pulse	2.0	t		20.0	male	black	2.609629924393156	neutral	043	sub-13	1.0	1.0	043_neutral	1.0	attractiveness	181.09716646729248	
12.0	73.49929622764148	pulse	2.0	t		20.0	male	black	2.609629924393156	neutral	043	sub-13	1.0	1.0	043_neutral	1.0	attractiveness	181.79715720037802	
12.0	74.19927609398655	pulse	2.0	t		20.0	male	black	2.609629924393156	neutral	043	sub-13	1.0	1.0	043_neutral	1.0	attractiveness	182.4971370667231	
12.0	74.8991687245557	pulse	2.0	t		20.0	male	black	2.609629924393156	neutral	043	sub-13	1.0	1.0	043_neutral	1.0	attractiveness	183.19702969729224	
12.0	75.25420173077009	fix	3.0		443	20.0	male	black	2.609629924393156	neutral	043	sub-13	1.0	1.0	043_neutral	1.0	attractiveness	183.55206270350664	3.766538952283099
12.0	75.60431663145573	pulse	3.0	t		20.0	male	black	2.609629924393156	neutral	043	sub-13	1.0	1.0	043_neutral	1.0	attractiveness	183.90217760419227	
12.0	76.30429710150838	pulse	3.0	t		20.0	male	black	2.609629924393156	neutral	043	sub-13	1.0	1.0	043_neutral	1.0	attractiveness	184.60215807424493	
12.0	77.00426791223663	pulse	3.0	t		20.0	male	black	2.609629924393156	neutral	043	sub-13	1.0	1.0	043_neutral	1.0	attractiveness	185.30212888497317	
12.0	77.45445613323363	response	3.0	y		20.0	male	black	2.609629924393156	neutral	043	sub-13	1.0	1.0	043_neutral	1.0	attractiveness	185.75231710597018	
12.0	77.7042465711661	pulse	3.0	t		20.0	male	black	2.609629924393156	neutral	043	sub-13	1.0	1.0	043_neutral	1.0	attractiveness	186.00210754390264	
12.0	78.40422432453397	pulse	3.0	t		20.0	male	black	2.609629924393156	neutral	043	sub-13	1.0	1.0	043_neutral	1.0	attractiveness	186.70208529727051	
13.0	79.02074068305319	face	0.0		145	36.0	female	white	2.7548746518105847	smiling	011	sub-13	1.0	1.0	011_smiling	0.0		187.31860165578973	1.2333448339668394
13.0	79.10424584671682	pulse	0.0	t		36.0	female	white	2.7548746518105847	smiling	011	sub-13	1.0	1.0	011_smiling	0.0		187.40210681945337	
13.0	79.8042257130619	pulse	0.0	t		36.0	female	white	2.7548746518105847	smiling	011	sub-13	1.0	1.0	011_smiling	0.0		188.10208668579844	
13.0	80.25408551702003	fix	1.0		444	36.0	female	white	2.7548746518105847	smiling	011	sub-13	1.0	1.0	011_smiling	0.0		188.55194648975657	3.7665606857635794
13.0	80.50420165530659	pulse	1.0	t		36.0	female	white	2.7548746518105847	smiling	011	sub-13	1.0	1.0	011_smiling	0.0		188.80206262804313	
13.0	81.20418514389848	pulse	1.0	t		36.0	female	white	2.7548746518105847	smiling	011	sub-13	1.0	1.0	011_smiling	0.0		189.50204611663503	
13.0	81.90416078428916	pulse	1.0	t		36.0	female	white	2.7548746518105847	smiling	011	sub-13	1.0	1.0	011_smiling	0.0		190.2020217570257	
13.0	82.60411076709852	pulse	1.0	t		36.0	female	white	2.7548746518105847	smiling	011	sub-13	1.0	1.0	011_smiling	0.0		190.90197173983506	
13.0	83.3041138761937	pulse	1.0	t		36.0	female	white	2.7548746518105847	smiling	011	sub-13	1.0	1.0	011_smiling	0.0		191.60197484893024	
14.0	84.02064620278361	face	0.0		146	31.0	female	east_asian	3.395941106247513	smiling	087	sub-13	1.0	1.0	087_smiling	0.0		192.31850717552015	1.2333209875091597
14.0	84.0070087456129	pulse	0.0	t		31.0	female	east_asian	3.395941106247513	smiling	087	sub-13	1.0	1.0	087_smiling	0.0		192.30486971834944	
14.0	84.70409322938713	pulse	0.0	t		31.0	female	east_asian	3.395941106247513	smiling	087	sub-13	1.0	1.0	087_smiling	0.0		193.00195420212367	
14.0	85.25396719029277	fix	1.0		443	31.0	female	east_asian	3.395941106247513	smiling	087	sub-13	1.0	1.0	087_smiling	0.0		193.5518281630293	3.7665655154260094
14.0	85.40408999955025	pulse	1.0	t		31.0	female	east_asian	3.395941106247513	smiling	087	sub-13	1.0	1.0	087_smiling	0.0		193.7019509722868	
14.0	86.10405930100933	pulse	1.0	t		31.0	female	east_asian	3.395941106247513	smiling	087	sub-13	1.0	1.0	087_smiling	0.0		194.40192027374587	
14.0	86.80404822297123	pulse	1.0	t		31.0	female	east_asian	3.395941106247513	smiling	087	sub-13	1.0	1.0	087_smiling	0.0		195.10190919570778	
14.0	87.50402416521547	pulse	1.0	t		31.0	female	east_asian	3.395941106247513	smiling	087	sub-13	1.0	1.0	087_smiling	0.0		195.801885137952	
14.0	88.20401006863858	pulse	1.0	t		31.0	female	east_asian	3.395941106247513	smiling	087	sub-13	1.0	1.0	087_smiling	0.0		196.50187104137513	
14.0	88.90398540717524	pulse	1.0	t		31.0	female	east_asian	3.395941106247513	smiling	087	sub-13	1.0	1.0	087_smiling	0.0		197.20184637991179	
15.0	89.02053270571878	face	0.0		146	27.0	female	white	3.504576203740549	smiling	144	sub-13	1.0	1.0	144_smiling	0.0		197.31839367845532	1.2333191763855211
15.0	89.60399153480967	pulse	0.0	t		27.0	female	white	3.504576203740549	smiling	144	sub-13	1.0	1.0	144_smiling	0.0		197.9018525075462	
15.0	90.2538518821043	fix	1.0		443	27.0	female	white	3.504576203740549	smiling	144	sub-13	1.0	1.0	144_smiling	0.0		198.55171285484084	3.7582340460407977
15.0	90.30398558828756	pulse	1.0	t		27.0	female	white	3.504576203740549	smiling	144	sub-13	1.0	1.0	144_smiling	0.0		198.6018465610241	
15.0	91.00394492856776	pulse	1.0	t		27.0	female	white	3.504576203740549	smiling	144	sub-13	1.0	1.0	144_smiling	0.0		199.3018059013043	
15.0	91.7039302282833	pulse	1.0	t		27.0	female	white	3.504576203740549	smiling	144	sub-13	1.0	1.0	144_smiling	0.0		200.00179120101984	
15.0	92.4038992278879	pulse	1.0	t		27.0	female	white	3.504576203740549	smiling	144	sub-13	1.0	1.0	144_smiling	0.0		200.70176020062445	
15.0	93.10388452760344	pulse	1.0	t		27.0	female	white	3.504576203740549	smiling	144	sub-13	1.0	1.0	144_smiling	0.0		201.40174550033998	
15.0	93.80387948664338	pulse	1.0	t		27.0	female	white	3.504576203740549	smiling	144	sub-13	1.0	1.0	144_smiling	0.0		202.10174045937993	
16.0	94.0120859281451	face	0.0		146	31.0	female	white	2.1822522881018704	neutral	102	sub-13	1.0	1.0	102_neutral	1.0	trustworthiness	202.30994690088164	1.2416524568943714
16.0	94.50387957719931	pulse	0.0	t		31.0	female	white	2.1822522881018704	neutral	102	sub-13	1.0	1.0	102_neutral	1.0	trustworthiness	202.80174054993586	
16.0	95.20384435084952	pulse	0.0	t		31.0	female	white	2.1822522881018704	neutral	102	sub-13	1.0	1.0	102_neutral	1.0	trustworthiness	203.50170532358607	
16.0	95.25373838503947	fix	1.0		177	31.0	female	white	2.1822522881018704	neutral	102	sub-13	1.0	1.0	102_neutral	1.0	trustworthiness	203.551599357776	1.4999584950892313
16.0	95.90384685623712	pulse	1.0	t		31.0	female	white	2.1822522881018704	neutral	102	sub-13	1.0	1.0	102_neutral	1.0	trustworthiness	204.20170782897367	
16.0	96.60383608005304	pulse	1.0	t		31.0	female	white	2.1822522881018704	neutral	102	sub-13	1.0	1.0	102_neutral	1.0	trustworthiness	204.9016970527896	
16.0	96.7536968801287	rating	2.0		296	31.0	female	white	2.1822522881018704	neutral	102	sub-13	1.0	1.0	102_neutral	1.0	trustworthiness	205.05155785286524	2.4999452135180036
16.0	97.29874449909039	pulse	2.0	t		31.0	female	white	2.1822522881018704	neutral	102	sub-13	1.0	1.0	102_neutral	1.0	trustworthiness	205.59660547182693	
16.0	97.99865373162356	pulse	2.0	t		31.0	female	white	2.1822522881018704	neutral	102	sub-13	1.0	1.0	102_neutral	1.0	trustworthiness	206.2965147043601	
16.0	98.69874709503347	pulse	2.0	t		31.0	female	white	2.1822522881018704	neutral	102	sub-13	1.0	1.0	102_neutral	1.0	trustworthiness	206.99660806777	
16.0	99.2536420936467	fix	3.0		442	31.0	female	white	2.1822522881018704	neutral	102	sub-13	1.0	1.0	102_neutral	1.0	trustworthiness	207.55150306638325	3.7582868704721477
16.0	99.40374226386211	pulse	3.0	t		31.0	female	white	2.1822522881018704	neutral	102	sub-13	1.0	1.0	102_neutral	1.0	trustworthiness	207.70160323659866	
16.0	99.57878975302629	response	3.0	e		31.0	female	white	2.1822522881018704	neutral	102	sub-13	1.0	1.0	102_neutral	1.0	trustworthiness	207.87665072576283	
16.0	100.10371096161316	pulse	3.0	t		31.0	female	white	2.1822522881018704	neutral	102	sub-13	1.0	1.0	102_neutral	1.0	trustworthiness	208.4015719343497	
16.0	100.80370893919189	pulse	3.0	t		31.0	female	white	2.1822522881018704	neutral	102	sub-13	1.0	1.0	102_neutral	1.0	trustworthiness	209.10156991192844	
16.0	101.50368910739098	pulse	3.0	t		31.0	female	white	2.1822522881018704	neutral	102	sub-13	1.0	1.0	102_neutral	1.0	trustworthiness	209.80155008012753	
16.0	102.20368557570055	pulse	3.0	t		31.0	female	white	2.1822522881018704	neutral	102	sub-13	1.0	1.0	102_neutral	1.0	trustworthiness	210.5015465484371	
16.0	102.90367087541563	pulse	3.0	t		31.0	female	white	2.1822522881018704	neutral	102	sub-13	1.0	1.0	102_neutral	1.0	trustworthiness	211.20153184815217	
17.0	103.01192896411885	face	0.0		147	31.0	female	west_asian	2.364902506963788	smiling	006	sub-13	1.0	1.0	006_smiling	0.0		211.3097899368554	1.2415981231933984
17.0	103.60368817164408	pulse	0.0	t		31.0	female	west_asian	2.364902506963788	smiling	006	sub-13	1.0	1.0	006_smiling	0.0		211.90154914438062	
17.0	104.25352708731225	fix	1.0		443	31.0	female	west_asian	2.364902506963788	smiling	006	sub-13	1.0	1.0	006_smiling	0.0		212.5513880600488	3.76656340244881
17.0	104.30364268226185	pulse	1.0	t		31.0	female	west_asian	2.364902506963788	smiling	006	sub-13	1.0	1.0	006_smiling	0.0		212.6015036549984	
17.0	105.00361319113608	pulse	1.0	t		31.0	female	west_asian	2.364902506963788	smiling	006	sub-13	1.0	1.0	006_smiling	0.0		213.30147416387263	
17.0	105.70360422607519	pulse	1.0	t		31.0	female	west_asian	2.364902506963788	smiling	006	sub-13	1.0	1.0	006_smiling	0.0		214.00146519881173	
17.0	106.40357533865745	pulse	1.0	t		31.0	female	west_asian	2.364902506963788	smiling	006	sub-13	1.0	1.0	006_smiling	0.0		214.701436311394	
17.0	107.10355128090214	pulse	1.0	t		31.0	female	west_asian	2.364902506963788	smiling	006	sub-13	1.0	1.0	006_smiling	0.0		215.40141225363868	
17.0	107.80355438999732	pulse	1.0	t		31.0	female	west_asian	2.364902506963788	smiling	006	sub-13	1.0	1.0	006_smiling	0.0		216.10141536273386	
18.0	108.02009048976106	face	0.0		145	31.0	male	west_asian	1.9538400318344609	smiling	070	sub-13	1.0	1.0	070_smiling	0.0		216.3179514624976	1.2333188745319603
18.0	108.50354059527399	pulse	0.0	t		31.0	male	west_asian	1.9538400318344609	smiling	070	sub-13	1.0	1.0	070_smiling	0.0		216.80140156801053	
18.0	109.20353374319075	pulse	0.0	t		31.0	male	west_asian	1.9538400318344609	smiling	070	sub-13	1.0	1.0	070_smiling	0.0		217.5013947159273	
18.0	109.25340936429302	fix	1.0		445	31.0	male	west_asian	1.9538400318344609	smiling	070	sub-13	1.0	1.0	070_smiling	0.0		217.55127033702956	3.7665492153155355
18.0	109.90349338532496	pulse	1.0	t		31.0	male	west_asian	1.9538400318344609	smiling	070	sub-13	1.0	1.0	070_smiling	0.0		218.2013543580615	
18.0	110.60348170357884	pulse	1.0	t		31.0	male	west_asian	1.9538400318344609	smiling	070	sub-13	1.0	1.0	070_smiling	0.0		218.90134267631538	
18.0	111.30347122924877	pulse	1.0	t		31.0	male	west_asian	1.9538400318344609	smiling	070	sub-13	1.0	1.0	070_smiling	0.0		219.60133220198531	
18.0	112.0034649808731	pulse	1.0	t		31.0	male	west_asian	1.9538400318344609	smiling	070	sub-13	1.0	1.0	070_smiling	0.0		220.30132595360965	
18.0	112.70343639530938	pulse	1.0	t		31.0	male	west_asian	1.9538400318344609	smiling	070	sub-13	1.0	1.0	070_smiling	0.0		221.00129736804593	
19.0	113.01995857960856	face	0.0		145	24.0	female	east_asian	4.409868682849185	smiling	030	sub-13	1.0	1.0	030_smiling	0.0		221.3178195523451	1.2333318542491725
19.0	113.40342954322568	pulse	0.0	t		24.0	female	east_asian	4.409868682849185	smiling	030	sub-13	1.0	1.0	030_smiling	0.0		221.70129051596223	
19.0	114.10340729659356	pulse	0.0	t		24.0	female	east_asian	4.409868682849185	smiling	030	sub-13	1.0	1.0	030_smiling	0.0		222.4012682693301	
19.0	114.25329043385773	fix	1.0		444	24.0	female	east_asian	4.409868682849185	smiling	030	sub-13	1.0	1.0	030_smiling	0.0		222.55115140659427	3.766565213571994
19.0	114.80339380372425	pulse	1.0	t		24.0	female	east_asian	4.409868682849185	smiling	030	sub-13	1.0	1.0	030_smiling	0.0		223.1012547764608	
19.0	115.50337125523856	pulse	1.0	t		24.0	female	east_asian	4.409868682849185	smiling	030	sub-13	1.0	1.0	030_smiling	0.0		223.8012322279751	
19.0	116.20337104394048	pulse	1.0	t		24.0	female	east_asian	4.409868682849185	smiling	030	sub-13	1.0	1.0	030_smiling	0.0		224.50123201667702	
19.0	116.90330623590899	pulse	1.0	t		24.0	female	east_asian	4.409868682849185	smiling	030	sub-13	1.0	1.0	030_smiling	0.0		225.20116720864553	
19.0	117.60332323028342	pulse	1.0	t		24.0	female	east_asian	4.409868682849185	smiling	030	sub-13	1.0	1.0	030_smiling	0.0		225.90118420301997	
20.0	118.01985564742972	face	0.0		145	24.0	female	east_asian	4.409868682849185	neutral	030	sub-13	1.0	1.0	030_neutral	0.0		226.31771662016627	1.2333191763859759
20.0	118.30331094483017	pulse	0.0	t		24.0	female	east_asian	4.409868682849185	neutral	030	sub-13	1.0	1.0	030_neutral	0.0		226.60117191756672	
20.0	119.00330862055489	pulse	0.0	t		24.0	female	east_asian	4.409868682849185	neutral	030	sub-13	1.0	1.0	030_neutral	0.0		227.30116959329143	
20.0	119.2531748238157	fix	1.0		1185	24.0	female	east_asian	4.409868682849185	neutral	030	sub-13	1.0	1.0	030_neutral	0.0		227.55103579655224	10.016418437115135
20.0	119.70327611089033	pulse	1.0	t		24.0	female	east_asian	4.409868682849185	neutral	030	sub-13	1.0	1.0	030_neutral	0.0		228.00113708362687	
20.0	120.40324299751819	pulse	1.0	t		24.0	female	east_asian	4.409868682849185	neutral	030	sub-13	1.0	1.0	030_neutral	0.0		228.70110397025474	
20.0	121.10322618425607	pulse	1.0	t		24.0	female	east_asian	4.409868682849185	neutral	030	sub-13	1.0	1.0	030_neutral	0.0		229.40108715699262	
20.0	121.80322385998079	pulse	1.0	t		24.0	female	east_asian	4.409868682849185	neutral	030	sub-13	1.0	1.0	030_neutral	0.0		230.10108483271733	
20.0	122.50319708554025	pulse	1.0	t		24.0	female	east_asian	4.409868682849185	neutral	030	sub-13	1.0	1.0	030_neutral	0.0		230.8010580582768	
20.0	123.2031911390186	pulse	1.0	t		24.0	female	east_asian	4.409868682849185	neutral	030	sub-13	1.0	1.0	030_neutral	0.0		231.50105211175514	
20.0	123.90316466643208	pulse	1.0	t		24.0	female	east_asian	4.409868682849185	neutral	030	sub-13	1.0	1.0	030_neutral	0.0		232.20102563916862	
20.0	124.60316083288762	pulse	1.0	t		24.0	female	east_asian	4.409868682849185	neutral	030	sub-13	1.0	1.0	030_neutral	0.0		232.90102180562417	
20.0	125.3031406992327	pulse	1.0	t		24.0	female	east_asian	4.409868682849185	neutral	030	sub-13	1.0	1.0	030_neutral	0.0		233.60100167196924	
20.0	126.0031253952402	pulse	1.0	t		24.0	female	east_asian	4.409868682849185	neutral	030	sub-13	1.0	1.0	030_neutral	0.0		234.30098636797675	
20.0	126.7031097893937	pulse	1.0	t		24.0	female	east_asian	4.409868682849185	neutral	030	sub-13	1.0	1.0	030_neutral	0.0		235.00097076213024	
20.0	127.40309116500839	pulse	1.0	t		24.0	female	east_asian	4.409868682849185	neutral	030	sub-13	1.0	1.0	030_neutral	0.0		235.70095213774493	
20.0	128.1030634850058	pulse	1.0	t		24.0	female	east_asian	4.409868682849185	neutral	030	sub-13	1.0	1.0	030_neutral	0.0		236.40092445774235	
20.0	128.80306417926977	pulse	1.0	t		24.0	female	east_asian	4.409868682849185	neutral	030	sub-13	1.0	1.0	030_neutral	0.0		237.1009251520063	
21.0	129.26959326093083	face	0.0		145	25.0	female	west_asian	2.6756864305610826	neutral	064	sub-13	1.0	1.0	064_neutral	0.0		237.56745423366738	1.2333143467230911
21.0	129.50303891409885	pulse	0.0	t		25.0	female	west_asian	2.6756864305610826	neutral	064	sub-13	1.0	1.0	064_neutral	0.0		237.8008998868354	
21.0	130.20301817673635	pulse	0.0	t		25.0	female	west_asian	2.6756864305610826	neutral	064	sub-13	1.0	1.0	064_neutral	0.0		238.5008791494729	
21.0	130.50290760765392	fix	1.0		444	25.0	female	west_asian	2.6756864305610826	neutral	064	sub-13	1.0	1.0	064_neutral	0.0		238.80076858039047	3.758347241251613
21.0	130.90300015605862	pulse	1.0	t		25.0	female	west_asian	2.6756864305610826	neutral	064	sub-13	1.0	1.0	064_neutral	0.0		239.20086112879517	
21.0	131.60299481324455	pulse	1.0	t		25.0	female	west_asian	2.6756864305610826	neutral	064	sub-13	1.0	1.0	064_neutral	0.0		239.9008557859811	
21.0	132.30296924621962	pulse	1.0	t		25.0	female	west_asian	2.6756864305610826	neutral	064	sub-13	1.0	1.0	064_neutral	0.0		240.60083021895616	
21.0	133.00296088486675	pulse	1.0	t		25.0	female	west_asian	2.6756864305610826	neutral	064	sub-13	1.0	1.0	064_neutral	0.0		241.3008218576033	
21.0	133.7029558439067	pulse	1.0	t		25.0	female	west_asian	2.6756864305610826	neutral	064	sub-13	1.0	1.0	064_neutral	0.0		242.00081681664324	
22.0	134.26125484890554	face	0.0		146	28.0	female	white	5.676880222841227	neutral	124	sub-13	1.0	1.0	124_neutral	0.0		242.55911582164208	1.2415250745502817
22.0	134.4029218249725	pulse	0.0	t		28.0	female	white	5.676880222841227	neutral	124	sub-13	1.0	1.0	124_neutral	0.0		242.70078279770905	
22.0	135.1029019931716	pulse	0.0	t		28.0	female	white	5.676880222841227	neutral	124	sub-13	1.0	1.0	124_neutral	0.0		243.40076296590814	
22.0	135.50277992345582	fix	1.0		444	28.0	female	white	5.676880222841227	neutral	124	sub-13	1.0	1.0	124_neutral	0.0		243.80064089619236	3.7665757784589005
22.0	135.80288940586433	pulse	1.0	t		28.0	female	white	5.676880222841227	neutral	124	sub-13	1.0	1.0	124_neutral	0.0		244.10075037860088	
22.0	136.50287953524185	pulse	1.0	t		28.0	female	white	5.676880222841227	neutral	124	sub-13	1.0	1.0	124_neutral	0.0		244.8007405079784	
22.0	137.20286634422655	pulse	1.0	t		28.0	female	white	5.676880222841227	neutral	124	sub-13	1.0	1.0	124_neutral	0.0		245.5007273169631	
22.0	137.90283685310078	pulse	1.0	t		28.0	female	white	5.676880222841227	neutral	124	sub-13	1.0	1.0	124_neutral	0.0		246.20069782583732	
22.0	138.60281400276108	pulse	1.0	t		28.0	female	white	5.676880222841227	neutral	124	sub-13	1.0	1.0	124_neutral	0.0		246.90067497549762	
23.0	139.26935570191472	face	0.0		145	27.0	female	white	4.181058495821727	smiling	039	sub-13	1.0	1.0	039_smiling	0.0		247.56721667465126	1.2333086114990692
23.0	139.30282013039505	pulse	0.0	t		27.0	female	white	4.181058495821727	smiling	039	sub-13	1.0	1.0	039_smiling	0.0		247.6006811031316	
23.0	140.00279275224648	pulse	0.0	t		27.0	female	white	4.181058495821727	smiling	039	sub-13	1.0	1.0	039_smiling	0.0		248.30065372498302	
23.0	140.5026643134138	fix	1.0		443	27.0	female	white	4.181058495821727	smiling	039	sub-13	1.0	1.0	039_smiling	0.0		248.80052528615033	3.7665757784584457
23.0	140.7027756371308	pulse	1.0	t		27.0	female	white	4.181058495821727	smiling	039	sub-13	1.0	1.0	039_smiling	0.0		249.00063660986734	
23.0	141.4027615405539	pulse	1.0	t		27.0	female	white	4.181058495821727	smiling	039	sub-13	1.0	1.0	039_smiling	0.0		249.70062251329045	
23.0	142.10273687909057	pulse	1.0	t		27.0	female	white	4.181058495821727	smiling	039	sub-13	1.0	1.0	039_smiling	0.0		250.40059785182711	
23.0	142.8027315362765	pulse	1.0	t		27.0	female	white	4.181058495821727	smiling	039	sub-13	1.0	1.0	039_smiling	0.0		251.10059250901304	
23.0	143.50272076009242	pulse	1.0	t		27.0	female	white	4.181058495821727	smiling	039	sub-13	1.0	1.0	039_smiling	0.0		251.80058173282896	
23.0	144.20269489121347	pulse	1.0	t		27.0	female	white	4.181058495821727	smiling	039	sub-13	1.0	1.0	039_smiling	0.0		252.50055586395	
24.0	144.26924009187223	face	0.0		146	24.0	male	white	3.1153999204138483	neutral	012	sub-13	1.0	1.0	012_neutral	0.0		252.56710106460878	1.2333185726779448
24.0	144.90267687053574	pulse	0.0	t		24.0	male	white	3.1153999204138483	neutral	012	sub-13	1.0	1.0	012_neutral	0.0		253.2005378432723	
24.0	145.50255866455018	fix	1.0		443	24.0	male	white	3.1153999204138483	neutral	012	sub-13	1.0	1.0	012_neutral	0.0		253.80041963728672	3.766566722841617
24.0	145.6026700184525	pulse	1.0	t		24.0	male	white	3.1153999204138483	neutral	012	sub-13	1.0	1.0	012_neutral	0.0		253.90053099118904	
24.0	146.30266467563843	pulse	1.0	t		24.0	male	white	3.1153999204138483	neutral	012	sub-13	1.0	1.0	012_neutral	0.0		254.60052564837497	
24.0	147.0026379011979	pulse	1.0	t		24.0	male	white	3.1153999204138483	neutral	012	sub-13	1.0	1.0	012_neutral	0.0		255.30049887393443	
24.0	147.70261535271175	pulse	1.0	t		24.0	male	white	3.1153999204138483	neutral	012	sub-13	1.0	1.0	012_neutral	0.0		256.0004763254483	
24.0	148.40259884130364	pulse	1.0	t		24.0	male	white	3.1153999204138483	neutral	012	sub-13	1.0	1.0	012_neutral	0.0		256.7004598140402	
24.0	149.10258685770395	pulse	1.0	t		24.0	male	white	3.1153999204138483	neutral	012	sub-13	1.0	1.0	012_neutral	0.0		257.4004478304405	
25.0	149.2691253873918	face	0.0		146	40.0	male	black	2.408674890569041	smiling	061	sub-13	1.0	1.0	061_smiling	0.0		257.56698636012834	1.2333194782395367
25.0	149.80257185556547	pulse	0.0	t		40.0	male	black	2.408674890569041	smiling	061	sub-13	1.0	1.0	061_smiling	0.0		258.100432828302	
25.0	150.50244486563133	fix	1.0		444	40.0	male	black	2.408674890569041	smiling	061	sub-13	1.0	1.0	061_smiling	0.0		258.8003058383679	3.758351467206012
25.0	150.50984209720855	pulse	1.0	t		40.0	male	black	2.408674890569041	smiling	061	sub-13	1.0	1.0	061_smiling	0.0		258.8077030699451	
25.0	151.20251468443757	pulse	1.0	t		40.0	male	black	2.408674890569041	smiling	061	sub-13	1.0	1.0	061_smiling	0.0		259.5003756571741	
25.0	151.9025105490391	pulse	1.0	t		40.0	male	black	2.408674890569041	smiling	061	sub-13	1.0	1.0	061_smiling	0.0		260.20037152177565	
25.0	152.60251426184186	pulse	1.0	t		40.0	male	black	2.408674890569041	smiling	061	sub-13	1.0	1.0	061_smiling	0.0		260.9003752345784	
25.0	153.30248839296337	pulse	1.0	t		40.0	male	black	2.408674890569041	smiling	061	sub-13	1.0	1.0	061_smiling	0.0		261.6003493656999	
25.0	154.00247037228564	pulse	1.0	t		40.0	male	black	2.408674890569041	smiling	061	sub-13	1.0	1.0	061_smiling	0.0		262.3003313450222	
26.0	154.26079633283734	face	0.0		146	25.0	female	black	3.858336649423	neutral	126	sub-13	1.0	1.0	126_neutral	0.0		262.5586573055739	1.2415293005051353
26.0	154.702470160988	pulse	0.0	t		25.0	female	black	3.858336649423	neutral	126	sub-13	1.0	1.0	126_neutral	0.0		263.00033113372456	
26.0	155.40243070868382	pulse	0.0	t		25.0	female	black	3.858336649423	neutral	126	sub-13	1.0	1.0	126_neutral	0.0		263.70029168142037	
26.0	155.50232563334248	fix	1.0		444	25.0	female	black	3.858336649423	neutral	126	sub-13	1.0	1.0	126_neutral	0.0		263.800186606079	3.7665670246956324
26.0	156.10242264918452	pulse	1.0	t		25.0	female	black	3.858336649423	neutral	126	sub-13	1.0	1.0	126_neutral	0.0		264.40028362192106	
26.0	156.80237383940948	pulse	1.0	t		25.0	female	black	3.858336649423	neutral	126	sub-13	1.0	1.0	126_neutral	0.0		265.100234812146	
26.0	157.50239113563794	pulse	1.0	t		25.0	female	black	3.858336649423	neutral	126	sub-13	1.0	1.0	126_neutral	0.0		265.8002521083745	
26.0	158.20236073895057	pulse	1.0	t		25.0	female	black	3.858336649423	neutral	126	sub-13	1.0	1.0	126_neutral	0.0		266.5002217116871	
26.0	158.90234271827285	pulse	1.0	t		25.0	female	black	3.858336649423	neutral	126	sub-13	1.0	1.0	126_neutral	0.0		267.2002036910094	
27.0	159.2688926580381	face	0.0		145	24.0	male	white	3.1153999204138483	smiling	012	sub-13	1.0	1.0	012_smiling	0.0		267.56675363077466	1.2333019707134554
27.0	159.60234492180643	pulse	0.0	t		24.0	male	white	3.1153999204138483	smiling	012	sub-13	1.0	1.0	012_smiling	0.0		267.900205894543	
27.0	160.30231361955748	pulse	0.0	t		24.0	male	white	3.1153999204138483	smiling	012	sub-13	1.0	1.0	012_smiling	0.0		268.600174592294	
27.0	160.50219462875157	fix	1.0		444	24.0	male	white	3.1153999204138483	smiling	012	sub-13	1.0	1.0	012_smiling	0.0		268.8000556014881	3.766565817280025
27.0	161.00230435264257	pulse	1.0	t		24.0	male	white	3.1153999204138483	smiling	012	sub-13	1.0	1.0	012_smiling	0.0		269.3001653253791	
27.0	161.7022947838741	pulse	1.0	t		24.0	male	white	3.1153999204138483	smiling	012	sub-13	1.0	1.0	012_smiling	0.0		270.00015575661064	
27.0	162.40226378347916	pulse	1.0	t		24.0	male	white	3.1153999204138483	smiling	012	sub-13	1.0	1.0	012_smiling	0.0		270.7001247562157	
27.0	163.1022557239803	pulse	1.0	t		24.0	male	white	3.1153999204138483	smiling	012	sub-13	1.0	1.0	012_smiling	0.0		271.40011669671685	
27.0	163.802242231111	pulse	1.0	t		24.0	male	white	3.1153999204138483	smiling	012	sub-13	1.0	1.0	012_smiling	0.0		272.10010320384754	
28.0	164.2687604460316	face	0.0		145	34.0	male	white	2.651014723438122	neutral	121	sub-13	1.0	1.0	121_neutral	0.0		272.56662141876814	1.233329741271973
28.0	164.50222239931009	pulse	0.0	t		34.0	male	white	2.651014723438122	neutral	121	sub-13	1.0	1.0	121_neutral	0.0		272.80008337204663	
28.0	165.2022083027332	pulse	0.0	t		34.0	male	white	2.651014723438122	neutral	121	sub-13	1.0	1.0	121_neutral	0.0		273.50006927546974	
28.0	165.50209018730357	fix	1.0		444	34.0	male	white	2.651014723438122	neutral	121	sub-13	1.0	1.0	121_neutral	0.0		273.7999511600401	3.766565213571994
28.0	165.90220869514314	pulse	1.0	t		34.0	male	white	2.651014723438122	neutral	121	sub-13	1.0	1.0	121_neutral	0.0		274.2000696678797	
28.0	166.60216743171532	pulse	1.0	t		34.0	male	white	2.651014723438122	neutral	121	sub-13	1.0	1.0	121_neutral	0.0		274.90002840445186	
28.0	167.30215122216123	pulse	1.0	t		34.0	male	white	2.651014723438122	neutral	121	sub-13	1.0	1.0	121_neutral	0.0		275.6000121948978	
28.0	168.0021223347435	pulse	1.0	t		34.0	male	white	2.651014723438122	neutral	121	sub-13	1.0	1.0	121_neutral	0.0		276.29998330748003	
28.0	168.7023083672998	pulse	1.0	t		34.0	male	white	2.651014723438122	neutral	121	sub-13	1.0	1.0	121_neutral	0.0		277.00016934003634	
29.0	169.26865540087556	face	0.0		145	37.0	male	white	3.898925586947871	neutral	101	sub-13	1.0	1.0	101_neutral	0.0		277.5665163736121	1.2333173652623373
29.0	169.4021025934985	pulse	0.0	t		37.0	male	white	3.898925586947871	neutral	101	sub-13	1.0	1.0	101_neutral	0.0		277.69996356623506	
29.0	170.10209604326928	pulse	0.0	t		37.0	male	white	3.898925586947871	neutral	101	sub-13	1.0	1.0	101_neutral	0.0		278.3999570160058	
29.0	170.5019727661379	fix	1.0		444	37.0	male	white	3.898925586947871	neutral	101	sub-13	1.0	1.0	101_neutral	0.0		278.79983373887444	3.76656823211124
29.0	170.80207711702997	pulse	1.0	t		37.0	male	white	3.898925586947871	neutral	101	sub-13	1.0	1.0	101_neutral	0.0		279.0999380897665	
29.0	171.50206362416066	pulse	1.0	t		37.0	male	white	3.898925586947871	neutral	101	sub-13	1.0	1.0	101_neutral	0.0		279.7999245968972	
29.0	172.20204982943778	pulse	1.0	t		37.0	male	white	3.898925586947871	neutral	101	sub-13	1.0	1.0	101_neutral	0.0		280.4999108021743	
29.0	172.90202999763642	pulse	1.0	t		37.0	male	white	3.898925586947871	neutral	101	sub-13	1.0	1.0	101_neutral	0.0		281.19989097037296	
29.0	173.60201499549794	pulse	1.0	t		37.0	male	white	3.898925586947871	neutral	101	sub-13	1.0	1.0	101_neutral	0.0		281.8998759682345	
30.0	174.26854099824914	face	0.0		145	47.0	male	east_asian	2.171110226820533	smiling	024	sub-13	1.0	1.0	024_smiling	1.0	dominance	282.5664019709857	1.2333155541386986
30.0	174.30200361560628	pulse	0.0	t		47.0	male	east_asian	2.171110226820533	smiling	024	sub-13	1.0	1.0	024_smiling	1.0	dominance	282.5998645883428	
30.0	175.00198951902894	pulse	0.0	t		47.0	male	east_asian	2.171110226820533	smiling	024	sub-13	1.0	1.0	024_smiling	1.0	dominance	283.2998504917655	
30.0	175.50185655238784	fix	1.0		177	47.0	male	east_asian	2.171110226820533	smiling	024	sub-13	1.0	1.0	024_smiling	1.0	dominance	283.7997175251244	1.4999690599756832
30.0	175.70197119649765	pulse	1.0	t		47.0	male	east_asian	2.171110226820533	smiling	024	sub-13	1.0	1.0	024_smiling	1.0	dominance	283.9998321692342	
30.0	176.40193838497908	pulse	1.0	t		47.0	male	east_asian	2.171110226820533	smiling	024	sub-13	1.0	1.0	024_smiling	1.0	dominance	284.6997993577156	
30.0	177.00182561236352	rating	2.0		295	47.0	male	east_asian	2.171110226820533	smiling	024	sub-13	1.0	1.0	024_smiling	1.0	dominance	285.29968658510006	2.4999373653167822
30.0	177.09679941295462	pulse	2.0	t		47.0	male	east_asian	2.171110226820533	smiling	024	sub-13	1.0	1.0	024_smiling	1.0	dominance	285.39466038569117	
30.0	177.7968034276114	pulse	2.0	t		47.0	male	east_asian	2.171110226820533	smiling	024	sub-13	1.0	1.0	024_smiling	1.0	dominance	286.09466440034794	
30.0	178.4967594474988	pulse	2.0	t		47.0	male	east_asian	2.171110226820533	smiling	024	sub-13	1.0	1.0	024_smiling	1.0	dominance	286.79462042023533	
30.0	179.19674686019152	pulse	2.0	t		47.0	male	east_asian	2.171110226820533	smiling	024	sub-13	1.0	1.0	024_smiling	1.0	dominance	287.49460783292807	
30.0	179.5017629776803	fix	3.0		444	47.0	male	east_asian	2.171110226820533	smiling	024	sub-13	1.0	1.0	024_smiling	1.0	dominance	287.79962395041684	3.7665640061563863
30.0	179.90187937254268	pulse	3.0	t		47.0	male	east_asian	2.171110226820533	smiling	024	sub-13	1.0	1.0	024_smiling	1.0	dominance	288.1997403452792	
30.0	180.6018498814169	pulse	3.0	t		47.0	male	east_asian	2.171110226820533	smiling	024	sub-13	1.0	1.0	024_smiling	1.0	dominance	288.89971085415345	
30.0	181.3018288422004	pulse	3.0	t		47.0	male	east_asian	2.171110226820533	smiling	024	sub-13	1.0	1.0	024_smiling	1.0	dominance	289.59968981493694	
30.0	182.0018180660163	pulse	3.0	t		47.0	male	east_asian	2.171110226820533	smiling	024	sub-13	1.0	1.0	024_smiling	1.0	dominance	290.29967903875286	
30.0	182.70180064904616	pulse	3.0	t		47.0	male	east_asian	2.171110226820533	smiling	024	sub-13	1.0	1.0	024_smiling	1.0	dominance	290.9996616217827	
31.0	183.2683269838367	face	0.0		144	32.0	male	white	2.389176283326701	smiling	092	sub-13	1.0	1.0	092_smiling	0.0		291.56618795657323	1.2333167615543061
31.0	183.4017904765701	pulse	0.0	t		32.0	male	white	2.389176283326701	smiling	092	sub-13	1.0	1.0	092_smiling	0.0		291.69965144930666	
31.0	183.98510351022878	response	0.0	e		32.0	male	white	2.389176283326701	smiling	092	sub-13	1.0	1.0	092_smiling	0.0		292.2829644829653	
31.0	184.1017640039836	pulse	0.0	t		32.0	male	white	2.389176283326701	smiling	092	sub-13	1.0	1.0	092_smiling	0.0		292.39962497672013	
31.0	184.501643745391	fix	1.0		444	32.0	male	white	2.389176283326701	smiling	092	sub-13	1.0	1.0	092_smiling	0.0		292.79950471812754	3.7665627987412336
31.0	184.80174236105904	pulse	1.0	t		32.0	male	white	2.389176283326701	smiling	092	sub-13	1.0	1.0	092_smiling	0.0		293.0996033337956	
31.0	185.50173792380656	pulse	1.0	t		32.0	male	white	2.389176283326701	smiling	092	sub-13	1.0	1.0	092_smiling	0.0		293.7995988965431	
31.0	186.2017177901521	pulse	1.0	t		32.0	male	white	2.389176283326701	smiling	092	sub-13	1.0	1.0	092_smiling	0.0		294.49957876288863	
31.0	186.9016922231267	pulse	1.0	t		32.0	male	white	2.389176283326701	smiling	092	sub-13	1.0	1.0	092_smiling	0.0		295.19955319586325	
31.0	187.60168355992028	pulse	1.0	t		32.0	male	white	2.389176283326701	smiling	092	sub-13	1.0	1.0	092_smiling	0.0		295.8995445326568	
32.0	188.26820654413223	face	0.0		145	32.0	male	white	2.389176283326701	neutral	092	sub-13	1.0	1.0	092_neutral	1.0	dominance	296.56606751686877	1.2333218930707517
32.0	188.3016715763206	pulse	0.0	t		32.0	male	white	2.389176283326701	neutral	092	sub-13	1.0	1.0	092_neutral	1.0	dominance	296.59953254905713	
32.0	189.00165476305847	pulse	0.0	t		32.0	male	white	2.389176283326701	neutral	092	sub-13	1.0	1.0	092_neutral	1.0	dominance	297.299515735795	
32.0	189.50152843720298	fix	1.0		177	32.0	male	white	2.389176283326701	neutral	092	sub-13	1.0	1.0	092_neutral	1.0	dominance	297.7993894099395	1.499944307955957
32.0	189.7016282904715	pulse	1.0	t		32.0	male	white	2.389176283326701	neutral	092	sub-13	1.0	1.0	092_neutral	1.0	dominance	297.99948926320803	
32.0	190.40161932541105	pulse	1.0	t		32.0	male	white	2.389176283326701	neutral	092	sub-13	1.0	1.0	092_neutral	1.0	dominance	298.6994802981476	
32.0	191.00147274515894	rating	2.0		294	32.0	male	white	2.389176283326701	neutral	092	sub-13	1.0	1.0	092_neutral	1.0	dominance	299.2993337178955	2.4999485339108105
32.0	191.09660109494507	pulse	2.0	t		32.0	male	white	2.389176283326701	neutral	092	sub-13	1.0	1.0	092_neutral	1.0	dominance	299.3944620676816	
32.0	191.79643063804997	pulse	2.0	t		32.0	male	white	2.389176283326701	neutral	092	sub-13	1.0	1.0	092_neutral	1.0	dominance	300.0942916107865	
32.0	192.49641382478785	pulse	2.0	t		32.0	male	white	2.389176283326701	neutral	092	sub-13	1.0	1.0	092_neutral	1.0	dominance	300.7942747975244	
32.0	193.196410896805	pulse	2.0	t		32.0	male	white	2.389176283326701	neutral	092	sub-13	1.0	1.0	092_neutral	1.0	dominance	301.49427186954154	
32.0	193.41821042295487	response	2.0	n		32.0	male	white	2.389176283326701	neutral	092	sub-13	1.0	1.0	092_neutral	1.0	dominance	301.7160713956914	
32.0	193.50142127906975	fix	3.0		444	32.0	male	white	2.389176283326701	neutral	092	sub-13	1.0	1.0	092_neutral	1.0	dominance	301.7992822518063	3.7665718543580624
32.0	193.90151231820482	pulse	3.0	t		32.0	male	white	2.389176283326701	neutral	092	sub-13	1.0	1.0	092_neutral	1.0	dominance	302.19937329094137	
32.0	194.60151723842318	pulse	3.0	t		32.0	male	white	2.389176283326701	neutral	092	sub-13	1.0	1.0	092_neutral	1.0	dominance	302.8993782111597	
32.0	195.30150072701508	pulse	3.0	t		32.0	male	white	2.389176283326701	neutral	092	sub-13	1.0	1.0	092_neutral	1.0	dominance	303.5993616997516	
32.0	196.00147606555174	pulse	3.0	t		32.0	male	white	2.389176283326701	neutral	092	sub-13	1.0	1.0	092_neutral	1.0	dominance	304.2993370382883	
32.0	196.7014957766114	pulse	3.0	t		32.0	male	white	2.389176283326701	neutral	092	sub-13	1.0	1.0	092_neutral	1.0	dominance	304.99935674934795	
33.0	197.2679931334278	face	0.0		145	54.0	female	white	2.286908077994429	neutral	136	sub-13	1.0	1.0	136_neutral	0.0		305.56585410616435	1.233324911609543
33.0	197.40145964470003	pulse	0.0	t		54.0	female	white	2.286908077994429	neutral	136	sub-13	1.0	1.0	136_neutral	0.0		305.69932061743657	
33.0	198.10142532391183	pulse	0.0	t		54.0	female	white	2.286908077994429	neutral	136	sub-13	1.0	1.0	136_neutral	0.0		306.39928629664837	
33.0	198.50131804503735	fix	1.0		444	54.0	female	white	2.286908077994429	neutral	136	sub-13	1.0	1.0	136_neutral	0.0		306.7991790177739	3.766565213571994
33.0	198.80143537564663	pulse	1.0	t		54.0	female	white	2.286908077994429	neutral	136	sub-13	1.0	1.0	136_neutral	0.0		307.0992963483832	
33.0	199.50140799749852	pulse	1.0	t		54.0	female	white	2.286908077994429	neutral	136	sub-13	1.0	1.0	136_neutral	0.0		307.79926897023506	
33.0	200.2013902786748	pulse	1.0	t		54.0	female	white	2.286908077994429	neutral	136	sub-13	1.0	1.0	136_neutral	0.0		308.49925125141135	
33.0	200.9013704468739	pulse	1.0	t		54.0	female	white	2.286908077994429	neutral	136	sub-13	1.0	1.0	136_neutral	0.0		309.19923141961044	
33.0	201.60134789838776	pulse	1.0	t		54.0	female	white	2.286908077994429	neutral	136	sub-13	1.0	1.0	136_neutral	0.0		309.8992088711243	
34.0	202.26788325860934	face	0.0		145	23.0	male	white	2.6275368085953046	smiling	141	sub-13	1.0	1.0	141_smiling	0.0		310.5657442313459	1.2333231004863592
34.0	202.3013479889437	pulse	0.0	t		23.0	male	white	2.6275368085953046	smiling	141	sub-13	1.0	1.0	141_smiling	0.0		310.59920896168023	
34.0	203.00132694972717	pulse	0.0	t		23.0	male	white	2.6275368085953046	smiling	141	sub-13	1.0	1.0	141_smiling	0.0		311.2991879224637	
34.0	203.5012063590957	fix	1.0		442	23.0	male	white	2.6275368085953046	smiling	141	sub-13	1.0	1.0	141_smiling	0.0		311.79906733183225	3.7583052835602757
34.0	203.70130017528663	pulse	1.0	t		23.0	male	white	2.6275368085953046	smiling	141	sub-13	1.0	1.0	141_smiling	0.0		311.9991611480232	
34.0	204.1596426774322	response	1.0	n		23.0	male	white	2.6275368085953046	smiling	141	sub-13	1.0	1.0	141_smiling	0.0		312.45750365016875	
34.0	204.40127098601488	pulse	1.0	t		23.0	male	white	2.6275368085953046	smiling	141	sub-13	1.0	1.0	141_smiling	0.0		312.6991319587514	
34.0	205.1012632283696	pulse	1.0	t		23.0	male	white	2.6275368085953046	smiling	141	sub-13	1.0	1.0	141_smiling	0.0		313.39912420110613	
34.0	205.80126030038718	pulse	1.0	t		23.0	male	white	2.6275368085953046	smiling	141	sub-13	1.0	1.0	141_smiling	0.0		314.0991212731237	
34.0	206.50125314644947	pulse	1.0	t		23.0	male	white	2.6275368085953046	smiling	141	sub-13	1.0	1.0	141_smiling	0.0		314.799114119186	
34.0	207.20122757942454	pulse	1.0	t		23.0	male	white	2.6275368085953046	smiling	141	sub-13	1.0	1.0	141_smiling	0.0		315.4990885521611	
35.0	207.25951164265598	face	0.0		147	20.0	male	black	3.1070433744528456	neutral	082	sub-13	1.0	1.0	082_neutral	0.0		315.5573726153925	1.2415585803328213
35.0	207.90120714391605	pulse	0.0	t		20.0	male	black	3.1070433744528456	neutral	082	sub-13	1.0	1.0	082_neutral	0.0		316.1990681166526	
35.0	208.5010702229888	fix	1.0		443	20.0	male	black	3.1070433744528456	neutral	082	sub-13	1.0	1.0	082_neutral	0.0		316.79893119572534	3.7665790988512526
35.0	208.60119214177712	pulse	1.0	t		20.0	male	black	3.1070433744528456	neutral	082	sub-13	1.0	1.0	082_neutral	0.0		316.89905311451366	
35.0	209.3011659710446	pulse	1.0	t		20.0	male	black	3.1070433744528456	neutral	082	sub-13	1.0	1.0	082_neutral	0.0		317.59902694378115	
35.0	210.0011557985681	pulse	1.0	t		20.0	male	black	3.1070433744528456	neutral	082	sub-13	1.0	1.0	082_neutral	0.0		318.29901677130465	
35.0	210.70112630744234	pulse	1.0	t		20.0	male	black	3.1070433744528456	neutral	082	sub-13	1.0	1.0	082_neutral	0.0		318.9989872801789	
35.0	211.4011282091219	pulse	1.0	t		20.0	male	black	3.1070433744528456	neutral	082	sub-13	1.0	1.0	082_neutral	0.0		319.69898918185845	
35.0	212.101108377321	pulse	1.0	t		20.0	male	black	3.1070433744528456	neutral	082	sub-13	1.0	1.0	082_neutral	0.0		320.39896935005754	
36.0	212.26764932184005	face	0.0		146	24.0	female	black	3.0955033824114606	neutral	099	sub-13	1.0	1.0	099_neutral	0.0		320.5655102945766	1.2333173652623373
36.0	212.80109729928336	pulse	0.0	t		24.0	female	black	3.0955033824114606	neutral	099	sub-13	1.0	1.0	099_neutral	0.0		321.0989582720199	
36.0	213.5009666871024	fix	1.0		444	24.0	female	black	3.0955033824114606	neutral	099	sub-13	1.0	1.0	099_neutral	0.0		321.79882765983893	3.766562798740779
36.0	213.50853114573783	pulse	1.0	t		24.0	female	black	3.0955033824114606	neutral	099	sub-13	1.0	1.0	099_neutral	0.0		321.8063921184744	
36.0	214.20106910612913	pulse	1.0	t		24.0	female	black	3.0955033824114606	neutral	099	sub-13	1.0	1.0	099_neutral	0.0		322.49893007886567	
36.0	214.90103267236418	pulse	1.0	t		24.0	female	black	3.0955033824114606	neutral	099	sub-13	1.0	1.0	099_neutral	0.0		323.1988936451007	
36.0	215.60103397033572	pulse	1.0	t		24.0	female	black	3.0955033824114606	neutral	099	sub-13	1.0	1.0	099_neutral	0.0		323.89889494307226	
36.0	216.30101232741117	pulse	1.0	t		24.0	female	black	3.0955033824114606	neutral	099	sub-13	1.0	1.0	099_neutral	0.0		324.5988733001477	
36.0	217.00099460858746	pulse	1.0	t		24.0	female	black	3.0955033824114606	neutral	099	sub-13	1.0	1.0	099_neutral	0.0		325.298855581324	
37.0	217.26752948584317	face	0.0		145	27.0	female	white	3.504576203740549	neutral	144	sub-13	1.0	1.0	144_neutral	0.0		325.5653904585797	1.2333224967787828
37.0	217.7009832286958	pulse	0.0	t		27.0	female	white	3.504576203740549	neutral	144	sub-13	1.0	1.0	144_neutral	0.0		325.99884420143235	
37.0	218.4009624913333	pulse	0.0	t		27.0	female	white	3.504576203740549	neutral	144	sub-13	1.0	1.0	144_neutral	0.0		326.69882346406985	
37.0	218.50085198262195	fix	1.0		444	27.0	female	white	3.504576203740549	neutral	144	sub-13	1.0	1.0	144_neutral	0.0		326.7987129553585	3.7665510264387194
37.0	219.10094175397035	pulse	1.0	t		27.0	female	white	3.504576203740549	neutral	144	sub-13	1.0	1.0	144_neutral	0.0		327.3988027267069	
37.0	219.80090682947457	pulse	1.0	t		27.0	female	white	3.504576203740549	neutral	144	sub-13	1.0	1.0	144_neutral	0.0		328.0987678022111	
37.0	220.50091084413134	pulse	1.0	t		27.0	female	white	3.504576203740549	neutral	144	sub-13	1.0	1.0	144_neutral	0.0		328.7987718168679	
37.0	221.2008964457009	pulse	1.0	t		27.0	female	white	3.504576203740549	neutral	144	sub-13	1.0	1.0	144_neutral	0.0		329.49875741843744	
37.0	221.90089472513364	pulse	1.0	t		27.0	female	white	3.504576203740549	neutral	144	sub-13	1.0	1.0	144_neutral	0.0		330.1987556978702	
38.0	222.26740300906067	face	0.0		145	25.0	female	black	3.858336649423	smiling	126	sub-13	1.0	1.0	126_smiling	0.0		330.5652639817972	1.233328835710381
38.0	222.6008730822091	pulse	0.0	t		25.0	female	black	3.858336649423	smiling	126	sub-13	1.0	1.0	126_smiling	0.0		330.89873405494563	
38.0	223.30085053372295	pulse	0.0	t		25.0	female	black	3.858336649423	smiling	126	sub-13	1.0	1.0	126_smiling	0.0		331.5987115064595	
38.0	223.50073184477105	fix	1.0		444	25.0	female	black	3.858336649423	smiling	126	sub-13	1.0	1.0	126_smiling	0.0		331.7985928175076	3.766571552504047
38.0	224.0008379464157	pulse	1.0	t		25.0	female	black	3.858336649423	smiling	126	sub-13	1.0	1.0	126_smiling	0.0		332.29869891915223	
38.0	224.70082143500758	pulse	1.0	t		25.0	female	black	3.858336649423	smiling	126	sub-13	1.0	1.0	126_smiling	0.0		332.9986824077441	
38.0	225.40079888652144	pulse	1.0	t		25.0	female	black	3.858336649423	smiling	126	sub-13	1.0	1.0	126_smiling	0.0		333.698659859258	
38.0	226.10077362135053	pulse	1.0	t		25.0	female	black	3.858336649423	smiling	126	sub-13	1.0	1.0	126_smiling	0.0		334.39863459408707	
38.0	226.80074443207877	pulse	1.0	t		25.0	female	black	3.858336649423	smiling	126	sub-13	1.0	1.0	126_smiling	0.0		335.0986054048153	
39.0	227.2673033972751	face	0.0		145	22.0	male	black	2.767608436132113	smiling	044	sub-13	1.0	1.0	044_smiling	0.0		335.56516437001164	1.233311931892331
39.0	227.5007424096575	pulse	0.0	t		22.0	male	black	2.767608436132113	smiling	044	sub-13	1.0	1.0	044_smiling	0.0		335.79860338239405	
39.0	228.20074129279828	pulse	0.0	t		22.0	male	black	2.767608436132113	smiling	044	sub-13	1.0	1.0	044_smiling	0.0		336.4986022655348	
39.0	228.50061532916743	fix	1.0		444	22.0	male	black	2.767608436132113	smiling	044	sub-13	1.0	1.0	044_smiling	0.0		336.798476301904	3.7499122359795365
39.0	228.90069731268522	pulse	1.0	t		22.0	male	black	2.767608436132113	smiling	044	sub-13	1.0	1.0	044_smiling	0.0		337.19855828542177	
39.0	229.60070344031965	pulse	1.0	t		22.0	male	black	2.767608436132113	smiling	044	sub-13	1.0	1.0	044_smiling	0.0		337.8985644130562	
39.0	230.30069356969716	pulse	1.0	t		22.0	male	black	2.767608436132113	smiling	044	sub-13	1.0	1.0	044_smiling	0.0		338.5985545424337	
39.0	231.00065592851615	pulse	1.0	t		22.0	male	black	2.767608436132113	smiling	044	sub-13	1.0	1.0	044_smiling	0.0		339.2985169012527	
39.0	231.70065964131936	pulse	1.0	t		22.0	male	black	2.767608436132113	smiling	044	sub-13	1.0	1.0	044_smiling	0.0		339.9985206140559	
40.0	232.25052756514697	fix	0.0		720													340.5483885378835	5.999862052769458
40.0	232.4006364891252	pulse	0.0	t														340.69849746186173	
40.0	233.10060850726904	pulse	0.0	t														341.3984694800056	
40.0	233.80059139215336	pulse	0.0	t														342.0984523648899	
40.0	234.50059480310256	pulse	0.0	t														342.7984557758391	
40.0	235.2005695379312	pulse	0.0	t														343.49843051066773	
40.0	235.90056510067916	pulse	0.0	t														344.1984260734157	
40.0	236.60053440213778	pulse	0.0	t														344.8983953748743	
40.0	237.30051275921323	pulse	0.0	t														345.5983737319498	
40.0	238.0005303572957	pulse	0.0	t														346.29839133003225	
