trial_nr	onset	event_type	phase	response	nr_frames	face_age	face_sex	face_eth	attractiveness	expression	face_id	sub_id	ses	run	trial_type	catch	rating_type	onset_abs	duration
-1.0	0.0573828561391565	fix	0.0		714													26.4763049934636	5.9662763808187265
-1.0	0.7072448640469702	pulse	0.0	t														27.126167001371414	
-1.0	1.407224428599875	pulse	0.0	t														27.82614656592432	
-1.0	2.1072030875939163	pulse	0.0	t														28.52612522491836	
-1.0	2.8071772187931856	pulse	0.0	t														29.22609935611763	
-1.0	3.5071634241116953	pulse	0.0	t														29.92608556143614	
-1.0	4.2071460071942965	pulse	0.0	t														30.62606814451874	
-1.0	4.90712798657114	pulse	0.0	t														31.326050123895584	
-1.0	5.607106041859424	pulse	0.0	t														32.02602817918387	
0.0	6.023659236957883	face	0.0		144	24.0	female	black	3.0955033824114606	smiling	099	sub-12	2.0	2.0	099_smiling	0.0		32.44258137428233	1.2332958331307964
0.0	6.307097076825357	pulse	0.0	t		24.0	female	black	3.0955033824114606	smiling	099	sub-12	2.0	2.0	099_smiling	0.0		32.7260192141498	
0.0	7.007071509877733	pulse	0.0	t		24.0	female	black	3.0955033824114606	smiling	099	sub-12	2.0	2.0	099_smiling	0.0		33.425993647202176	
0.0	7.256955070088679	fix	1.0		444	24.0	female	black	3.0955033824114606	smiling	099	sub-12	2.0	2.0	099_smiling	0.0		33.67587720741312	3.758228436905938
0.0	7.707054696666546	pulse	1.0	t		24.0	female	black	3.0955033824114606	smiling	099	sub-12	2.0	2.0	099_smiling	0.0		34.12597683399099	
0.0	8.407031544542406	pulse	1.0	t		24.0	female	black	3.0955033824114606	smiling	099	sub-12	2.0	2.0	099_smiling	0.0		34.82595368186685	
0.0	9.107016240596295	pulse	1.0	t		24.0	female	black	3.0955033824114606	smiling	099	sub-12	2.0	2.0	099_smiling	0.0		35.52593837792074	
0.0	9.807014520034045	pulse	1.0	t		24.0	female	black	3.0955033824114606	smiling	099	sub-12	2.0	2.0	099_smiling	0.0		36.22593665735849	
0.0	10.50697687896718	pulse	1.0	t		24.0	female	black	3.0955033824114606	smiling	099	sub-12	2.0	2.0	099_smiling	0.0		36.92589901629162	
1.0	11.015183506994617	face	0.0		146	19.0	female	white	4.298846000795861	smiling	100	sub-12	2.0	2.0	100_smiling	0.0		37.43410564431906	1.241636031104008
1.0	11.206973649139854	pulse	0.0	t		19.0	female	white	4.298846000795861	smiling	100	sub-12	2.0	2.0	100_smiling	0.0		37.6258957864643	
1.0	11.906938121043822	pulse	0.0	t		19.0	female	white	4.298846000795861	smiling	100	sub-12	2.0	2.0	100_smiling	0.0		38.325860258368266	
1.0	12.256819538098625	fix	1.0		444	19.0	female	white	4.298846000795861	smiling	100	sub-12	2.0	2.0	100_smiling	0.0		38.67574167542307	3.758213947962304
1.0	12.606942135688314	pulse	1.0	t		19.0	female	white	4.298846000795861	smiling	100	sub-12	2.0	2.0	100_smiling	0.0		39.02586427301276	
1.0	13.306902381650161	pulse	1.0	t		19.0	female	white	4.298846000795861	smiling	100	sub-12	2.0	2.0	100_smiling	0.0		39.725824518974605	
1.0	14.00688949252799	pulse	1.0	t		19.0	female	white	4.298846000795861	smiling	100	sub-12	2.0	2.0	100_smiling	0.0		40.42581162985243	
1.0	14.706866642256955	pulse	1.0	t		19.0	female	white	4.298846000795861	smiling	100	sub-12	2.0	2.0	100_smiling	0.0		41.1257887795814	
1.0	15.406845904956754	pulse	1.0	t		19.0	female	white	4.298846000795861	smiling	100	sub-12	2.0	2.0	100_smiling	0.0		41.8257680422812	
2.0	16.01503348606093	face	0.0		146	31.0	female	white	2.1822522881018704	smiling	102	sub-12	2.0	2.0	102_smiling	0.0		42.43395562338537	1.2416556515481716
2.0	16.106853239984503	pulse	0.0	t		31.0	female	white	2.1822522881018704	smiling	102	sub-12	2.0	2.0	102_smiling	0.0		42.525775377308946	
2.0	16.8068104674162	pulse	0.0	t		31.0	female	white	2.1822522881018704	smiling	102	sub-12	2.0	2.0	102_smiling	0.0		43.22573260474064	
2.0	17.2566891376091	fix	1.0		444	31.0	female	white	2.1822522881018704	smiling	102	sub-12	2.0	2.0	102_smiling	0.0		43.675611274933544	3.7582223998460904
2.0	17.50679335235236	pulse	1.0	t		31.0	female	white	2.1822522881018704	smiling	102	sub-12	2.0	2.0	102_smiling	0.0		43.925715489676804	
2.0	18.206777444700037	pulse	1.0	t		31.0	female	white	2.1822522881018704	smiling	102	sub-12	2.0	2.0	102_smiling	0.0		44.62569958202448	
2.0	18.90675821666491	pulse	1.0	t		31.0	female	white	2.1822522881018704	smiling	102	sub-12	2.0	2.0	102_smiling	0.0		45.325680353989355	
2.0	19.606737781217817	pulse	1.0	t		31.0	female	white	2.1822522881018704	smiling	102	sub-12	2.0	2.0	102_smiling	0.0		46.02565991854226	
2.0	20.30672609950716	pulse	1.0	t		31.0	female	white	2.1822522881018704	smiling	102	sub-12	2.0	2.0	102_smiling	0.0		46.7256482368316	
3.0	21.01491153745519	face	0.0		147	20.0	male	black	3.1070433744528456	smiling	082	sub-12	2.0	2.0	082_smiling	0.0		47.433833674779635	1.241642370016507
3.0	21.007737095709672	pulse	0.0	t		20.0	male	black	3.1070433744528456	smiling	082	sub-12	2.0	2.0	082_smiling	0.0		47.426659233034115	
3.0	21.70668160637706	pulse	0.0	t		20.0	male	black	3.1070433744528456	smiling	082	sub-12	2.0	2.0	082_smiling	0.0		48.125603743701504	
3.0	22.256553907471698	fix	1.0		443	20.0	male	black	3.1070433744528456	smiling	082	sub-12	2.0	2.0	082_smiling	0.0		48.67547604479614	3.758227833199726
3.0	22.40666388760701	pulse	1.0	t		20.0	male	black	3.1070433744528456	smiling	082	sub-12	2.0	2.0	082_smiling	0.0		48.825586024931454	
3.0	23.106642848453703	pulse	1.0	t		20.0	male	black	3.1070433744528456	smiling	082	sub-12	2.0	2.0	082_smiling	0.0		49.525564985778146	
3.0	23.806618488918048	pulse	1.0	t		20.0	male	black	3.1070433744528456	smiling	082	sub-12	2.0	2.0	082_smiling	0.0		50.22554062624249	
3.0	24.506603788677694	pulse	1.0	t		20.0	male	black	3.1070433744528456	smiling	082	sub-12	2.0	2.0	082_smiling	0.0		50.92552592600214	
3.0	25.206586371760295	pulse	1.0	t		20.0	male	black	3.1070433744528456	smiling	082	sub-12	2.0	2.0	082_smiling	0.0		51.62550850908474	
3.0	25.90656563446055	pulse	1.0	t		20.0	male	black	3.1070433744528456	smiling	082	sub-12	2.0	2.0	082_smiling	0.0		52.32548777178499	
4.0	26.014781740671424	face	0.0		147	25.0	female	west_asian	2.6756864305610826	smiling	064	sub-12	2.0	2.0	064_smiling	0.0		52.43370387799587	1.241638747781053
4.0	26.606573875046706	pulse	0.0	t		25.0	female	west_asian	2.6756864305610826	smiling	064	sub-12	2.0	2.0	064_smiling	0.0		53.02549601237115	
4.0	27.256420488452477	fix	1.0		443	25.0	female	west_asian	2.6756864305610826	smiling	064	sub-12	2.0	2.0	064_smiling	0.0		53.67534262577692	3.7582067034909414
4.0	27.30653080062575	pulse	1.0	t		25.0	female	west_asian	2.6756864305610826	smiling	064	sub-12	2.0	2.0	064_smiling	0.0		53.725452937950195	
4.0	28.0065194207682	pulse	1.0	t		25.0	female	west_asian	2.6756864305610826	smiling	064	sub-12	2.0	2.0	064_smiling	0.0		54.42544155809264	
4.0	28.70649687235027	pulse	1.0	t		25.0	female	west_asian	2.6756864305610826	smiling	064	sub-12	2.0	2.0	064_smiling	0.0		55.125419009674715	
4.0	29.406470399843784	pulse	1.0	t		25.0	female	west_asian	2.6756864305610826	smiling	064	sub-12	2.0	2.0	064_smiling	0.0		55.82539253716823	
4.0	30.106462642221686	pulse	1.0	t		25.0	female	west_asian	2.6756864305610826	smiling	064	sub-12	2.0	2.0	064_smiling	0.0		56.52538477954613	
4.0	30.806439791951107	pulse	1.0	t		25.0	female	west_asian	2.6756864305610826	smiling	064	sub-12	2.0	2.0	064_smiling	0.0		57.22536192927555	
5.0	31.01462719194342	face	0.0		146	19.0	female	white	4.298846000795861	neutral	100	sub-12	2.0	2.0	100_neutral	0.0		57.43354932926786	1.241660481195595
5.0	31.506445315860674	pulse	0.0	t		19.0	female	white	4.298846000795861	neutral	100	sub-12	2.0	2.0	100_neutral	0.0		57.92536745318512	
5.0	32.2063980154976	pulse	0.0	t		19.0	female	white	4.298846000795861	neutral	100	sub-12	2.0	2.0	100_neutral	0.0		58.62532015282204	
5.0	32.25628767313901	fix	1.0		444	19.0	female	white	4.298846000795861	neutral	100	sub-12	2.0	2.0	100_neutral	0.0		58.67520981046346	3.7665589755833935
5.0	32.906391465287925	pulse	1.0	t		19.0	female	white	4.298846000795861	neutral	100	sub-12	2.0	2.0	100_neutral	0.0		59.32531360261237	
5.0	33.60636650204606	pulse	1.0	t		19.0	female	white	4.298846000795861	neutral	100	sub-12	2.0	2.0	100_neutral	0.0		60.0252886393705	
5.0	34.3063421425104	pulse	1.0	t		19.0	female	white	4.298846000795861	neutral	100	sub-12	2.0	2.0	100_neutral	0.0		60.725264279834846	
5.0	35.00632382003414	pulse	1.0	t		19.0	female	white	4.298846000795861	neutral	100	sub-12	2.0	2.0	100_neutral	0.0		61.425245957358584	
5.0	35.70628617896682	pulse	1.0	t		19.0	female	white	4.298846000795861	neutral	100	sub-12	2.0	2.0	100_neutral	0.0		62.125208316291264	
6.0	36.02284664872241	face	0.0		145	37.0	male	white	3.898925586947871	neutral	101	sub-12	2.0	2.0	101_neutral	1.0	dominance	62.44176878604685	1.233306699838522
6.0	36.406309512202824	pulse	0.0	t		37.0	male	white	3.898925586947871	neutral	101	sub-12	2.0	2.0	101_neutral	1.0	dominance	62.82523164952727	
6.0	37.10626673963452	pulse	0.0	t		37.0	male	white	3.898925586947871	neutral	101	sub-12	2.0	2.0	101_neutral	1.0	dominance	63.525188876958964	
6.0	37.25615334856093	fix	1.0		177	37.0	male	white	3.898925586947871	neutral	101	sub-12	2.0	2.0	101_neutral	1.0	dominance	63.67507548588537	1.5083270673685547
6.0	37.80626169868992	pulse	1.0	t		37.0	male	white	3.898925586947871	neutral	101	sub-12	2.0	2.0	101_neutral	1.0	dominance	64.22518383601437	
6.0	38.50625062068548	pulse	1.0	t		37.0	male	white	3.898925586947871	neutral	101	sub-12	2.0	2.0	101_neutral	1.0	dominance	64.92517275800992	
6.0	38.764480415929484	rating	2.0		294	37.0	male	white	3.898925586947871	neutral	101	sub-12	2.0	2.0	101_neutral	1.0	dominance	65.18340255325393	2.4915651711157807
6.0	39.20114064205927	pulse	2.0	t		37.0	male	white	3.898925586947871	neutral	101	sub-12	2.0	2.0	101_neutral	1.0	dominance	65.62006277938372	
6.0	39.90105621377961	pulse	2.0	t		37.0	male	white	3.898925586947871	neutral	101	sub-12	2.0	2.0	101_neutral	1.0	dominance	66.31997835110406	
6.0	40.601043324656985	pulse	2.0	t		37.0	male	white	3.898925586947871	neutral	101	sub-12	2.0	2.0	101_neutral	1.0	dominance	67.01996546198143	
6.0	40.68949802150473	response	2.0	e		37.0	male	white	3.898925586947871	neutral	101	sub-12	2.0	2.0	101_neutral	1.0	dominance	67.10842015882918	
6.0	41.256045587045264	fix	3.0		443	37.0	male	white	3.898925586947871	neutral	101	sub-12	2.0	2.0	101_neutral	1.0	dominance	67.67496772436971	3.766565012643241
6.0	41.30614986215869	pulse	3.0	t		37.0	male	white	3.898925586947871	neutral	101	sub-12	2.0	2.0	101_neutral	1.0	dominance	67.72507199948313	
6.0	42.00613938786046	pulse	3.0	t		37.0	male	white	3.898925586947871	neutral	101	sub-12	2.0	2.0	101_neutral	1.0	dominance	68.4250615251849	
6.0	42.706111707941545	pulse	3.0	t		37.0	male	white	3.898925586947871	neutral	101	sub-12	2.0	2.0	101_neutral	1.0	dominance	69.12503384526599	
6.0	43.40609821511316	pulse	3.0	t		37.0	male	white	3.898925586947871	neutral	101	sub-12	2.0	2.0	101_neutral	1.0	dominance	69.8250203524376	
6.0	44.10609498528629	pulse	3.0	t		37.0	male	white	3.898925586947871	neutral	101	sub-12	2.0	2.0	101_neutral	1.0	dominance	70.52501712261073	
6.0	44.80606187201374	pulse	3.0	t		37.0	male	white	3.898925586947871	neutral	101	sub-12	2.0	2.0	101_neutral	1.0	dominance	71.22498400933819	
7.0	45.022610599688505	face	0.0		145	25.0	female	black	3.858336649423	neutral	126	sub-12	2.0	2.0	126_neutral	1.0	trustworthiness	71.44153273701295	1.2333024738964014
7.0	45.506048982891116	pulse	0.0	t		25.0	female	black	3.858336649423	neutral	126	sub-12	2.0	2.0	126_neutral	1.0	trustworthiness	71.92497112021556	
7.0	46.206027340032506	pulse	0.0	t		25.0	female	black	3.858336649423	neutral	126	sub-12	2.0	2.0	126_neutral	1.0	trustworthiness	72.62494947735695	
7.0	46.25591307358491	fix	1.0		177	25.0	female	black	3.858336649423	neutral	126	sub-12	2.0	2.0	126_neutral	1.0	trustworthiness	72.67483521090935	1.4999624193033014
7.0	46.90601143238018	pulse	1.0	t		25.0	female	black	3.858336649423	neutral	126	sub-12	2.0	2.0	126_neutral	1.0	trustworthiness	73.32493356970463	
7.0	47.60598828025604	pulse	1.0	t		25.0	female	black	3.858336649423	neutral	126	sub-12	2.0	2.0	126_neutral	1.0	trustworthiness	74.02491041758049	
7.0	47.75587549288821	rating	2.0		295	25.0	female	black	3.858336649423	neutral	126	sub-12	2.0	2.0	126_neutral	1.0	trustworthiness	74.17479763021265	2.499931932151867
7.0	48.30084268297787	pulse	2.0	t		25.0	female	black	3.858336649423	neutral	126	sub-12	2.0	2.0	126_neutral	1.0	trustworthiness	74.71976482030232	
7.0	49.00082073826616	pulse	2.0	t		25.0	female	black	3.858336649423	neutral	126	sub-12	2.0	2.0	126_neutral	1.0	trustworthiness	75.4197428755906	
7.0	49.65914217607633	response	2.0	b		25.0	female	black	3.858336649423	neutral	126	sub-12	2.0	2.0	126_neutral	1.0	trustworthiness	76.07806431340077	
7.0	49.70078521016967	pulse	2.0	t		25.0	female	black	3.858336649423	neutral	126	sub-12	2.0	2.0	126_neutral	1.0	trustworthiness	76.11970734749411	
7.0	50.255807425040075	fix	3.0		443	25.0	female	black	3.858336649423	neutral	126	sub-12	2.0	2.0	126_neutral	1.0	trustworthiness	76.67472956236452	3.7582106275795013
7.0	50.405914084792585	pulse	3.0	t		25.0	female	black	3.858336649423	neutral	126	sub-12	2.0	2.0	126_neutral	1.0	trustworthiness	76.82483622211703	
7.0	51.105890932668444	pulse	3.0	t		25.0	female	black	3.858336649423	neutral	126	sub-12	2.0	2.0	126_neutral	1.0	trustworthiness	77.52481306999289	
7.0	51.80587049722135	pulse	3.0	t		25.0	female	black	3.858336649423	neutral	126	sub-12	2.0	2.0	126_neutral	1.0	trustworthiness	78.22479263454579	
7.0	52.50585881551069	pulse	3.0	t		25.0	female	black	3.858336649423	neutral	126	sub-12	2.0	2.0	126_neutral	1.0	trustworthiness	78.92478095283514	
7.0	53.205826305944356	pulse	3.0	t		25.0	female	black	3.858336649423	neutral	126	sub-12	2.0	2.0	126_neutral	1.0	trustworthiness	79.6247484432688	
7.0	53.90581854832271	pulse	3.0	t		25.0	female	black	3.858336649423	neutral	126	sub-12	2.0	2.0	126_neutral	1.0	trustworthiness	80.32474068564716	
8.0	54.014018052619576	face	0.0		147	20.0	male	black	2.609629924393156	neutral	043	sub-12	2.0	2.0	043_neutral	0.0		80.43294018994402	1.2416683293736241
8.0	54.605818638878645	pulse	0.0	t		20.0	male	black	2.609629924393156	neutral	043	sub-12	2.0	2.0	043_neutral	0.0		81.02474077620309	
8.0	55.2556863819932	fix	1.0		443	20.0	male	black	2.609629924393156	neutral	043	sub-12	2.0	2.0	043_neutral	0.0		81.67460851931764	3.758196440489428
8.0	55.30580424049094	pulse	1.0	t		20.0	male	black	2.609629924393156	neutral	043	sub-12	2.0	2.0	043_neutral	0.0		81.72472637781539	
8.0	56.005763279041275	pulse	1.0	t		20.0	male	black	2.609629924393156	neutral	043	sub-12	2.0	2.0	043_neutral	0.0		82.42468541636572	
8.0	56.705746465829634	pulse	1.0	t		20.0	male	black	2.609629924393156	neutral	043	sub-12	2.0	2.0	043_neutral	0.0		83.12466860315408	
8.0	57.40572844520648	pulse	1.0	t		20.0	male	black	2.609629924393156	neutral	043	sub-12	2.0	2.0	043_neutral	0.0		83.82465058253092	
8.0	58.105704991229686	pulse	1.0	t		20.0	male	black	2.609629924393156	neutral	043	sub-12	2.0	2.0	043_neutral	0.0		84.52462712855413	
8.0	58.805688479871606	pulse	1.0	t		20.0	male	black	2.609629924393156	neutral	043	sub-12	2.0	2.0	043_neutral	0.0		85.22461061719605	
9.0	59.01388282248263	face	0.0		146	34.0	male	white	2.651014723438122	smiling	121	sub-12	2.0	2.0	121_smiling	0.0		85.43280495980707	1.241670140491351
9.0	59.50567438333701	pulse	0.0	t		34.0	male	white	2.651014723438122	smiling	121	sub-12	2.0	2.0	121_smiling	0.0		85.92459652066145	
9.0	60.205651231213324	pulse	0.0	t		34.0	male	white	2.651014723438122	smiling	121	sub-12	2.0	2.0	121_smiling	0.0		86.62457336853777	
9.0	60.25555296297398	fix	1.0		444	34.0	male	white	2.651014723438122	smiling	121	sub-12	2.0	2.0	121_smiling	0.0		86.67447510029842	3.766521847666354
9.0	60.905630192060016	pulse	1.0	t		34.0	male	white	2.651014723438122	smiling	121	sub-12	2.0	2.0	121_smiling	0.0		87.32455232938446	
9.0	61.605622434438374	pulse	1.0	t		34.0	male	white	2.651014723438122	smiling	121	sub-12	2.0	2.0	121_smiling	0.0		88.02454457176282	
9.0	62.30559656563764	pulse	1.0	t		34.0	male	white	2.651014723438122	smiling	121	sub-12	2.0	2.0	121_smiling	0.0		88.72451870296209	
9.0	63.005576733896305	pulse	1.0	t		34.0	male	white	2.651014723438122	smiling	121	sub-12	2.0	2.0	121_smiling	0.0		89.42449887122075	
9.0	63.70556052439133	pulse	1.0	t		34.0	male	white	2.651014723438122	smiling	121	sub-12	2.0	2.0	121_smiling	0.0		90.12448266171577	
10.0	64.02207481064033	face	0.0		145	22.0	male	black	2.767608436132113	neutral	044	sub-12	2.0	2.0	044_neutral	0.0		90.44099694796478	1.23332873510617
10.0	64.4055539741812	pulse	0.0	t		22.0	male	black	2.767608436132113	neutral	044	sub-12	2.0	2.0	044_neutral	0.0		90.82447611150565	
10.0	65.1055238794388	pulse	0.0	t		22.0	male	black	2.767608436132113	neutral	044	sub-12	2.0	2.0	044_neutral	0.0		91.52444601676325	
10.0	65.2554035457465	fix	1.0		444	22.0	male	black	2.767608436132113	neutral	044	sub-12	2.0	2.0	044_neutral	0.0		91.67432568307095	3.7582148535211672
10.0	65.80551672552292	pulse	1.0	t		22.0	male	black	2.767608436132113	neutral	044	sub-12	2.0	2.0	044_neutral	0.0		92.22443886284736	
10.0	66.50548481966234	pulse	1.0	t		22.0	male	black	2.767608436132113	neutral	044	sub-12	2.0	2.0	044_neutral	0.0		92.92440695698679	
10.0	67.20548128798282	pulse	1.0	t		22.0	male	black	2.767608436132113	neutral	044	sub-12	2.0	2.0	044_neutral	0.0		93.62440342530726	
10.0	67.90544123209156	pulse	1.0	t		22.0	male	black	2.767608436132113	neutral	044	sub-12	2.0	2.0	044_neutral	0.0		94.324363369416	
10.0	68.6054292485278	pulse	1.0	t		22.0	male	black	2.767608436132113	neutral	044	sub-12	2.0	2.0	044_neutral	0.0		95.02435138585224	
11.0	69.01361839926767	face	0.0		146	32.0	male	white	2.389176283326701	smiling	092	sub-12	2.0	2.0	092_smiling	0.0		95.43254053659211	1.2416514256065057
11.0	69.30541032234578	pulse	0.0	t		32.0	male	white	2.389176283326701	smiling	092	sub-12	2.0	2.0	092_smiling	0.0		95.72433245967022	
11.0	70.00539622581164	pulse	0.0	t		32.0	male	white	2.389176283326701	smiling	092	sub-12	2.0	2.0	092_smiling	0.0		96.42431836313608	
11.0	70.25526982487418	fix	1.0		444	32.0	male	white	2.389176283326701	smiling	092	sub-12	2.0	2.0	092_smiling	0.0		96.67419196219862	3.7582115331383648
11.0	70.70537367739325	pulse	1.0	t		32.0	male	white	2.389176283326701	smiling	092	sub-12	2.0	2.0	092_smiling	0.0		97.1242958147177	
11.0	71.40534660118055	pulse	1.0	t		32.0	male	white	2.389176283326701	smiling	092	sub-12	2.0	2.0	092_smiling	0.0		97.824268738505	
11.0	72.10534216394171	pulse	1.0	t		32.0	male	white	2.389176283326701	smiling	092	sub-12	2.0	2.0	092_smiling	0.0		98.52426430126616	
11.0	72.79745302488391	pulse	1.0	t		32.0	male	white	2.389176283326701	smiling	092	sub-12	2.0	2.0	092_smiling	0.0		99.21637516220835	
11.0	73.50533962837699	pulse	1.0	t		32.0	male	white	2.389176283326701	smiling	092	sub-12	2.0	2.0	092_smiling	0.0		99.92426176570143	
12.0	74.01348135801254	face	0.0		146	23.0	male	white	2.6275368085953046	neutral	141	sub-12	2.0	2.0	141_neutral	0.0		100.43240349533698	1.2416671219616546
12.0	74.20528719651338	pulse	0.0	t		23.0	male	white	2.6275368085953046	neutral	141	sub-12	2.0	2.0	141_neutral	0.0		100.62420933383783	
12.0	74.90525589435856	pulse	0.0	t		23.0	male	white	2.6275368085953046	neutral	141	sub-12	2.0	2.0	141_neutral	0.0		101.324178031683	
12.0	75.2551484799742	fix	1.0		444	23.0	male	white	2.6275368085953046	neutral	141	sub-12	2.0	2.0	141_neutral	0.0		101.67407061729864	3.7583416317747833
12.0	75.60524089226556	pulse	1.0	t		23.0	male	white	2.6275368085953046	neutral	141	sub-12	2.0	2.0	141_neutral	0.0		102.02416302959	
12.0	76.30522528646588	pulse	1.0	t		23.0	male	white	2.6275368085953046	neutral	141	sub-12	2.0	2.0	141_neutral	0.0		102.72414742379033	
12.0	77.00520303990106	pulse	1.0	t		23.0	male	white	2.6275368085953046	neutral	141	sub-12	2.0	2.0	141_neutral	0.0		103.4241251772255	
12.0	77.70518532113101	pulse	1.0	t		23.0	male	white	2.6275368085953046	neutral	141	sub-12	2.0	2.0	141_neutral	0.0		104.12410745845546	
12.0	78.40517665795005	pulse	1.0	t		23.0	male	white	2.6275368085953046	neutral	141	sub-12	2.0	2.0	141_neutral	0.0		104.8240987952745	
13.0	79.01349011174898	face	0.0		146	22.0	male	black	2.767608436132113	smiling	044	sub-12	2.0	2.0	044_smiling	0.0		105.43241224907342	1.2415171010279664
13.0	79.10514988359046	pulse	0.0	t		22.0	male	black	2.767608436132113	smiling	044	sub-12	2.0	2.0	044_smiling	0.0		105.5240720209149	
13.0	79.80512944814336	pulse	0.0	t		22.0	male	black	2.767608436132113	smiling	044	sub-12	2.0	2.0	044_smiling	0.0		106.2240515854678	
13.0	80.25500721277695	fix	1.0		444	22.0	male	black	2.767608436132113	smiling	044	sub-12	2.0	2.0	044_smiling	0.0		106.67392935010139	3.7665589755833935
13.0	80.5051111256671	pulse	1.0	t		22.0	male	black	2.767608436132113	smiling	044	sub-12	2.0	2.0	044_smiling	0.0		106.92403326299154	
13.0	81.20508978466114	pulse	1.0	t		22.0	male	black	2.767608436132113	smiling	044	sub-12	2.0	2.0	044_smiling	0.0		107.62401192198558	
13.0	81.90506783994897	pulse	1.0	t		22.0	male	black	2.767608436132113	smiling	044	sub-12	2.0	2.0	044_smiling	0.0		108.32398997727341	
13.0	82.60505223414975	pulse	1.0	t		22.0	male	black	2.767608436132113	smiling	044	sub-12	2.0	2.0	044_smiling	0.0		109.0239743714742	
13.0	83.30503210055576	pulse	1.0	t		22.0	male	black	2.767608436132113	smiling	044	sub-12	2.0	2.0	044_smiling	0.0		109.7239542378802	
14.0	84.02156618836034	face	0.0		146	54.0	female	white	2.286908077994429	smiling	136	sub-12	2.0	2.0	136_smiling	0.0		110.44048832568478	1.2332831553057986
14.0	84.00801389489652	pulse	0.0	t		54.0	female	white	2.286908077994429	smiling	136	sub-12	2.0	2.0	136_smiling	0.0		110.42693603222096	
14.0	84.70501235937036	pulse	0.0	t		54.0	female	white	2.286908077994429	smiling	136	sub-12	2.0	2.0	136_smiling	0.0		111.1239344966948	
14.0	85.25484934366614	fix	1.0		443	54.0	female	white	2.286908077994429	smiling	136	sub-12	2.0	2.0	136_smiling	0.0		111.67377148099058	3.7583186909478172
14.0	85.40497894424516	pulse	1.0	t		54.0	female	white	2.286908077994429	smiling	136	sub-12	2.0	2.0	136_smiling	0.0		111.8239010815696	
14.0	86.10497420515321	pulse	1.0	t		54.0	female	white	2.286908077994429	smiling	136	sub-12	2.0	2.0	136_smiling	0.0		112.52389634247766	
14.0	86.8049305270265	pulse	1.0	t		54.0	female	white	2.286908077994429	smiling	136	sub-12	2.0	2.0	136_smiling	0.0		113.22385266435094	
14.0	87.50490918602009	pulse	1.0	t		54.0	female	white	2.286908077994429	smiling	136	sub-12	2.0	2.0	136_smiling	0.0		113.92383132334453	
14.0	88.20490595619322	pulse	1.0	t		54.0	female	white	2.286908077994429	smiling	136	sub-12	2.0	2.0	136_smiling	0.0		114.62382809351766	
14.0	88.90489487818877	pulse	1.0	t		54.0	female	white	2.286908077994429	smiling	136	sub-12	2.0	2.0	136_smiling	0.0		115.32381701551321	
15.0	89.01316803461395	face	0.0		147	31.0	male	west_asian	1.9538400318344609	smiling	070	sub-12	2.0	2.0	070_smiling	0.0		115.4320901719384	1.241543362237735
15.0	89.60489617615667	pulse	0.0	t		31.0	male	west_asian	1.9538400318344609	smiling	070	sub-12	2.0	2.0	070_smiling	0.0		116.02381831348112	
15.0	90.25471139685169	fix	1.0		443	31.0	male	west_asian	1.9538400318344609	smiling	070	sub-12	2.0	2.0	070_smiling	0.0		116.67363353417613	3.766572257115058
15.0	90.30486698697314	pulse	1.0	t		31.0	male	west_asian	1.9538400318344609	smiling	070	sub-12	2.0	2.0	070_smiling	0.0		116.72378912429758	
15.0	91.00483477925945	pulse	1.0	t		31.0	male	west_asian	1.9538400318344609	smiling	070	sub-12	2.0	2.0	070_smiling	0.0		117.4237569165839	
15.0	91.70481645678319	pulse	1.0	t		31.0	male	west_asian	1.9538400318344609	smiling	070	sub-12	2.0	2.0	070_smiling	0.0		118.12373859410764	
15.0	92.40479813430693	pulse	1.0	t		31.0	male	west_asian	1.9538400318344609	smiling	070	sub-12	2.0	2.0	070_smiling	0.0		118.82372027163137	
15.0	93.10477649144832	pulse	1.0	t		31.0	male	west_asian	1.9538400318344609	smiling	070	sub-12	2.0	2.0	070_smiling	0.0		119.52369862877276	
15.0	93.80475454673615	pulse	1.0	t		31.0	male	west_asian	1.9538400318344609	smiling	070	sub-12	2.0	2.0	070_smiling	0.0		120.22367668406059	
16.0	94.02128365396675	face	0.0		145	23.0	male	white	2.6275368085953046	smiling	141	sub-12	2.0	2.0	141_smiling	0.0		120.44020579129119	1.233306397985416
16.0	94.50474497799632	pulse	0.0	t		23.0	male	white	2.6275368085953046	smiling	141	sub-12	2.0	2.0	141_smiling	0.0		120.92366711532077	
16.0	95.2047160906659	pulse	0.0	t		23.0	male	white	2.6275368085953046	smiling	141	sub-12	2.0	2.0	141_smiling	0.0		121.62363822799034	
16.0	95.25459005195216	fix	1.0		444	23.0	male	white	2.6275368085953046	smiling	141	sub-12	2.0	2.0	141_smiling	0.0		121.67351218927661	3.766580407145284
16.0	95.90469776818964	pulse	1.0	t		23.0	male	white	2.6275368085953046	smiling	141	sub-12	2.0	2.0	141_smiling	0.0		122.32361990551408	
16.0	96.60469151983307	pulse	1.0	t		23.0	male	white	2.6275368085953046	smiling	141	sub-12	2.0	2.0	141_smiling	0.0		123.02361365715751	
16.0	97.30466082138446	pulse	1.0	t		23.0	male	white	2.6275368085953046	smiling	141	sub-12	2.0	2.0	141_smiling	0.0		123.7235829587089	
16.0	98.0046524600566	pulse	1.0	t		23.0	male	white	2.6275368085953046	smiling	141	sub-12	2.0	2.0	141_smiling	0.0		124.42357459738105	
16.0	98.70462296901997	pulse	1.0	t		23.0	male	white	2.6275368085953046	smiling	141	sub-12	2.0	2.0	141_smiling	0.0		125.12354510634441	
17.0	99.02117045909745	face	0.0		145	26.0	female	white	4.854755272582572	smiling	027	sub-12	2.0	2.0	027_smiling	0.0		125.44009259642189	1.233301568337538
17.0	99.40461340028014	pulse	0.0	t		26.0	female	white	4.854755272582572	smiling	027	sub-12	2.0	2.0	027_smiling	0.0		125.82353553760458	
17.0	100.09648157142237	pulse	0.0	t		26.0	female	white	4.854755272582572	smiling	027	sub-12	2.0	2.0	027_smiling	0.0		126.51540370874682	
17.0	100.25447202743499	fix	1.0		444	26.0	female	white	4.854755272582572	smiling	027	sub-12	2.0	2.0	027_smiling	0.0		126.67339416475943	3.7665502218469555
17.0	100.80458339609368	pulse	1.0	t		26.0	female	white	4.854755272582572	smiling	027	sub-12	2.0	2.0	027_smiling	0.0		127.22350553341812	
17.0	101.50456990326529	pulse	1.0	t		26.0	female	white	4.854755272582572	smiling	027	sub-12	2.0	2.0	027_smiling	0.0		127.92349204058974	
17.0	102.19649693573956	pulse	1.0	t		26.0	female	white	4.854755272582572	smiling	027	sub-12	2.0	2.0	027_smiling	0.0		128.615419073064	
17.0	102.90451001563315	pulse	1.0	t		26.0	female	white	4.854755272582572	smiling	027	sub-12	2.0	2.0	027_smiling	0.0		129.3234321529576	
17.0	103.60449833392249	pulse	1.0	t		26.0	female	white	4.854755272582572	smiling	027	sub-12	2.0	2.0	027_smiling	0.0		130.02342047124694	
18.0	104.02102224928194	face	0.0		145	20.0	female	white	3.9502586549940313	smiling	091	sub-12	2.0	2.0	091_smiling	0.0		130.43994438660638	1.2333163591338234
18.0	104.30447880403426	pulse	0.0	t		20.0	female	white	3.9502586549940313	smiling	091	sub-12	2.0	2.0	091_smiling	0.0		130.7234009413587	
18.0	105.0044728575308	pulse	0.0	t		20.0	female	white	3.9502586549940313	smiling	091	sub-12	2.0	2.0	091_smiling	0.0		131.42339499485524	
18.0	105.25433860841576	fix	1.0		444	20.0	female	white	3.9502586549940313	smiling	091	sub-12	2.0	2.0	091_smiling	0.0		131.6732607457402	3.7582900149141096
18.0	105.69635702688083	pulse	1.0	t		20.0	female	white	3.9502586549940313	smiling	091	sub-12	2.0	2.0	091_smiling	0.0		132.11527916420528	
18.0	106.40441538472214	pulse	1.0	t		20.0	female	white	3.9502586549940313	smiling	091	sub-12	2.0	2.0	091_smiling	0.0		132.8233375220466	
18.0	107.10439826965785	pulse	1.0	t		20.0	female	white	3.9502586549940313	smiling	091	sub-12	2.0	2.0	091_smiling	0.0		133.5233204069823	
18.0	107.8043775323581	pulse	1.0	t		20.0	female	white	3.9502586549940313	smiling	091	sub-12	2.0	2.0	091_smiling	0.0		134.22329966968255	
18.0	108.49630124444957	pulse	1.0	t		20.0	female	white	3.9502586549940313	smiling	091	sub-12	2.0	2.0	091_smiling	0.0		134.915223381774	
19.0	109.01262862332987	face	0.0		146	31.0	female	white	2.1822522881018704	neutral	102	sub-12	2.0	2.0	102_neutral	0.0		135.43155076065432	1.2415747549484877
19.0	109.20434601890611	pulse	0.0	t		31.0	female	white	2.1822522881018704	neutral	102	sub-12	2.0	2.0	102_neutral	0.0		135.62326815623055	
19.0	109.9043340353428	pulse	0.0	t		31.0	female	white	2.1822522881018704	neutral	102	sub-12	2.0	2.0	102_neutral	0.0		136.32325617266724	
19.0	110.25420337827836	fix	1.0		444	31.0	female	white	2.1822522881018704	neutral	102	sub-12	2.0	2.0	102_neutral	0.0		136.6731255156028	3.7665607867011204
19.0	110.60431510916078	pulse	1.0	t		31.0	female	white	2.1822522881018704	neutral	102	sub-12	2.0	2.0	102_neutral	0.0		137.02323724648522	
19.0	111.29615068018029	pulse	1.0	t		31.0	female	white	2.1822522881018704	neutral	102	sub-12	2.0	2.0	102_neutral	0.0		137.71507281750473	
19.0	111.99613265955713	pulse	1.0	t		31.0	female	white	2.1822522881018704	neutral	102	sub-12	2.0	2.0	102_neutral	0.0		138.41505479688158	
19.0	112.70424716205389	pulse	1.0	t		31.0	female	white	2.1822522881018704	neutral	102	sub-12	2.0	2.0	102_neutral	0.0		139.12316929937833	
19.0	113.3961198609909	pulse	1.0	t		31.0	female	white	2.1822522881018704	neutral	102	sub-12	2.0	2.0	102_neutral	0.0		139.81504199831534	
20.0	114.02076416497948	face	0.0		145	28.0	female	white	5.676880222841227	neutral	124	sub-12	2.0	2.0	124_neutral	1.0	attractiveness	140.43968630230393	1.233306699838522
20.0	114.10421806342583	pulse	0.0	t		28.0	female	white	5.676880222841227	neutral	124	sub-12	2.0	2.0	124_neutral	1.0	attractiveness	140.52314020075028	
20.0	114.80419249647821	pulse	0.0	t		28.0	female	white	5.676880222841227	neutral	124	sub-12	2.0	2.0	124_neutral	1.0	attractiveness	141.22311463380265	
20.0	115.254070864818	fix	1.0		177	28.0	female	white	5.676880222841227	neutral	124	sub-12	2.0	2.0	124_neutral	1.0	attractiveness	141.67299300214245	1.499959098920499
20.0	115.49604195273514	pulse	1.0	t		28.0	female	white	5.676880222841227	neutral	124	sub-12	2.0	2.0	124_neutral	1.0	attractiveness	141.91496409005958	
20.0	116.19603902476138	pulse	1.0	t		28.0	female	white	5.676880222841227	neutral	124	sub-12	2.0	2.0	124_neutral	1.0	attractiveness	142.61496116208582	
20.0	116.7540299637385	rating	2.0		294	28.0	female	white	5.676880222841227	neutral	124	sub-12	2.0	2.0	124_neutral	1.0	attractiveness	143.17295210106295	2.499932234004973
20.0	116.89900995239486	pulse	2.0	t		28.0	female	white	5.676880222841227	neutral	124	sub-12	2.0	2.0	124_neutral	1.0	attractiveness	143.3179320897193	
20.0	117.59905501904541	pulse	2.0	t		28.0	female	white	5.676880222841227	neutral	124	sub-12	2.0	2.0	124_neutral	1.0	attractiveness	144.01797715636985	
20.0	118.29898085376726	pulse	2.0	t		28.0	female	white	5.676880222841227	neutral	124	sub-12	2.0	2.0	124_neutral	1.0	attractiveness	144.7179029910917	
20.0	118.69577173394327	response	2.0	e		28.0	female	white	5.676880222841227	neutral	124	sub-12	2.0	2.0	124_neutral	1.0	attractiveness	145.11469387126772	
20.0	118.99908417804363	pulse	2.0	t		28.0	female	white	5.676880222841227	neutral	124	sub-12	2.0	2.0	124_neutral	1.0	attractiveness	145.41800631536807	
20.0	119.25396219774348	fix	3.0		1185	28.0	female	white	5.676880222841227	neutral	124	sub-12	2.0	2.0	124_neutral	1.0	attractiveness	145.67288433506792	10.016379146667532
20.0	119.69594861979249	pulse	3.0	t		28.0	female	white	5.676880222841227	neutral	124	sub-12	2.0	2.0	124_neutral	1.0	attractiveness	146.11487075711693	
20.0	120.39593573066986	pulse	3.0	t		28.0	female	white	5.676880222841227	neutral	124	sub-12	2.0	2.0	124_neutral	1.0	attractiveness	146.8148578679943	
20.0	121.10401038857253	pulse	3.0	t		28.0	female	white	5.676880222841227	neutral	124	sub-12	2.0	2.0	124_neutral	1.0	attractiveness	147.52293252589698	
20.0	121.80400534762748	pulse	3.0	t		28.0	female	white	5.676880222841227	neutral	124	sub-12	2.0	2.0	124_neutral	1.0	attractiveness	148.22292748495192	
20.0	122.49585570944373	pulse	3.0	t		28.0	female	white	5.676880222841227	neutral	124	sub-12	2.0	2.0	124_neutral	1.0	attractiveness	148.91477784676817	
20.0	123.20397081564624	pulse	3.0	t		28.0	female	white	5.676880222841227	neutral	124	sub-12	2.0	2.0	124_neutral	1.0	attractiveness	149.6228929529707	
20.0	123.90396335987725	pulse	3.0	t		28.0	female	white	5.676880222841227	neutral	124	sub-12	2.0	2.0	124_neutral	1.0	attractiveness	150.3228854972017	
20.0	124.60393054845781	pulse	3.0	t		28.0	female	white	5.676880222841227	neutral	124	sub-12	2.0	2.0	124_neutral	1.0	attractiveness	151.02285268578225	
20.0	125.30392097971844	pulse	3.0	t		28.0	female	white	5.676880222841227	neutral	124	sub-12	2.0	2.0	124_neutral	1.0	attractiveness	151.72284311704288	
20.0	126.00388877200476	pulse	3.0	t		28.0	female	white	5.676880222841227	neutral	124	sub-12	2.0	2.0	124_neutral	1.0	attractiveness	152.4228109093292	
20.0	126.70387195879357	pulse	3.0	t		28.0	female	white	5.676880222841227	neutral	124	sub-12	2.0	2.0	124_neutral	1.0	attractiveness	153.122794096118	
20.0	127.40386420117193	pulse	3.0	t		28.0	female	white	5.676880222841227	neutral	124	sub-12	2.0	2.0	124_neutral	1.0	attractiveness	153.82278633849637	
20.0	128.1038383323712	pulse	3.0	t		28.0	female	white	5.676880222841227	neutral	124	sub-12	2.0	2.0	124_neutral	1.0	attractiveness	154.52276046969564	
20.0	128.80381880248297	pulse	3.0	t		28.0	female	white	5.676880222841227	neutral	124	sub-12	2.0	2.0	124_neutral	1.0	attractiveness	155.2227409398074	
21.0	129.270341344411	face	0.0		145	25.0	female	black	3.858336649423	smiling	126	sub-12	2.0	2.0	126_smiling	0.0		155.68926348173545	1.2333233017525345
21.0	129.50380591336034	pulse	0.0	t		25.0	female	black	3.858336649423	smiling	126	sub-12	2.0	2.0	126_smiling	0.0		155.92272805068478	
21.0	130.20377853529453	pulse	0.0	t		25.0	female	black	3.858336649423	smiling	126	sub-12	2.0	2.0	126_smiling	0.0		156.62270067261898	
21.0	130.50366464616354	fix	1.0		444	25.0	female	black	3.858336649423	smiling	126	sub-12	2.0	2.0	126_smiling	0.0		156.922586783488	3.7665450903459714
21.0	130.90377590917387	pulse	1.0	t		25.0	female	black	3.858336649423	smiling	126	sub-12	2.0	2.0	126_smiling	0.0		157.32269804649832	
21.0	131.60374551257792	pulse	1.0	t		25.0	female	black	3.858336649423	smiling	126	sub-12	2.0	2.0	126_smiling	0.0		158.02266764990236	
21.0	132.30372447342506	pulse	1.0	t		25.0	female	black	3.858336649423	smiling	126	sub-12	2.0	2.0	126_smiling	0.0		158.7226466107495	
21.0	133.00370705650766	pulse	1.0	t		25.0	female	black	3.858336649423	smiling	126	sub-12	2.0	2.0	126_smiling	0.0		159.4226291938321	
21.0	133.70368873403186	pulse	1.0	t		25.0	female	black	3.858336649423	smiling	126	sub-12	2.0	2.0	126_smiling	0.0		160.1226108713563	
22.0	134.2702097365095	face	0.0		145	34.0	male	white	2.651014723438122	neutral	121	sub-12	2.0	2.0	121_neutral	0.0		160.68913187383396	1.2333211887817015
22.0	134.40367765602696	pulse	0.0	t		34.0	male	white	2.651014723438122	neutral	121	sub-12	2.0	2.0	121_neutral	0.0		160.8225997933514	
22.0	135.10364756128456	pulse	0.0	t		34.0	male	white	2.651014723438122	neutral	121	sub-12	2.0	2.0	121_neutral	0.0		161.522569698609	
22.0	135.50353092529122	fix	1.0		444	34.0	male	white	2.651014723438122	neutral	121	sub-12	2.0	2.0	121_neutral	0.0		161.92245306261566	3.758315672418121
22.0	135.8036355777208	pulse	1.0	t		34.0	male	white	2.651014723438122	neutral	121	sub-12	2.0	2.0	121_neutral	0.0		162.22255771504524	
22.0	136.50361755709764	pulse	1.0	t		34.0	male	white	2.651014723438122	neutral	121	sub-12	2.0	2.0	121_neutral	0.0		162.92253969442208	
22.0	137.20360164944532	pulse	1.0	t		34.0	male	white	2.651014723438122	neutral	121	sub-12	2.0	2.0	121_neutral	0.0		163.62252378676976	
22.0	137.90356249911338	pulse	1.0	t		34.0	male	white	2.651014723438122	neutral	121	sub-12	2.0	2.0	121_neutral	0.0		164.32248463643782	
22.0	138.60356077855158	pulse	1.0	t		34.0	male	white	2.651014723438122	neutral	121	sub-12	2.0	2.0	121_neutral	0.0		165.02248291587603	
23.0	139.26184659770934	face	0.0		146	40.0	male	white	1.868682849184242	neutral	172	sub-12	2.0	2.0	172_neutral	0.0		165.68076873503378	1.2415497011506886
23.0	139.3035451727519	pulse	0.0	t		40.0	male	white	1.868682849184242	neutral	172	sub-12	2.0	2.0	172_neutral	0.0		165.72246731007635	
23.0	140.00352503915792	pulse	0.0	t		40.0	male	white	1.868682849184242	neutral	172	sub-12	2.0	2.0	172_neutral	0.0		166.42244717648236	
23.0	140.50339629886003	fix	1.0		443	40.0	male	white	1.868682849184242	neutral	172	sub-12	2.0	2.0	172_neutral	0.0		166.92231843618447	3.7665613904073325
23.0	140.70350822594673	pulse	1.0	t		40.0	male	white	1.868682849184242	neutral	172	sub-12	2.0	2.0	172_neutral	0.0		167.12243036327118	
23.0	141.40348145158714	pulse	1.0	t		40.0	male	white	1.868682849184242	neutral	172	sub-12	2.0	2.0	172_neutral	0.0		167.82240358891158	
23.0	142.10346916617027	pulse	1.0	t		40.0	male	white	1.868682849184242	neutral	172	sub-12	2.0	2.0	172_neutral	0.0		168.52239130349471	
23.0	142.80345144740022	pulse	1.0	t		40.0	male	white	1.868682849184242	neutral	172	sub-12	2.0	2.0	172_neutral	0.0		169.22237358472466	
23.0	143.50343161565888	pulse	1.0	t		40.0	male	white	1.868682849184242	neutral	172	sub-12	2.0	2.0	172_neutral	0.0		169.92235375298333	
23.0	144.20340725612323	pulse	1.0	t		40.0	male	white	1.868682849184242	neutral	172	sub-12	2.0	2.0	172_neutral	0.0		170.62232939344767	
24.0	144.26995768926736	face	0.0		146	24.0	female	east_asian	4.409868682849185	smiling	030	sub-12	2.0	2.0	030_smiling	0.0		170.6888798265918	1.2333045868672343
24.0	144.90339044291204	pulse	0.0	t		24.0	female	east_asian	4.409868682849185	smiling	030	sub-12	2.0	2.0	030_smiling	0.0		171.32231258023648	
24.0	145.5032622761346	fix	1.0		443	24.0	female	east_asian	4.409868682849185	smiling	030	sub-12	2.0	2.0	030_smiling	0.0		171.92218441345904	3.7665275828730955
24.0	145.60337815749563	pulse	1.0	t		24.0	female	east_asian	4.409868682849185	smiling	030	sub-12	2.0	2.0	030_smiling	0.0		172.02230029482007	
24.0	146.3033655702261	pulse	1.0	t		24.0	female	east_asian	4.409868682849185	smiling	030	sub-12	2.0	2.0	030_smiling	0.0		172.72228770755055	
24.0	147.00333396621863	pulse	1.0	t		24.0	female	east_asian	4.409868682849185	smiling	030	sub-12	2.0	2.0	030_smiling	0.0		173.42225610354308	
24.0	147.7033207752429	pulse	1.0	t		24.0	female	east_asian	4.409868682849185	smiling	030	sub-12	2.0	2.0	030_smiling	0.0		174.12224291256734	
24.0	148.4032933971771	pulse	1.0	t		24.0	female	east_asian	4.409868682849185	smiling	030	sub-12	2.0	2.0	030_smiling	0.0		174.82221553450154	
24.0	149.10329892108712	pulse	1.0	t		24.0	female	east_asian	4.409868682849185	smiling	030	sub-12	2.0	2.0	030_smiling	0.0		175.52222105841156	
25.0	149.2697898590077	face	0.0		146	31.0	female	west_asian	2.364902506963788	neutral	006	sub-12	2.0	2.0	006_neutral	1.0	trustworthiness	175.68871199633213	1.2333405073723043
25.0	149.80326248743177	pulse	0.0	t		31.0	female	west_asian	2.364902506963788	neutral	006	sub-12	2.0	2.0	006_neutral	1.0	trustworthiness	176.2221846247562	
25.0	150.50313036638	fix	1.0		176	31.0	female	west_asian	2.364902506963788	neutral	006	sub-12	2.0	2.0	006_neutral	1.0	trustworthiness	176.92205250370444	1.499961815597544
25.0	150.51121157449234	pulse	1.0	t		31.0	female	west_asian	2.364902506963788	neutral	006	sub-12	2.0	2.0	006_neutral	1.0	trustworthiness	176.93013371181678	
25.0	151.2032201072725	pulse	1.0	t		31.0	female	west_asian	2.364902506963788	neutral	006	sub-12	2.0	2.0	006_neutral	1.0	trustworthiness	177.62214224459694	
25.0	151.9032111422389	pulse	1.0	t		31.0	female	west_asian	2.364902506963788	neutral	006	sub-12	2.0	2.0	006_neutral	1.0	trustworthiness	178.32213327956333	
25.0	152.00309218197754	rating	2.0		295	31.0	female	west_asian	2.364902506963788	neutral	006	sub-12	2.0	2.0	006_neutral	1.0	trustworthiness	178.42201431930198	2.4999328377107304
25.0	152.59828801061076	pulse	2.0	t		31.0	female	west_asian	2.364902506963788	neutral	006	sub-12	2.0	2.0	006_neutral	1.0	trustworthiness	179.0172101479352	
25.0	153.2980568817802	pulse	2.0	t		31.0	female	west_asian	2.364902506963788	neutral	006	sub-12	2.0	2.0	006_neutral	1.0	trustworthiness	179.71697901910466	
25.0	153.7982188259066	response	2.0	w		31.0	female	west_asian	2.364902506963788	neutral	006	sub-12	2.0	2.0	006_neutral	1.0	trustworthiness	180.21714096323103	
25.0	153.99801893886024	pulse	2.0	t		31.0	female	west_asian	2.364902506963788	neutral	006	sub-12	2.0	2.0	006_neutral	1.0	trustworthiness	180.41694107618468	
25.0	154.50302501968827	fix	3.0		443	31.0	female	west_asian	2.364902506963788	neutral	006	sub-12	2.0	2.0	006_neutral	1.0	trustworthiness	180.9219471570127	3.766558371877636
25.0	154.70314207827596	pulse	3.0	t		31.0	female	west_asian	2.364902506963788	neutral	006	sub-12	2.0	2.0	006_neutral	1.0	trustworthiness	181.1220642156004	
25.0	155.4031089650034	pulse	3.0	t		31.0	female	west_asian	2.364902506963788	neutral	006	sub-12	2.0	2.0	006_neutral	1.0	trustworthiness	181.82203110232786	
25.0	156.1030969814401	pulse	3.0	t		31.0	female	west_asian	2.364902506963788	neutral	006	sub-12	2.0	2.0	006_neutral	1.0	trustworthiness	182.52201911876455	
25.0	156.80307141449202	pulse	3.0	t		31.0	female	west_asian	2.364902506963788	neutral	006	sub-12	2.0	2.0	006_neutral	1.0	trustworthiness	183.22199355181647	
25.0	157.50306184575265	pulse	3.0	t		31.0	female	west_asian	2.364902506963788	neutral	006	sub-12	2.0	2.0	006_neutral	1.0	trustworthiness	183.9219839830771	
25.0	158.20304442883526	pulse	3.0	t		31.0	female	west_asian	2.364902506963788	neutral	006	sub-12	2.0	2.0	006_neutral	1.0	trustworthiness	184.6219665661597	
26.0	158.2695833915659	face	0.0		146	27.0	female	white	3.504576203740549	neutral	144	sub-12	2.0	2.0	144_neutral	0.0		184.68850552889035	1.2333066998380673
26.0	158.90301856003452	pulse	0.0	t		27.0	female	white	3.504576203740549	neutral	144	sub-12	2.0	2.0	144_neutral	0.0		185.32194069735897	
26.0	159.50289009140397	fix	1.0		443	27.0	female	white	3.504576203740549	neutral	144	sub-12	2.0	2.0	144_neutral	0.0		185.9218122287284	3.7582136461096525
26.0	159.603011104266	pulse	1.0	t		27.0	female	white	3.504576203740549	neutral	144	sub-12	2.0	2.0	144_neutral	0.0		186.02193324159043	
26.0	160.30297678358147	pulse	1.0	t		27.0	female	white	3.504576203740549	neutral	144	sub-12	2.0	2.0	144_neutral	0.0		186.72189892090591	
26.0	161.00295423516354	pulse	1.0	t		27.0	female	white	3.504576203740549	neutral	144	sub-12	2.0	2.0	144_neutral	0.0		187.421876372488	
26.0	161.70293379971645	pulse	1.0	t		27.0	female	white	3.504576203740549	neutral	144	sub-12	2.0	2.0	144_neutral	0.0		188.1218559370409	
26.0	162.40292091059382	pulse	1.0	t		27.0	female	white	3.504576203740549	neutral	144	sub-12	2.0	2.0	144_neutral	0.0		188.82184304791826	
26.0	163.10290379552953	pulse	1.0	t		27.0	female	white	3.504576203740549	neutral	144	sub-12	2.0	2.0	144_neutral	0.0		189.52182593285397	
27.0	163.26110373751362	face	0.0		147	24.0	female	east_asian	2.9076800636689217	neutral	034	sub-12	2.0	2.0	034_neutral	0.0		189.68002587483807	1.241656858960141
27.0	163.80289120826	pulse	0.0	t		24.0	female	east_asian	2.9076800636689217	neutral	034	sub-12	2.0	2.0	034_neutral	0.0		190.22181334558445	
27.0	164.50276059647376	fix	1.0		444	24.0	female	east_asian	2.9076800636689217	neutral	034	sub-12	2.0	2.0	034_neutral	0.0		190.9216827337982	3.766555655200591
27.0	164.51049588106525	pulse	1.0	t		24.0	female	east_asian	2.9076800636689217	neutral	034	sub-12	2.0	2.0	034_neutral	0.0		190.9294180183897	
27.0	165.20285063921892	pulse	1.0	t		24.0	female	east_asian	2.9076800636689217	neutral	034	sub-12	2.0	2.0	034_neutral	0.0		191.62177277654337	
27.0	165.90283744824364	pulse	1.0	t		24.0	female	east_asian	2.9076800636689217	neutral	034	sub-12	2.0	2.0	034_neutral	0.0		192.3217595855681	
27.0	166.6028076553539	pulse	1.0	t		24.0	female	east_asian	2.9076800636689217	neutral	034	sub-12	2.0	2.0	034_neutral	0.0		193.02172979267834	
27.0	167.3027905402896	pulse	1.0	t		24.0	female	east_asian	2.9076800636689217	neutral	034	sub-12	2.0	2.0	034_neutral	0.0		193.72171267761405	
27.0	168.00277674560812	pulse	1.0	t		24.0	female	east_asian	2.9076800636689217	neutral	034	sub-12	2.0	2.0	034_neutral	0.0		194.42169888293256	
28.0	168.26931625167435	face	0.0		145	54.0	female	white	2.286908077994429	neutral	136	sub-12	2.0	2.0	136_neutral	0.0		194.6882383889988	1.2333063979849612
28.0	168.7027698935458	pulse	0.0	t		54.0	female	white	2.286908077994429	neutral	136	sub-12	2.0	2.0	136_neutral	0.0		195.12169203087024	
28.0	169.4027340635962	pulse	0.0	t		54.0	female	white	2.286908077994429	neutral	136	sub-12	2.0	2.0	136_neutral	0.0		195.82165620092064	
28.0	169.50262264965932	fix	1.0		444	54.0	female	white	2.286908077994429	neutral	136	sub-12	2.0	2.0	136_neutral	0.0		195.92154478698376	3.758270696323507
28.0	170.1027314374751	pulse	1.0	t		54.0	female	white	2.286908077994429	neutral	136	sub-12	2.0	2.0	136_neutral	0.0		196.52165357479953	
28.0	170.80269922976186	pulse	1.0	t		54.0	female	white	2.286908077994429	neutral	136	sub-12	2.0	2.0	136_neutral	0.0		197.2216213670863	
28.0	171.50268573693347	pulse	1.0	t		54.0	female	white	2.286908077994429	neutral	136	sub-12	2.0	2.0	136_neutral	0.0		197.92160787425792	
28.0	172.20264809586615	pulse	1.0	t		54.0	female	white	2.286908077994429	neutral	136	sub-12	2.0	2.0	136_neutral	0.0		198.6215702331906	
28.0	172.90264245121534	pulse	1.0	t		54.0	female	white	2.286908077994429	neutral	136	sub-12	2.0	2.0	136_neutral	0.0		199.3215645885398	
29.0	173.26089334598282	face	0.0		146	22.0	female	west_asian	3.8205332272184642	neutral	066	sub-12	2.0	2.0	066_neutral	0.0		199.67981548330727	1.2415949790984087
29.0	173.60264012694734	pulse	0.0	t		22.0	female	west_asian	3.8205332272184642	neutral	066	sub-12	2.0	2.0	066_neutral	0.0		200.02156226427178	
29.0	174.30260852293986	pulse	0.0	t		22.0	female	west_asian	3.8205332272184642	neutral	066	sub-12	2.0	2.0	066_neutral	0.0		200.7215306602643	
29.0	174.50248832508123	fix	1.0		444	22.0	female	west_asian	3.8205332272184642	neutral	066	sub-12	2.0	2.0	066_neutral	0.0		200.92141046240567	3.7582993723572145
29.0	175.00258899305163	pulse	1.0	t		22.0	female	west_asian	3.8205332272184642	neutral	066	sub-12	2.0	2.0	066_neutral	0.0		201.42151113037608	
29.0	175.7025730853993	pulse	1.0	t		22.0	female	west_asian	3.8205332272184642	neutral	066	sub-12	2.0	2.0	066_neutral	0.0		202.12149522272375	
29.0	176.40254419806888	pulse	1.0	t		22.0	female	west_asian	3.8205332272184642	neutral	066	sub-12	2.0	2.0	066_neutral	0.0		202.82146633539332	
29.0	177.10253161079936	pulse	1.0	t		22.0	female	west_asian	3.8205332272184642	neutral	066	sub-12	2.0	2.0	066_neutral	0.0		203.5214537481238	
29.0	177.80250936423408	pulse	1.0	t		22.0	female	west_asian	3.8205332272184642	neutral	066	sub-12	2.0	2.0	066_neutral	0.0		204.22143150155853	
30.0	178.26078769743845	face	0.0		146	24.0	female	east_asian	2.9076800636689217	smiling	034	sub-12	2.0	2.0	034_smiling	0.0		204.6797098347629	1.241568114182428
30.0	178.50251277517282	pulse	0.0	t		24.0	female	east_asian	2.9076800636689217	smiling	034	sub-12	2.0	2.0	034_smiling	0.0		204.92143491249726	
30.0	179.20246970075186	pulse	0.0	t		24.0	female	east_asian	2.9076800636689217	smiling	034	sub-12	2.0	2.0	034_smiling	0.0		205.6213918380763	
30.0	179.50235581162087	fix	1.0		444	24.0	female	east_asian	2.9076800636689217	smiling	034	sub-12	2.0	2.0	034_smiling	0.0		205.92127794894532	3.766528186578853
30.0	179.90246254683643	pulse	1.0	t		24.0	female	east_asian	2.9076800636689217	smiling	034	sub-12	2.0	2.0	034_smiling	0.0		206.32138468416088	
30.0	180.60243396135866	pulse	1.0	t		24.0	female	east_asian	2.9076800636689217	smiling	034	sub-12	2.0	2.0	034_smiling	0.0		207.0213560986831	
30.0	181.30241503517664	pulse	1.0	t		24.0	female	east_asian	2.9076800636689217	smiling	034	sub-12	2.0	2.0	034_smiling	0.0		207.72133717250108	
30.0	182.0024084849665	pulse	1.0	t		24.0	female	east_asian	2.9076800636689217	smiling	034	sub-12	2.0	2.0	034_smiling	0.0		208.42133062229095	
30.0	182.7023814087538	pulse	1.0	t		24.0	female	east_asian	2.9076800636689217	smiling	034	sub-12	2.0	2.0	034_smiling	0.0		209.12130354607825	
31.0	183.26888399819973	face	0.0		145	32.0	male	white	2.389176283326701	neutral	092	sub-12	2.0	2.0	092_neutral	0.0		209.68780613552417	1.2333386962545774
31.0	183.40236761407277	pulse	0.0	t		32.0	male	white	2.389176283326701	neutral	092	sub-12	2.0	2.0	092_neutral	0.0		209.82128975139722	
31.0	184.10234989530227	pulse	0.0	t		32.0	male	white	2.389176283326701	neutral	092	sub-12	2.0	2.0	092_neutral	0.0		210.5212720326267	
31.0	184.5022226944543	fix	1.0		444	32.0	male	white	2.389176283326701	neutral	092	sub-12	2.0	2.0	092_neutral	0.0		210.92114483177875	3.7665592774364995
31.0	184.80232704503123	pulse	1.0	t		32.0	male	white	2.389176283326701	neutral	092	sub-12	2.0	2.0	092_neutral	0.0		211.22124918235568	
31.0	185.50230510031952	pulse	1.0	t		32.0	male	white	2.389176283326701	neutral	092	sub-12	2.0	2.0	092_neutral	0.0		211.92122723764396	
31.0	186.20228647599015	pulse	1.0	t		32.0	male	white	2.389176283326701	neutral	092	sub-12	2.0	2.0	092_neutral	0.0		212.6212086133146	
31.0	186.90226785166124	pulse	1.0	t		32.0	male	white	2.389176283326701	neutral	092	sub-12	2.0	2.0	092_neutral	0.0		213.32118998898568	
31.0	187.6022510384496	pulse	1.0	t		32.0	male	white	2.389176283326701	neutral	092	sub-12	2.0	2.0	092_neutral	0.0		214.02117317577404	
32.0	188.2687819718908	face	0.0		145	26.0	female	white	4.854755272582572	neutral	027	sub-12	2.0	2.0	027_neutral	0.0		214.68770410921525	1.23330609613231
32.0	188.3022873513637	pulse	0.0	t		26.0	female	white	4.854755272582572	neutral	027	sub-12	2.0	2.0	027_neutral	0.0		214.72120948868815	
32.0	189.0022189212923	pulse	0.0	t		26.0	female	white	4.854755272582572	neutral	027	sub-12	2.0	2.0	027_neutral	0.0		215.42114105861674	
32.0	189.5020880680231	fix	1.0		443	26.0	female	white	4.854755272582572	neutral	027	sub-12	2.0	2.0	027_neutral	0.0		215.92101020534756	3.758309031652516
32.0	189.70218973210876	pulse	1.0	t		26.0	female	white	4.854755272582572	neutral	027	sub-12	2.0	2.0	027_neutral	0.0		216.1211118694332	
32.0	190.40217382445644	pulse	1.0	t		26.0	female	white	4.854755272582572	neutral	027	sub-12	2.0	2.0	027_neutral	0.0		216.82109596178088	
32.0	191.10216184089268	pulse	1.0	t		26.0	female	white	4.854755272582572	neutral	027	sub-12	2.0	2.0	027_neutral	0.0		217.52108397821712	
32.0	191.80214744250543	pulse	1.0	t		26.0	female	white	4.854755272582572	neutral	027	sub-12	2.0	2.0	027_neutral	0.0		218.22106957982987	
32.0	192.50213425153015	pulse	1.0	t		26.0	female	white	4.854755272582572	neutral	027	sub-12	2.0	2.0	027_neutral	0.0		218.9210563888546	
32.0	193.20209902528677	pulse	1.0	t		26.0	female	white	4.854755272582572	neutral	027	sub-12	2.0	2.0	027_neutral	0.0		219.6210211626112	
33.0	193.26039709967563	face	0.0		147	31.0	male	west_asian	1.9538400318344609	neutral	070	sub-12	2.0	2.0	070_neutral	0.0		219.67931923700007	1.2415575493282631
33.0	193.90208613616414	pulse	0.0	t		31.0	male	west_asian	1.9538400318344609	neutral	070	sub-12	2.0	2.0	070_neutral	0.0		220.3210082734886	
33.0	194.5019546490039	fix	1.0		443	31.0	male	west_asian	1.9538400318344609	neutral	070	sub-12	2.0	2.0	070_neutral	0.0		220.92087678632834	3.7582987686510023
33.0	194.6020650970113	pulse	1.0	t		31.0	male	west_asian	1.9538400318344609	neutral	070	sub-12	2.0	2.0	070_neutral	0.0		221.02098723433573	
33.0	195.30204496341685	pulse	1.0	t		31.0	male	west_asian	1.9538400318344609	neutral	070	sub-12	2.0	2.0	070_neutral	0.0		221.7209671007413	
33.0	196.0020242261171	pulse	1.0	t		31.0	male	west_asian	1.9538400318344609	neutral	070	sub-12	2.0	2.0	070_neutral	0.0		222.42094636344154	
33.0	196.70200439437576	pulse	1.0	t		31.0	male	west_asian	1.9538400318344609	neutral	070	sub-12	2.0	2.0	070_neutral	0.0		223.1209265317002	
33.0	197.4020144460801	pulse	1.0	t		31.0	male	west_asian	1.9538400318344609	neutral	070	sub-12	2.0	2.0	070_neutral	0.0		223.82093658340455	
33.0	198.10196654201172	pulse	1.0	t		31.0	male	west_asian	1.9538400318344609	neutral	070	sub-12	2.0	2.0	070_neutral	0.0		224.52088867933617	
34.0	198.2602534176549	face	0.0		147	47.0	male	east_asian	2.171110226820533	neutral	024	sub-12	2.0	2.0	024_neutral	0.0		224.67917555497934	1.2415690197417462
34.0	198.80196602886144	pulse	0.0	t		47.0	male	east_asian	2.171110226820533	neutral	024	sub-12	2.0	2.0	024_neutral	0.0		225.2208881661859	
34.0	199.50182243739664	fix	1.0		444	47.0	male	east_asian	2.171110226820533	neutral	024	sub-12	2.0	2.0	024_neutral	0.0		225.92074457472108	3.766555655200591
34.0	199.5095999814057	pulse	1.0	t		47.0	male	east_asian	2.171110226820533	neutral	024	sub-12	2.0	2.0	024_neutral	0.0		225.92852211873014	
34.0	200.20192908205627	pulse	1.0	t		47.0	male	east_asian	2.171110226820533	neutral	024	sub-12	2.0	2.0	024_neutral	0.0		226.6208512193807	
34.0	200.9018923465478	pulse	1.0	t		47.0	male	east_asian	2.171110226820533	neutral	024	sub-12	2.0	2.0	024_neutral	0.0		227.32081448387225	
34.0	201.60187553333662	pulse	1.0	t		47.0	male	east_asian	2.171110226820533	neutral	024	sub-12	2.0	2.0	024_neutral	0.0		228.02079767066107	
34.0	202.30185358862445	pulse	1.0	t		47.0	male	east_asian	2.171110226820533	neutral	024	sub-12	2.0	2.0	024_neutral	0.0		228.7207757259489	
34.0	203.00184975509183	pulse	1.0	t		47.0	male	east_asian	2.171110226820533	neutral	024	sub-12	2.0	2.0	024_neutral	0.0		229.42077189241627	
35.0	203.26837809259723	face	0.0		145	26.0	male	white	2.7966573816155993	smiling	117	sub-12	2.0	2.0	117_smiling	0.0		229.68730022992168	1.2333112276328393
35.0	203.70200801661167	pulse	0.0	t		26.0	male	white	2.7966573816155993	smiling	117	sub-12	2.0	2.0	117_smiling	0.0		230.12093015393611	
35.0	204.4018031489909	pulse	0.0	t		26.0	male	white	2.7966573816155993	smiling	117	sub-12	2.0	2.0	117_smiling	0.0		230.82072528631534	
35.0	204.50168932023007	fix	1.0		444	26.0	male	white	2.7966573816155993	smiling	117	sub-12	2.0	2.0	117_smiling	0.0		230.92061145755451	3.766559881142257
35.0	205.10178392095577	pulse	1.0	t		26.0	male	white	2.7966573816155993	smiling	117	sub-12	2.0	2.0	117_smiling	0.0		231.5207060582802	
35.0	205.8017692207154	pulse	1.0	t		26.0	male	white	2.7966573816155993	smiling	117	sub-12	2.0	2.0	117_smiling	0.0		232.22069135803986	
35.0	206.501731277795	pulse	1.0	t		26.0	male	white	2.7966573816155993	smiling	117	sub-12	2.0	2.0	117_smiling	0.0		232.92065341511943	
35.0	207.20173227390978	pulse	1.0	t		26.0	male	white	2.7966573816155993	smiling	117	sub-12	2.0	2.0	117_smiling	0.0		233.62065441123423	
35.0	207.90170187731428	pulse	1.0	t		26.0	male	white	2.7966573816155993	smiling	117	sub-12	2.0	2.0	117_smiling	0.0		234.32062401463872	
36.0	208.26824920137233	face	0.0		145	24.0	male	white	3.1153999204138483	smiling	012	sub-12	2.0	2.0	012_smiling	0.0		234.68717133869677	1.233304586867689
36.0	208.60169291228067	pulse	0.0	t		24.0	male	white	3.1153999204138483	smiling	012	sub-12	2.0	2.0	012_smiling	0.0		235.0206150496051	
36.0	209.30166553421486	pulse	0.0	t		24.0	male	white	3.1153999204138483	smiling	012	sub-12	2.0	2.0	012_smiling	0.0		235.7205876715393	
36.0	209.50155378824002	fix	1.0		444	24.0	male	white	3.1153999204138483	smiling	012	sub-12	2.0	2.0	012_smiling	0.0		235.92047592556446	3.758313861300394
36.0	210.0016541543573	pulse	1.0	t		24.0	male	white	3.1153999204138483	smiling	012	sub-12	2.0	2.0	012_smiling	0.0		236.42057629168175	
36.0	210.70163462446908	pulse	1.0	t		24.0	male	white	3.1153999204138483	smiling	012	sub-12	2.0	2.0	012_smiling	0.0		237.12055676179352	
36.0	211.40160905752145	pulse	1.0	t		24.0	male	white	3.1153999204138483	smiling	012	sub-12	2.0	2.0	012_smiling	0.0		237.8205311948459	
36.0	212.10159496098686	pulse	1.0	t		24.0	male	white	3.1153999204138483	smiling	012	sub-12	2.0	2.0	012_smiling	0.0		238.5205170983113	
36.0	212.80157120515696	pulse	1.0	t		24.0	male	white	3.1153999204138483	smiling	012	sub-12	2.0	2.0	012_smiling	0.0		239.2204933424814	
37.0	213.2598676495404	face	0.0		146	19.0	male	white	3.2522881018702745	smiling	018	sub-12	2.0	2.0	018_smiling	0.0		239.67878978686485	1.241552719680385
37.0	213.50158548280342	pulse	0.0	t		19.0	male	white	3.2522881018702745	smiling	018	sub-12	2.0	2.0	018_smiling	0.0		239.92050762012786	
37.0	214.20153697502883	pulse	0.0	t		19.0	male	white	3.2522881018702745	smiling	018	sub-12	2.0	2.0	018_smiling	0.0		240.62045911235327	
37.0	214.5014203692208	fix	1.0		444	19.0	male	white	3.2522881018702745	smiling	018	sub-12	2.0	2.0	018_smiling	0.0		240.92034250654524	3.766562295966196
37.0	214.90152499146507	pulse	1.0	t		19.0	male	white	3.2522881018702745	smiling	018	sub-12	2.0	2.0	018_smiling	0.0		241.3204471287895	
37.0	215.60150576342994	pulse	1.0	t		19.0	male	white	3.2522881018702745	smiling	018	sub-12	2.0	2.0	018_smiling	0.0		242.02042790075438	
37.0	216.30148170574694	pulse	1.0	t		19.0	male	white	3.2522881018702745	smiling	018	sub-12	2.0	2.0	018_smiling	0.0		242.72040384307138	
37.0	217.00147243886067	pulse	1.0	t		19.0	male	white	3.2522881018702745	smiling	018	sub-12	2.0	2.0	018_smiling	0.0		243.42039457618512	
37.0	217.701444155236	pulse	1.0	t		19.0	male	white	3.2522881018702745	smiling	018	sub-12	2.0	2.0	018_smiling	0.0		244.12036629256045	
38.0	218.267982665187	face	0.0		145	24.0	male	white	3.1153999204138483	neutral	012	sub-12	2.0	2.0	012_neutral	1.0	dominance	244.68690480251144	1.2333048887203404
38.0	218.40142945499565	pulse	0.0	t		24.0	male	white	3.1153999204138483	neutral	012	sub-12	2.0	2.0	012_neutral	1.0	dominance	244.8203515923201	
38.0	219.10142381034484	pulse	0.0	t		24.0	male	white	3.1153999204138483	neutral	012	sub-12	2.0	2.0	012_neutral	1.0	dominance	245.52034594766928	
38.0	219.50128755390733	fix	1.0		177	24.0	male	white	3.1153999204138483	neutral	012	sub-12	2.0	2.0	012_neutral	1.0	dominance	245.92020969123178	1.4999621174501954
38.0	219.80139160263116	pulse	1.0	t		24.0	male	white	3.1153999204138483	neutral	012	sub-12	2.0	2.0	012_neutral	1.0	dominance	246.2203137399556	
38.0	220.5013705634783	pulse	1.0	t		24.0	male	white	3.1153999204138483	neutral	012	sub-12	2.0	2.0	012_neutral	1.0	dominance	246.92029270080275	
38.0	221.00124967135753	rating	2.0		294	24.0	male	white	3.1153999204138483	neutral	012	sub-12	2.0	2.0	012_neutral	1.0	dominance	247.42017180868197	2.4999379692117145
38.0	221.19635808336625	pulse	2.0	t		24.0	male	white	3.1153999204138483	neutral	012	sub-12	2.0	2.0	012_neutral	1.0	dominance	247.6152802206907	
38.0	221.89620483260614	pulse	2.0	t		24.0	male	white	3.1153999204138483	neutral	012	sub-12	2.0	2.0	012_neutral	1.0	dominance	248.3151269699306	
38.0	222.496184729197	response	2.0	b		24.0	male	white	3.1153999204138483	neutral	012	sub-12	2.0	2.0	012_neutral	1.0	dominance	248.91510686652146	
38.0	222.59627284008366	pulse	2.0	t		24.0	male	white	3.1153999204138483	neutral	012	sub-12	2.0	2.0	012_neutral	1.0	dominance	249.0151949774081	
38.0	223.30129063280765	pulse	2.0	t		24.0	male	white	3.1153999204138483	neutral	012	sub-12	2.0	2.0	012_neutral	1.0	dominance	249.7202127701321	
38.0	223.50118764056924	fix	3.0		444	24.0	male	white	3.1153999204138483	neutral	012	sub-12	2.0	2.0	012_neutral	1.0	dominance	249.92010977789369	3.766553240376652
38.0	224.00130491045365	pulse	3.0	t		24.0	male	white	3.1153999204138483	neutral	012	sub-12	2.0	2.0	012_neutral	1.0	dominance	250.4202270477781	
38.0	224.7012621378858	pulse	3.0	t		24.0	male	white	3.1153999204138483	neutral	012	sub-12	2.0	2.0	012_neutral	1.0	dominance	251.12018427521025	
38.0	225.40126283214795	pulse	3.0	t		24.0	male	white	3.1153999204138483	neutral	012	sub-12	2.0	2.0	012_neutral	1.0	dominance	251.8201849694724	
38.0	226.10123545408214	pulse	3.0	t		24.0	male	white	3.1153999204138483	neutral	012	sub-12	2.0	2.0	012_neutral	1.0	dominance	252.5201575914066	
38.0	226.80120475563353	pulse	3.0	t		24.0	male	white	3.1153999204138483	neutral	012	sub-12	2.0	2.0	012_neutral	1.0	dominance	253.22012689295798	
39.0	227.2677408809459	face	0.0		145	19.0	male	white	2.243931555909272	smiling	130	sub-12	2.0	2.0	130_smiling	0.0		253.68666301827034	1.233313340604127
39.0	227.50118914983432	pulse	0.0	t		19.0	male	white	2.243931555909272	smiling	130	sub-12	2.0	2.0	130_smiling	0.0		253.92011128715876	
39.0	228.20116629956328	pulse	0.0	t		19.0	male	white	2.243931555909272	smiling	130	sub-12	2.0	2.0	130_smiling	0.0		254.62008843688773	
39.0	228.50105422155002	fix	1.0		444	19.0	male	white	2.243931555909272	smiling	130	sub-12	2.0	2.0	130_smiling	0.0		254.91997635887446	3.7498927667270436
39.0	228.90115461785263	pulse	1.0	t		19.0	male	white	2.243931555909272	smiling	130	sub-12	2.0	2.0	130_smiling	0.0		255.32007675517707	
39.0	229.60114353984818	pulse	1.0	t		19.0	male	white	2.243931555909272	smiling	130	sub-12	2.0	2.0	130_smiling	0.0		256.0200656771726	
39.0	230.30111887845942	pulse	1.0	t		19.0	male	white	2.243931555909272	smiling	130	sub-12	2.0	2.0	130_smiling	0.0		256.72004101578386	
39.0	231.00110357451285	pulse	1.0	t		19.0	male	white	2.243931555909272	smiling	130	sub-12	2.0	2.0	130_smiling	0.0		257.4200257118373	
39.0	231.70106925382834	pulse	1.0	t		19.0	male	white	2.243931555909272	smiling	130	sub-12	2.0	2.0	130_smiling	0.0		258.1199913911528	
40.0	232.25094698827706	fix	0.0		720													258.6698691256015	5.999839414212147
40.0	232.4010587795301	pulse	0.0	t														258.81998091685455	
40.0	233.1010341181409	pulse	0.0	t														259.51995625546533	
40.0	233.80101519195887	pulse	0.0	t														260.2199373292833	
40.0	234.5010083398961	pulse	0.0	t														260.91993047722053	
40.0	235.2009851877724	pulse	0.0	t														261.61990732509685	
40.0	235.9009581115597	pulse	0.0	t														262.31988024888415	
40.0	236.60094824096677	pulse	0.0	t														263.0198703782912	
40.0	237.30092539069574	pulse	0.0	t														263.7198475280202	
40.0	238.00091521825016	pulse	0.0	t														264.4198373555746	
