trial_nr	onset	event_type	phase	response	nr_frames	face_age	face_sex	face_eth	attractiveness	expression	face_id	sub_id	ses	run	trial_type	catch	rating_type	onset_abs	duration
-1.0	0.058054956124124146	fix	0.0		713													23.1133219896642	5.957919755763669
-1.0	0.7078950792079013	pulse	0.0	t														23.763162112747978	
-1.0	1.3998694783754217	pulse	0.0	t														24.455136511915498	
-1.0	2.0998427039348826	pulse	0.0	t														25.15510973747496	
-1.0	2.799803553484253	pulse	0.0	t														25.85507058702433	
-1.0	3.499710974894242	pulse	0.0	t														26.55497800843432	
-1.0	4.199766002859633	pulse	0.0	t														27.25503303639971	
-1.0	4.899779374987247	pulse	0.0	t														27.955046408527323	
-1.0	5.599711548416963	pulse	0.0	t														28.65497858195704	
0.0	6.015974711887793	face	0.0		144	25.0	female	west_asian	2.6756864305610826	smiling	064	sub-13	1.0	2.0	064_smiling	0.0		29.07124174542787	1.2333412117200169
0.0	6.29961806426536	pulse	0.0	t		25.0	female	west_asian	2.6756864305610826	smiling	064	sub-13	1.0	2.0	064_smiling	0.0		29.354885097805436	
0.0	7.007752815466574	pulse	0.0	t		25.0	female	west_asian	2.6756864305610826	smiling	064	sub-13	1.0	2.0	064_smiling	0.0		30.06301984900665	
0.0	7.24931592360781	fix	1.0		447	25.0	female	west_asian	2.6756864305610826	smiling	064	sub-13	1.0	2.0	064_smiling	0.0		30.304582957147886	3.7582098977291025
0.0	7.69961915093927	pulse	1.0	t		25.0	female	west_asian	2.6756864305610826	smiling	064	sub-13	1.0	2.0	064_smiling	0.0		30.754886184479346	
0.0	8.399633428628476	pulse	1.0	t		25.0	female	west_asian	2.6756864305610826	smiling	064	sub-13	1.0	2.0	064_smiling	0.0		31.454900462168553	
0.0	9.100009025431518	pulse	1.0	t		25.0	female	west_asian	2.6756864305610826	smiling	064	sub-13	1.0	2.0	064_smiling	0.0		32.155276058971594	
0.0	9.79956116480571	pulse	1.0	t		25.0	female	west_asian	2.6756864305610826	smiling	064	sub-13	1.0	2.0	064_smiling	0.0		32.854828198345785	
0.0	10.499545257105638	pulse	1.0	t		25.0	female	west_asian	2.6756864305610826	smiling	064	sub-13	1.0	2.0	064_smiling	0.0		33.554812290645714	
1.0	11.007525821336912	face	0.0		146	19.0	male	white	3.2522881018702745	neutral	018	sub-13	1.0	2.0	018_neutral	0.0		34.06279285487699	1.241672982959244
1.0	11.207648917355527	pulse	0.0	t		19.0	male	white	3.2522881018702745	neutral	018	sub-13	1.0	2.0	018_neutral	0.0		34.262915950895604	
1.0	11.899620297984256	pulse	0.0	t		19.0	male	white	3.2522881018702745	neutral	018	sub-13	1.0	2.0	018_neutral	0.0		34.95488733152433	
1.0	12.249198804296157	fix	1.0		446	19.0	male	white	3.2522881018702745	neutral	018	sub-13	1.0	2.0	018_neutral	0.0		35.30446583783623	3.7665579690788036
1.0	12.59957299747839	pulse	1.0	t		19.0	male	white	3.2522881018702745	neutral	018	sub-13	1.0	2.0	018_neutral	0.0		35.654840031018466	
1.0	13.299482833719594	pulse	1.0	t		19.0	male	white	3.2522881018702745	neutral	018	sub-13	1.0	2.0	018_neutral	0.0		36.35474986725967	
1.0	13.999466322311491	pulse	1.0	t		19.0	male	white	3.2522881018702745	neutral	018	sub-13	1.0	2.0	018_neutral	0.0		37.05473335585157	
1.0	14.699539763364555	pulse	1.0	t		19.0	male	white	3.2522881018702745	neutral	018	sub-13	1.0	2.0	018_neutral	0.0		37.75480679690463	
1.0	15.399497594375134	pulse	1.0	t		19.0	male	white	3.2522881018702745	neutral	018	sub-13	1.0	2.0	018_neutral	0.0		38.45476462791521	
2.0	16.01575677337496	face	0.0		146	54.0	female	white	2.286908077994429	smiling	136	sub-13	1.0	2.0	136_smiling	0.0		39.071023806915036	1.2416355530763212
2.0	16.099345550567705	pulse	0.0	t		54.0	female	white	2.286908077994429	smiling	136	sub-13	1.0	2.0	136_smiling	0.0		39.15461258410778	
2.0	16.79940571004954	pulse	0.0	t		54.0	female	white	2.286908077994429	smiling	136	sub-13	1.0	2.0	136_smiling	0.0		39.85467274358962	
2.0	17.25739232645128	fix	1.0		444	54.0	female	white	2.286908077994429	smiling	136	sub-13	1.0	2.0	136_smiling	0.0		40.31265935999136	3.7665646098644174
2.0	17.499384670833024	pulse	1.0	t		54.0	female	white	2.286908077994429	smiling	136	sub-13	1.0	2.0	136_smiling	0.0		40.5546517043731	
2.0	18.19935548156127	pulse	1.0	t		54.0	female	white	2.286908077994429	smiling	136	sub-13	1.0	2.0	136_smiling	0.0		41.254622515101346	
2.0	18.899419263289474	pulse	1.0	t		54.0	female	white	2.286908077994429	smiling	136	sub-13	1.0	2.0	136_smiling	0.0		41.95468629682955	
2.0	19.5993327217775	pulse	1.0	t		54.0	female	white	2.286908077994429	smiling	136	sub-13	1.0	2.0	136_smiling	0.0		42.65459975531758	
2.0	20.299375675586816	pulse	1.0	t		54.0	female	white	2.286908077994429	smiling	136	sub-13	1.0	2.0	136_smiling	0.0		43.35464270912689	
2.0	20.999149073867102	pulse	1.0	t		54.0	female	white	2.286908077994429	smiling	136	sub-13	1.0	2.0	136_smiling	0.0		44.05441610740718	
3.0	21.0239569363157	face	0.0		146	40.0	male	white	1.868682849184242	neutral	172	sub-13	1.0	2.0	172_neutral	0.0		44.079223969855775	1.2333324579572036
3.0	21.69922432604335	pulse	0.0	t		40.0	male	white	1.868682849184242	neutral	172	sub-13	1.0	2.0	172_neutral	0.0		44.754491359583426	
3.0	22.257289394272902	fix	1.0		443	40.0	male	white	1.868682849184242	neutral	172	sub-13	1.0	2.0	172_neutral	0.0		45.31255642781298	3.7582156329526697
3.0	22.399328556193723	pulse	1.0	t		40.0	male	white	1.868682849184242	neutral	172	sub-13	1.0	2.0	172_neutral	0.0		45.4545955897338	
3.0	23.099099237788778	pulse	1.0	t		40.0	male	white	1.868682849184242	neutral	172	sub-13	1.0	2.0	172_neutral	0.0		46.154366271328854	
3.0	23.79908242452666	pulse	1.0	t		40.0	male	white	1.868682849184242	neutral	172	sub-13	1.0	2.0	172_neutral	0.0		46.854349458066736	
3.0	24.499083420644638	pulse	1.0	t		40.0	male	white	1.868682849184242	neutral	172	sub-13	1.0	2.0	172_neutral	0.0		47.554350454184714	
3.0	25.1991948952882	pulse	1.0	t		40.0	male	white	1.868682849184242	neutral	172	sub-13	1.0	2.0	172_neutral	0.0		48.25446192882828	
3.0	25.899056133052454	pulse	1.0	t		40.0	male	white	1.868682849184242	neutral	172	sub-13	1.0	2.0	172_neutral	0.0		48.95432316659253	
4.0	26.015505027225572	face	0.0		147	31.0	female	white	2.1822522881018704	smiling	102	sub-13	1.0	2.0	102_smiling	0.0		49.07077206076565	1.2416521550408106
4.0	26.599107236917007	pulse	0.0	t		31.0	female	white	2.1822522881018704	smiling	102	sub-13	1.0	2.0	102_smiling	0.0		49.65437427045708	
4.0	27.257157182266383	fix	1.0		444	31.0	female	white	2.1822522881018704	smiling	102	sub-13	1.0	2.0	102_smiling	0.0		50.31242421580646	3.758225895985106
4.0	27.29918580948606	pulse	1.0	t		31.0	female	white	2.1822522881018704	smiling	102	sub-13	1.0	2.0	102_smiling	0.0		50.35445284302614	
4.0	27.998997543210862	pulse	1.0	t		31.0	female	white	2.1822522881018704	smiling	102	sub-13	1.0	2.0	102_smiling	0.0		51.05426457675094	
4.0	28.69898857815042	pulse	1.0	t		31.0	female	white	2.1822522881018704	smiling	102	sub-13	1.0	2.0	102_smiling	0.0		51.754255611690496	
4.0	29.39910095835603	pulse	1.0	t		31.0	female	white	2.1822522881018704	smiling	102	sub-13	1.0	2.0	102_smiling	0.0		52.454367991896106	
4.0	30.099084446947927	pulse	1.0	t		31.0	female	white	2.1822522881018704	smiling	102	sub-13	1.0	2.0	102_smiling	0.0		53.154351480488	
4.0	30.798914291906385	pulse	1.0	t		31.0	female	white	2.1822522881018704	smiling	102	sub-13	1.0	2.0	102_smiling	0.0		53.85418132544646	
5.0	31.01538307825149	face	0.0		146	37.0	male	white	3.898925586947871	smiling	101	sub-13	1.0	2.0	101_smiling	0.0		54.070650111791565	1.2416735866672752
5.0	31.498991053352256	pulse	0.0	t		37.0	male	white	3.898925586947871	smiling	101	sub-13	1.0	2.0	101_smiling	0.0		54.55425808689233	
5.0	32.19897665492135	pulse	0.0	t		37.0	male	white	3.898925586947871	smiling	101	sub-13	1.0	2.0	101_smiling	0.0		55.25424368846143	
5.0	32.257056664918764	fix	1.0		446	37.0	male	white	3.898925586947871	smiling	101	sub-13	1.0	2.0	101_smiling	0.0		55.31232369845884	3.766566420988056
5.0	32.89908390361097	pulse	1.0	t		37.0	male	white	3.898925586947871	smiling	101	sub-13	1.0	2.0	101_smiling	0.0		55.95435093715105	
5.0	33.59899675839097	pulse	1.0	t		37.0	male	white	3.898925586947871	smiling	101	sub-13	1.0	2.0	101_smiling	0.0		56.654263791931044	
5.0	34.29898386922969	pulse	1.0	t		37.0	male	white	3.898925586947871	smiling	101	sub-13	1.0	2.0	101_smiling	0.0		57.35425090276976	
5.0	34.99879650851608	pulse	1.0	t		37.0	male	white	3.898925586947871	smiling	101	sub-13	1.0	2.0	101_smiling	0.0		58.054063542056156	
5.0	35.69895024270545	pulse	1.0	t		37.0	male	white	3.898925586947871	smiling	101	sub-13	1.0	2.0	101_smiling	0.0		58.75421727624553	
6.0	36.02362308590682	face	0.0		145	19.0	male	white	3.2522881018702745	smiling	018	sub-13	1.0	2.0	018_smiling	1.0	dominance	59.078890119446896	1.233295028073826
6.0	36.398764089407905	pulse	0.0	t		19.0	male	white	3.2522881018702745	smiling	018	sub-13	1.0	2.0	018_smiling	1.0	dominance	59.45403112294798	
6.0	37.09874063536017	pulse	0.0	t		19.0	male	white	3.2522881018702745	smiling	018	sub-13	1.0	2.0	018_smiling	1.0	dominance	60.15400766890025	
6.0	37.256918113980646	fix	1.0		177	19.0	male	white	3.2522881018702745	smiling	018	sub-13	1.0	2.0	018_smiling	1.0	dominance	60.31218514752072	1.508346411153525
6.0	37.79881709495203	pulse	1.0	t		19.0	male	white	3.2522881018702745	smiling	018	sub-13	1.0	2.0	018_smiling	1.0	dominance	60.854084128492104	
6.0	38.49870066990434	pulse	1.0	t		19.0	male	white	3.2522881018702745	smiling	018	sub-13	1.0	2.0	018_smiling	1.0	dominance	61.553967703444414	
6.0	38.76526452513417	rating	2.0		294	19.0	male	white	3.2522881018702745	smiling	018	sub-13	1.0	2.0	018_smiling	1.0	dominance	61.82053155867425	2.491580842057374
6.0	39.19869291225905	pulse	2.0	t		19.0	male	white	3.2522881018702745	smiling	018	sub-13	1.0	2.0	018_smiling	1.0	dominance	62.253959945799124	
6.0	39.76024831708901	response	2.0	n		19.0	male	white	3.2522881018702745	smiling	018	sub-13	1.0	2.0	018_smiling	1.0	dominance	62.815515350629084	
6.0	39.89866010074047	pulse	2.0	t		19.0	male	white	3.2522881018702745	smiling	018	sub-13	1.0	2.0	018_smiling	1.0	dominance	62.95392713428055	
6.0	40.59862336512151	pulse	2.0	t		19.0	male	white	3.2522881018702745	smiling	018	sub-13	1.0	2.0	018_smiling	1.0	dominance	63.65389039866159	
6.0	41.256845367191545	fix	3.0		443	19.0	male	white	3.2522881018702745	smiling	018	sub-13	1.0	2.0	018_smiling	1.0	dominance	64.31211240073162	3.7665661191340405
6.0	41.29862526680108	pulse	3.0	t		19.0	male	white	3.2522881018702745	smiling	018	sub-13	1.0	2.0	018_smiling	1.0	dominance	64.35389230034116	
6.0	41.99859758679895	pulse	3.0	t		19.0	male	white	3.2522881018702745	smiling	018	sub-13	1.0	2.0	018_smiling	1.0	dominance	65.05386462033903	
6.0	42.698685214984835	pulse	3.0	t		19.0	male	white	3.2522881018702745	smiling	018	sub-13	1.0	2.0	018_smiling	1.0	dominance	65.75395224852491	
6.0	43.398576638138366	pulse	3.0	t		19.0	male	white	3.2522881018702745	smiling	018	sub-13	1.0	2.0	018_smiling	1.0	dominance	66.45384367167844	
6.0	44.09854744886661	pulse	3.0	t		19.0	male	white	3.2522881018702745	smiling	018	sub-13	1.0	2.0	018_smiling	1.0	dominance	67.15381448240669	
6.0	44.79854270976057	pulse	3.0	t		19.0	male	white	3.2522881018702745	smiling	018	sub-13	1.0	2.0	018_smiling	1.0	dominance	67.85380974330064	
7.0	45.023411486325585	face	0.0		145	28.0	male	white	3.9076800636689217	smiling	033	sub-13	1.0	2.0	033_smiling	0.0		68.07867851986566	1.2333173652623373
7.0	45.49852680206004	pulse	0.0	t		28.0	male	white	3.9076800636689217	smiling	033	sub-13	1.0	2.0	033_smiling	0.0		68.55379383560012	
7.0	46.19851119621353	pulse	0.0	t		28.0	male	white	3.9076800636689217	smiling	033	sub-13	1.0	2.0	033_smiling	0.0		69.2537782297536	
7.0	46.25672885158792	fix	1.0		445	28.0	male	white	3.9076800636689217	smiling	033	sub-13	1.0	2.0	033_smiling	0.0		69.311995885128	3.7583249040631017
7.0	46.89852124794834	pulse	1.0	t		28.0	male	white	3.9076800636689217	smiling	033	sub-13	1.0	2.0	033_smiling	0.0		69.95378828148841	
7.0	47.59846972148853	pulse	1.0	t		28.0	male	white	3.9076800636689217	smiling	033	sub-13	1.0	2.0	033_smiling	0.0		70.6537367550286	
7.0	48.29847856580773	pulse	1.0	t		28.0	male	white	3.9076800636689217	smiling	033	sub-13	1.0	2.0	033_smiling	0.0		71.3537455993478	
7.0	48.9984288504711	pulse	1.0	t		28.0	male	white	3.9076800636689217	smiling	033	sub-13	1.0	2.0	033_smiling	0.0		72.05369588401118	
7.0	49.69842712990385	pulse	1.0	t		28.0	male	white	3.9076800636689217	smiling	033	sub-13	1.0	2.0	033_smiling	0.0		72.75369416344392	
8.0	50.015053755651024	face	0.0		146	20.0	female	white	3.9502586549940313	neutral	091	sub-13	1.0	2.0	091_neutral	0.0		73.0703207891911	1.24154590246917
8.0	50.39842118338174	pulse	0.0	t		20.0	female	white	3.9502586549940313	neutral	091	sub-13	1.0	2.0	091_neutral	0.0		73.45368821692182	
8.0	51.098379014392776	pulse	0.0	t		20.0	female	white	3.9502586549940313	neutral	091	sub-13	1.0	2.0	091_neutral	0.0		74.15364604793285	
8.0	51.256599658120194	fix	1.0		445	20.0	female	white	3.9502586549940313	neutral	091	sub-13	1.0	2.0	091_neutral	0.0		74.31186669166027	3.7665781932896607
8.0	51.7983778975331	pulse	1.0	t		20.0	female	white	3.9502586549940313	neutral	091	sub-13	1.0	2.0	091_neutral	0.0		74.85364493107318	
8.0	52.498348406407786	pulse	1.0	t		20.0	female	white	3.9502586549940313	neutral	091	sub-13	1.0	2.0	091_neutral	0.0		75.55361543994786	
8.0	53.19835060994092	pulse	1.0	t		20.0	female	white	3.9502586549940313	neutral	091	sub-13	1.0	2.0	091_neutral	0.0		76.253617643481	
8.0	53.89831900583795	pulse	1.0	t		20.0	female	white	3.9502586549940313	neutral	091	sub-13	1.0	2.0	091_neutral	0.0		76.95358603937802	
8.0	54.59830007959863	pulse	1.0	t		20.0	female	white	3.9502586549940313	neutral	091	sub-13	1.0	2.0	091_neutral	0.0		77.6535671131387	
9.0	55.023177851409855	face	0.0		145	26.0	female	white	4.854755272582572	neutral	027	sub-13	1.0	2.0	027_neutral	0.0		78.07844488494993	1.2333167615547609
9.0	55.2982935293694	pulse	0.0	t		26.0	female	white	4.854755272582572	neutral	027	sub-13	1.0	2.0	027_neutral	0.0		78.35356056290948	
9.0	55.99828516801654	pulse	0.0	t		26.0	female	white	4.854755272582572	neutral	027	sub-13	1.0	2.0	027_neutral	0.0		79.05355220155661	
9.0	56.256494612964616	fix	1.0		445	26.0	female	white	4.854755272582572	neutral	027	sub-13	1.0	2.0	027_neutral	0.0		79.31176164650469	3.766551932000766
9.0	56.69823484897188	pulse	1.0	t		26.0	female	white	4.854755272582572	neutral	027	sub-13	1.0	2.0	027_neutral	0.0		79.75350188251196	
9.0	57.39824640997631	pulse	1.0	t		26.0	female	white	4.854755272582572	neutral	027	sub-13	1.0	2.0	027_neutral	0.0		80.45351344351639	
9.0	58.09822174851297	pulse	1.0	t		26.0	female	white	4.854755272582572	neutral	027	sub-13	1.0	2.0	027_neutral	0.0		81.15348878205305	
9.0	58.79820070929645	pulse	1.0	t		26.0	female	white	4.854755272582572	neutral	027	sub-13	1.0	2.0	027_neutral	0.0		81.85346774283653	
9.0	59.498201403560415	pulse	1.0	t		26.0	female	white	4.854755272582572	neutral	027	sub-13	1.0	2.0	027_neutral	0.0		82.55346843710049	
10.0	60.02304654496538	face	0.0		145	24.0	female	black	3.0955033824114606	smiling	099	sub-13	1.0	2.0	099_smiling	0.0		83.07831357850546	1.2333143467230911
10.0	60.19820934231757	pulse	0.0	t		24.0	female	black	3.0955033824114606	smiling	099	sub-13	1.0	2.0	099_smiling	0.0		83.25347637585764	
10.0	60.89817743636104	pulse	0.0	t		24.0	female	black	3.0955033824114606	smiling	099	sub-13	1.0	2.0	099_smiling	0.0		83.95344446990111	
10.0	61.25636089168847	fix	1.0		444	24.0	female	black	3.0955033824114606	smiling	099	sub-13	1.0	2.0	099_smiling	0.0		84.31162792522855	3.758229820085944
10.0	61.598131645124795	pulse	1.0	t		24.0	female	black	3.0955033824114606	smiling	099	sub-13	1.0	2.0	099_smiling	0.0		84.65339867866487	
10.0	62.298116944839876	pulse	1.0	t		24.0	female	black	3.0955033824114606	smiling	099	sub-13	1.0	2.0	099_smiling	0.0		85.35338397837995	
10.0	62.99814088185394	pulse	1.0	t		24.0	female	black	3.0955033824114606	smiling	099	sub-13	1.0	2.0	099_smiling	0.0		86.05340791539402	
10.0	63.69807969606927	pulse	1.0	t		24.0	female	black	3.0955033824114606	smiling	099	sub-13	1.0	2.0	099_smiling	0.0		86.75334672960935	
10.0	64.39806439207678	pulse	1.0	t		24.0	female	black	3.0955033824114606	smiling	099	sub-13	1.0	2.0	099_smiling	0.0		87.45333142561685	
11.0	65.01459071177442	face	0.0		146	30.0	female	black	2.7345801830481498	smiling	062	sub-13	1.0	2.0	062_smiling	0.0		88.0698577453145	1.2416687570048452
11.0	65.09809164948365	pulse	0.0	t		30.0	female	black	2.7345801830481498	smiling	062	sub-13	1.0	2.0	062_smiling	0.0		88.15335868302373	
11.0	65.7980636676275	pulse	0.0	t		30.0	female	black	2.7345801830481498	smiling	062	sub-13	1.0	2.0	062_smiling	0.0		88.85333070116758	
11.0	66.25625946877926	fix	1.0		444	30.0	female	black	2.7345801830481498	smiling	062	sub-13	1.0	2.0	062_smiling	0.0		89.31152650231934	3.7665676284036635
11.0	66.49805379700501	pulse	1.0	t		30.0	female	black	2.7345801830481498	smiling	062	sub-13	1.0	2.0	062_smiling	0.0		89.55332083054509	
11.0	67.19802913554167	pulse	1.0	t		30.0	female	black	2.7345801830481498	smiling	062	sub-13	1.0	2.0	062_smiling	0.0		90.25329616908175	
11.0	67.898012020426	pulse	1.0	t		30.0	female	black	2.7345801830481498	smiling	062	sub-13	1.0	2.0	062_smiling	0.0		90.95327905396607	
11.0	68.59798675525462	pulse	1.0	t		30.0	female	black	2.7345801830481498	smiling	062	sub-13	1.0	2.0	062_smiling	0.0		91.6532537887947	
11.0	69.29797296053175	pulse	1.0	t		30.0	female	black	2.7345801830481498	smiling	062	sub-13	1.0	2.0	062_smiling	0.0		92.35323999407183	
11.0	69.99795584541562	pulse	1.0	t		30.0	female	black	2.7345801830481498	smiling	062	sub-13	1.0	2.0	062_smiling	0.0		93.0532228789557	
12.0	70.02282709718293	face	0.0		146	26.0	female	white	4.854755272582572	smiling	027	sub-13	1.0	2.0	027_smiling	1.0	trustworthiness	93.078094130723	1.233315252284683
12.0	70.69795865265678	pulse	0.0	t		26.0	female	white	4.854755272582572	smiling	027	sub-13	1.0	2.0	027_smiling	1.0	trustworthiness	93.75322568619686	
12.0	71.25614234946761	fix	1.0		177	26.0	female	white	4.854755272582572	smiling	027	sub-13	1.0	2.0	027_smiling	1.0	trustworthiness	94.31140938300769	1.499953061719225
12.0	71.39791286142099	pulse	1.0	t		26.0	female	white	4.854755272582572	smiling	027	sub-13	1.0	2.0	027_smiling	1.0	trustworthiness	94.45317989496107	
12.0	72.09788910551924	pulse	1.0	t		26.0	female	white	4.854755272582572	smiling	027	sub-13	1.0	2.0	027_smiling	1.0	trustworthiness	95.15315613905932	
12.0	72.75609541118683	rating	2.0		294	26.0	female	white	4.854755272582572	smiling	027	sub-13	1.0	2.0	027_smiling	1.0	trustworthiness	95.81136244472691	2.499952458011194
12.0	72.79787410338076	pulse	2.0	t		26.0	female	white	4.854755272582572	smiling	027	sub-13	1.0	2.0	027_smiling	1.0	trustworthiness	95.85314113692084	
12.0	73.49785155489462	pulse	2.0	t		26.0	female	white	4.854755272582572	smiling	027	sub-13	1.0	2.0	027_smiling	1.0	trustworthiness	96.5531185884347	
12.0	73.5089552504619	response	2.0	y		26.0	female	white	4.854755272582572	smiling	027	sub-13	1.0	2.0	027_smiling	1.0	trustworthiness	96.56422228400197	
12.0	74.19782628972371	pulse	2.0	t		26.0	female	white	4.854755272582572	smiling	027	sub-13	1.0	2.0	027_smiling	1.0	trustworthiness	97.25309332326378	
12.0	74.89782215432524	pulse	2.0	t		26.0	female	white	4.854755272582572	smiling	027	sub-13	1.0	2.0	027_smiling	1.0	trustworthiness	97.95308918786532	
12.0	75.25604786919803	fix	3.0		444	26.0	female	white	4.854755272582572	smiling	027	sub-13	1.0	2.0	027_smiling	1.0	trustworthiness	98.3113149027381	3.766548007900383
12.0	75.59780805774835	pulse	3.0	t		26.0	female	white	4.854755272582572	smiling	027	sub-13	1.0	2.0	027_smiling	1.0	trustworthiness	98.65307509128843	
12.0	76.2978042242039	pulse	3.0	t		26.0	female	white	4.854755272582572	smiling	027	sub-13	1.0	2.0	027_smiling	1.0	trustworthiness	99.35307125774398	
12.0	76.99778439240299	pulse	3.0	t		26.0	female	white	4.854755272582572	smiling	027	sub-13	1.0	2.0	027_smiling	1.0	trustworthiness	100.05305142594307	
12.0	77.69776667357928	pulse	3.0	t		26.0	female	white	4.854755272582572	smiling	027	sub-13	1.0	2.0	027_smiling	1.0	trustworthiness	100.75303370711936	
12.0	78.39774352138511	pulse	3.0	t		26.0	female	white	4.854755272582572	smiling	027	sub-13	1.0	2.0	027_smiling	1.0	trustworthiness	101.45301055492519	
13.0	79.02259587709841	face	0.0		145	20.0	male	black	2.609629924393156	smiling	043	sub-13	1.0	2.0	043_smiling	0.0		102.07786291063849	1.2333342690803875
13.0	79.0977689676688	pulse	0.0	t		20.0	male	black	2.609629924393156	smiling	043	sub-13	1.0	2.0	043_smiling	0.0		102.15303600120887	
13.0	79.79771744120853	pulse	0.0	t		20.0	male	black	2.609629924393156	smiling	043	sub-13	1.0	2.0	043_smiling	0.0		102.85298447474861	
13.0	80.2559301461788	fix	1.0		444	20.0	male	black	2.609629924393156	smiling	043	sub-13	1.0	2.0	043_smiling	0.0		103.31119717971887	3.7665564598091805
13.0	80.49770726873248	pulse	1.0	t		20.0	male	black	2.609629924393156	smiling	043	sub-13	1.0	2.0	043_smiling	0.0		103.55297430227256	
13.0	81.19768411653831	pulse	1.0	t		20.0	male	black	2.609629924393156	smiling	043	sub-13	1.0	2.0	043_smiling	0.0		104.25295115007839	
13.0	81.89770262018237	pulse	1.0	t		20.0	male	black	2.609629924393156	smiling	043	sub-13	1.0	2.0	043_smiling	0.0		104.95296965372245	
13.0	82.59765169743014	pulse	1.0	t		20.0	male	black	2.609629924393156	smiling	043	sub-13	1.0	2.0	043_smiling	0.0		105.65291873097021	
13.0	83.29764665647008	pulse	1.0	t		20.0	male	black	2.609629924393156	smiling	043	sub-13	1.0	2.0	043_smiling	0.0		106.35291369001015	
13.0	83.99762139129871	pulse	1.0	t		20.0	male	black	2.609629924393156	smiling	043	sub-13	1.0	2.0	043_smiling	0.0		107.05288842483878	
14.0	84.02248660598798	face	0.0		146	19.0	female	white	4.298846000795861	neutral	100	sub-13	1.0	2.0	100_neutral	0.0		107.07775363952805	1.2333116300383153
14.0	84.6975952205662	pulse	0.0	t		19.0	female	white	4.298846000795861	neutral	100	sub-13	1.0	2.0	100_neutral	0.0		107.75286225410628	
14.0	85.2557982360263	fix	1.0		443	19.0	female	white	4.298846000795861	neutral	100	sub-13	1.0	2.0	100_neutral	0.0		108.31106526956637	3.7665637043023708
14.0	85.3975787091581	pulse	1.0	t		19.0	female	white	4.298846000795861	neutral	100	sub-13	1.0	2.0	100_neutral	0.0		108.45284574269817	
14.0	86.09756219775	pulse	1.0	t		19.0	female	white	4.298846000795861	neutral	100	sub-13	1.0	2.0	100_neutral	0.0		109.15282923129007	
14.0	86.7975523271275	pulse	1.0	t		19.0	female	white	4.298846000795861	neutral	100	sub-13	1.0	2.0	100_neutral	0.0		109.85281936066758	
14.0	87.49754306021305	pulse	1.0	t		19.0	female	white	4.298846000795861	neutral	100	sub-13	1.0	2.0	100_neutral	0.0		110.55281009375312	
14.0	88.19751236167167	pulse	1.0	t		19.0	female	white	4.298846000795861	neutral	100	sub-13	1.0	2.0	100_neutral	0.0		111.25277939521175	
14.0	88.89749585026357	pulse	1.0	t		19.0	female	white	4.298846000795861	neutral	100	sub-13	1.0	2.0	100_neutral	0.0		111.95276288380364	
15.0	89.02236194032866	face	0.0		146	26.0	male	white	2.7966573816155993	smiling	117	sub-13	1.0	2.0	117_smiling	0.0		112.07762897386874	1.2333197800935523
15.0	89.59748114997865	pulse	0.0	t		26.0	male	white	2.7966573816155993	smiling	117	sub-13	1.0	2.0	117_smiling	0.0		112.65274818351872	
15.0	90.25568172042222	fix	1.0		443	26.0	male	white	2.7966573816155993	smiling	117	sub-13	1.0	2.0	117_smiling	0.0		113.3109487539623	3.766564308010402
15.0	90.29747973126541	pulse	1.0	t		26.0	male	white	2.7966573816155993	smiling	117	sub-13	1.0	2.0	117_smiling	0.0		113.35274676480549	
15.0	90.9974357511528	pulse	1.0	t		26.0	male	white	2.7966573816155993	smiling	117	sub-13	1.0	2.0	117_smiling	0.0		114.05270278469288	
15.0	91.69742950277714	pulse	1.0	t		26.0	male	white	2.7966573816155993	smiling	117	sub-13	1.0	2.0	117_smiling	0.0		114.75269653631722	
15.0	92.39741842473904	pulse	1.0	t		26.0	male	white	2.7966573816155993	smiling	117	sub-13	1.0	2.0	117_smiling	0.0		115.45268545827912	
15.0	93.09740130962336	pulse	1.0	t		26.0	male	white	2.7966573816155993	smiling	117	sub-13	1.0	2.0	117_smiling	0.0		116.15266834316344	
15.0	93.79739747607891	pulse	1.0	t		26.0	male	white	2.7966573816155993	smiling	117	sub-13	1.0	2.0	117_smiling	0.0		116.85266450961899	
16.0	94.02224602843262	face	0.0		145	28.0	female	white	5.676880222841227	smiling	124	sub-13	1.0	2.0	124_smiling	0.0		117.0775130619727	1.2333194782395367
16.0	94.4974072259597	pulse	0.0	t		28.0	female	white	5.676880222841227	smiling	124	sub-13	1.0	2.0	124_smiling	0.0		117.55267425949978	
16.0	95.19737109404832	pulse	0.0	t		28.0	female	white	5.676880222841227	smiling	124	sub-13	1.0	2.0	124_smiling	0.0		118.2526381275884	
16.0	95.25556550667216	fix	1.0		444	28.0	female	white	5.676880222841227	smiling	124	sub-13	1.0	2.0	124_smiling	0.0		118.31083254021223	3.7665646098644174
16.0	95.89733466028292	pulse	1.0	t		28.0	female	white	5.676880222841227	smiling	124	sub-13	1.0	2.0	124_smiling	0.0		118.952601693823	
16.0	96.59731513033603	pulse	1.0	t		28.0	female	white	5.676880222841227	smiling	124	sub-13	1.0	2.0	124_smiling	0.0		119.6525821638761	
16.0	97.29731974870037	pulse	1.0	t		28.0	female	white	5.676880222841227	smiling	124	sub-13	1.0	2.0	124_smiling	0.0		120.35258678224045	
16.0	97.99732255594199	pulse	1.0	t		28.0	female	white	5.676880222841227	smiling	124	sub-13	1.0	2.0	124_smiling	0.0		121.05258958948207	
16.0	98.69727676470575	pulse	1.0	t		28.0	female	white	5.676880222841227	smiling	124	sub-13	1.0	2.0	124_smiling	0.0		121.75254379824582	
17.0	99.02213011653657	face	0.0		145	28.0	male	white	3.9076800636689217	neutral	033	sub-13	1.0	2.0	033_neutral	0.0		122.07739715007665	1.2333342690803875
17.0	99.3972551217812	pulse	0.0	t		28.0	male	white	3.9076800636689217	neutral	033	sub-13	1.0	2.0	033_neutral	0.0		122.45252215532128	
17.0	100.09723378071112	pulse	0.0	t		28.0	male	white	3.9076800636689217	neutral	033	sub-13	1.0	2.0	033_neutral	0.0		123.1525008142512	
17.0	100.25546438561696	fix	1.0		444	28.0	male	white	3.9076800636689217	neutral	033	sub-13	1.0	2.0	033_neutral	0.0		123.31073141915704	3.7583110187842976
17.0	100.79722602306583	pulse	1.0	t		28.0	male	white	3.9076800636689217	neutral	033	sub-13	1.0	2.0	033_neutral	0.0		123.85249305660591	
17.0	101.49720860609614	pulse	1.0	t		28.0	male	white	3.9076800636689217	neutral	033	sub-13	1.0	2.0	033_neutral	0.0		124.55247563963621	
17.0	102.19718454834037	pulse	1.0	t		28.0	male	white	3.9076800636689217	neutral	033	sub-13	1.0	2.0	033_neutral	0.0		125.25245158188045	
17.0	102.89720999462406	pulse	1.0	t		28.0	male	white	3.9076800636689217	neutral	033	sub-13	1.0	2.0	033_neutral	0.0		125.95247702816414	
17.0	103.59718684242989	pulse	1.0	t		28.0	male	white	3.9076800636689217	neutral	033	sub-13	1.0	2.0	033_neutral	0.0		126.65245387596997	
18.0	104.01377540440126	face	0.0		146	31.0	female	east_asian	3.395941106247513	neutral	087	sub-13	1.0	2.0	087_neutral	0.0		127.06904243794133	1.2415691452192732
18.0	104.29715886057375	pulse	0.0	t		31.0	female	east_asian	3.395941106247513	neutral	087	sub-13	1.0	2.0	087_neutral	0.0		127.35242589411382	
18.0	104.9971224268088	pulse	0.0	t		31.0	female	east_asian	3.395941106247513	neutral	087	sub-13	1.0	2.0	087_neutral	0.0		128.05238946034888	
18.0	105.25534454962053	fix	1.0		444	31.0	female	east_asian	3.395941106247513	neutral	087	sub-13	1.0	2.0	087_neutral	0.0		128.3106115831606	3.7665525357083425
18.0	105.69710833023191	pulse	1.0	t		31.0	female	east_asian	3.395941106247513	neutral	087	sub-13	1.0	2.0	087_neutral	0.0		128.752375363772	
18.0	106.39710027073261	pulse	1.0	t		31.0	female	east_asian	3.395941106247513	neutral	087	sub-13	1.0	2.0	087_neutral	0.0		129.45236730427268	
18.0	107.0970837593245	pulse	1.0	t		31.0	female	east_asian	3.395941106247513	neutral	087	sub-13	1.0	2.0	087_neutral	0.0		130.15235079286458	
18.0	107.79704249589713	pulse	1.0	t		31.0	female	east_asian	3.395941106247513	neutral	087	sub-13	1.0	2.0	087_neutral	0.0		130.8523095294372	
18.0	108.49703564381343	pulse	1.0	t		31.0	female	east_asian	3.395941106247513	neutral	087	sub-13	1.0	2.0	087_neutral	0.0		131.5523026773535	
19.0	109.02189708532887	face	0.0		145	19.0	male	white	2.243931555909272	smiling	130	sub-13	1.0	2.0	130_smiling	1.0	dominance	132.07716411886895	1.2333146485771067
19.0	109.1970278861686	pulse	0.0	t		19.0	male	white	2.243931555909272	smiling	130	sub-13	1.0	2.0	130_smiling	1.0	dominance	132.25229491970867	
19.0	109.89702616560135	pulse	0.0	t		19.0	male	white	2.243931555909272	smiling	130	sub-13	1.0	2.0	130_smiling	1.0	dominance	132.95229319914142	
19.0	110.25521173390598	fix	1.0		177	19.0	male	white	2.243931555909272	smiling	130	sub-13	1.0	2.0	130_smiling	1.0	dominance	133.31047876744606	1.4999669469984838
19.0	110.59699908930679	pulse	1.0	t		19.0	male	white	2.243931555909272	smiling	130	sub-13	1.0	2.0	130_smiling	1.0	dominance	133.65226612284687	
19.0	111.29699284093113	pulse	1.0	t		19.0	male	white	2.243931555909272	smiling	130	sub-13	1.0	2.0	130_smiling	1.0	dominance	134.3522598744712	
19.0	111.75517868090446	rating	2.0		294	19.0	male	white	2.243931555909272	smiling	130	sub-13	1.0	2.0	130_smiling	1.0	dominance	134.81044571444454	2.4999455153715644
19.0	111.99697451839938	pulse	2.0	t		19.0	male	white	2.243931555909272	smiling	130	sub-13	1.0	2.0	130_smiling	1.0	dominance	135.05224155193946	
19.0	112.69695468659847	pulse	2.0	t		19.0	male	white	2.243931555909272	smiling	130	sub-13	1.0	2.0	130_smiling	1.0	dominance	135.75222172013855	
19.0	112.89693802426336	response	2.0	d		19.0	male	white	2.243931555909272	smiling	130	sub-13	1.0	2.0	130_smiling	1.0	dominance	135.95220505780344	
19.0	113.39690738609306	pulse	2.0	t		19.0	male	white	2.243931555909272	smiling	130	sub-13	1.0	2.0	130_smiling	1.0	dominance	136.45217441963314	
19.0	114.09691532485067	pulse	2.0	t		19.0	male	white	2.243931555909272	smiling	130	sub-13	1.0	2.0	130_smiling	1.0	dominance	137.15218235839075	
19.0	114.25512419627603	fix	3.0		444	19.0	male	white	2.243931555909272	smiling	130	sub-13	1.0	2.0	130_smiling	1.0	dominance	137.3103912298161	3.7665627987412336
19.0	114.79689820973454	pulse	3.0	t		19.0	male	white	2.243931555909272	smiling	130	sub-13	1.0	2.0	130_smiling	1.0	dominance	137.8521652432746	
19.0	115.49687173714801	pulse	3.0	t		19.0	male	white	2.243931555909272	smiling	130	sub-13	1.0	2.0	130_smiling	1.0	dominance	138.5521387706881	
19.0	116.19685733871711	pulse	3.0	t		19.0	male	white	2.243931555909272	smiling	130	sub-13	1.0	2.0	130_smiling	1.0	dominance	139.25212437225719	
19.0	116.89684686438704	pulse	3.0	t		19.0	male	white	2.243931555909272	smiling	130	sub-13	1.0	2.0	130_smiling	1.0	dominance	139.95211389792712	
19.0	117.59681827882287	pulse	3.0	t		19.0	male	white	2.243931555909272	smiling	130	sub-13	1.0	2.0	130_smiling	1.0	dominance	140.65208531236294	
20.0	118.02168699501726	face	0.0		145	28.0	male	east_asian	1.5563072025467568	neutral	005	sub-13	1.0	2.0	005_neutral	0.0		141.07695402855734	1.233336985765618
20.0	118.29679784331438	pulse	0.0	t		28.0	male	east_asian	1.5563072025467568	neutral	005	sub-13	1.0	2.0	005_neutral	0.0		141.35206487685446	
20.0	118.99679974499395	pulse	0.0	t		28.0	male	east_asian	1.5563072025467568	neutral	005	sub-13	1.0	2.0	005_neutral	0.0		142.05206677853403	
20.0	119.25502398078288	fix	1.0		1185	28.0	male	east_asian	1.5563072025467568	neutral	005	sub-13	1.0	2.0	005_neutral	0.0		142.31029101432296	10.01639911846587
20.0	119.6967747816766	pulse	1.0	t		28.0	male	east_asian	1.5563072025467568	neutral	005	sub-13	1.0	2.0	005_neutral	0.0		142.75204181521667	
20.0	120.39675887397607	pulse	1.0	t		28.0	male	east_asian	1.5563072025467568	neutral	005	sub-13	1.0	2.0	005_neutral	0.0		143.45202590751614	
20.0	121.09673934402917	pulse	1.0	t		28.0	male	east_asian	1.5563072025467568	neutral	005	sub-13	1.0	2.0	005_neutral	0.0		144.15200637756925	
20.0	121.7967255493063	pulse	1.0	t		28.0	male	east_asian	1.5563072025467568	neutral	005	sub-13	1.0	2.0	005_neutral	0.0		144.85199258284638	
20.0	122.496722923177	pulse	1.0	t		28.0	male	east_asian	1.5563072025467568	neutral	005	sub-13	1.0	2.0	005_neutral	0.0		145.55198995671708	
20.0	123.19669494132086	pulse	1.0	t		28.0	male	east_asian	1.5563072025467568	neutral	005	sub-13	1.0	2.0	005_neutral	0.0		146.25196197486093	
20.0	123.89666997800396	pulse	1.0	t		28.0	male	east_asian	1.5563072025467568	neutral	005	sub-13	1.0	2.0	005_neutral	0.0		146.95193701154403	
20.0	124.5966640314823	pulse	1.0	t		28.0	male	east_asian	1.5563072025467568	neutral	005	sub-13	1.0	2.0	005_neutral	0.0		147.65193106502238	
20.0	125.30497506535903	pulse	1.0	t		28.0	male	east_asian	1.5563072025467568	neutral	005	sub-13	1.0	2.0	005_neutral	0.0		148.3602420988991	
20.0	125.99664398838331	pulse	1.0	t		28.0	male	east_asian	1.5563072025467568	neutral	005	sub-13	1.0	2.0	005_neutral	0.0		149.0519110219234	
20.0	126.69661298798837	pulse	1.0	t		28.0	male	east_asian	1.5563072025467568	neutral	005	sub-13	1.0	2.0	005_neutral	0.0		149.75188002152845	
20.0	127.39659375989504	pulse	1.0	t		28.0	male	east_asian	1.5563072025467568	neutral	005	sub-13	1.0	2.0	005_neutral	0.0		150.45186079343512	
20.0	128.0965847948346	pulse	1.0	t		28.0	male	east_asian	1.5563072025467568	neutral	005	sub-13	1.0	2.0	005_neutral	0.0		151.15185182837467	
20.0	128.80490126208133	pulse	1.0	t		28.0	male	east_asian	1.5563072025467568	neutral	005	sub-13	1.0	2.0	005_neutral	0.0		151.8601682956214	
21.0	129.27142309924875	face	0.0		145	21.0	male	black	2.969757262236371	neutral	137	sub-13	1.0	2.0	137_neutral	0.0		152.32669013278883	1.2333255153171194
21.0	129.49655056460279	pulse	0.0	t		21.0	male	black	2.969757262236371	neutral	137	sub-13	1.0	2.0	137_neutral	0.0		152.55181759814286	
21.0	130.19654009027226	pulse	0.0	t		21.0	male	black	2.969757262236371	neutral	137	sub-13	1.0	2.0	137_neutral	0.0		153.25180712381234	
21.0	130.50474861456587	fix	1.0		444	21.0	male	black	2.969757262236371	neutral	137	sub-13	1.0	2.0	137_neutral	0.0		153.56001564810595	3.7665718543580624
21.0	130.89652146588696	pulse	1.0	t		21.0	male	black	2.969757262236371	neutral	137	sub-13	1.0	2.0	137_neutral	0.0		153.95178849942704	
21.0	131.60483431088733	pulse	1.0	t		21.0	male	black	2.969757262236371	neutral	137	sub-13	1.0	2.0	137_neutral	0.0		154.6601013444274	
21.0	132.304815384648	pulse	1.0	t		21.0	male	black	2.969757262236371	neutral	137	sub-13	1.0	2.0	137_neutral	0.0		155.36008241818809	
21.0	133.00479404357748	pulse	1.0	t		21.0	male	black	2.969757262236371	neutral	137	sub-13	1.0	2.0	137_neutral	0.0		156.06006107711755	
21.0	133.70478598407817	pulse	1.0	t		21.0	male	black	2.969757262236371	neutral	137	sub-13	1.0	2.0	137_neutral	0.0		156.76005301761825	
22.0	134.27132046892393	face	0.0		145	31.0	male	west_asian	1.9538400318344609	neutral	070	sub-13	1.0	2.0	070_neutral	0.0		157.326587502464	1.2333170634083217
22.0	134.3964461533401	pulse	0.0	t		31.0	male	west_asian	1.9538400318344609	neutral	070	sub-13	1.0	2.0	070_neutral	0.0		157.45171318688017	
22.0	135.10475899834	pulse	0.0	t		31.0	male	west_asian	1.9538400318344609	neutral	070	sub-13	1.0	2.0	070_neutral	0.0		158.16002603188008	
22.0	135.50463753233225	fix	1.0		444	31.0	male	west_asian	1.9538400318344609	neutral	070	sub-13	1.0	2.0	070_neutral	0.0		158.55990456587233	3.7581857494174074
22.0	135.80474429805554	pulse	1.0	t		31.0	male	west_asian	1.9538400318344609	neutral	070	sub-13	1.0	2.0	070_neutral	0.0		158.86001133159562	
22.0	136.5047247681082	pulse	1.0	t		31.0	male	west_asian	1.9538400318344609	neutral	070	sub-13	1.0	2.0	070_neutral	0.0		159.55999180164827	
22.0	137.2047103696773	pulse	1.0	t		31.0	male	west_asian	1.9538400318344609	neutral	070	sub-13	1.0	2.0	070_neutral	0.0		160.25997740321736	
22.0	137.9047192139965	pulse	1.0	t		31.0	male	west_asian	1.9538400318344609	neutral	070	sub-13	1.0	2.0	070_neutral	0.0		160.95998624753656	
22.0	138.6046758375919	pulse	1.0	t		31.0	male	west_asian	1.9538400318344609	neutral	070	sub-13	1.0	2.0	070_neutral	0.0		161.659942871132	
23.0	139.26282328174966	face	0.0		146	22.0	female	white	4.614007162753682	smiling	009	sub-13	1.0	2.0	009_smiling	0.0		162.31809031528974	1.2416968294169237
23.0	139.3046632502842	pulse	0.0	t		22.0	female	white	4.614007162753682	smiling	009	sub-13	1.0	2.0	009_smiling	0.0		162.35993028382427	
23.0	140.00464221106768	pulse	0.0	t		22.0	female	white	4.614007162753682	smiling	009	sub-13	1.0	2.0	009_smiling	0.0		163.05990924460775	
23.0	140.50452011116658	fix	1.0		443	22.0	female	white	4.614007162753682	smiling	009	sub-13	1.0	2.0	009_smiling	0.0		163.55978714470666	3.76656340244881
23.0	140.70462630336715	pulse	1.0	t		22.0	female	white	4.614007162753682	smiling	009	sub-13	1.0	2.0	009_smiling	0.0		163.75989333690723	
23.0	141.4046119049367	pulse	1.0	t		22.0	female	white	4.614007162753682	smiling	009	sub-13	1.0	2.0	009_smiling	0.0		164.45987893847678	
23.0	142.10461350476226	pulse	1.0	t		22.0	female	white	4.614007162753682	smiling	009	sub-13	1.0	2.0	009_smiling	0.0		165.15988053830233	
23.0	142.80456499684124	pulse	1.0	t		22.0	female	white	4.614007162753682	smiling	009	sub-13	1.0	2.0	009_smiling	0.0		165.8598320303813	
23.0	143.50456237071194	pulse	1.0	t		22.0	female	white	4.614007162753682	smiling	009	sub-13	1.0	2.0	009_smiling	0.0		166.559829404252	
23.0	144.20454042593383	pulse	1.0	t		22.0	female	white	4.614007162753682	smiling	009	sub-13	1.0	2.0	009_smiling	0.0		167.2598074594739	
24.0	144.2710835136154	face	0.0		146	40.0	female	west_asian	1.5777954635893354	neutral	038	sub-13	1.0	2.0	038_neutral	0.0		167.32635054715547	1.2333182708239292
24.0	144.90453357385059	pulse	0.0	t		40.0	female	west_asian	1.5777954635893354	neutral	038	sub-13	1.0	2.0	038_neutral	0.0		167.95980060739066	
24.0	145.50440178443932	fix	1.0		443	40.0	female	west_asian	1.5777954635893354	neutral	038	sub-13	1.0	2.0	038_neutral	0.0		168.5596688179794	3.766566420988056
24.0	145.60451917541968	pulse	1.0	t		40.0	female	west_asian	1.5777954635893354	neutral	038	sub-13	1.0	2.0	038_neutral	0.0		168.65978620895976	
24.0	146.30448485463148	pulse	1.0	t		40.0	female	west_asian	1.5777954635893354	neutral	038	sub-13	1.0	2.0	038_neutral	0.0		169.35975188817156	
24.0	147.00446804136982	pulse	1.0	t		40.0	female	west_asian	1.5777954635893354	neutral	038	sub-13	1.0	2.0	038_neutral	0.0		170.0597350749099	
24.0	147.70444700215285	pulse	1.0	t		40.0	female	west_asian	1.5777954635893354	neutral	038	sub-13	1.0	2.0	038_neutral	0.0		170.75971403569292	
24.0	148.40444648900166	pulse	1.0	t		40.0	female	west_asian	1.5777954635893354	neutral	038	sub-13	1.0	2.0	038_neutral	0.0		171.45971352254173	
24.0	149.10442544978469	pulse	1.0	t		40.0	female	west_asian	1.5777954635893354	neutral	038	sub-13	1.0	2.0	038_neutral	0.0		172.15969248332476	
25.0	149.27096820542738	face	0.0		146	27.0	female	white	4.181058495821727	neutral	039	sub-13	1.0	2.0	039_neutral	0.0		172.32623523896746	1.2333179689699136
25.0	149.8044059198378	pulse	0.0	t		27.0	female	white	4.181058495821727	neutral	039	sub-13	1.0	2.0	039_neutral	0.0		172.85967295337787	
25.0	150.5042861743973	fix	1.0		444	27.0	female	white	4.181058495821727	neutral	039	sub-13	1.0	2.0	039_neutral	0.0		173.55955320793737	3.766550422731143
25.0	150.51176913248082	pulse	1.0	t		27.0	female	white	4.181058495821727	neutral	039	sub-13	1.0	2.0	039_neutral	0.0		173.5670361660209	
25.0	151.20436897292075	pulse	1.0	t		27.0	female	white	4.181058495821727	neutral	039	sub-13	1.0	2.0	039_neutral	0.0		174.25963600646082	
25.0	151.90441886937015	pulse	1.0	t		27.0	female	white	4.181058495821727	neutral	039	sub-13	1.0	2.0	039_neutral	0.0		174.95968590291022	
25.0	152.6043486279682	pulse	1.0	t		27.0	female	white	4.181058495821727	neutral	039	sub-13	1.0	2.0	039_neutral	0.0		175.65961566150827	
25.0	153.30431883498886	pulse	1.0	t		27.0	female	white	4.181058495821727	neutral	039	sub-13	1.0	2.0	039_neutral	0.0		176.35958586852894	
25.0	154.00428360863907	pulse	1.0	t		27.0	female	white	4.181058495821727	neutral	039	sub-13	1.0	2.0	039_neutral	0.0		177.05955064217915	
26.0	154.27083659712844	face	0.0		145	19.0	male	white	2.243931555909272	neutral	130	sub-13	1.0	2.0	130_neutral	0.0		177.3261036306685	1.233332156103188
26.0	154.70428913256546	pulse	0.0	t		19.0	male	white	2.243931555909272	neutral	130	sub-13	1.0	2.0	130_neutral	0.0		177.75955616610554	
26.0	155.4042859027286	pulse	0.0	t		19.0	male	white	2.243931555909272	neutral	130	sub-13	1.0	2.0	130_neutral	0.0		178.45955293626866	
26.0	155.50416875323162	fix	1.0		444	19.0	male	white	2.243931555909272	neutral	130	sub-13	1.0	2.0	130_neutral	0.0		178.5594357867717	3.7665356318902923
26.0	156.10425852458047	pulse	1.0	t		19.0	male	white	2.243931555909272	neutral	130	sub-13	1.0	2.0	130_neutral	0.0		179.15952555812055	
26.0	156.8042510687892	pulse	1.0	t		19.0	male	white	2.243931555909272	neutral	130	sub-13	1.0	2.0	130_neutral	0.0		179.85951810232928	
26.0	157.49616479532324	pulse	1.0	t		19.0	male	white	2.243931555909272	neutral	130	sub-13	1.0	2.0	130_neutral	0.0		180.55143182886331	
26.0	158.20421019777177	pulse	1.0	t		19.0	male	white	2.243931555909272	neutral	130	sub-13	1.0	2.0	130_neutral	0.0		181.25947723131185	
26.0	158.90419911973368	pulse	1.0	t		19.0	male	white	2.243931555909272	neutral	130	sub-13	1.0	2.0	130_neutral	0.0		181.95946615327375	
27.0	159.27070438512192	face	0.0		145	40.0	male	black	2.408674890569041	neutral	061	sub-13	1.0	2.0	061_neutral	0.0		182.325971418662	1.2333324579572036
27.0	159.60417777866314	pulse	0.0	t		40.0	male	black	2.408674890569041	neutral	061	sub-13	1.0	2.0	061_neutral	0.0		182.65944481220322	
27.0	160.30416277652466	pulse	0.0	t		40.0	male	black	2.408674890569041	neutral	061	sub-13	1.0	2.0	061_neutral	0.0		183.35942981006474	
27.0	160.50403684307912	fix	1.0		444	40.0	male	black	2.408674890569041	neutral	061	sub-13	1.0	2.0	061_neutral	0.0		183.5593038766192	3.7665452912151522
27.0	160.9960921994616	pulse	1.0	t		40.0	male	black	2.408674890569041	neutral	061	sub-13	1.0	2.0	061_neutral	0.0		184.05135923300168	
27.0	161.70413186668566	pulse	1.0	t		40.0	male	black	2.408674890569041	neutral	061	sub-13	1.0	2.0	061_neutral	0.0		184.75939890022573	
27.0	162.39610656770674	pulse	1.0	t		40.0	male	black	2.408674890569041	neutral	061	sub-13	1.0	2.0	061_neutral	0.0		185.45137360124681	
27.0	163.0960215354644	pulse	1.0	t		40.0	male	black	2.408674890569041	neutral	061	sub-13	1.0	2.0	061_neutral	0.0		186.15128856900446	
27.0	163.79602283343593	pulse	1.0	t		40.0	male	black	2.408674890569041	neutral	061	sub-13	1.0	2.0	061_neutral	0.0		186.851289866976	
28.0	164.27058213429427	face	0.0		145	22.0	female	west_asian	3.8205332272184642	neutral	066	sub-13	1.0	2.0	066_neutral	0.0		187.32584916783435	1.2333327598107644
28.0	164.50407548037765	pulse	0.0	t		22.0	female	west_asian	3.8205332272184642	neutral	066	sub-13	1.0	2.0	066_neutral	0.0		187.55934251391773	
28.0	165.2040402540283	pulse	0.0	t		22.0	female	west_asian	3.8205332272184642	neutral	066	sub-13	1.0	2.0	066_neutral	0.0		188.2593072875684	
28.0	165.50391489410504	fix	1.0		444	22.0	female	west_asian	3.8205332272184642	neutral	066	sub-13	1.0	2.0	066_neutral	0.0		188.5591819276451	3.7665721562116232
28.0	165.89601465319538	pulse	1.0	t		22.0	female	west_asian	3.8205332272184642	neutral	066	sub-13	1.0	2.0	066_neutral	0.0		188.95128168673546	
28.0	166.5959468266251	pulse	1.0	t		22.0	female	west_asian	3.8205332272184642	neutral	066	sub-13	1.0	2.0	066_neutral	0.0		189.65121386016517	
28.0	167.30400430322925	pulse	1.0	t		22.0	female	west_asian	3.8205332272184642	neutral	066	sub-13	1.0	2.0	066_neutral	0.0		190.35927133676932	
28.0	167.99592195386413	pulse	1.0	t		22.0	female	west_asian	3.8205332272184642	neutral	066	sub-13	1.0	2.0	066_neutral	0.0		191.0511889874042	
28.0	168.69590846099481	pulse	1.0	t		22.0	female	west_asian	3.8205332272184642	neutral	066	sub-13	1.0	2.0	066_neutral	0.0		191.7511754945349	
29.0	169.27048705031666	face	0.0		145	21.0	male	east_asian/white	3.501790688420215	smiling	036	sub-13	1.0	2.0	036_smiling	0.0		192.32575408385674	1.2333315523956117
29.0	169.39583610661612	pulse	0.0	t		21.0	male	east_asian/white	3.501790688420215	smiling	036	sub-13	1.0	2.0	036_smiling	0.0		192.4511031401562	
29.0	170.1039530484377	pulse	0.0	t		21.0	male	east_asian/white	3.501790688420215	smiling	036	sub-13	1.0	2.0	036_smiling	0.0		193.15922008197776	
29.0	170.50381860271227	fix	1.0		444	21.0	male	east_asian/white	3.501790688420215	smiling	036	sub-13	1.0	2.0	036_smiling	0.0		193.55908563625235	3.7665477060463672
29.0	170.8039223498963	pulse	1.0	t		21.0	male	east_asian/white	3.501790688420215	smiling	036	sub-13	1.0	2.0	036_smiling	0.0		193.8591893834364	
29.0	171.49583969867717	pulse	1.0	t		21.0	male	east_asian/white	3.501790688420215	smiling	036	sub-13	1.0	2.0	036_smiling	0.0		194.55110673221725	
29.0	172.19583194103234	pulse	1.0	t		21.0	male	east_asian/white	3.501790688420215	smiling	036	sub-13	1.0	2.0	036_smiling	0.0		195.25109897457241	
29.0	172.89574419210476	pulse	1.0	t		21.0	male	east_asian/white	3.501790688420215	smiling	036	sub-13	1.0	2.0	036_smiling	0.0		195.95101122564483	
29.0	173.59570745648534	pulse	1.0	t		21.0	male	east_asian/white	3.501790688420215	smiling	036	sub-13	1.0	2.0	036_smiling	0.0		196.65097449002542	
30.0	174.27036630875864	face	0.0		145	22.0	female	white	4.614007162753682	neutral	009	sub-13	1.0	2.0	009_neutral	0.0		197.32563334229872	1.2333375894731944
30.0	174.29568520985322	pulse	0.0	t		22.0	female	white	4.614007162753682	neutral	009	sub-13	1.0	2.0	009_neutral	0.0		197.3509522433933	
30.0	175.0038211684705	pulse	0.0	t		22.0	female	white	4.614007162753682	neutral	009	sub-13	1.0	2.0	009_neutral	0.0		198.05908820201057	
30.0	175.50370389823183	fix	1.0		443	22.0	female	white	4.614007162753682	neutral	009	sub-13	1.0	2.0	009_neutral	0.0		198.5589709317719	3.766560987617595
30.0	175.69569867253722	pulse	1.0	t		22.0	female	white	4.614007162753682	neutral	009	sub-13	1.0	2.0	009_neutral	0.0		198.7509657060773	
30.0	176.39577090617422	pulse	1.0	t		22.0	female	white	4.614007162753682	neutral	009	sub-13	1.0	2.0	009_neutral	0.0		199.4510379397143	
30.0	177.09565478298055	pulse	1.0	t		22.0	female	white	4.614007162753682	neutral	009	sub-13	1.0	2.0	009_neutral	0.0		200.15092181652062	
30.0	177.7956805311178	pulse	1.0	t		22.0	female	white	4.614007162753682	neutral	009	sub-13	1.0	2.0	009_neutral	0.0		200.85094756465787	
30.0	178.49561874162555	pulse	1.0	t		22.0	female	white	4.614007162753682	neutral	009	sub-13	1.0	2.0	009_neutral	0.0		201.55088577516563	
30.0	179.19561007841867	pulse	1.0	t		22.0	female	white	4.614007162753682	neutral	009	sub-13	1.0	2.0	009_neutral	0.0		202.25087711195874	
31.0	179.27026488584943	face	0.0		146	40.0	female	west_asian	1.5777954635893354	smiling	038	sub-13	1.0	2.0	038_smiling	0.0		202.3255319193895	1.2333040836906548
31.0	179.89558994476374	pulse	0.0	t		40.0	female	west_asian	1.5777954635893354	smiling	038	sub-13	1.0	2.0	038_smiling	0.0		202.95085697830382	
31.0	180.50356896954008	fix	1.0		443	40.0	female	west_asian	1.5777954635893354	smiling	038	sub-13	1.0	2.0	038_smiling	0.0		203.55883600308016	3.766582721098075
31.0	180.5956389356511	pulse	1.0	t		40.0	female	west_asian	1.5777954635893354	smiling	038	sub-13	1.0	2.0	038_smiling	0.0		203.65090596919117	
31.0	181.295578353574	pulse	1.0	t		40.0	female	west_asian	1.5777954635893354	smiling	038	sub-13	1.0	2.0	038_smiling	0.0		204.35084538711408	
31.0	181.99553075121457	pulse	1.0	t		40.0	female	west_asian	1.5777954635893354	smiling	038	sub-13	1.0	2.0	038_smiling	0.0		205.05079778475465	
31.0	182.69558819401118	pulse	1.0	t		40.0	female	west_asian	1.5777954635893354	smiling	038	sub-13	1.0	2.0	038_smiling	0.0		205.75085522755126	
31.0	183.3955013506452	pulse	1.0	t		40.0	female	west_asian	1.5777954635893354	smiling	038	sub-13	1.0	2.0	038_smiling	0.0		206.45076838418527	
31.0	184.09547578362026	pulse	1.0	t		40.0	female	west_asian	1.5777954635893354	smiling	038	sub-13	1.0	2.0	038_smiling	0.0		207.15074281716034	
32.0	184.27015169063816	face	0.0		146	21.0	male	black	2.969757262236371	smiling	137	sub-13	1.0	2.0	137_smiling	1.0	trustworthiness	207.32541872417823	1.2333224967787828
32.0	184.7953989014327	pulse	0.0	t		21.0	male	black	2.969757262236371	smiling	137	sub-13	1.0	2.0	137_smiling	1.0	trustworthiness	207.85066593497277	
32.0	185.50347418741694	fix	1.0		177	21.0	male	black	2.969757262236371	smiling	137	sub-13	1.0	2.0	137_smiling	1.0	trustworthiness	208.55874122095702	1.4999539672808169
32.0	185.49549649079745	pulse	1.0	t		21.0	male	black	2.969757262236371	smiling	137	sub-13	1.0	2.0	137_smiling	1.0	trustworthiness	208.55076352433753	
32.0	186.19552163522712	pulse	1.0	t		21.0	male	black	2.969757262236371	smiling	137	sub-13	1.0	2.0	137_smiling	1.0	trustworthiness	209.2507886687672	
32.0	186.89546497725087	pulse	1.0	t		21.0	male	black	2.969757262236371	smiling	137	sub-13	1.0	2.0	137_smiling	1.0	trustworthiness	209.95073201079094	
32.0	187.00342815469776	rating	2.0		295	21.0	male	black	2.969757262236371	smiling	137	sub-13	1.0	2.0	137_smiling	1.0	trustworthiness	210.05869518823783	2.499944911663988
32.0	187.59836226150128	pulse	2.0	t		21.0	male	black	2.969757262236371	smiling	137	sub-13	1.0	2.0	137_smiling	1.0	trustworthiness	210.65362929504136	
32.0	188.29833307222952	pulse	2.0	t		21.0	male	black	2.969757262236371	smiling	137	sub-13	1.0	2.0	137_smiling	1.0	trustworthiness	211.3536001057696	
32.0	188.32339720863638	response	2.0	g		21.0	male	black	2.969757262236371	smiling	137	sub-13	1.0	2.0	137_smiling	1.0	trustworthiness	211.37866424217646	
32.0	188.99536835381878	pulse	2.0	t		21.0	male	black	2.969757262236371	smiling	137	sub-13	1.0	2.0	137_smiling	1.0	trustworthiness	212.05063538735885	
32.0	189.50337306636175	fix	3.0		443	21.0	male	black	2.969757262236371	smiling	137	sub-13	1.0	2.0	137_smiling	1.0	trustworthiness	212.55864009990182	3.7665468004843206
32.0	189.69535093684863	pulse	3.0	t		21.0	male	black	2.969757262236371	smiling	137	sub-13	1.0	2.0	137_smiling	1.0	trustworthiness	212.7506179703887	
32.0	190.39539238138877	pulse	3.0	t		21.0	male	black	2.969757262236371	smiling	137	sub-13	1.0	2.0	137_smiling	1.0	trustworthiness	213.45065941492885	
32.0	191.09516910006187	pulse	3.0	t		21.0	male	black	2.969757262236371	smiling	137	sub-13	1.0	2.0	137_smiling	1.0	trustworthiness	214.15043613360194	
32.0	191.79516013500097	pulse	3.0	t		21.0	male	black	2.969757262236371	smiling	137	sub-13	1.0	2.0	137_smiling	1.0	trustworthiness	214.85042716854105	
32.0	192.49528217453144	pulse	3.0	t		21.0	male	black	2.969757262236371	smiling	137	sub-13	1.0	2.0	137_smiling	1.0	trustworthiness	215.55054920807152	
32.0	193.1951165472983	pulse	3.0	t		21.0	male	black	2.969757262236371	smiling	137	sub-13	1.0	2.0	137_smiling	1.0	trustworthiness	216.2503835808384	
33.0	193.26991986684607	face	0.0		146	28.0	male	east_asian	1.5563072025467568	smiling	005	sub-13	1.0	2.0	005_smiling	0.0		216.32518690038614	1.2333203838011286
33.0	193.89517851790333	pulse	0.0	t		28.0	male	east_asian	1.5563072025467568	smiling	005	sub-13	1.0	2.0	005_smiling	0.0		216.9504455514434	
33.0	194.5032402506472	fix	1.0		443	28.0	male	east_asian	1.5563072025467568	smiling	005	sub-13	1.0	2.0	005_smiling	0.0		217.55850728418727	3.766564911718433
33.0	194.5952350551379	pulse	1.0	t		28.0	male	east_asian	1.5563072025467568	smiling	005	sub-13	1.0	2.0	005_smiling	0.0		217.65050208867797	
33.0	195.29525295507392	pulse	1.0	t		28.0	male	east_asian	1.5563072025467568	smiling	005	sub-13	1.0	2.0	005_smiling	0.0		218.350519988614	
33.0	195.9952011267601	pulse	1.0	t		28.0	male	east_asian	1.5563072025467568	smiling	005	sub-13	1.0	2.0	005_smiling	0.0		219.05046816030017	
33.0	196.69520423585527	pulse	1.0	t		28.0	male	east_asian	1.5563072025467568	smiling	005	sub-13	1.0	2.0	005_smiling	0.0		219.75047126939535	
33.0	197.39502321407372	pulse	1.0	t		28.0	male	east_asian	1.5563072025467568	smiling	005	sub-13	1.0	2.0	005_smiling	0.0		220.4502902476138	
33.0	198.09500609895804	pulse	1.0	t		28.0	male	east_asian	1.5563072025467568	smiling	005	sub-13	1.0	2.0	005_smiling	0.0		221.1502731324981	
34.0	198.26980516236563	face	0.0		146	19.0	female	white	4.298846000795861	smiling	100	sub-13	1.0	2.0	100_smiling	0.0		221.3250721959057	1.2416497402095956
34.0	198.79512662921843	pulse	0.0	t		19.0	female	white	4.298846000795861	smiling	100	sub-13	1.0	2.0	100_smiling	0.0		221.8503936627585	
34.0	199.4949712650182	pulse	0.0	t		19.0	female	white	4.298846000795861	smiling	100	sub-13	1.0	2.0	100_smiling	0.0		222.55023829855827	
34.0	199.51145490257522	fix	1.0		443	19.0	female	white	4.298846000795861	smiling	100	sub-13	1.0	2.0	100_smiling	0.0		222.5667219361153	3.7582334423327666
34.0	200.1951065861199	pulse	1.0	t		19.0	female	white	4.298846000795861	smiling	100	sub-13	1.0	2.0	100_smiling	0.0		223.25037361965997	
34.0	200.8949406570332	pulse	1.0	t		19.0	female	white	4.298846000795861	smiling	100	sub-13	1.0	2.0	100_smiling	0.0		223.95020769057328	
34.0	201.5950672243721	pulse	1.0	t		19.0	female	white	4.298846000795861	smiling	100	sub-13	1.0	2.0	100_smiling	0.0		224.65033425791216	
34.0	202.295105650373	pulse	1.0	t		19.0	female	white	4.298846000795861	smiling	100	sub-13	1.0	2.0	100_smiling	0.0		225.35037268391306	
34.0	202.99506317952955	pulse	1.0	t		19.0	female	white	4.298846000795861	smiling	100	sub-13	1.0	2.0	100_smiling	0.0		226.05033021306963	
35.0	203.269688344908	face	0.0		145	36.0	female	white	2.7548746518105847	neutral	011	sub-13	1.0	2.0	011_neutral	0.0		226.32495537844807	1.233332156103188
35.0	203.69486283909873	pulse	0.0	t		36.0	female	white	2.7548746518105847	neutral	011	sub-13	1.0	2.0	011_neutral	0.0		226.7501298726388	
35.0	204.39483364982698	pulse	0.0	t		36.0	female	white	2.7548746518105847	neutral	011	sub-13	1.0	2.0	011_neutral	0.0		227.45010068336705	
35.0	204.50302050101118	fix	1.0		444	36.0	female	white	2.7548746518105847	neutral	011	sub-13	1.0	2.0	011_neutral	0.0		227.55828753455125	3.766551328292735
35.0	205.09498647845476	pulse	1.0	t		36.0	female	white	2.7548746518105847	neutral	011	sub-13	1.0	2.0	011_neutral	0.0		228.15025351199483	
35.0	205.79479217510197	pulse	1.0	t		36.0	female	white	2.7548746518105847	neutral	011	sub-13	1.0	2.0	011_neutral	0.0		228.85005920864205	
35.0	206.4949229683948	pulse	1.0	t		36.0	female	white	2.7548746518105847	neutral	011	sub-13	1.0	2.0	011_neutral	0.0		229.55019000193488	
35.0	207.19482918238964	pulse	1.0	t		36.0	female	white	2.7548746518105847	neutral	011	sub-13	1.0	2.0	011_neutral	0.0		230.25009621592972	
35.0	207.89471849256552	pulse	1.0	t		36.0	female	white	2.7548746518105847	neutral	011	sub-13	1.0	2.0	011_neutral	0.0		230.9499855261056	
36.0	208.2695718293039	face	0.0		145	40.0	male	white	1.868682849184242	smiling	172	sub-13	1.0	2.0	172_smiling	1.0	attractiveness	231.324838862844	1.2333324579572036
36.0	208.59471496087508	pulse	0.0	t		40.0	male	white	1.868682849184242	smiling	172	sub-13	1.0	2.0	172_smiling	1.0	attractiveness	231.64998199441516	
36.0	209.2946975439054	pulse	0.0	t		40.0	male	white	1.868682849184242	smiling	172	sub-13	1.0	2.0	172_smiling	1.0	attractiveness	232.34996457744546	
36.0	209.50290428726112	fix	1.0		177	40.0	male	white	1.868682849184242	smiling	172	sub-13	1.0	2.0	172_smiling	1.0	attractiveness	232.5581713208012	1.4999533635727857
36.0	209.99467922137364	pulse	1.0	t		40.0	male	white	1.868682849184242	smiling	172	sub-13	1.0	2.0	172_smiling	1.0	attractiveness	233.04994625491372	
36.0	210.6946500321019	pulse	1.0	t		40.0	male	white	1.868682849184242	smiling	172	sub-13	1.0	2.0	172_smiling	1.0	attractiveness	233.74991706564197	
36.0	211.0028576508339	rating	2.0		295	40.0	male	white	1.868682849184242	smiling	172	sub-13	1.0	2.0	172_smiling	1.0	attractiveness	234.05812468437398	2.5082860403745144
36.0	211.39466068754473	pulse	2.0	t		40.0	male	white	1.868682849184242	smiling	172	sub-13	1.0	2.0	172_smiling	1.0	attractiveness	234.4499277210848	
36.0	212.0946185185553	pulse	2.0	t		40.0	male	white	1.868682849184242	smiling	172	sub-13	1.0	2.0	172_smiling	1.0	attractiveness	235.14988555209538	
36.0	212.42793253323953	response	2.0	n		40.0	male	white	1.868682849184242	smiling	172	sub-13	1.0	2.0	172_smiling	1.0	attractiveness	235.4831995667796	
36.0	212.79458751816037	pulse	2.0	t		40.0	male	white	1.868682849184242	smiling	172	sub-13	1.0	2.0	172_smiling	1.0	attractiveness	235.84985455170045	
36.0	213.4945854957391	pulse	2.0	t		40.0	male	white	1.868682849184242	smiling	172	sub-13	1.0	2.0	172_smiling	1.0	attractiveness	236.54985252927918	
36.0	213.51114369120842	fix	3.0		443	40.0	male	white	1.868682849184242	smiling	172	sub-13	1.0	2.0	172_smiling	1.0	attractiveness	236.5664107247485	3.758231631209128
36.0	214.19456626764577	pulse	3.0	t		40.0	male	white	1.868682849184242	smiling	172	sub-13	1.0	2.0	172_smiling	1.0	attractiveness	237.24983330118584	
36.0	214.89456152853973	pulse	3.0	t		40.0	male	white	1.868682849184242	smiling	172	sub-13	1.0	2.0	172_smiling	1.0	attractiveness	237.9498285620798	
36.0	215.5945317355604	pulse	3.0	t		40.0	male	white	1.868682849184242	smiling	172	sub-13	1.0	2.0	172_smiling	1.0	attractiveness	238.64979876910047	
36.0	216.2945269964539	pulse	3.0	t		40.0	male	white	1.868682849184242	smiling	172	sub-13	1.0	2.0	172_smiling	1.0	attractiveness	239.34979402999397	
36.0	216.99449720347457	pulse	3.0	t		40.0	male	white	1.868682849184242	smiling	172	sub-13	1.0	2.0	172_smiling	1.0	attractiveness	240.04976423701464	
37.0	217.26937532241755	face	0.0		145	24.0	female	east_asian	2.9076800636689217	neutral	034	sub-13	1.0	2.0	034_neutral	0.0		240.32464235595762	1.2333170634083217
37.0	217.69449276622208	pulse	0.0	t		24.0	female	east_asian	2.9076800636689217	neutral	034	sub-13	1.0	2.0	034_neutral	0.0		240.74975979976216	
37.0	218.3944988938565	pulse	0.0	t		24.0	female	east_asian	2.9076800636689217	neutral	034	sub-13	1.0	2.0	034_neutral	0.0		241.44976592739658	
37.0	218.50269238582587	fix	1.0		444	24.0	female	east_asian	2.9076800636689217	neutral	034	sub-13	1.0	2.0	034_neutral	0.0		241.55795941936594	3.76656823211124
37.0	219.09444857481185	pulse	1.0	t		24.0	female	east_asian	2.9076800636689217	neutral	034	sub-13	1.0	2.0	034_neutral	0.0		242.14971560835193	
37.0	219.79442783744935	pulse	1.0	t		24.0	female	east_asian	2.9076800636689217	neutral	034	sub-13	1.0	2.0	034_neutral	0.0		242.84969487098942	
37.0	220.49442883356687	pulse	1.0	t		24.0	female	east_asian	2.9076800636689217	neutral	034	sub-13	1.0	2.0	034_neutral	0.0		243.54969586710695	
37.0	221.19441654811362	pulse	1.0	t		24.0	female	east_asian	2.9076800636689217	neutral	034	sub-13	1.0	2.0	034_neutral	0.0		244.2496835816537	
37.0	221.89438343474103	pulse	1.0	t		24.0	female	east_asian	2.9076800636689217	neutral	034	sub-13	1.0	2.0	034_neutral	0.0		244.9496504682811	
38.0	222.2692606179371	face	0.0		145	26.0	male	white	2.7966573816155993	neutral	117	sub-13	1.0	2.0	117_neutral	0.0		245.32452765147718	1.2333164597007453
38.0	222.59437416782657	pulse	0.0	t		26.0	male	white	2.7966573816155993	neutral	117	sub-13	1.0	2.0	117_neutral	0.0		245.64964120136665	
38.0	223.2943691268665	pulse	0.0	t		26.0	male	white	2.7966573816155993	neutral	117	sub-13	1.0	2.0	117_neutral	0.0		246.3496361604066	
38.0	223.50257707763785	fix	1.0		444	26.0	male	white	2.7966573816155993	neutral	117	sub-13	1.0	2.0	117_neutral	0.0		246.55784411117793	3.7665567616627413
38.0	223.99434989877318	pulse	1.0	t		26.0	male	white	2.7966573816155993	neutral	117	sub-13	1.0	2.0	117_neutral	0.0		247.04961693231326	
38.0	224.69432010579385	pulse	1.0	t		26.0	male	white	2.7966573816155993	neutral	117	sub-13	1.0	2.0	117_neutral	0.0		247.74958713933393	
38.0	225.39432110191137	pulse	1.0	t		26.0	male	white	2.7966573816155993	neutral	117	sub-13	1.0	2.0	117_neutral	0.0		248.44958813545145	
38.0	226.09429161078606	pulse	1.0	t		26.0	male	white	2.7966573816155993	neutral	117	sub-13	1.0	2.0	117_neutral	0.0		249.14955864432613	
38.0	226.79427902347834	pulse	1.0	t		26.0	male	white	2.7966573816155993	neutral	117	sub-13	1.0	2.0	117_neutral	0.0		249.84954605701842	
39.0	227.2691338393006	face	0.0		145	27.0	male	black	3.5523278949462798	neutral	042	sub-13	1.0	2.0	042_neutral	0.0		250.32440087284067	1.233311931892331
39.0	227.49426794544024	pulse	0.0	t		27.0	male	black	3.5523278949462798	neutral	042	sub-13	1.0	2.0	042_neutral	0.0		250.54953497898032	
39.0	228.19424539695456	pulse	0.0	t		27.0	male	black	3.5523278949462798	neutral	042	sub-13	1.0	2.0	042_neutral	0.0		251.24951243049463	
39.0	228.50244577119292	fix	1.0		444	27.0	male	black	3.5523278949462798	neutral	042	sub-13	1.0	2.0	042_neutral	0.0		251.557712804733	3.7499243101356114
39.0	228.89423401706244	pulse	1.0	t		27.0	male	black	3.5523278949462798	neutral	042	sub-13	1.0	2.0	042_neutral	0.0		251.94950105060252	
39.0	229.59420573335228	pulse	1.0	t		27.0	male	black	3.5523278949462798	neutral	042	sub-13	1.0	2.0	042_neutral	0.0		252.64947276689236	
39.0	230.29420431463905	pulse	1.0	t		27.0	male	black	3.5523278949462798	neutral	042	sub-13	1.0	2.0	042_neutral	0.0		253.34947134817912	
39.0	230.99421587564348	pulse	1.0	t		27.0	male	black	3.5523278949462798	neutral	042	sub-13	1.0	2.0	042_neutral	0.0		254.04948290918355	
39.0	231.69420117535856	pulse	1.0	t		27.0	male	black	3.5523278949462798	neutral	042	sub-13	1.0	2.0	042_neutral	0.0		254.74946820889863	
40.0	232.25237008132854	fix	0.0		720													255.3076371148686	5.999859637938243
40.0	232.3941390840123	pulse	0.0	t														255.44940611755237	
40.0	233.0941092910325	pulse	0.0	t														256.1493763245726	
40.0	233.79412477613778	pulse	0.0	t														256.84939180967785	
40.0	234.49412999821016	pulse	0.0	t														257.54939703175023	
40.0	235.19409748854514	pulse	0.0	t														258.2493645220852	
40.0	235.8940888253387	pulse	0.0	t														258.9493558588788	
40.0	236.59404061927125	pulse	0.0	t														259.64930765281133	
40.0	237.29402531527876	pulse	0.0	t														260.34929234881884	
40.0	237.9940148409487	pulse	0.0	t														261.04928187448877	
