trial_nr	onset	event_type	phase	response	nr_frames	face_age	face_sex	face_eth	attractiveness	expression	face_id	sub_id	ses	run	trial_type	catch	rating_type	onset_abs	duration
-1.0	0.060464718952516705	fix	0.0		713													22.896799755858865	5.957908936770764
-1.0	0.7019334764331688	pulse	0.0	t														23.538268513339517	
-1.0	1.4019166630696418	pulse	0.0	t														24.23825169997599	
-1.0	2.1019049812530284	pulse	0.0	t														24.938240018159377	
-1.0	2.8018981291284035	pulse	0.0	t														25.63823316603475	
-1.0	3.501877693496226	pulse	0.0	t														26.338212730402574	
-1.0	4.201859068998601	pulse	0.0	t														27.03819410590495	
-1.0	4.901852820585191	pulse	0.0	t														27.73818785749154	
-1.0	5.601852307430363	pulse	0.0	t														28.43818734433671	
0.0	6.0183736557232805	face	0.0		144	20.0	male	black	2.609629924393156	smiling	043	sub-15	1.0	6.0	043_smiling	1.0	dominance	28.85470869262963	1.2333305461988857
0.0	6.301862057370272	pulse	0.0	t		20.0	male	black	2.609629924393156	smiling	043	sub-15	1.0	6.0	043_smiling	1.0	dominance	29.13819709427662	
0.0	7.001824415961892	pulse	0.0	t		20.0	male	black	2.609629924393156	smiling	043	sub-15	1.0	6.0	043_smiling	1.0	dominance	29.83815945286824	
0.0	7.251704201922166	fix	1.0		177	20.0	male	black	2.609629924393156	smiling	043	sub-15	1.0	6.0	043_smiling	1.0	dominance	30.088039238828514	1.5083313687555346
0.0	7.701810621155801	pulse	1.0	t		20.0	male	black	2.609629924393156	smiling	043	sub-15	1.0	6.0	043_smiling	1.0	dominance	30.53814565806215	
0.0	8.401806787588157	pulse	1.0	t		20.0	male	black	2.609629924393156	smiling	043	sub-15	1.0	6.0	043_smiling	1.0	dominance	31.238141824494505	
0.0	8.760035570677701	rating	2.0		293	20.0	male	black	2.609629924393156	smiling	043	sub-15	1.0	6.0	043_smiling	1.0	dominance	31.59637060758405	2.4916013174192813
0.0	9.101794803916164	pulse	2.0	t		20.0	male	black	2.609629924393156	smiling	043	sub-15	1.0	6.0	043_smiling	1.0	dominance	31.938129840822512	
0.0	9.80177134972655	pulse	2.0	t		20.0	male	black	2.609629924393156	smiling	043	sub-15	1.0	6.0	043_smiling	1.0	dominance	32.6381063866329	
0.0	10.06842254125695	response	2.0	e		20.0	male	black	2.609629924393156	smiling	043	sub-15	1.0	6.0	043_smiling	1.0	dominance	32.9047575781633	
0.0	10.50176057347744	pulse	2.0	t		20.0	male	black	2.609629924393156	smiling	043	sub-15	1.0	6.0	043_smiling	1.0	dominance	33.33809561038379	
0.0	11.20175070279538	pulse	2.0	t		20.0	male	black	2.609629924393156	smiling	043	sub-15	1.0	6.0	043_smiling	1.0	dominance	34.03808573970173	
0.0	11.251636888096982	fix	3.0		444	20.0	male	black	2.609629924393156	smiling	043	sub-15	1.0	6.0	043_smiling	1.0	dominance	34.08797192500333	3.7582594516306926
0.0	11.901736907989289	pulse	3.0	t		20.0	male	black	2.609629924393156	smiling	043	sub-15	1.0	6.0	043_smiling	1.0	dominance	34.73807194489564	
0.0	12.601722509471529	pulse	3.0	t		20.0	male	black	2.609629924393156	smiling	043	sub-15	1.0	6.0	043_smiling	1.0	dominance	35.43805754637788	
0.0	13.3017075072421	pulse	3.0	t		20.0	male	black	2.609629924393156	smiling	043	sub-15	1.0	6.0	043_smiling	1.0	dominance	36.13804254414845	
0.0	14.001701258828689	pulse	3.0	t		20.0	male	black	2.609629924393156	smiling	043	sub-15	1.0	6.0	043_smiling	1.0	dominance	36.83803629573504	
0.0	14.701680521341132	pulse	3.0	t		20.0	male	black	2.609629924393156	smiling	043	sub-15	1.0	6.0	043_smiling	1.0	dominance	37.53801555824748	
1.0	15.009896339727675	face	0.0		146	28.0	female	white	5.676880222841227	neutral	124	sub-15	1.0	6.0	124_neutral	0.0		37.84623137663402	1.2416502935093376
1.0	15.40167517849477	pulse	0.0	t		28.0	female	white	5.676880222841227	neutral	124	sub-15	1.0	6.0	124_neutral	0.0		38.23801021540112	
1.0	16.101661987399893	pulse	0.0	t		28.0	female	white	5.676880222841227	neutral	124	sub-15	1.0	6.0	124_neutral	0.0		38.93799702430624	
1.0	16.251546633237012	fix	1.0		445	28.0	female	white	5.676880222841227	neutral	124	sub-15	1.0	6.0	124_neutral	0.0		39.08788167014336	3.7582648850338956
1.0	16.8016500037279	pulse	1.0	t		28.0	female	white	5.676880222841227	neutral	124	sub-15	1.0	6.0	124_neutral	0.0		39.63798504063425	
1.0	17.50163469964309	pulse	1.0	t		28.0	female	white	5.676880222841227	neutral	124	sub-15	1.0	6.0	124_neutral	0.0		40.33796973654944	
1.0	18.201617886279564	pulse	1.0	t		28.0	female	white	5.676880222841227	neutral	124	sub-15	1.0	6.0	124_neutral	0.0		41.03795292318591	
1.0	18.901616165701853	pulse	1.0	t		28.0	female	white	5.676880222841227	neutral	124	sub-15	1.0	6.0	124_neutral	0.0		41.7379512026082	
1.0	19.60159240965686	pulse	1.0	t		28.0	female	white	5.676880222841227	neutral	124	sub-15	1.0	6.0	124_neutral	0.0		42.43792744656321	
2.0	20.009811518270908	face	0.0		146	22.0	female	white	4.614007162753682	neutral	009	sub-15	1.0	6.0	009_neutral	0.0		42.846146555177256	1.2416478786635707
2.0	20.30158887794505	pulse	0.0	t		22.0	female	white	4.614007162753682	neutral	009	sub-15	1.0	6.0	009_neutral	0.0		43.1379239148514	
2.0	21.001569347879922	pulse	0.0	t		22.0	female	white	4.614007162753682	neutral	009	sub-15	1.0	6.0	009_neutral	0.0		43.83790438478627	
2.0	21.25145939693448	fix	1.0		444	22.0	female	white	4.614007162753682	neutral	009	sub-15	1.0	6.0	009_neutral	0.0		44.08779443384083	3.7582633757551775
2.0	21.701561892043628	pulse	1.0	t		22.0	female	white	4.614007162753682	neutral	009	sub-15	1.0	6.0	009_neutral	0.0		44.537896928949976	
2.0	22.40155473806317	pulse	1.0	t		22.0	female	white	4.614007162753682	neutral	009	sub-15	1.0	6.0	009_neutral	0.0		45.23788977496952	
2.0	23.101534000575157	pulse	1.0	t		22.0	female	white	4.614007162753682	neutral	009	sub-15	1.0	6.0	009_neutral	0.0		45.937869037481505	
2.0	23.801530167007513	pulse	1.0	t		22.0	female	white	4.614007162753682	neutral	009	sub-15	1.0	6.0	009_neutral	0.0		46.63786520391386	
2.0	24.501511844365723	pulse	1.0	t		22.0	female	white	4.614007162753682	neutral	009	sub-15	1.0	6.0	009_neutral	0.0		47.33784688127207	
3.0	25.009722772689656	face	0.0		146	22.0	female	white	4.614007162753682	smiling	009	sub-15	1.0	6.0	009_smiling	0.0		47.846057809596005	1.2416484823752398
3.0	25.201501068116613	pulse	0.0	t		22.0	female	white	4.614007162753682	smiling	009	sub-15	1.0	6.0	009_smiling	0.0		48.03783610502296	
3.0	25.901480632484436	pulse	0.0	t		22.0	female	white	4.614007162753682	smiling	009	sub-15	1.0	6.0	009_smiling	0.0		48.737815669390784	
3.0	26.251371255064896	fix	1.0		444	22.0	female	white	4.614007162753682	smiling	009	sub-15	1.0	6.0	009_smiling	0.0		49.087706291971244	3.7582651868892754
3.0	26.601477402628007	pulse	1.0	t		22.0	female	white	4.614007162753682	smiling	009	sub-15	1.0	6.0	009_smiling	0.0		49.437812439534355	
3.0	27.301461796687363	pulse	1.0	t		22.0	female	white	4.614007162753682	smiling	009	sub-15	1.0	6.0	009_smiling	0.0		50.13779683359371	
3.0	28.001451020438253	pulse	1.0	t		22.0	female	white	4.614007162753682	smiling	009	sub-15	1.0	6.0	009_smiling	0.0		50.8377860573446	
3.0	28.70145443140791	pulse	1.0	t		22.0	female	white	4.614007162753682	smiling	009	sub-15	1.0	6.0	009_smiling	0.0		51.53778946831426	
3.0	29.40142554381555	pulse	1.0	t		22.0	female	white	4.614007162753682	smiling	009	sub-15	1.0	6.0	009_smiling	0.0		52.2377605807219	
4.0	30.00963644195417	face	0.0		146	26.0	male	white	2.7966573816155993	smiling	117	sub-15	1.0	6.0	117_smiling	0.0		52.84597147886052	1.2416472749523564
4.0	30.101470610874458	pulse	0.0	t		26.0	male	white	2.7966573816155993	smiling	117	sub-15	1.0	6.0	117_smiling	0.0		52.937805647780806	
4.0	30.801405198740213	pulse	0.0	t		26.0	male	white	2.7966573816155993	smiling	117	sub-15	1.0	6.0	117_smiling	0.0		53.63774023564656	
4.0	31.251283716906528	fix	1.0		444	26.0	male	white	2.7966573816155993	smiling	117	sub-15	1.0	6.0	117_smiling	0.0		54.087618753812876	3.7582579423519746
4.0	31.501395026202772	pulse	1.0	t		26.0	male	white	2.7966573816155993	smiling	117	sub-15	1.0	6.0	117_smiling	0.0		54.33773006310912	
4.0	32.20137338314771	pulse	1.0	t		26.0	male	white	2.7966573816155993	smiling	117	sub-15	1.0	6.0	117_smiling	0.0		55.03770842005406	
4.0	32.90136230504277	pulse	1.0	t		26.0	male	white	2.7966573816155993	smiling	117	sub-15	1.0	6.0	117_smiling	0.0		55.737697341949115	
4.0	33.60135213250487	pulse	1.0	t		26.0	male	white	2.7966573816155993	smiling	117	sub-15	1.0	6.0	117_smiling	0.0		56.43768716941122	
4.0	34.30136822141458	pulse	1.0	t		26.0	male	white	2.7966573816155993	smiling	117	sub-15	1.0	6.0	117_smiling	0.0		57.137703258320926	
5.0	35.0095416592585	face	0.0		147	26.0	female	white	4.854755272582572	neutral	027	sub-15	1.0	6.0	027_neutral	0.0		57.84587669616485	1.241655425056706
5.0	35.00318820009761	pulse	0.0	t		26.0	female	white	4.854755272582572	neutral	027	sub-15	1.0	6.0	027_neutral	0.0		57.83952323700396	
5.0	35.70131920004633	pulse	0.0	t		26.0	female	white	4.854755272582572	neutral	027	sub-15	1.0	6.0	027_neutral	0.0		58.537654236952676	
5.0	36.25119708431521	fix	1.0		444	26.0	female	white	4.854755272582572	neutral	027	sub-15	1.0	6.0	027_neutral	0.0		59.08753212122156	3.758245868123595
5.0	36.40130812194138	pulse	1.0	t		26.0	female	white	4.854755272582572	neutral	027	sub-15	1.0	6.0	027_neutral	0.0		59.23764315884773	
5.0	37.101291610433236	pulse	1.0	t		26.0	female	white	4.854755272582572	neutral	027	sub-15	1.0	6.0	027_neutral	0.0		59.937626647339584	
5.0	37.80127841933836	pulse	1.0	t		26.0	female	white	4.854755272582572	neutral	027	sub-15	1.0	6.0	027_neutral	0.0		60.63761345624471	
5.0	38.50126734123387	pulse	1.0	t		26.0	female	white	4.854755272582572	neutral	027	sub-15	1.0	6.0	027_neutral	0.0		61.33760237814022	
5.0	39.20124660374586	pulse	1.0	t		26.0	female	white	4.854755272582572	neutral	027	sub-15	1.0	6.0	027_neutral	0.0		62.037581640652206	
5.0	39.9012367330638	pulse	1.0	t		26.0	female	white	4.854755272582572	neutral	027	sub-15	1.0	6.0	027_neutral	0.0		62.737571769970145	
6.0	40.0094429524388	face	0.0		147	30.0	female	black	2.7345801830481498	neutral	062	sub-15	1.0	6.0	062_neutral	0.0		62.84577798934515	1.241665084439319
6.0	40.60123440877487	pulse	0.0	t		30.0	female	black	2.7345801830481498	neutral	062	sub-15	1.0	6.0	062_neutral	0.0		63.43756944568122	
6.0	41.25110803687812	fix	1.0		444	30.0	female	black	2.7345801830481498	neutral	062	sub-15	1.0	6.0	062_neutral	0.0		64.08744307378447	3.758264583178061
6.0	41.30121578427679	pulse	1.0	t		30.0	female	black	2.7345801830481498	neutral	062	sub-15	1.0	6.0	062_neutral	0.0		64.13755082118314	
6.0	42.0012182896794	pulse	1.0	t		30.0	female	black	2.7345801830481498	neutral	062	sub-15	1.0	6.0	062_neutral	0.0		64.83755332658575	
6.0	42.701172800022505	pulse	1.0	t		30.0	female	black	2.7345801830481498	neutral	062	sub-15	1.0	6.0	062_neutral	0.0		65.53750783692885	
6.0	43.40118436109651	pulse	1.0	t		30.0	female	black	2.7345801830481498	neutral	062	sub-15	1.0	6.0	062_neutral	0.0		66.23751939800286	
6.0	44.10115969948447	pulse	1.0	t		30.0	female	black	2.7345801830481498	neutral	062	sub-15	1.0	6.0	062_neutral	0.0		66.93749473639082	
6.0	44.80115828076259	pulse	1.0	t		30.0	female	black	2.7345801830481498	neutral	062	sub-15	1.0	6.0	062_neutral	0.0		67.63749331766894	
7.0	45.00937262005618	face	0.0		146	28.0	male	east_asian	1.5563072025467568	neutral	005	sub-15	1.0	6.0	005_neutral	0.0		67.84570765696253	1.2416641788727247
7.0	45.50116682327962	pulse	0.0	t		28.0	male	east_asian	1.5563072025467568	neutral	005	sub-15	1.0	6.0	005_neutral	0.0		68.33750186018597	
7.0	46.20116721569184	pulse	0.0	t		28.0	male	east_asian	1.5563072025467568	neutral	005	sub-15	1.0	6.0	005_neutral	0.0		69.03750225259819	
7.0	46.25103679892891	fix	1.0		444	28.0	male	east_asian	1.5563072025467568	neutral	005	sub-15	1.0	6.0	005_neutral	0.0		69.08737183583526	3.7583107671025573
7.0	46.901125046448215	pulse	1.0	t		28.0	male	east_asian	1.5563072025467568	neutral	005	sub-15	1.0	6.0	005_neutral	0.0		69.73746008335456	
7.0	47.601107327517184	pulse	1.0	t		28.0	male	east_asian	1.5563072025467568	neutral	005	sub-15	1.0	6.0	005_neutral	0.0		70.43744236442353	
7.0	48.30109775869096	pulse	1.0	t		28.0	male	east_asian	1.5563072025467568	neutral	005	sub-15	1.0	6.0	005_neutral	0.0		71.1374327955973	
7.0	49.0010815490391	pulse	1.0	t		28.0	male	east_asian	1.5563072025467568	neutral	005	sub-15	1.0	6.0	005_neutral	0.0		71.83741658594545	
7.0	49.70106201897397	pulse	1.0	t		28.0	male	east_asian	1.5563072025467568	neutral	005	sub-15	1.0	6.0	005_neutral	0.0		72.53739705588032	
8.0	50.009347566031465	face	0.0		146	24.0	female	east_asian	2.9076800636689217	smiling	034	sub-15	1.0	6.0	034_smiling	0.0		72.84568260293781	1.241586300097424
8.0	50.40106210953081	pulse	0.0	t		24.0	female	east_asian	2.9076800636689217	smiling	034	sub-15	1.0	6.0	034_smiling	0.0		73.23739714643716	
8.0	51.10104288132152	pulse	0.0	t		24.0	female	east_asian	2.9076800636689217	smiling	034	sub-15	1.0	6.0	034_smiling	0.0		73.93737791822787	
8.0	51.25093386612889	fix	1.0		445	24.0	female	east_asian	2.9076800636689217	smiling	034	sub-15	1.0	6.0	034_smiling	0.0		74.08726890303524	3.7583442730874594
8.0	51.80103693476394	pulse	1.0	t		24.0	female	east_asian	2.9076800636689217	smiling	034	sub-15	1.0	6.0	034_smiling	0.0		74.63737197167029	
8.0	52.50101981954458	pulse	1.0	t		24.0	female	east_asian	2.9076800636689217	smiling	034	sub-15	1.0	6.0	034_smiling	0.0		75.33735485645093	
8.0	53.20100179875817	pulse	1.0	t		24.0	female	east_asian	2.9076800636689217	smiling	034	sub-15	1.0	6.0	034_smiling	0.0		76.03733683566452	
8.0	53.90099675776764	pulse	1.0	t		24.0	female	east_asian	2.9076800636689217	smiling	034	sub-15	1.0	6.0	034_smiling	0.0		76.73733179467399	
8.0	54.60098537780732	pulse	1.0	t		24.0	female	east_asian	2.9076800636689217	smiling	034	sub-15	1.0	6.0	034_smiling	0.0		77.43732041471367	
9.0	55.00927813921635	face	0.0		146	20.0	male	black	3.1070433744528456	smiling	082	sub-15	1.0	6.0	082_smiling	0.0		77.8456131761227	1.2415672831871234
9.0	55.30097399784654	pulse	0.0	t		20.0	male	black	3.1070433744528456	smiling	082	sub-15	1.0	6.0	082_smiling	0.0		78.13730903475289	
9.0	56.00095869376173	pulse	0.0	t		20.0	male	black	3.1070433744528456	smiling	082	sub-15	1.0	6.0	082_smiling	0.0		78.83729373066808	
9.0	56.25084542240347	fix	1.0		445	20.0	male	black	3.1070433744528456	smiling	082	sub-15	1.0	6.0	082_smiling	0.0		79.08718045930982	3.7583551398934105
9.0	56.70094731380095	pulse	1.0	t		20.0	male	black	3.1070433744528456	smiling	082	sub-15	1.0	6.0	082_smiling	0.0		79.5372823507073	
9.0	57.40093683940768	pulse	1.0	t		20.0	male	black	3.1070433744528456	smiling	082	sub-15	1.0	6.0	082_smiling	0.0		80.23727187631403	
9.0	58.1009299872826	pulse	1.0	t		20.0	male	black	3.1070433744528456	smiling	082	sub-15	1.0	6.0	082_smiling	0.0		80.93726502418895	
9.0	58.800909551650875	pulse	1.0	t		20.0	male	black	3.1070433744528456	smiling	082	sub-15	1.0	6.0	082_smiling	0.0		81.63724458855722	
9.0	59.50089786983426	pulse	1.0	t		20.0	male	black	3.1070433744528456	smiling	082	sub-15	1.0	6.0	082_smiling	0.0		82.33723290674061	
10.0	60.00920056229688	face	0.0		146	20.0	male	black	2.609629924393156	neutral	043	sub-15	1.0	6.0	043_neutral	0.0		82.84553559920323	1.2415570200923867
10.0	60.200885282451054	pulse	0.0	t		20.0	male	black	2.609629924393156	neutral	043	sub-15	1.0	6.0	043_neutral	0.0		83.0372203193574	
10.0	60.90087722290309	pulse	0.0	t		20.0	male	black	2.609629924393156	neutral	043	sub-15	1.0	6.0	043_neutral	0.0		83.73721225980944	
10.0	61.25075758238927	fix	1.0		444	20.0	male	black	2.609629924393156	neutral	043	sub-15	1.0	6.0	043_neutral	0.0		84.08709261929562	3.758231680904828
10.0	61.60086433366405	pulse	1.0	t		20.0	male	black	2.609629924393156	neutral	043	sub-15	1.0	6.0	043_neutral	0.0		84.4371993705704	
10.0	62.30086623535499	pulse	1.0	t		20.0	male	black	2.609629924393156	neutral	043	sub-15	1.0	6.0	043_neutral	0.0		85.13720127226134	
10.0	63.000837951474296	pulse	1.0	t		20.0	male	black	2.609629924393156	neutral	043	sub-15	1.0	6.0	043_neutral	0.0		85.83717298838064	
10.0	63.70082476037942	pulse	1.0	t		20.0	male	black	2.609629924393156	neutral	043	sub-15	1.0	6.0	043_neutral	0.0		86.53715979728577	
10.0	64.40081730454312	pulse	1.0	t		20.0	male	black	2.609629924393156	neutral	043	sub-15	1.0	6.0	043_neutral	0.0		87.23715234144947	
11.0	65.0089892632941	face	0.0		146	40.0	female	west_asian	1.5777954635893354	smiling	038	sub-15	1.0	6.0	038_smiling	0.0		87.84532430020045	1.2416813846484729
11.0	65.10080622643818	pulse	0.0	t		40.0	female	west_asian	1.5777954635893354	smiling	038	sub-15	1.0	6.0	038_smiling	0.0		87.93714126334453	
11.0	65.80078820565177	pulse	0.0	t		40.0	female	west_asian	1.5777954635893354	smiling	038	sub-15	1.0	6.0	038_smiling	0.0		88.63712324255812	
11.0	66.25067064794257	fix	1.0		444	40.0	female	west_asian	1.5777954635893354	smiling	038	sub-15	1.0	6.0	038_smiling	0.0		89.08700568484892	3.766597008428562
11.0	66.50079554074591	pulse	1.0	t		40.0	female	west_asian	1.5777954635893354	smiling	038	sub-15	1.0	6.0	038_smiling	0.0		89.33713057765226	
11.0	67.20076242717369	pulse	1.0	t		40.0	female	west_asian	1.5777954635893354	smiling	038	sub-15	1.0	6.0	038_smiling	0.0		90.03709746408003	
11.0	67.90074802865593	pulse	1.0	t		40.0	female	west_asian	1.5777954635893354	smiling	038	sub-15	1.0	6.0	038_smiling	0.0		90.73708306556227	
11.0	68.6007402709638	pulse	1.0	t		40.0	female	west_asian	1.5777954635893354	smiling	038	sub-15	1.0	6.0	038_smiling	0.0		91.43707530787015	
11.0	69.30072526873437	pulse	1.0	t		40.0	female	west_asian	1.5777954635893354	smiling	038	sub-15	1.0	6.0	038_smiling	0.0		92.13706030564072	
12.0	70.01726765637113	face	0.0		146	25.0	female	black	3.858336649423	neutral	126	sub-15	1.0	6.0	126_neutral	0.0		92.85360269327748	1.2333157552684497
12.0	70.00335150404135	pulse	0.0	t		25.0	female	black	3.858336649423	neutral	126	sub-15	1.0	6.0	126_neutral	0.0		92.8396865409477	
12.0	70.70070371623615	pulse	0.0	t		25.0	female	black	3.858336649423	neutral	126	sub-15	1.0	6.0	126_neutral	0.0		93.5370387531425	
12.0	71.25058341163958	fix	1.0		443	25.0	female	black	3.858336649423	neutral	126	sub-15	1.0	6.0	126_neutral	0.0		94.08691844854593	3.758320728341914
12.0	71.40069233627582	pulse	1.0	t		25.0	female	black	3.858336649423	neutral	126	sub-15	1.0	6.0	126_neutral	0.0		94.23702737318217	
12.0	72.10067884332511	pulse	1.0	t		25.0	female	black	3.858336649423	neutral	126	sub-15	1.0	6.0	126_neutral	0.0		94.93701388023146	
12.0	72.80066927449889	pulse	1.0	t		25.0	female	black	3.858336649423	neutral	126	sub-15	1.0	6.0	126_neutral	0.0		95.63700431140524	
12.0	73.50065336670241	pulse	1.0	t		25.0	female	black	3.858336649423	neutral	126	sub-15	1.0	6.0	126_neutral	0.0		96.33698840360876	
12.0	74.20064108117458	pulse	1.0	t		25.0	female	black	3.858336649423	neutral	126	sub-15	1.0	6.0	126_neutral	0.0		97.03697611808093	
12.0	74.90062758822432	pulse	1.0	t		25.0	female	black	3.858336649423	neutral	126	sub-15	1.0	6.0	126_neutral	0.0		97.73696262513067	
13.0	75.0089041399815	face	0.0		147	20.0	female	white	3.9502586549940313	smiling	091	sub-15	1.0	6.0	091_smiling	0.0		97.84523917688784	1.241592035355552
13.0	75.6006216416663	pulse	0.0	t		20.0	female	white	3.9502586549940313	smiling	091	sub-15	1.0	6.0	091_smiling	0.0		98.43695667857264	
13.0	76.25049617533705	fix	1.0		443	20.0	female	white	3.9502586549940313	smiling	091	sub-15	1.0	6.0	091_smiling	0.0		99.0868312122434	3.758308352257245
13.0	76.30061478954167	pulse	1.0	t		20.0	female	white	3.9502586549940313	smiling	091	sub-15	1.0	6.0	091_smiling	0.0		99.13694982644802	
13.0	77.00057563885503	pulse	1.0	t		20.0	female	white	3.9502586549940313	smiling	091	sub-15	1.0	6.0	091_smiling	0.0		99.83691067576137	
13.0	77.70058780364025	pulse	1.0	t		20.0	female	white	3.9502586549940313	smiling	091	sub-15	1.0	6.0	091_smiling	0.0		100.5369228405466	
13.0	78.40056857543095	pulse	1.0	t		20.0	female	white	3.9502586549940313	smiling	091	sub-15	1.0	6.0	091_smiling	0.0		101.2369036123373	
13.0	79.10054934722211	pulse	1.0	t		20.0	female	white	3.9502586549940313	smiling	091	sub-15	1.0	6.0	091_smiling	0.0		101.93688438412846	
13.0	79.8005376654055	pulse	1.0	t		20.0	female	white	3.9502586549940313	smiling	091	sub-15	1.0	6.0	091_smiling	0.0		102.63687270231185	
14.0	80.0088045275943	face	0.0		146	19.0	female	white	4.298846000795861	smiling	100	sub-15	1.0	6.0	100_smiling	0.0		102.84513956450064	1.2416044114402212
14.0	80.50056069699713	pulse	0.0	t		19.0	female	white	4.298846000795861	smiling	100	sub-15	1.0	6.0	100_smiling	0.0		103.33689573390348	
14.0	81.20062206426428	pulse	0.0	t		19.0	female	white	4.298846000795861	smiling	100	sub-15	1.0	6.0	100_smiling	0.0		104.03695710117063	
14.0	81.25040893903451	fix	1.0		445	19.0	female	white	4.298846000795861	smiling	100	sub-15	1.0	6.0	100_smiling	0.0		104.08674397594086	3.7665973102843964
14.0	81.90051258119547	pulse	1.0	t		19.0	female	white	4.298846000795861	smiling	100	sub-15	1.0	6.0	100_smiling	0.0		104.73684761810182	
14.0	82.60049365484201	pulse	1.0	t		19.0	female	white	4.298846000795861	smiling	100	sub-15	1.0	6.0	100_smiling	0.0		105.43682869174836	
14.0	83.30048227488123	pulse	1.0	t		19.0	female	white	4.298846000795861	smiling	100	sub-15	1.0	6.0	100_smiling	0.0		106.13681731178758	
14.0	84.00046968749803	pulse	1.0	t		19.0	female	white	4.298846000795861	smiling	100	sub-15	1.0	6.0	100_smiling	0.0		106.83680472440437	
14.0	84.70044170547271	pulse	1.0	t		19.0	female	white	4.298846000795861	smiling	100	sub-15	1.0	6.0	100_smiling	0.0		107.53677674237906	
15.0	85.01700624931891	face	0.0		145	26.0	female	white	4.854755272582572	smiling	027	sub-15	1.0	6.0	027_smiling	0.0		107.85334128622526	1.233313038567303
15.0	85.4004499461339	pulse	0.0	t		26.0	female	white	4.854755272582572	smiling	027	sub-15	1.0	6.0	027_smiling	0.0		108.23678498304025	
15.0	86.10042981235756	pulse	0.0	t		26.0	female	white	4.854755272582572	smiling	027	sub-15	1.0	6.0	027_smiling	0.0		108.93676484926391	
15.0	86.25031928788621	fix	1.0		444	26.0	female	white	4.854755272582572	smiling	027	sub-15	1.0	6.0	027_smiling	0.0		109.08665432479256	3.76659851770728
15.0	86.80041148971532	pulse	1.0	t		26.0	female	white	4.854755272582572	smiling	027	sub-15	1.0	6.0	027_smiling	0.0		109.63674652662166	
15.0	87.5004079580035	pulse	1.0	t		26.0	female	white	4.854755272582572	smiling	027	sub-15	1.0	6.0	027_smiling	0.0		110.33674299490986	
15.0	88.20039205020703	pulse	1.0	t		26.0	female	white	4.854755272582572	smiling	027	sub-15	1.0	6.0	027_smiling	0.0		111.03672708711338	
15.0	88.9003851980824	pulse	1.0	t		26.0	female	white	4.854755272582572	smiling	027	sub-15	1.0	6.0	027_smiling	0.0		111.73672023498875	
15.0	89.60036657358432	pulse	1.0	t		26.0	female	white	4.854755272582572	smiling	027	sub-15	1.0	6.0	027_smiling	0.0		112.43670161049067	
16.0	90.0169178055935	face	0.0		145	24.0	male	white	3.1153999204138483	smiling	012	sub-15	1.0	6.0	012_smiling	0.0		112.85325284249984	1.2333151515572354
16.0	90.30036334372835	pulse	0.0	t		24.0	male	white	3.1153999204138483	smiling	012	sub-15	1.0	6.0	012_smiling	0.0		113.1366983806347	
16.0	91.0003477377877	pulse	0.0	t		24.0	male	white	3.1153999204138483	smiling	012	sub-15	1.0	6.0	012_smiling	0.0		113.83668277469405	
16.0	91.25023295715073	fix	1.0		444	24.0	male	white	3.1153999204138483	smiling	012	sub-15	1.0	6.0	012_smiling	0.0		114.08656799405708	3.766585839767231
16.0	91.70033515040404	pulse	1.0	t		24.0	male	white	3.1153999204138483	smiling	012	sub-15	1.0	6.0	012_smiling	0.0		114.53667018731039	
16.0	92.40033765580665	pulse	1.0	t		24.0	male	white	3.1153999204138483	smiling	012	sub-15	1.0	6.0	012_smiling	0.0		115.236672692713	
16.0	93.10030393852276	pulse	1.0	t		24.0	male	white	3.1153999204138483	smiling	012	sub-15	1.0	6.0	012_smiling	0.0		115.9366389754291	
16.0	93.800313084751	pulse	1.0	t		24.0	male	white	3.1153999204138483	smiling	012	sub-15	1.0	6.0	012_smiling	0.0		116.63664812165734	
16.0	94.50027936746756	pulse	1.0	t		24.0	male	white	3.1153999204138483	smiling	012	sub-15	1.0	6.0	012_smiling	0.0		117.3366144043739	
17.0	95.01681879691796	face	0.0		145	21.0	male	east_asian/white	3.501790688420215	neutral	036	sub-15	1.0	6.0	036_neutral	0.0		117.85315383382431	1.2333248109398482
17.0	95.20027583575529	pulse	0.0	t		21.0	male	east_asian/white	3.501790688420215	neutral	036	sub-15	1.0	6.0	036_neutral	0.0		118.03661087266164	
17.0	95.90025811682472	pulse	0.0	t		21.0	male	east_asian/white	3.501790688420215	neutral	036	sub-15	1.0	6.0	036_neutral	0.0		118.73659315373106	
17.0	96.25014360785781	fix	1.0		444	21.0	male	east_asian/white	3.501790688420215	neutral	036	sub-15	1.0	6.0	036_neutral	0.0		119.08647864476416	3.758314087515828
17.0	96.60027058346577	pulse	1.0	t		21.0	male	east_asian/white	3.501790688420215	neutral	036	sub-15	1.0	6.0	036_neutral	0.0		119.43660562037212	
17.0	97.30023777174938	pulse	1.0	t		21.0	male	east_asian/white	3.501790688420215	neutral	036	sub-15	1.0	6.0	036_neutral	0.0		120.13657280865573	
17.0	98.00022095838585	pulse	1.0	t		21.0	male	east_asian/white	3.501790688420215	neutral	036	sub-15	1.0	6.0	036_neutral	0.0		120.8365559952922	
17.0	98.70021229512668	pulse	1.0	t		21.0	male	east_asian/white	3.501790688420215	neutral	036	sub-15	1.0	6.0	036_neutral	0.0		121.53654733203302	
17.0	99.40020000959885	pulse	1.0	t		21.0	male	east_asian/white	3.501790688420215	neutral	036	sub-15	1.0	6.0	036_neutral	0.0		122.2365350465052	
18.0	100.00845769537364	face	0.0		146	27.0	female	white	3.504576203740549	smiling	144	sub-15	1.0	6.0	144_smiling	0.0		122.84479273227998	1.2415992798933075
18.0	100.10026469727927	pulse	0.0	t		27.0	female	white	3.504576203740549	smiling	144	sub-15	1.0	6.0	144_smiling	0.0		122.93659973418562	
18.0	100.80017785338941	pulse	0.0	t		27.0	female	white	3.504576203740549	smiling	144	sub-15	1.0	6.0	144_smiling	0.0		123.63651289029576	
18.0	101.25005697526694	fix	1.0		444	27.0	female	white	3.504576203740549	smiling	144	sub-15	1.0	6.0	144_smiling	0.0		124.08639201217329	3.7665704451255806
18.0	101.50016285115998	pulse	1.0	t		27.0	female	white	3.504576203740549	smiling	144	sub-15	1.0	6.0	144_smiling	0.0		124.33649788806633	
18.0	102.2001490563539	pulse	1.0	t		27.0	female	white	3.504576203740549	smiling	144	sub-15	1.0	6.0	144_smiling	0.0		125.03648409326024	
18.0	102.90013767639311	pulse	1.0	t		27.0	female	white	3.504576203740549	smiling	144	sub-15	1.0	6.0	144_smiling	0.0		125.73647271329946	
18.0	103.60012508900991	pulse	1.0	t		27.0	female	white	3.504576203740549	smiling	144	sub-15	1.0	6.0	144_smiling	0.0		126.43646012591626	
18.0	104.30011370904913	pulse	1.0	t		27.0	female	white	3.504576203740549	smiling	144	sub-15	1.0	6.0	144_smiling	0.0		127.13644874595548	
19.0	105.01662742039252	face	0.0		146	22.0	male	black	2.767608436132113	smiling	044	sub-15	1.0	6.0	044_smiling	0.0		127.85296245729887	1.2333423185718857
19.0	105.00286793118039	pulse	0.0	t		22.0	male	black	2.767608436132113	smiling	044	sub-15	1.0	6.0	044_smiling	0.0		127.83920296808674	
19.0	105.70009004356098	pulse	0.0	t		22.0	male	black	2.767608436132113	smiling	044	sub-15	1.0	6.0	044_smiling	0.0		128.53642508046732	
19.0	106.24996973896441	fix	1.0		443	22.0	male	black	2.767608436132113	smiling	044	sub-15	1.0	6.0	044_smiling	0.0		129.08630477587076	3.7582437551332077
19.0	106.4000804747343	pulse	1.0	t		22.0	male	black	2.767608436132113	smiling	044	sub-15	1.0	6.0	044_smiling	0.0		129.23641551164064	
19.0	107.10006245394834	pulse	1.0	t		22.0	male	black	2.767608436132113	smiling	044	sub-15	1.0	6.0	044_smiling	0.0		129.9363974908547	
19.0	107.8000722038878	pulse	1.0	t		22.0	male	black	2.767608436132113	smiling	044	sub-15	1.0	6.0	044_smiling	0.0		130.63640724079414	
19.0	108.50004150516133	pulse	1.0	t		22.0	male	black	2.767608436132113	smiling	044	sub-15	1.0	6.0	044_smiling	0.0		131.33637654206768	
19.0	109.20002227695204	pulse	1.0	t		22.0	male	black	2.767608436132113	smiling	044	sub-15	1.0	6.0	044_smiling	0.0		132.0363573138584	
19.0	109.90001059513588	pulse	1.0	t		22.0	male	black	2.767608436132113	smiling	044	sub-15	1.0	6.0	044_smiling	0.0		132.73634563204223	
20.0	110.00821349409762	face	0.0		147	25.0	female	west_asian	2.6756864305610826	neutral	064	sub-15	1.0	6.0	064_neutral	0.0		132.84454853100397	1.241656330623755
20.0	110.59999800775222	pulse	0.0	t		25.0	female	west_asian	2.6756864305610826	neutral	064	sub-15	1.0	6.0	064_neutral	0.0		133.43633304465857	
20.0	111.24986982472137	fix	1.0		1184	25.0	female	west_asian	2.6756864305610826	neutral	064	sub-15	1.0	6.0	064_neutral	0.0		134.08620486162772	10.008252131629888
20.0	111.29998179810036	pulse	1.0	t		25.0	female	west_asian	2.6756864305610826	neutral	064	sub-15	1.0	6.0	064_neutral	0.0		134.1363168350067	
20.0	111.99998068123386	pulse	1.0	t		25.0	female	west_asian	2.6756864305610826	neutral	064	sub-15	1.0	6.0	064_neutral	0.0		134.8363157181402	
20.0	112.69996779199482	pulse	1.0	t		25.0	female	west_asian	2.6756864305610826	neutral	064	sub-15	1.0	6.0	064_neutral	0.0		135.53630282890117	
20.0	113.39995309162123	pulse	1.0	t		25.0	female	west_asian	2.6756864305610826	neutral	064	sub-15	1.0	6.0	064_neutral	0.0		136.23628812852758	
20.0	114.09993476897944	pulse	1.0	t		25.0	female	west_asian	2.6756864305610826	neutral	064	sub-15	1.0	6.0	064_neutral	0.0		136.9362698058858	
20.0	114.79993244469006	pulse	1.0	t		25.0	female	west_asian	2.6756864305610826	neutral	064	sub-15	1.0	6.0	064_neutral	0.0		137.6362674815964	
20.0	115.49991774431692	pulse	1.0	t		25.0	female	west_asian	2.6756864305610826	neutral	064	sub-15	1.0	6.0	064_neutral	0.0		138.33625278122327	
20.0	116.19990062909756	pulse	1.0	t		25.0	female	west_asian	2.6756864305610826	neutral	064	sub-15	1.0	6.0	064_neutral	0.0		139.0362356660039	
20.0	116.89989558810703	pulse	1.0	t		25.0	female	west_asian	2.6756864305610826	neutral	064	sub-15	1.0	6.0	064_neutral	0.0		139.73623062501338	
20.0	117.59988390629087	pulse	1.0	t		25.0	female	west_asian	2.6756864305610826	neutral	064	sub-15	1.0	6.0	064_neutral	0.0		140.43621894319722	
20.0	118.29986950777311	pulse	1.0	t		25.0	female	west_asian	2.6756864305610826	neutral	064	sub-15	1.0	6.0	064_neutral	0.0		141.13620454467946	
20.0	118.99985480739952	pulse	1.0	t		25.0	female	west_asian	2.6756864305610826	neutral	064	sub-15	1.0	6.0	064_neutral	0.0		141.83618984430586	
20.0	119.69984010702592	pulse	1.0	t		25.0	female	west_asian	2.6756864305610826	neutral	064	sub-15	1.0	6.0	064_neutral	0.0		142.53617514393227	
20.0	120.39982812335393	pulse	1.0	t		25.0	female	west_asian	2.6756864305610826	neutral	064	sub-15	1.0	6.0	064_neutral	0.0		143.23616316026028	
20.0	121.09982066751763	pulse	1.0	t		25.0	female	west_asian	2.6756864305610826	neutral	064	sub-15	1.0	6.0	064_neutral	0.0		143.93615570442398	
21.0	121.25812195635126	face	0.0		147	31.0	male	west_asian	1.9538400318344609	neutral	070	sub-15	1.0	6.0	070_neutral	1.0	trustworthiness	144.0944569932576	1.2415769425697363
21.0	121.79981351353717	pulse	0.0	t		31.0	male	west_asian	1.9538400318344609	neutral	070	sub-15	1.0	6.0	070_neutral	1.0	trustworthiness	144.63614855044352	
21.0	122.499698898921	fix	1.0		177	31.0	male	west_asian	1.9538400318344609	neutral	070	sub-15	1.0	6.0	070_neutral	1.0	trustworthiness	145.33603393582734	1.4999600041173835
21.0	122.50755861811649	pulse	1.0	t		31.0	male	west_asian	1.9538400318344609	neutral	070	sub-15	1.0	6.0	070_neutral	1.0	trustworthiness	145.34389365502284	
21.0	123.19978199980005	pulse	1.0	t		31.0	male	west_asian	1.9538400318344609	neutral	070	sub-15	1.0	6.0	070_neutral	1.0	trustworthiness	146.0361170367064	
21.0	123.89976760128229	pulse	1.0	t		31.0	male	west_asian	1.9538400318344609	neutral	070	sub-15	1.0	6.0	070_neutral	1.0	trustworthiness	146.73610263818864	
21.0	123.99965890303838	rating	2.0		295	31.0	male	west_asian	1.9538400318344609	neutral	070	sub-15	1.0	6.0	070_neutral	1.0	trustworthiness	146.83599393994473	2.499955778137064
21.0	124.5997628621476	pulse	2.0	t		31.0	male	west_asian	1.9538400318344609	neutral	070	sub-15	1.0	6.0	070_neutral	1.0	trustworthiness	147.43609789905395	
21.0	125.29974755806279	pulse	2.0	t		31.0	male	west_asian	1.9538400318344609	neutral	070	sub-15	1.0	6.0	070_neutral	1.0	trustworthiness	148.13608259496914	
21.0	125.37473365006053	response	2.0	e		31.0	male	west_asian	1.9538400318344609	neutral	070	sub-15	1.0	6.0	070_neutral	1.0	trustworthiness	148.21106868696688	
21.0	125.99972893356471	pulse	2.0	t		31.0	male	west_asian	1.9538400318344609	neutral	070	sub-15	1.0	6.0	070_neutral	1.0	trustworthiness	148.83606397047106	
21.0	126.49961468117544	fix	3.0		443	31.0	male	west_asian	1.9538400318344609	neutral	070	sub-15	1.0	6.0	070_neutral	1.0	trustworthiness	149.3359497180818	3.7583285765904293
21.0	126.69972389257418	pulse	3.0	t		31.0	male	west_asian	1.9538400318344609	neutral	070	sub-15	1.0	6.0	070_neutral	1.0	trustworthiness	149.53605892948053	
21.0	127.39971583302668	pulse	3.0	t		31.0	male	west_asian	1.9538400318344609	neutral	070	sub-15	1.0	6.0	070_neutral	1.0	trustworthiness	150.23605086993302	
21.0	128.09966551367825	pulse	3.0	t		31.0	male	west_asian	1.9538400318344609	neutral	070	sub-15	1.0	6.0	070_neutral	1.0	trustworthiness	150.9360005505846	
21.0	128.79968522485706	pulse	3.0	t		31.0	male	west_asian	1.9538400318344609	neutral	070	sub-15	1.0	6.0	070_neutral	1.0	trustworthiness	151.6360202617634	
21.0	129.49966841149353	pulse	3.0	t		31.0	male	west_asian	1.9538400318344609	neutral	070	sub-15	1.0	6.0	070_neutral	1.0	trustworthiness	152.33600344839988	
21.0	130.1996506925625	pulse	3.0	t		31.0	male	west_asian	1.9538400318344609	neutral	070	sub-15	1.0	6.0	070_neutral	1.0	trustworthiness	153.03598572946885	
22.0	130.25794325776587	face	0.0		147	24.0	male	white	3.1153999204138483	neutral	012	sub-15	1.0	6.0	012_neutral	1.0	attractiveness	153.09427829467222	1.241585696385755
22.0	130.89964806641774	pulse	0.0	t		24.0	male	white	3.1153999204138483	neutral	012	sub-15	1.0	6.0	012_neutral	1.0	attractiveness	153.7359831033241	
22.0	131.49952895415163	fix	1.0		177	24.0	male	white	3.1153999204138483	neutral	012	sub-15	1.0	6.0	012_neutral	1.0	attractiveness	154.33586399105798	1.4999763043260828
22.0	131.59964061058145	pulse	1.0	t		24.0	male	white	3.1153999204138483	neutral	012	sub-15	1.0	6.0	012_neutral	1.0	attractiveness	154.4359756474878	
22.0	132.29962379721837	pulse	1.0	t		24.0	male	white	3.1153999204138483	neutral	012	sub-15	1.0	6.0	012_neutral	1.0	attractiveness	155.13595883412472	
22.0	132.9995052584777	rating	2.0		294	24.0	male	white	3.1153999204138483	neutral	012	sub-15	1.0	6.0	012_neutral	1.0	attractiveness	155.83584029538406	2.4999515521571993
22.0	133.00735562014597	pulse	2.0	t		24.0	male	white	3.1153999204138483	neutral	012	sub-15	1.0	6.0	012_neutral	1.0	attractiveness	155.84369065705232	
22.0	133.69961884678423	pulse	2.0	t		24.0	male	white	3.1153999204138483	neutral	012	sub-15	1.0	6.0	012_neutral	1.0	attractiveness	156.53595388369058	
22.0	134.299586367109	response	2.0	y		24.0	male	white	3.1153999204138483	neutral	012	sub-15	1.0	6.0	012_neutral	1.0	attractiveness	157.13592140401533	
22.0	134.39958603506784	pulse	2.0	t		24.0	male	white	3.1153999204138483	neutral	012	sub-15	1.0	6.0	012_neutral	1.0	attractiveness	157.2359210719742	
22.0	135.09956831613727	pulse	2.0	t		24.0	male	white	3.1153999204138483	neutral	012	sub-15	1.0	6.0	012_neutral	1.0	attractiveness	157.9359033530436	
22.0	135.4994568106349	fix	3.0		444	24.0	male	white	3.1153999204138483	neutral	012	sub-15	1.0	6.0	012_neutral	1.0	attractiveness	158.33579184754126	3.7583340099931775
22.0	135.7995641807138	pulse	3.0	t		24.0	male	white	3.1153999204138483	neutral	012	sub-15	1.0	6.0	012_neutral	1.0	attractiveness	158.63589921762014	
22.0	136.4995476692061	pulse	3.0	t		24.0	male	white	3.1153999204138483	neutral	012	sub-15	1.0	6.0	012_neutral	1.0	attractiveness	159.33588270611244	
22.0	137.19953417625538	pulse	3.0	t		24.0	male	white	3.1153999204138483	neutral	012	sub-15	1.0	6.0	012_neutral	1.0	attractiveness	160.03586921316173	
22.0	137.8995221925834	pulse	3.0	t		24.0	male	white	3.1153999204138483	neutral	012	sub-15	1.0	6.0	012_neutral	1.0	attractiveness	160.73585722948974	
22.0	138.59951171819012	pulse	3.0	t		24.0	male	white	3.1153999204138483	neutral	012	sub-15	1.0	6.0	012_neutral	1.0	attractiveness	161.43584675509646	
23.0	139.2577908206281	face	0.0		146	32.0	male	white	2.389176283326701	smiling	092	sub-15	1.0	6.0	092_smiling	0.0		162.09412585753444	1.2415796592713377
23.0	139.29958878195475	pulse	0.0	t		32.0	male	white	2.389176283326701	smiling	092	sub-15	1.0	6.0	092_smiling	0.0		162.1359238188611	
23.0	139.9994820155871	pulse	0.0	t		32.0	male	white	2.389176283326701	smiling	092	sub-15	1.0	6.0	092_smiling	0.0		162.83581705249344	
23.0	140.49937047989943	fix	1.0		443	32.0	male	white	2.389176283326701	smiling	092	sub-15	1.0	6.0	092_smiling	0.0		163.33570551680577	3.7582627720435084
23.0	140.69948150243272	pulse	1.0	t		32.0	male	white	2.389176283326701	smiling	092	sub-15	1.0	6.0	092_smiling	0.0		163.53581653933907	
23.0	141.3994619723676	pulse	1.0	t		32.0	male	white	2.389176283326701	smiling	092	sub-15	1.0	6.0	092_smiling	0.0		164.23579700927394	
23.0	142.0994517998297	pulse	1.0	t		32.0	male	white	2.389176283326701	smiling	092	sub-15	1.0	6.0	092_smiling	0.0		164.93578683673604	
23.0	142.79943649574489	pulse	1.0	t		32.0	male	white	2.389176283326701	smiling	092	sub-15	1.0	6.0	092_smiling	0.0		165.63577153265123	
23.0	143.49942481392873	pulse	1.0	t		32.0	male	white	2.389176283326701	smiling	092	sub-15	1.0	6.0	092_smiling	0.0		166.33575985083507	
23.0	144.19941222654506	pulse	1.0	t		32.0	male	white	2.389176283326701	smiling	092	sub-15	1.0	6.0	092_smiling	0.0		167.0357472634514	
24.0	144.25763325194293	face	0.0		147	24.0	female	east_asian	4.409868682849185	neutral	030	sub-15	1.0	6.0	030_neutral	0.0		167.09396828884928	1.2416379174251233
24.0	144.89940265771884	pulse	0.0	t		24.0	female	east_asian	4.409868682849185	neutral	030	sub-15	1.0	6.0	030_neutral	0.0		167.7357376946252	
24.0	145.49927116936806	fix	1.0		443	24.0	female	east_asian	4.409868682849185	neutral	030	sub-15	1.0	6.0	030_neutral	0.0		168.3356062062744	3.7666111956473287
24.0	145.5993949000267	pulse	1.0	t		24.0	female	east_asian	4.409868682849185	neutral	030	sub-15	1.0	6.0	030_neutral	0.0		168.43572993693306	
24.0	146.29937416253915	pulse	1.0	t		24.0	female	east_asian	4.409868682849185	neutral	030	sub-15	1.0	6.0	030_neutral	0.0		169.1357091994455	
24.0	146.9993839124786	pulse	1.0	t		24.0	female	east_asian	4.409868682849185	neutral	030	sub-15	1.0	6.0	030_neutral	0.0		169.83571894938495	
24.0	147.69936196756817	pulse	1.0	t		24.0	female	east_asian	4.409868682849185	neutral	030	sub-15	1.0	6.0	030_neutral	0.0		170.5356970044745	
24.0	148.3993342873987	pulse	1.0	t		24.0	female	east_asian	4.409868682849185	neutral	030	sub-15	1.0	6.0	030_neutral	0.0		171.23566932430504	
24.0	149.0993238130054	pulse	1.0	t		24.0	female	east_asian	4.409868682849185	neutral	030	sub-15	1.0	6.0	030_neutral	0.0		171.93565884991176	
25.0	149.2658823650154	face	0.0		146	19.0	male	white	3.2522881018702745	smiling	018	sub-15	1.0	6.0	018_smiling	0.0		172.10221740192173	1.2333109255773707
25.0	149.79931967758193	pulse	0.0	t		19.0	male	white	3.2522881018702745	smiling	018	sub-15	1.0	6.0	018_smiling	0.0		172.63565471448828	
25.0	150.49919329059276	fix	1.0		444	19.0	male	white	3.2522881018702745	smiling	018	sub-15	1.0	6.0	018_smiling	0.0		173.3355283274991	3.7665855379113964
25.0	150.50677349139323	pulse	1.0	t		19.0	male	white	3.2522881018702745	smiling	018	sub-15	1.0	6.0	018_smiling	0.0		173.34310852829958	
25.0	151.19929118240225	pulse	1.0	t		19.0	male	white	3.2522881018702745	smiling	018	sub-15	1.0	6.0	018_smiling	0.0		174.0356262193086	
25.0	151.8992801042973	pulse	1.0	t		19.0	male	white	3.2522881018702745	smiling	018	sub-15	1.0	6.0	018_smiling	0.0		174.73561514120365	
25.0	152.5992666113466	pulse	1.0	t		19.0	male	white	3.2522881018702745	smiling	018	sub-15	1.0	6.0	018_smiling	0.0		175.43560164825294	
25.0	153.29924828870435	pulse	1.0	t		19.0	male	white	3.2522881018702745	smiling	018	sub-15	1.0	6.0	018_smiling	0.0		176.1355833256107	
25.0	153.99926679245982	pulse	1.0	t		19.0	male	white	3.2522881018702745	smiling	018	sub-15	1.0	6.0	018_smiling	0.0		176.83560182936617	
26.0	154.26577882850415	face	0.0		145	32.0	male	white	2.389176283326701	neutral	092	sub-15	1.0	6.0	092_neutral	0.0		177.1021138654105	1.2333284332084986
26.0	154.69923428259926	pulse	0.0	t		32.0	male	white	2.389176283326701	neutral	092	sub-15	1.0	6.0	092_neutral	0.0		177.5355693195056	
26.0	155.3992138469671	pulse	0.0	t		32.0	male	white	2.389176283326701	neutral	092	sub-15	1.0	6.0	092_neutral	0.0		178.23554888387343	
26.0	155.49910726171265	fix	1.0		445	32.0	male	white	2.389176283326701	neutral	092	sub-15	1.0	6.0	092_neutral	0.0		178.335442298619	3.7665782933745504
26.0	156.09920669298663	pulse	1.0	t		32.0	male	white	2.389176283326701	neutral	092	sub-15	1.0	6.0	092_neutral	0.0		178.93554172989298	
26.0	156.79919531302585	pulse	1.0	t		32.0	male	white	2.389176283326701	neutral	092	sub-15	1.0	6.0	092_neutral	0.0		179.6355303499322	
26.0	157.49918061265225	pulse	1.0	t		32.0	male	white	2.389176283326701	neutral	092	sub-15	1.0	6.0	092_neutral	0.0		180.3355156495586	
26.0	158.1991734586718	pulse	1.0	t		32.0	male	white	2.389176283326701	neutral	092	sub-15	1.0	6.0	092_neutral	0.0		181.03550849557814	
26.0	158.89915664530827	pulse	1.0	t		32.0	male	white	2.389176283326701	neutral	092	sub-15	1.0	6.0	092_neutral	0.0		181.73549168221462	
27.0	159.2656855550872	face	0.0		146	40.0	male	white	1.868682849184242	smiling	172	sub-15	1.0	6.0	172_smiling	0.0		182.10202059199355	1.2416671974292512
27.0	159.5991467746262	pulse	0.0	t		40.0	male	white	1.868682849184242	smiling	172	sub-15	1.0	6.0	172_smiling	0.0		182.43548181153255	
27.0	160.29912724456153	pulse	0.0	t		40.0	male	white	1.868682849184242	smiling	172	sub-15	1.0	6.0	172_smiling	0.0		183.13546228146788	
27.0	160.50735275251645	fix	1.0		444	40.0	male	white	1.868682849184242	smiling	172	sub-15	1.0	6.0	172_smiling	0.0		183.3436877894228	3.766599121418949
27.0	160.9991206942923	pulse	1.0	t		40.0	male	white	1.868682849184242	smiling	172	sub-15	1.0	6.0	172_smiling	0.0		183.83545573119864	
27.0	161.69911082361023	pulse	1.0	t		40.0	male	white	1.868682849184242	smiling	172	sub-15	1.0	6.0	172_smiling	0.0		184.53544586051657	
27.0	162.39907529519223	pulse	1.0	t		40.0	male	white	1.868682849184242	smiling	172	sub-15	1.0	6.0	172_smiling	0.0		185.23541033209858	
27.0	163.0990859506992	pulse	1.0	t		40.0	male	white	1.868682849184242	smiling	172	sub-15	1.0	6.0	172_smiling	0.0		185.93542098760554	
27.0	163.79909660620615	pulse	1.0	t		40.0	male	white	1.868682849184242	smiling	172	sub-15	1.0	6.0	172_smiling	0.0		186.6354316431125	
28.0	164.2739518739354	face	0.0		145	28.0	male	white	3.9076800636689217	neutral	033	sub-15	1.0	6.0	033_neutral	0.0		187.11028691084175	1.2333136422785174
28.0	164.49906258706642	pulse	0.0	t		28.0	male	white	3.9076800636689217	neutral	033	sub-15	1.0	6.0	033_neutral	0.0		187.33539762397277	
28.0	165.19905332009603	pulse	0.0	t		28.0	male	white	3.9076800636689217	neutral	033	sub-15	1.0	6.0	033_neutral	0.0		188.03538835700238	
28.0	165.50726551621392	fix	1.0		444	28.0	male	white	3.9076800636689217	neutral	033	sub-15	1.0	6.0	033_neutral	0.0		188.34360055312027	3.758266092456779
28.0	165.89903620487667	pulse	1.0	t		28.0	male	white	3.9076800636689217	neutral	033	sub-15	1.0	6.0	033_neutral	0.0		188.735371241783	
28.0	166.5990263341946	pulse	1.0	t		28.0	male	white	3.9076800636689217	neutral	033	sub-15	1.0	6.0	033_neutral	0.0		189.43536137110095	
28.0	167.2990092189757	pulse	1.0	t		28.0	male	white	3.9076800636689217	neutral	033	sub-15	1.0	6.0	033_neutral	0.0		190.13534425588205	
28.0	167.99899512231332	pulse	1.0	t		28.0	male	white	3.9076800636689217	neutral	033	sub-15	1.0	6.0	033_neutral	0.0		190.83533015921967	
28.0	168.69898585534293	pulse	1.0	t		28.0	male	white	3.9076800636689217	neutral	033	sub-15	1.0	6.0	033_neutral	0.0		191.53532089224927	
29.0	169.2655316086707	face	0.0		146	19.0	male	white	3.2522881018702745	neutral	018	sub-15	1.0	6.0	018_neutral	0.0		192.10186664557705	1.2416448601065895
29.0	169.39897839950663	pulse	0.0	t		19.0	male	white	3.2522881018702745	neutral	018	sub-15	1.0	6.0	018_neutral	0.0		192.23531343641298	
29.0	170.0989528323271	pulse	0.0	t		19.0	male	white	3.2522881018702745	neutral	018	sub-15	1.0	6.0	018_neutral	0.0		192.93528786923343	
29.0	170.5071764687773	fix	1.0		444	19.0	male	white	3.2522881018702745	neutral	018	sub-15	1.0	6.0	018_neutral	0.0		193.34351150568364	3.7582754499835573
29.0	170.7989770713416	pulse	1.0	t		19.0	male	white	3.2522881018702745	neutral	018	sub-15	1.0	6.0	018_neutral	0.0		193.63531210824794	
29.0	171.498938826222	pulse	1.0	t		19.0	male	white	3.2522881018702745	neutral	018	sub-15	1.0	6.0	018_neutral	0.0		194.33527386312835	
29.0	172.1989235221372	pulse	1.0	t		19.0	male	white	3.2522881018702745	neutral	018	sub-15	1.0	6.0	018_neutral	0.0		195.03525855904354	
29.0	172.89890791619655	pulse	1.0	t		19.0	male	white	3.2522881018702745	neutral	018	sub-15	1.0	6.0	018_neutral	0.0		195.7352429531029	
29.0	173.5988998566486	pulse	1.0	t		19.0	male	white	3.2522881018702745	neutral	018	sub-15	1.0	6.0	018_neutral	0.0		196.43523489355493	
30.0	174.26545191876085	face	0.0		146	24.0	female	east_asian	4.409868682849185	smiling	030	sub-15	1.0	6.0	030_smiling	1.0	dominance	197.1017869556672	1.2416370118580744
30.0	174.29889300452396	pulse	0.0	t		24.0	female	east_asian	4.409868682849185	smiling	030	sub-15	1.0	6.0	030_smiling	1.0	dominance	197.1352280414303	
30.0	174.9988758893046	pulse	0.0	t		24.0	female	east_asian	4.409868682849185	smiling	030	sub-15	1.0	6.0	030_smiling	1.0	dominance	197.83521092621095	
30.0	175.50708893061892	fix	1.0		177	24.0	female	east_asian	4.409868682849185	smiling	030	sub-15	1.0	6.0	030_smiling	1.0	dominance	198.34342396752527	1.499981737728831
30.0	175.69886571676716	pulse	1.0	t		24.0	female	east_asian	4.409868682849185	smiling	030	sub-15	1.0	6.0	030_smiling	1.0	dominance	198.5352007536735	
30.0	176.3988504126819	pulse	1.0	t		24.0	female	east_asian	4.409868682849185	smiling	030	sub-15	1.0	6.0	030_smiling	1.0	dominance	199.23518544958824	
30.0	177.00707066834775	rating	2.0		294	24.0	female	east_asian	4.409868682849185	smiling	030	sub-15	1.0	6.0	030_smiling	1.0	dominance	199.8434057052541	2.499949439167267
30.0	177.098845069836	pulse	2.0	t		24.0	female	east_asian	4.409868682849185	smiling	030	sub-15	1.0	6.0	030_smiling	1.0	dominance	199.93518010674234	
30.0	177.7988321805965	pulse	2.0	t		24.0	female	east_asian	4.409868682849185	smiling	030	sub-15	1.0	6.0	030_smiling	1.0	dominance	200.63516721750284	
30.0	178.3935739747244	response	2.0	y		24.0	female	east_asian	4.409868682849185	smiling	030	sub-15	1.0	6.0	030_smiling	1.0	dominance	201.22990901163075	
30.0	178.49881355609887	pulse	2.0	t		24.0	female	east_asian	4.409868682849185	smiling	030	sub-15	1.0	6.0	030_smiling	1.0	dominance	201.33514859300521	
30.0	179.19879432788957	pulse	2.0	t		24.0	female	east_asian	4.409868682849185	smiling	030	sub-15	1.0	6.0	030_smiling	1.0	dominance	202.03512936479592	
30.0	179.50702010751502	fix	3.0		444	24.0	female	east_asian	4.409868682849185	smiling	030	sub-15	1.0	6.0	030_smiling	1.0	dominance	202.34335514442137	3.7665958010056784
30.0	179.8987889850432	pulse	3.0	t		24.0	female	east_asian	4.409868682849185	smiling	030	sub-15	1.0	6.0	030_smiling	1.0	dominance	202.73512402194956	
30.0	180.59877730322705	pulse	3.0	t		24.0	female	east_asian	4.409868682849185	smiling	030	sub-15	1.0	6.0	030_smiling	1.0	dominance	203.4351123401334	
30.0	181.29876079171936	pulse	3.0	t		24.0	female	east_asian	4.409868682849185	smiling	030	sub-15	1.0	6.0	030_smiling	1.0	dominance	204.1350958286257	
30.0	181.99878563444508	pulse	3.0	t		24.0	female	east_asian	4.409868682849185	smiling	030	sub-15	1.0	6.0	030_smiling	1.0	dominance	204.83512067135143	
30.0	182.69874255963396	pulse	3.0	t		24.0	female	east_asian	4.409868682849185	smiling	030	sub-15	1.0	6.0	030_smiling	1.0	dominance	205.5350775965403	
31.0	183.2736159085207	face	0.0		145	24.0	female	black	3.0955033824114606	neutral	099	sub-15	1.0	6.0	099_neutral	0.0		206.10995094542704	1.2333070014528857
31.0	183.3987595541107	pulse	0.0	t		24.0	female	black	3.0955033824114606	neutral	099	sub-15	1.0	6.0	099_neutral	0.0		206.23509459101706	
31.0	184.09870983847395	pulse	0.0	t		24.0	female	black	3.0955033824114606	neutral	099	sub-15	1.0	6.0	099_neutral	0.0		206.9350448753803	
31.0	184.50692290997358	fix	1.0		444	24.0	female	black	3.0955033824114606	neutral	099	sub-15	1.0	6.0	099_neutral	0.0		207.34325794687993	3.758256131217877
31.0	184.7987054011951	pulse	1.0	t		24.0	female	black	3.0955033824114606	neutral	099	sub-15	1.0	6.0	099_neutral	0.0		207.63504043810144	
31.0	185.4987030769057	pulse	1.0	t		24.0	female	black	3.0955033824114606	neutral	099	sub-15	1.0	6.0	099_neutral	0.0		208.33503811381206	
31.0	186.19867479302502	pulse	1.0	t		24.0	female	black	3.0955033824114606	neutral	099	sub-15	1.0	6.0	099_neutral	0.0		209.03500982993137	
31.0	186.8986679409004	pulse	1.0	t		24.0	female	black	3.0955033824114606	neutral	099	sub-15	1.0	6.0	099_neutral	0.0		209.73500297780674	
31.0	187.59865233495975	pulse	1.0	t		24.0	female	black	3.0955033824114606	neutral	099	sub-15	1.0	6.0	099_neutral	0.0		210.4349873718661	
32.0	188.26517904119146	face	0.0		146	21.0	male	east_asian/white	3.501790688420215	smiling	036	sub-15	1.0	6.0	036_smiling	0.0		211.1015140780978	1.2416641788727247
32.0	188.29866963129234	pulse	0.0	t		21.0	male	east_asian/white	3.501790688420215	smiling	036	sub-15	1.0	6.0	036_smiling	0.0		211.1350046681987	
32.0	188.9986428566899	pulse	0.0	t		21.0	male	east_asian/white	3.501790688420215	smiling	036	sub-15	1.0	6.0	036_smiling	0.0		211.83497789359626	
32.0	189.50684322006418	fix	1.0		443	21.0	male	east_asian/white	3.501790688420215	smiling	036	sub-15	1.0	6.0	036_smiling	0.0		212.34317825697053	3.7582636776105574
32.0	189.69861759136666	pulse	1.0	t		21.0	male	east_asian/white	3.501790688420215	smiling	036	sub-15	1.0	6.0	036_smiling	0.0		212.534952628273	
32.0	190.39860258913723	pulse	1.0	t		21.0	male	east_asian/white	3.501790688420215	smiling	036	sub-15	1.0	6.0	036_smiling	0.0		213.23493762604357	
32.0	191.09858819061947	pulse	1.0	t		21.0	male	east_asian/white	3.501790688420215	smiling	036	sub-15	1.0	6.0	036_smiling	0.0		213.93492322752581	
32.0	191.7986072980866	pulse	1.0	t		21.0	male	east_asian/white	3.501790688420215	smiling	036	sub-15	1.0	6.0	036_smiling	0.0		214.63494233499296	
32.0	192.49856844925534	pulse	1.0	t		21.0	male	east_asian/white	3.501790688420215	smiling	036	sub-15	1.0	6.0	036_smiling	0.0		215.3349034861617	
32.0	193.19854952290189	pulse	1.0	t		21.0	male	east_asian/white	3.501790688420215	smiling	036	sub-15	1.0	6.0	036_smiling	0.0		216.03488455980823	
33.0	193.26510689767474	face	0.0		147	31.0	female	west_asian	2.364902506963788	neutral	006	sub-15	1.0	6.0	006_neutral	0.0		216.1014419345811	1.2416508972210067
33.0	193.8985553487173	pulse	0.0	t		31.0	female	west_asian	2.364902506963788	neutral	006	sub-15	1.0	6.0	006_neutral	0.0		216.73489038562366	
33.0	194.50675779489575	fix	1.0		443	31.0	female	west_asian	2.364902506963788	neutral	006	sub-15	1.0	6.0	006_neutral	0.0		217.3430928318021	3.7582672998792077
33.0	194.59853612050802	pulse	1.0	t		31.0	female	west_asian	2.364902506963788	neutral	006	sub-15	1.0	6.0	006_neutral	0.0		217.43487115741436	
33.0	195.29853922962184	pulse	1.0	t		31.0	female	west_asian	2.364902506963788	neutral	006	sub-15	1.0	6.0	006_neutral	0.0		218.1348742665282	
33.0	195.99850702161666	pulse	1.0	t		31.0	female	west_asian	2.364902506963788	neutral	006	sub-15	1.0	6.0	006_neutral	0.0		218.834842058523	
33.0	196.69847481361148	pulse	1.0	t		31.0	female	west_asian	2.364902506963788	neutral	006	sub-15	1.0	6.0	006_neutral	0.0		219.53480985051783	
33.0	197.3985023730388	pulse	1.0	t		31.0	female	west_asian	2.364902506963788	neutral	006	sub-15	1.0	6.0	006_neutral	0.0		220.23483740994516	
33.0	198.09846382606338	pulse	1.0	t		31.0	female	west_asian	2.364902506963788	neutral	006	sub-15	1.0	6.0	006_neutral	0.0		220.93479886296973	
34.0	198.26502509477496	face	0.0		147	28.0	male	east_asian	1.5563072025467568	smiling	005	sub-15	1.0	6.0	005_smiling	0.0		221.1013601316813	1.2499790964916428
34.0	198.79847931126187	pulse	0.0	t		28.0	male	east_asian	1.5563072025467568	smiling	005	sub-15	1.0	6.0	005_smiling	0.0		221.63481434816822	
34.0	199.49844348098804	pulse	0.0	t		28.0	male	east_asian	1.5563072025467568	smiling	005	sub-15	1.0	6.0	005_smiling	0.0		222.3347785178944	
34.0	199.5150041912666	fix	1.0		443	28.0	male	east_asian	1.5563072025467568	smiling	005	sub-15	1.0	6.0	005_smiling	0.0		222.35133922817295	3.750058333617744
34.0	200.19843270473893	pulse	1.0	t		28.0	male	east_asian	1.5563072025467568	smiling	005	sub-15	1.0	6.0	005_smiling	0.0		223.03476774164528	
34.0	200.89842102292278	pulse	1.0	t		28.0	male	east_asian	1.5563072025467568	smiling	005	sub-15	1.0	6.0	005_smiling	0.0		223.73475605982912	
34.0	201.5984057188375	pulse	1.0	t		28.0	male	east_asian	1.5563072025467568	smiling	005	sub-15	1.0	6.0	005_smiling	0.0		224.43474075574386	
34.0	202.29839735743417	pulse	1.0	t		28.0	male	east_asian	1.5563072025467568	smiling	005	sub-15	1.0	6.0	005_smiling	0.0		225.13473239434052	
34.0	202.99838356262808	pulse	1.0	t		28.0	male	east_asian	1.5563072025467568	smiling	005	sub-15	1.0	6.0	005_smiling	0.0		225.83471859953443	
35.0	203.26506252488434	face	0.0		146	31.0	female	east_asian	3.395941106247513	smiling	087	sub-15	1.0	6.0	087_smiling	0.0		226.1013975617907	1.2415057046200673
35.0	203.69837248452313	pulse	0.0	t		31.0	female	east_asian	3.395941106247513	smiling	087	sub-15	1.0	6.0	087_smiling	0.0		226.53470752142948	
35.0	204.39836623610972	pulse	0.0	t		31.0	female	east_asian	3.395941106247513	smiling	087	sub-15	1.0	6.0	087_smiling	0.0		227.23470127301607	
35.0	204.5065682295044	fix	1.0		444	31.0	female	east_asian	3.395941106247513	smiling	087	sub-15	1.0	6.0	087_smiling	0.0		227.34290326641076	3.758323445043061
35.0	205.0983512338803	pulse	1.0	t		31.0	female	east_asian	3.395941106247513	smiling	087	sub-15	1.0	6.0	087_smiling	0.0		227.93468627078664	
35.0	205.79833351494972	pulse	1.0	t		31.0	female	east_asian	3.395941106247513	smiling	087	sub-15	1.0	6.0	087_smiling	0.0		228.63466855185607	
35.0	206.49832485169054	pulse	1.0	t		31.0	female	east_asian	3.395941106247513	smiling	087	sub-15	1.0	6.0	087_smiling	0.0		229.3346598885969	
35.0	207.1983119624515	pulse	1.0	t		31.0	female	east_asian	3.395941106247513	smiling	087	sub-15	1.0	6.0	087_smiling	0.0		230.03464699935785	
35.0	207.89829303609804	pulse	1.0	t		31.0	female	east_asian	3.395941106247513	smiling	087	sub-15	1.0	6.0	087_smiling	0.0		230.7346280730044	
36.0	208.26489167454747	face	0.0		146	34.0	male	white	2.651014723438122	neutral	121	sub-15	1.0	6.0	121_neutral	0.0		231.10122671145382	1.2416022984502888
36.0	208.5982898062416	pulse	0.0	t		34.0	male	white	2.651014723438122	neutral	121	sub-15	1.0	6.0	121_neutral	0.0		231.43462484314796	
36.0	209.29827842628129	pulse	0.0	t		34.0	male	white	2.651014723438122	neutral	121	sub-15	1.0	6.0	121_neutral	0.0		232.13461346318763	
36.0	209.50649397299776	fix	1.0		444	34.0	male	white	2.651014723438122	neutral	121	sub-15	1.0	6.0	121_neutral	0.0		232.3428290099041	3.7582648850338956
36.0	209.99826282034064	pulse	1.0	t		34.0	male	white	2.651014723438122	neutral	121	sub-15	1.0	6.0	121_neutral	0.0		232.834597857247	
36.0	210.69825053481281	pulse	1.0	t		34.0	male	white	2.651014723438122	neutral	121	sub-15	1.0	6.0	121_neutral	0.0		233.53458557171916	
36.0	211.39823583443922	pulse	1.0	t		34.0	male	white	2.651014723438122	neutral	121	sub-15	1.0	6.0	121_neutral	0.0		234.23457087134557	
36.0	212.0982217377773	pulse	1.0	t		34.0	male	white	2.651014723438122	neutral	121	sub-15	1.0	6.0	121_neutral	0.0		234.93455677468364	
36.0	212.79821126338402	pulse	1.0	t		34.0	male	white	2.651014723438122	neutral	121	sub-15	1.0	6.0	121_neutral	0.0		235.63454630029037	
37.0	213.26475885803166	face	0.0		146	25.0	female	west_asian	2.6756864305610826	smiling	064	sub-15	1.0	6.0	064_smiling	0.0		236.101093894938	1.2416460675290182
37.0	213.4982113539404	pulse	0.0	t		25.0	female	west_asian	2.6756864305610826	smiling	064	sub-15	1.0	6.0	064_smiling	0.0		236.33454639084675	
37.0	214.19818125892562	pulse	0.0	t		25.0	female	west_asian	2.6756864305610826	smiling	064	sub-15	1.0	6.0	064_smiling	0.0		237.03451629583196	
37.0	214.50640492556067	fix	1.0		444	25.0	female	west_asian	2.6756864305610826	smiling	064	sub-15	1.0	6.0	064_smiling	0.0		237.34273996246702	3.75826518688973
37.0	214.89817742535797	pulse	1.0	t		25.0	female	west_asian	2.6756864305610826	smiling	064	sub-15	1.0	6.0	064_smiling	0.0		237.73451246226432	
37.0	215.5981642342631	pulse	1.0	t		25.0	female	west_asian	2.6756864305610826	smiling	064	sub-15	1.0	6.0	064_smiling	0.0		238.43449927116944	
37.0	216.29816975822268	pulse	1.0	t		25.0	female	west_asian	2.6756864305610826	smiling	064	sub-15	1.0	6.0	064_smiling	0.0		239.13450479512903	
37.0	216.99814871887884	pulse	1.0	t		25.0	female	west_asian	2.6756864305610826	smiling	064	sub-15	1.0	6.0	064_smiling	0.0		239.8344837557852	
37.0	217.6981285851025	pulse	1.0	t		25.0	female	west_asian	2.6756864305610826	smiling	064	sub-15	1.0	6.0	064_smiling	0.0		240.53446362200884	
38.0	218.2646701124504	face	0.0		146	27.0	female	white	3.504576203740549	neutral	144	sub-15	1.0	6.0	144_neutral	0.0		241.10100514935675	1.2416361062905708
38.0	218.398120525555	pulse	0.0	t		27.0	female	white	3.504576203740549	neutral	144	sub-15	1.0	6.0	144_neutral	0.0		241.23445556246133	
38.0	219.09809707136583	pulse	0.0	t		27.0	female	white	3.504576203740549	neutral	144	sub-15	1.0	6.0	144_neutral	0.0		241.93443210827218	
38.0	219.50630621874097	fix	1.0		444	27.0	female	white	3.504576203740549	neutral	144	sub-15	1.0	6.0	144_neutral	0.0		242.34264125564732	3.758291448336877
38.0	219.79809233223068	pulse	1.0	t		27.0	female	white	3.504576203740549	neutral	144	sub-15	1.0	6.0	144_neutral	0.0		242.63442736913703	
38.0	220.49807612257882	pulse	1.0	t		27.0	female	white	3.504576203740549	neutral	144	sub-15	1.0	6.0	144_neutral	0.0		243.33441115948517	
38.0	221.1980611203494	pulse	1.0	t		27.0	female	white	3.504576203740549	neutral	144	sub-15	1.0	6.0	144_neutral	0.0		244.03439615725574	
38.0	221.8980675498765	pulse	1.0	t		27.0	female	white	3.504576203740549	neutral	144	sub-15	1.0	6.0	144_neutral	0.0		244.73440258678283	
38.0	222.5980425864086	pulse	1.0	t		27.0	female	white	3.504576203740549	neutral	144	sub-15	1.0	6.0	144_neutral	0.0		245.43437762331496	
39.0	223.26459766707785	face	0.0		146	47.0	male	east_asian	2.171110226820533	neutral	024	sub-15	1.0	6.0	024_neutral	1.0	trustworthiness	246.1009327039842	1.2416336914448038
39.0	223.29806109016408	pulse	0.0	t		47.0	male	east_asian	2.171110226820533	neutral	024	sub-15	1.0	6.0	024_neutral	1.0	trustworthiness	246.13439612707043	
39.0	223.99801137452732	pulse	0.0	t		47.0	male	east_asian	2.171110226820533	neutral	024	sub-15	1.0	6.0	024_neutral	1.0	trustworthiness	246.83434641143367	
39.0	224.50623135852265	fix	1.0		177	47.0	male	east_asian	2.171110226820533	neutral	024	sub-15	1.0	6.0	024_neutral	1.0	trustworthiness	247.342566395429	1.4999750969031993
39.0	224.69800874838256	pulse	1.0	t		47.0	male	east_asian	2.171110226820533	neutral	024	sub-15	1.0	6.0	024_neutral	1.0	trustworthiness	247.5343437852889	
39.0	225.3979916331632	pulse	1.0	t		47.0	male	east_asian	2.171110226820533	neutral	024	sub-15	1.0	6.0	024_neutral	1.0	trustworthiness	248.23432667006955	
39.0	226.00620645542585	rating	2.0		294	47.0	male	east_asian	2.171110226820533	neutral	024	sub-15	1.0	6.0	024_neutral	1.0	trustworthiness	248.8425414923322	2.4999569855604022
39.0	226.09799051629716	pulse	2.0	t		47.0	male	east_asian	2.171110226820533	neutral	024	sub-15	1.0	6.0	024_neutral	1.0	trustworthiness	248.9343255532035	
39.0	226.7979734010778	pulse	2.0	t		47.0	male	east_asian	2.171110226820533	neutral	024	sub-15	1.0	6.0	024_neutral	1.0	trustworthiness	249.63430843798415	
39.0	227.49796232297285	pulse	2.0	t		47.0	male	east_asian	2.171110226820533	neutral	024	sub-15	1.0	6.0	024_neutral	1.0	trustworthiness	250.3342973598792	
39.0	227.68127748962297	response	2.0	b		47.0	male	east_asian	2.171110226820533	neutral	024	sub-15	1.0	6.0	024_neutral	1.0	trustworthiness	250.51761252652932	
39.0	228.19793102053472	pulse	2.0	t		47.0	male	east_asian	2.171110226820533	neutral	024	sub-15	1.0	6.0	024_neutral	1.0	trustworthiness	251.03426605744107	
39.0	228.50616344098626	fix	3.0		444	47.0	male	east_asian	2.171110226820533	neutral	024	sub-15	1.0	6.0	024_neutral	1.0	trustworthiness	251.3424984778926	3.7499303467930076
39.0	228.89793080923573	pulse	3.0	t		47.0	male	east_asian	2.171110226820533	neutral	024	sub-15	1.0	6.0	024_neutral	1.0	trustworthiness	251.73426584614208	
39.0	229.59790795875824	pulse	3.0	t		47.0	male	east_asian	2.171110226820533	neutral	024	sub-15	1.0	6.0	024_neutral	1.0	trustworthiness	252.4342429956646	
39.0	230.29791861426474	pulse	3.0	t		47.0	male	east_asian	2.171110226820533	neutral	024	sub-15	1.0	6.0	024_neutral	1.0	trustworthiness	253.1342536511711	
39.0	230.99788308584675	pulse	3.0	t		47.0	male	east_asian	2.171110226820533	neutral	024	sub-15	1.0	6.0	024_neutral	1.0	trustworthiness	253.8342181227531	
39.0	231.69787834671206	pulse	3.0	t		47.0	male	east_asian	2.171110226820533	neutral	024	sub-15	1.0	6.0	024_neutral	1.0	trustworthiness	254.5342133836184	
40.0	232.25609378777926	fix	0.0		720													255.0924288246856	5.9998916337967785
40.0	232.39787451314442	pulse	0.0	t														255.23420955005076	
40.0	233.09787037772094	pulse	0.0	t														255.9342054146273	
40.0	233.79786382745215	pulse	0.0	t														256.6341988643585	
40.0	234.49783343058107	pulse	0.0	t														257.3341684674874	
40.0	235.19781239123768	pulse	0.0	t														258.034147428144	
40.0	235.89780402983433	pulse	0.0	t														258.7341390667407	
40.0	236.59779325358522	pulse	0.0	t														259.43412829049157	
40.0	237.29778459032605	pulse	0.0	t														260.1341196272324	
40.0	237.99777170108655	pulse	0.0	t														260.8341067379929	
