trial_nr	onset	event_type	phase	response	nr_frames	face_age	face_sex	face_eth	attractiveness	expression	face_id	sub_id	ses	run	trial_type	catch	rating_type	onset_abs	duration
-1.0	0.05550083598700439	fix	0.0		714													26.097189399704348	5.965341332887874
-1.0	0.7044062651775675	pulse	0.0	t														26.74609482889491	
-1.0	1.4043794906560834	pulse	0.0	t														27.446068054373427	
-1.0	2.1043590550857516	pulse	0.0	t														28.146047618803095	
-1.0	2.804346467740288	pulse	0.0	t														28.84603503145763	
-1.0	3.5043314655563336	pulse	0.0	t														29.546020029273677	
-1.0	4.204429055215314	pulse	0.0	t														30.246117618932658	
-1.0	4.904314139090275	pulse	0.0	t														30.94600270280762	
-1.0	5.604304570293152	pulse	0.0	t														31.645993134010496	
0.0	6.0208421688748786	face	0.0		144	24.0	female	east_asian	2.9076800636689217	smiling	034	sub-03	2.0	4.0	034_smiling	0.0		32.06253073259222	1.2333159565582719
0.0	6.304291982947689	pulse	0.0	t		24.0	female	east_asian	2.9076800636689217	smiling	034	sub-03	2.0	4.0	034_smiling	0.0		32.34598054666503	
0.0	7.004269434393336	pulse	0.0	t		24.0	female	east_asian	2.9076800636689217	smiling	034	sub-03	2.0	4.0	034_smiling	0.0		33.04595799811068	
0.0	7.25415812543315	fix	1.0		445	24.0	female	east_asian	2.9076800636689217	smiling	034	sub-03	2.0	4.0	034_smiling	0.0		33.295846689150494	3.7582363348064973
0.0	7.704258960031439	pulse	1.0	t		24.0	female	east_asian	2.9076800636689217	smiling	034	sub-03	2.0	4.0	034_smiling	0.0		33.74594752374878	
0.0	8.404238222606182	pulse	1.0	t		24.0	female	east_asian	2.9076800636689217	smiling	034	sub-03	2.0	4.0	034_smiling	0.0		34.445926786323525	
0.0	9.104222918567757	pulse	1.0	t		24.0	female	east_asian	2.9076800636689217	smiling	034	sub-03	2.0	4.0	034_smiling	0.0		35.1459114822851	
0.0	9.804207614528877	pulse	1.0	t		24.0	female	east_asian	2.9076800636689217	smiling	034	sub-03	2.0	4.0	034_smiling	0.0		35.84589617824622	
0.0	10.50419955500547	pulse	1.0	t		24.0	female	east_asian	2.9076800636689217	smiling	034	sub-03	2.0	4.0	034_smiling	0.0		36.545888118722814	
1.0	11.012394460239648	face	0.0		146	21.0	male	east_asian/white	3.501790688420215	neutral	036	sub-03	2.0	4.0	036_neutral	0.0		37.05408302395699	1.2416399047224331
1.0	11.204198438142612	pulse	0.0	t		21.0	male	east_asian/white	3.501790688420215	neutral	036	sub-03	2.0	4.0	036_neutral	0.0		37.245887001859955	
1.0	11.904153250477975	pulse	0.0	t		21.0	male	east_asian/white	3.501790688420215	neutral	036	sub-03	2.0	4.0	036_neutral	0.0		37.94584181419532	
1.0	12.25403436496208	fix	1.0		445	21.0	male	east_asian/white	3.501790688420215	neutral	036	sub-03	2.0	4.0	036_neutral	0.0		38.295722928679425	3.758255653514425
1.0	12.604159679985514	pulse	1.0	t		21.0	male	east_asian/white	3.501790688420215	neutral	036	sub-03	2.0	4.0	036_neutral	0.0		38.64584824370286	
1.0	13.304125660948557	pulse	1.0	t		21.0	male	east_asian/white	3.501790688420215	neutral	036	sub-03	2.0	4.0	036_neutral	0.0		39.3458142246659	
1.0	14.004110356910132	pulse	1.0	t		21.0	male	east_asian/white	3.501790688420215	neutral	036	sub-03	2.0	4.0	036_neutral	0.0		40.045798920627476	
1.0	14.704090826904121	pulse	1.0	t		21.0	male	east_asian/white	3.501790688420215	neutral	036	sub-03	2.0	4.0	036_neutral	0.0		40.745779390621465	
1.0	15.404080352542223	pulse	1.0	t		21.0	male	east_asian/white	3.501790688420215	neutral	036	sub-03	2.0	4.0	036_neutral	0.0		41.44576891625957	
2.0	16.012290018476506	face	0.0		146	20.0	female	white	3.9502586549940313	neutral	091	sub-03	2.0	4.0	091_neutral	0.0		42.05397858219385	1.241647451092831
2.0	16.104084970920667	pulse	0.0	t		20.0	female	white	3.9502586549940313	neutral	091	sub-03	2.0	4.0	091_neutral	0.0		42.14577353463801	
2.0	16.804060611237674	pulse	0.0	t		20.0	female	white	3.9502586549940313	neutral	091	sub-03	2.0	4.0	091_neutral	0.0		42.84574917495502	
2.0	17.253937469569337	fix	1.0		445	20.0	female	white	3.9502586549940313	neutral	091	sub-03	2.0	4.0	091_neutral	0.0		43.29562603328668	3.7582438811764405
2.0	17.504041383086587	pulse	1.0	t		20.0	female	white	3.9502586549940313	neutral	091	sub-03	2.0	4.0	091_neutral	0.0		43.54572994680393	
2.0	18.204042982917144	pulse	1.0	t		20.0	female	white	3.9502586549940313	neutral	091	sub-03	2.0	4.0	091_neutral	0.0		44.24573154663449	
2.0	18.90401711395998	pulse	1.0	t		20.0	female	white	3.9502586549940313	neutral	091	sub-03	2.0	4.0	091_neutral	0.0		44.945705677677324	
2.0	19.603999395083065	pulse	1.0	t		20.0	female	white	3.9502586549940313	neutral	091	sub-03	2.0	4.0	091_neutral	0.0		45.64568795880041	
2.0	20.304039330473643	pulse	1.0	t		20.0	female	white	3.9502586549940313	neutral	091	sub-03	2.0	4.0	091_neutral	0.0		46.345727894190986	
3.0	21.012181350745777	face	0.0		146	37.0	male	white	3.898925586947871	smiling	101	sub-03	2.0	4.0	101_smiling	1.0	dominance	47.05386991446312	1.2416607327040765
3.0	21.004957663353707	pulse	0.0	t		37.0	male	white	3.898925586947871	smiling	101	sub-03	2.0	4.0	101_smiling	1.0	dominance	47.04664622707105	
3.0	21.703964953449486	pulse	0.0	t		37.0	male	white	3.898925586947871	smiling	101	sub-03	2.0	4.0	101_smiling	1.0	dominance	47.74565351716683	
3.0	22.253842083449854	fix	1.0		177	37.0	male	white	3.898925586947871	smiling	101	sub-03	2.0	4.0	101_smiling	1.0	dominance	48.2955306471672	1.5083268157850398
3.0	22.403948743846286	pulse	1.0	t		37.0	male	white	3.898925586947871	smiling	101	sub-03	2.0	4.0	101_smiling	1.0	dominance	48.44563730756363	
3.0	23.103926195291933	pulse	1.0	t		37.0	male	white	3.898925586947871	smiling	101	sub-03	2.0	4.0	101_smiling	1.0	dominance	49.14561475900928	
3.0	23.762168899234894	rating	2.0		293	37.0	male	white	3.898925586947871	smiling	101	sub-03	2.0	4.0	101_smiling	1.0	dominance	49.80385746295224	2.491587759304821
3.0	23.803930511815906	pulse	2.0	t		37.0	male	white	3.898925586947871	smiling	101	sub-03	2.0	4.0	101_smiling	1.0	dominance	49.84561907553325	
3.0	24.503908566971404	pulse	2.0	t		37.0	male	white	3.898925586947871	smiling	101	sub-03	2.0	4.0	101_smiling	1.0	dominance	50.54559713068875	
3.0	24.995553980544173	response	2.0	y		37.0	male	white	3.898925586947871	smiling	101	sub-03	2.0	4.0	101_smiling	1.0	dominance	51.03724254426152	
3.0	25.2038676052739	pulse	2.0	t		37.0	male	white	3.898925586947871	smiling	101	sub-03	2.0	4.0	101_smiling	1.0	dominance	51.24555616899124	
3.0	25.903873129217118	pulse	2.0	t		37.0	male	white	3.898925586947871	smiling	101	sub-03	2.0	4.0	101_smiling	1.0	dominance	51.94556169293446	
3.0	26.253756658539714	fix	3.0		444	37.0	male	white	3.898925586947871	smiling	101	sub-03	2.0	4.0	101_smiling	1.0	dominance	52.29544522225706	3.7582197327919857
3.0	26.603862353000295	pulse	3.0	t		37.0	male	white	3.898925586947871	smiling	101	sub-03	2.0	4.0	101_smiling	1.0	dominance	52.64555091671764	
3.0	27.303841313720113	pulse	3.0	t		37.0	male	white	3.898925586947871	smiling	101	sub-03	2.0	4.0	101_smiling	1.0	dominance	53.34552987743746	
3.0	28.00383265048731	pulse	3.0	t		37.0	male	white	3.898925586947871	smiling	101	sub-03	2.0	4.0	101_smiling	1.0	dominance	54.045521214204655	
3.0	28.703808592659243	pulse	3.0	t		37.0	male	white	3.898925586947871	smiling	101	sub-03	2.0	4.0	101_smiling	1.0	dominance	54.74549715637659	
3.0	29.403791779346648	pulse	3.0	t		37.0	male	white	3.898925586947871	smiling	101	sub-03	2.0	4.0	101_smiling	1.0	dominance	55.44548034306399	
4.0	30.0119763913317	face	0.0		146	22.0	female	west_asian	3.8205332272184642	smiling	066	sub-03	2.0	4.0	066_smiling	0.0		56.053664955049044	1.241674618025172
4.0	30.103778588291334	pulse	0.0	t		22.0	female	west_asian	3.8205332272184642	smiling	066	sub-03	2.0	4.0	066_smiling	0.0		56.14546715200868	
4.0	30.803772038042098	pulse	0.0	t		22.0	female	west_asian	3.8205332272184642	smiling	066	sub-03	2.0	4.0	066_smiling	0.0		56.84546060175944	
4.0	31.253651009356872	fix	1.0		444	22.0	female	west_asian	3.8205332272184642	smiling	066	sub-03	2.0	4.0	066_smiling	0.0		57.295339573074216	3.7665548495842813
4.0	31.50375975255156	pulse	1.0	t		22.0	female	west_asian	3.8205332272184642	smiling	066	sub-03	2.0	4.0	066_smiling	0.0		57.5454483162689	
4.0	32.20374958004459	pulse	1.0	t		22.0	female	west_asian	3.8205332272184642	smiling	066	sub-03	2.0	4.0	066_smiling	0.0		58.24543814376193	
4.0	32.903714353588384	pulse	1.0	t		22.0	female	west_asian	3.8205332272184642	smiling	066	sub-03	2.0	4.0	066_smiling	0.0		58.94540291730573	
4.0	33.60369693656594	pulse	1.0	t		22.0	female	west_asian	3.8205332272184642	smiling	066	sub-03	2.0	4.0	066_smiling	0.0		59.64538550028328	
4.0	34.303684349220475	pulse	1.0	t		22.0	female	west_asian	3.8205332272184642	smiling	066	sub-03	2.0	4.0	066_smiling	0.0		60.34537291293782	
5.0	35.020205858941154	face	0.0		146	25.0	female	black	3.858336649423	neutral	126	sub-03	2.0	4.0	126_neutral	0.0		61.0618944226585	1.2333228992188197
5.0	35.006465126261446	pulse	0.0	t		25.0	female	black	3.858336649423	neutral	126	sub-03	2.0	4.0	126_neutral	0.0		61.04815368997879	
5.0	35.70365917452955	pulse	0.0	t		25.0	female	black	3.858336649423	neutral	126	sub-03	2.0	4.0	126_neutral	0.0		61.74534773824689	
5.0	36.25352875815997	fix	1.0		443	25.0	female	black	3.858336649423	neutral	126	sub-03	2.0	4.0	126_neutral	0.0		62.29521732187732	3.7582674258519546
5.0	36.4036417575071	pulse	1.0	t		25.0	female	black	3.858336649423	neutral	126	sub-03	2.0	4.0	126_neutral	0.0		62.445330321224446	
5.0	37.1036198126626	pulse	1.0	t		25.0	female	black	3.858336649423	neutral	126	sub-03	2.0	4.0	126_neutral	0.0		63.145308376379944	
5.0	37.80360964015563	pulse	1.0	t		25.0	female	black	3.858336649423	neutral	126	sub-03	2.0	4.0	126_neutral	0.0		63.84529820387297	
5.0	38.50359524168152	pulse	1.0	t		25.0	female	black	3.858336649423	neutral	126	sub-03	2.0	4.0	126_neutral	0.0		64.54528380539887	
5.0	39.203594124818665	pulse	1.0	t		25.0	female	black	3.858336649423	neutral	126	sub-03	2.0	4.0	126_neutral	0.0		65.24528268853601	
5.0	39.90356221876573	pulse	1.0	t		25.0	female	black	3.858336649423	neutral	126	sub-03	2.0	4.0	126_neutral	0.0		65.94525078248307	
6.0	40.01179618401193	face	0.0		147	30.0	female	black	2.7345801830481498	neutral	062	sub-03	2.0	4.0	062_neutral	0.0		66.05348474772927	1.2416290379492239
6.0	40.60356744085357	pulse	0.0	t		30.0	female	black	2.7345801830481498	neutral	062	sub-03	2.0	4.0	062_neutral	0.0		66.64525600457091	
6.0	41.25342522196115	fix	1.0		443	30.0	female	black	2.7345801830481498	neutral	062	sub-03	2.0	4.0	062_neutral	0.0		67.2951137856785	3.758285235285257
6.0	41.30353855334852	pulse	1.0	t		30.0	female	black	2.7345801830481498	neutral	062	sub-03	2.0	4.0	062_neutral	0.0		67.34522711706586	
6.0	42.00353894575983	pulse	1.0	t		30.0	female	black	2.7345801830481498	neutral	062	sub-03	2.0	4.0	062_neutral	0.0		68.04522750947717	
6.0	42.70350311559423	pulse	1.0	t		30.0	female	black	2.7345801830481498	neutral	062	sub-03	2.0	4.0	062_neutral	0.0		68.74519167931157	
6.0	43.403507432118204	pulse	1.0	t		30.0	female	black	2.7345801830481498	neutral	062	sub-03	2.0	4.0	062_neutral	0.0		69.44519599583555	
6.0	44.1034854872737	pulse	1.0	t		30.0	female	black	2.7345801830481498	neutral	062	sub-03	2.0	4.0	062_neutral	0.0		70.14517405099105	
6.0	44.803463240574274	pulse	1.0	t		30.0	female	black	2.7345801830481498	neutral	062	sub-03	2.0	4.0	062_neutral	0.0		70.84515180429162	
7.0	45.01171045724641	face	0.0		146	20.0	male	black	2.609629924393156	neutral	043	sub-03	2.0	4.0	043_neutral	0.0		71.05339902096375	1.2416257175468672
7.0	45.50346604782408	pulse	0.0	t		20.0	male	black	2.609629924393156	neutral	043	sub-03	2.0	4.0	043_neutral	0.0		71.54515461154142	
7.0	46.20345346047861	pulse	0.0	t		20.0	male	black	2.609629924393156	neutral	043	sub-03	2.0	4.0	043_neutral	0.0		72.24514202419596	
7.0	46.253336174793276	fix	1.0		445	20.0	male	black	2.609629924393156	neutral	043	sub-03	2.0	4.0	043_neutral	0.0		72.29502473851062	3.758315118911014
7.0	46.90342034700598	pulse	1.0	t		20.0	male	black	2.609629924393156	neutral	043	sub-03	2.0	4.0	043_neutral	0.0		72.94510891072332	
7.0	47.60339719474223	pulse	1.0	t		20.0	male	black	2.609629924393156	neutral	043	sub-03	2.0	4.0	043_neutral	0.0		73.64508575845957	
7.0	48.303385211106615	pulse	1.0	t		20.0	male	black	2.609629924393156	neutral	043	sub-03	2.0	4.0	043_neutral	0.0		74.34507377482396	
7.0	49.00338620722732	pulse	1.0	t		20.0	male	black	2.609629924393156	neutral	043	sub-03	2.0	4.0	043_neutral	0.0		75.04507477094467	
7.0	49.703363658673425	pulse	1.0	t		20.0	male	black	2.609629924393156	neutral	043	sub-03	2.0	4.0	043_neutral	0.0		75.74505222239077	
8.0	50.01165129370429	face	0.0		146	24.0	female	black	3.0955033824114606	neutral	099	sub-03	2.0	4.0	099_neutral	0.0		76.05333985742163	1.2415632336014824
8.0	50.40334865648947	pulse	0.0	t		24.0	female	black	3.0955033824114606	neutral	099	sub-03	2.0	4.0	099_neutral	0.0		76.44503722020681	
8.0	51.103329730192854	pulse	0.0	t		24.0	female	black	3.0955033824114606	neutral	099	sub-03	2.0	4.0	099_neutral	0.0		77.1450182939102	
8.0	51.25321452730577	fix	1.0		444	24.0	female	black	3.0955033824114606	neutral	099	sub-03	2.0	4.0	099_neutral	0.0		77.29490309102312	3.7582535405304043
8.0	51.80333525413607	pulse	1.0	t		24.0	female	black	3.0955033824114606	neutral	099	sub-03	2.0	4.0	099_neutral	0.0		77.84502381785342	
8.0	52.503309083323984	pulse	1.0	t		24.0	female	black	3.0955033824114606	neutral	099	sub-03	2.0	4.0	099_neutral	0.0		78.54499764704133	
8.0	53.20328834589873	pulse	1.0	t		24.0	female	black	3.0955033824114606	neutral	099	sub-03	2.0	4.0	099_neutral	0.0		79.24497690961607	
8.0	53.9032730418603	pulse	1.0	t		24.0	female	black	3.0955033824114606	neutral	099	sub-03	2.0	4.0	099_neutral	0.0		79.94496160557765	
8.0	54.603265887901216	pulse	1.0	t		24.0	female	black	3.0955033824114606	neutral	099	sub-03	2.0	4.0	099_neutral	0.0		80.64495445161856	
9.0	55.01146806783618	face	0.0		146	40.0	female	west_asian	1.5777954635893354	smiling	038	sub-03	2.0	4.0	038_smiling	1.0	dominance	81.05315663155352	1.2416592234303607
9.0	55.30324847087877	pulse	0.0	t		40.0	female	west_asian	1.5777954635893354	smiling	038	sub-03	2.0	4.0	038_smiling	1.0	dominance	81.34493703459611	
9.0	56.003241015065214	pulse	0.0	t		40.0	female	west_asian	1.5777954635893354	smiling	038	sub-03	2.0	4.0	038_smiling	1.0	dominance	82.04492957878256	
9.0	56.25312729126654	fix	1.0		177	40.0	female	west_asian	1.5777954635893354	smiling	038	sub-03	2.0	4.0	038_smiling	1.0	dominance	82.29481585498388	1.4999521560130233
9.0	56.703225711026334	pulse	1.0	t		40.0	female	west_asian	1.5777954635893354	smiling	038	sub-03	2.0	4.0	038_smiling	1.0	dominance	82.74491427474368	
9.0	57.40320467174615	pulse	1.0	t		40.0	female	west_asian	1.5777954635893354	smiling	038	sub-03	2.0	4.0	038_smiling	1.0	dominance	83.4448932354635	
9.0	57.75307944727956	rating	2.0		294	40.0	female	west_asian	1.5777954635893354	smiling	038	sub-03	2.0	4.0	038_smiling	1.0	dominance	83.7947680109969	2.499944307788155
9.0	58.10320174375465	pulse	2.0	t		40.0	female	west_asian	1.5777954635893354	smiling	038	sub-03	2.0	4.0	038_smiling	1.0	dominance	84.144890307472	
9.0	58.803180100765076	pulse	2.0	t		40.0	female	west_asian	1.5777954635893354	smiling	038	sub-03	2.0	4.0	038_smiling	1.0	dominance	84.84486866448242	
9.0	59.45315651081182	response	2.0	b		40.0	female	west_asian	1.5777954635893354	smiling	038	sub-03	2.0	4.0	038_smiling	1.0	dominance	85.49484507452917	
9.0	59.503140950196666	pulse	2.0	t		40.0	female	west_asian	1.5777954635893354	smiling	038	sub-03	2.0	4.0	038_smiling	1.0	dominance	85.54482951391401	
9.0	60.2032373324364	pulse	2.0	t		40.0	female	west_asian	1.5777954635893354	smiling	038	sub-03	2.0	4.0	038_smiling	1.0	dominance	86.24492589615375	
9.0	60.253023755067716	fix	3.0		444	40.0	female	west_asian	1.5777954635893354	smiling	038	sub-03	2.0	4.0	038_smiling	1.0	dominance	86.29471231878506	3.7665723571631133
9.0	60.903139018325874	pulse	3.0	t		40.0	female	west_asian	1.5777954635893354	smiling	038	sub-03	2.0	4.0	038_smiling	1.0	dominance	86.94482758204322	
9.0	61.603111941949464	pulse	3.0	t		40.0	female	west_asian	1.5777954635893354	smiling	038	sub-03	2.0	4.0	038_smiling	1.0	dominance	87.64480050566681	
9.0	62.30309180823406	pulse	3.0	t		40.0	female	west_asian	1.5777954635893354	smiling	038	sub-03	2.0	4.0	038_smiling	1.0	dominance	88.3447803719514	
9.0	63.00308676725854	pulse	3.0	t		40.0	female	west_asian	1.5777954635893354	smiling	038	sub-03	2.0	4.0	038_smiling	1.0	dominance	89.04477533097588	
9.0	63.703062105721074	pulse	3.0	t		40.0	female	west_asian	1.5777954635893354	smiling	038	sub-03	2.0	4.0	038_smiling	1.0	dominance	89.74475066943842	
10.0	64.01959611223083	face	0.0		145	31.0	female	east_asian	3.395941106247513	smiling	087	sub-03	2.0	4.0	087_smiling	0.0		90.06128467594817	1.2333422179262925
10.0	64.40305072579486	pulse	0.0	t		31.0	female	east_asian	3.395941106247513	smiling	087	sub-03	2.0	4.0	087_smiling	0.0		90.4447392895122	
10.0	65.10305262747988	pulse	0.0	t		31.0	female	east_asian	3.395941106247513	smiling	087	sub-03	2.0	4.0	087_smiling	0.0		91.14474119119723	
10.0	65.25293833015712	fix	1.0		444	31.0	female	east_asian	3.395941106247513	smiling	087	sub-03	2.0	4.0	087_smiling	0.0		91.29462689387447	3.7582342218229314
10.0	65.80303702158653	pulse	1.0	t		31.0	female	east_asian	3.395941106247513	smiling	087	sub-03	2.0	4.0	087_smiling	0.0		91.84472558530388	
10.0	66.5030165860162	pulse	1.0	t		31.0	female	east_asian	3.395941106247513	smiling	087	sub-03	2.0	4.0	087_smiling	0.0		92.54470514973355	
10.0	67.20301697842706	pulse	1.0	t		31.0	female	east_asian	3.395941106247513	smiling	087	sub-03	2.0	4.0	087_smiling	0.0		93.2447055421444	
10.0	67.90296907406946	pulse	1.0	t		31.0	female	east_asian	3.395941106247513	smiling	087	sub-03	2.0	4.0	087_smiling	0.0		93.9446576377868	
10.0	68.60295437374043	pulse	1.0	t		31.0	female	east_asian	3.395941106247513	smiling	087	sub-03	2.0	4.0	087_smiling	0.0		94.64464293745777	
11.0	69.01117255198005	face	0.0		146	47.0	male	east_asian	2.171110226820533	neutral	024	sub-03	2.0	4.0	024_neutral	0.0		95.0528611156974	1.2416414139966037
11.0	69.30296140695737	pulse	0.0	t		47.0	male	east_asian	2.171110226820533	neutral	024	sub-03	2.0	4.0	024_neutral	0.0		95.34464997067471	
11.0	70.00292708606548	pulse	0.0	t		47.0	male	east_asian	2.171110226820533	neutral	024	sub-03	2.0	4.0	024_neutral	0.0		96.04461564978283	
11.0	70.25281396597666	fix	1.0		444	47.0	male	east_asian	2.171110226820533	neutral	024	sub-03	2.0	4.0	024_neutral	0.0		96.294502529694	3.766591374015661
11.0	70.70293532670166	pulse	1.0	t		47.0	male	east_asian	2.171110226820533	neutral	024	sub-03	2.0	4.0	024_neutral	0.0		96.744623890419	
11.0	71.4029145892764	pulse	1.0	t		47.0	male	east_asian	2.171110226820533	neutral	024	sub-03	2.0	4.0	024_neutral	0.0		97.44460315299375	
11.0	72.10289898338306	pulse	1.0	t		47.0	male	east_asian	2.171110226820533	neutral	024	sub-03	2.0	4.0	024_neutral	0.0		98.1445875471004	
11.0	72.8028782459578	pulse	1.0	t		47.0	male	east_asian	2.171110226820533	neutral	024	sub-03	2.0	4.0	024_neutral	0.0		98.84456680967514	
11.0	73.5028701864344	pulse	1.0	t		47.0	male	east_asian	2.171110226820533	neutral	024	sub-03	2.0	4.0	024_neutral	0.0		99.54455875015174	
12.0	74.01940533999232	face	0.0		145	24.0	female	east_asian	4.409868682849185	smiling	030	sub-03	2.0	4.0	030_smiling	0.0		100.06109390370966	1.233304184221197
12.0	74.2028654473138	pulse	0.0	t		24.0	female	east_asian	4.409868682849185	smiling	030	sub-03	2.0	4.0	030_smiling	0.0		100.24455401103114	
12.0	74.90283746537352	pulse	0.0	t		24.0	female	east_asian	4.409868682849185	smiling	030	sub-03	2.0	4.0	030_smiling	0.0		100.94452602909087	
12.0	75.25270952421351	fix	1.0		444	24.0	female	east_asian	4.409868682849185	smiling	030	sub-03	2.0	4.0	030_smiling	0.0		101.29439808793086	3.7583271931034687
12.0	75.60283393367217	pulse	1.0	t		24.0	female	east_asian	4.409868682849185	smiling	030	sub-03	2.0	4.0	030_smiling	0.0		101.64452249738952	
12.0	76.30281440366616	pulse	1.0	t		24.0	female	east_asian	4.409868682849185	smiling	030	sub-03	2.0	4.0	030_smiling	0.0		102.3445029673835	
12.0	77.00278642172543	pulse	1.0	t		24.0	female	east_asian	4.409868682849185	smiling	030	sub-03	2.0	4.0	030_smiling	0.0		103.04447498544278	
12.0	77.70277624921846	pulse	1.0	t		24.0	female	east_asian	4.409868682849185	smiling	030	sub-03	2.0	4.0	030_smiling	0.0		103.7444648129358	
12.0	78.40276034147018	pulse	1.0	t		24.0	female	east_asian	4.409868682849185	smiling	030	sub-03	2.0	4.0	030_smiling	0.0		104.44444890518753	
13.0	79.01103671731698	face	0.0		146	19.0	male	white	3.2522881018702745	smiling	018	sub-03	2.0	4.0	018_smiling	1.0	trustworthiness	105.05272528103433	1.2415674595686141
13.0	79.10275560234959	pulse	0.0	t		19.0	male	white	3.2522881018702745	smiling	018	sub-03	2.0	4.0	018_smiling	1.0	trustworthiness	105.14444416606693	
13.0	79.80272943153795	pulse	0.0	t		19.0	male	white	3.2522881018702745	smiling	018	sub-03	2.0	4.0	018_smiling	1.0	trustworthiness	105.8444179952553	
13.0	80.2526041768856	fix	1.0		177	19.0	male	white	3.2522881018702745	smiling	018	sub-03	2.0	4.0	018_smiling	1.0	trustworthiness	106.29429274060294	1.499986567461292
13.0	80.50272771096525	pulse	1.0	t		19.0	male	white	3.2522881018702745	smiling	018	sub-03	2.0	4.0	018_smiling	1.0	trustworthiness	106.54441627468259	
13.0	81.20271934958737	pulse	1.0	t		19.0	male	white	3.2522881018702745	smiling	018	sub-03	2.0	4.0	018_smiling	1.0	trustworthiness	107.24440791330471	
13.0	81.75259074434689	rating	2.0		294	19.0	male	white	3.2522881018702745	smiling	018	sub-03	2.0	4.0	018_smiling	1.0	trustworthiness	107.79427930806423	2.499941591094739
13.0	81.90270464925834	pulse	2.0	t		19.0	male	white	3.2522881018702745	smiling	018	sub-03	2.0	4.0	018_smiling	1.0	trustworthiness	107.94439321297568	
13.0	82.60268240255891	pulse	2.0	t		19.0	male	white	3.2522881018702745	smiling	018	sub-03	2.0	4.0	018_smiling	1.0	trustworthiness	108.64437096627626	
13.0	83.30266951335852	pulse	2.0	t		19.0	male	white	3.2522881018702745	smiling	018	sub-03	2.0	4.0	018_smiling	1.0	trustworthiness	109.34435807707587	
13.0	83.79734826588947	response	2.0	b		19.0	male	white	3.2522881018702745	smiling	018	sub-03	2.0	4.0	018_smiling	1.0	trustworthiness	109.83903682960681	
13.0	84.00263639988634	pulse	2.0	t		19.0	male	white	3.2522881018702745	smiling	018	sub-03	2.0	4.0	018_smiling	1.0	trustworthiness	110.04432496360369	
13.0	84.25253233544163	fix	3.0		444	19.0	male	white	3.2522881018702745	smiling	018	sub-03	2.0	4.0	018_smiling	1.0	trustworthiness	110.29422089915897	3.7665747720011495
13.0	84.70261868100897	pulse	3.0	t		19.0	male	white	3.2522881018702745	smiling	018	sub-03	2.0	4.0	018_smiling	1.0	trustworthiness	110.74430724472631	
13.0	85.40263718470896	pulse	3.0	t		19.0	male	white	3.2522881018702745	smiling	018	sub-03	2.0	4.0	018_smiling	1.0	trustworthiness	111.44432574842631	
13.0	86.1026037693814	pulse	3.0	t		19.0	male	white	3.2522881018702745	smiling	018	sub-03	2.0	4.0	018_smiling	1.0	trustworthiness	112.14429233309875	
13.0	86.80259027647162	pulse	3.0	t		19.0	male	white	3.2522881018702745	smiling	018	sub-03	2.0	4.0	018_smiling	1.0	trustworthiness	112.84427884018896	
13.0	87.50257980210972	pulse	3.0	t		19.0	male	white	3.2522881018702745	smiling	018	sub-03	2.0	4.0	018_smiling	1.0	trustworthiness	113.54426836582707	
14.0	88.01910710744278	face	0.0		145	28.0	male	white	3.9076800636689217	neutral	033	sub-03	2.0	4.0	033_neutral	0.0		114.06079567116012	1.2333219936544992
14.0	88.20260977629232	pulse	0.0	t		28.0	male	white	3.9076800636689217	neutral	033	sub-03	2.0	4.0	033_neutral	0.0		114.24429834000966	
14.0	88.90253561056625	pulse	0.0	t		28.0	male	white	3.9076800636689217	neutral	033	sub-03	2.0	4.0	033_neutral	0.0		114.94422417428359	
14.0	89.25242910109728	fix	1.0		444	28.0	male	white	3.9076800636689217	neutral	033	sub-03	2.0	4.0	033_neutral	0.0		115.29411766481462	3.766559075551868
14.0	89.60252513620435	pulse	1.0	t		28.0	male	white	3.9076800636689217	neutral	033	sub-03	2.0	4.0	033_neutral	0.0		115.64421369992169	
14.0	90.30250560619834	pulse	1.0	t		28.0	male	white	3.9076800636689217	neutral	033	sub-03	2.0	4.0	033_neutral	0.0		116.34419416991568	
14.0	91.00248818917589	pulse	1.0	t		28.0	male	white	3.9076800636689217	neutral	033	sub-03	2.0	4.0	033_neutral	0.0		117.04417675289324	
14.0	91.70246986658913	pulse	1.0	t		28.0	male	white	3.9076800636689217	neutral	033	sub-03	2.0	4.0	033_neutral	0.0		117.74415843030647	
14.0	92.40246059964647	pulse	1.0	t		28.0	male	white	3.9076800636689217	neutral	033	sub-03	2.0	4.0	033_neutral	0.0		118.44414916336382	
15.0	93.01898817664915	face	0.0		145	26.0	female	white	4.854755272582572	neutral	027	sub-03	2.0	4.0	027_neutral	0.0		119.06067674036649	1.233338595668556
15.0	93.10249932761826	pulse	0.0	t		26.0	female	white	4.854755272582572	neutral	027	sub-03	2.0	4.0	027_neutral	0.0		119.1441878913356	
15.0	93.80244327318042	pulse	0.0	t		26.0	female	white	4.854755272582572	neutral	027	sub-03	2.0	4.0	027_neutral	0.0		119.84413183689776	
15.0	94.2523267723177	fix	1.0		444	26.0	female	white	4.854755272582572	neutral	027	sub-03	2.0	4.0	027_neutral	0.0		120.29401533603505	3.7665524347457904
15.0	94.50243400623822	pulse	1.0	t		26.0	female	white	4.854755272582572	neutral	027	sub-03	2.0	4.0	027_neutral	0.0		120.54412256995556	
15.0	95.20250382525501	pulse	1.0	t		26.0	female	white	4.854755272582572	neutral	027	sub-03	2.0	4.0	027_neutral	0.0		121.24419238897235	
15.0	95.90238045719525	pulse	1.0	t		26.0	female	white	4.854755272582572	neutral	027	sub-03	2.0	4.0	027_neutral	0.0		121.9440690209126	
15.0	96.6023687754141	pulse	1.0	t		26.0	female	white	4.854755272582572	neutral	027	sub-03	2.0	4.0	027_neutral	0.0		122.64405733913145	
15.0	97.30235045282734	pulse	1.0	t		26.0	female	white	4.854755272582572	neutral	027	sub-03	2.0	4.0	027_neutral	0.0		123.34403901654468	
16.0	98.01887920706349	face	0.0		146	26.0	male	white	2.7966573816155993	smiling	117	sub-03	2.0	4.0	117_smiling	0.0		124.06056777078084	1.233326521476556
16.0	98.00516232091331	pulse	0.0	t		26.0	male	white	2.7966573816155993	smiling	117	sub-03	2.0	4.0	117_smiling	0.0		124.04685088463066	
16.0	98.7023433894251	pulse	0.0	t		26.0	male	white	2.7966573816155993	smiling	117	sub-03	2.0	4.0	117_smiling	0.0		124.74403195314244	
16.0	99.25220572854005	fix	1.0		443	26.0	male	white	2.7966573816155993	smiling	117	sub-03	2.0	4.0	117_smiling	0.0		125.29389429225739	3.766570847888943
16.0	99.40231661490361	pulse	1.0	t		26.0	male	white	2.7966573816155993	smiling	117	sub-03	2.0	4.0	117_smiling	0.0		125.44400517862096	
16.0	100.10231006465438	pulse	1.0	t		26.0	male	white	2.7966573816155993	smiling	117	sub-03	2.0	4.0	117_smiling	0.0		126.14399862837172	
16.0	100.80229777916338	pulse	1.0	t		26.0	male	white	2.7966573816155993	smiling	117	sub-03	2.0	4.0	117_smiling	0.0		126.84398634288073	
16.0	101.502272815771	pulse	1.0	t		26.0	male	white	2.7966573816155993	smiling	117	sub-03	2.0	4.0	117_smiling	0.0		127.54396137948834	
16.0	102.20228618793908	pulse	1.0	t		26.0	male	white	2.7966573816155993	smiling	117	sub-03	2.0	4.0	117_smiling	0.0		128.24397475165642	
16.0	102.90224522624158	pulse	1.0	t		26.0	male	white	2.7966573816155993	smiling	117	sub-03	2.0	4.0	117_smiling	0.0		128.94393378995892	
17.0	103.01877657642899	face	0.0		146	25.0	female	west_asian	2.6756864305610826	smiling	064	sub-03	2.0	4.0	064_smiling	0.0		129.06046514014633	1.2333225973638946
17.0	103.6022275073642	pulse	0.0	t		25.0	female	west_asian	2.6756864305610826	smiling	064	sub-03	2.0	4.0	064_smiling	0.0		129.64391607108155	
17.0	104.25209917379289	fix	1.0		443	25.0	female	west_asian	2.6756864305610826	smiling	064	sub-03	2.0	4.0	064_smiling	0.0		130.29378773751023	3.7582399570642337
17.0	104.30220767550372	pulse	1.0	t		25.0	female	west_asian	2.6756864305610826	smiling	064	sub-03	2.0	4.0	064_smiling	0.0		130.34389623922107	
17.0	105.002279909359	pulse	1.0	t		25.0	female	west_asian	2.6756864305610826	smiling	064	sub-03	2.0	4.0	064_smiling	0.0		131.04396847307635	
17.0	105.70218582121561	pulse	1.0	t		25.0	female	west_asian	2.6756864305610826	smiling	064	sub-03	2.0	4.0	064_smiling	0.0		131.74387438493295	
17.0	106.40216840419316	pulse	1.0	t		25.0	female	west_asian	2.6756864305610826	smiling	064	sub-03	2.0	4.0	064_smiling	0.0		132.4438569679105	
17.0	107.10214857233223	pulse	1.0	t		25.0	female	west_asian	2.6756864305610826	smiling	064	sub-03	2.0	4.0	064_smiling	0.0		133.14383713604957	
17.0	107.80213628684169	pulse	1.0	t		25.0	female	west_asian	2.6756864305610826	smiling	064	sub-03	2.0	4.0	064_smiling	0.0		133.84382485055903	
18.0	108.01033913085712	face	0.0		146	40.0	male	white	1.868682849184242	neutral	172	sub-03	2.0	4.0	172_neutral	0.0		134.05202769457446	1.2416543937533788
18.0	108.5021372829624	pulse	0.0	t		40.0	male	white	1.868682849184242	neutral	172	sub-03	2.0	4.0	172_neutral	0.0		134.54382584667974	
18.0	109.2021089991672	pulse	0.0	t		40.0	male	white	1.868682849184242	neutral	172	sub-03	2.0	4.0	172_neutral	0.0		135.24379756288454	
18.0	109.2519935246105	fix	1.0		445	40.0	male	white	1.868682849184242	neutral	172	sub-03	2.0	4.0	172_neutral	0.0		135.29368208832784	3.7665720553081883
18.0	109.90209460069264	pulse	1.0	t		40.0	male	white	1.868682849184242	neutral	172	sub-03	2.0	4.0	172_neutral	0.0		135.94378316440998	
18.0	110.60209740794244	pulse	1.0	t		40.0	male	white	1.868682849184242	neutral	172	sub-03	2.0	4.0	172_neutral	0.0		136.64378597165978	
18.0	111.30207968906507	pulse	1.0	t		40.0	male	white	1.868682849184242	neutral	172	sub-03	2.0	4.0	172_neutral	0.0		137.3437682527824	
18.0	112.00205653680177	pulse	1.0	t		40.0	male	white	1.868682849184242	neutral	172	sub-03	2.0	4.0	172_neutral	0.0		138.04374510051912	
18.0	112.70204334574646	pulse	1.0	t		40.0	male	white	1.868682849184242	neutral	172	sub-03	2.0	4.0	172_neutral	0.0		138.7437319094638	
19.0	113.01856557991869	face	0.0		145	28.0	male	east_asian	1.5563072025467568	neutral	005	sub-03	2.0	4.0	005_neutral	0.0		139.06025414363603	1.2333232010737447
19.0	113.40203739920662	pulse	0.0	t		28.0	male	east_asian	1.5563072025467568	neutral	005	sub-03	2.0	4.0	005_neutral	0.0		139.44372596292396	
19.0	114.10201122839499	pulse	0.0	t		28.0	male	east_asian	1.5563072025467568	neutral	005	sub-03	2.0	4.0	005_neutral	0.0		140.14369979211233	
19.0	114.25188878099243	fix	1.0		444	28.0	male	east_asian	1.5563072025467568	neutral	005	sub-03	2.0	4.0	005_neutral	0.0		140.29357734470977	3.7665717534532632
19.0	114.80199230209837	pulse	1.0	t		28.0	male	east_asian	1.5563072025467568	neutral	005	sub-03	2.0	4.0	005_neutral	0.0		140.8436808658157	
19.0	115.50198756297823	pulse	1.0	t		28.0	male	east_asian	1.5563072025467568	neutral	005	sub-03	2.0	4.0	005_neutral	0.0		141.54367612669557	
19.0	116.20198523869612	pulse	1.0	t		28.0	male	east_asian	1.5563072025467568	neutral	005	sub-03	2.0	4.0	005_neutral	0.0		142.24367380241347	
19.0	116.9019485029662	pulse	1.0	t		28.0	male	east_asian	1.5563072025467568	neutral	005	sub-03	2.0	4.0	005_neutral	0.0		142.94363706668355	
19.0	117.60193018037944	pulse	1.0	t		28.0	male	east_asian	1.5563072025467568	neutral	005	sub-03	2.0	4.0	005_neutral	0.0		143.64361874409678	
20.0	118.0184605344457	face	0.0		145	24.0	female	east_asian	4.409868682849185	neutral	030	sub-03	2.0	4.0	030_neutral	0.0		144.06014909816304	1.2333235029286698
20.0	118.30190340585796	pulse	0.0	t		24.0	female	east_asian	4.409868682849185	neutral	030	sub-03	2.0	4.0	030_neutral	0.0		144.3435919695753	
20.0	119.00190077972093	pulse	0.0	t		24.0	female	east_asian	4.409868682849185	neutral	030	sub-03	2.0	4.0	030_neutral	0.0		145.04358934343827	
20.0	119.25178403737436	fix	1.0		1185	24.0	female	east_asian	4.409868682849185	neutral	030	sub-03	2.0	4.0	030_neutral	0.0		145.2934726010917	10.008189622775262
20.0	119.70188577753697	pulse	1.0	t		24.0	female	east_asian	4.409868682849185	neutral	030	sub-03	2.0	4.0	030_neutral	0.0		145.74357434125432	
20.0	120.40187379390136	pulse	1.0	t		24.0	female	east_asian	4.409868682849185	neutral	030	sub-03	2.0	4.0	030_neutral	0.0		146.4435623576187	
20.0	121.10186150841082	pulse	1.0	t		24.0	female	east_asian	4.409868682849185	neutral	030	sub-03	2.0	4.0	030_neutral	0.0		147.14355007212816	
20.0	121.80195306097357	pulse	1.0	t		24.0	female	east_asian	4.409868682849185	neutral	030	sub-03	2.0	4.0	030_neutral	0.0		147.84364162469092	
20.0	122.50183754113914	pulse	1.0	t		24.0	female	east_asian	4.409868682849185	neutral	030	sub-03	2.0	4.0	030_neutral	0.0		148.54352610485648	
20.0	123.20183763169553	pulse	1.0	t		24.0	female	east_asian	4.409868682849185	neutral	030	sub-03	2.0	4.0	030_neutral	0.0		149.24352619541287	
20.0	123.90180693306138	pulse	1.0	t		24.0	female	east_asian	4.409868682849185	neutral	030	sub-03	2.0	4.0	030_neutral	0.0		149.94349549677872	
20.0	124.6017795548305	pulse	1.0	t		24.0	female	east_asian	4.409868682849185	neutral	030	sub-03	2.0	4.0	030_neutral	0.0		150.64346811854784	
20.0	125.30176938232353	pulse	1.0	t		24.0	female	east_asian	4.409868682849185	neutral	030	sub-03	2.0	4.0	030_neutral	0.0		151.34345794604087	
20.0	126.00175739868746	pulse	1.0	t		24.0	female	east_asian	4.409868682849185	neutral	030	sub-03	2.0	4.0	030_neutral	0.0		152.0434459624048	
20.0	126.7017423965035	pulse	1.0	t		24.0	female	east_asian	4.409868682849185	neutral	030	sub-03	2.0	4.0	030_neutral	0.0		152.74343096022085	
20.0	127.4017222627881	pulse	1.0	t		24.0	female	east_asian	4.409868682849185	neutral	030	sub-03	2.0	4.0	030_neutral	0.0		153.44341082650544	
20.0	128.10171390140977	pulse	1.0	t		24.0	female	east_asian	4.409868682849185	neutral	030	sub-03	2.0	4.0	030_neutral	0.0		154.1434024651271	
20.0	128.80173240510976	pulse	1.0	t		24.0	female	east_asian	4.409868682849185	neutral	030	sub-03	2.0	4.0	030_neutral	0.0		154.8434209688271	
21.0	129.25997366014963	face	0.0		146	37.0	male	white	3.898925586947871	neutral	101	sub-03	2.0	4.0	101_neutral	0.0		155.30166222386697	1.241589796824428
21.0	129.50169476381507	pulse	0.0	t		37.0	male	white	3.898925586947871	neutral	101	sub-03	2.0	4.0	101_neutral	0.0		155.5433833275324	
21.0	130.2016903265494	pulse	0.0	t		37.0	male	white	3.898925586947871	neutral	101	sub-03	2.0	4.0	101_neutral	0.0		156.24337889026674	
21.0	130.50156345697405	fix	1.0		444	37.0	male	white	3.898925586947871	neutral	101	sub-03	2.0	4.0	101_neutral	0.0		156.5432520206914	3.7582221476304767
21.0	130.90165419452887	pulse	1.0	t		37.0	male	white	3.898925586947871	neutral	101	sub-03	2.0	4.0	101_neutral	0.0		156.94334275824622	
21.0	131.60163375895854	pulse	1.0	t		37.0	male	white	3.898925586947871	neutral	101	sub-03	2.0	4.0	101_neutral	0.0		157.64332232267589	
21.0	132.30162026604876	pulse	1.0	t		37.0	male	white	3.898925586947871	neutral	101	sub-03	2.0	4.0	101_neutral	0.0		158.3433088297661	
21.0	133.0016134139446	pulse	1.0	t		37.0	male	white	3.898925586947871	neutral	101	sub-03	2.0	4.0	101_neutral	0.0		159.04330197766194	
21.0	133.7015890542616	pulse	1.0	t		37.0	male	white	3.898925586947871	neutral	101	sub-03	2.0	4.0	101_neutral	0.0		159.74327761797895	
22.0	134.25978560460453	face	0.0		146	28.0	female	white	5.676880222841227	smiling	124	sub-03	2.0	4.0	124_smiling	0.0		160.30147416832187	1.2416559030270946
22.0	134.40158069288327	pulse	0.0	t		28.0	female	white	5.676880222841227	smiling	124	sub-03	2.0	4.0	124_smiling	0.0		160.44326925660062	
22.0	135.10154365529843	pulse	0.0	t		28.0	female	white	5.676880222841227	smiling	124	sub-03	2.0	4.0	124_smiling	0.0		161.14323221901577	
22.0	135.50144150763163	fix	1.0		444	28.0	female	white	5.676880222841227	smiling	124	sub-03	2.0	4.0	124_smiling	0.0		161.54313007134897	3.758255049804575
22.0	135.80156095157918	pulse	1.0	t		28.0	female	white	5.676880222841227	smiling	124	sub-03	2.0	4.0	124_smiling	0.0		161.84324951529652	
22.0	136.5015323659286	pulse	1.0	t		28.0	female	white	5.676880222841227	smiling	124	sub-03	2.0	4.0	124_smiling	0.0		162.54322092964594	
22.0	137.20152400455072	pulse	1.0	t		28.0	female	white	5.676880222841227	smiling	124	sub-03	2.0	4.0	124_smiling	0.0		163.24321256826806	
22.0	137.90149572075507	pulse	1.0	t		28.0	female	white	5.676880222841227	smiling	124	sub-03	2.0	4.0	124_smiling	0.0		163.9431842844724	
22.0	138.60148403897438	pulse	1.0	t		28.0	female	white	5.676880222841227	smiling	124	sub-03	2.0	4.0	124_smiling	0.0		164.64317260269172	
23.0	139.2596965574362	face	0.0		146	27.0	female	white	4.181058495821727	neutral	039	sub-03	2.0	4.0	039_neutral	0.0		165.30138512115354	1.2416546956083039
23.0	139.30149952412557	pulse	0.0	t		27.0	female	white	4.181058495821727	neutral	039	sub-03	2.0	4.0	039_neutral	0.0		165.34318808784292	
23.0	140.00146369395998	pulse	0.0	t		27.0	female	white	4.181058495821727	neutral	039	sub-03	2.0	4.0	039_neutral	0.0		166.04315225767732	
23.0	140.5013512530445	fix	1.0		443	27.0	female	white	4.181058495821727	neutral	039	sub-03	2.0	4.0	039_neutral	0.0		166.54303981676185	3.7665726590180384
23.0	140.7014520121793	pulse	1.0	t		27.0	female	white	4.181058495821727	neutral	039	sub-03	2.0	4.0	039_neutral	0.0		166.74314057589663	
23.0	141.4014300673348	pulse	1.0	t		27.0	female	white	4.181058495821727	neutral	039	sub-03	2.0	4.0	039_neutral	0.0		167.44311863105213	
23.0	142.10141174474802	pulse	1.0	t		27.0	female	white	4.181058495821727	neutral	039	sub-03	2.0	4.0	039_neutral	0.0		168.14310030846536	
23.0	142.80139613885422	pulse	1.0	t		27.0	female	white	4.181058495821727	neutral	039	sub-03	2.0	4.0	039_neutral	0.0		168.84308470257156	
23.0	143.50138053296087	pulse	1.0	t		27.0	female	white	4.181058495821727	neutral	039	sub-03	2.0	4.0	039_neutral	0.0		169.5430690966782	
23.0	144.20138726432288	pulse	1.0	t		27.0	female	white	4.181058495821727	neutral	039	sub-03	2.0	4.0	039_neutral	0.0		170.24307582804022	
24.0	144.26792391206254	face	0.0		146	27.0	female	white	3.504576203740549	smiling	144	sub-03	2.0	4.0	144_smiling	0.0		170.3096124757799	1.2333265214761013
24.0	144.901359886092	pulse	0.0	t		27.0	female	white	3.504576203740549	smiling	144	sub-03	2.0	4.0	144_smiling	0.0		170.94304844980934	
24.0	145.50125043353864	fix	1.0		443	27.0	female	white	3.504576203740549	smiling	144	sub-03	2.0	4.0	144_smiling	0.0		171.542938997256	3.7665684330509066
24.0	145.6013584673742	pulse	1.0	t		27.0	female	white	3.504576203740549	smiling	144	sub-03	2.0	4.0	144_smiling	0.0		171.64304703109156	
24.0	146.30132776874052	pulse	1.0	t		27.0	female	white	3.504576203740549	smiling	144	sub-03	2.0	4.0	144_smiling	0.0		172.34301633245786	
24.0	147.00130461647677	pulse	1.0	t		27.0	female	white	3.504576203740549	smiling	144	sub-03	2.0	4.0	144_smiling	0.0		173.04299318019412	
24.0	147.7012974625177	pulse	1.0	t		27.0	female	white	3.504576203740549	smiling	144	sub-03	2.0	4.0	144_smiling	0.0		173.74298602623503	
24.0	148.40129272339755	pulse	1.0	t		27.0	female	white	3.504576203740549	smiling	144	sub-03	2.0	4.0	144_smiling	0.0		174.4429812871149	
24.0	149.10127953234223	pulse	1.0	t		27.0	female	white	3.504576203740549	smiling	144	sub-03	2.0	4.0	144_smiling	0.0		175.14296809605958	
25.0	149.26781886658955	face	0.0		146	19.0	male	white	3.2522881018702745	neutral	018	sub-03	2.0	4.0	018_neutral	0.0		175.3095074303069	1.2333241066380651
25.0	149.80126935983526	pulse	0.0	t		19.0	male	white	3.2522881018702745	neutral	018	sub-03	2.0	4.0	018_neutral	0.0		175.8429579235526	
25.0	150.50114297322762	fix	1.0		444	19.0	male	white	3.2522881018702745	neutral	018	sub-03	2.0	4.0	018_neutral	0.0		176.54283153694496	3.766554245874431
25.0	150.50856135696995	pulse	1.0	t		19.0	male	white	3.2522881018702745	neutral	018	sub-03	2.0	4.0	018_neutral	0.0		176.5502499206873	
25.0	151.20123060167816	pulse	1.0	t		19.0	male	white	3.2522881018702745	neutral	018	sub-03	2.0	4.0	018_neutral	0.0		177.2429191653955	
25.0	151.9012080531238	pulse	1.0	t		19.0	male	white	3.2522881018702745	neutral	018	sub-03	2.0	4.0	018_neutral	0.0		177.94289661684115	
25.0	152.60119335279478	pulse	1.0	t		19.0	male	white	3.2522881018702745	neutral	018	sub-03	2.0	4.0	018_neutral	0.0		178.64288191651212	
25.0	153.30118680254554	pulse	1.0	t		19.0	male	white	3.2522881018702745	neutral	018	sub-03	2.0	4.0	018_neutral	0.0		179.3428753662629	
25.0	154.00116274471748	pulse	1.0	t		19.0	male	white	3.2522881018702745	neutral	018	sub-03	2.0	4.0	018_neutral	0.0		180.04285130843482	
26.0	154.26769721910205	face	0.0		145	24.0	male	white	3.1153999204138483	neutral	012	sub-03	2.0	4.0	012_neutral	0.0		180.3093857828194	1.2333241066380651
26.0	154.7011525722105	pulse	0.0	t		24.0	male	white	3.1153999204138483	neutral	012	sub-03	2.0	4.0	012_neutral	0.0		180.74284113592785	
26.0	155.4011393811552	pulse	0.0	t		24.0	male	white	3.1153999204138483	neutral	012	sub-03	2.0	4.0	012_neutral	0.0		181.44282794487253	
26.0	155.5010213257401	fix	1.0		444	24.0	male	white	3.1153999204138483	neutral	012	sub-03	2.0	4.0	012_neutral	0.0		181.54270988945746	3.766571149743868
26.0	156.10112377526184	pulse	1.0	t		24.0	male	white	3.1153999204138483	neutral	012	sub-03	2.0	4.0	012_neutral	0.0		182.14281233897918	
26.0	156.80110273598166	pulse	1.0	t		24.0	male	white	3.1153999204138483	neutral	012	sub-03	2.0	4.0	012_neutral	0.0		182.842791299699	
26.0	157.50108230041133	pulse	1.0	t		24.0	male	white	3.1153999204138483	neutral	012	sub-03	2.0	4.0	012_neutral	0.0		183.54277086412867	
26.0	158.20107786314566	pulse	1.0	t		24.0	male	white	3.1153999204138483	neutral	012	sub-03	2.0	4.0	012_neutral	0.0		184.242766426863	
26.0	158.90105561644623	pulse	1.0	t		24.0	male	white	3.1153999204138483	neutral	012	sub-03	2.0	4.0	012_neutral	0.0		184.94274418016357	
27.0	159.26759247548398	face	0.0		145	47.0	male	east_asian	2.171110226820533	smiling	024	sub-03	2.0	4.0	024_smiling	1.0	trustworthiness	185.30928103920132	1.2333304455892176
27.0	159.60104846248714	pulse	0.0	t		47.0	male	east_asian	2.171110226820533	smiling	024	sub-03	2.0	4.0	024_smiling	1.0	trustworthiness	185.6427370262045	
27.0	160.3010304417553	pulse	0.0	t		47.0	male	east_asian	2.171110226820533	smiling	024	sub-03	2.0	4.0	024_smiling	1.0	trustworthiness	186.34271900547265	
27.0	160.5009229210732	fix	1.0		177	47.0	male	east_asian	2.171110226820533	smiling	024	sub-03	2.0	4.0	024_smiling	1.0	trustworthiness	186.54261148479054	1.499963626495628
27.0	161.0010338527145	pulse	1.0	t		47.0	male	east_asian	2.171110226820533	smiling	024	sub-03	2.0	4.0	024_smiling	1.0	trustworthiness	187.04272241643184	
27.0	161.70100013553292	pulse	1.0	t		47.0	male	east_asian	2.171110226820533	smiling	024	sub-03	2.0	4.0	024_smiling	1.0	trustworthiness	187.74268869925027	
27.0	162.00088654756883	rating	2.0		295	47.0	male	east_asian	2.171110226820533	smiling	024	sub-03	2.0	4.0	024_smiling	1.0	trustworthiness	188.04257511128617	2.4999621172214574
27.0	162.39581345493662	pulse	2.0	t		47.0	male	east_asian	2.171110226820533	smiling	024	sub-03	2.0	4.0	024_smiling	1.0	trustworthiness	188.43750201865396	
27.0	163.09577671920624	pulse	2.0	t		47.0	male	east_asian	2.171110226820533	smiling	024	sub-03	2.0	4.0	024_smiling	1.0	trustworthiness	189.13746528292359	
27.0	163.46762984510906	response	2.0	y		47.0	male	east_asian	2.171110226820533	smiling	024	sub-03	2.0	4.0	024_smiling	1.0	trustworthiness	189.5093184088264	
27.0	163.8009644864801	pulse	2.0	t		47.0	male	east_asian	2.171110226820533	smiling	024	sub-03	2.0	4.0	024_smiling	1.0	trustworthiness	189.84265305019744	
27.0	164.50084866479028	fix	3.0		443	47.0	male	east_asian	2.171110226820533	smiling	024	sub-03	2.0	4.0	024_smiling	1.0	trustworthiness	190.54253722850763	3.766553944019961
27.0	164.50863138728528	pulse	3.0	t		47.0	male	east_asian	2.171110226820533	smiling	024	sub-03	2.0	4.0	024_smiling	1.0	trustworthiness	190.55031995100262	
27.0	165.20093900993425	pulse	3.0	t		47.0	male	east_asian	2.171110226820533	smiling	024	sub-03	2.0	4.0	024_smiling	1.0	trustworthiness	191.2426275736516	
27.0	165.90092249847612	pulse	3.0	t		47.0	male	east_asian	2.171110226820533	smiling	024	sub-03	2.0	4.0	024_smiling	1.0	trustworthiness	191.94261106219346	
27.0	166.6009105148405	pulse	3.0	t		47.0	male	east_asian	2.171110226820533	smiling	024	sub-03	2.0	4.0	024_smiling	1.0	trustworthiness	192.64259907855785	
27.0	167.30088223104485	pulse	3.0	t		47.0	male	east_asian	2.171110226820533	smiling	024	sub-03	2.0	4.0	024_smiling	1.0	trustworthiness	193.3425707947622	
27.0	168.00086179547452	pulse	3.0	t		47.0	male	east_asian	2.171110226820533	smiling	024	sub-03	2.0	4.0	024_smiling	1.0	trustworthiness	194.04255035919186	
28.0	168.26740260881024	face	0.0		145	31.0	female	west_asian	2.364902506963788	neutral	006	sub-03	2.0	4.0	006_neutral	0.0		194.3090911725276	1.2333232010737447
28.0	168.7008561507896	pulse	0.0	t		31.0	female	west_asian	2.364902506963788	neutral	006	sub-03	2.0	4.0	006_neutral	0.0		194.74254471450695	
28.0	169.40082967812305	pulse	0.0	t		31.0	female	west_asian	2.364902506963788	neutral	006	sub-03	2.0	4.0	006_neutral	0.0		195.4425182418404	
28.0	169.500725809884	fix	1.0		444	31.0	female	west_asian	2.364902506963788	neutral	006	sub-03	2.0	4.0	006_neutral	0.0		195.54241437360133	3.7583766972916237
28.0	170.1008285612602	pulse	1.0	t		31.0	female	west_asian	2.364902506963788	neutral	006	sub-03	2.0	4.0	006_neutral	0.0		196.14251712497753	
28.0	170.80081355907623	pulse	1.0	t		31.0	female	west_asian	2.364902506963788	neutral	006	sub-03	2.0	4.0	006_neutral	0.0		196.84250212279358	
28.0	171.50079402907022	pulse	1.0	t		31.0	female	west_asian	2.364902506963788	neutral	006	sub-03	2.0	4.0	006_neutral	0.0		197.54248259278756	
28.0	172.200801665997	pulse	1.0	t		31.0	female	west_asian	2.364902506963788	neutral	006	sub-03	2.0	4.0	006_neutral	0.0		198.24249022971435	
28.0	172.90076191171875	pulse	1.0	t		31.0	female	west_asian	2.364902506963788	neutral	006	sub-03	2.0	4.0	006_neutral	0.0		198.9424504754361	
29.0	173.2591025071756	face	0.0		146	21.0	male	black	2.969757262236371	smiling	137	sub-03	2.0	4.0	137_smiling	0.0		199.30079107089296	1.2415179553804592
29.0	173.6007692467906	pulse	0.0	t		21.0	male	black	2.969757262236371	smiling	137	sub-03	2.0	4.0	137_smiling	0.0		199.64245781050795	
29.0	174.30073673702782	pulse	0.0	t		21.0	male	black	2.969757262236371	smiling	137	sub-03	2.0	4.0	137_smiling	0.0		200.34242530074516	
29.0	174.50062046255607	fix	1.0		444	21.0	male	black	2.969757262236371	smiling	137	sub-03	2.0	4.0	137_smiling	0.0		200.54230902627341	3.7665759794208498
29.0	175.00072173484386	pulse	1.0	t		21.0	male	black	2.969757262236371	smiling	137	sub-03	2.0	4.0	137_smiling	0.0		201.0424102985612	
29.0	175.70072152354578	pulse	1.0	t		21.0	male	black	2.969757262236371	smiling	137	sub-03	2.0	4.0	137_smiling	0.0		201.74241008726312	
29.0	176.40070440837826	pulse	1.0	t		21.0	male	black	2.969757262236371	smiling	137	sub-03	2.0	4.0	137_smiling	0.0		202.4423929720956	
29.0	177.10068789692014	pulse	1.0	t		21.0	male	black	2.969757262236371	smiling	137	sub-03	2.0	4.0	137_smiling	0.0		203.14237646063748	
29.0	177.80066112239865	pulse	1.0	t		21.0	male	black	2.969757262236371	smiling	137	sub-03	2.0	4.0	137_smiling	0.0		203.842349686116	
30.0	178.26719644197692	face	0.0		145	19.0	male	white	2.243931555909272	smiling	130	sub-03	2.0	4.0	130_smiling	1.0	attractiveness	204.30888500569426	1.2333195788160083
30.0	178.50065215731092	pulse	0.0	t		19.0	male	white	2.243931555909272	smiling	130	sub-03	2.0	4.0	130_smiling	1.0	attractiveness	204.54234072102827	
30.0	179.20063866440114	pulse	0.0	t		19.0	male	white	2.243931555909272	smiling	130	sub-03	2.0	4.0	130_smiling	1.0	attractiveness	205.24232722811848	
30.0	179.50051602079293	fix	1.0		177	19.0	male	white	2.243931555909272	smiling	130	sub-03	2.0	4.0	130_smiling	1.0	attractiveness	205.54220458451027	1.4999883785899328
30.0	179.90062094552377	pulse	1.0	t		19.0	male	white	2.243931555909272	smiling	130	sub-03	2.0	4.0	130_smiling	1.0	attractiveness	205.9423095092411	
30.0	180.60060594333981	pulse	1.0	t		19.0	male	white	2.243931555909272	smiling	130	sub-03	2.0	4.0	130_smiling	1.0	attractiveness	206.64229450705716	
30.0	181.00050439938286	rating	2.0		294	19.0	male	white	2.243931555909272	smiling	130	sub-03	2.0	4.0	130_smiling	1.0	attractiveness	207.0421929631002	2.499941591094739
30.0	181.29530818017474	pulse	2.0	t		19.0	male	white	2.243931555909272	smiling	130	sub-03	2.0	4.0	130_smiling	1.0	attractiveness	207.3369967438921	
30.0	181.99536984911174	pulse	2.0	t		19.0	male	white	2.243931555909272	smiling	130	sub-03	2.0	4.0	130_smiling	1.0	attractiveness	208.03705841282908	
30.0	182.30361130035726	response	2.0	d		19.0	male	white	2.243931555909272	smiling	130	sub-03	2.0	4.0	130_smiling	1.0	attractiveness	208.3452998640746	
30.0	182.7005482588861	pulse	2.0	t		19.0	male	white	2.243931555909272	smiling	130	sub-03	2.0	4.0	130_smiling	1.0	attractiveness	208.74223682260345	
30.0	183.4005592162157	pulse	2.0	t		19.0	male	white	2.243931555909272	smiling	130	sub-03	2.0	4.0	130_smiling	1.0	attractiveness	209.44224777993304	
30.0	183.5004459904776	fix	3.0		444	19.0	male	white	2.243931555909272	smiling	130	sub-03	2.0	4.0	130_smiling	1.0	attractiveness	209.54213455419494	3.766556358858452
30.0	184.100545421451	pulse	3.0	t		19.0	male	white	2.243931555909272	smiling	130	sub-03	2.0	4.0	130_smiling	1.0	attractiveness	210.14223398516833	
30.0	184.80053011741256	pulse	3.0	t		19.0	male	white	2.243931555909272	smiling	130	sub-03	2.0	4.0	130_smiling	1.0	attractiveness	210.8422186811299	
30.0	185.50056341199752	pulse	3.0	t		19.0	male	white	2.243931555909272	smiling	130	sub-03	2.0	4.0	130_smiling	1.0	attractiveness	211.54225197571486	
30.0	186.20049166110994	pulse	3.0	t		19.0	male	white	2.243931555909272	smiling	130	sub-03	2.0	4.0	130_smiling	1.0	attractiveness	212.24218022482728	
30.0	186.90046911255604	pulse	3.0	t		19.0	male	white	2.243931555909272	smiling	130	sub-03	2.0	4.0	130_smiling	1.0	attractiveness	212.94215767627338	
31.0	187.26700234933605	face	0.0		145	22.0	female	white	4.614007162753682	smiling	009	sub-03	2.0	4.0	009_smiling	0.0		213.3086909130534	1.23332320107329
31.0	187.6004613548871	pulse	0.0	t		22.0	female	white	4.614007162753682	smiling	009	sub-03	2.0	4.0	009_smiling	0.0		213.64214991860445	
31.0	188.30043729705903	pulse	0.0	t		22.0	female	white	4.614007162753682	smiling	009	sub-03	2.0	4.0	009_smiling	0.0		214.34212586077638	
31.0	188.50032555040934	fix	1.0		444	22.0	female	white	4.614007162753682	smiling	009	sub-03	2.0	4.0	009_smiling	0.0		214.5420141141267	3.7583060632669003
31.0	189.00043919874452	pulse	1.0	t		22.0	female	white	4.614007162753682	smiling	009	sub-03	2.0	4.0	009_smiling	0.0		215.04212776246186	
31.0	189.70042117801222	pulse	1.0	t		22.0	female	white	4.614007162753682	smiling	009	sub-03	2.0	4.0	009_smiling	0.0		215.74210974172956	
31.0	190.4004010442968	pulse	1.0	t		22.0	female	white	4.614007162753682	smiling	009	sub-03	2.0	4.0	009_smiling	0.0		216.44208960801416	
31.0	191.1003960033213	pulse	1.0	t		22.0	female	white	4.614007162753682	smiling	009	sub-03	2.0	4.0	009_smiling	0.0		217.14208456703864	
31.0	191.80041239403772	pulse	1.0	t		22.0	female	white	4.614007162753682	smiling	009	sub-03	2.0	4.0	009_smiling	0.0		217.84210095775506	
32.0	192.25863161367624	face	0.0		146	40.0	male	white	1.868682849184242	smiling	172	sub-03	2.0	4.0	172_smiling	0.0		218.3003201773936	1.241590098679353
32.0	192.5003681119374	pulse	0.0	t		40.0	male	white	1.868682849184242	smiling	172	sub-03	2.0	4.0	172_smiling	0.0		218.54205667565475	
32.0	193.20035341160838	pulse	0.0	t		40.0	male	white	1.868682849184242	smiling	172	sub-03	2.0	4.0	172_smiling	0.0		219.24204197532572	
32.0	193.5002217123556	fix	1.0		444	40.0	male	white	1.868682849184242	smiling	172	sub-03	2.0	4.0	172_smiling	0.0		219.54191027607294	3.7583290042325643
32.0	193.90032603337704	pulse	1.0	t		40.0	male	white	1.868682849184242	smiling	172	sub-03	2.0	4.0	172_smiling	0.0		219.94201459709438	
32.0	194.6003055978067	pulse	1.0	t		40.0	male	white	1.868682849184242	smiling	172	sub-03	2.0	4.0	172_smiling	0.0		220.64199416152405	
32.0	195.3002975382833	pulse	1.0	t		40.0	male	white	1.868682849184242	smiling	172	sub-03	2.0	4.0	172_smiling	0.0		221.34198610200065	
32.0	196.00030185480728	pulse	1.0	t		40.0	male	white	1.868682849184242	smiling	172	sub-03	2.0	4.0	172_smiling	0.0		222.04199041852462	
32.0	196.70027296730223	pulse	1.0	t		40.0	male	white	1.868682849184242	smiling	172	sub-03	2.0	4.0	172_smiling	0.0		222.74196153101957	
33.0	197.25855071658816	face	0.0		146	27.0	male	black	3.5523278949462798	neutral	042	sub-03	2.0	4.0	042_neutral	0.0		223.3002392803055	1.241582250454485
33.0	197.40026943560088	pulse	0.0	t		27.0	male	black	3.5523278949462798	neutral	042	sub-03	2.0	4.0	042_neutral	0.0		223.44195799931822	
33.0	198.10024235922447	pulse	0.0	t		27.0	male	black	3.5523278949462798	neutral	042	sub-03	2.0	4.0	042_neutral	0.0		224.1419309229418	
33.0	198.50013296704265	fix	1.0		444	27.0	male	black	3.5523278949462798	neutral	042	sub-03	2.0	4.0	042_neutral	0.0		224.54182153076	3.7665548495842813
33.0	198.80024848687708	pulse	1.0	t		27.0	male	black	3.5523278949462798	neutral	042	sub-03	2.0	4.0	042_neutral	0.0		224.84193705059442	
33.0	199.50020239364812	pulse	1.0	t		27.0	male	black	3.5523278949462798	neutral	042	sub-03	2.0	4.0	042_neutral	0.0		225.54189095736547	
33.0	200.2001991638017	pulse	1.0	t		27.0	male	black	3.5523278949462798	neutral	042	sub-03	2.0	4.0	042_neutral	0.0		226.24188772751904	
33.0	200.90018597274684	pulse	1.0	t		27.0	male	black	3.5523278949462798	neutral	042	sub-03	2.0	4.0	042_neutral	0.0		226.94187453646418	
33.0	201.60016946128871	pulse	1.0	t		27.0	male	black	3.5523278949462798	neutral	042	sub-03	2.0	4.0	042_neutral	0.0		227.64185802500606	
34.0	202.26668781662693	face	0.0		145	54.0	female	white	2.286908077994429	smiling	136	sub-03	2.0	4.0	136_smiling	0.0		228.30837638034427	1.233325917766706
34.0	202.30017860748922	pulse	0.0	t		54.0	female	white	2.286908077994429	smiling	136	sub-03	2.0	4.0	136_smiling	0.0		228.34186717120656	
34.0	203.00011168627861	pulse	0.0	t		54.0	female	white	2.286908077994429	smiling	136	sub-03	2.0	4.0	136_smiling	0.0		229.04180024999596	
34.0	203.50001373439363	fix	1.0		443	54.0	female	white	2.286908077994429	smiling	136	sub-03	2.0	4.0	136_smiling	0.0		229.54170229811098	3.758350737778528
34.0	203.70013924562227	pulse	1.0	t		54.0	female	white	2.286908077994429	smiling	136	sub-03	2.0	4.0	136_smiling	0.0		229.7418278093396	
34.0	204.40011337666556	pulse	1.0	t		54.0	female	white	2.286908077994429	smiling	136	sub-03	2.0	4.0	136_smiling	0.0		230.4418019403829	
34.0	205.10010018561024	pulse	1.0	t		54.0	female	white	2.286908077994429	smiling	136	sub-03	2.0	4.0	136_smiling	0.0		231.1417887493276	
34.0	205.80011144479477	pulse	1.0	t		54.0	female	white	2.286908077994429	smiling	136	sub-03	2.0	4.0	136_smiling	0.0		231.8418000085121	
34.0	206.5000568996311	pulse	1.0	t		54.0	female	white	2.286908077994429	smiling	136	sub-03	2.0	4.0	136_smiling	0.0		232.54174546334843	
34.0	207.2000491419626	pulse	1.0	t		54.0	female	white	2.286908077994429	smiling	136	sub-03	2.0	4.0	136_smiling	0.0		233.24173770567995	
35.0	207.25836447217216	face	0.0		147	27.0	male	black	3.5523278949462798	smiling	042	sub-03	2.0	4.0	042_smiling	0.0		233.3000530358895	1.2415408963456684
35.0	207.90004530840633	pulse	0.0	t		27.0	male	black	3.5523278949462798	smiling	042	sub-03	2.0	4.0	042_smiling	0.0		233.94173387212368	
35.0	208.49990536851783	fix	1.0		443	27.0	male	black	3.5523278949462798	smiling	042	sub-03	2.0	4.0	042_smiling	0.0		234.54159393223517	3.7665717534532632
35.0	208.60001823203038	pulse	1.0	t		27.0	male	black	3.5523278949462798	smiling	042	sub-03	2.0	4.0	042_smiling	0.0		234.64170679574772	
35.0	209.2999941742023	pulse	1.0	t		27.0	male	black	3.5523278949462798	smiling	042	sub-03	2.0	4.0	042_smiling	0.0		235.34168273791965	
35.0	209.9999758516151	pulse	1.0	t		27.0	male	black	3.5523278949462798	smiling	042	sub-03	2.0	4.0	042_smiling	0.0		236.04166441533243	
35.0	210.69998771450946	pulse	1.0	t		27.0	male	black	3.5523278949462798	smiling	042	sub-03	2.0	4.0	042_smiling	0.0		236.7416762782268	
35.0	211.39996848635792	pulse	1.0	t		27.0	male	black	3.5523278949462798	smiling	042	sub-03	2.0	4.0	042_smiling	0.0		237.44165705007526	
35.0	212.09994352296553	pulse	1.0	t		27.0	male	black	3.5523278949462798	smiling	042	sub-03	2.0	4.0	042_smiling	0.0		238.14163208668288	
36.0	212.2664771219711	face	0.0		146	24.0	female	east_asian	2.9076800636689217	neutral	034	sub-03	2.0	4.0	034_neutral	0.0		238.30816568568844	1.2333373882497654
36.0	212.79992972820082	pulse	0.0	t		24.0	female	east_asian	2.9076800636689217	neutral	034	sub-03	2.0	4.0	034_neutral	0.0		238.84161829191817	
36.0	213.49981451022086	fix	1.0		444	24.0	female	east_asian	2.9076800636689217	neutral	034	sub-03	2.0	4.0	034_neutral	0.0		239.5415030739382	3.7582121864220426
36.0	213.50730684839118	pulse	1.0	t		24.0	female	east_asian	2.9076800636689217	neutral	034	sub-03	2.0	4.0	034_neutral	0.0		239.54899541210852	
36.0	214.19990485536482	pulse	1.0	t		24.0	female	east_asian	2.9076800636689217	neutral	034	sub-03	2.0	4.0	034_neutral	0.0		240.24159341908216	
36.0	214.89988683463253	pulse	1.0	t		24.0	female	east_asian	2.9076800636689217	neutral	034	sub-03	2.0	4.0	034_neutral	0.0		240.94157539834987	
36.0	215.5998772658354	pulse	1.0	t		24.0	female	east_asian	2.9076800636689217	neutral	034	sub-03	2.0	4.0	034_neutral	0.0		241.64156582955275	
36.0	216.29985381171673	pulse	1.0	t		24.0	female	east_asian	2.9076800636689217	neutral	034	sub-03	2.0	4.0	034_neutral	0.0		242.34154237543407	
36.0	216.9999169899279	pulse	1.0	t		24.0	female	east_asian	2.9076800636689217	neutral	034	sub-03	2.0	4.0	034_neutral	0.0		243.04160555364524	
37.0	217.2580266966429	face	0.0		146	21.0	male	east_asian/white	3.501790688420215	smiling	036	sub-03	2.0	4.0	036_smiling	0.0		243.29971526036024	1.2416411121416786
37.0	217.69984372976614	pulse	0.0	t		21.0	male	east_asian/white	3.501790688420215	smiling	036	sub-03	2.0	4.0	036_smiling	0.0		243.7415322934835	
37.0	218.39982842572726	pulse	0.0	t		21.0	male	east_asian/white	3.501790688420215	smiling	036	sub-03	2.0	4.0	036_smiling	0.0		244.4415169894446	
37.0	218.49966780878458	fix	1.0		444	21.0	male	east_asian/white	3.501790688420215	smiling	036	sub-03	2.0	4.0	036_smiling	0.0		244.54135637250192	3.7582363348064973
37.0	219.09979561411	pulse	1.0	t		21.0	male	east_asian/white	3.501790688420215	smiling	036	sub-03	2.0	4.0	036_smiling	0.0		245.14148417782735	
37.0	219.7997628024923	pulse	1.0	t		21.0	male	east_asian/white	3.501790688420215	smiling	036	sub-03	2.0	4.0	036_smiling	0.0		245.84145136620964	
37.0	220.4997493095825	pulse	1.0	t		21.0	male	east_asian/white	3.501790688420215	smiling	036	sub-03	2.0	4.0	036_smiling	0.0		246.54143787329986	
37.0	221.19973913707554	pulse	1.0	t		21.0	male	east_asian/white	3.501790688420215	smiling	036	sub-03	2.0	4.0	036_smiling	0.0		247.24142770079288	
37.0	221.8997325868263	pulse	1.0	t		21.0	male	east_asian/white	3.501790688420215	smiling	036	sub-03	2.0	4.0	036_smiling	0.0		247.94142115054365	
38.0	222.25790414359108	face	0.0		146	31.0	female	east_asian	3.395941106247513	neutral	087	sub-03	2.0	4.0	087_neutral	0.0		248.29959270730842	1.2416661660909085
38.0	222.5997393181883	pulse	0.0	t		31.0	female	east_asian	3.395941106247513	neutral	087	sub-03	2.0	4.0	087_neutral	0.0		248.64142788190566	
38.0	223.29970922326402	pulse	0.0	t		31.0	female	east_asian	3.395941106247513	neutral	087	sub-03	2.0	4.0	087_neutral	0.0		249.34139778698136	
38.0	223.49957030968199	fix	1.0		444	31.0	female	east_asian	3.395941106247513	neutral	087	sub-03	2.0	4.0	087_neutral	0.0		249.54125887339933	3.766560886680054
38.0	223.99969663591855	pulse	1.0	t		31.0	female	east_asian	3.395941106247513	neutral	087	sub-03	2.0	4.0	087_neutral	0.0		250.0413851996359	
38.0	224.69970849881247	pulse	1.0	t		31.0	female	east_asian	3.395941106247513	neutral	087	sub-03	2.0	4.0	087_neutral	0.0		250.7413970625298	
38.0	225.3996590851807	pulse	1.0	t		31.0	female	east_asian	3.395941106247513	neutral	087	sub-03	2.0	4.0	087_neutral	0.0		251.44134764889805	
38.0	226.09965796831784	pulse	1.0	t		31.0	female	east_asian	3.395941106247513	neutral	087	sub-03	2.0	4.0	087_neutral	0.0		252.1413465320352	
38.0	226.79965594589066	pulse	1.0	t		31.0	female	east_asian	3.395941106247513	neutral	087	sub-03	2.0	4.0	087_neutral	0.0		252.841344509608	
39.0	227.26613119636204	face	0.0		145	40.0	male	black	2.408674890569041	smiling	061	sub-03	2.0	4.0	061_smiling	0.0		253.30781976007938	1.233336482685445
39.0	227.49962736024054	pulse	0.0	t		40.0	male	black	2.408674890569041	smiling	061	sub-03	2.0	4.0	061_smiling	0.0		253.54131592395788	
39.0	228.19961447104015	pulse	0.0	t		40.0	male	black	2.408674890569041	smiling	061	sub-03	2.0	4.0	061_smiling	0.0		254.2413030347575	
39.0	228.49946767904748	fix	1.0		444	40.0	male	black	2.408674890569041	smiling	061	sub-03	2.0	4.0	061_smiling	0.0		254.54115624276483	3.749914499625902
39.0	228.89959282805057	pulse	1.0	t		40.0	male	black	2.408674890569041	smiling	061	sub-03	2.0	4.0	061_smiling	0.0		254.94128139176792	
39.0	229.5995971445741	pulse	1.0	t		40.0	male	black	2.408674890569041	smiling	061	sub-03	2.0	4.0	061_smiling	0.0		255.64128570829143	
39.0	230.2995694644883	pulse	1.0	t		40.0	male	black	2.408674890569041	smiling	061	sub-03	2.0	4.0	061_smiling	0.0		256.34125802820563	
39.0	230.99955687714282	pulse	1.0	t		40.0	male	black	2.408674890569041	smiling	061	sub-03	2.0	4.0	061_smiling	0.0		257.04124544086017	
39.0	231.6995264803636	pulse	1.0	t		40.0	male	black	2.408674890569041	smiling	061	sub-03	2.0	4.0	061_smiling	0.0		257.74121504408095	
40.0	232.2493821786734	fix	0.0		720													258.29107074239073	5.999887106301685
40.0	232.399540758096	pulse	0.0	t														258.44122932181335	
40.0	233.0994786665624	pulse	0.0	t														259.14116723027973	
40.0	233.79949717026193	pulse	0.0	t														259.8411857339793	
40.0	234.49950601460796	pulse	0.0	t														260.5411945783253	
40.0	235.19945961952408	pulse	0.0	t														261.2411481832414	
40.0	235.89946453975745	pulse	0.0	t														261.9411531034748	
40.0	236.59943927451013	pulse	0.0	t														262.6411278382275	
40.0	237.29942940385763	pulse	0.0	t														263.341117967575	
40.0	237.999403233046	pulse	0.0	t														264.04109179676334	
