trial_nr	onset	event_type	phase	response	nr_frames	face_age	face_sex	face_eth	attractiveness	expression	face_id	sub_id	ses	run	trial_type	catch	rating_type	onset_abs	duration
-1.0	0.061897254367067944	fix	0.0		713													29.839902730600443	5.957887759250298
-1.0	0.7033645540814177	pulse	0.0	t														30.481370030314793	
-1.0	1.403328724023595	pulse	0.0	t														31.18133420025697	
-1.0	2.10332338121043	pulse	0.0	t														31.881328857443805	
-1.0	2.803320151373555	pulse	0.0	t														32.58132562760693	
-1.0	3.5032942824946076	pulse	0.0	t														33.28129975872798	
-1.0	4.203275658109305	pulse	0.0	t														33.98128113434268	
-1.0	4.903260957824386	pulse	0.0	t														34.68126643405776	
-1.0	5.6032405223159	pulse	0.0	t														35.381245998549275	
0.0	6.019785013617366	face	0.0		144	25.0	female	black	3.858336649423	smiling	126	sub-02	2.0	3.0	126_smiling	0.0		35.79779048985074	1.2333083096455084
0.0	6.303229444277349	pulse	0.0	t		25.0	female	black	3.858336649423	smiling	126	sub-02	2.0	3.0	126_smiling	0.0		36.081234920510724	
0.0	7.003213536577277	pulse	0.0	t		25.0	female	black	3.858336649423	smiling	126	sub-02	2.0	3.0	126_smiling	0.0		36.78121901281065	
0.0	7.253093323262874	fix	1.0		445	25.0	female	black	3.858336649423	smiling	126	sub-02	2.0	3.0	126_smiling	0.0		37.03109879949625	3.7582207644691152
0.0	7.70320215668562	pulse	1.0	t		25.0	female	black	3.858336649423	smiling	126	sub-02	2.0	3.0	126_smiling	0.0		37.481207632918995	
0.0	8.403177797075841	pulse	1.0	t		25.0	female	black	3.858336649423	smiling	126	sub-02	2.0	3.0	126_smiling	0.0		38.181183273309216	
0.0	9.103174567238966	pulse	1.0	t		25.0	female	black	3.858336649423	smiling	126	sub-02	2.0	3.0	126_smiling	0.0		38.88118004347234	
0.0	9.803145076113651	pulse	1.0	t		25.0	female	black	3.858336649423	smiling	126	sub-02	2.0	3.0	126_smiling	0.0		39.581150552347026	
0.0	10.503132186951916	pulse	1.0	t		25.0	female	black	3.858336649423	smiling	126	sub-02	2.0	3.0	126_smiling	0.0		40.28113766318529	
1.0	11.01131408773199	face	0.0		146	40.0	female	west_asian	1.5777954635893354	smiling	038	sub-02	2.0	3.0	038_smiling	0.0		40.789319563965364	1.241663021781278
1.0	11.203113562566614	pulse	0.0	t		40.0	female	west_asian	1.5777954635893354	smiling	038	sub-02	2.0	3.0	038_smiling	0.0		40.98111903879999	
1.0	11.903094938181312	pulse	0.0	t		40.0	female	west_asian	1.5777954635893354	smiling	038	sub-02	2.0	3.0	038_smiling	0.0		41.681100414414686	
1.0	12.252977109513267	fix	1.0		445	40.0	female	west_asian	1.5777954635893354	smiling	038	sub-02	2.0	3.0	038_smiling	0.0		42.03098258574664	3.758219557053053
1.0	12.603082049020486	pulse	1.0	t		40.0	female	west_asian	1.5777954635893354	smiling	038	sub-02	2.0	3.0	038_smiling	0.0		42.38108752525386	
1.0	13.303064330196321	pulse	1.0	t		40.0	female	west_asian	1.5777954635893354	smiling	038	sub-02	2.0	3.0	038_smiling	0.0		43.081069806429696	
1.0	14.003050233619433	pulse	1.0	t		40.0	female	west_asian	1.5777954635893354	smiling	038	sub-02	2.0	3.0	038_smiling	0.0		43.78105570985281	
1.0	14.70302617586367	pulse	1.0	t		40.0	female	west_asian	1.5777954635893354	smiling	038	sub-02	2.0	3.0	038_smiling	0.0		44.481031652097045	
1.0	15.403009362601551	pulse	1.0	t		40.0	female	west_asian	1.5777954635893354	smiling	038	sub-02	2.0	3.0	038_smiling	0.0		45.181014838834926	
2.0	16.01119666656632	face	0.0		146	28.0	male	white	3.9076800636689217	neutral	033	sub-02	2.0	3.0	033_neutral	0.0		45.789202142799695	1.2416627199272625
2.0	16.102981380745405	pulse	0.0	t		28.0	male	white	3.9076800636689217	neutral	033	sub-02	2.0	3.0	033_neutral	0.0		45.88098685697878	
2.0	16.802979660178607	pulse	0.0	t		28.0	male	white	3.9076800636689217	neutral	033	sub-02	2.0	3.0	033_neutral	0.0		46.58098513641198	
2.0	17.252859386493583	fix	1.0		444	28.0	male	white	3.9076800636689217	neutral	033	sub-02	2.0	3.0	033_neutral	0.0		47.03086486272696	3.758226499693592
2.0	17.50296495989369	pulse	1.0	t		28.0	male	white	3.9076800636689217	neutral	033	sub-02	2.0	3.0	033_neutral	0.0		47.28097043612706	
2.0	18.202952674439985	pulse	1.0	t		28.0	male	white	3.9076800636689217	neutral	033	sub-02	2.0	3.0	033_neutral	0.0		47.98095815067336	
2.0	18.902921372191486	pulse	1.0	t		28.0	male	white	3.9076800636689217	neutral	033	sub-02	2.0	3.0	033_neutral	0.0		48.68092684842486	
2.0	19.602910294152935	pulse	1.0	t		28.0	male	white	3.9076800636689217	neutral	033	sub-02	2.0	3.0	033_neutral	0.0		49.38091577038631	
2.0	20.302897706846124	pulse	1.0	t		28.0	male	white	3.9076800636689217	neutral	033	sub-02	2.0	3.0	033_neutral	0.0		50.0809031830795	
3.0	21.011085886187175	face	0.0		146	31.0	male	west_asian	1.9538400318344609	neutral	070	sub-02	2.0	3.0	070_neutral	1.0	attractiveness	50.78909136242055	1.2416572865568014
3.0	21.0040955536615	pulse	0.0	t		31.0	male	west_asian	1.9538400318344609	neutral	070	sub-02	2.0	3.0	070_neutral	1.0	attractiveness	50.782101029894875	
3.0	21.702868909984318	pulse	0.0	t		31.0	male	west_asian	1.9538400318344609	neutral	070	sub-02	2.0	3.0	070_neutral	1.0	attractiveness	51.48087438621769	
3.0	22.252743172743976	fix	1.0		177	31.0	male	west_asian	1.9538400318344609	neutral	070	sub-02	2.0	3.0	070_neutral	1.0	attractiveness	52.03074864897735	1.5083270925033503
3.0	22.40285270043023	pulse	1.0	t		31.0	male	west_asian	1.9538400318344609	neutral	070	sub-02	2.0	3.0	070_neutral	1.0	attractiveness	52.180858176663605	
3.0	23.102831057505682	pulse	1.0	t		31.0	male	west_asian	1.9538400318344609	neutral	070	sub-02	2.0	3.0	070_neutral	1.0	attractiveness	52.88083653373906	
3.0	23.761070265247326	rating	2.0		293	31.0	male	west_asian	1.9538400318344609	neutral	070	sub-02	2.0	3.0	070_neutral	1.0	attractiveness	53.5390757414807	2.4915793327882056
3.0	23.80282269615236	pulse	2.0	t		31.0	male	west_asian	1.9538400318344609	neutral	070	sub-02	2.0	3.0	070_neutral	1.0	attractiveness	53.580828172385736	
3.0	24.50280467547509	pulse	2.0	t		31.0	male	west_asian	1.9538400318344609	neutral	070	sub-02	2.0	3.0	070_neutral	1.0	attractiveness	54.280810151708465	
3.0	24.81417059152136	response	2.0	w		31.0	male	west_asian	1.9538400318344609	neutral	070	sub-02	2.0	3.0	070_neutral	1.0	attractiveness	54.592176067754735	
3.0	25.202766732440068	pulse	2.0	t		31.0	male	west_asian	1.9538400318344609	neutral	070	sub-02	2.0	3.0	070_neutral	1.0	attractiveness	54.98077220867344	
3.0	25.902768030411607	pulse	2.0	t		31.0	male	west_asian	1.9538400318344609	neutral	070	sub-02	2.0	3.0	070_neutral	1.0	attractiveness	55.68077350664498	
3.0	26.252649598035532	fix	3.0		444	31.0	male	west_asian	1.9538400318344609	neutral	070	sub-02	2.0	3.0	070_neutral	1.0	attractiveness	56.03065507426891	3.766568835819271
3.0	26.602764498721626	pulse	3.0	t		31.0	male	west_asian	1.9538400318344609	neutral	070	sub-02	2.0	3.0	070_neutral	1.0	attractiveness	56.380769974955	
3.0	27.30273380018025	pulse	3.0	t		31.0	male	west_asian	1.9538400318344609	neutral	070	sub-02	2.0	3.0	070_neutral	1.0	attractiveness	57.080739276413624	
3.0	28.002714572086916	pulse	3.0	t		31.0	male	west_asian	1.9538400318344609	neutral	070	sub-02	2.0	3.0	070_neutral	1.0	attractiveness	57.78072004832029	
3.0	28.702704701464427	pulse	3.0	t		31.0	male	west_asian	1.9538400318344609	neutral	070	sub-02	2.0	3.0	070_neutral	1.0	attractiveness	58.4807101776978	
3.0	29.402677021462296	pulse	3.0	t		31.0	male	west_asian	1.9538400318344609	neutral	070	sub-02	2.0	3.0	070_neutral	1.0	attractiveness	59.18068249769567	
4.0	30.019218433854803	face	0.0		145	32.0	male	white	2.389176283326701	neutral	092	sub-02	2.0	3.0	092_neutral	0.0		59.79722391008818	1.233313441161954
4.0	30.10266956567102	pulse	0.0	t		32.0	male	white	2.389176283326701	neutral	092	sub-02	2.0	3.0	092_neutral	0.0		59.8806750419044	
4.0	30.80265788392535	pulse	0.0	t		32.0	male	white	2.389176283326701	neutral	092	sub-02	2.0	3.0	092_neutral	0.0		60.580663360158724	
4.0	31.252531875016757	fix	1.0		444	32.0	male	white	2.389176283326701	neutral	092	sub-02	2.0	3.0	092_neutral	0.0		61.03053735125013	3.7665591764935016
4.0	31.502640768809215	pulse	1.0	t		32.0	male	white	2.389176283326701	neutral	092	sub-02	2.0	3.0	092_neutral	0.0		61.28064624504259	
4.0	32.202615805492314	pulse	1.0	t		32.0	male	white	2.389176283326701	neutral	092	sub-02	2.0	3.0	092_neutral	0.0		61.98062128172569	
4.0	32.90260291633058	pulse	1.0	t		32.0	male	white	2.389176283326701	neutral	092	sub-02	2.0	3.0	092_neutral	0.0		62.680608392563954	
4.0	33.60258881975369	pulse	1.0	t		32.0	male	white	2.389176283326701	neutral	092	sub-02	2.0	3.0	092_neutral	0.0		63.380594295987066	
4.0	34.302580760255296	pulse	1.0	t		32.0	male	white	2.389176283326701	neutral	092	sub-02	2.0	3.0	092_neutral	0.0		64.08058623648867	
5.0	35.01909105151026	face	0.0		146	54.0	female	white	2.286908077994429	neutral	136	sub-02	2.0	3.0	136_neutral	0.0		64.79709652774363	1.23332611902606
5.0	35.005106462359436	pulse	0.0	t		54.0	female	white	2.286908077994429	neutral	136	sub-02	2.0	3.0	136_neutral	0.0		64.78311193859281	
5.0	35.702523890980956	pulse	0.0	t		54.0	female	white	2.286908077994429	neutral	136	sub-02	2.0	3.0	136_neutral	0.0		65.48052936721433	
5.0	36.25241717053632	fix	1.0		443	54.0	female	white	2.286908077994429	neutral	136	sub-02	2.0	3.0	136_neutral	0.0		66.0304226467697	3.7665501208766727
5.0	36.402524585244464	pulse	1.0	t		54.0	female	white	2.286908077994429	neutral	136	sub-02	2.0	3.0	136_neutral	0.0		66.18053006147784	
5.0	37.10250354602795	pulse	1.0	t		54.0	female	white	2.286908077994429	neutral	136	sub-02	2.0	3.0	136_neutral	0.0		66.88050902226132	
5.0	37.80249971248395	pulse	1.0	t		54.0	female	white	2.286908077994429	neutral	136	sub-02	2.0	3.0	136_neutral	0.0		67.58050518871732	
5.0	38.50247142877379	pulse	1.0	t		54.0	female	white	2.286908077994429	neutral	136	sub-02	2.0	3.0	136_neutral	0.0		68.28047690500716	
5.0	39.202452200680455	pulse	1.0	t		54.0	female	white	2.286908077994429	neutral	136	sub-02	2.0	3.0	136_neutral	0.0		68.98045767691383	
5.0	39.9024387078116	pulse	1.0	t		54.0	female	white	2.286908077994429	neutral	136	sub-02	2.0	3.0	136_neutral	0.0		69.68044418404497	
6.0	40.01896729141299	face	0.0		146	26.0	female	white	4.854755272582572	smiling	027	sub-02	2.0	3.0	027_smiling	1.0	dominance	69.79697276764637	1.2333273264412128
6.0	40.60242370567266	pulse	0.0	t		26.0	female	white	4.854755272582572	smiling	027	sub-02	2.0	3.0	027_smiling	1.0	dominance	70.38042918190604	
6.0	41.252294617854204	fix	1.0		176	26.0	female	white	4.854755272582572	smiling	027	sub-02	2.0	3.0	027_smiling	1.0	dominance	71.03030009408758	1.4999672488520446
6.0	41.30240779797259	pulse	1.0	t		26.0	female	white	4.854755272582572	smiling	027	sub-02	2.0	3.0	027_smiling	1.0	dominance	71.08041327420597	
6.0	42.002392192125626	pulse	1.0	t		26.0	female	white	4.854755272582572	smiling	027	sub-02	2.0	3.0	027_smiling	1.0	dominance	71.780397668359	
6.0	42.70237054920199	pulse	1.0	t		26.0	female	white	4.854755272582572	smiling	027	sub-02	2.0	3.0	027_smiling	1.0	dominance	72.48037602543536	
6.0	42.75226186670625	rating	2.0		295	26.0	female	white	4.854755272582572	smiling	027	sub-02	2.0	3.0	027_smiling	1.0	dominance	72.53026734293962	2.499941591271636
6.0	43.402360980433514	pulse	2.0	t		26.0	female	white	4.854755272582572	smiling	027	sub-02	2.0	3.0	027_smiling	1.0	dominance	73.18036645666689	
6.0	44.102342054194196	pulse	2.0	t		26.0	female	white	4.854755272582572	smiling	027	sub-02	2.0	3.0	027_smiling	1.0	dominance	73.88034753042757	
6.0	44.11327067450111	response	2.0	n		26.0	female	white	4.854755272582572	smiling	027	sub-02	2.0	3.0	027_smiling	1.0	dominance	73.89127615073448	
6.0	44.80231045009077	pulse	2.0	t		26.0	female	white	4.854755272582572	smiling	027	sub-02	2.0	3.0	027_smiling	1.0	dominance	74.58031592632415	
6.0	45.252203457977885	fix	3.0		444	26.0	female	white	4.854755272582572	smiling	027	sub-02	2.0	3.0	027_smiling	1.0	dominance	75.03020893421126	3.7582210663222213
6.0	45.502306616546775	pulse	3.0	t		26.0	female	white	4.854755272582572	smiling	027	sub-02	2.0	3.0	027_smiling	1.0	dominance	75.28031209278015	
6.0	46.20228829401458	pulse	3.0	t		26.0	female	white	4.854755272582572	smiling	027	sub-02	2.0	3.0	027_smiling	1.0	dominance	75.98029377024795	
6.0	46.902276008561785	pulse	3.0	t		26.0	female	white	4.854755272582572	smiling	027	sub-02	2.0	3.0	027_smiling	1.0	dominance	76.68028148479516	
6.0	47.60225074338996	pulse	3.0	t		26.0	female	white	4.854755272582572	smiling	027	sub-02	2.0	3.0	027_smiling	1.0	dominance	77.38025621962333	
6.0	48.30223875979027	pulse	3.0	t		26.0	female	white	4.854755272582572	smiling	027	sub-02	2.0	3.0	027_smiling	1.0	dominance	78.08024423602365	
7.0	49.010424524300106	face	0.0		147	31.0	male	west_asian	1.9538400318344609	smiling	070	sub-02	2.0	3.0	070_smiling	0.0		78.78843000053348	1.2416627199272625
7.0	49.004458382044504	pulse	0.0	t		31.0	male	west_asian	1.9538400318344609	smiling	070	sub-02	2.0	3.0	070_smiling	0.0		78.78246385827788	
7.0	49.70220905736733	pulse	0.0	t		31.0	male	west_asian	1.9538400318344609	smiling	070	sub-02	2.0	3.0	070_smiling	0.0		79.4802145336007	
7.0	50.25208724422737	fix	1.0		443	31.0	male	west_asian	1.9538400318344609	smiling	070	sub-02	2.0	3.0	070_smiling	0.0		80.03009272046074	3.758349052374797
7.0	50.40219556449847	pulse	1.0	t		31.0	male	west_asian	1.9538400318344609	smiling	070	sub-02	2.0	3.0	070_smiling	0.0		80.18020104073184	
7.0	51.102172412303844	pulse	1.0	t		31.0	male	west_asian	1.9538400318344609	smiling	070	sub-02	2.0	3.0	070_smiling	0.0		80.88017788853722	
7.0	51.80216193797423	pulse	1.0	t		31.0	male	west_asian	1.9538400318344609	smiling	070	sub-02	2.0	3.0	070_smiling	0.0		81.58016741420761	
7.0	52.502136069095286	pulse	1.0	t		31.0	male	west_asian	1.9538400318344609	smiling	070	sub-02	2.0	3.0	070_smiling	0.0		82.28014154532866	
7.0	53.20212680218083	pulse	1.0	t		31.0	male	west_asian	1.9538400318344609	smiling	070	sub-02	2.0	3.0	070_smiling	0.0		82.9801322784142	
7.0	53.902109687064694	pulse	1.0	t		31.0	male	west_asian	1.9538400318344609	smiling	070	sub-02	2.0	3.0	070_smiling	0.0		83.68011516329807	
8.0	54.010436296602165	face	0.0		147	24.0	female	black	3.0955033824114606	neutral	099	sub-02	2.0	3.0	099_neutral	0.0		83.78844177283554	1.2415338283135497
8.0	54.60209559048781	pulse	0.0	t		24.0	female	black	3.0955033824114606	neutral	099	sub-02	2.0	3.0	099_neutral	0.0		84.38010106672118	
8.0	55.251970124915715	fix	1.0		443	24.0	female	black	3.0955033824114606	neutral	099	sub-02	2.0	3.0	099_neutral	0.0		85.02997560114909	3.7582811352485805
8.0	55.302070023462875	pulse	1.0	t		24.0	female	black	3.0955033824114606	neutral	099	sub-02	2.0	3.0	099_neutral	0.0		85.08007549969625	
8.0	56.00206347323365	pulse	1.0	t		24.0	female	black	3.0955033824114606	neutral	099	sub-02	2.0	3.0	099_neutral	0.0		85.78006894946702	
8.0	56.7020460562635	pulse	1.0	t		24.0	female	black	3.0955033824114606	neutral	099	sub-02	2.0	3.0	099_neutral	0.0		86.48005153249687	
8.0	57.40201686699129	pulse	1.0	t		24.0	female	black	3.0955033824114606	neutral	099	sub-02	2.0	3.0	099_neutral	0.0		87.18002234322466	
8.0	58.10200971305403	pulse	1.0	t		24.0	female	black	3.0955033824114606	neutral	099	sub-02	2.0	3.0	099_neutral	0.0		87.8800151892874	
8.0	58.80199350349994	pulse	1.0	t		24.0	female	black	3.0955033824114606	neutral	099	sub-02	2.0	3.0	099_neutral	0.0		88.57999897973332	
9.0	59.010251260164296	face	0.0		146	28.0	male	east_asian	1.5563072025467568	neutral	005	sub-02	2.0	3.0	005_neutral	0.0		88.78825673639767	1.241599330608551
9.0	59.50198061433912	pulse	0.0	t		28.0	male	east_asian	1.5563072025467568	neutral	005	sub-02	2.0	3.0	005_neutral	0.0		89.27998609057249	
9.0	60.20195323619009	pulse	0.0	t		28.0	male	east_asian	1.5563072025467568	neutral	005	sub-02	2.0	3.0	005_neutral	0.0		89.97995871242347	
9.0	60.25185059077285	fix	1.0		444	28.0	male	east_asian	1.5563072025467568	neutral	005	sub-02	2.0	3.0	005_neutral	0.0		90.02985606700622	3.7665380467215073
9.0	60.90194789337602	pulse	1.0	t		28.0	male	east_asian	1.5563072025467568	neutral	005	sub-02	2.0	3.0	005_neutral	0.0		90.6799533696094	
9.0	61.60194255056285	pulse	1.0	t		28.0	male	east_asian	1.5563072025467568	neutral	005	sub-02	2.0	3.0	005_neutral	0.0		91.37994802679623	
9.0	62.301911248313445	pulse	1.0	t		28.0	male	east_asian	1.5563072025467568	neutral	005	sub-02	2.0	3.0	005_neutral	0.0		92.07991672454682	
9.0	63.001893831343295	pulse	1.0	t		28.0	male	east_asian	1.5563072025467568	neutral	005	sub-02	2.0	3.0	005_neutral	0.0		92.77989930757667	
9.0	63.701882753305654	pulse	1.0	t		28.0	male	east_asian	1.5563072025467568	neutral	005	sub-02	2.0	3.0	005_neutral	0.0		93.47988822953903	
10.0	64.01838863749435	face	0.0		145	19.0	male	white	3.2522881018702745	neutral	018	sub-02	2.0	3.0	018_neutral	0.0		93.79639411372773	1.233330646833565
10.0	64.40186412892035	pulse	0.0	t		19.0	male	white	3.2522881018702745	neutral	018	sub-02	2.0	3.0	018_neutral	0.0		94.17986960515373	
10.0	65.10184218414179	pulse	0.0	t		19.0	male	white	3.2522881018702745	neutral	018	sub-02	2.0	3.0	018_neutral	0.0		94.87984766037516	
10.0	65.25171928432792	fix	1.0		444	19.0	male	white	3.2522881018702745	neutral	018	sub-02	2.0	3.0	018_neutral	0.0		95.0297247605613	3.7582415923880035
10.0	65.80183352093536	pulse	1.0	t		19.0	male	white	3.2522881018702745	neutral	018	sub-02	2.0	3.0	018_neutral	0.0		95.57983899716874	
10.0	66.50181399098801	pulse	1.0	t		19.0	male	white	3.2522881018702745	neutral	018	sub-02	2.0	3.0	018_neutral	0.0		96.27981946722139	
10.0	67.20179959255711	pulse	1.0	t		19.0	male	white	3.2522881018702745	neutral	018	sub-02	2.0	3.0	018_neutral	0.0		96.97980506879048	
10.0	67.9017809681718	pulse	1.0	t		19.0	male	white	3.2522881018702745	neutral	018	sub-02	2.0	3.0	018_neutral	0.0		97.67978644440518	
10.0	68.60176204193249	pulse	1.0	t		19.0	male	white	3.2522881018702745	neutral	018	sub-02	2.0	3.0	018_neutral	0.0		98.37976751816586	
11.0	69.00996087671592	face	0.0		146	28.0	male	white	3.9076800636689217	smiling	033	sub-02	2.0	3.0	033_smiling	0.0		98.7879663529493	1.2416382697620065
11.0	69.30174522867037	pulse	0.0	t		28.0	male	white	3.9076800636689217	smiling	033	sub-02	2.0	3.0	033_smiling	0.0		99.07975070490374	
11.0	70.00170879490543	pulse	0.0	t		28.0	male	white	3.9076800636689217	smiling	033	sub-02	2.0	3.0	033_smiling	0.0		99.7797142711388	
11.0	70.25159914647793	fix	1.0		444	28.0	male	white	3.9076800636689217	smiling	033	sub-02	2.0	3.0	033_smiling	0.0		100.0296046227113	3.758321583670295
11.0	70.70172880781865	pulse	1.0	t		28.0	male	white	3.9076800636689217	smiling	033	sub-02	2.0	3.0	033_smiling	0.0		100.47973428405203	
11.0	71.40170203337766	pulse	1.0	t		28.0	male	white	3.9076800636689217	smiling	033	sub-02	2.0	3.0	033_smiling	0.0		101.17970750961103	
11.0	72.10168069230804	pulse	1.0	t		28.0	male	white	3.9076800636689217	smiling	033	sub-02	2.0	3.0	033_smiling	0.0		101.87968616854141	
11.0	72.80166387904592	pulse	1.0	t		28.0	male	white	3.9076800636689217	smiling	033	sub-02	2.0	3.0	033_smiling	0.0		102.5796693552793	
11.0	73.50165098988418	pulse	1.0	t		28.0	male	white	3.9076800636689217	smiling	033	sub-02	2.0	3.0	033_smiling	0.0		103.27965646611756	
12.0	74.00992073014822	face	0.0		146	40.0	male	white	1.868682849184242	neutral	172	sub-02	2.0	3.0	172_neutral	0.0		103.7879262063816	1.2415778989816317
12.0	74.20163236549888	pulse	0.0	t		40.0	male	white	1.868682849184242	neutral	172	sub-02	2.0	3.0	172_neutral	0.0		103.97963784173226	
12.0	74.90160921330516	pulse	0.0	t		40.0	male	white	1.868682849184242	neutral	172	sub-02	2.0	3.0	172_neutral	0.0		104.67961468953854	
12.0	75.25149862912986	fix	1.0		444	40.0	male	white	1.868682849184242	neutral	172	sub-02	2.0	3.0	172_neutral	0.0		105.02950410536323	3.7665627987416883
12.0	75.60160115380586	pulse	1.0	t		40.0	male	white	1.868682849184242	neutral	172	sub-02	2.0	3.0	172_neutral	0.0		105.37960663003923	
12.0	76.30158313312859	pulse	1.0	t		40.0	male	white	1.868682849184242	neutral	172	sub-02	2.0	3.0	172_neutral	0.0		106.07958860936196	
12.0	77.0015672254276	pulse	1.0	t		40.0	male	white	1.868682849184242	neutral	172	sub-02	2.0	3.0	172_neutral	0.0		106.77957270166098	
12.0	77.70155916592921	pulse	1.0	t		40.0	male	white	1.868682849184242	neutral	172	sub-02	2.0	3.0	172_neutral	0.0		107.47956464216259	
12.0	78.40153903227383	pulse	1.0	t		40.0	male	white	1.868682849184242	neutral	172	sub-02	2.0	3.0	172_neutral	0.0		108.1795445085072	
13.0	79.01806142787154	face	0.0		145	40.0	male	white	1.868682849184242	smiling	172	sub-02	2.0	3.0	172_smiling	0.0		108.79606690410492	1.2333197800926428
13.0	79.10151708749618	pulse	0.0	t		40.0	male	white	1.868682849184242	smiling	172	sub-02	2.0	3.0	172_smiling	0.0		108.87952256372955	
13.0	79.80149635013368	pulse	0.0	t		40.0	male	white	1.868682849184242	smiling	172	sub-02	2.0	3.0	172_smiling	0.0		109.57950182636705	
13.0	80.25138120796419	fix	1.0		444	40.0	male	white	1.868682849184242	smiling	172	sub-02	2.0	3.0	172_smiling	0.0		110.02938668419756	3.766551026439629
13.0	80.5014783294555	pulse	1.0	t		40.0	male	white	1.868682849184242	smiling	172	sub-02	2.0	3.0	172_smiling	0.0		110.27948380568887	
13.0	81.20146453473262	pulse	1.0	t		40.0	male	white	1.868682849184242	smiling	172	sub-02	2.0	3.0	172_smiling	0.0		110.979470010966	
13.0	81.90145315484096	pulse	1.0	t		40.0	male	white	1.868682849184242	smiling	172	sub-02	2.0	3.0	172_smiling	0.0		111.67945863107434	
13.0	82.60142939893922	pulse	1.0	t		40.0	male	white	1.868682849184242	smiling	172	sub-02	2.0	3.0	172_smiling	0.0		112.37943487517259	
13.0	83.30143914881955	pulse	1.0	t		40.0	male	white	1.868682849184242	smiling	172	sub-02	2.0	3.0	172_smiling	0.0		113.07944462505293	
14.0	84.01793223440382	face	0.0		146	31.0	female	west_asian	2.364902506963788	neutral	006	sub-02	2.0	3.0	006_neutral	0.0		113.79593771063719	1.233331250541596
14.0	84.00413449281405	pulse	0.0	t		31.0	female	west_asian	2.364902506963788	neutral	006	sub-02	2.0	3.0	006_neutral	0.0		113.78213996904742	
14.0	84.70138378881529	pulse	0.0	t		31.0	female	west_asian	2.364902506963788	neutral	006	sub-02	2.0	3.0	006_neutral	0.0		114.47938926504867	
14.0	85.25126348494541	fix	1.0		443	31.0	female	west_asian	2.364902506963788	neutral	006	sub-02	2.0	3.0	006_neutral	0.0		115.02926896117879	3.7665631005947944
14.0	85.40136848482325	pulse	1.0	t		31.0	female	west_asian	2.364902506963788	neutral	006	sub-02	2.0	3.0	006_neutral	0.0		115.17937396105663	
14.0	86.1013552938075	pulse	1.0	t		31.0	female	west_asian	2.364902506963788	neutral	006	sub-02	2.0	3.0	006_neutral	0.0		115.87936077004088	
14.0	86.80134451762387	pulse	1.0	t		31.0	female	west_asian	2.364902506963788	neutral	006	sub-02	2.0	3.0	006_neutral	0.0		116.57934999385725	
14.0	87.5013159320597	pulse	1.0	t		31.0	female	west_asian	2.364902506963788	neutral	006	sub-02	2.0	3.0	006_neutral	0.0		117.27932140829307	
14.0	88.20130757070638	pulse	1.0	t		31.0	female	west_asian	2.364902506963788	neutral	006	sub-02	2.0	3.0	006_neutral	0.0		117.97931304693975	
14.0	88.9012916630063	pulse	1.0	t		31.0	female	west_asian	2.364902506963788	neutral	006	sub-02	2.0	3.0	006_neutral	0.0		118.67929713923968	
15.0	89.0178265855402	face	0.0		146	28.0	male	east_asian	1.5563072025467568	smiling	005	sub-02	2.0	3.0	005_smiling	1.0	trustworthiness	118.79583206177358	1.2333191763855211
15.0	89.60126971822774	pulse	0.0	t		28.0	male	east_asian	1.5563072025467568	smiling	005	sub-02	2.0	3.0	005_smiling	1.0	trustworthiness	119.37927519446112	
15.0	90.25114576192573	fix	1.0		176	28.0	male	east_asian	1.5563072025467568	smiling	005	sub-02	2.0	3.0	005_smiling	1.0	trustworthiness	120.0291512381591	1.4999651358748451
15.0	90.30125471608972	pulse	1.0	t		28.0	male	east_asian	1.5563072025467568	smiling	005	sub-02	2.0	3.0	005_smiling	1.0	trustworthiness	120.07926019232309	
15.0	91.00123518614237	pulse	1.0	t		28.0	male	east_asian	1.5563072025467568	smiling	005	sub-02	2.0	3.0	005_smiling	1.0	trustworthiness	120.77924066237574	
15.0	91.7012256173739	pulse	1.0	t		28.0	male	east_asian	1.5563072025467568	smiling	005	sub-02	2.0	3.0	005_smiling	1.0	trustworthiness	121.47923109360727	
15.0	91.75111089780057	rating	2.0		295	28.0	male	east_asian	1.5563072025467568	smiling	005	sub-02	2.0	3.0	005_smiling	1.0	trustworthiness	121.52911637403395	2.4999409875636047
15.0	92.40121091708897	pulse	2.0	t		28.0	male	east_asian	1.5563072025467568	smiling	005	sub-02	2.0	3.0	005_smiling	1.0	trustworthiness	122.17921639332235	
15.0	92.95119263983543	response	2.0	w		28.0	male	east_asian	1.5563072025467568	smiling	005	sub-02	2.0	3.0	005_smiling	1.0	trustworthiness	122.7291981160688	
15.0	93.10117931298646	pulse	2.0	t		28.0	male	east_asian	1.5563072025467568	smiling	005	sub-02	2.0	3.0	005_smiling	1.0	trustworthiness	122.87918478921983	
15.0	93.8011721590492	pulse	2.0	t		28.0	male	east_asian	1.5563072025467568	smiling	005	sub-02	2.0	3.0	005_smiling	1.0	trustworthiness	123.57917763528258	
15.0	94.25105188536418	fix	3.0		444	28.0	male	east_asian	1.5563072025467568	smiling	005	sub-02	2.0	3.0	005_smiling	1.0	trustworthiness	124.02905736159755	3.7665558561011494
15.0	94.50115866617944	pulse	3.0	t		28.0	male	east_asian	1.5563072025467568	smiling	005	sub-02	2.0	3.0	005_smiling	1.0	trustworthiness	124.27916414241281	
15.0	95.2011352121317	pulse	3.0	t		28.0	male	east_asian	1.5563072025467568	smiling	005	sub-02	2.0	3.0	005_smiling	1.0	trustworthiness	124.97914068836508	
15.0	95.9011226248249	pulse	3.0	t		28.0	male	east_asian	1.5563072025467568	smiling	005	sub-02	2.0	3.0	005_smiling	1.0	trustworthiness	125.67912810105827	
15.0	96.601108528248	pulse	3.0	t		28.0	male	east_asian	1.5563072025467568	smiling	005	sub-02	2.0	3.0	005_smiling	1.0	trustworthiness	126.37911400448138	
15.0	97.30108748903058	pulse	3.0	t		28.0	male	east_asian	1.5563072025467568	smiling	005	sub-02	2.0	3.0	005_smiling	1.0	trustworthiness	127.07909296526395	
16.0	98.01760774146533	face	0.0		146	37.0	male	white	3.898925586947871	smiling	101	sub-02	2.0	3.0	101_smiling	0.0		127.7956132176987	1.2333273264412128
16.0	98.00392560991804	pulse	0.0	t		37.0	male	white	3.898925586947871	smiling	101	sub-02	2.0	3.0	101_smiling	0.0		127.78193108615142	
16.0	98.70105808846165	pulse	0.0	t		37.0	male	white	3.898925586947871	smiling	101	sub-02	2.0	3.0	101_smiling	0.0		128.47906356469502	
16.0	99.25093506790654	fix	1.0		443	37.0	male	white	3.898925586947871	smiling	101	sub-02	2.0	3.0	101_smiling	0.0		129.0289405441399	3.7582385738487574
16.0	99.40104610486196	pulse	1.0	t		37.0	male	white	3.898925586947871	smiling	101	sub-02	2.0	3.0	101_smiling	0.0		129.17905158109534	
16.0	100.10103985648584	pulse	1.0	t		37.0	male	white	3.898925586947871	smiling	101	sub-02	2.0	3.0	101_smiling	0.0		129.87904533271922	
16.0	100.80100493199006	pulse	1.0	t		37.0	male	white	3.898925586947871	smiling	101	sub-02	2.0	3.0	101_smiling	0.0		130.57901040822344	
16.0	101.50099264653727	pulse	1.0	t		37.0	male	white	3.898925586947871	smiling	101	sub-02	2.0	3.0	101_smiling	0.0		131.27899812277064	
16.0	102.20097372029795	pulse	1.0	t		37.0	male	white	3.898925586947871	smiling	101	sub-02	2.0	3.0	101_smiling	0.0		131.97897919653133	
16.0	102.900958416305	pulse	1.0	t		37.0	male	white	3.898925586947871	smiling	101	sub-02	2.0	3.0	101_smiling	0.0		132.67896389253838	
17.0	103.0091736417553	face	0.0		147	20.0	male	black	3.1070433744528456	neutral	082	sub-02	2.0	3.0	082_neutral	0.0		132.78717911798867	1.24162287521267
17.0	103.6009376789425	pulse	0.0	t		20.0	male	black	3.1070433744528456	neutral	082	sub-02	2.0	3.0	082_neutral	0.0		133.37894315517588	
17.0	104.25079651696797	fix	1.0		443	20.0	male	black	3.1070433744528456	neutral	082	sub-02	2.0	3.0	082_neutral	0.0		134.02880199320134	3.7583282244559086
17.0	104.30093988247609	pulse	1.0	t		20.0	male	black	3.1070433744528456	neutral	082	sub-02	2.0	3.0	082_neutral	0.0		134.07894535870946	
17.0	105.00091340988911	pulse	1.0	t		20.0	male	black	3.1070433744528456	neutral	082	sub-02	2.0	3.0	082_neutral	0.0		134.77891888612248	
17.0	105.70089146511054	pulse	1.0	t		20.0	male	black	3.1070433744528456	neutral	082	sub-02	2.0	3.0	082_neutral	0.0		135.47889694134392	
17.0	106.4008634832544	pulse	1.0	t		20.0	male	black	3.1070433744528456	neutral	082	sub-02	2.0	3.0	082_neutral	0.0		136.17886895948777	
17.0	107.10086085712555	pulse	1.0	t		20.0	male	black	3.1070433744528456	neutral	082	sub-02	2.0	3.0	082_neutral	0.0		136.87886633335893	
17.0	107.80084374201033	pulse	1.0	t		20.0	male	black	3.1070433744528456	neutral	082	sub-02	2.0	3.0	082_neutral	0.0		137.5788492182437	
18.0	108.00912474142388	face	0.0		146	25.0	female	black	3.858336649423	neutral	126	sub-02	2.0	3.0	126_neutral	0.0		137.78713021765725	1.2415736730281424
18.0	108.50082541947813	pulse	0.0	t		25.0	female	black	3.858336649423	neutral	126	sub-02	2.0	3.0	126_neutral	0.0		138.2788308957115	
18.0	109.20080739880086	pulse	0.0	t		25.0	female	black	3.858336649423	neutral	126	sub-02	2.0	3.0	126_neutral	0.0		138.97881287503424	
18.0	109.25069841445202	fix	1.0		444	25.0	female	black	3.858336649423	neutral	126	sub-02	2.0	3.0	126_neutral	0.0		139.0287038906854	3.7665540449779655
18.0	109.90079843374042	pulse	1.0	t		25.0	female	black	3.858336649423	neutral	126	sub-02	2.0	3.0	126_neutral	0.0		139.6788039099738	
18.0	110.60077226300746	pulse	1.0	t		25.0	female	black	3.858336649423	neutral	126	sub-02	2.0	3.0	126_neutral	0.0		140.37877773924083	
18.0	111.30075363862215	pulse	1.0	t		25.0	female	black	3.858336649423	neutral	126	sub-02	2.0	3.0	126_neutral	0.0		141.07875911485553	
18.0	112.00074739024603	pulse	1.0	t		25.0	female	black	3.858336649423	neutral	126	sub-02	2.0	3.0	126_neutral	0.0		141.7787528664794	
18.0	112.70072695473755	pulse	1.0	t		25.0	female	black	3.858336649423	neutral	126	sub-02	2.0	3.0	126_neutral	0.0		142.47873243097092	
19.0	113.01725245942998	face	0.0		145	30.0	female	black	2.7345801830481498	smiling	062	sub-02	2.0	3.0	062_smiling	0.0		142.79525793566336	1.233328835710381
19.0	113.40071527299187	pulse	0.0	t		30.0	female	black	2.7345801830481498	smiling	062	sub-02	2.0	3.0	062_smiling	0.0		143.17872074922525	
19.0	114.10069332821331	pulse	0.0	t		30.0	female	black	2.7345801830481498	smiling	062	sub-02	2.0	3.0	062_smiling	0.0		143.87869880444669	
19.0	114.25058129514036	fix	1.0		444	30.0	female	black	2.7345801830481498	smiling	062	sub-02	2.0	3.0	062_smiling	0.0		144.02858677137374	3.7665655154260094
19.0	114.80067802422127	pulse	1.0	t		30.0	female	black	2.7345801830481498	smiling	062	sub-02	2.0	3.0	062_smiling	0.0		144.57868350045464	
19.0	115.50065547573467	pulse	1.0	t		30.0	female	black	2.7345801830481498	smiling	062	sub-02	2.0	3.0	062_smiling	0.0		145.27866095196805	
19.0	116.20064469955105	pulse	1.0	t		30.0	female	black	2.7345801830481498	smiling	062	sub-02	2.0	3.0	062_smiling	0.0		145.97865017578442	
19.0	116.9006336215125	pulse	1.0	t		30.0	female	black	2.7345801830481498	smiling	062	sub-02	2.0	3.0	062_smiling	0.0		146.67863909774587	
19.0	117.60060956375764	pulse	1.0	t		30.0	female	black	2.7345801830481498	smiling	062	sub-02	2.0	3.0	062_smiling	0.0		147.37861503999102	
20.0	118.01714681056637	face	0.0		145	31.0	female	white	2.1822522881018704	neutral	102	sub-02	2.0	3.0	102_neutral	0.0		147.79515228679975	1.2333167615543061
20.0	118.30059697644992	pulse	0.0	t		31.0	female	white	2.1822522881018704	neutral	102	sub-02	2.0	3.0	102_neutral	0.0		148.0786024526833	
20.0	119.00057623908742	pulse	0.0	t		31.0	female	white	2.1822522881018704	neutral	102	sub-02	2.0	3.0	102_neutral	0.0		148.7785817153208	
20.0	119.25046357212068	fix	1.0		1185	31.0	female	white	2.1822522881018704	neutral	102	sub-02	2.0	3.0	102_neutral	0.0		149.02846904835405	10.01641813526112
20.0	119.70056546290289	pulse	1.0	t		31.0	female	white	2.1822522881018704	neutral	102	sub-02	2.0	3.0	102_neutral	0.0		149.47857093913626	
20.0	120.40054049958599	pulse	1.0	t		31.0	female	white	2.1822522881018704	neutral	102	sub-02	2.0	3.0	102_neutral	0.0		150.17854597581936	
20.0	121.10051553626909	pulse	1.0	t		31.0	female	white	2.1822522881018704	neutral	102	sub-02	2.0	3.0	102_neutral	0.0		150.87852101250246	
20.0	121.80050808047781	pulse	1.0	t		31.0	female	white	2.1822522881018704	neutral	102	sub-02	2.0	3.0	102_neutral	0.0		151.5785135567112	
20.0	122.50050394507889	pulse	1.0	t		31.0	female	white	2.1822522881018704	neutral	102	sub-02	2.0	3.0	102_neutral	0.0		152.27850942131226	
20.0	123.20050826158968	pulse	1.0	t		31.0	female	white	2.1822522881018704	neutral	102	sub-02	2.0	3.0	102_neutral	0.0		152.97851373782305	
20.0	123.90046850743147	pulse	1.0	t		31.0	female	white	2.1822522881018704	neutral	102	sub-02	2.0	3.0	102_neutral	0.0		153.67847398366484	
20.0	124.6004423366985	pulse	1.0	t		31.0	female	white	2.1822522881018704	neutral	102	sub-02	2.0	3.0	102_neutral	0.0		154.37844781293188	
20.0	125.3004234104601	pulse	1.0	t		31.0	female	white	2.1822522881018704	neutral	102	sub-02	2.0	3.0	102_neutral	0.0		155.07842888669347	
20.0	126.00041203056753	pulse	1.0	t		31.0	female	white	2.1822522881018704	neutral	102	sub-02	2.0	3.0	102_neutral	0.0		155.7784175068009	
20.0	126.70040246179906	pulse	1.0	t		31.0	female	white	2.1822522881018704	neutral	102	sub-02	2.0	3.0	102_neutral	0.0		156.47840793803243	
20.0	127.40038202629057	pulse	1.0	t		31.0	female	white	2.1822522881018704	neutral	102	sub-02	2.0	3.0	102_neutral	0.0		157.17838750252395	
20.0	128.1003621944892	pulse	1.0	t		31.0	female	white	2.1822522881018704	neutral	102	sub-02	2.0	3.0	102_neutral	0.0		157.87836767072258	
20.0	128.8003517201596	pulse	1.0	t		31.0	female	white	2.1822522881018704	neutral	102	sub-02	2.0	3.0	102_neutral	0.0		158.57835719639297	
21.0	129.2668817073818	face	0.0		145	27.0	female	white	3.504576203740549	neutral	144	sub-02	2.0	3.0	144_neutral	0.0		159.04488718361517	1.2333176671163528
21.0	129.50033460504346	pulse	0.0	t		27.0	female	white	3.504576203740549	neutral	144	sub-02	2.0	3.0	144_neutral	0.0		159.27834008127684	
21.0	130.20030692504133	pulse	0.0	t		27.0	female	white	3.504576203740549	neutral	144	sub-02	2.0	3.0	144_neutral	0.0		159.9783124012747	
21.0	130.50019937449815	fix	1.0		444	27.0	female	white	3.504576203740549	neutral	144	sub-02	2.0	3.0	144_neutral	0.0		160.27820485073153	3.7583113206374037
21.0	130.90030369520446	pulse	1.0	t		27.0	female	white	3.504576203740549	neutral	144	sub-02	2.0	3.0	144_neutral	0.0		160.67830917143783	
21.0	131.60028325969597	pulse	1.0	t		27.0	female	white	3.504576203740549	neutral	144	sub-02	2.0	3.0	144_neutral	0.0		161.37828873592935	
21.0	132.30026372974862	pulse	1.0	t		27.0	female	white	3.504576203740549	neutral	144	sub-02	2.0	3.0	144_neutral	0.0		162.078269205982	
21.0	133.00024540721734	pulse	1.0	t		27.0	female	white	3.504576203740549	neutral	144	sub-02	2.0	3.0	144_neutral	0.0		162.7782508834507	
21.0	133.7002406681113	pulse	1.0	t		27.0	female	white	3.504576203740549	neutral	144	sub-02	2.0	3.0	144_neutral	0.0		163.47824614434467	
22.0	134.25851069513556	face	0.0		146	19.0	male	white	3.2522881018702745	smiling	018	sub-02	2.0	3.0	018_smiling	0.0		164.03651617136893	1.2415824267909557
22.0	134.4002226474331	pulse	0.0	t		19.0	male	white	3.2522881018702745	smiling	018	sub-02	2.0	3.0	018_smiling	0.0		164.17822812366649	
22.0	135.10028099579176	pulse	0.0	t		19.0	male	white	3.2522881018702745	smiling	018	sub-02	2.0	3.0	018_smiling	0.0		164.87828647202514	
22.0	135.5000931219265	fix	1.0		444	19.0	male	white	3.2522881018702745	smiling	018	sub-02	2.0	3.0	018_smiling	0.0		165.2780985981599	3.7665531394168283
22.0	135.80020260433503	pulse	1.0	t		19.0	male	white	3.2522881018702745	smiling	018	sub-02	2.0	3.0	018_smiling	0.0		165.5782080805684	
22.0	136.5001664724232	pulse	1.0	t		19.0	male	white	3.2522881018702745	smiling	018	sub-02	2.0	3.0	018_smiling	0.0		166.27817194865656	
22.0	137.2001457350607	pulse	1.0	t		19.0	male	white	3.2522881018702745	smiling	018	sub-02	2.0	3.0	018_smiling	0.0		166.97815121129406	
22.0	137.90013858112343	pulse	1.0	t		19.0	male	white	3.2522881018702745	smiling	018	sub-02	2.0	3.0	018_smiling	0.0		167.6781440573568	
22.0	138.60010758072804	pulse	1.0	t		19.0	male	white	3.2522881018702745	smiling	018	sub-02	2.0	3.0	018_smiling	0.0		168.3781130569614	
23.0	139.26664626134334	face	0.0		145	25.0	female	west_asian	2.6756864305610826	neutral	064	sub-02	2.0	3.0	064_neutral	0.0		169.04465173757671	1.2333182708234744
23.0	139.3001263862261	pulse	0.0	t		25.0	female	west_asian	2.6756864305610826	neutral	064	sub-02	2.0	3.0	064_neutral	0.0		169.0781318624595	
23.0	140.00008904689912	pulse	0.0	t		25.0	female	west_asian	2.6756864305610826	neutral	064	sub-02	2.0	3.0	064_neutral	0.0		169.7780945231325	
23.0	140.4999645321668	fix	1.0		443	25.0	female	west_asian	2.6756864305610826	neutral	064	sub-02	2.0	3.0	064_neutral	0.0		170.2779700084002	3.7582204626150997
23.0	140.700071931783	pulse	1.0	t		25.0	female	west_asian	2.6756864305610826	neutral	064	sub-02	2.0	3.0	064_neutral	0.0		170.47807740801636	
23.0	141.4000475721732	pulse	1.0	t		25.0	female	west_asian	2.6756864305610826	neutral	064	sub-02	2.0	3.0	064_neutral	0.0		171.17805304840658	
23.0	142.10004615346043	pulse	1.0	t		25.0	female	west_asian	2.6756864305610826	neutral	064	sub-02	2.0	3.0	064_neutral	0.0		171.8780516296938	
23.0	142.8000205864355	pulse	1.0	t		25.0	female	west_asian	2.6756864305610826	neutral	064	sub-02	2.0	3.0	064_neutral	0.0		172.57802606266887	
23.0	143.5000064898586	pulse	1.0	t		25.0	female	west_asian	2.6756864305610826	neutral	064	sub-02	2.0	3.0	064_neutral	0.0		173.27801196609198	
23.0	144.19998635620323	pulse	1.0	t		25.0	female	west_asian	2.6756864305610826	neutral	064	sub-02	2.0	3.0	064_neutral	0.0		173.9779918324366	
24.0	144.2581849947819	face	0.0		147	19.0	female	white	4.298846000795861	neutral	100	sub-02	2.0	3.0	100_neutral	0.0		174.0361904710153	1.241662418073247
24.0	144.8999734670424	pulse	0.0	t		19.0	female	white	4.298846000795861	neutral	100	sub-02	2.0	3.0	100_neutral	0.0		174.67797894327578	
24.0	145.49984741285516	fix	1.0		443	19.0	female	white	4.298846000795861	neutral	100	sub-02	2.0	3.0	100_neutral	0.0		175.27785288908854	3.7665703450884394
24.0	145.59995635192627	pulse	1.0	t		19.0	female	white	4.298846000795861	neutral	100	sub-02	2.0	3.0	100_neutral	0.0		175.37796182815964	
24.0	146.29993893495612	pulse	1.0	t		19.0	female	white	4.298846000795861	neutral	100	sub-02	2.0	3.0	100_neutral	0.0		176.0779444111895	
24.0	146.99992272540203	pulse	1.0	t		19.0	female	white	4.298846000795861	neutral	100	sub-02	2.0	3.0	100_neutral	0.0		176.7779282016354	
24.0	147.69990470472476	pulse	1.0	t		19.0	female	white	4.298846000795861	neutral	100	sub-02	2.0	3.0	100_neutral	0.0		177.47791018095813	
24.0	148.39989000443984	pulse	1.0	t		19.0	female	white	4.298846000795861	neutral	100	sub-02	2.0	3.0	100_neutral	0.0		178.17789548067321	
24.0	149.09986926707734	pulse	1.0	t		19.0	female	white	4.298846000795861	neutral	100	sub-02	2.0	3.0	100_neutral	0.0		178.8778747433107	
25.0	149.2664177579436	face	0.0		146	54.0	female	white	2.286908077994429	smiling	136	sub-02	2.0	3.0	136_smiling	1.0	attractiveness	179.04442323417697	1.2333125355999073
25.0	149.79985577420848	pulse	0.0	t		54.0	female	white	2.286908077994429	smiling	136	sub-02	2.0	3.0	136_smiling	1.0	attractiveness	179.57786125044186	
25.0	150.4997302935435	fix	1.0		177	54.0	female	white	2.286908077994429	smiling	136	sub-02	2.0	3.0	136_smiling	1.0	attractiveness	180.27773576977688	1.4999660414368918
25.0	150.50752717967953	pulse	1.0	t		54.0	female	white	2.286908077994429	smiling	136	sub-02	2.0	3.0	136_smiling	1.0	attractiveness	180.2855326559129	
25.0	151.1998321088622	pulse	1.0	t		54.0	female	white	2.286908077994429	smiling	136	sub-02	2.0	3.0	136_smiling	1.0	attractiveness	180.97783758509559	
25.0	151.89981167335372	pulse	1.0	t		54.0	female	white	2.286908077994429	smiling	136	sub-02	2.0	3.0	136_smiling	1.0	attractiveness	181.6778171495871	
25.0	151.9996963349804	rating	2.0		295	54.0	female	white	2.286908077994429	smiling	136	sub-02	2.0	3.0	136_smiling	1.0	attractiveness	181.77770181121377	2.499940082001558
25.0	152.59979395453047	pulse	2.0	t		54.0	female	white	2.286908077994429	smiling	136	sub-02	2.0	3.0	136_smiling	1.0	attractiveness	182.37779943076384	
25.0	152.87477530750584	response	2.0	d		54.0	female	white	2.286908077994429	smiling	136	sub-02	2.0	3.0	136_smiling	1.0	attractiveness	182.65278078373922	
25.0	153.29976265228106	pulse	2.0	t		54.0	female	white	2.286908077994429	smiling	136	sub-02	2.0	3.0	136_smiling	1.0	attractiveness	183.07776812851444	
25.0	153.999757309467	pulse	2.0	t		54.0	female	white	2.286908077994429	smiling	136	sub-02	2.0	3.0	136_smiling	1.0	attractiveness	183.77776278570036	
25.0	154.49963641698196	fix	3.0		443	54.0	female	white	2.286908077994429	smiling	136	sub-02	2.0	3.0	136_smiling	1.0	attractiveness	184.27764189321533	3.7665624968867633
25.0	154.69974079805888	pulse	3.0	t		54.0	female	white	2.286908077994429	smiling	136	sub-02	2.0	3.0	136_smiling	1.0	attractiveness	184.47774627429226	
25.0	155.39968836603748	pulse	3.0	t		54.0	female	white	2.286908077994429	smiling	136	sub-02	2.0	3.0	136_smiling	1.0	attractiveness	185.17769384227086	
25.0	156.0996999270419	pulse	3.0	t		54.0	female	white	2.286908077994429	smiling	136	sub-02	2.0	3.0	136_smiling	1.0	attractiveness	185.8777054032753	
25.0	156.79969548978897	pulse	3.0	t		54.0	female	white	2.286908077994429	smiling	136	sub-02	2.0	3.0	136_smiling	1.0	attractiveness	186.57770096602235	
25.0	157.49966992276404	pulse	3.0	t		54.0	female	white	2.286908077994429	smiling	136	sub-02	2.0	3.0	136_smiling	1.0	attractiveness	187.27767539899742	
25.0	158.19967031517444	pulse	3.0	t		54.0	female	white	2.286908077994429	smiling	136	sub-02	2.0	3.0	136_smiling	1.0	attractiveness	187.97767579140782	
26.0	158.26619891386872	face	0.0		146	25.0	female	west_asian	2.6756864305610826	smiling	064	sub-02	2.0	3.0	064_smiling	0.0		188.0442043901021	1.2333185726783995
26.0	158.8996447481495	pulse	0.0	t		25.0	female	west_asian	2.6756864305610826	smiling	064	sub-02	2.0	3.0	064_smiling	0.0		188.6776502243829	
26.0	159.49951748654712	fix	1.0		443	25.0	female	west_asian	2.6756864305610826	smiling	064	sub-02	2.0	3.0	064_smiling	0.0		189.2775229627805	3.7583128299074815
26.0	159.59966928887116	pulse	1.0	t		25.0	female	west_asian	2.6756864305610826	smiling	064	sub-02	2.0	3.0	064_smiling	0.0		189.37767476510453	
26.0	160.29960055673928	pulse	1.0	t		25.0	female	west_asian	2.6756864305610826	smiling	064	sub-02	2.0	3.0	064_smiling	0.0		190.07760603297265	
26.0	160.999592799094	pulse	1.0	t		25.0	female	west_asian	2.6756864305610826	smiling	064	sub-02	2.0	3.0	064_smiling	0.0		190.77759827532736	
26.0	161.6995762876859	pulse	1.0	t		25.0	female	west_asian	2.6756864305610826	smiling	064	sub-02	2.0	3.0	064_smiling	0.0		191.47758176391926	
26.0	162.39957577453424	pulse	1.0	t		25.0	female	west_asian	2.6756864305610826	smiling	064	sub-02	2.0	3.0	064_smiling	0.0		192.17758125076762	
26.0	163.0995523204865	pulse	1.0	t		25.0	female	west_asian	2.6756864305610826	smiling	064	sub-02	2.0	3.0	064_smiling	0.0		192.87755779671988	
27.0	163.2578303164546	face	0.0		147	26.0	male	white	2.7966573816155993	neutral	117	sub-02	2.0	3.0	117_neutral	0.0		193.03583579268798	1.2415706544879868
27.0	163.79953007385393	pulse	0.0	t		26.0	male	white	2.7966573816155993	neutral	117	sub-02	2.0	3.0	117_neutral	0.0		193.5775355500873	
27.0	164.4994009709426	fix	1.0		444	26.0	male	white	2.7966573816155993	neutral	117	sub-02	2.0	3.0	117_neutral	0.0		194.27740644717596	3.758286870473057
27.0	164.50688936239658	pulse	1.0	t		26.0	male	white	2.7966573816155993	neutral	117	sub-02	2.0	3.0	117_neutral	0.0		194.28489483862995	
27.0	165.19949493806052	pulse	1.0	t		26.0	male	white	2.7966573816155993	neutral	117	sub-02	2.0	3.0	117_neutral	0.0		194.9775004142939	
27.0	165.89948053962962	pulse	1.0	t		26.0	male	white	2.7966573816155993	neutral	117	sub-02	2.0	3.0	117_neutral	0.0		195.677486015863	
27.0	166.59946493378357	pulse	1.0	t		26.0	male	white	2.7966573816155993	neutral	117	sub-02	2.0	3.0	117_neutral	0.0		196.37747041001694	
27.0	167.29944208344386	pulse	1.0	t		26.0	male	white	2.7966573816155993	neutral	117	sub-02	2.0	3.0	117_neutral	0.0		197.07744755967724	
27.0	167.99942466647371	pulse	1.0	t		26.0	male	white	2.7966573816155993	neutral	117	sub-02	2.0	3.0	117_neutral	0.0		197.7774301427071	
28.0	168.25768784141565	face	0.0		146	22.0	male	black	2.767608436132113	neutral	044	sub-02	2.0	3.0	044_neutral	0.0		198.03569331764902	1.241596915777336
28.0	168.6993951753484	pulse	0.0	t		22.0	male	black	2.767608436132113	neutral	044	sub-02	2.0	3.0	044_neutral	0.0		198.47740065158177	
28.0	169.39938258804068	pulse	0.0	t		22.0	male	black	2.767608436132113	neutral	044	sub-02	2.0	3.0	044_neutral	0.0		199.17738806427406	
28.0	169.49928475719298	fix	1.0		444	22.0	male	black	2.767608436132113	neutral	044	sub-02	2.0	3.0	044_neutral	0.0		199.27729023342636	3.758231027501097
28.0	170.09938086747297	pulse	1.0	t		22.0	male	black	2.767608436132113	neutral	044	sub-02	2.0	3.0	044_neutral	0.0		199.87738634370635	
28.0	170.79936314864972	pulse	1.0	t		22.0	male	black	2.767608436132113	neutral	044	sub-02	2.0	3.0	044_neutral	0.0		200.5773686248831	
28.0	171.49935810768966	pulse	1.0	t		22.0	male	black	2.767608436132113	neutral	044	sub-02	2.0	3.0	044_neutral	0.0		201.27736358392303	
28.0	172.19933737032716	pulse	1.0	t		22.0	male	black	2.767608436132113	neutral	044	sub-02	2.0	3.0	044_neutral	0.0		201.97734284656053	
28.0	172.89931270886336	pulse	1.0	t		22.0	male	black	2.767608436132113	neutral	044	sub-02	2.0	3.0	044_neutral	0.0		202.67731818509674	
29.0	173.25751578469408	face	0.0		146	22.0	male	black	2.767608436132113	smiling	044	sub-02	2.0	3.0	044_smiling	0.0		203.03552126092745	1.2416509476252031
29.0	173.59929861228647	pulse	0.0	t		22.0	male	black	2.767608436132113	smiling	044	sub-02	2.0	3.0	044_smiling	0.0		203.37730408851985	
29.0	174.29929085464119	pulse	0.0	t		22.0	male	black	2.767608436132113	smiling	044	sub-02	2.0	3.0	044_smiling	0.0		204.07729633087456	
29.0	174.49916673231928	fix	1.0		445	22.0	male	black	2.767608436132113	smiling	044	sub-02	2.0	3.0	044_smiling	0.0		204.27717220855266	3.7666415826079174
29.0	174.99926528761625	pulse	1.0	t		22.0	male	black	2.767608436132113	smiling	044	sub-02	2.0	3.0	044_smiling	0.0		204.77727076384963	
29.0	175.699258435533	pulse	1.0	t		22.0	male	black	2.767608436132113	smiling	044	sub-02	2.0	3.0	044_smiling	0.0		205.47726391176639	
29.0	176.39923649075536	pulse	1.0	t		22.0	male	black	2.767608436132113	smiling	044	sub-02	2.0	3.0	044_smiling	0.0		206.17724196698873	
29.0	177.09921756451604	pulse	1.0	t		22.0	male	black	2.767608436132113	smiling	044	sub-02	2.0	3.0	044_smiling	0.0		206.8772230407494	
29.0	177.79919682715263	pulse	1.0	t		22.0	male	black	2.767608436132113	smiling	044	sub-02	2.0	3.0	044_smiling	0.0		207.577202303386	
30.0	178.2658083149272	face	0.0		146	24.0	male	white	3.1153999204138483	smiling	012	sub-02	2.0	3.0	012_smiling	1.0	trustworthiness	208.04381379116057	1.2415724656120801
30.0	178.49918484355294	pulse	0.0	t		24.0	male	white	3.1153999204138483	smiling	012	sub-02	2.0	3.0	012_smiling	1.0	trustworthiness	208.2771903197863	
30.0	179.19916018209005	pulse	0.0	t		24.0	male	white	3.1153999204138483	smiling	012	sub-02	2.0	3.0	012_smiling	1.0	trustworthiness	208.97716565832343	
30.0	179.50738078053928	fix	1.0		177	24.0	male	white	3.1153999204138483	smiling	012	sub-02	2.0	3.0	012_smiling	1.0	trustworthiness	209.28538625677265	1.4999669469989385
30.0	179.89915483927598	pulse	1.0	t		24.0	male	white	3.1153999204138483	smiling	012	sub-02	2.0	3.0	012_smiling	1.0	trustworthiness	209.67716031550935	
30.0	180.5991449686535	pulse	1.0	t		24.0	male	white	3.1153999204138483	smiling	012	sub-02	2.0	3.0	012_smiling	1.0	trustworthiness	210.37715044488687	
30.0	181.00734772753822	rating	2.0		294	24.0	male	white	3.1153999204138483	smiling	012	sub-02	2.0	3.0	012_smiling	1.0	trustworthiness	210.7853532037716	2.499939478293527
30.0	181.29912091089773	pulse	2.0	t		24.0	male	white	3.1153999204138483	smiling	012	sub-02	2.0	3.0	012_smiling	1.0	trustworthiness	211.0771263871311	
30.0	181.99910621061372	pulse	2.0	t		24.0	male	white	3.1153999204138483	smiling	012	sub-02	2.0	3.0	012_smiling	1.0	trustworthiness	211.7771116868471	
30.0	182.23547139466427	response	2.0	w		24.0	male	white	3.1153999204138483	smiling	012	sub-02	2.0	3.0	012_smiling	1.0	trustworthiness	212.01347687089765	
30.0	182.69907521021833	pulse	2.0	t		24.0	male	white	3.1153999204138483	smiling	012	sub-02	2.0	3.0	012_smiling	1.0	trustworthiness	212.4770806864517	
30.0	183.39906503774182	pulse	2.0	t		24.0	male	white	3.1153999204138483	smiling	012	sub-02	2.0	3.0	012_smiling	1.0	trustworthiness	213.1770705139752	
30.0	183.50728720583174	fix	3.0		444	24.0	male	white	3.1153999204138483	smiling	012	sub-02	2.0	3.0	012_smiling	1.0	trustworthiness	213.28529268206512	3.7665670246951777
30.0	184.0990500356029	pulse	3.0	t		24.0	male	white	3.1153999204138483	smiling	012	sub-02	2.0	3.0	012_smiling	1.0	trustworthiness	213.87705551183626	
30.0	184.79903141121758	pulse	3.0	t		24.0	male	white	3.1153999204138483	smiling	012	sub-02	2.0	3.0	012_smiling	1.0	trustworthiness	214.57703688745096	
30.0	185.49901067385508	pulse	3.0	t		24.0	male	white	3.1153999204138483	smiling	012	sub-02	2.0	3.0	012_smiling	1.0	trustworthiness	215.27701615008846	
30.0	186.1990032180638	pulse	3.0	t		24.0	male	white	3.1153999204138483	smiling	012	sub-02	2.0	3.0	012_smiling	1.0	trustworthiness	215.97700869429718	
30.0	186.898990630757	pulse	3.0	t		24.0	male	white	3.1153999204138483	smiling	012	sub-02	2.0	3.0	012_smiling	1.0	trustworthiness	216.67699610699037	
31.0	187.27385423052692	face	0.0		145	36.0	female	white	2.7548746518105847	smiling	011	sub-02	2.0	3.0	011_smiling	0.0		217.0518597067603	1.2333146485771067
31.0	187.59897079895563	pulse	0.0	t		36.0	female	white	2.7548746518105847	smiling	011	sub-02	2.0	3.0	011_smiling	0.0		217.376976275189	
31.0	188.29895036344715	pulse	0.0	t		36.0	female	white	2.7548746518105847	smiling	011	sub-02	2.0	3.0	011_smiling	0.0		218.07695583968052	
31.0	188.50716887910403	fix	1.0		444	36.0	female	white	2.7548746518105847	smiling	011	sub-02	2.0	3.0	011_smiling	0.0		218.2851743553374	3.7582334423332213
31.0	188.998943813217	pulse	1.0	t		36.0	female	white	2.7548746518105847	smiling	011	sub-02	2.0	3.0	011_smiling	0.0		218.77694928945039	
31.0	189.69889168304962	pulse	1.0	t		36.0	female	white	2.7548746518105847	smiling	011	sub-02	2.0	3.0	011_smiling	0.0		219.476897159283	
31.0	190.39890082922284	pulse	1.0	t		36.0	female	white	2.7548746518105847	smiling	011	sub-02	2.0	3.0	011_smiling	0.0		220.1769063054562	
31.0	191.09888220483754	pulse	1.0	t		36.0	female	white	2.7548746518105847	smiling	011	sub-02	2.0	3.0	011_smiling	0.0		220.8768876810709	
31.0	191.79887323977619	pulse	1.0	t		36.0	female	white	2.7548746518105847	smiling	011	sub-02	2.0	3.0	011_smiling	0.0		221.57687871600956	
32.0	192.26540232143725	face	0.0		146	19.0	male	white	2.243931555909272	smiling	130	sub-02	2.0	3.0	130_smiling	0.0		222.04340779767062	1.2416491365020192
32.0	192.4988528042677	pulse	0.0	t		19.0	male	white	2.243931555909272	smiling	130	sub-02	2.0	3.0	130_smiling	0.0		222.27685828050107	
32.0	193.19883750027475	pulse	0.0	t		19.0	male	white	2.243931555909272	smiling	130	sub-02	2.0	3.0	130_smiling	0.0		222.97684297650812	
32.0	193.50705145793927	fix	1.0		444	19.0	male	white	2.243931555909272	smiling	130	sub-02	2.0	3.0	130_smiling	0.0		223.28505693417264	3.7583556931604107
32.0	193.89882793150628	pulse	1.0	t		19.0	male	white	2.243931555909272	smiling	130	sub-02	2.0	3.0	130_smiling	0.0		223.67683340773965	
32.0	194.59879783667293	pulse	1.0	t		19.0	male	white	2.243931555909272	smiling	130	sub-02	2.0	3.0	130_smiling	0.0		224.3768033129063	
32.0	195.298783136388	pulse	1.0	t		19.0	male	white	2.243931555909272	smiling	130	sub-02	2.0	3.0	130_smiling	0.0		225.07678861262139	
32.0	195.998768436104	pulse	1.0	t		19.0	male	white	2.243931555909272	smiling	130	sub-02	2.0	3.0	130_smiling	0.0		225.77677391233738	
32.0	196.69875675435833	pulse	1.0	t		19.0	male	white	2.243931555909272	smiling	130	sub-02	2.0	3.0	130_smiling	0.0		226.4767622305917	
33.0	197.26540715109968	face	0.0		146	28.0	female	white	5.676880222841227	neutral	124	sub-02	2.0	3.0	124_neutral	0.0		227.04341262733305	1.241529904212257
33.0	197.39874054480333	pulse	0.0	t		28.0	female	white	5.676880222841227	neutral	124	sub-02	2.0	3.0	124_neutral	0.0		227.1767460210367	
33.0	198.0987167889025	pulse	0.0	t		28.0	female	white	5.676880222841227	neutral	124	sub-02	2.0	3.0	124_neutral	0.0		227.87672226513587	
33.0	198.50693705531194	fix	1.0		444	28.0	female	white	5.676880222841227	neutral	124	sub-02	2.0	3.0	124_neutral	0.0		228.2849425315453	3.7665618931796416
33.0	198.7987087294032	pulse	1.0	t		28.0	female	white	5.676880222841227	neutral	124	sub-02	2.0	3.0	124_neutral	0.0		228.57671420563656	
33.0	199.4986843697934	pulse	1.0	t		28.0	female	white	5.676880222841227	neutral	124	sub-02	2.0	3.0	124_neutral	0.0		229.27668984602678	
33.0	200.1986612175997	pulse	1.0	t		28.0	female	white	5.676880222841227	neutral	124	sub-02	2.0	3.0	124_neutral	0.0		229.97666669383307	
33.0	200.89865889332486	pulse	1.0	t		28.0	female	white	5.676880222841227	neutral	124	sub-02	2.0	3.0	124_neutral	0.0		230.67666436955824	
33.0	201.59863815596236	pulse	1.0	t		28.0	female	white	5.676880222841227	neutral	124	sub-02	2.0	3.0	124_neutral	0.0		231.37664363219574	
34.0	202.27349894849158	face	0.0		145	27.0	male	black	3.5523278949462798	smiling	042	sub-02	2.0	3.0	042_smiling	0.0		232.05150442472495	1.2333188745315056
34.0	202.2986708467388	pulse	0.0	t		27.0	male	black	3.5523278949462798	smiling	042	sub-02	2.0	3.0	042_smiling	0.0		232.07667632297216	
34.0	202.99860151089888	pulse	0.0	t		27.0	male	black	3.5523278949462798	smiling	042	sub-02	2.0	3.0	042_smiling	0.0		232.77660698713225	
34.0	203.50681782302308	fix	1.0		443	27.0	male	black	3.5523278949462798	smiling	042	sub-02	2.0	3.0	042_smiling	0.0		233.28482329925646	3.7583541838912424
34.0	203.6985937532536	pulse	1.0	t		27.0	male	black	3.5523278949462798	smiling	042	sub-02	2.0	3.0	042_smiling	0.0		233.47659922948696	
34.0	204.3985648658363	pulse	1.0	t		27.0	male	black	3.5523278949462798	smiling	042	sub-02	2.0	3.0	042_smiling	0.0		234.17657034206968	
34.0	205.0985501655514	pulse	1.0	t		27.0	male	black	3.5523278949462798	smiling	042	sub-02	2.0	3.0	042_smiling	0.0		234.87655564178476	
34.0	205.7985405967829	pulse	1.0	t		27.0	male	black	3.5523278949462798	smiling	042	sub-02	2.0	3.0	042_smiling	0.0		235.5765460730163	
34.0	206.49852348166678	pulse	1.0	t		27.0	male	black	3.5523278949462798	smiling	042	sub-02	2.0	3.0	042_smiling	0.0		236.27652895790015	
34.0	207.19848795346297	pulse	1.0	t		27.0	male	black	3.5523278949462798	smiling	042	sub-02	2.0	3.0	042_smiling	0.0		236.97649342969635	
35.0	207.26517200691433	face	0.0		147	22.0	female	white	4.614007162753682	smiling	009	sub-02	2.0	3.0	009_smiling	0.0		237.0431774831477	1.2415283949430886
35.0	207.89849136441262	pulse	0.0	t		22.0	female	white	4.614007162753682	smiling	009	sub-02	2.0	3.0	009_smiling	0.0		237.676496840646	
35.0	208.50670040185742	fix	1.0		443	22.0	female	white	4.614007162753682	smiling	009	sub-02	2.0	3.0	009_smiling	0.0		238.2847058780908	3.758232234917159
35.0	208.59847787154285	pulse	1.0	t		22.0	female	white	4.614007162753682	smiling	009	sub-02	2.0	3.0	009_smiling	0.0		238.37648334777623	
35.0	209.29845622861922	pulse	1.0	t		22.0	female	white	4.614007162753682	smiling	009	sub-02	2.0	3.0	009_smiling	0.0		239.0764617048526	
35.0	209.99844062277225	pulse	1.0	t		22.0	female	white	4.614007162753682	smiling	009	sub-02	2.0	3.0	009_smiling	0.0		239.77644609900563	
35.0	210.69842562063423	pulse	1.0	t		22.0	female	white	4.614007162753682	smiling	009	sub-02	2.0	3.0	009_smiling	0.0		240.4764310968676	
35.0	211.3984235982125	pulse	1.0	t		22.0	female	white	4.614007162753682	smiling	009	sub-02	2.0	3.0	009_smiling	0.0		241.17642907444588	
35.0	212.09839380523317	pulse	1.0	t		22.0	female	white	4.614007162753682	smiling	009	sub-02	2.0	3.0	009_smiling	0.0		241.87639928146655	
36.0	212.26493263677457	face	0.0		147	28.0	female	white	5.676880222841227	smiling	124	sub-02	2.0	3.0	124_smiling	0.0		242.04293811300795	1.2499848318420845
36.0	212.79837729382507	pulse	0.0	t		28.0	female	white	5.676880222841227	smiling	124	sub-02	2.0	3.0	124_smiling	0.0		242.57638277005844	
36.0	213.49835685831658	pulse	0.0	t		28.0	female	white	5.676880222841227	smiling	124	sub-02	2.0	3.0	124_smiling	0.0		243.27636233454996	
36.0	213.51491746861666	fix	1.0		443	28.0	female	white	5.676880222841227	smiling	124	sub-02	2.0	3.0	124_smiling	0.0		243.29292294485003	3.7500070181031333
36.0	214.19834819510925	pulse	1.0	t		28.0	female	white	5.676880222841227	smiling	124	sub-02	2.0	3.0	124_smiling	0.0		243.97635367134262	
36.0	214.89832685403871	pulse	1.0	t		28.0	female	white	5.676880222841227	smiling	124	sub-02	2.0	3.0	124_smiling	0.0		244.6763323302721	
36.0	215.5983079277994	pulse	1.0	t		28.0	female	white	5.676880222841227	smiling	124	sub-02	2.0	3.0	124_smiling	0.0		245.37631340403277	
36.0	216.2982938312225	pulse	1.0	t		28.0	female	white	5.676880222841227	smiling	124	sub-02	2.0	3.0	124_smiling	0.0		246.07629930745588	
36.0	216.99827852723047	pulse	1.0	t		28.0	female	white	5.676880222841227	smiling	124	sub-02	2.0	3.0	124_smiling	0.0		246.77628400346384	
37.0	217.2649244867198	face	0.0		146	22.0	female	west_asian	3.8205332272184642	neutral	066	sub-02	2.0	3.0	066_neutral	0.0		247.04292996295317	1.241539563537117
37.0	217.69826171396835	pulse	0.0	t		22.0	female	west_asian	3.8205332272184642	neutral	066	sub-02	2.0	3.0	066_neutral	0.0		247.47626719020172	
37.0	218.39824369329108	pulse	0.0	t		22.0	female	west_asian	3.8205332272184642	neutral	066	sub-02	2.0	3.0	066_neutral	0.0		248.17624916952445	
37.0	218.5064640502569	fix	1.0		444	22.0	female	west_asian	3.8205332272184642	neutral	066	sub-02	2.0	3.0	066_neutral	0.0		248.28446952649028	3.7583692765865635
37.0	219.0982317096914	pulse	1.0	t		22.0	female	west_asian	3.8205332272184642	neutral	066	sub-02	2.0	3.0	066_neutral	0.0		248.87623718592477	
37.0	219.798211576036	pulse	1.0	t		22.0	female	west_asian	3.8205332272184642	neutral	066	sub-02	2.0	3.0	066_neutral	0.0		249.57621705226939	
37.0	220.49819989429034	pulse	1.0	t		22.0	female	west_asian	3.8205332272184642	neutral	066	sub-02	2.0	3.0	066_neutral	0.0		250.2762053705237	
37.0	221.19817885507382	pulse	1.0	t		22.0	female	west_asian	3.8205332272184642	neutral	066	sub-02	2.0	3.0	066_neutral	0.0		250.9761843313072	
37.0	221.89816566405898	pulse	1.0	t		22.0	female	west_asian	3.8205332272184642	neutral	066	sub-02	2.0	3.0	066_neutral	0.0		251.67617114029235	
38.0	222.26483332684347	face	0.0		146	22.0	female	west_asian	3.8205332272184642	smiling	066	sub-02	2.0	3.0	066_smiling	0.0		252.04283880307685	1.2415133022477676
38.0	222.59814522854958	pulse	0.0	t		22.0	female	west_asian	3.8205332272184642	smiling	066	sub-02	2.0	3.0	066_smiling	0.0		252.37615070478296	
38.0	223.29813052826466	pulse	0.0	t		22.0	female	west_asian	3.8205332272184642	smiling	066	sub-02	2.0	3.0	066_smiling	0.0		253.07613600449804	
38.0	223.50634662909124	fix	1.0		444	22.0	female	west_asian	3.8205332272184642	smiling	066	sub-02	2.0	3.0	066_smiling	0.0		253.28435210532461	3.7582527609820318
38.0	223.99810586680178	pulse	1.0	t		22.0	female	west_asian	3.8205332272184642	smiling	066	sub-02	2.0	3.0	066_smiling	0.0		253.77611134303515	
38.0	224.69809086466284	pulse	1.0	t		22.0	female	west_asian	3.8205332272184642	smiling	066	sub-02	2.0	3.0	066_smiling	0.0		254.47609634089622	
38.0	225.3980710328624	pulse	1.0	t		22.0	female	west_asian	3.8205332272184642	smiling	066	sub-02	2.0	3.0	066_smiling	0.0		255.17607650909576	
38.0	226.09806659560945	pulse	1.0	t		22.0	female	west_asian	3.8205332272184642	smiling	066	sub-02	2.0	3.0	066_smiling	0.0		255.87607207184283	
38.0	226.79805008420135	pulse	1.0	t		22.0	female	west_asian	3.8205332272184642	smiling	066	sub-02	2.0	3.0	066_smiling	0.0		256.5760555604347	
39.0	227.26459939007327	face	0.0		146	37.0	male	white	3.898925586947871	neutral	101	sub-02	2.0	3.0	101_neutral	0.0		257.04260486630665	1.2416316289763927
39.0	227.49803628947848	pulse	0.0	t		37.0	male	white	3.898925586947871	neutral	101	sub-02	2.0	3.0	101_neutral	0.0		257.27604176571185	
39.0	228.19801645767802	pulse	0.0	t		37.0	male	white	3.898925586947871	neutral	101	sub-02	2.0	3.0	101_neutral	0.0		257.9760219339114	
39.0	228.50623101904966	fix	1.0		444	37.0	male	white	3.898925586947871	neutral	101	sub-02	2.0	3.0	101_neutral	0.0		258.28423649528304	3.749909519294306
39.0	228.8979993425619	pulse	1.0	t		37.0	male	white	3.898925586947871	neutral	101	sub-02	2.0	3.0	101_neutral	0.0		258.67600481879526	
39.0	229.59798856637735	pulse	1.0	t		37.0	male	white	3.898925586947871	neutral	101	sub-02	2.0	3.0	101_neutral	0.0		259.3759940426107	
39.0	230.2979602826681	pulse	1.0	t		37.0	male	white	3.898925586947871	neutral	101	sub-02	2.0	3.0	101_neutral	0.0		260.0759657589015	
39.0	230.99794890277553	pulse	1.0	t		37.0	male	white	3.898925586947871	neutral	101	sub-02	2.0	3.0	101_neutral	0.0		260.7759543790089	
39.0	231.6979335987835	pulse	1.0	t		37.0	male	white	3.898925586947871	neutral	101	sub-02	2.0	3.0	101_neutral	0.0		261.47593907501687	
40.0	232.25614053834397	fix	0.0		720													262.03414601457735	5.99986054350029
40.0	232.3979173892294	pulse	0.0	t														262.1759228654628	
40.0	233.0978948407428	pulse	0.0	t														262.8759003169762	
40.0	233.7978846682663	pulse	0.0	t														263.5758901444997	
40.0	234.4978618179266	pulse	0.0	t														264.27586729416	
40.0	235.19783836387887	pulse	0.0	t														264.97584384011225	
40.0	235.89782970067245	pulse	0.0	t														265.6758351769058	
40.0	236.59781741521874	pulse	0.0	t														266.3758228914521	
40.0	237.29780090381064	pulse	0.0	t														267.075806380044	
40.0	237.99778197757132	pulse	0.0	t														267.7757874538047	
