trial_nr	onset	event_type	phase	response	nr_frames	face_age	face_sex	face_eth	attractiveness	expression	face_id	sub_id	ses	run	trial_type	catch	rating_type	onset_abs	duration
-1.0	0.06057536271146091	fix	0.0		713													26.000001811138645	5.957991832969128
-1.0	0.7021062341827928	pulse	0.0	t														26.641532682609977	
-1.0	1.402084681625638	pulse	0.0	t														27.341511130052822	
-1.0	2.102081240462212	pulse	0.0	t														28.041507688889396	
-1.0	2.802073271448535	pulse	0.0	t														28.74149971987572	
-1.0	3.5020465873312787	pulse	0.0	t														29.441473035758463	
-1.0	4.202047070300978	pulse	0.0	t														30.141473518728162	
-1.0	4.902033064157877	pulse	0.0	t														30.84145951258506	
-1.0	5.602027208142317	pulse	0.0	t														31.5414536565695	
0.0	6.018567195680589	face	0.0		144	20.0	female	white	3.9502586549940313	neutral	091	sub-02	1.0	4.0	091_neutral	0.0		31.957993644107773	1.2333191058296507
0.0	6.302023766977072	pulse	0.0	t		20.0	female	white	3.9502586549940313	neutral	091	sub-02	1.0	4.0	091_neutral	0.0		32.24145021540426	
0.0	7.00213955914478	pulse	0.0	t		20.0	female	white	3.9502586549940313	neutral	091	sub-02	1.0	4.0	091_neutral	0.0		32.941566007571964	
0.0	7.25188630151024	fix	1.0		444	20.0	female	white	3.9502586549940313	neutral	091	sub-02	1.0	4.0	091_neutral	0.0		33.191312749937424	3.7582772081404983
0.0	7.702005414099403	pulse	1.0	t		20.0	female	white	3.9502586549940313	neutral	091	sub-02	1.0	4.0	091_neutral	0.0		33.64143186252659	
0.0	8.401975711416526	pulse	1.0	t		20.0	female	white	3.9502586549940313	neutral	091	sub-02	1.0	4.0	091_neutral	0.0		34.34140215984371	
0.0	9.101985853796577	pulse	1.0	t		20.0	female	white	3.9502586549940313	neutral	091	sub-02	1.0	4.0	091_neutral	0.0		35.04141230222376	
0.0	9.801963999381769	pulse	1.0	t		20.0	female	white	3.9502586549940313	neutral	091	sub-02	1.0	4.0	091_neutral	0.0		35.74139044780895	
0.0	10.501968104630578	pulse	1.0	t		20.0	female	white	3.9502586549940313	neutral	091	sub-02	1.0	4.0	091_neutral	0.0		36.44139455305776	
1.0	11.010163509650738	face	0.0		146	40.0	male	white	1.868682849184242	neutral	172	sub-02	1.0	4.0	172_neutral	0.0		36.94958995807792	1.2416512518593663
1.0	11.201937798234212	pulse	0.0	t		40.0	male	white	1.868682849184242	neutral	172	sub-02	1.0	4.0	172_neutral	0.0		37.1413642466614	
1.0	11.901951864749208	pulse	0.0	t		40.0	male	white	1.868682849184242	neutral	172	sub-02	1.0	4.0	172_neutral	0.0		37.84137831317639	
1.0	12.251814761510104	fix	1.0		444	40.0	male	white	1.868682849184242	neutral	172	sub-02	1.0	4.0	172_neutral	0.0		38.19124120993729	3.758279924850285
1.0	12.601919445356543	pulse	1.0	t		40.0	male	white	1.868682849184242	neutral	172	sub-02	1.0	4.0	172_neutral	0.0		38.54134589378373	
1.0	13.301916004193117	pulse	1.0	t		40.0	male	white	1.868682849184242	neutral	172	sub-02	1.0	4.0	172_neutral	0.0		39.2413424526203	
1.0	14.001893847922474	pulse	1.0	t		40.0	male	white	1.868682849184242	neutral	172	sub-02	1.0	4.0	172_neutral	0.0		39.94132029634966	
1.0	14.701886482624104	pulse	1.0	t		40.0	male	white	1.868682849184242	neutral	172	sub-02	1.0	4.0	172_neutral	0.0		40.64131293105129	
1.0	15.401889078590102	pulse	1.0	t		40.0	male	white	1.868682849184242	neutral	172	sub-02	1.0	4.0	172_neutral	0.0		41.34131552701729	
2.0	16.01009468636039	face	0.0		146	47.0	male	east_asian	2.171110226820533	neutral	024	sub-02	1.0	4.0	024_neutral	0.0		41.949521134787574	1.2416485351495794
2.0	16.101880505862937	pulse	0.0	t		47.0	male	east_asian	2.171110226820533	neutral	024	sub-02	1.0	4.0	024_neutral	0.0		42.04130695429012	
2.0	16.801857142167137	pulse	0.0	t		47.0	male	east_asian	2.171110226820533	neutral	024	sub-02	1.0	4.0	024_neutral	0.0		42.74128359059432	
2.0	17.25174322150997	fix	1.0		444	47.0	male	east_asian	2.171110226820533	neutral	024	sub-02	1.0	4.0	024_neutral	0.0		43.19116966993715	3.758271472866909
2.0	17.50186305855641	pulse	1.0	t		47.0	male	east_asian	2.171110226820533	neutral	024	sub-02	1.0	4.0	024_neutral	0.0		43.441289506983594	
2.0	18.20184693941701	pulse	1.0	t		47.0	male	east_asian	2.171110226820533	neutral	024	sub-02	1.0	4.0	024_neutral	0.0		44.141273387844194	
2.0	18.9018220664384	pulse	1.0	t		47.0	male	east_asian	2.171110226820533	neutral	024	sub-02	1.0	4.0	024_neutral	0.0		44.84124851486558	
2.0	19.60181771970383	pulse	1.0	t		47.0	male	east_asian	2.171110226820533	neutral	024	sub-02	1.0	4.0	024_neutral	0.0		45.541244168131016	
2.0	20.30180522284354	pulse	1.0	t		47.0	male	east_asian	2.171110226820533	neutral	024	sub-02	1.0	4.0	024_neutral	0.0		46.241231671270725	
3.0	21.010014694376878	face	0.0		147	22.0	female	white	4.614007162753682	neutral	009	sub-02	1.0	4.0	009_neutral	0.0		46.94944114280406	1.2416645335470093
3.0	21.00217004665501	pulse	0.0	t		22.0	female	white	4.614007162753682	neutral	009	sub-02	1.0	4.0	009_neutral	0.0		46.941596495082194	
3.0	21.701787171821707	pulse	0.0	t		22.0	female	white	4.614007162753682	neutral	009	sub-02	1.0	4.0	009_neutral	0.0		47.64121362024889	
3.0	22.251679227923887	fix	1.0		443	22.0	female	white	4.614007162753682	neutral	009	sub-02	1.0	4.0	009_neutral	0.0		48.19110567635107	3.758260606031399
3.0	22.40176984525715	pulse	1.0	t		22.0	female	white	4.614007162753682	neutral	009	sub-02	1.0	4.0	009_neutral	0.0		48.341196293684334	
3.0	23.101772139367313	pulse	1.0	t		22.0	female	white	4.614007162753682	neutral	009	sub-02	1.0	4.0	009_neutral	0.0		49.0411985877945	
3.0	23.801762057357337	pulse	1.0	t		22.0	female	white	4.614007162753682	neutral	009	sub-02	1.0	4.0	009_neutral	0.0		49.74118850578452	
3.0	24.501751673493345	pulse	1.0	t		22.0	female	white	4.614007162753682	neutral	009	sub-02	1.0	4.0	009_neutral	0.0		50.44117812192053	
3.0	25.201738271063732	pulse	1.0	t		22.0	female	white	4.614007162753682	neutral	009	sub-02	1.0	4.0	009_neutral	0.0		51.14116471949092	
3.0	25.901724566776466	pulse	1.0	t		22.0	female	white	4.614007162753682	neutral	009	sub-02	1.0	4.0	009_neutral	0.0		51.84115101520365	
4.0	26.009939833955286	face	0.0		147	21.0	male	black	2.969757262236371	neutral	137	sub-02	1.0	4.0	137_neutral	0.0		51.94936628238247	1.241668155826119
4.0	26.60171448476831	pulse	0.0	t		21.0	male	black	2.969757262236371	neutral	137	sub-02	1.0	4.0	137_neutral	0.0		52.54114093319549	
4.0	27.251607989781405	fix	1.0		443	21.0	male	black	2.969757262236371	neutral	137	sub-02	1.0	4.0	137_neutral	0.0		53.19103443820859	3.7582645301663433
4.0	27.301719797442274	pulse	1.0	t		21.0	male	black	2.969757262236371	neutral	137	sub-02	1.0	4.0	137_neutral	0.0		53.24114624586946	
4.0	28.001710922861093	pulse	1.0	t		21.0	male	black	2.969757262236371	neutral	137	sub-02	1.0	4.0	137_neutral	0.0		53.94113737128828	
4.0	28.701680616464728	pulse	1.0	t		21.0	male	black	2.969757262236371	neutral	137	sub-02	1.0	4.0	137_neutral	0.0		54.64110706489191	
4.0	29.401672043737562	pulse	1.0	t		21.0	male	black	2.969757262236371	neutral	137	sub-02	1.0	4.0	137_neutral	0.0		55.34109849216475	
4.0	30.101661358017736	pulse	1.0	t		21.0	male	black	2.969757262236371	neutral	137	sub-02	1.0	4.0	137_neutral	0.0		56.04108780644492	
4.0	30.80165429457338	pulse	1.0	t		21.0	male	black	2.969757262236371	neutral	137	sub-02	1.0	4.0	137_neutral	0.0		56.741080743000566	
5.0	31.00987251994775	face	0.0		146	31.0	male	west_asian	1.9538400318344609	neutral	070	sub-02	1.0	4.0	070_neutral	1.0	trustworthiness	56.94929896837493	1.2416512518593663
5.0	31.501647834844334	pulse	0.0	t		31.0	male	west_asian	1.9538400318344609	neutral	070	sub-02	1.0	4.0	070_neutral	1.0	trustworthiness	57.44107428327152	
5.0	32.20166824034641	pulse	0.0	t		31.0	male	west_asian	1.9538400318344609	neutral	070	sub-02	1.0	4.0	070_neutral	1.0	trustworthiness	58.14109468877359	
5.0	32.251523771807115	fix	1.0		177	31.0	male	west_asian	1.9538400318344609	neutral	070	sub-02	1.0	4.0	070_neutral	1.0	trustworthiness	58.1909502202343	1.5083568982663564
5.0	32.901625859687556	pulse	1.0	t		31.0	male	west_asian	1.9538400318344609	neutral	070	sub-02	1.0	4.0	070_neutral	1.0	trustworthiness	58.84105230811474	
5.0	33.60160672198435	pulse	1.0	t		31.0	male	west_asian	1.9538400318344609	neutral	070	sub-02	1.0	4.0	070_neutral	1.0	trustworthiness	59.54103317041154	
5.0	33.75988067007347	rating	2.0		294	31.0	male	west_asian	1.9538400318344609	neutral	070	sub-02	1.0	4.0	070_neutral	1.0	trustworthiness	59.699307118500656	2.491597521395306
5.0	34.30164493702068	pulse	2.0	t		31.0	male	west_asian	1.9538400318344609	neutral	070	sub-02	1.0	4.0	070_neutral	1.0	trustworthiness	60.24107138544787	
5.0	34.80159513069157	response	2.0	w		31.0	male	west_asian	1.9538400318344609	neutral	070	sub-02	1.0	4.0	070_neutral	1.0	trustworthiness	60.74102157911875	
5.0	35.00158867096252	pulse	2.0	t		31.0	male	west_asian	1.9538400318344609	neutral	070	sub-02	1.0	4.0	070_neutral	1.0	trustworthiness	60.941015119389704	
5.0	35.70159639849044	pulse	2.0	t		31.0	male	west_asian	1.9538400318344609	neutral	070	sub-02	1.0	4.0	070_neutral	1.0	trustworthiness	61.64102284691762	
5.0	36.25147819146878	fix	3.0		443	31.0	male	west_asian	1.9538400318344609	neutral	070	sub-02	1.0	4.0	070_neutral	1.0	trustworthiness	62.19090463989596	3.7665876205010136
5.0	36.40157152551183	pulse	3.0	t		31.0	male	west_asian	1.9538400318344609	neutral	070	sub-02	1.0	4.0	070_neutral	1.0	trustworthiness	62.34099797393901	
5.0	37.101644454050984	pulse	3.0	t		31.0	male	west_asian	1.9538400318344609	neutral	070	sub-02	1.0	4.0	070_neutral	1.0	trustworthiness	63.04107090247817	
5.0	37.80166817997451	pulse	3.0	t		31.0	male	west_asian	1.9538400318344609	neutral	070	sub-02	1.0	4.0	070_neutral	1.0	trustworthiness	63.7410946284017	
5.0	38.50155305189037	pulse	3.0	t		31.0	male	west_asian	1.9538400318344609	neutral	070	sub-02	1.0	4.0	070_neutral	1.0	trustworthiness	64.44097950031755	
5.0	39.20155745899683	pulse	3.0	t		31.0	male	west_asian	1.9538400318344609	neutral	070	sub-02	1.0	4.0	070_neutral	1.0	trustworthiness	65.14098390742402	
5.0	39.90151870061709	pulse	3.0	t		31.0	male	west_asian	1.9538400318344609	neutral	070	sub-02	1.0	4.0	070_neutral	1.0	trustworthiness	65.84094514904427	
6.0	40.01806581196979	face	0.0		146	47.0	male	east_asian	2.171110226820533	smiling	024	sub-02	1.0	4.0	024_smiling	0.0		65.95749226039698	1.2333233318204293
6.0	40.60151918358679	pulse	0.0	t		47.0	male	east_asian	2.171110226820533	smiling	024	sub-02	1.0	4.0	024_smiling	0.0		66.54094563201397	
6.0	41.25138914379022	fix	1.0		443	47.0	male	east_asian	2.171110226820533	smiling	024	sub-02	1.0	4.0	024_smiling	0.0		67.1908155922174	3.766610561599009
6.0	41.301532646388296	pulse	1.0	t		47.0	male	east_asian	2.171110226820533	smiling	024	sub-02	1.0	4.0	024_smiling	0.0		67.24095909481548	
6.0	42.00149298243923	pulse	1.0	t		47.0	male	east_asian	2.171110226820533	smiling	024	sub-02	1.0	4.0	024_smiling	0.0		67.94091943086642	
6.0	42.70149255984143	pulse	1.0	t		47.0	male	east_asian	2.171110226820533	smiling	024	sub-02	1.0	4.0	024_smiling	0.0		68.64091900826861	
6.0	43.40147402584989	pulse	1.0	t		47.0	male	east_asian	2.171110226820533	smiling	024	sub-02	1.0	4.0	024_smiling	0.0		69.34090047427708	
6.0	44.10145186957925	pulse	1.0	t		47.0	male	east_asian	2.171110226820533	smiling	024	sub-02	1.0	4.0	024_smiling	0.0		70.04087831800643	
6.0	44.80146352124211	pulse	1.0	t		47.0	male	east_asian	2.171110226820533	smiling	024	sub-02	1.0	4.0	024_smiling	0.0		70.7408899696693	
7.0	45.01799970538923	face	0.0		145	19.0	male	white	2.243931555909272	neutral	130	sub-02	1.0	4.0	130_neutral	0.0		70.95742615381641	1.2333290670940187
7.0	45.50145977822103	pulse	0.0	t		19.0	male	white	2.243931555909272	neutral	130	sub-02	1.0	4.0	130_neutral	0.0		71.44088622664822	
7.0	46.20142886811118	pulse	0.0	t		19.0	male	white	2.243931555909272	neutral	130	sub-02	1.0	4.0	130_neutral	0.0		72.14085531653836	
7.0	46.25132877248325	fix	1.0		444	19.0	male	white	2.243931555909272	neutral	130	sub-02	1.0	4.0	130_neutral	0.0		72.19075522091043	3.7666002984751685
7.0	46.901418182389534	pulse	1.0	t		19.0	male	white	2.243931555909272	neutral	130	sub-02	1.0	4.0	130_neutral	0.0		72.84084463081672	
7.0	47.601414439368455	pulse	1.0	t		19.0	male	white	2.243931555909272	neutral	130	sub-02	1.0	4.0	130_neutral	0.0		73.54084088779564	
7.0	48.301409187064564	pulse	1.0	t		19.0	male	white	2.243931555909272	neutral	130	sub-02	1.0	4.0	130_neutral	0.0		74.24083563549175	
7.0	49.001410575605405	pulse	1.0	t		19.0	male	white	2.243931555909272	neutral	130	sub-02	1.0	4.0	130_neutral	0.0		74.94083702403259	
7.0	49.7013793636379	pulse	1.0	t		19.0	male	white	2.243931555909272	neutral	130	sub-02	1.0	4.0	130_neutral	0.0		75.64080581206508	
8.0	50.01792907095842	face	0.0		145	26.0	female	white	4.854755272582572	smiling	027	sub-02	1.0	4.0	027_smiling	0.0		75.9573555193856	1.2333166909756983
8.0	50.40138678930998	pulse	0.0	t		26.0	female	white	4.854755272582572	smiling	027	sub-02	1.0	4.0	027_smiling	0.0		76.34081323773717	
8.0	51.10135255877867	pulse	0.0	t		26.0	female	white	4.854755272582572	smiling	027	sub-02	1.0	4.0	027_smiling	0.0		77.04077900720586	
8.0	51.251245761934115	fix	1.0		444	26.0	female	white	4.854755272582572	smiling	027	sub-02	1.0	4.0	027_smiling	0.0		77.1906722103613	3.7582750951460184
8.0	51.80136300301456	pulse	1.0	t		26.0	female	white	4.854755272582572	smiling	027	sub-02	1.0	4.0	027_smiling	0.0		77.74078945144174	
8.0	52.501331489191216	pulse	1.0	t		26.0	female	white	4.854755272582572	smiling	027	sub-02	1.0	4.0	027_smiling	0.0		78.4407579376184	
8.0	53.20133619815351	pulse	1.0	t		26.0	female	white	4.854755272582572	smiling	027	sub-02	1.0	4.0	027_smiling	0.0		79.1407626465807	
8.0	53.90133154956311	pulse	1.0	t		26.0	female	white	4.854755272582572	smiling	027	sub-02	1.0	4.0	027_smiling	0.0		79.8407579979903	
8.0	54.601317241562356	pulse	1.0	t		26.0	female	white	4.854755272582572	smiling	027	sub-02	1.0	4.0	027_smiling	0.0		80.54074368998954	
9.0	55.00952085708013	face	0.0		146	37.0	male	white	3.898925586947871	smiling	101	sub-02	1.0	4.0	101_smiling	0.0		80.94894730550732	1.24165879827342
9.0	55.301303235419255	pulse	0.0	t		37.0	male	white	3.898925586947871	smiling	101	sub-02	1.0	4.0	101_smiling	0.0		81.24072968384644	
9.0	56.001295870120885	pulse	0.0	t		37.0	male	white	3.898925586947871	smiling	101	sub-02	1.0	4.0	101_smiling	0.0		81.94072231854807	
9.0	56.25117965535355	fix	1.0		444	37.0	male	white	3.898925586947871	smiling	101	sub-02	1.0	4.0	101_smiling	0.0		82.19060610378074	3.7666018077579793
9.0	56.70128367511643	pulse	1.0	t		37.0	male	white	3.898925586947871	smiling	101	sub-02	1.0	4.0	101_smiling	0.0		82.64071012354361	
9.0	57.40128959150388	pulse	1.0	t		37.0	male	white	3.898925586947871	smiling	101	sub-02	1.0	4.0	101_smiling	0.0		83.34071603993107	
9.0	58.10126290738663	pulse	1.0	t		37.0	male	white	3.898925586947871	smiling	101	sub-02	1.0	4.0	101_smiling	0.0		84.04068935581381	
9.0	58.80126278664284	pulse	1.0	t		37.0	male	white	3.898925586947871	smiling	101	sub-02	1.0	4.0	101_smiling	0.0		84.74068923507002	
9.0	59.5012484786439	pulse	1.0	t		37.0	male	white	3.898925586947871	smiling	101	sub-02	1.0	4.0	101_smiling	0.0		85.44067492707109	
10.0	60.01778146311153	face	0.0		145	40.0	female	west_asian	1.5777954635893354	neutral	038	sub-02	1.0	4.0	038_neutral	1.0	dominance	85.95720791153872	1.2333178984026745
10.0	60.20123085022169	pulse	0.0	t		40.0	female	west_asian	1.5777954635893354	neutral	038	sub-02	1.0	4.0	038_neutral	1.0	dominance	86.14065729864888	
10.0	60.901212919943646	pulse	0.0	t		40.0	female	west_asian	1.5777954635893354	neutral	038	sub-02	1.0	4.0	038_neutral	1.0	dominance	86.84063936837083	
10.0	61.25109936151421	fix	1.0		177	40.0	female	west_asian	1.5777954635893354	neutral	038	sub-02	1.0	4.0	038_neutral	1.0	dominance	87.19052580994139	1.49996075864874
10.0	61.60120374350481	pulse	1.0	t		40.0	female	west_asian	1.5777954635893354	neutral	038	sub-02	1.0	4.0	038_neutral	1.0	dominance	87.540630191932	
10.0	62.30120362276284	pulse	1.0	t		40.0	female	west_asian	1.5777954635893354	neutral	038	sub-02	1.0	4.0	038_neutral	1.0	dominance	88.24063007119003	
10.0	62.75106012016295	rating	2.0		294	40.0	female	west_asian	1.5777954635893354	neutral	038	sub-02	1.0	4.0	038_neutral	1.0	dominance	88.69048656859013	2.499987925739333
10.0	63.00118931476209	pulse	2.0	t		40.0	female	west_asian	1.5777954635893354	neutral	038	sub-02	1.0	4.0	038_neutral	1.0	dominance	88.94061576318927	
10.0	63.701179534609764	pulse	2.0	t		40.0	female	west_asian	1.5777954635893354	neutral	038	sub-02	1.0	4.0	038_neutral	1.0	dominance	89.64060598303695	
10.0	64.05425780721816	response	2.0	w		40.0	female	west_asian	1.5777954635893354	neutral	038	sub-02	1.0	4.0	038_neutral	1.0	dominance	89.99368425564535	
10.0	64.40115013378272	pulse	2.0	t		40.0	female	west_asian	1.5777954635893354	neutral	038	sub-02	1.0	4.0	038_neutral	1.0	dominance	90.3405765822099	
10.0	65.1011798968375	pulse	2.0	t		40.0	female	west_asian	1.5777954635893354	neutral	038	sub-02	1.0	4.0	038_neutral	1.0	dominance	91.04060634526468	
10.0	65.25104804590228	fix	3.0		444	40.0	female	west_asian	1.5777954635893354	neutral	038	sub-02	1.0	4.0	038_neutral	1.0	dominance	91.19047449432946	3.7666024114714673
10.0	65.80114566630618	pulse	3.0	t		40.0	female	west_asian	1.5777954635893354	neutral	038	sub-02	1.0	4.0	038_neutral	1.0	dominance	91.74057211473337	
10.0	66.50112864159746	pulse	3.0	t		40.0	female	west_asian	1.5777954635893354	neutral	038	sub-02	1.0	4.0	038_neutral	1.0	dominance	92.44055509002465	
10.0	67.20112520043403	pulse	3.0	t		40.0	female	west_asian	1.5777954635893354	neutral	038	sub-02	1.0	4.0	038_neutral	1.0	dominance	93.14055164886122	
10.0	67.90110757201182	pulse	3.0	t		40.0	female	west_asian	1.5777954635893354	neutral	038	sub-02	1.0	4.0	038_neutral	1.0	dominance	93.84053402043901	
10.0	68.60113763692243	pulse	3.0	t		40.0	female	west_asian	1.5777954635893354	neutral	038	sub-02	1.0	4.0	038_neutral	1.0	dominance	94.54056408534962	
11.0	69.01765045737375	face	0.0		145	24.0	male	white	3.1153999204138483	neutral	012	sub-02	1.0	4.0	012_neutral	0.0		94.95707690580093	1.2333178984026745
11.0	69.30110491567393	pulse	0.0	t		24.0	male	white	3.1153999204138483	neutral	012	sub-02	1.0	4.0	012_neutral	0.0		95.24053136410112	
11.0	70.00107642041621	pulse	0.0	t		24.0	male	white	3.1153999204138483	neutral	012	sub-02	1.0	4.0	012_neutral	0.0		95.9405028688434	
11.0	70.25096835577642	fix	1.0		444	24.0	male	white	3.1153999204138483	neutral	012	sub-02	1.0	4.0	012_neutral	0.0		96.1903948042036	3.75841304358255
11.0	70.70107901638221	pulse	1.0	t		24.0	male	white	3.1153999204138483	neutral	012	sub-02	1.0	4.0	012_neutral	0.0		96.6405054648094	
11.0	71.40106259538697	pulse	1.0	t		24.0	male	white	3.1153999204138483	neutral	012	sub-02	1.0	4.0	012_neutral	0.0		97.34048904381416	
11.0	72.1010588523659	pulse	1.0	t		24.0	male	white	3.1153999204138483	neutral	012	sub-02	1.0	4.0	012_neutral	0.0		98.04048530079308	
11.0	72.80104001651853	pulse	1.0	t		24.0	male	white	3.1153999204138483	neutral	012	sub-02	1.0	4.0	012_neutral	0.0		98.74046646494571	
11.0	73.50102751965824	pulse	1.0	t		24.0	male	white	3.1153999204138483	neutral	012	sub-02	1.0	4.0	012_neutral	0.0		99.44045396808542	
12.0	74.00938139935897	face	0.0		146	25.0	female	black	3.858336649423	smiling	126	sub-02	1.0	4.0	126_smiling	0.0		99.94880784778616	1.241514510847992
12.0	74.20102468220648	pulse	0.0	t		25.0	female	black	3.858336649423	smiling	126	sub-02	1.0	4.0	126_smiling	0.0		100.14045113063366	
12.0	74.90101460019832	pulse	0.0	t		25.0	female	black	3.858336649423	smiling	126	sub-02	1.0	4.0	126_smiling	0.0		100.84044104862551	
12.0	75.25089591020696	fix	1.0		444	25.0	female	black	3.858336649423	smiling	126	sub-02	1.0	4.0	126_smiling	0.0		101.19032235863415	3.766609957885521
12.0	75.60100572561532	pulse	1.0	t		25.0	female	black	3.858336649423	smiling	126	sub-02	1.0	4.0	126_smiling	0.0		101.54043217404251	
12.0	76.30099775660346	pulse	1.0	t		25.0	female	black	3.858336649423	smiling	126	sub-02	1.0	4.0	126_smiling	0.0		102.24042420503065	
12.0	77.00098797645114	pulse	1.0	t		25.0	female	black	3.858336649423	smiling	126	sub-02	1.0	4.0	126_smiling	0.0		102.94041442487833	
12.0	77.7009772907295	pulse	1.0	t		25.0	female	black	3.858336649423	smiling	126	sub-02	1.0	4.0	126_smiling	0.0		103.64040373915668	
12.0	78.40095332332021	pulse	1.0	t		25.0	female	black	3.858336649423	smiling	126	sub-02	1.0	4.0	126_smiling	0.0		104.3403797717474	
13.0	79.01750586809248	face	0.0		145	21.0	male	east_asian/white	3.501790688420215	smiling	036	sub-02	1.0	4.0	036_smiling	0.0		104.95693231651967	1.233314879837053
13.0	79.10095984342115	pulse	0.0	t		21.0	male	east_asian/white	3.501790688420215	smiling	036	sub-02	1.0	4.0	036_smiling	0.0		105.04038629184834	
13.0	79.80092772588614	pulse	0.0	t		21.0	male	east_asian/white	3.501790688420215	smiling	036	sub-02	1.0	4.0	036_smiling	0.0		105.74035417431332	
13.0	80.25082074792954	fix	1.0		444	21.0	male	east_asian/white	3.501790688420215	smiling	036	sub-02	1.0	4.0	036_smiling	0.0		106.19024719635672	3.7665957706267363
13.0	80.50093756640854	pulse	1.0	t		21.0	male	east_asian/white	3.501790688420215	smiling	036	sub-02	1.0	4.0	036_smiling	0.0		106.44036401483572	
13.0	81.20094136980151	pulse	1.0	t		21.0	male	east_asian/white	3.501790688420215	smiling	036	sub-02	1.0	4.0	036_smiling	0.0		107.1403678182287	
13.0	81.90090562998739	pulse	1.0	t		21.0	male	east_asian/white	3.501790688420215	smiling	036	sub-02	1.0	4.0	036_smiling	0.0		107.84033207841458	
13.0	82.60089645354856	pulse	1.0	t		21.0	male	east_asian/white	3.501790688420215	smiling	036	sub-02	1.0	4.0	036_smiling	0.0		108.54032290197574	
13.0	83.30088456040176	pulse	1.0	t		21.0	male	east_asian/white	3.501790688420215	smiling	036	sub-02	1.0	4.0	036_smiling	0.0		109.24031100882894	
14.0	84.01741651855627	face	0.0		145	31.0	female	east_asian	3.395941106247513	smiling	087	sub-02	1.0	4.0	087_smiling	0.0		109.95684296698346	1.2333320856596401
14.0	84.0035957150867	pulse	0.0	t		31.0	female	east_asian	3.395941106247513	smiling	087	sub-02	1.0	4.0	087_smiling	0.0		109.94302216351389	
14.0	84.7008770743596	pulse	0.0	t		31.0	female	east_asian	3.395941106247513	smiling	087	sub-02	1.0	4.0	087_smiling	0.0		110.64030352278678	
14.0	85.25074860421591	fix	1.0		443	31.0	female	east_asian	3.395941106247513	smiling	087	sub-02	1.0	4.0	087_smiling	0.0		111.1901750526431	3.76661056159719
14.0	85.40085974779322	pulse	1.0	t		31.0	female	east_asian	3.395941106247513	smiling	087	sub-02	1.0	4.0	087_smiling	0.0		111.3402861962204	
14.0	86.10085630662797	pulse	1.0	t		31.0	female	east_asian	3.395941106247513	smiling	087	sub-02	1.0	4.0	087_smiling	0.0		112.04028275505516	
14.0	86.80085075246825	pulse	1.0	t		31.0	female	east_asian	3.395941106247513	smiling	087	sub-02	1.0	4.0	087_smiling	0.0		112.74027720089543	
14.0	87.50082769062828	pulse	1.0	t		31.0	female	east_asian	3.395941106247513	smiling	087	sub-02	1.0	4.0	087_smiling	0.0		113.44025413905547	
14.0	88.20082787174215	pulse	1.0	t		31.0	female	east_asian	3.395941106247513	smiling	087	sub-02	1.0	4.0	087_smiling	0.0		114.14025432016933	
14.0	88.90080179133838	pulse	1.0	t		31.0	female	east_asian	3.395941106247513	smiling	087	sub-02	1.0	4.0	087_smiling	0.0		114.84022823976557	
15.0	89.0173591658131	face	0.0		146	21.0	male	black	2.969757262236371	smiling	137	sub-02	1.0	4.0	137_smiling	0.0		114.95678561424029	1.2333185021161626
15.0	89.60079925574246	pulse	0.0	t		21.0	male	black	2.969757262236371	smiling	137	sub-02	1.0	4.0	137_smiling	0.0		115.54022570416964	
15.0	90.25067766792927	fix	1.0		443	21.0	male	black	2.969757262236371	smiling	137	sub-02	1.0	4.0	137_smiling	0.0		116.19010411635645	3.7666075430333876
15.0	90.30079460715206	pulse	1.0	t		21.0	male	black	2.969757262236371	smiling	137	sub-02	1.0	4.0	137_smiling	0.0		116.24022105557924	
15.0	91.00078392143041	pulse	1.0	t		21.0	male	black	2.969757262236371	smiling	137	sub-02	1.0	4.0	137_smiling	0.0		116.9402103698576	
15.0	91.7007662930082	pulse	1.0	t		21.0	male	black	2.969757262236371	smiling	137	sub-02	1.0	4.0	137_smiling	0.0		117.64019274143538	
15.0	92.40078941522006	pulse	1.0	t		21.0	male	black	2.969757262236371	smiling	137	sub-02	1.0	4.0	137_smiling	0.0		118.34021586364724	
15.0	93.10074371413975	pulse	1.0	t		21.0	male	black	2.969757262236371	smiling	137	sub-02	1.0	4.0	137_smiling	0.0		119.04017016256694	
15.0	93.80074872495788	pulse	1.0	t		21.0	male	black	2.969757262236371	smiling	137	sub-02	1.0	4.0	137_smiling	0.0		119.74017517338507	
16.0	94.01728521096265	face	0.0		145	32.0	male	white	2.389176283326701	smiling	092	sub-02	1.0	4.0	092_smiling	0.0		119.95671165938984	1.2333191058278317
16.0	94.50072958725468	pulse	0.0	t		32.0	male	white	2.389176283326701	smiling	092	sub-02	1.0	4.0	092_smiling	0.0		120.44015603568187	
16.0	95.20072705165876	pulse	0.0	t		32.0	male	white	2.389176283326701	smiling	092	sub-02	1.0	4.0	092_smiling	0.0		121.14015350008594	
16.0	95.25060431679049	fix	1.0		444	32.0	male	white	2.389176283326701	smiling	092	sub-02	1.0	4.0	092_smiling	0.0		121.19003076521767	3.766609957885521
16.0	95.9007076120979	pulse	1.0	t		32.0	male	white	2.389176283326701	smiling	092	sub-02	1.0	4.0	092_smiling	0.0		121.84013406052509	
16.0	96.60069903937256	pulse	1.0	t		32.0	male	white	2.389176283326701	smiling	092	sub-02	1.0	4.0	092_smiling	0.0		122.54012548779974	
16.0	97.30067839238473	pulse	1.0	t		32.0	male	white	2.389176283326701	smiling	092	sub-02	1.0	4.0	092_smiling	0.0		123.24010484081191	
16.0	98.00068370506051	pulse	1.0	t		32.0	male	white	2.389176283326701	smiling	092	sub-02	1.0	4.0	092_smiling	0.0		123.9401101534877	
16.0	98.70066275621684	pulse	1.0	t		32.0	male	white	2.389176283326701	smiling	092	sub-02	1.0	4.0	092_smiling	0.0		124.64008920464403	
17.0	99.01721427467601	face	0.0		145	27.0	male	black	3.5523278949462798	smiling	042	sub-02	1.0	4.0	042_smiling	1.0	attractiveness	124.95664072310319	1.2333169928315328
17.0	99.40069795268937	pulse	0.0	t		27.0	male	black	3.5523278949462798	smiling	042	sub-02	1.0	4.0	042_smiling	1.0	attractiveness	125.34012440111655	
17.0	100.10065194975323	pulse	0.0	t		27.0	male	black	3.5523278949462798	smiling	042	sub-02	1.0	4.0	042_smiling	1.0	attractiveness	126.04007839818041	
17.0	100.25053126750754	fix	1.0		177	27.0	male	black	3.5523278949462798	smiling	042	sub-02	1.0	4.0	042_smiling	1.0	attractiveness	126.18995771593472	1.4999815867522557
17.0	100.80064367888372	pulse	1.0	t		27.0	male	black	3.5523278949462798	smiling	042	sub-02	1.0	4.0	042_smiling	1.0	attractiveness	126.7400701273109	
17.0	101.50062122075724	pulse	1.0	t		27.0	male	black	3.5523278949462798	smiling	042	sub-02	1.0	4.0	042_smiling	1.0	attractiveness	127.44004766918442	
17.0	101.7505128542598	rating	2.0		295	27.0	male	black	3.5523278949462798	smiling	042	sub-02	1.0	4.0	042_smiling	1.0	attractiveness	127.68993930268698	2.499959551223583
17.0	102.20062110001345	pulse	2.0	t		27.0	male	black	3.5523278949462798	smiling	042	sub-02	1.0	4.0	042_smiling	1.0	attractiveness	128.14004754844063	
17.0	102.90060769758384	pulse	2.0	t		27.0	male	black	3.5523278949462798	smiling	042	sub-02	1.0	4.0	042_smiling	1.0	attractiveness	128.84003414601102	
17.0	103.2756104142918	response	2.0	e		27.0	male	black	3.5523278949462798	smiling	042	sub-02	1.0	4.0	042_smiling	1.0	attractiveness	129.215036862719	
17.0	103.6005798060396	pulse	2.0	t		27.0	male	black	3.5523278949462798	smiling	042	sub-02	1.0	4.0	042_smiling	1.0	attractiveness	129.5400062544668	
17.0	104.25047240548338	fix	3.0		443	27.0	male	black	3.5523278949462798	smiling	042	sub-02	1.0	4.0	042_smiling	1.0	attractiveness	130.18989885391056	3.7665888279279898
17.0	104.30058119458045	pulse	3.0	t		27.0	male	black	3.5523278949462798	smiling	042	sub-02	1.0	4.0	042_smiling	1.0	attractiveness	130.24000764300763	
17.0	105.00057111257047	pulse	3.0	t		27.0	male	black	3.5523278949462798	smiling	042	sub-02	1.0	4.0	042_smiling	1.0	attractiveness	130.93999756099765	
17.0	105.70058004752536	pulse	3.0	t		27.0	male	black	3.5523278949462798	smiling	042	sub-02	1.0	4.0	042_smiling	1.0	attractiveness	131.64000649595255	
17.0	106.40055728754123	pulse	3.0	t		27.0	male	black	3.5523278949462798	smiling	042	sub-02	1.0	4.0	042_smiling	1.0	attractiveness	132.33998373596842	
17.0	107.1005429795423	pulse	3.0	t		27.0	male	black	3.5523278949462798	smiling	042	sub-02	1.0	4.0	042_smiling	1.0	attractiveness	133.03996942796948	
17.0	107.80054466993897	pulse	3.0	t		27.0	male	black	3.5523278949462798	smiling	042	sub-02	1.0	4.0	042_smiling	1.0	attractiveness	133.73997111836616	
18.0	108.01706123341137	face	0.0		145	25.0	female	west_asian	2.6756864305610826	smiling	064	sub-02	1.0	4.0	064_smiling	0.0		133.95648768183855	1.2333387265025522
18.0	108.50053458793082	pulse	0.0	t		25.0	female	west_asian	2.6756864305610826	smiling	064	sub-02	1.0	4.0	064_smiling	0.0		134.439961036358	
18.0	109.20052027993006	pulse	0.0	t		25.0	female	west_asian	2.6756864305610826	smiling	064	sub-02	1.0	4.0	064_smiling	0.0		135.13994672835724	
18.0	109.25039995991392	fix	1.0		444	25.0	female	west_asian	2.6756864305610826	smiling	064	sub-02	1.0	4.0	064_smiling	0.0		135.1898264083411	3.758363840966922
18.0	109.90051291462987	pulse	1.0	t		25.0	female	west_asian	2.6756864305610826	smiling	064	sub-02	1.0	4.0	064_smiling	0.0		135.83993936305706	
18.0	110.60048411751632	pulse	1.0	t		25.0	female	west_asian	2.6756864305610826	smiling	064	sub-02	1.0	4.0	064_smiling	0.0		136.5399105659435	
18.0	111.30047856335659	pulse	1.0	t		25.0	female	west_asian	2.6756864305610826	smiling	064	sub-02	1.0	4.0	064_smiling	0.0		137.23990501178378	
18.0	112.00046667020979	pulse	1.0	t		25.0	female	west_asian	2.6756864305610826	smiling	064	sub-02	1.0	4.0	064_smiling	0.0		137.93989311863697	
18.0	112.70046685132365	pulse	1.0	t		25.0	female	west_asian	2.6756864305610826	smiling	064	sub-02	1.0	4.0	064_smiling	0.0		138.63989329975084	
19.0	113.00876380088084	face	0.0		146	27.0	female	white	3.504576203740549	smiling	144	sub-02	1.0	4.0	144_smiling	0.0		138.94819024930803	1.241560996755652
19.0	113.40045435446154	pulse	0.0	t		27.0	female	white	3.504576203740549	smiling	144	sub-02	1.0	4.0	144_smiling	0.0		139.33988080288873	
19.0	114.10045393186374	pulse	0.0	t		27.0	female	white	3.504576203740549	smiling	144	sub-02	1.0	4.0	144_smiling	0.0		140.03988038029092	
19.0	114.2503247976365	fix	1.0		444	27.0	female	white	3.504576203740549	smiling	144	sub-02	1.0	4.0	144_smiling	0.0		140.18975124606368	3.7666129764493235
19.0	114.80043811458017	pulse	1.0	t		27.0	female	white	3.504576203740549	smiling	144	sub-02	1.0	4.0	144_smiling	0.0		140.73986456300736	
19.0	115.5004343715591	pulse	1.0	t		27.0	female	white	3.504576203740549	smiling	144	sub-02	1.0	4.0	144_smiling	0.0		141.43986081998628	
19.0	116.20042066727183	pulse	1.0	t		27.0	female	white	3.504576203740549	smiling	144	sub-02	1.0	4.0	144_smiling	0.0		142.139847115699	
19.0	116.90040756669805	pulse	1.0	t		27.0	female	white	3.504576203740549	smiling	144	sub-02	1.0	4.0	144_smiling	0.0		142.83983401512523	
19.0	117.60038601414271	pulse	1.0	t		27.0	female	white	3.504576203740549	smiling	144	sub-02	1.0	4.0	144_smiling	0.0		143.5398124625699	
20.0	118.01693777408582	face	0.0		145	26.0	female	white	4.854755272582572	neutral	027	sub-02	1.0	4.0	027_neutral	0.0		143.956364222513	1.2333163891198637
20.0	118.30038257297747	pulse	0.0	t		26.0	female	white	4.854755272582572	neutral	027	sub-02	1.0	4.0	027_neutral	0.0		144.23980902140465	
20.0	119.00036403898594	pulse	0.0	t		26.0	female	white	4.854755272582572	neutral	027	sub-02	1.0	4.0	027_neutral	0.0		144.93979048741312	
20.0	119.25025416320568	fix	1.0		1185	26.0	female	white	4.854755272582572	neutral	027	sub-02	1.0	4.0	027_neutral	0.0		145.18968061163287	10.016516382358532
20.0	119.70035818296856	pulse	1.0	t		26.0	female	white	4.854755272582572	neutral	027	sub-02	1.0	4.0	027_neutral	0.0		145.63978463139574	
20.0	120.40033813969421	pulse	1.0	t		26.0	female	white	4.854755272582572	neutral	027	sub-02	1.0	4.0	027_neutral	0.0		146.3397645881214	
20.0	121.1003340948173	pulse	1.0	t		26.0	female	white	4.854755272582572	neutral	027	sub-02	1.0	4.0	027_neutral	0.0		147.03976054324448	
20.0	121.80032793694409	pulse	1.0	t		26.0	female	white	4.854755272582572	neutral	027	sub-02	1.0	4.0	027_neutral	0.0		147.73975438537127	
20.0	122.50032751434446	pulse	1.0	t		26.0	female	white	4.854755272582572	neutral	027	sub-02	1.0	4.0	027_neutral	0.0		148.43975396277165	
20.0	123.2003231676099	pulse	1.0	t		26.0	female	white	4.854755272582572	neutral	027	sub-02	1.0	4.0	027_neutral	0.0		149.13974961603708	
20.0	123.90029286121353	pulse	1.0	t		26.0	female	white	4.854755272582572	neutral	027	sub-02	1.0	4.0	027_neutral	0.0		149.8397193096407	
20.0	124.6002800624974	pulse	1.0	t		26.0	female	white	4.854755272582572	neutral	027	sub-02	1.0	4.0	027_neutral	0.0		150.5397065109246	
20.0	125.30028507331554	pulse	1.0	t		26.0	female	white	4.854755272582572	neutral	027	sub-02	1.0	4.0	027_neutral	0.0		151.23971152174272	
20.0	126.00027438759389	pulse	1.0	t		26.0	female	white	4.854755272582572	neutral	027	sub-02	1.0	4.0	027_neutral	0.0		151.93970083602107	
20.0	126.70025555174652	pulse	1.0	t		26.0	female	white	4.854755272582572	neutral	027	sub-02	1.0	4.0	027_neutral	0.0		152.6396820001737	
20.0	127.40025090315612	pulse	1.0	t		26.0	female	white	4.854755272582572	neutral	027	sub-02	1.0	4.0	027_neutral	0.0		153.3396773515833	
20.0	128.1002353877284	pulse	1.0	t		26.0	female	white	4.854755272582572	neutral	027	sub-02	1.0	4.0	027_neutral	0.0		154.03966183615557	
20.0	128.80023134285148	pulse	1.0	t		26.0	female	white	4.854755272582572	neutral	027	sub-02	1.0	4.0	027_neutral	0.0		154.73965779127866	
21.0	129.2667705455642	face	0.0		145	54.0	female	white	2.286908077994429	neutral	136	sub-02	1.0	4.0	136_neutral	0.0		155.2061969939914	1.2333317838038056
21.0	129.5002291091132	pulse	0.0	t		54.0	female	white	2.286908077994429	neutral	136	sub-02	1.0	4.0	136_neutral	0.0		155.4396555575404	
21.0	130.2002015194248	pulse	0.0	t		54.0	female	white	2.286908077994429	neutral	136	sub-02	1.0	4.0	136_neutral	0.0		156.139627967852	
21.0	130.50010232936802	fix	1.0		444	54.0	female	white	2.286908077994429	neutral	136	sub-02	1.0	4.0	136_neutral	0.0		156.4395287777952	3.7665948650574137
21.0	130.90020743581408	pulse	1.0	t		54.0	female	white	2.286908077994429	neutral	136	sub-02	1.0	4.0	136_neutral	0.0		156.83963388424127	
21.0	131.60017441270793	pulse	1.0	t		54.0	female	white	2.286908077994429	neutral	136	sub-02	1.0	4.0	136_neutral	0.0		157.5396008611351	
21.0	132.30019059221922	pulse	1.0	t		54.0	female	white	2.286908077994429	neutral	136	sub-02	1.0	4.0	136_neutral	0.0		158.2396170406464	
21.0	133.00015968210937	pulse	1.0	t		54.0	female	white	2.286908077994429	neutral	136	sub-02	1.0	4.0	136_neutral	0.0		158.93958613053655	
21.0	133.7001547316613	pulse	1.0	t		54.0	female	white	2.286908077994429	neutral	136	sub-02	1.0	4.0	136_neutral	0.0		159.6395811800885	
22.0	134.26669719442543	face	0.0		145	24.0	female	black	3.0955033824114606	neutral	099	sub-02	1.0	4.0	099_neutral	1.0	trustworthiness	160.20612364285262	1.2333203132548078
22.0	134.400156422058	pulse	0.0	t		24.0	female	black	3.0955033824114606	neutral	099	sub-02	1.0	4.0	099_neutral	1.0	trustworthiness	160.33958287048517	
22.0	135.10016445144356	pulse	0.0	t		24.0	female	black	3.0955033824114606	neutral	099	sub-02	1.0	4.0	099_neutral	1.0	trustworthiness	161.03959089987075	
22.0	135.50001750768024	fix	1.0		177	24.0	female	black	3.0955033824114606	neutral	099	sub-02	1.0	4.0	099_neutral	1.0	trustworthiness	161.43944395610743	1.4999897368779784
22.0	135.80012690048898	pulse	1.0	t		24.0	female	black	3.0955033824114606	neutral	099	sub-02	1.0	4.0	099_neutral	1.0	trustworthiness	161.73955334891616	
22.0	136.50011108320723	pulse	1.0	t		24.0	female	black	3.0955033824114606	neutral	099	sub-02	1.0	4.0	099_neutral	1.0	trustworthiness	162.43953753163441	
22.0	137.00000724455822	rating	2.0		294	24.0	female	black	3.0955033824114606	neutral	099	sub-02	1.0	4.0	099_neutral	1.0	trustworthiness	162.9394336929854	2.4999616642180627
22.0	137.20012273486827	pulse	2.0	t		24.0	female	black	3.0955033824114606	neutral	099	sub-02	1.0	4.0	099_neutral	1.0	trustworthiness	163.13954918329546	
22.0	137.90010631387304	pulse	2.0	t		24.0	female	black	3.0955033824114606	neutral	099	sub-02	1.0	4.0	099_neutral	1.0	trustworthiness	163.83953276230022	
22.0	138.5917809898001	response	2.0	y		24.0	female	black	3.0955033824114606	neutral	099	sub-02	1.0	4.0	099_neutral	1.0	trustworthiness	164.53120743822728	
22.0	138.60309427100583	pulse	2.0	t		24.0	female	black	3.0955033824114606	neutral	099	sub-02	1.0	4.0	099_neutral	1.0	trustworthiness	164.542520719433	
22.0	139.3000629069029	pulse	2.0	t		24.0	female	black	3.0955033824114606	neutral	099	sub-02	1.0	4.0	099_neutral	1.0	trustworthiness	165.23948935533008	
22.0	139.49996890877628	fix	3.0		444	24.0	female	black	3.0955033824114606	neutral	099	sub-02	1.0	4.0	099_neutral	1.0	trustworthiness	165.43939535720347	3.766593355776422
22.0	140.00008874582272	pulse	3.0	t		24.0	female	black	3.0955033824114606	neutral	099	sub-02	1.0	4.0	099_neutral	1.0	trustworthiness	165.9395151942499	
22.0	140.70006326913062	pulse	3.0	t		24.0	female	black	3.0955033824114606	neutral	099	sub-02	1.0	4.0	099_neutral	1.0	trustworthiness	166.6394897175578	
22.0	141.40004745184888	pulse	3.0	t		24.0	female	black	3.0955033824114606	neutral	099	sub-02	1.0	4.0	099_neutral	1.0	trustworthiness	167.33947390027606	
22.0	142.1000473311051	pulse	3.0	t		24.0	female	black	3.0955033824114606	neutral	099	sub-02	1.0	4.0	099_neutral	1.0	trustworthiness	168.03947377953227	
22.0	142.80003151382334	pulse	3.0	t		24.0	female	black	3.0955033824114606	neutral	099	sub-02	1.0	4.0	099_neutral	1.0	trustworthiness	168.73945796225053	
23.0	143.2665622645527	face	0.0		145	31.0	female	east_asian	3.395941106247513	neutral	087	sub-02	1.0	4.0	087_neutral	0.0		169.2059887129799	1.2333224262492877
23.0	143.50002565780596	pulse	0.0	t		31.0	female	east_asian	3.395941106247513	neutral	087	sub-02	1.0	4.0	087_neutral	0.0		169.43945210623315	
23.0	144.1999953514096	pulse	0.0	t		31.0	female	east_asian	3.395941106247513	neutral	087	sub-02	1.0	4.0	087_neutral	0.0		170.13942179983678	
23.0	144.499884690802	fix	1.0		444	31.0	female	east_asian	3.395941106247513	neutral	087	sub-02	1.0	4.0	087_neutral	0.0		170.43931113922918	3.766603920754278
23.0	144.90001515319818	pulse	1.0	t		31.0	female	east_asian	3.395941106247513	neutral	087	sub-02	1.0	4.0	087_neutral	0.0		170.83944160162537	
23.0	145.60000356190722	pulse	1.0	t		31.0	female	east_asian	3.395941106247513	neutral	087	sub-02	1.0	4.0	087_neutral	0.0		171.5394300103344	
23.0	146.29997536850715	pulse	1.0	t		31.0	female	east_asian	3.395941106247513	neutral	087	sub-02	1.0	4.0	087_neutral	0.0		172.23940181693433	
23.0	146.99995713637145	pulse	1.0	t		31.0	female	east_asian	3.395941106247513	neutral	087	sub-02	1.0	4.0	087_neutral	0.0		172.93938358479863	
23.0	147.69995671377364	pulse	1.0	t		31.0	female	east_asian	3.395941106247513	neutral	087	sub-02	1.0	4.0	087_neutral	0.0		173.63938316220083	
24.0	148.26648861155627	face	0.0		145	34.0	male	white	2.651014723438122	smiling	121	sub-02	1.0	4.0	121_smiling	0.0		174.20591505998345	1.2333489896263927
24.0	148.39995780045683	pulse	0.0	t		34.0	male	white	2.651014723438122	smiling	121	sub-02	1.0	4.0	121_smiling	0.0		174.33938424888402	
24.0	149.09992326806787	pulse	0.0	t		34.0	male	white	2.651014723438122	smiling	121	sub-02	1.0	4.0	121_smiling	0.0		175.03934971649505	
24.0	149.49983760118266	fix	1.0		444	34.0	male	white	2.651014723438122	smiling	121	sub-02	1.0	4.0	121_smiling	0.0		175.43926404960985	3.766584601935392
24.0	149.7999346178749	pulse	1.0	t		34.0	male	white	2.651014723438122	smiling	121	sub-02	1.0	4.0	121_smiling	0.0		175.73936106630208	
24.0	150.49990008548593	pulse	1.0	t		34.0	male	white	2.651014723438122	smiling	121	sub-02	1.0	4.0	121_smiling	0.0		176.43932653391312	
24.0	151.19991928356285	pulse	1.0	t		34.0	male	white	2.651014723438122	smiling	121	sub-02	1.0	4.0	121_smiling	0.0		177.13934573199003	
24.0	151.89988656231253	pulse	1.0	t		34.0	male	white	2.651014723438122	smiling	121	sub-02	1.0	4.0	121_smiling	0.0		177.83931301073972	
24.0	152.59987738587552	pulse	1.0	t		34.0	male	white	2.651014723438122	smiling	121	sub-02	1.0	4.0	121_smiling	0.0		178.5393038343027	
25.0	153.26642220311805	face	0.0		145	22.0	male	black	2.767608436132113	neutral	044	sub-02	1.0	4.0	044_neutral	0.0		179.20584865154524	1.2333200113989733
25.0	153.29988511340161	pulse	0.0	t		22.0	male	black	2.767608436132113	neutral	044	sub-02	1.0	4.0	044_neutral	0.0		179.2393115618288	
25.0	153.99985782557087	pulse	0.0	t		22.0	male	black	2.767608436132113	neutral	044	sub-02	1.0	4.0	044_neutral	0.0		179.93928427399806	
25.0	154.49974221451703	fix	1.0		443	22.0	male	black	2.767608436132113	neutral	044	sub-02	1.0	4.0	044_neutral	0.0		180.4391686629442	3.766608750458545
25.0	154.69985317698047	pulse	1.0	t		22.0	male	black	2.767608436132113	neutral	044	sub-02	1.0	4.0	044_neutral	0.0		180.63927962540765	
25.0	155.39983403927545	pulse	1.0	t		22.0	male	black	2.767608436132113	neutral	044	sub-02	1.0	4.0	044_neutral	0.0		181.33926048770263	
25.0	156.09982788140223	pulse	1.0	t		22.0	male	black	2.767608436132113	neutral	044	sub-02	1.0	4.0	044_neutral	0.0		182.03925432982942	
25.0	156.79980391399295	pulse	1.0	t		22.0	male	black	2.767608436132113	neutral	044	sub-02	1.0	4.0	044_neutral	0.0		182.73923036242013	
25.0	157.4997953412676	pulse	1.0	t		22.0	male	black	2.767608436132113	neutral	044	sub-02	1.0	4.0	044_neutral	0.0		183.43922178969478	
25.0	158.19979401309865	pulse	1.0	t		22.0	male	black	2.767608436132113	neutral	044	sub-02	1.0	4.0	044_neutral	0.0		184.13922046152584	
26.0	158.26635096497557	face	0.0		146	31.0	female	white	2.1822522881018704	smiling	102	sub-02	1.0	4.0	102_smiling	0.0		184.20577741340276	1.2333278596688615
26.0	158.89978876079476	pulse	0.0	t		31.0	female	white	2.1822522881018704	smiling	102	sub-02	1.0	4.0	102_smiling	0.0		184.83921520922195	
26.0	159.49967882464443	fix	1.0		443	31.0	female	white	2.1822522881018704	smiling	102	sub-02	1.0	4.0	102_smiling	0.0		185.43910527307162	3.76658007408696
26.0	159.59979769574784	pulse	1.0	t		31.0	female	white	2.1822522881018704	smiling	102	sub-02	1.0	4.0	102_smiling	0.0		185.53922414417502	
26.0	160.29979183973228	pulse	1.0	t		31.0	female	white	2.1822522881018704	smiling	102	sub-02	1.0	4.0	102_smiling	0.0		186.23921828815946	
26.0	160.99975006278692	pulse	1.0	t		31.0	female	white	2.1822522881018704	smiling	102	sub-02	1.0	4.0	102_smiling	0.0		186.9391765112141	
26.0	161.69975779031483	pulse	1.0	t		31.0	female	white	2.1822522881018704	smiling	102	sub-02	1.0	4.0	102_smiling	0.0		187.63918423874202	
26.0	162.39974408602757	pulse	1.0	t		31.0	female	white	2.1822522881018704	smiling	102	sub-02	1.0	4.0	102_smiling	0.0		188.33917053445475	
26.0	163.09974668199357	pulse	1.0	t		31.0	female	white	2.1822522881018704	smiling	102	sub-02	1.0	4.0	102_smiling	0.0		189.03917313042075	
27.0	163.2662588987314	face	0.0		146	28.0	female	white	5.676880222841227	neutral	124	sub-02	1.0	4.0	124_neutral	0.0		189.20568534715858	1.2333357079387497
27.0	163.7997372036989	pulse	0.0	t		28.0	female	white	5.676880222841227	neutral	124	sub-02	1.0	4.0	124_neutral	0.0		189.73916365212608	
27.0	164.49959460667014	fix	1.0		444	28.0	female	white	5.676880222841227	neutral	124	sub-02	1.0	4.0	124_neutral	0.0		190.43902105509733	3.758361124257135
27.0	164.50712170131192	pulse	1.0	t		28.0	female	white	5.676880222841227	neutral	124	sub-02	1.0	4.0	124_neutral	0.0		190.4465481497391	
27.0	165.1996977208637	pulse	1.0	t		28.0	female	white	5.676880222841227	neutral	124	sub-02	1.0	4.0	124_neutral	0.0		191.13912416929088	
27.0	165.89967767758935	pulse	1.0	t		28.0	female	white	5.676880222841227	neutral	124	sub-02	1.0	4.0	124_neutral	0.0		191.83910412601654	
27.0	166.59966578444073	pulse	1.0	t		28.0	female	white	5.676880222841227	neutral	124	sub-02	1.0	4.0	124_neutral	0.0		192.53909223286792	
27.0	167.2996789453864	pulse	1.0	t		28.0	female	white	5.676880222841227	neutral	124	sub-02	1.0	4.0	124_neutral	0.0		193.2391053938136	
27.0	167.99965829839857	pulse	1.0	t		28.0	female	white	5.676880222841227	neutral	124	sub-02	1.0	4.0	124_neutral	0.0		193.93908474682576	
28.0	168.25795573092728	face	0.0		146	28.0	male	east_asian	1.5563072025467568	neutral	005	sub-02	1.0	4.0	005_neutral	0.0		194.19738217935446	1.2415788062917272
28.0	168.69966059250874	pulse	0.0	t		28.0	male	east_asian	1.5563072025467568	neutral	005	sub-02	1.0	4.0	005_neutral	0.0		194.63908704093592	
28.0	169.39965111421407	pulse	0.0	t		28.0	male	east_asian	1.5563072025467568	neutral	005	sub-02	1.0	4.0	005_neutral	0.0		195.33907756264125	
28.0	169.499534537219	fix	1.0		444	28.0	male	east_asian	1.5563072025467568	neutral	005	sub-02	1.0	4.0	005_neutral	0.0		195.4389609856462	3.7665936576304375
28.0	170.09963771178263	pulse	1.0	t		28.0	male	east_asian	1.5563072025467568	neutral	005	sub-02	1.0	4.0	005_neutral	0.0		196.03906416020982	
28.0	170.79963910032347	pulse	1.0	t		28.0	male	east_asian	1.5563072025467568	neutral	005	sub-02	1.0	4.0	005_neutral	0.0		196.73906554875066	
28.0	171.4996036623652	pulse	1.0	t		28.0	male	east_asian	1.5563072025467568	neutral	005	sub-02	1.0	4.0	005_neutral	0.0		197.43903011079237	
28.0	172.199594787784	pulse	1.0	t		28.0	male	east_asian	1.5563072025467568	neutral	005	sub-02	1.0	4.0	005_neutral	0.0		198.1390212362112	
28.0	172.89958047978325	pulse	1.0	t		28.0	male	east_asian	1.5563072025467568	neutral	005	sub-02	1.0	4.0	005_neutral	0.0		198.83900692821044	
29.0	173.26612819484944	face	0.0		145	19.0	female	white	4.298846000795861	smiling	100	sub-02	1.0	4.0	100_smiling	0.0		199.20555464327663	1.2333203132548078
29.0	173.59957613304869	pulse	0.0	t		19.0	female	white	4.298846000795861	smiling	100	sub-02	1.0	4.0	100_smiling	0.0		199.53900258147587	
29.0	174.2995729937411	pulse	0.0	t		19.0	female	white	4.298846000795861	smiling	100	sub-02	1.0	4.0	100_smiling	0.0		200.23899944216828	
29.0	174.49944850810425	fix	1.0		444	19.0	female	white	4.298846000795861	smiling	100	sub-02	1.0	4.0	100_smiling	0.0		200.43887495653144	3.766598789194177
29.0	174.99955204489743	pulse	1.0	t		19.0	female	white	4.298846000795861	smiling	100	sub-02	1.0	4.0	100_smiling	0.0		200.9389784933246	
29.0	175.69953803875433	pulse	1.0	t		19.0	female	white	4.298846000795861	smiling	100	sub-02	1.0	4.0	100_smiling	0.0		201.6389644871815	
29.0	176.3995246363247	pulse	1.0	t		19.0	female	white	4.298846000795861	smiling	100	sub-02	1.0	4.0	100_smiling	0.0		202.3389510847519	
29.0	177.09953538241643	pulse	1.0	t		19.0	female	white	4.298846000795861	smiling	100	sub-02	1.0	4.0	100_smiling	0.0		203.03896183084362	
29.0	177.7995168484249	pulse	1.0	t		19.0	female	white	4.298846000795861	smiling	100	sub-02	1.0	4.0	100_smiling	0.0		203.73894329685209	
30.0	178.26604729729843	face	0.0		145	24.0	female	east_asian	4.409868682849185	smiling	030	sub-02	1.0	4.0	030_smiling	0.0		204.2054737457256	1.2333287652363651
30.0	178.49950465342044	pulse	0.0	t		24.0	female	east_asian	4.409868682849185	smiling	030	sub-02	1.0	4.0	030_smiling	0.0		204.43893110184763	
30.0	179.1994894398522	pulse	0.0	t		24.0	female	east_asian	4.409868682849185	smiling	030	sub-02	1.0	4.0	030_smiling	0.0		205.13891588827937	
30.0	179.4993760625348	fix	1.0		444	24.0	female	east_asian	4.409868682849185	smiling	030	sub-02	1.0	4.0	030_smiling	0.0		205.43880251096198	3.766610561599009
30.0	179.8994856968311	pulse	1.0	t		24.0	female	east_asian	4.409868682849185	smiling	030	sub-02	1.0	4.0	030_smiling	0.0		205.8389121452583	
30.0	180.59949523549767	pulse	1.0	t		24.0	female	east_asian	4.409868682849185	smiling	030	sub-02	1.0	4.0	030_smiling	0.0		206.53892168392485	
30.0	181.299462816105	pulse	1.0	t		24.0	female	east_asian	4.409868682849185	smiling	030	sub-02	1.0	4.0	030_smiling	0.0		207.2388892645322	
30.0	181.99946360093236	pulse	1.0	t		24.0	female	east_asian	4.409868682849185	smiling	030	sub-02	1.0	4.0	030_smiling	0.0		207.93889004935954	
30.0	182.6994471799353	pulse	1.0	t		24.0	female	east_asian	4.409868682849185	smiling	030	sub-02	1.0	4.0	030_smiling	0.0		208.6388736283625	
31.0	183.2659866241338	face	0.0		145	28.0	female	white	5.676880222841227	smiling	124	sub-02	1.0	4.0	124_smiling	0.0		209.205413072561	1.2333169928333518
31.0	183.39944887033198	pulse	0.0	t		28.0	female	white	5.676880222841227	smiling	124	sub-02	1.0	4.0	124_smiling	0.0		209.33887531875916	
31.0	184.09942309178405	pulse	0.0	t		28.0	female	white	5.676880222841227	smiling	124	sub-02	1.0	4.0	124_smiling	0.0		210.03884954021123	
31.0	184.49930361696715	fix	1.0		444	28.0	female	white	5.676880222841227	smiling	124	sub-02	1.0	4.0	124_smiling	0.0		210.43873006539434	3.7584079120206297
31.0	184.79941783948016	pulse	1.0	t		28.0	female	white	5.676880222841227	smiling	124	sub-02	1.0	4.0	124_smiling	0.0		210.73884428790734	
31.0	185.4993968906365	pulse	1.0	t		28.0	female	white	5.676880222841227	smiling	124	sub-02	1.0	4.0	124_smiling	0.0		211.43882333906367	
31.0	186.19938922348047	pulse	1.0	t		28.0	female	white	5.676880222841227	smiling	124	sub-02	1.0	4.0	124_smiling	0.0		212.13881567190765	
31.0	186.8993891027385	pulse	1.0	t		28.0	female	white	5.676880222841227	smiling	124	sub-02	1.0	4.0	124_smiling	0.0		212.83881555116568	
31.0	187.5993723798856	pulse	1.0	t		28.0	female	white	5.676880222841227	smiling	124	sub-02	1.0	4.0	124_smiling	0.0		213.5387988283128	
32.0	188.25771152898778	face	0.0		146	27.0	female	white	4.181058495821727	smiling	039	sub-02	1.0	4.0	039_smiling	1.0	dominance	214.19713797741497	1.2415293018184457
32.0	188.29938071112701	pulse	0.0	t		27.0	female	white	4.181058495821727	smiling	039	sub-02	1.0	4.0	039_smiling	1.0	dominance	214.2388071595542	
32.0	188.99934195274727	pulse	0.0	t		27.0	female	white	4.181058495821727	smiling	039	sub-02	1.0	4.0	039_smiling	1.0	dominance	214.93876840117446	
32.0	189.49924083080623	fix	1.0		177	27.0	female	white	4.181058495821727	smiling	039	sub-02	1.0	4.0	039_smiling	1.0	dominance	215.4386672792334	1.4999692106339353
32.0	189.69935390626597	pulse	1.0	t		27.0	female	white	4.181058495821727	smiling	039	sub-02	1.0	4.0	039_smiling	1.0	dominance	215.63878035469315	
32.0	190.39932390172544	pulse	1.0	t		27.0	female	white	4.181058495821727	smiling	039	sub-02	1.0	4.0	039_smiling	1.0	dominance	216.33875035015262	
32.0	190.99921004144016	rating	2.0		294	27.0	female	white	4.181058495821727	smiling	039	sub-02	1.0	4.0	039_smiling	1.0	dominance	216.93863648986735	2.499961362362228
32.0	191.099321969843	pulse	2.0	t		27.0	female	white	4.181058495821727	smiling	039	sub-02	1.0	4.0	039_smiling	1.0	dominance	217.0387484182702	
32.0	191.7993106804097	pulse	2.0	t		27.0	female	white	4.181058495821727	smiling	039	sub-02	1.0	4.0	039_smiling	1.0	dominance	217.73873712883687	
32.0	191.91598426965174	response	2.0	d		27.0	female	white	4.181058495821727	smiling	039	sub-02	1.0	4.0	039_smiling	1.0	dominance	217.85541071807893	
32.0	192.4992903352795	pulse	2.0	t		27.0	female	white	4.181058495821727	smiling	039	sub-02	1.0	4.0	039_smiling	1.0	dominance	218.4387167837067	
32.0	193.19928598854494	pulse	2.0	t		27.0	female	white	4.181058495821727	smiling	039	sub-02	1.0	4.0	039_smiling	1.0	dominance	219.13871243697213	
32.0	193.4991714038024	fix	3.0		445	27.0	female	white	4.181058495821727	smiling	039	sub-02	1.0	4.0	039_smiling	1.0	dominance	219.43859785222958	3.7749427076287247
32.0	193.899284660376	pulse	3.0	t		27.0	female	white	4.181058495821727	smiling	039	sub-02	1.0	4.0	039_smiling	1.0	dominance	219.83871110880318	
32.0	194.599262805963	pulse	3.0	t		27.0	female	white	4.181058495821727	smiling	039	sub-02	1.0	4.0	039_smiling	1.0	dominance	220.5386892543902	
32.0	195.29925362952417	pulse	3.0	t		27.0	female	white	4.181058495821727	smiling	039	sub-02	1.0	4.0	039_smiling	1.0	dominance	221.23868007795136	
32.0	195.99925471620736	pulse	3.0	t		27.0	female	white	4.181058495821727	smiling	039	sub-02	1.0	4.0	039_smiling	1.0	dominance	221.93868116463454	
32.0	196.6992555010347	pulse	3.0	t		27.0	female	white	4.181058495821727	smiling	039	sub-02	1.0	4.0	039_smiling	1.0	dominance	222.6386819494619	
33.0	197.27411411143112	face	0.0		145	22.0	female	west_asian	3.8205332272184642	neutral	066	sub-02	1.0	4.0	066_neutral	0.0		223.2135405598583	1.2333178984026745
33.0	197.39923696704318	pulse	0.0	t		22.0	female	west_asian	3.8205332272184642	neutral	066	sub-02	1.0	4.0	066_neutral	0.0		223.33866341547036	
33.0	198.09921149035108	pulse	0.0	t		22.0	female	west_asian	3.8205332272184642	neutral	066	sub-02	1.0	4.0	066_neutral	0.0		224.03863793877827	
33.0	198.5074320098338	fix	1.0		444	22.0	female	west_asian	3.8205332272184642	neutral	066	sub-02	1.0	4.0	066_neutral	0.0		224.44685845826098	3.7582772081404983
33.0	198.79920684176068	pulse	1.0	t		22.0	female	west_asian	3.8205332272184642	neutral	066	sub-02	1.0	4.0	066_neutral	0.0		224.73863329018786	
33.0	199.4992024950261	pulse	1.0	t		22.0	female	west_asian	3.8205332272184642	neutral	066	sub-02	1.0	4.0	066_neutral	0.0		225.4386289434533	
33.0	200.19917067934693	pulse	1.0	t		22.0	female	west_asian	3.8205332272184642	neutral	066	sub-02	1.0	4.0	066_neutral	0.0		226.13859712777412	
33.0	200.89916965303382	pulse	1.0	t		22.0	female	west_asian	3.8205332272184642	neutral	066	sub-02	1.0	4.0	066_neutral	0.0		226.838596101461	
33.0	201.59917526756544	pulse	1.0	t		22.0	female	west_asian	3.8205332272184642	neutral	066	sub-02	1.0	4.0	066_neutral	0.0		227.53860171599263	
34.0	202.2657092179743	face	0.0		146	28.0	male	white	3.9076800636689217	neutral	033	sub-02	1.0	4.0	033_neutral	0.0		228.20513566640147	1.241652761142177
34.0	202.29915612986224	pulse	0.0	t		28.0	male	white	3.9076800636689217	neutral	033	sub-02	1.0	4.0	033_neutral	0.0		228.23858257828942	
34.0	202.9991448404271	pulse	0.0	t		28.0	male	white	3.9076800636689217	neutral	033	sub-02	1.0	4.0	033_neutral	0.0		228.9385712888543	
34.0	203.50736197911647	fix	1.0		443	28.0	male	white	3.9076800636689217	neutral	033	sub-02	1.0	4.0	033_neutral	0.0		229.44678842754365	3.766587922358667
34.0	203.6991661514985	pulse	1.0	t		28.0	male	white	3.9076800636689217	neutral	033	sub-02	1.0	4.0	033_neutral	0.0		229.6385925999257	
34.0	204.39912588383595	pulse	1.0	t		28.0	male	white	3.9076800636689217	neutral	033	sub-02	1.0	4.0	033_neutral	0.0		230.33855233226313	
34.0	205.09911670739712	pulse	1.0	t		28.0	male	white	3.9076800636689217	neutral	033	sub-02	1.0	4.0	033_neutral	0.0		231.0385431558243	
34.0	205.79910360682334	pulse	1.0	t		28.0	male	white	3.9076800636689217	neutral	033	sub-02	1.0	4.0	033_neutral	0.0		231.73853005525052	
34.0	206.4990899025379	pulse	1.0	t		28.0	male	white	3.9076800636689217	neutral	033	sub-02	1.0	4.0	033_neutral	0.0		232.43851635096507	
34.0	207.199097630064	pulse	1.0	t		28.0	male	white	3.9076800636689217	neutral	033	sub-02	1.0	4.0	033_neutral	0.0		233.13852407849117	
35.0	207.27394990147513	face	0.0		146	34.0	male	white	2.651014723438122	neutral	121	sub-02	1.0	4.0	121_neutral	0.0		233.21337634990232	1.2333345005117735
35.0	207.89908060535527	pulse	0.0	t		34.0	male	white	2.651014723438122	neutral	121	sub-02	1.0	4.0	121_neutral	0.0		233.83850705378245	
35.0	208.5072844019869	fix	1.0		443	34.0	male	white	2.651014723438122	neutral	121	sub-02	1.0	4.0	121_neutral	0.0		234.4467108504141	3.766609354172033
35.0	208.5990768623342	pulse	1.0	t		34.0	male	white	2.651014723438122	neutral	121	sub-02	1.0	4.0	121_neutral	0.0		234.53850331076137	
35.0	209.29905048007276	pulse	1.0	t		34.0	male	white	2.651014723438122	neutral	121	sub-02	1.0	4.0	121_neutral	0.0		235.23847692849995	
35.0	209.99904854819215	pulse	1.0	t		34.0	male	white	2.651014723438122	neutral	121	sub-02	1.0	4.0	121_neutral	0.0		235.93847499661933	
35.0	210.69902820306015	pulse	1.0	t		34.0	male	white	2.651014723438122	neutral	121	sub-02	1.0	4.0	121_neutral	0.0		236.63845465148734	
35.0	211.39901932847897	pulse	1.0	t		34.0	male	white	2.651014723438122	neutral	121	sub-02	1.0	4.0	121_neutral	0.0		237.33844577690616	
35.0	212.09903067828418	pulse	1.0	t		34.0	male	white	2.651014723438122	neutral	121	sub-02	1.0	4.0	121_neutral	0.0		238.03845712671136	
36.0	212.27389375615894	face	0.0		146	24.0	male	white	3.1153999204138483	smiling	012	sub-02	1.0	4.0	012_smiling	0.0		238.21332020458613	1.2416533648538461
36.0	212.79901455914478	pulse	0.0	t		24.0	male	white	3.1153999204138483	smiling	012	sub-02	1.0	4.0	012_smiling	0.0		238.73844100757196	
36.0	213.4990228903862	pulse	0.0	t		24.0	male	white	3.1153999204138483	smiling	012	sub-02	1.0	4.0	012_smiling	0.0		239.43844933881337	
36.0	213.5155471210128	fix	1.0		443	24.0	male	white	3.1153999204138483	smiling	012	sub-02	1.0	4.0	012_smiling	0.0		239.45497356943997	3.7582603041755647
36.0	214.19899077284936	pulse	1.0	t		24.0	male	white	3.1153999204138483	smiling	012	sub-02	1.0	4.0	012_smiling	0.0		240.13841722127654	
36.0	214.8989785778449	pulse	1.0	t		24.0	male	white	3.1153999204138483	smiling	012	sub-02	1.0	4.0	012_smiling	0.0		240.83840502627208	
36.0	215.59897845710293	pulse	1.0	t		24.0	male	white	3.1153999204138483	smiling	012	sub-02	1.0	4.0	012_smiling	0.0		241.53840490553011	
36.0	216.29894875442005	pulse	1.0	t		24.0	male	white	3.1153999204138483	smiling	012	sub-02	1.0	4.0	012_smiling	0.0		242.23837520284724	
36.0	216.99894289840267	pulse	1.0	t		24.0	male	white	3.1153999204138483	smiling	012	sub-02	1.0	4.0	012_smiling	0.0		242.93836934682986	
37.0	217.27380742518835	face	0.0		145	25.0	female	west_asian	2.6756864305610826	neutral	064	sub-02	1.0	4.0	064_neutral	0.0		243.21323387361554	1.2333357079387497
37.0	217.69893523124665	pulse	0.0	t		25.0	female	west_asian	2.6756864305610826	neutral	064	sub-02	1.0	4.0	064_neutral	0.0		243.63836167967384	
37.0	218.39892997894276	pulse	0.0	t		25.0	female	west_asian	2.6756864305610826	neutral	064	sub-02	1.0	4.0	064_neutral	0.0		244.33835642736994	
37.0	218.5071431331271	fix	1.0		444	25.0	female	west_asian	2.6756864305610826	neutral	064	sub-02	1.0	4.0	064_neutral	0.0		244.4465695815543	3.7583523704179242
37.0	219.0989198969346	pulse	1.0	t		25.0	female	west_asian	2.6756864305610826	neutral	064	sub-02	1.0	4.0	064_neutral	0.0		245.0383463453618	
37.0	219.79889774066396	pulse	1.0	t		25.0	female	west_asian	2.6756864305610826	neutral	064	sub-02	1.0	4.0	064_neutral	0.0		245.73832418909114	
37.0	220.4988955069257	pulse	1.0	t		25.0	female	west_asian	2.6756864305610826	neutral	064	sub-02	1.0	4.0	064_neutral	0.0		246.43832195535288	
37.0	221.19888934905248	pulse	1.0	t		25.0	female	west_asian	2.6756864305610826	neutral	064	sub-02	1.0	4.0	064_neutral	0.0		247.13831579747966	
37.0	221.89888439860624	pulse	1.0	t		25.0	female	west_asian	2.6756864305610826	neutral	064	sub-02	1.0	4.0	064_neutral	0.0		247.83831084703343	
38.0	222.26549550354503	face	0.0		146	19.0	male	white	2.243931555909272	smiling	130	sub-02	1.0	4.0	130_smiling	0.0		248.2049219519722	1.2415757877261058
38.0	222.59887461845392	pulse	0.0	t		19.0	male	white	2.243931555909272	smiling	130	sub-02	1.0	4.0	130_smiling	0.0		248.5383010668811	
38.0	223.2988482361925	pulse	0.0	t		19.0	male	white	2.243931555909272	smiling	130	sub-02	1.0	4.0	130_smiling	0.0		249.23827468461968	
38.0	223.50707129127113	fix	1.0		444	19.0	male	white	2.243931555909272	smiling	130	sub-02	1.0	4.0	130_smiling	0.0		249.44649773969832	3.758268152443634
38.0	223.998850228445	pulse	1.0	t		19.0	male	white	2.243931555909272	smiling	130	sub-02	1.0	4.0	130_smiling	0.0		249.9382766768722	
38.0	224.69882837403202	pulse	1.0	t		19.0	male	white	2.243931555909272	smiling	130	sub-02	1.0	4.0	130_smiling	0.0		250.6382548224592	
38.0	225.39882463101094	pulse	1.0	t		19.0	male	white	2.243931555909272	smiling	130	sub-02	1.0	4.0	130_smiling	0.0		251.33825107943812	
38.0	226.09881696385492	pulse	1.0	t		19.0	male	white	2.243931555909272	smiling	130	sub-02	1.0	4.0	130_smiling	0.0		252.0382434122821	
38.0	226.79880537256395	pulse	1.0	t		19.0	male	white	2.243931555909272	smiling	130	sub-02	1.0	4.0	130_smiling	0.0		252.73823182099113	
39.0	227.26533944371477	face	0.0		146	40.0	male	black	2.408674890569041	smiling	061	sub-02	1.0	4.0	061_smiling	0.0		253.20476589214195	1.241656081563633
39.0	227.49880162954287	pulse	0.0	t		40.0	male	black	2.408674890569041	smiling	061	sub-02	1.0	4.0	061_smiling	0.0		253.43822807797005	
39.0	228.1987791714164	pulse	0.0	t		40.0	male	black	2.408674890569041	smiling	061	sub-02	1.0	4.0	061_smiling	0.0		254.13820561984357	
39.0	228.5069955252784	fix	1.0		444	40.0	male	black	2.408674890569041	smiling	061	sub-02	1.0	4.0	061_smiling	0.0		254.44642197370558	3.749956834515615
39.0	228.89879504907003	pulse	1.0	t		40.0	male	black	2.408674890569041	smiling	061	sub-02	1.0	4.0	061_smiling	0.0		254.83822149749722	
39.0	229.5987520646995	pulse	1.0	t		40.0	male	black	2.408674890569041	smiling	061	sub-02	1.0	4.0	061_smiling	0.0		255.5381785131267	
39.0	230.29875405695202	pulse	1.0	t		40.0	male	black	2.408674890569041	smiling	061	sub-02	1.0	4.0	061_smiling	0.0		256.2381805053792	
39.0	230.9987225431305	pulse	1.0	t		40.0	male	black	2.408674890569041	smiling	061	sub-02	1.0	4.0	061_smiling	0.0		256.9381489915577	
39.0	231.69871789453828	pulse	1.0	t		40.0	male	black	2.408674890569041	smiling	061	sub-02	1.0	4.0	061_smiling	0.0		257.63814434296546	
40.0	232.256952359794	fix	0.0		720													258.1963788082212	5.999905820759523
40.0	232.3987313573416	pulse	0.0	t														258.3381578057688	
40.0	233.0987058806495	pulse	0.0	t														259.0381323290767	
40.0	233.79868674294448	pulse	0.0	t														259.73811319137167	
40.0	234.49867092566092	pulse	0.0	t														260.4380973740881	
40.0	235.19869223673413	pulse	0.0	t														261.1381186851613	
40.0	235.89866253404944	pulse	0.0	t														261.8380889824766	
40.0	236.59866060216882	pulse	0.0	t														262.538087050596	
40.0	237.29864478488525	pulse	0.0	t														263.23807123331244	
40.0	237.99863349545012	pulse	0.0	t														263.9380599438773	
