trial_nr	onset	event_type	phase	response	nr_frames	face_age	face_sex	face_eth	attractiveness	expression	face_id	sub_id	ses	run	trial_type	catch	rating_type	onset_abs	duration
-1.0	0.05961079299368066	fix	0.0		713													17.080688160488535	5.957845265010292
-1.0	0.7010893811748247	pulse	0.0	t														17.72216674866968	
-1.0	1.4010658367769793	pulse	0.0	t														18.422143204271833	
-1.0	2.1010422923795886	pulse	0.0	t														19.122119659874443	
-1.0	2.8009942980302185	pulse	0.0	t														19.822071665525073	
-1.0	3.5009900721124723	pulse	0.0	t														20.522067439607326	
-1.0	4.2009623017970625	pulse	0.0	t														21.222039669291917	
-1.0	4.900936946291949	pulse	0.0	t														21.922014313786804	
-1.0	5.60091642040652	pulse	0.0	t														22.621993787901374	
0.0	6.017456058003972	face	0.0		144	24.0	female	east_asian	4.409868682849185	smiling	030	sub-07	1.0	3.0	030_smiling	0.0		23.038533425498827	1.2333026451224214
0.0	6.300906761166516	pulse	0.0	t		24.0	female	east_asian	4.409868682849185	smiling	030	sub-07	1.0	3.0	030_smiling	0.0		23.32198412866137	
0.0	7.000883518619958	pulse	0.0	t		24.0	female	east_asian	4.409868682849185	smiling	030	sub-07	1.0	3.0	030_smiling	0.0		24.02196088611481	
0.0	7.250758703126394	fix	1.0		445	24.0	female	east_asian	4.409868682849185	smiling	030	sub-07	1.0	3.0	030_smiling	0.0		24.271836070621248	3.7581739810257204
0.0	7.700858464965677	pulse	1.0	t		24.0	female	east_asian	4.409868682849185	smiling	030	sub-07	1.0	3.0	030_smiling	0.0		24.72193583246053	
0.0	8.400834015014425	pulse	1.0	t		24.0	female	east_asian	4.409868682849185	smiling	030	sub-07	1.0	3.0	030_smiling	0.0		25.42191138250928	
0.0	9.100808961360144	pulse	1.0	t		24.0	female	east_asian	4.409868682849185	smiling	030	sub-07	1.0	3.0	030_smiling	0.0		26.121886328855	
0.0	9.800817111344259	pulse	1.0	t		24.0	female	east_asian	4.409868682849185	smiling	030	sub-07	1.0	3.0	030_smiling	0.0		26.821894478839113	
0.0	10.50076066515976	pulse	1.0	t		24.0	female	east_asian	4.409868682849185	smiling	030	sub-07	1.0	3.0	030_smiling	0.0		27.521838032654614	
1.0	11.008932684152114	face	0.0		146	28.0	male	white	3.9076800636689217	smiling	033	sub-07	1.0	3.0	033_smiling	0.0		28.03001005164697	1.2416590952311708
1.0	11.200735007802905	pulse	0.0	t		28.0	male	white	3.9076800636689217	smiling	033	sub-07	1.0	3.0	033_smiling	0.0		28.22181237529776	
1.0	11.90071719857906	pulse	0.0	t		28.0	male	white	3.9076800636689217	smiling	033	sub-07	1.0	3.0	033_smiling	0.0		28.921794566073913	
1.0	12.250591779383285	fix	1.0		445	28.0	male	white	3.9076800636689217	smiling	033	sub-07	1.0	3.0	033_smiling	0.0		29.27166914687814	3.758197525423384
1.0	12.600742554084263	pulse	1.0	t		28.0	male	white	3.9076800636689217	smiling	033	sub-07	1.0	3.0	033_smiling	0.0		29.621819921579117	
1.0	13.300652904262279	pulse	1.0	t		28.0	male	white	3.9076800636689217	smiling	033	sub-07	1.0	3.0	033_smiling	0.0		30.321730271757133	
1.0	14.000648376493245	pulse	1.0	t		28.0	male	white	3.9076800636689217	smiling	033	sub-07	1.0	3.0	033_smiling	0.0		31.0217257439881	
1.0	14.701162429178567	pulse	1.0	t		28.0	male	white	3.9076800636689217	smiling	033	sub-07	1.0	3.0	033_smiling	0.0		31.72223979667342	
1.0	15.400600985846268	pulse	1.0	t		28.0	male	white	3.9076800636689217	smiling	033	sub-07	1.0	3.0	033_smiling	0.0		32.42167835334112	
2.0	16.00878930480667	face	0.0		146	24.0	female	east_asian	2.9076800636689217	smiling	034	sub-07	1.0	3.0	034_smiling	1.0	attractiveness	33.02986667230152	1.2416518508007357
2.0	16.100581063663867	pulse	0.0	t		24.0	female	east_asian	2.9076800636689217	smiling	034	sub-07	1.0	3.0	034_smiling	1.0	attractiveness	33.12165843115872	
2.0	16.800558122968596	pulse	0.0	t		24.0	female	east_asian	2.9076800636689217	smiling	034	sub-07	1.0	3.0	034_smiling	1.0	attractiveness	33.82163549046345	
2.0	17.250441155607405	fix	1.0		177	24.0	female	east_asian	2.9076800636689217	smiling	034	sub-07	1.0	3.0	034_smiling	1.0	attractiveness	34.27151852310226	1.5082972872628488
2.0	17.500535484124157	pulse	1.0	t		24.0	female	east_asian	2.9076800636689217	smiling	034	sub-07	1.0	3.0	034_smiling	1.0	attractiveness	34.52161285161901	
2.0	18.200541521149262	pulse	1.0	t		24.0	female	east_asian	2.9076800636689217	smiling	034	sub-07	1.0	3.0	034_smiling	1.0	attractiveness	35.221618888644116	
2.0	18.758738442870253	rating	2.0		293	24.0	female	east_asian	2.9076800636689217	smiling	034	sub-07	1.0	3.0	034_smiling	1.0	attractiveness	35.77981581036511	2.4915493723005966
2.0	18.90048386756007	pulse	2.0	t		24.0	female	east_asian	2.9076800636689217	smiling	034	sub-07	1.0	3.0	034_smiling	1.0	attractiveness	35.921561235054924	
2.0	19.60046062501351	pulse	2.0	t		24.0	female	east_asian	2.9076800636689217	smiling	034	sub-07	1.0	3.0	034_smiling	1.0	attractiveness	36.621537992508365	
2.0	20.236900410216094	response	2.0	y		24.0	female	east_asian	2.9076800636689217	smiling	034	sub-07	1.0	3.0	034_smiling	1.0	attractiveness	37.25797777771095	
2.0	20.300421686201844	pulse	2.0	t		24.0	female	east_asian	2.9076800636689217	smiling	034	sub-07	1.0	3.0	034_smiling	1.0	attractiveness	37.3214990536967	
2.0	21.00041263066396	pulse	2.0	t		24.0	female	east_asian	2.9076800636689217	smiling	034	sub-07	1.0	3.0	034_smiling	1.0	attractiveness	38.02148999815881	
2.0	21.25028781517085	fix	3.0		444	24.0	female	east_asian	2.9076800636689217	smiling	034	sub-07	1.0	3.0	034_smiling	1.0	attractiveness	38.271365182665704	3.758203864299503
2.0	21.700391199225123	pulse	3.0	t		24.0	female	east_asian	2.9076800636689217	smiling	034	sub-07	1.0	3.0	034_smiling	1.0	attractiveness	38.72146856671998	
2.0	22.400373993703397	pulse	3.0	t		24.0	female	east_asian	2.9076800636689217	smiling	034	sub-07	1.0	3.0	034_smiling	1.0	attractiveness	39.42145136119825	
2.0	23.100348638198284	pulse	3.0	t		24.0	female	east_asian	2.9076800636689217	smiling	034	sub-07	1.0	3.0	034_smiling	1.0	attractiveness	40.12142600569314	
2.0	23.800317849370458	pulse	3.0	t		24.0	female	east_asian	2.9076800636689217	smiling	034	sub-07	1.0	3.0	034_smiling	1.0	attractiveness	40.82139521686531	
2.0	24.500305775320157	pulse	3.0	t		24.0	female	east_asian	2.9076800636689217	smiling	034	sub-07	1.0	3.0	034_smiling	1.0	attractiveness	41.52138314281501	
3.0	25.008491679470353	face	0.0		146	32.0	male	white	2.389176283326701	neutral	092	sub-07	1.0	3.0	092_neutral	0.0		42.02956904696521	1.2416464174784778
3.0	25.20027770315346	pulse	0.0	t		32.0	male	white	2.389176283326701	neutral	092	sub-07	1.0	3.0	092_neutral	0.0		42.221355070648315	
3.0	25.900253555053496	pulse	0.0	t		32.0	male	white	2.389176283326701	neutral	092	sub-07	1.0	3.0	092_neutral	0.0		42.92133092254835	
3.0	26.25013809694883	fix	1.0		445	32.0	male	white	2.389176283326701	neutral	092	sub-07	1.0	3.0	092_neutral	0.0		43.271215464443685	3.7581908846959777
3.0	26.60024570692076	pulse	1.0	t		32.0	male	white	2.389176283326701	neutral	092	sub-07	1.0	3.0	092_neutral	0.0		43.62132307441561	
3.0	27.300206768109092	pulse	1.0	t		32.0	male	white	2.389176283326701	neutral	092	sub-07	1.0	3.0	092_neutral	0.0		44.321284135603946	
3.0	28.00018382741382	pulse	1.0	t		32.0	male	white	2.389176283326701	neutral	092	sub-07	1.0	3.0	092_neutral	0.0		45.021261194908675	
3.0	28.70016179227241	pulse	1.0	t		32.0	male	white	2.389176283326701	neutral	092	sub-07	1.0	3.0	092_neutral	0.0		45.721239159767265	
3.0	29.400150321924684	pulse	1.0	t		32.0	male	white	2.389176283326701	neutral	092	sub-07	1.0	3.0	092_neutral	0.0		46.42122768941954	
4.0	30.00832898164481	face	0.0		146	24.0	female	black	3.0955033824114606	smiling	099	sub-07	1.0	3.0	099_smiling	0.0		47.02940634913966	1.2416418897096264
4.0	30.100193486654007	pulse	0.0	t		24.0	female	black	3.0955033824114606	smiling	099	sub-07	1.0	3.0	099_smiling	0.0		47.12127085414886	
4.0	30.800079085028756	pulse	0.0	t		24.0	female	black	3.0955033824114606	smiling	099	sub-07	1.0	3.0	099_smiling	0.0		47.82115645252361	
4.0	31.249970871354435	fix	1.0		445	24.0	female	black	3.0955033824114606	smiling	099	sub-07	1.0	3.0	099_smiling	0.0		48.27104823884929	3.7581923939519584
4.0	31.500075462813584	pulse	1.0	t		24.0	female	black	3.0955033824114606	smiling	099	sub-07	1.0	3.0	099_smiling	0.0		48.52115283030844	
4.0	32.20004074991948	pulse	1.0	t		24.0	female	black	3.0955033824114606	smiling	099	sub-07	1.0	3.0	099_smiling	0.0		49.221118117414335	
4.0	32.90001780922421	pulse	1.0	t		24.0	female	black	3.0955033824114606	smiling	099	sub-07	1.0	3.0	099_smiling	0.0		49.921095176719064	
4.0	33.5999957740828	pulse	1.0	t		24.0	female	black	3.0955033824114606	smiling	099	sub-07	1.0	3.0	099_smiling	0.0		50.621073141577654	
4.0	34.29997917226365	pulse	1.0	t		24.0	female	black	3.0955033824114606	smiling	099	sub-07	1.0	3.0	099_smiling	0.0		51.3210565397585	
5.0	35.00816326530639	face	0.0		147	27.0	male	black	3.5523278949462798	neutral	042	sub-07	1.0	3.0	042_neutral	0.0		52.02924063280125	1.2416304193620817
5.0	35.0017525483795	pulse	0.0	t		27.0	male	black	3.5523278949462798	neutral	042	sub-07	1.0	3.0	042_neutral	0.0		52.022829915874354	
5.0	35.699933290873105	pulse	0.0	t		27.0	male	black	3.5523278949462798	neutral	042	sub-07	1.0	3.0	042_neutral	0.0		52.72101065836796	
5.0	36.249793684668475	fix	1.0		443	27.0	male	black	3.5523278949462798	neutral	042	sub-07	1.0	3.0	042_neutral	0.0		53.27087105216333	3.7582053735559384
5.0	36.39990370945043	pulse	1.0	t		27.0	male	black	3.5523278949462798	neutral	042	sub-07	1.0	3.0	042_neutral	0.0		53.42098107694528	
5.0	37.09988771133385	pulse	1.0	t		27.0	male	black	3.5523278949462798	neutral	042	sub-07	1.0	3.0	042_neutral	0.0		54.120965078828704	
5.0	37.79986024286973	pulse	1.0	t		27.0	male	black	3.5523278949462798	neutral	042	sub-07	1.0	3.0	042_neutral	0.0		54.82093761036458	
5.0	38.499832774405604	pulse	1.0	t		27.0	male	black	3.5523278949462798	neutral	042	sub-07	1.0	3.0	042_neutral	0.0		55.52091014190046	
5.0	39.199817983694174	pulse	1.0	t		27.0	male	black	3.5523278949462798	neutral	042	sub-07	1.0	3.0	042_neutral	0.0		56.22089535118903	
5.0	39.89979926891647	pulse	1.0	t		27.0	male	black	3.5523278949462798	neutral	042	sub-07	1.0	3.0	042_neutral	0.0		56.92087663641132	
6.0	40.007999058224414	face	0.0		147	40.0	female	west_asian	1.5777954635893354	neutral	038	sub-07	1.0	3.0	038_neutral	0.0		57.02907642571927	1.2416440026681812
6.0	40.59977663007248	pulse	0.0	t		40.0	female	west_asian	1.5777954635893354	neutral	038	sub-07	1.0	3.0	038_neutral	0.0		57.62085399756734	
6.0	41.249643060892595	fix	1.0		445	40.0	female	west_asian	1.5777954635893354	neutral	038	sub-07	1.0	3.0	038_neutral	0.0		58.27072042838745	3.7665259033656184
6.0	41.29974855790579	pulse	1.0	t		40.0	female	west_asian	1.5777954635893354	neutral	038	sub-07	1.0	3.0	038_neutral	0.0		58.32082592540064	
6.0	41.99973014497937	pulse	1.0	t		40.0	female	west_asian	1.5777954635893354	neutral	038	sub-07	1.0	3.0	038_neutral	0.0		59.02080751247422	
6.0	42.69971475056536	pulse	1.0	t		40.0	female	west_asian	1.5777954635893354	neutral	038	sub-07	1.0	3.0	038_neutral	0.0		59.72079211806022	
6.0	43.399688791357676	pulse	1.0	t		40.0	female	west_asian	1.5777954635893354	neutral	038	sub-07	1.0	3.0	038_neutral	0.0		60.42076615885253	
6.0	44.099651663653276	pulse	1.0	t		40.0	female	west_asian	1.5777954635893354	neutral	038	sub-07	1.0	3.0	038_neutral	0.0		61.12072903114813	
6.0	44.79963264702428	pulse	1.0	t		40.0	female	west_asian	1.5777954635893354	neutral	038	sub-07	1.0	3.0	038_neutral	0.0		61.820710014519136	
7.0	45.01616896425821	face	0.0		145	24.0	male	white	3.1153999204138483	smiling	012	sub-07	1.0	3.0	012_smiling	0.0		62.03724633175307	1.2333104932549759
7.0	45.49960819707303	pulse	0.0	t		24.0	male	white	3.1153999204138483	smiling	012	sub-07	1.0	3.0	012_smiling	0.0		62.520685564567884	
7.0	46.19956714530235	pulse	0.0	t		24.0	male	white	3.1153999204138483	smiling	012	sub-07	1.0	3.0	012_smiling	0.0		63.22064451279721	
7.0	46.24947945751319	fix	1.0		445	24.0	male	white	3.1153999204138483	smiling	012	sub-07	1.0	3.0	012_smiling	0.0		63.27055682500804	3.758185149521978
7.0	46.89956473049233	pulse	1.0	t		24.0	male	white	3.1153999204138483	smiling	012	sub-07	1.0	3.0	012_smiling	0.0		63.920642097987184	
7.0	47.59952518797809	pulse	1.0	t		24.0	male	white	3.1153999204138483	smiling	012	sub-07	1.0	3.0	012_smiling	0.0		64.62060255547294	
7.0	48.299520056506935	pulse	1.0	t		24.0	male	white	3.1153999204138483	smiling	012	sub-07	1.0	3.0	012_smiling	0.0		65.32059742400179	
7.0	48.99949741766295	pulse	1.0	t		24.0	male	white	3.1153999204138483	smiling	012	sub-07	1.0	3.0	012_smiling	0.0		66.0205747851578	
7.0	49.69947326956253	pulse	1.0	t		24.0	male	white	3.1153999204138483	smiling	012	sub-07	1.0	3.0	012_smiling	0.0		66.72055063705739	
8.0	50.00766460703517	face	0.0		146	25.0	female	black	3.858336649423	neutral	126	sub-07	1.0	3.0	126_neutral	0.0		67.02874197453002	1.2416322304693495
8.0	50.39945183812324	pulse	0.0	t		25.0	female	black	3.858336649423	neutral	126	sub-07	1.0	3.0	126_neutral	0.0		67.4205292056181	
8.0	51.0994270863207	pulse	0.0	t		25.0	female	black	3.858336649423	neutral	126	sub-07	1.0	3.0	126_neutral	0.0		68.12050445381556	
8.0	51.24929683750452	fix	1.0		445	25.0	female	black	3.858336649423	neutral	126	sub-07	1.0	3.0	126_neutral	0.0		68.27037420499937	3.766527110770312
8.0	51.799398108600144	pulse	1.0	t		25.0	female	black	3.858336649423	neutral	126	sub-07	1.0	3.0	126_neutral	0.0		68.820475476095	
8.0	52.49937094198731	pulse	1.0	t		25.0	female	black	3.858336649423	neutral	126	sub-07	1.0	3.0	126_neutral	0.0		69.52044830948216	
8.0	53.19935675497845	pulse	1.0	t		25.0	female	black	3.858336649423	neutral	126	sub-07	1.0	3.0	126_neutral	0.0		70.2204341224733	
8.0	53.89934226611831	pulse	1.0	t		25.0	female	black	3.858336649423	neutral	126	sub-07	1.0	3.0	126_neutral	0.0		70.92041963361316	
8.0	54.599300912496346	pulse	1.0	t		25.0	female	black	3.858336649423	neutral	126	sub-07	1.0	3.0	126_neutral	0.0		71.6203782799912	
9.0	55.01582394827483	face	0.0		145	26.0	female	white	4.854755272582572	neutral	027	sub-07	1.0	3.0	027_neutral	0.0		72.03690131576968	1.2333243784128172
9.0	55.29929547917391	pulse	0.0	t		26.0	female	white	4.854755272582572	neutral	027	sub-07	1.0	3.0	027_neutral	0.0		72.32037284666876	
9.0	55.99926559589994	pulse	0.0	t		26.0	female	white	4.854755272582572	neutral	027	sub-07	1.0	3.0	027_neutral	0.0		73.0203429633948	
9.0	56.249148326687646	fix	1.0		446	26.0	female	white	4.854755272582572	neutral	027	sub-07	1.0	3.0	027_neutral	0.0		73.2702256941825	3.774865449803656
9.0	56.69924416446065	pulse	1.0	t		26.0	female	white	4.854755272582572	neutral	027	sub-07	1.0	3.0	027_neutral	0.0		73.7203215319555	
9.0	57.3992287700471	pulse	1.0	t		26.0	female	white	4.854755272582572	neutral	027	sub-07	1.0	3.0	027_neutral	0.0		74.42030613754196	
9.0	58.09920130158298	pulse	1.0	t		26.0	female	white	4.854755272582572	neutral	027	sub-07	1.0	3.0	027_neutral	0.0		75.12027866907783	
9.0	58.79917353126757	pulse	1.0	t		26.0	female	white	4.854755272582572	neutral	027	sub-07	1.0	3.0	027_neutral	0.0		75.82025089876242	
9.0	59.49918198310252	pulse	1.0	t		26.0	female	white	4.854755272582572	neutral	027	sub-07	1.0	3.0	027_neutral	0.0		76.52025935059737	
10.0	60.0240137764913	face	0.0		145	20.0	male	black	2.609629924393156	smiling	043	sub-07	1.0	3.0	043_smiling	1.0	trustworthiness	77.04509114398616	1.2332869488573124
10.0	60.19913459245572	pulse	0.0	t		20.0	male	black	2.609629924393156	smiling	043	sub-07	1.0	3.0	043_smiling	1.0	trustworthiness	77.22021195995057	
10.0	60.899107425842885	pulse	0.0	t		20.0	male	black	2.609629924393156	smiling	043	sub-07	1.0	3.0	043_smiling	1.0	trustworthiness	77.92018479333774	
10.0	61.257300725348614	fix	1.0		177	20.0	male	black	2.609629924393156	smiling	043	sub-07	1.0	3.0	043_smiling	1.0	trustworthiness	78.27837809284347	1.499955929717089
10.0	61.59908569255276	pulse	1.0	t		20.0	male	black	2.609629924393156	smiling	043	sub-07	1.0	3.0	043_smiling	1.0	trustworthiness	78.62016306004762	
10.0	62.29905973334462	pulse	1.0	t		20.0	male	black	2.609629924393156	smiling	043	sub-07	1.0	3.0	043_smiling	1.0	trustworthiness	79.32013710083947	
10.0	62.7572566550657	rating	2.0		294	20.0	male	black	2.609629924393156	smiling	043	sub-07	1.0	3.0	043_smiling	1.0	trustworthiness	79.77833402256056	2.4999194057154455
10.0	62.999031963029665	pulse	2.0	t		20.0	male	black	2.609629924393156	smiling	043	sub-07	1.0	3.0	043_smiling	1.0	trustworthiness	80.02010933052452	
10.0	63.69901596491309	pulse	2.0	t		20.0	male	black	2.609629924393156	smiling	043	sub-07	1.0	3.0	043_smiling	1.0	trustworthiness	80.72009333240794	
10.0	64.27398042192772	response	2.0	g		20.0	male	black	2.609629924393156	smiling	043	sub-07	1.0	3.0	043_smiling	1.0	trustworthiness	81.29505778942257	
10.0	64.39897008352227	pulse	2.0	t		20.0	male	black	2.609629924393156	smiling	043	sub-07	1.0	3.0	043_smiling	1.0	trustworthiness	81.42004745101713	
10.0	65.0989561983647	pulse	2.0	t		20.0	male	black	2.609629924393156	smiling	043	sub-07	1.0	3.0	043_smiling	1.0	trustworthiness	82.12003356585956	
10.0	65.25717606078115	fix	3.0		444	20.0	male	black	2.609629924393156	smiling	043	sub-07	1.0	3.0	043_smiling	1.0	trustworthiness	82.278253428276	3.758184847670691
10.0	65.79894563357084	pulse	3.0	t		20.0	male	black	2.609629924393156	smiling	043	sub-07	1.0	3.0	043_smiling	1.0	trustworthiness	82.82002300106569	
10.0	66.49892269287557	pulse	3.0	t		20.0	male	black	2.609629924393156	smiling	043	sub-07	1.0	3.0	043_smiling	1.0	trustworthiness	83.52000006037042	
10.0	67.19889009294002	pulse	3.0	t		20.0	male	black	2.609629924393156	smiling	043	sub-07	1.0	3.0	043_smiling	1.0	trustworthiness	84.21996746043487	
10.0	67.89887258556746	pulse	3.0	t		20.0	male	black	2.609629924393156	smiling	043	sub-07	1.0	3.0	043_smiling	1.0	trustworthiness	84.91994995306231	
10.0	68.59885658745088	pulse	3.0	t		20.0	male	black	2.609629924393156	smiling	043	sub-07	1.0	3.0	043_smiling	1.0	trustworthiness	85.61993395494574	
11.0	69.01536090845184	face	0.0		146	31.0	female	west_asian	2.364902506963788	neutral	006	sub-07	1.0	3.0	006_neutral	0.0		86.0364382759467	1.2416666415124382
11.0	69.29879893386169	pulse	0.0	t		31.0	female	west_asian	2.364902506963788	neutral	006	sub-07	1.0	3.0	006_neutral	0.0		86.31987630135654	
11.0	69.99880285792779	pulse	0.0	t		31.0	female	west_asian	2.364902506963788	neutral	006	sub-07	1.0	3.0	006_neutral	0.0		87.01988022542264	
11.0	70.25702754996428	fix	1.0		445	31.0	female	west_asian	2.364902506963788	neutral	006	sub-07	1.0	3.0	006_neutral	0.0		87.27810491745913	3.758229521656176
11.0	70.6987859542578	pulse	1.0	t		31.0	female	west_asian	2.364902506963788	neutral	006	sub-07	1.0	3.0	006_neutral	0.0		87.71986332175265	
11.0	71.39875365617354	pulse	1.0	t		31.0	female	west_asian	2.364902506963788	neutral	006	sub-07	1.0	3.0	006_neutral	0.0		88.4198310236684	
11.0	72.09873705435439	pulse	1.0	t		31.0	female	west_asian	2.364902506963788	neutral	006	sub-07	1.0	3.0	006_neutral	0.0		89.11981442184924	
11.0	72.79874067656965	pulse	1.0	t		31.0	female	west_asian	2.364902506963788	neutral	006	sub-07	1.0	3.0	006_neutral	0.0		89.8198180440645	
11.0	73.49869660628656	pulse	1.0	t		31.0	female	west_asian	2.364902506963788	neutral	006	sub-07	1.0	3.0	006_neutral	0.0		90.51977397378141	
12.0	74.01525707162045	face	0.0		146	24.0	female	black	3.0955033824114606	neutral	099	sub-07	1.0	3.0	099_neutral	0.0		91.03633443911531	1.2416026490463992
12.0	74.19866581745873	pulse	0.0	t		24.0	female	black	3.0955033824114606	neutral	099	sub-07	1.0	3.0	099_neutral	0.0		91.21974318495359	
12.0	74.89864378231732	pulse	0.0	t		24.0	female	black	3.0955033824114606	neutral	099	sub-07	1.0	3.0	099_neutral	0.0		91.91972114981218	
12.0	75.25685972066685	fix	1.0		445	24.0	female	black	3.0955033824114606	neutral	099	sub-07	1.0	3.0	099_neutral	0.0		92.2779370881617	3.76653405334946
12.0	75.59862355828318	pulse	1.0	t		24.0	female	black	3.0955033824114606	neutral	099	sub-07	1.0	3.0	099_neutral	0.0		92.61970092577803	
12.0	76.29859880648019	pulse	1.0	t		24.0	female	black	3.0955033824114606	neutral	099	sub-07	1.0	3.0	099_neutral	0.0		93.31967617397504	
12.0	76.99857586578491	pulse	1.0	t		24.0	female	black	3.0955033824114606	neutral	099	sub-07	1.0	3.0	099_neutral	0.0		94.01965323327977	
12.0	77.69855232138707	pulse	1.0	t		24.0	female	black	3.0955033824114606	neutral	099	sub-07	1.0	3.0	099_neutral	0.0		94.71962968888192	
12.0	78.39852726773324	pulse	1.0	t		24.0	female	black	3.0955033824114606	neutral	099	sub-07	1.0	3.0	099_neutral	0.0		95.4196046352281	
13.0	79.02339377401631	face	0.0		145	22.0	female	white	4.614007162753682	smiling	009	sub-07	1.0	3.0	009_smiling	0.0		96.04447114151117	1.2332842321961834
13.0	79.09851187331924	pulse	0.0	t		22.0	female	white	4.614007162753682	smiling	009	sub-07	1.0	3.0	009_smiling	0.0		96.1195892408141	
13.0	79.79848681966541	pulse	0.0	t		22.0	female	white	4.614007162753682	smiling	009	sub-07	1.0	3.0	009_smiling	0.0		96.81956418716027	
13.0	80.2566780062125	fix	1.0		444	22.0	female	white	4.614007162753682	smiling	009	sub-07	1.0	3.0	009_smiling	0.0		97.27775537370735	3.766544919993976
13.0	80.49849466779779	pulse	1.0	t		22.0	female	white	4.614007162753682	smiling	009	sub-07	1.0	3.0	009_smiling	0.0		97.51957203529264	
13.0	81.19842071424046	pulse	1.0	t		22.0	female	white	4.614007162753682	smiling	009	sub-07	1.0	3.0	009_smiling	0.0		98.21949808173531	
13.0	81.89842856237328	pulse	1.0	t		22.0	female	white	4.614007162753682	smiling	009	sub-07	1.0	3.0	009_smiling	0.0		98.91950592986814	
13.0	82.59839264207403	pulse	1.0	t		22.0	female	white	4.614007162753682	smiling	009	sub-07	1.0	3.0	009_smiling	0.0		99.61947000956889	
13.0	83.29836306065135	pulse	1.0	t		22.0	female	white	4.614007162753682	smiling	009	sub-07	1.0	3.0	009_smiling	0.0		100.31944042814621	
13.0	83.99835128845234	pulse	1.0	t		22.0	female	white	4.614007162753682	smiling	009	sub-07	1.0	3.0	009_smiling	0.0		101.0194286559472	
14.0	84.02322292620647	face	0.0		146	31.0	female	east_asian	3.395941106247513	neutral	087	sub-07	1.0	3.0	087_neutral	0.0		101.04430029370133	1.233308380296421
14.0	84.69833981810461	pulse	0.0	t		31.0	female	east_asian	3.395941106247513	neutral	087	sub-07	1.0	3.0	087_neutral	0.0		101.71941718559947	
14.0	85.2565313065029	fix	1.0		443	31.0	female	east_asian	3.395941106247513	neutral	087	sub-07	1.0	3.0	087_neutral	0.0		102.27760867399775	3.766527412621599
14.0	85.39829755892924	pulse	1.0	t		31.0	female	east_asian	3.395941106247513	neutral	087	sub-07	1.0	3.0	087_neutral	0.0		102.4193749264241	
14.0	86.09827763674639	pulse	1.0	t		31.0	female	east_asian	3.395941106247513	neutral	087	sub-07	1.0	3.0	087_neutral	0.0		103.11935500424124	
14.0	86.79825107383613	pulse	1.0	t		31.0	female	east_asian	3.395941106247513	neutral	087	sub-07	1.0	3.0	087_neutral	0.0		103.81932844133098	
14.0	87.49822752943828	pulse	1.0	t		31.0	female	east_asian	3.395941106247513	neutral	087	sub-07	1.0	3.0	087_neutral	0.0		104.51930489693314	
14.0	88.19821213502428	pulse	1.0	t		31.0	female	east_asian	3.395941106247513	neutral	087	sub-07	1.0	3.0	087_neutral	0.0		105.21928950251913	
14.0	88.89819372209786	pulse	1.0	t		31.0	female	east_asian	3.395941106247513	neutral	087	sub-07	1.0	3.0	087_neutral	0.0		105.91927108959271	
15.0	89.02305871912449	face	0.0		146	20.0	female	white	3.9502586549940313	neutral	091	sub-07	1.0	3.0	091_neutral	1.0	attractiveness	106.04413608661935	1.2333117006601242
15.0	89.59816655548502	pulse	0.0	t		20.0	female	white	3.9502586549940313	neutral	091	sub-07	1.0	3.0	091_neutral	1.0	attractiveness	106.61924392297988	
15.0	90.25637041978462	fix	1.0		176	20.0	female	white	3.9502586549940313	neutral	091	sub-07	1.0	3.0	091_neutral	1.0	attractiveness	107.27744778727947	1.4999465723280991
15.0	90.29814361478975	pulse	1.0	t		20.0	female	white	3.9502586549940313	neutral	091	sub-07	1.0	3.0	091_neutral	1.0	attractiveness	107.3192209822846	
15.0	90.99811705187949	pulse	1.0	t		20.0	female	white	3.9502586549940313	neutral	091	sub-07	1.0	3.0	091_neutral	1.0	attractiveness	108.01919441937434	
15.0	91.69809501673808	pulse	1.0	t		20.0	female	white	3.9502586549940313	neutral	091	sub-07	1.0	3.0	091_neutral	1.0	attractiveness	108.71917238423293	
15.0	91.75631699211272	rating	2.0		295	20.0	female	white	3.9502586549940313	neutral	091	sub-07	1.0	3.0	091_neutral	1.0	attractiveness	108.77739435960757	2.4999185001615842
15.0	92.3980859612002	pulse	2.0	t		20.0	female	white	3.9502586549940313	neutral	091	sub-07	1.0	3.0	091_neutral	1.0	attractiveness	109.41916332869505	
15.0	93.09805517237237	pulse	2.0	t		20.0	female	white	3.9502586549940313	neutral	091	sub-07	1.0	3.0	091_neutral	1.0	attractiveness	110.11913253986722	
15.0	93.23972302128959	response	2.0	y		20.0	female	white	3.9502586549940313	neutral	091	sub-07	1.0	3.0	091_neutral	1.0	attractiveness	110.26080038878445	
15.0	93.7980104983867	pulse	2.0	t		20.0	female	white	3.9502586549940313	neutral	091	sub-07	1.0	3.0	091_neutral	1.0	attractiveness	110.81908786588156	
15.0	94.2562354922743	fix	3.0		444	20.0	female	white	3.9502586549940313	neutral	091	sub-07	1.0	3.0	091_neutral	1.0	attractiveness	111.27731285976915	3.766513829315045
15.0	94.49799872618814	pulse	3.0	t		20.0	female	white	3.9502586549940313	neutral	091	sub-07	1.0	3.0	091_neutral	1.0	attractiveness	111.519076093683	
15.0	95.19796310774018	pulse	3.0	t		20.0	female	white	3.9502586549940313	neutral	091	sub-07	1.0	3.0	091_neutral	1.0	attractiveness	112.21904047523503	
15.0	95.89796491884772	pulse	3.0	t		20.0	female	white	3.9502586549940313	neutral	091	sub-07	1.0	3.0	091_neutral	1.0	attractiveness	112.91904228634257	
15.0	96.5979374503836	pulse	3.0	t		20.0	female	white	3.9502586549940313	neutral	091	sub-07	1.0	3.0	091_neutral	1.0	attractiveness	113.61901481787845	
15.0	97.2979093782169	pulse	3.0	t		20.0	female	white	3.9502586549940313	neutral	091	sub-07	1.0	3.0	091_neutral	1.0	attractiveness	114.31898674571175	
15.0	97.99786228942139	pulse	3.0	t		20.0	female	white	3.9502586549940313	neutral	091	sub-07	1.0	3.0	091_neutral	1.0	attractiveness	115.01893965691625	
16.0	98.02274932158934	face	0.0		146	40.0	male	white	1.868682849184242	neutral	172	sub-07	1.0	3.0	172_neutral	0.0		115.0438266890842	1.233321058049114
16.0	98.69786893014862	pulse	0.0	t		40.0	male	white	1.868682849184242	neutral	172	sub-07	1.0	3.0	172_neutral	0.0		115.71894629764347	
16.0	99.25607037963846	fix	1.0		443	40.0	male	white	1.868682849184242	neutral	172	sub-07	1.0	3.0	172_neutral	0.0		116.27714774713331	3.75817971619972
16.0	99.39783240614724	pulse	1.0	t		40.0	male	white	1.868682849184242	neutral	172	sub-07	1.0	3.0	172_neutral	0.0		116.4189097736421	
16.0	100.0978405561309	pulse	1.0	t		40.0	male	white	1.868682849184242	neutral	172	sub-07	1.0	3.0	172_neutral	0.0		117.11891792362576	
16.0	100.79779256178153	pulse	1.0	t		40.0	male	white	1.868682849184242	neutral	172	sub-07	1.0	3.0	172_neutral	0.0		117.81886992927639	
16.0	101.49780765434434	pulse	1.0	t		40.0	male	white	1.868682849184242	neutral	172	sub-07	1.0	3.0	172_neutral	0.0		118.5188850218392	
16.0	102.19775151001113	pulse	1.0	t		40.0	male	white	1.868682849184242	neutral	172	sub-07	1.0	3.0	172_neutral	0.0		119.21882887750598	
16.0	102.89772524895216	pulse	1.0	t		40.0	male	white	1.868682849184242	neutral	172	sub-07	1.0	3.0	172_neutral	0.0		119.91880261644701	
17.0	103.01425009583818	face	0.0		147	26.0	male	white	2.7966573816155993	smiling	117	sub-07	1.0	3.0	117_smiling	1.0	dominance	120.03532746333303	1.241650039693468
17.0	103.59771045824073	pulse	0.0	t		26.0	male	white	2.7966573816155993	smiling	117	sub-07	1.0	3.0	117_smiling	1.0	dominance	120.61878782573558	
17.0	104.25590013553165	fix	1.0		176	26.0	male	white	2.7966573816155993	smiling	117	sub-07	1.0	3.0	117_smiling	1.0	dominance	121.2769775030265	1.4999414408566736
17.0	104.29768027311502	pulse	1.0	t		26.0	male	white	2.7966573816155993	smiling	117	sub-07	1.0	3.0	117_smiling	1.0	dominance	121.31875764060987	
17.0	104.99765038984106	pulse	1.0	t		26.0	male	white	2.7966573816155993	smiling	117	sub-07	1.0	3.0	117_smiling	1.0	dominance	122.01872775733591	
17.0	105.69763590098091	pulse	1.0	t		26.0	male	white	2.7966573816155993	smiling	117	sub-07	1.0	3.0	117_smiling	1.0	dominance	122.71871326847577	
17.0	105.75584157638832	rating	2.0		295	26.0	male	white	2.7966573816155993	smiling	117	sub-07	1.0	3.0	117_smiling	1.0	dominance	122.77691894388317	2.499935705682674
17.0	106.39761326213693	pulse	2.0	t		26.0	male	white	2.7966573816155993	smiling	117	sub-07	1.0	3.0	117_smiling	1.0	dominance	123.41869062963178	
17.0	107.09758971773908	pulse	2.0	t		26.0	male	white	2.7966573816155993	smiling	117	sub-07	1.0	3.0	117_smiling	1.0	dominance	124.11866708523394	
17.0	107.3392421722424	response	2.0	w		26.0	male	white	2.7966573816155993	smiling	117	sub-07	1.0	3.0	117_smiling	1.0	dominance	124.36031953973725	
17.0	107.79755319373726	pulse	2.0	t		26.0	male	white	2.7966573816155993	smiling	117	sub-07	1.0	3.0	117_smiling	1.0	dominance	124.81863056123211	
17.0	108.255777282071	fix	3.0		444	26.0	male	white	2.7966573816155993	smiling	117	sub-07	1.0	3.0	117_smiling	1.0	dominance	125.27685464956585	3.766505679331658
17.0	108.49753689376985	pulse	3.0	t		26.0	male	white	2.7966573816155993	smiling	117	sub-07	1.0	3.0	117_smiling	1.0	dominance	125.5186142612647	
17.0	109.19750670864414	pulse	3.0	t		26.0	male	white	2.7966573816155993	smiling	117	sub-07	1.0	3.0	117_smiling	1.0	dominance	126.218584076139	
17.0	109.89749433274301	pulse	3.0	t		26.0	male	white	2.7966573816155993	smiling	117	sub-07	1.0	3.0	117_smiling	1.0	dominance	126.91857170023786	
17.0	110.59753176229833	pulse	3.0	t		26.0	male	white	2.7966573816155993	smiling	117	sub-07	1.0	3.0	117_smiling	1.0	dominance	127.61860912979319	
17.0	111.2974351698972	pulse	3.0	t		26.0	male	white	2.7966573816155993	smiling	117	sub-07	1.0	3.0	117_smiling	1.0	dominance	128.31851253739205	
17.0	111.99740981439209	pulse	3.0	t		26.0	male	white	2.7966573816155993	smiling	117	sub-07	1.0	3.0	117_smiling	1.0	dominance	129.01848718188694	
18.0	112.02228296140265	face	0.0		146	40.0	male	white	1.868682849184242	smiling	172	sub-07	1.0	3.0	172_smiling	0.0		129.0433603288975	1.233314115469966
18.0	112.69740679587949	pulse	0.0	t		40.0	male	white	1.868682849184242	smiling	172	sub-07	1.0	3.0	172_smiling	0.0		129.71848416337434	
18.0	113.25559707687262	fix	1.0		443	40.0	male	white	1.868682849184242	smiling	172	sub-07	1.0	3.0	172_smiling	0.0		130.27667444436747	3.7665065848850645
18.0	113.39738325148164	pulse	1.0	t		40.0	male	white	1.868682849184242	smiling	172	sub-07	1.0	3.0	172_smiling	0.0		130.4184606189765	
18.0	114.09735578301752	pulse	1.0	t		40.0	male	white	1.868682849184242	smiling	172	sub-07	1.0	3.0	172_smiling	0.0		131.11843315051237	
18.0	114.79734099230609	pulse	1.0	t		40.0	male	white	1.868682849184242	smiling	172	sub-07	1.0	3.0	172_smiling	0.0		131.81841835980094	
18.0	115.49731473124712	pulse	1.0	t		40.0	male	white	1.868682849184242	smiling	172	sub-07	1.0	3.0	172_smiling	0.0		132.51839209874197	
18.0	116.1972869609317	pulse	1.0	t		40.0	male	white	1.868682849184242	smiling	172	sub-07	1.0	3.0	172_smiling	0.0		133.21836432842656	
18.0	116.8972773016917	pulse	1.0	t		40.0	male	white	1.868682849184242	smiling	172	sub-07	1.0	3.0	172_smiling	0.0		133.91835466918656	
19.0	117.02210366175768	face	0.0		146	26.0	female	white	4.854755272582572	smiling	027	sub-07	1.0	3.0	027_smiling	0.0		134.04318102925254	1.2333252839666784
19.0	117.59723564621845	pulse	0.0	t		26.0	female	white	4.854755272582572	smiling	027	sub-07	1.0	3.0	027_smiling	0.0		134.6183130137133	
19.0	118.25542894572436	fix	1.0		443	26.0	female	white	4.854755272582572	smiling	027	sub-07	1.0	3.0	027_smiling	0.0		135.27650631321922	3.758213221688493
19.0	118.29721361107704	pulse	1.0	t		26.0	female	white	4.854755272582572	smiling	027	sub-07	1.0	3.0	027_smiling	0.0		135.3182909785719	
19.0	118.99718553891034	pulse	1.0	t		26.0	female	white	4.854755272582572	smiling	027	sub-07	1.0	3.0	027_smiling	0.0		136.0182629064052	
19.0	119.69716923894248	pulse	1.0	t		26.0	female	white	4.854755272582572	smiling	027	sub-07	1.0	3.0	027_smiling	0.0		136.71824660643733	
19.0	120.39714750565236	pulse	1.0	t		26.0	female	white	4.854755272582572	smiling	027	sub-07	1.0	3.0	027_smiling	0.0		137.4182248731472	
19.0	121.0971266779161	pulse	1.0	t		26.0	female	white	4.854755272582572	smiling	027	sub-07	1.0	3.0	027_smiling	0.0		138.11820404541095	
19.0	121.79710373722037	pulse	1.0	t		26.0	female	white	4.854755272582572	smiling	027	sub-07	1.0	3.0	027_smiling	0.0		138.81818110471522	
20.0	122.01364216741285	face	0.0		146	31.0	male	west_asian	1.9538400318344609	neutral	070	sub-07	1.0	3.0	070_neutral	0.0		139.0347195349077	1.2416424934122006
20.0	122.49707596690541	pulse	0.0	t		31.0	male	west_asian	1.9538400318344609	neutral	070	sub-07	1.0	3.0	070_neutral	0.0		139.51815333440027	
20.0	123.19705332806143	pulse	0.0	t		31.0	male	west_asian	1.9538400318344609	neutral	070	sub-07	1.0	3.0	070_neutral	0.0		140.21813069555628	
20.0	123.25528466082505	fix	1.0		1186	31.0	male	west_asian	1.9538400318344609	neutral	070	sub-07	1.0	3.0	070_neutral	0.0		140.2763620283199	10.016318984331065
20.0	123.8970681187725	pulse	1.0	t		31.0	male	west_asian	1.9538400318344609	neutral	070	sub-07	1.0	3.0	070_neutral	0.0		140.91814548626735	
20.0	124.59700050409174	pulse	1.0	t		31.0	male	west_asian	1.9538400318344609	neutral	070	sub-07	1.0	3.0	070_neutral	0.0		141.6180778715866	
20.0	125.29698782633932	pulse	1.0	t		31.0	male	west_asian	1.9538400318344609	neutral	070	sub-07	1.0	3.0	070_neutral	0.0		142.31806519383417	
20.0	125.99696398009019	pulse	1.0	t		31.0	male	west_asian	1.9538400318344609	neutral	070	sub-07	1.0	3.0	070_neutral	0.0		143.01804134758504	
20.0	126.69694224680006	pulse	1.0	t		31.0	male	west_asian	1.9538400318344609	neutral	070	sub-07	1.0	3.0	070_neutral	0.0		143.71801961429492	
20.0	127.39693922828747	pulse	1.0	t		31.0	male	west_asian	1.9538400318344609	neutral	070	sub-07	1.0	3.0	070_neutral	0.0		144.41801659578232	
20.0	128.09688489506152	pulse	1.0	t		31.0	male	west_asian	1.9538400318344609	neutral	070	sub-07	1.0	3.0	070_neutral	0.0		145.11796226255638	
20.0	128.79687372656508	pulse	1.0	t		31.0	male	west_asian	1.9538400318344609	neutral	070	sub-07	1.0	3.0	070_neutral	0.0		145.81795109405994	
20.0	129.49685138957238	pulse	1.0	t		31.0	male	west_asian	1.9538400318344609	neutral	070	sub-07	1.0	3.0	070_neutral	0.0		146.51792875706724	
20.0	130.1968230155544	pulse	1.0	t		31.0	male	west_asian	1.9538400318344609	neutral	070	sub-07	1.0	3.0	070_neutral	0.0		147.21790038304925	
20.0	130.89679826375186	pulse	1.0	t		31.0	male	west_asian	1.9538400318344609	neutral	070	sub-07	1.0	3.0	070_neutral	0.0		147.91787563124672	
20.0	131.59677622861045	pulse	1.0	t		31.0	male	west_asian	1.9538400318344609	neutral	070	sub-07	1.0	3.0	070_neutral	0.0		148.6178535961053	
20.0	132.2967538916173	pulse	1.0	t		31.0	male	west_asian	1.9538400318344609	neutral	070	sub-07	1.0	3.0	070_neutral	0.0		149.31783125911215	
20.0	132.99672974351734	pulse	1.0	t		31.0	male	west_asian	1.9538400318344609	neutral	070	sub-07	1.0	3.0	070_neutral	0.0		150.0178071110122	
21.0	133.27160364515612	face	0.0		145	36.0	female	white	2.7548746518105847	neutral	011	sub-07	1.0	3.0	011_neutral	0.0		150.29268101265097	1.2333086821472534
21.0	133.69672249908717	pulse	0.0	t		36.0	female	white	2.7548746518105847	neutral	011	sub-07	1.0	3.0	011_neutral	0.0		150.71779986658203	
21.0	134.3966838621268	pulse	0.0	t		36.0	female	white	2.7548746518105847	neutral	011	sub-07	1.0	3.0	011_neutral	0.0		151.41776122962165	
21.0	134.50491232730337	fix	1.0		445	36.0	female	white	2.7548746518105847	neutral	011	sub-07	1.0	3.0	011_neutral	0.0		151.52598969479823	3.76651171635649
21.0	135.09667088252263	pulse	1.0	t		36.0	female	white	2.7548746518105847	neutral	011	sub-07	1.0	3.0	011_neutral	0.0		152.11774825001748	
21.0	135.79663858443837	pulse	1.0	t		36.0	female	white	2.7548746518105847	neutral	011	sub-07	1.0	3.0	011_neutral	0.0		152.81771595193322	
21.0	136.49661624744567	pulse	1.0	t		36.0	female	white	2.7548746518105847	neutral	011	sub-07	1.0	3.0	011_neutral	0.0		153.51769361494053	
21.0	137.19659632526327	pulse	1.0	t		36.0	female	white	2.7548746518105847	neutral	011	sub-07	1.0	3.0	011_neutral	0.0		154.21767369275813	
21.0	137.89657368641883	pulse	1.0	t		36.0	female	white	2.7548746518105847	neutral	011	sub-07	1.0	3.0	011_neutral	0.0		154.9176510539137	
22.0	138.27142404365986	face	0.0		145	19.0	male	white	3.2522881018702745	neutral	018	sub-07	1.0	3.0	018_neutral	0.0		155.29250141115472	1.2333243784128172
22.0	138.59655678274885	pulse	0.0	t		19.0	male	white	3.2522881018702745	neutral	018	sub-07	1.0	3.0	018_neutral	0.0		155.6176341502437	
22.0	139.29653052168987	pulse	0.0	t		19.0	male	white	3.2522881018702745	neutral	018	sub-07	1.0	3.0	018_neutral	0.0		156.31760788918473	
22.0	139.50474842207268	fix	1.0		444	19.0	male	white	3.2522881018702745	neutral	018	sub-07	1.0	3.0	018_neutral	0.0		156.52582578956753	3.7665286200267474
22.0	139.9965109013583	pulse	1.0	t		19.0	male	white	3.2522881018702745	neutral	018	sub-07	1.0	3.0	018_neutral	0.0		157.01758826885316	
22.0	140.69648403659676	pulse	1.0	t		19.0	male	white	3.2522881018702745	neutral	018	sub-07	1.0	3.0	018_neutral	0.0		157.7175614040916	
22.0	141.39646652922374	pulse	1.0	t		19.0	male	white	3.2522881018702745	neutral	018	sub-07	1.0	3.0	018_neutral	0.0		158.4175438967186	
22.0	142.09643453299122	pulse	1.0	t		19.0	male	white	3.2522881018702745	neutral	018	sub-07	1.0	3.0	018_neutral	0.0		159.11751190048608	
22.0	142.79640374416294	pulse	1.0	t		19.0	male	white	3.2522881018702745	neutral	018	sub-07	1.0	3.0	018_neutral	0.0		159.8174811116578	
23.0	143.27127704209943	face	0.0		145	40.0	male	black	2.408674890569041	neutral	061	sub-07	1.0	3.0	061_neutral	0.0		160.29235440959428	1.233292684031312
23.0	143.49639800898922	pulse	0.0	t		40.0	male	black	2.408674890569041	neutral	061	sub-07	1.0	3.0	061_neutral	0.0		160.51747537648407	
23.0	144.19636450350026	pulse	0.0	t		40.0	male	black	2.408674890569041	neutral	061	sub-07	1.0	3.0	061_neutral	0.0		161.21744187099512	
23.0	144.50456972613074	fix	1.0		444	40.0	male	black	2.408674890569041	neutral	061	sub-07	1.0	3.0	061_neutral	0.0		161.5256470936256	3.766526507067738
23.0	144.89635574981367	pulse	1.0	t		40.0	male	black	2.408674890569041	neutral	061	sub-07	1.0	3.0	061_neutral	0.0		161.91743311730852	
23.0	145.59631047212588	pulse	1.0	t		40.0	male	black	2.408674890569041	neutral	061	sub-07	1.0	3.0	061_neutral	0.0		162.61738783962073	
23.0	146.29629175734817	pulse	1.0	t		40.0	male	black	2.408674890569041	neutral	061	sub-07	1.0	3.0	061_neutral	0.0		163.31736912484303	
23.0	146.99627515552902	pulse	1.0	t		40.0	male	black	2.408674890569041	neutral	061	sub-07	1.0	3.0	061_neutral	0.0		164.01735252302387	
23.0	147.69624708336232	pulse	1.0	t		40.0	male	black	2.408674890569041	neutral	061	sub-07	1.0	3.0	061_neutral	0.0		164.71732445085718	
24.0	148.27109623319848	face	0.0		145	21.0	male	black	2.969757262236371	smiling	137	sub-07	1.0	3.0	137_smiling	0.0		165.29217360069333	1.2333228691563818
24.0	148.39623682041974	pulse	0.0	t		21.0	male	black	2.969757262236371	smiling	137	sub-07	1.0	3.0	137_smiling	0.0		165.4173141879146	
24.0	149.09621176676592	pulse	0.0	t		21.0	male	black	2.969757262236371	smiling	137	sub-07	1.0	3.0	137_smiling	0.0		166.11728913426077	
24.0	149.50441910235486	fix	1.0		444	21.0	male	black	2.969757262236371	smiling	137	sub-07	1.0	3.0	137_smiling	0.0		166.5254964698497	3.766515036720193
24.0	149.7961879205168	pulse	1.0	t		21.0	male	black	2.969757262236371	smiling	137	sub-07	1.0	3.0	137_smiling	0.0		166.81726528801164	
24.0	150.4961619613091	pulse	1.0	t		21.0	male	black	2.969757262236371	smiling	137	sub-07	1.0	3.0	137_smiling	0.0		167.51723932880395	
24.0	151.19613962431595	pulse	1.0	t		21.0	male	black	2.969757262236371	smiling	137	sub-07	1.0	3.0	137_smiling	0.0		168.2172169918108	
24.0	151.89611547621598	pulse	1.0	t		21.0	male	black	2.969757262236371	smiling	137	sub-07	1.0	3.0	137_smiling	0.0		168.91719284371084	
24.0	152.59609223366942	pulse	1.0	t		21.0	male	black	2.969757262236371	smiling	137	sub-07	1.0	3.0	137_smiling	0.0		169.61716960116428	
25.0	153.27093413907505	face	0.0		145	20.0	male	black	3.1070433744528456	smiling	082	sub-07	1.0	3.0	082_smiling	0.0		170.2920115065699	1.23331109695755
25.0	153.296077442958	pulse	0.0	t		20.0	male	black	3.1070433744528456	smiling	082	sub-07	1.0	3.0	082_smiling	0.0		170.31715481045285	
25.0	153.9960523893037	pulse	0.0	t		20.0	male	black	3.1070433744528456	smiling	082	sub-07	1.0	3.0	082_smiling	0.0		171.01712975679857	
25.0	154.5042452360326	fix	1.0		443	20.0	male	black	3.1070433744528456	smiling	082	sub-07	1.0	3.0	082_smiling	0.0		171.52532260352746	3.758280836369522
25.0	154.69606084113911	pulse	1.0	t		20.0	male	black	3.1070433744528456	smiling	082	sub-07	1.0	3.0	082_smiling	0.0		171.71713820863397	
25.0	155.39599775422676	pulse	1.0	t		20.0	male	black	3.1070433744528456	smiling	082	sub-07	1.0	3.0	082_smiling	0.0		172.4170751217216	
25.0	156.0959696820605	pulse	1.0	t		20.0	male	black	3.1070433744528456	smiling	082	sub-07	1.0	3.0	082_smiling	0.0		173.11704704955537	
25.0	156.79595851356407	pulse	1.0	t		20.0	male	black	3.1070433744528456	smiling	082	sub-07	1.0	3.0	082_smiling	0.0		173.81703588105893	
25.0	157.49592198956225	pulse	1.0	t		20.0	male	black	3.1070433744528456	smiling	082	sub-07	1.0	3.0	082_smiling	0.0		174.5169993570571	
25.0	158.19591534883466	pulse	1.0	t		20.0	male	black	3.1070433744528456	smiling	082	sub-07	1.0	3.0	082_smiling	0.0		175.21699271632951	
26.0	158.26252607240212	face	0.0		147	37.0	male	white	3.898925586947871	smiling	101	sub-07	1.0	3.0	101_smiling	0.0		175.28360343989698	1.2415670305986168
26.0	158.89588788037054	pulse	0.0	t		37.0	male	white	3.898925586947871	smiling	101	sub-07	1.0	3.0	101_smiling	0.0		175.9169652478654	
26.0	159.50409310300074	fix	1.0		443	37.0	male	white	3.898925586947871	smiling	101	sub-07	1.0	3.0	101_smiling	0.0		176.5251704704956	3.7665298274318957
26.0	159.59586041190641	pulse	1.0	t		37.0	male	white	3.898925586947871	smiling	101	sub-07	1.0	3.0	101_smiling	0.0		176.61693777940127	
26.0	160.29583716935986	pulse	1.0	t		37.0	male	white	3.898925586947871	smiling	101	sub-07	1.0	3.0	101_smiling	0.0		177.3169145368547	
26.0	160.99581573792102	pulse	1.0	t		37.0	male	white	3.898925586947871	smiling	101	sub-07	1.0	3.0	101_smiling	0.0		178.01689310541587	
26.0	161.69579249537446	pulse	1.0	t		37.0	male	white	3.898925586947871	smiling	101	sub-07	1.0	3.0	101_smiling	0.0		178.71686986286932	
26.0	162.3957728750429	pulse	1.0	t		37.0	male	white	3.898925586947871	smiling	101	sub-07	1.0	3.0	101_smiling	0.0		179.41685024253775	
26.0	163.09573725659493	pulse	1.0	t		37.0	male	white	3.898925586947871	smiling	101	sub-07	1.0	3.0	101_smiling	0.0		180.11681462408978	
27.0	163.27062293043264	face	0.0		146	31.0	female	east_asian	3.395941106247513	smiling	087	sub-07	1.0	3.0	087_smiling	0.0		180.2917002979275	1.2416382674946362
27.0	163.79572759735493	pulse	0.0	t		31.0	female	east_asian	3.395941106247513	smiling	087	sub-07	1.0	3.0	087_smiling	0.0		180.81680496484978	
27.0	164.49570405295708	pulse	0.0	t		31.0	female	east_asian	3.395941106247513	smiling	087	sub-07	1.0	3.0	087_smiling	0.0		181.51678142045193	
27.0	164.51226119792727	fix	1.0		443	31.0	female	east_asian	3.395941106247513	smiling	087	sub-07	1.0	3.0	087_smiling	0.0		181.53333856542213	3.749976304676238
27.0	165.1956847344768	pulse	1.0	t		31.0	female	east_asian	3.395941106247513	smiling	087	sub-07	1.0	3.0	087_smiling	0.0		182.21676210197165	
27.0	165.89563945678856	pulse	1.0	t		31.0	female	east_asian	3.395941106247513	smiling	087	sub-07	1.0	3.0	087_smiling	0.0		182.9167168242834	
27.0	166.59564881417737	pulse	1.0	t		31.0	female	east_asian	3.395941106247513	smiling	087	sub-07	1.0	3.0	087_smiling	0.0		183.61672618167222	
27.0	167.29560746055586	pulse	1.0	t		31.0	female	east_asian	3.395941106247513	smiling	087	sub-07	1.0	3.0	087_smiling	0.0		184.3166848280507	
27.0	167.99558180319946	pulse	1.0	t		31.0	female	east_asian	3.395941106247513	smiling	087	sub-07	1.0	3.0	087_smiling	0.0		185.0166591706943	
28.0	168.2622375026035	face	0.0		146	34.0	male	white	2.651014723438122	neutral	121	sub-07	1.0	3.0	121_neutral	0.0		185.28331487009837	1.2415286954897056
28.0	168.6955688235953	pulse	0.0	t		34.0	male	white	2.651014723438122	neutral	121	sub-07	1.0	3.0	121_neutral	0.0		185.71664619109015	
28.0	169.39554256253632	pulse	0.0	t		34.0	male	white	2.651014723438122	neutral	121	sub-07	1.0	3.0	121_neutral	0.0		186.41661993003117	
28.0	169.50376619809322	fix	1.0		444	34.0	male	white	2.651014723438122	neutral	121	sub-07	1.0	3.0	121_neutral	0.0		186.52484356558807	3.7581987328285322
28.0	170.0955129811132	pulse	1.0	t		34.0	male	white	2.651014723438122	neutral	121	sub-07	1.0	3.0	121_neutral	0.0		187.11659034860804	
28.0	170.7954960774432	pulse	1.0	t		34.0	male	white	2.651014723438122	neutral	121	sub-07	1.0	3.0	121_neutral	0.0		187.81657344493806	
28.0	171.4954737404505	pulse	1.0	t		34.0	male	white	2.651014723438122	neutral	121	sub-07	1.0	3.0	121_neutral	0.0		188.51655110794536	
28.0	172.19544325347397	pulse	1.0	t		34.0	male	white	2.651014723438122	neutral	121	sub-07	1.0	3.0	121_neutral	0.0		189.21652062096882	
28.0	172.89542514239838	pulse	1.0	t		34.0	male	white	2.651014723438122	neutral	121	sub-07	1.0	3.0	121_neutral	0.0		189.91650250989323	
29.0	173.26196493092175	face	0.0		146	28.0	male	east_asian	1.5563072025467568	neutral	005	sub-07	1.0	3.0	005_neutral	0.0		190.2830422984166	1.241630721212914
29.0	173.5954058239181	pulse	0.0	t		28.0	male	east_asian	1.5563072025467568	neutral	005	sub-07	1.0	3.0	005_neutral	0.0		190.61648319141295	
29.0	174.295380468413	pulse	0.0	t		28.0	male	east_asian	1.5563072025467568	neutral	005	sub-07	1.0	3.0	005_neutral	0.0		191.31645783590784	
29.0	174.50359565213466	fix	1.0		444	28.0	male	east_asian	1.5563072025467568	neutral	005	sub-07	1.0	3.0	005_neutral	0.0		191.52467301962952	3.7581763958355623
29.0	174.9953545092053	pulse	1.0	t		28.0	male	east_asian	1.5563072025467568	neutral	005	sub-07	1.0	3.0	005_neutral	0.0		192.01643187670015	
29.0	175.69536960176765	pulse	1.0	t		28.0	male	east_asian	1.5563072025467568	neutral	005	sub-07	1.0	3.0	005_neutral	0.0		192.7164469692625	
29.0	176.39533820923725	pulse	1.0	t		28.0	male	east_asian	1.5563072025467568	neutral	005	sub-07	1.0	3.0	005_neutral	0.0		193.4164155767321	
29.0	177.09528840378061	pulse	1.0	t		28.0	male	east_asian	1.5563072025467568	neutral	005	sub-07	1.0	3.0	005_neutral	0.0		194.11636577127547	
29.0	177.79525972791134	pulse	1.0	t		28.0	male	east_asian	1.5563072025467568	neutral	005	sub-07	1.0	3.0	005_neutral	0.0		194.8163370954062	
30.0	178.26177204797023	face	0.0		146	25.0	female	black	3.858336649423	smiling	126	sub-07	1.0	3.0	126_smiling	0.0		195.28284941546508	1.2416642267025964
30.0	178.49524614460506	pulse	0.0	t		25.0	female	black	3.858336649423	smiling	126	sub-07	1.0	3.0	126_smiling	0.0		195.51632351209992	
30.0	179.19520841319854	pulse	0.0	t		25.0	female	black	3.858336649423	smiling	126	sub-07	1.0	3.0	126_smiling	0.0		196.2162857806934	
30.0	179.50343627467282	fix	1.0		444	25.0	female	black	3.858336649423	smiling	126	sub-07	1.0	3.0	126_smiling	0.0		196.52451364216768	3.7582560845667103
30.0	179.89521173356206	pulse	1.0	t		25.0	female	black	3.858336649423	smiling	126	sub-07	1.0	3.0	126_smiling	0.0		196.91628910105692	
30.0	180.59517460585812	pulse	1.0	t		25.0	female	black	3.858336649423	smiling	126	sub-07	1.0	3.0	126_smiling	0.0		197.61625197335297	
30.0	181.29515166516285	pulse	1.0	t		25.0	female	black	3.858336649423	smiling	126	sub-07	1.0	3.0	126_smiling	0.0		198.3162290326577	
30.0	181.99513898740997	pulse	1.0	t		25.0	female	black	3.858336649423	smiling	126	sub-07	1.0	3.0	126_smiling	0.0		199.01621635490483	
30.0	182.6950816356716	pulse	1.0	t		25.0	female	black	3.858336649423	smiling	126	sub-07	1.0	3.0	126_smiling	0.0		199.71615900316647	
31.0	183.26169235923953	face	0.0		146	30.0	female	black	2.7345801830481498	smiling	062	sub-07	1.0	3.0	062_smiling	1.0	trustworthiness	200.2827697267344	1.2415667287473298
31.0	183.39507620234917	pulse	0.0	t		30.0	female	black	2.7345801830481498	smiling	062	sub-07	1.0	3.0	062_smiling	1.0	trustworthiness	200.41615356984403	
31.0	184.09505175239747	pulse	0.0	t		30.0	female	black	2.7345801830481498	smiling	062	sub-07	1.0	3.0	062_smiling	1.0	trustworthiness	201.11612911989232	
31.0	184.50325908798686	fix	1.0		177	30.0	female	black	2.7345801830481498	smiling	062	sub-07	1.0	3.0	062_smiling	1.0	trustworthiness	201.52433645548172	1.499946270476812
31.0	184.79502700059493	pulse	1.0	t		30.0	female	black	2.7345801830481498	smiling	062	sub-07	1.0	3.0	062_smiling	1.0	trustworthiness	201.81610436808978	
31.0	185.49502277467718	pulse	1.0	t		30.0	female	black	2.7345801830481498	smiling	062	sub-07	1.0	3.0	062_smiling	1.0	trustworthiness	202.51610014217204	
31.0	186.00320535846367	rating	2.0		294	30.0	female	black	2.7345801830481498	smiling	062	sub-07	1.0	3.0	062_smiling	1.0	trustworthiness	203.02428272595853	2.499916990905149
31.0	186.19498715622922	pulse	2.0	t		30.0	female	black	2.7345801830481498	smiling	062	sub-07	1.0	3.0	062_smiling	1.0	trustworthiness	203.21606452372407	
31.0	186.89497870439436	pulse	2.0	t		30.0	female	black	2.7345801830481498	smiling	062	sub-07	1.0	3.0	062_smiling	1.0	trustworthiness	203.91605607188922	
31.0	187.32829131060817	response	2.0	b		30.0	female	black	2.7345801830481498	smiling	062	sub-07	1.0	3.0	062_smiling	1.0	trustworthiness	204.34936867810302	
31.0	187.59492648412743	pulse	2.0	t		30.0	female	black	2.7345801830481498	smiling	062	sub-07	1.0	3.0	062_smiling	1.0	trustworthiness	204.61600385162228	
31.0	188.29491078786214	pulse	2.0	t		30.0	female	black	2.7345801830481498	smiling	062	sub-07	1.0	3.0	062_smiling	1.0	trustworthiness	205.315988155357	
31.0	188.50312234936882	fix	3.0		444	30.0	female	black	2.7345801830481498	smiling	062	sub-07	1.0	3.0	062_smiling	1.0	trustworthiness	205.52419971686368	3.7665422033333016
31.0	188.99489146938186	pulse	3.0	t		30.0	female	black	2.7345801830481498	smiling	062	sub-07	1.0	3.0	062_smiling	1.0	trustworthiness	206.0159688368767	
31.0	189.69487215090157	pulse	3.0	t		30.0	female	black	2.7345801830481498	smiling	062	sub-07	1.0	3.0	062_smiling	1.0	trustworthiness	206.71594951839643	
31.0	190.39483713615618	pulse	3.0	t		30.0	female	black	2.7345801830481498	smiling	062	sub-07	1.0	3.0	062_smiling	1.0	trustworthiness	207.41591450365104	
31.0	191.0948178176759	pulse	3.0	t		30.0	female	black	2.7345801830481498	smiling	062	sub-07	1.0	3.0	062_smiling	1.0	trustworthiness	208.11589518517076	
31.0	191.79480393251833	pulse	3.0	t		30.0	female	black	2.7345801830481498	smiling	062	sub-07	1.0	3.0	062_smiling	1.0	trustworthiness	208.8158813000132	
32.0	192.26966455270212	face	0.0		145	21.0	male	east_asian/white	3.501790688420215	neutral	036	sub-07	1.0	3.0	036_neutral	0.0		209.29074192019698	1.2332926840308573
32.0	192.4948244584034	pulse	0.0	t		21.0	male	east_asian/white	3.501790688420215	neutral	036	sub-07	1.0	3.0	036_neutral	0.0		209.51590182589825	
32.0	193.1947643900039	pulse	0.0	t		21.0	male	east_asian/white	3.501790688420215	neutral	036	sub-07	1.0	3.0	036_neutral	0.0		210.21584175749877	
32.0	193.50295723673298	fix	1.0		444	21.0	male	east_asian/white	3.501790688420215	neutral	036	sub-07	1.0	3.0	036_neutral	0.0		210.52403460422784	3.7582720826831064
32.0	193.8947698233269	pulse	1.0	t		21.0	male	east_asian/white	3.501790688420215	neutral	036	sub-07	1.0	3.0	036_neutral	0.0		210.91584719082175	
32.0	194.59471186788596	pulse	1.0	t		21.0	male	east_asian/white	3.501790688420215	neutral	036	sub-07	1.0	3.0	036_neutral	0.0		211.61578923538082	
32.0	195.29468107905814	pulse	1.0	t		21.0	male	east_asian/white	3.501790688420215	neutral	036	sub-07	1.0	3.0	036_neutral	0.0		212.315758446553	
32.0	195.99465964761885	pulse	1.0	t		21.0	male	east_asian/white	3.501790688420215	neutral	036	sub-07	1.0	3.0	036_neutral	0.0		213.0157370151137	
32.0	196.694643951354	pulse	1.0	t		21.0	male	east_asian/white	3.501790688420215	neutral	036	sub-07	1.0	3.0	036_neutral	0.0		213.71572131884886	
33.0	197.2612293194161	face	0.0		146	34.0	male	white	2.651014723438122	smiling	121	sub-07	1.0	3.0	121_smiling	0.0		214.28230668691094	1.2415833305663
33.0	197.39462221806343	pulse	0.0	t		34.0	male	white	2.651014723438122	smiling	121	sub-07	1.0	3.0	121_smiling	0.0		214.4156995855583	
33.0	198.09459233478947	pulse	0.0	t		34.0	male	white	2.651014723438122	smiling	121	sub-07	1.0	3.0	121_smiling	0.0		215.11566970228432	
33.0	198.5028126499824	fix	1.0		444	34.0	male	white	2.651014723438122	smiling	121	sub-07	1.0	3.0	121_smiling	0.0		215.52389001747724	3.7583040789163533
33.0	198.79458056259045	pulse	1.0	t		34.0	male	white	2.651014723438122	smiling	121	sub-07	1.0	3.0	121_smiling	0.0		215.8156579300853	
33.0	199.49451687197597	pulse	1.0	t		34.0	male	white	2.651014723438122	smiling	121	sub-07	1.0	3.0	121_smiling	0.0		216.51559423947083	
33.0	200.1945247201088	pulse	1.0	t		34.0	male	white	2.651014723438122	smiling	121	sub-07	1.0	3.0	121_smiling	0.0		217.21560208760366	
33.0	200.89450811828965	pulse	1.0	t		34.0	male	white	2.651014723438122	smiling	121	sub-07	1.0	3.0	121_smiling	0.0		217.9155854857845	
33.0	201.59450389237236	pulse	1.0	t		34.0	male	white	2.651014723438122	smiling	121	sub-07	1.0	3.0	121_smiling	0.0		218.6155812598672	
34.0	202.26111672889874	face	0.0		146	19.0	female	white	4.298846000795861	smiling	100	sub-07	1.0	3.0	100_smiling	0.0		219.2821940963936	1.2415338269606764
34.0	202.29446616096538	pulse	0.0	t		19.0	female	white	4.298846000795861	smiling	100	sub-07	1.0	3.0	100_smiling	0.0		219.31554352846024	
34.0	202.99442239253358	pulse	0.0	t		19.0	female	white	4.298846000795861	smiling	100	sub-07	1.0	3.0	100_smiling	0.0		220.01549976002843	
34.0	203.50265055585942	fix	1.0		443	19.0	female	white	4.298846000795861	smiling	100	sub-07	1.0	3.0	100_smiling	0.0		220.52372792335427	3.7581776032407106
34.0	203.69441001663245	pulse	1.0	t		19.0	female	white	4.298846000795861	smiling	100	sub-07	1.0	3.0	100_smiling	0.0		220.7154873841273	
34.0	204.39439039630088	pulse	1.0	t		19.0	female	white	4.298846000795861	smiling	100	sub-07	1.0	3.0	100_smiling	0.0		221.41546776379573	
34.0	205.09436473894402	pulse	1.0	t		19.0	female	white	4.298846000795861	smiling	100	sub-07	1.0	3.0	100_smiling	0.0		222.11544210643888	
34.0	205.79432429087638	pulse	1.0	t		19.0	female	white	4.298846000795861	smiling	100	sub-07	1.0	3.0	100_smiling	0.0		222.81540165837123	
34.0	206.49432217791718	pulse	1.0	t		19.0	female	white	4.298846000795861	smiling	100	sub-07	1.0	3.0	100_smiling	0.0		223.51539954541204	
34.0	207.19429893537063	pulse	1.0	t		19.0	female	white	4.298846000795861	smiling	100	sub-07	1.0	3.0	100_smiling	0.0		224.21537630286548	
35.0	207.26082815910013	face	0.0		147	28.0	male	east_asian	1.5563072025467568	smiling	005	sub-07	1.0	3.0	005_smiling	0.0		224.28190552659498	1.2416388711967556
35.0	207.89426875024537	pulse	0.0	t		28.0	male	east_asian	1.5563072025467568	smiling	005	sub-07	1.0	3.0	005_smiling	0.0		224.91534611774023	
35.0	208.50246703029688	fix	1.0		443	28.0	male	east_asian	1.5563072025467568	smiling	005	sub-07	1.0	3.0	005_smiling	0.0		225.52354439779174	3.7582292198053437
35.0	208.5942581854515	pulse	1.0	t		28.0	male	east_asian	1.5563072025467568	smiling	005	sub-07	1.0	3.0	005_smiling	0.0		225.61533555294636	
35.0	209.29424007437638	pulse	1.0	t		28.0	male	east_asian	1.5563072025467568	smiling	005	sub-07	1.0	3.0	005_smiling	0.0		226.31531744187123	
35.0	209.99420596518485	pulse	1.0	t		28.0	male	east_asian	1.5563072025467568	smiling	005	sub-07	1.0	3.0	005_smiling	0.0		227.0152833326797	
35.0	210.69417940227459	pulse	1.0	t		28.0	male	east_asian	1.5563072025467568	smiling	005	sub-07	1.0	3.0	005_smiling	0.0		227.71525676976944	
35.0	211.3941769874641	pulse	1.0	t		28.0	male	east_asian	1.5563072025467568	smiling	005	sub-07	1.0	3.0	005_smiling	0.0		228.41525435495896	
35.0	212.09413744494987	pulse	1.0	t		28.0	male	east_asian	1.5563072025467568	smiling	005	sub-07	1.0	3.0	005_smiling	0.0		229.11521481244472	
36.0	212.26069625010223	face	0.0		147	54.0	female	white	2.286908077994429	neutral	136	sub-07	1.0	3.0	136_neutral	0.0		229.28177361759708	1.2499554769401584
36.0	212.7941129949986	pulse	0.0	t		54.0	female	white	2.286908077994429	neutral	136	sub-07	1.0	3.0	136_neutral	0.0		229.81519036249347	
36.0	213.49409518577477	pulse	0.0	t		54.0	female	white	2.286908077994429	neutral	136	sub-07	1.0	3.0	136_neutral	0.0		230.51517255326962	
36.0	213.5106517270424	fix	1.0		443	54.0	female	white	2.286908077994429	neutral	136	sub-07	1.0	3.0	136_neutral	0.0		230.53172909453724	3.749940988079743
36.0	214.1940701321205	pulse	1.0	t		54.0	female	white	2.286908077994429	neutral	136	sub-07	1.0	3.0	136_neutral	0.0		231.21514749961534	
36.0	214.89404688957393	pulse	1.0	t		54.0	female	white	2.286908077994429	neutral	136	sub-07	1.0	3.0	136_neutral	0.0		231.91512425706878	
36.0	215.59402425072994	pulse	1.0	t		54.0	female	white	2.286908077994429	neutral	136	sub-07	1.0	3.0	136_neutral	0.0		232.6151016182248	
36.0	216.2940010081834	pulse	1.0	t		54.0	female	white	2.286908077994429	neutral	136	sub-07	1.0	3.0	136_neutral	0.0		233.31507837567824	
36.0	216.993969615653	pulse	1.0	t		54.0	female	white	2.286908077994429	neutral	136	sub-07	1.0	3.0	136_neutral	0.0		234.01504698314784	
37.0	217.26059271512213	face	0.0		146	25.0	female	west_asian	2.6756864305610826	neutral	064	sub-07	1.0	3.0	064_neutral	0.0		234.28167008261698	1.2415459010107952
37.0	217.6947046234559	pulse	0.0	t		25.0	female	west_asian	2.6756864305610826	neutral	064	sub-07	1.0	3.0	064_neutral	0.0		234.71578199095075	
37.0	218.39392645092357	pulse	0.0	t		25.0	female	west_asian	2.6756864305610826	neutral	064	sub-07	1.0	3.0	064_neutral	0.0		235.41500381841843	
37.0	218.50213861613292	fix	1.0		444	25.0	female	west_asian	2.6756864305610826	neutral	064	sub-07	1.0	3.0	064_neutral	0.0		235.52321598362778	3.758290797461086
37.0	219.0939035102283	pulse	1.0	t		25.0	female	west_asian	2.6756864305610826	neutral	064	sub-07	1.0	3.0	064_neutral	0.0		236.11498087772316	
37.0	219.7938712121445	pulse	1.0	t		25.0	female	west_asian	2.6756864305610826	neutral	064	sub-07	1.0	3.0	064_neutral	0.0		236.81494857963935	
37.0	220.49385521402792	pulse	1.0	t		25.0	female	west_asian	2.6756864305610826	neutral	064	sub-07	1.0	3.0	064_neutral	0.0		237.51493258152277	
37.0	221.19385370477175	pulse	1.0	t		25.0	female	west_asian	2.6756864305610826	neutral	064	sub-07	1.0	3.0	064_neutral	0.0		238.2149310722666	
37.0	221.89381506781092	pulse	1.0	t		25.0	female	west_asian	2.6756864305610826	neutral	064	sub-07	1.0	3.0	064_neutral	0.0		238.91489243530577	
38.0	222.260429413594	face	0.0		146	21.0	male	black	2.969757262236371	neutral	137	sub-07	1.0	3.0	137_neutral	0.0		239.28150678108886	1.2415594843168947
38.0	222.59379725858707	pulse	0.0	t		21.0	male	black	2.969757262236371	neutral	137	sub-07	1.0	3.0	137_neutral	0.0		239.61487462608193	
38.0	223.29377220493325	pulse	0.0	t		21.0	male	black	2.969757262236371	neutral	137	sub-07	1.0	3.0	137_neutral	0.0		240.3148495724281	
38.0	223.5019888979109	fix	1.0		444	21.0	male	black	2.969757262236371	neutral	137	sub-07	1.0	3.0	137_neutral	0.0		240.52306626540576	3.7583070974287693
38.0	223.99375047164267	pulse	1.0	t		21.0	male	black	2.969757262236371	neutral	137	sub-07	1.0	3.0	137_neutral	0.0		241.01482783913752	
38.0	224.6937311531624	pulse	1.0	t		21.0	male	black	2.969757262236371	neutral	137	sub-07	1.0	3.0	137_neutral	0.0		241.71480852065724	
38.0	225.3937021754423	pulse	1.0	t		21.0	male	black	2.969757262236371	neutral	137	sub-07	1.0	3.0	137_neutral	0.0		242.41477954293714	
38.0	226.0936762162346	pulse	1.0	t		21.0	male	black	2.969757262236371	neutral	137	sub-07	1.0	3.0	137_neutral	0.0		243.11475358372945	
38.0	226.79365689775432	pulse	1.0	t		21.0	male	black	2.969757262236371	neutral	137	sub-07	1.0	3.0	137_neutral	0.0		243.81473426524917	
39.0	227.26029599533967	face	0.0		146	25.0	female	west_asian	2.6756864305610826	smiling	064	sub-07	1.0	3.0	064_smiling	0.0		244.28137336283453	1.2415283936379637
39.0	227.49363214595132	pulse	0.0	t		25.0	female	west_asian	2.6756864305610826	smiling	064	sub-07	1.0	3.0	064_smiling	0.0		244.51470951344618	
39.0	228.19361765709118	pulse	0.0	t		25.0	female	west_asian	2.6756864305610826	smiling	064	sub-07	1.0	3.0	064_smiling	0.0		245.21469502458604	
39.0	228.50182438897764	fix	1.0		444	25.0	female	west_asian	2.6756864305610826	smiling	064	sub-07	1.0	3.0	064_smiling	0.0		245.5229017564725	3.7498769956141587
39.0	228.89360799785118	pulse	1.0	t		25.0	female	west_asian	2.6756864305610826	smiling	064	sub-07	1.0	3.0	064_smiling	0.0		245.91468536534603	
39.0	229.59356211646036	pulse	1.0	t		25.0	female	west_asian	2.6756864305610826	smiling	064	sub-07	1.0	3.0	064_smiling	0.0		246.61463948395522	
39.0	230.29352921467398	pulse	1.0	t		25.0	female	west_asian	2.6756864305610826	smiling	064	sub-07	1.0	3.0	064_smiling	0.0		247.31460658216884	
39.0	230.99351804617754	pulse	1.0	t		25.0	female	west_asian	2.6756864305610826	smiling	064	sub-07	1.0	3.0	064_smiling	0.0		248.0145954136724	
39.0	231.69349540733356	pulse	1.0	t		25.0	female	west_asian	2.6756864305610826	smiling	064	sub-07	1.0	3.0	064_smiling	0.0		248.7145727748284	
40.0	232.2517013845918	fix	0.0		720													249.27277875208665	5.999800476321525
40.0	232.39347608885328	pulse	0.0	t														249.41455345634813	
40.0	233.09342900005777	pulse	0.0	t														250.11450636755262	
40.0	233.79341541675103	pulse	0.0	t														250.81449278424589	
40.0	234.49340334270119	pulse	0.0	t														251.51448071019604	
40.0	235.19337647793964	pulse	0.0	t														252.2144538454345	
40.0	235.89335897056662	pulse	0.0	t														252.91443633806148	
40.0	236.59335082058305	pulse	0.0	t														253.6144281880779	
40.0	237.2933034299358	pulse	0.0	t														254.31438079743066	
40.0	237.99327747072812	pulse	0.0	t														255.01435483822297	
