trial_nr	onset	event_type	phase	response	nr_frames	face_age	face_sex	face_eth	attractiveness	expression	face_id	sub_id	ses	run	trial_type	catch	rating_type	onset_abs	duration
-1.0	0.0607159092760412	fix	0.0		713													23.52002522321709	5.957960614847252
-1.0	0.7022004200698575	pulse	0.0	t														24.161509734010906	
-1.0	1.4021918473154074	pulse	0.0	t														24.861501161256456	
-1.0	2.1021784448385006	pulse	0.0	t														25.56148775877955	
-1.0	2.80218858725857	pulse	0.0	t														26.26149790119962	
-1.0	3.5021652234863723	pulse	0.0	t														26.96147453742742	
-1.0	4.202167819457827	pulse	0.0	t														27.661477133398876	
-1.0	4.9021517002693145	pulse	0.0	t														28.361461014210363	
-1.0	5.602138599657337	pulse	0.0	t														29.061447913598386	
0.0	6.018676524123293	face	0.0		144	31.0	female	white	2.1822522881018704	smiling	102	sub-17	2.0	5.0	102_smiling	0.0		29.477985838064342	1.233332186282496
0.0	6.302140591913485	pulse	0.0	t		31.0	female	white	2.1822522881018704	smiling	102	sub-17	2.0	5.0	102_smiling	0.0		29.761449905854533	
0.0	7.002124472724972	pulse	0.0	t		31.0	female	white	2.1822522881018704	smiling	102	sub-17	2.0	5.0	102_smiling	0.0		30.46143378666602	
0.0	7.252008710405789	fix	1.0		444	31.0	female	white	2.1822522881018704	smiling	102	sub-17	2.0	5.0	102_smiling	0.0		30.711318024346838	3.758273158047814
0.0	7.702120125977672	pulse	1.0	t		31.0	female	white	2.1822522881018704	smiling	102	sub-17	2.0	5.0	102_smiling	0.0		31.16142943991872	
0.0	8.402110647657537	pulse	1.0	t		31.0	female	white	2.1822522881018704	smiling	102	sub-17	2.0	5.0	102_smiling	0.0		31.861419961598585	
0.0	9.102100565622095	pulse	1.0	t		31.0	female	white	2.1822522881018704	smiling	102	sub-17	2.0	5.0	102_smiling	0.0		32.56140987956314	
0.0	9.8021052746044	pulse	1.0	t		31.0	female	white	2.1822522881018704	smiling	102	sub-17	2.0	5.0	102_smiling	0.0		33.26141458854545	
0.0	10.502106663145241	pulse	1.0	t		31.0	female	white	2.1822522881018704	smiling	102	sub-17	2.0	5.0	102_smiling	0.0		33.96141597708629	
1.0	11.010281868453603	face	0.0		146	31.0	female	west_asian	2.364902506963788	smiling	006	sub-17	2.0	5.0	006_smiling	0.0		34.46959118239465	1.241681563333259
1.0	11.202076658504666	pulse	0.0	t		31.0	female	west_asian	2.364902506963788	smiling	006	sub-17	2.0	5.0	006_smiling	0.0		34.661385972445714	
1.0	11.90206536903861	pulse	0.0	t		31.0	female	west_asian	2.364902506963788	smiling	006	sub-17	2.0	5.0	006_smiling	0.0		35.36137468297966	
1.0	12.251963431786862	fix	1.0		444	31.0	female	west_asian	2.364902506963788	smiling	006	sub-17	2.0	5.0	006_smiling	0.0		35.71127274572791	3.7582622911722865
1.0	12.602072492882144	pulse	1.0	t		31.0	female	west_asian	2.364902506963788	smiling	006	sub-17	2.0	5.0	006_smiling	0.0		36.06138180682319	
1.0	13.302073881422984	pulse	1.0	t		31.0	female	west_asian	2.364902506963788	smiling	006	sub-17	2.0	5.0	006_smiling	0.0		36.76138319536403	
1.0	14.00204629165819	pulse	1.0	t		31.0	female	west_asian	2.364902506963788	smiling	006	sub-17	2.0	5.0	006_smiling	0.0		37.46135560559924	
1.0	14.702042548626196	pulse	1.0	t		31.0	female	west_asian	2.364902506963788	smiling	006	sub-17	2.0	5.0	006_smiling	0.0		38.161351862567244	
1.0	15.402043635302107	pulse	1.0	t		31.0	female	west_asian	2.364902506963788	smiling	006	sub-17	2.0	5.0	006_smiling	0.0		38.861352949243155	
2.0	16.01022572295915	face	0.0		146	25.0	female	black	3.858336649423	neutral	126	sub-17	2.0	5.0	126_neutral	1.0	dominance	39.4695350369002	1.241667074180441
2.0	16.10201423439139	pulse	0.0	t		25.0	female	black	3.858336649423	neutral	126	sub-17	2.0	5.0	126_neutral	1.0	dominance	39.56132354833244	
2.0	16.80202648980776	pulse	0.0	t		25.0	female	black	3.858336649423	neutral	126	sub-17	2.0	5.0	126_neutral	1.0	dominance	40.26133580374881	
2.0	17.25189279713959	fix	1.0		177	25.0	female	black	3.858336649423	neutral	126	sub-17	2.0	5.0	126_neutral	1.0	dominance	40.71120211108064	1.508331567471032
2.0	17.502004635316553	pulse	1.0	t		25.0	female	black	3.858336649423	neutral	126	sub-17	2.0	5.0	126_neutral	1.0	dominance	40.9613139492576	
2.0	18.202039831900038	pulse	1.0	t		25.0	female	black	3.858336649423	neutral	126	sub-17	2.0	5.0	126_neutral	1.0	dominance	41.661349145841086	
2.0	18.76022436461062	rating	2.0		293	25.0	female	black	3.858336649423	neutral	126	sub-17	2.0	5.0	126_neutral	1.0	dominance	42.21953367855167	2.491605344315758
2.0	18.90200620498217	pulse	2.0	t		25.0	female	black	3.858336649423	neutral	126	sub-17	2.0	5.0	126_neutral	1.0	dominance	42.36131551892322	
2.0	19.602029327259515	pulse	2.0	t		25.0	female	black	3.858336649423	neutral	126	sub-17	2.0	5.0	126_neutral	1.0	dominance	43.061338641200564	
2.0	19.77697986792191	response	2.0	y		25.0	female	black	3.858336649423	neutral	126	sub-17	2.0	5.0	126_neutral	1.0	dominance	43.23628918186296	
2.0	20.30197124989354	pulse	2.0	t		25.0	female	black	3.858336649423	neutral	126	sub-17	2.0	5.0	126_neutral	1.0	dominance	43.76128056383459	
2.0	21.00196448828501	pulse	2.0	t		25.0	female	black	3.858336649423	neutral	126	sub-17	2.0	5.0	126_neutral	1.0	dominance	44.46127380222606	
2.0	21.25182970892638	fix	3.0		444	25.0	female	black	3.858336649423	neutral	126	sub-17	2.0	5.0	126_neutral	1.0	dominance	44.71113902286743	3.758290967642097
2.0	21.701958632242167	pulse	3.0	t		25.0	female	black	3.858336649423	neutral	126	sub-17	2.0	5.0	126_neutral	1.0	dominance	45.161267946183216	
2.0	22.40194764464104	pulse	3.0	t		25.0	female	black	3.858336649423	neutral	126	sub-17	2.0	5.0	126_neutral	1.0	dominance	45.86125695858209	
2.0	23.10193907188659	pulse	3.0	t		25.0	female	black	3.858336649423	neutral	126	sub-17	2.0	5.0	126_neutral	1.0	dominance	46.56124838582764	
2.0	23.801935630704975	pulse	3.0	t		25.0	female	black	3.858336649423	neutral	126	sub-17	2.0	5.0	126_neutral	1.0	dominance	47.26124494464602	
2.0	24.501941547117895	pulse	3.0	t		25.0	female	black	3.858336649423	neutral	126	sub-17	2.0	5.0	126_neutral	1.0	dominance	47.96125086105894	
3.0	25.010120676568476	face	0.0		146	19.0	female	white	4.298846000795861	smiling	100	sub-17	2.0	5.0	100_smiling	1.0	trustworthiness	48.469429990509525	1.2416667723155115
3.0	25.201922409352846	pulse	0.0	t		19.0	female	white	4.298846000795861	smiling	100	sub-17	2.0	5.0	100_smiling	1.0	trustworthiness	48.661231723293895	
3.0	25.901933759188978	pulse	0.0	t		19.0	female	white	4.298846000795861	smiling	100	sub-17	2.0	5.0	100_smiling	1.0	trustworthiness	49.36124307313003	
3.0	26.251787448883988	fix	1.0		177	19.0	female	white	4.298846000795861	smiling	100	sub-17	2.0	5.0	100_smiling	1.0	trustworthiness	49.711096762825036	1.4999858126975596
3.0	26.601903150847647	pulse	1.0	t		19.0	female	white	4.298846000795861	smiling	100	sub-17	2.0	5.0	100_smiling	1.0	trustworthiness	50.061212464788696	
3.0	27.301893068812205	pulse	1.0	t		19.0	female	white	4.298846000795861	smiling	100	sub-17	2.0	5.0	100_smiling	1.0	trustworthiness	50.761202382753254	
3.0	27.751773261581548	rating	2.0		294	19.0	female	white	4.298846000795861	smiling	100	sub-17	2.0	5.0	100_smiling	1.0	trustworthiness	51.211082575522596	2.4999680031178286
3.0	28.001893249922432	pulse	2.0	t		19.0	female	white	4.298846000795861	smiling	100	sub-17	2.0	5.0	100_smiling	1.0	trustworthiness	51.46120256386348	
3.0	28.701875923303305	pulse	2.0	t		19.0	female	white	4.298846000795861	smiling	100	sub-17	2.0	5.0	100_smiling	1.0	trustworthiness	52.161185237244354	
3.0	28.893531858935603	response	2.0	g		19.0	female	white	4.298846000795861	smiling	100	sub-17	2.0	5.0	100_smiling	1.0	trustworthiness	52.35284117287665	
3.0	29.401867350548855	pulse	2.0	t		19.0	female	white	4.298846000795861	smiling	100	sub-17	2.0	5.0	100_smiling	1.0	trustworthiness	52.8611766644899	
3.0	30.10185636294773	pulse	2.0	t		19.0	female	white	4.298846000795861	smiling	100	sub-17	2.0	5.0	100_smiling	1.0	trustworthiness	53.56116567688878	
3.0	30.251741264699376	fix	3.0		444	19.0	female	white	4.298846000795861	smiling	100	sub-17	2.0	5.0	100_smiling	1.0	trustworthiness	53.711050578640425	3.7666089515259955
3.0	30.801857147773262	pulse	3.0	t		19.0	female	white	4.298846000795861	smiling	100	sub-17	2.0	5.0	100_smiling	1.0	trustworthiness	54.26116646171431	
3.0	31.50185280102596	pulse	3.0	t		19.0	female	white	4.298846000795861	smiling	100	sub-17	2.0	5.0	100_smiling	1.0	trustworthiness	54.96116211496701	
3.0	32.20184181341028	pulse	3.0	t		19.0	female	white	4.298846000795861	smiling	100	sub-17	2.0	5.0	100_smiling	1.0	trustworthiness	55.66115112735133	
3.0	32.901808790207724	pulse	3.0	t		19.0	female	white	4.298846000795861	smiling	100	sub-17	2.0	5.0	100_smiling	1.0	trustworthiness	56.36111810414877	
3.0	33.601822253054706	pulse	3.0	t		19.0	female	white	4.298846000795861	smiling	100	sub-17	2.0	5.0	100_smiling	1.0	trustworthiness	57.061131566995755	
4.0	34.01835021622537	face	0.0		145	28.0	male	white	3.9076800636689217	smiling	033	sub-17	2.0	5.0	033_smiling	0.0		57.47765953016642	1.2333324881328736
4.0	34.301813680300256	pulse	0.0	t		28.0	male	white	3.9076800636689217	smiling	033	sub-17	2.0	5.0	033_smiling	0.0		57.761122994241305	
4.0	35.00182020042848	pulse	0.0	t		28.0	male	white	3.9076800636689217	smiling	033	sub-17	2.0	5.0	033_smiling	0.0		58.46112951436953	
4.0	35.251682704358245	fix	1.0		444	28.0	male	white	3.9076800636689217	smiling	033	sub-17	2.0	5.0	033_smiling	0.0		58.710992018299294	3.75839148616069
4.0	35.70178204563854	pulse	1.0	t		28.0	male	white	3.9076800636689217	smiling	033	sub-17	2.0	5.0	033_smiling	0.0		59.161091359579586	
4.0	36.40178766018653	pulse	1.0	t		28.0	male	white	3.9076800636689217	smiling	033	sub-17	2.0	5.0	033_smiling	0.0		59.86109697412758	
4.0	37.10177455957455	pulse	1.0	t		28.0	male	white	3.9076800636689217	smiling	033	sub-17	2.0	5.0	033_smiling	0.0		60.5610838735156	
4.0	37.801779872272164	pulse	1.0	t		28.0	male	white	3.9076800636689217	smiling	033	sub-17	2.0	5.0	033_smiling	0.0		61.26108918621321	
4.0	38.501760432642186	pulse	1.0	t		28.0	male	white	3.9076800636689217	smiling	033	sub-17	2.0	5.0	033_smiling	0.0		61.961069746583235	
5.0	39.010074190518935	face	0.0		146	27.0	female	white	4.181058495821727	neutral	039	sub-17	2.0	5.0	039_neutral	0.0		62.469383504459984	1.2415360680461163
5.0	39.201758500756114	pulse	0.0	t		27.0	female	white	4.181058495821727	neutral	039	sub-17	2.0	5.0	039_neutral	0.0		62.66106781469716	
5.0	39.90174479642883	pulse	0.0	t		27.0	female	white	4.181058495821727	neutral	039	sub-17	2.0	5.0	039_neutral	0.0		63.36105411036988	
5.0	40.25161025856505	fix	1.0		444	27.0	female	white	4.181058495821727	neutral	039	sub-17	2.0	5.0	039_neutral	0.0		63.7109195725061	3.766623742543743
5.0	40.60174618496967	pulse	1.0	t		27.0	female	white	4.181058495821727	neutral	039	sub-17	2.0	5.0	039_neutral	0.0		64.06105549891072	
5.0	41.30172734906955	pulse	1.0	t		27.0	female	white	4.181058495821727	neutral	039	sub-17	2.0	5.0	039_neutral	0.0		64.7610366630106	
5.0	42.00175560293428	pulse	1.0	t		27.0	female	white	4.181058495821727	neutral	039	sub-17	2.0	5.0	039_neutral	0.0		65.46106491687533	
5.0	42.70171020356065	pulse	1.0	t		27.0	female	white	4.181058495821727	neutral	039	sub-17	2.0	5.0	039_neutral	0.0		66.1610195175017	
5.0	43.40170163082075	pulse	1.0	t		27.0	female	white	4.181058495821727	neutral	039	sub-17	2.0	5.0	039_neutral	0.0		66.8610109447618	
6.0	44.018234001108794	face	0.0		145	24.0	female	east_asian	4.409868682849185	smiling	030	sub-17	2.0	5.0	030_smiling	0.0		67.47754331504984	1.2333261491148733
6.0	44.101700604500365	pulse	0.0	t		24.0	female	east_asian	4.409868682849185	smiling	030	sub-17	2.0	5.0	030_smiling	0.0		67.56100991844141	
6.0	44.80169716331875	pulse	0.0	t		24.0	female	east_asian	4.409868682849185	smiling	030	sub-17	2.0	5.0	030_smiling	0.0		68.2610064772598	
6.0	45.25156015022367	fix	1.0		444	24.0	female	east_asian	4.409868682849185	smiling	030	sub-17	2.0	5.0	030_smiling	0.0		68.71086946416472	3.7582725543470588
6.0	45.50167893113394	pulse	1.0	t		24.0	female	east_asian	4.409868682849185	smiling	030	sub-17	2.0	5.0	030_smiling	0.0		68.96098824507499	
6.0	46.20167337695602	pulse	1.0	t		24.0	female	east_asian	4.409868682849185	smiling	030	sub-17	2.0	5.0	030_smiling	0.0		69.66098269089707	
6.0	46.901658767063054	pulse	1.0	t		24.0	female	east_asian	4.409868682849185	smiling	030	sub-17	2.0	5.0	030_smiling	0.0		70.3609680810041	
6.0	47.60166468346142	pulse	1.0	t		24.0	female	east_asian	4.409868682849185	smiling	030	sub-17	2.0	5.0	030_smiling	0.0		71.06097399740247	
6.0	48.30164614941168	pulse	1.0	t		24.0	female	east_asian	4.409868682849185	smiling	030	sub-17	2.0	5.0	030_smiling	0.0		71.76095546335273	
7.0	49.00983270457073	face	0.0		147	19.0	male	white	3.2522881018702745	neutral	018	sub-17	2.0	5.0	018_neutral	0.0		72.46914201851177	1.2416616407281253
7.0	49.00382634502603	pulse	0.0	t		19.0	male	white	3.2522881018702745	neutral	018	sub-17	2.0	5.0	018_neutral	0.0		72.46313565896708	
7.0	49.70163564477116	pulse	0.0	t		19.0	male	white	3.2522881018702745	neutral	018	sub-17	2.0	5.0	018_neutral	0.0		73.16094495871221	
7.0	50.25149434529885	fix	1.0		443	19.0	male	white	3.2522881018702745	neutral	018	sub-17	2.0	5.0	018_neutral	0.0		73.7108036592399	3.7666246481094277
7.0	50.40162646831595	pulse	1.0	t		19.0	male	white	3.2522881018702745	neutral	018	sub-17	2.0	5.0	018_neutral	0.0		73.860935782257	
7.0	51.10161216027336	pulse	1.0	t		19.0	male	white	3.2522881018702745	neutral	018	sub-17	2.0	5.0	018_neutral	0.0		74.56092147421441	
7.0	51.80161596367543	pulse	1.0	t		19.0	male	white	3.2522881018702745	neutral	018	sub-17	2.0	5.0	018_neutral	0.0		75.26092527761648	
7.0	52.50161614478566	pulse	1.0	t		19.0	male	white	3.2522881018702745	neutral	018	sub-17	2.0	5.0	018_neutral	0.0		75.9609254587267	
7.0	53.201593988444074	pulse	1.0	t		19.0	male	white	3.2522881018702745	neutral	018	sub-17	2.0	5.0	018_neutral	0.0		76.66090330238512	
7.0	53.90156790796027	pulse	1.0	t		19.0	male	white	3.2522881018702745	neutral	018	sub-17	2.0	5.0	018_neutral	0.0		77.36087722190132	
8.0	54.01811899340828	face	0.0		146	24.0	male	white	3.1153999204138483	neutral	012	sub-17	2.0	5.0	012_neutral	0.0		77.47742830734933	1.2333318844175665
8.0	54.60159404881415	pulse	0.0	t		24.0	male	white	3.1153999204138483	neutral	012	sub-17	2.0	5.0	012_neutral	0.0		78.0609033627552	
8.0	55.251450877825846	fix	1.0		443	24.0	male	white	3.1153999204138483	neutral	012	sub-17	2.0	5.0	012_neutral	0.0		78.7107601917669	3.7583812230295734
8.0	55.30158004263649	pulse	1.0	t		24.0	male	white	3.1153999204138483	neutral	012	sub-17	2.0	5.0	012_neutral	0.0		78.76088935657754	
8.0	56.00155909372552	pulse	1.0	t		24.0	male	white	3.1153999204138483	neutral	012	sub-17	2.0	5.0	012_neutral	0.0		79.46086840766657	
8.0	56.70154478568293	pulse	1.0	t		24.0	male	white	3.1153999204138483	neutral	012	sub-17	2.0	5.0	012_neutral	0.0		80.16085409962398	
8.0	57.40154164636624	pulse	1.0	t		24.0	male	white	3.1153999204138483	neutral	012	sub-17	2.0	5.0	012_neutral	0.0		80.86085096030729	
8.0	58.10153277176141	pulse	1.0	t		24.0	male	white	3.1153999204138483	neutral	012	sub-17	2.0	5.0	012_neutral	0.0		81.56084208570246	
8.0	58.80153687701386	pulse	1.0	t		24.0	male	white	3.1153999204138483	neutral	012	sub-17	2.0	5.0	012_neutral	0.0		82.26084619095491	
9.0	59.00983210085542	face	0.0		146	28.0	female	white	5.676880222841227	neutral	124	sub-17	2.0	5.0	124_neutral	0.0		82.46914141479647	1.2415614240599098
9.0	59.50153645442333	pulse	0.0	t		28.0	female	white	5.676880222841227	neutral	124	sub-17	2.0	5.0	124_neutral	0.0		82.96084576836438	
9.0	60.20150554421707	pulse	0.0	t		28.0	female	white	5.676880222841227	neutral	124	sub-17	2.0	5.0	124_neutral	0.0		83.66081485815812	
9.0	60.25139352491533	fix	1.0		444	28.0	female	white	5.676880222841227	neutral	124	sub-17	2.0	5.0	124_neutral	0.0		83.71070283885638	3.766609253376373
9.0	60.90150331046607	pulse	1.0	t		28.0	female	white	5.676880222841227	neutral	124	sub-17	2.0	5.0	124_neutral	0.0		84.36081262440712	
9.0	61.60150500087184	pulse	1.0	t		28.0	female	white	5.676880222841227	neutral	124	sub-17	2.0	5.0	124_neutral	0.0		85.06081431481289	
9.0	62.30148827796802	pulse	1.0	t		28.0	female	white	5.676880222841227	neutral	124	sub-17	2.0	5.0	124_neutral	0.0		85.76079759190907	
9.0	63.001478497782955	pulse	1.0	t		28.0	female	white	5.676880222841227	neutral	124	sub-17	2.0	5.0	124_neutral	0.0		86.460787811724	
9.0	63.70147505661589	pulse	1.0	t		28.0	female	white	5.676880222841227	neutral	124	sub-17	2.0	5.0	124_neutral	0.0		87.16078437055694	
10.0	64.0180027782917	face	0.0		145	27.0	female	white	3.504576203740549	smiling	144	sub-17	2.0	5.0	144_smiling	0.0		87.47731209223275	1.2333330918481806
10.0	64.40146225785429	pulse	0.0	t		27.0	female	white	3.504576203740549	smiling	144	sub-17	2.0	5.0	144_smiling	0.0		87.86077157179534	
10.0	65.10145549624576	pulse	0.0	t		27.0	female	white	3.504576203740549	smiling	144	sub-17	2.0	5.0	144_smiling	0.0		88.56076481018681	
10.0	65.25133587013988	fix	1.0		444	27.0	female	white	3.504576203740549	smiling	144	sub-17	2.0	5.0	144_smiling	0.0		88.71064518408093	3.7666167998249875
10.0	65.80144843278686	pulse	1.0	t		27.0	female	white	3.504576203740549	smiling	144	sub-17	2.0	5.0	144_smiling	0.0		89.2607577467279	
10.0	66.50145616033114	pulse	1.0	t		27.0	female	white	3.504576203740549	smiling	144	sub-17	2.0	5.0	144_smiling	0.0		89.9607654742722	
10.0	67.20144305971917	pulse	1.0	t		27.0	female	white	3.504576203740549	smiling	144	sub-17	2.0	5.0	144_smiling	0.0		90.66075237366022	
10.0	67.90141697923536	pulse	1.0	t		27.0	female	white	3.504576203740549	smiling	144	sub-17	2.0	5.0	144_smiling	0.0		91.36072629317641	
10.0	68.60141142505745	pulse	1.0	t		27.0	female	white	3.504576203740549	smiling	144	sub-17	2.0	5.0	144_smiling	0.0		92.0607207389985	
11.0	69.01795266996487	face	0.0		145	24.0	male	white	3.1153999204138483	smiling	012	sub-17	2.0	5.0	012_smiling	0.0		92.47726198390592	1.2333237342681969
11.0	69.30142398233875	pulse	0.0	t		24.0	male	white	3.1153999204138483	smiling	012	sub-17	2.0	5.0	012_smiling	0.0		92.7607332962798	
11.0	70.00140514642408	pulse	0.0	t		24.0	male	white	3.1153999204138483	smiling	012	sub-17	2.0	5.0	012_smiling	0.0		93.46071446036512	
11.0	70.25127640423307	fix	1.0		444	24.0	male	white	3.1153999204138483	smiling	012	sub-17	2.0	5.0	012_smiling	0.0		93.71058571817412	3.76660985709168
11.0	70.70140230897232	pulse	1.0	t		24.0	male	white	3.1153999204138483	smiling	012	sub-17	2.0	5.0	012_smiling	0.0		94.16071162291337	
11.0	71.40138256749196	pulse	1.0	t		24.0	male	white	3.1153999204138483	smiling	012	sub-17	2.0	5.0	012_smiling	0.0		94.86069188143301	
11.0	72.10137520216813	pulse	1.0	t		24.0	male	white	3.1153999204138483	smiling	012	sub-17	2.0	5.0	012_smiling	0.0		95.56068451610918	
11.0	72.80136813870922	pulse	1.0	t		24.0	male	white	3.1153999204138483	smiling	012	sub-17	2.0	5.0	012_smiling	0.0		96.26067745265027	
11.0	73.50136801796907	pulse	1.0	t		24.0	male	white	3.1153999204138483	smiling	012	sub-17	2.0	5.0	012_smiling	0.0		96.96067733191012	
12.0	74.01788626132475	face	0.0		145	40.0	male	white	1.868682849184242	smiling	172	sub-17	2.0	5.0	172_smiling	0.0		97.4771955752658	1.2333231305528898
12.0	74.20136004892993	pulse	0.0	t		40.0	male	white	1.868682849184242	smiling	172	sub-17	2.0	5.0	172_smiling	0.0		97.66066936287098	
12.0	74.90133759073797	pulse	0.0	t		40.0	male	white	1.868682849184242	smiling	172	sub-17	2.0	5.0	172_smiling	0.0		98.36064690467902	
12.0	75.25120939187764	fix	1.0		444	40.0	male	white	1.868682849184242	smiling	172	sub-17	2.0	5.0	172_smiling	0.0		98.71051870581869	3.7666056310845306
12.0	75.6013495442894	pulse	1.0	t		40.0	male	white	1.868682849184242	smiling	172	sub-17	2.0	5.0	172_smiling	0.0		99.06065885823045	
12.0	76.30135002726456	pulse	1.0	t		40.0	male	white	1.868682849184242	smiling	172	sub-17	2.0	5.0	172_smiling	0.0		99.76065934120561	
12.0	77.00132817277336	pulse	1.0	t		40.0	male	white	1.868682849184242	smiling	172	sub-17	2.0	5.0	172_smiling	0.0		100.4606374867144	
12.0	77.7013063182967	pulse	1.0	t		40.0	male	white	1.868682849184242	smiling	172	sub-17	2.0	5.0	172_smiling	0.0		101.16061563223775	
12.0	78.40130529199087	pulse	1.0	t		40.0	male	white	1.868682849184242	smiling	172	sub-17	2.0	5.0	172_smiling	0.0		101.86061460593191	
13.0	79.01781502296217	face	0.0		145	28.0	male	east_asian	1.5563072025467568	neutral	005	sub-17	2.0	5.0	005_neutral	0.0		102.47712433690322	1.2333608627377544
13.0	79.10129279507964	pulse	0.0	t		28.0	male	east_asian	1.5563072025467568	neutral	005	sub-17	2.0	5.0	005_neutral	0.0		102.56060210902069	
13.0	79.80129176877381	pulse	0.0	t		28.0	male	east_asian	1.5563072025467568	neutral	005	sub-17	2.0	5.0	005_neutral	0.0		103.26060108271486	
13.0	80.25117588569992	fix	1.0		444	28.0	male	east_asian	1.5563072025467568	neutral	005	sub-17	2.0	5.0	005_neutral	0.0		103.71048519964097	3.766589028920862
13.0	80.5012762533006	pulse	1.0	t		28.0	male	east_asian	1.5563072025467568	neutral	005	sub-17	2.0	5.0	005_neutral	0.0		103.96058556724165	
13.0	81.20126798239653	pulse	1.0	t		28.0	male	east_asian	1.5563072025467568	neutral	005	sub-17	2.0	5.0	005_neutral	0.0		104.66057729633758	
13.0	81.90125578736479	pulse	1.0	t		28.0	male	east_asian	1.5563072025467568	neutral	005	sub-17	2.0	5.0	005_neutral	0.0		105.36056510130584	
13.0	82.60125053503725	pulse	1.0	t		28.0	male	east_asian	1.5563072025467568	neutral	005	sub-17	2.0	5.0	005_neutral	0.0		106.0605598489783	
13.0	83.30124739572057	pulse	1.0	t		28.0	male	east_asian	1.5563072025467568	neutral	005	sub-17	2.0	5.0	005_neutral	0.0		106.76055670966161	
14.0	84.01776491462078	face	0.0		146	28.0	female	white	5.676880222841227	smiling	124	sub-17	2.0	5.0	124_smiling	0.0		107.47707422856183	1.233328865855583
14.0	84.00423023030453	pulse	0.0	t		28.0	female	white	5.676880222841227	smiling	124	sub-17	2.0	5.0	124_smiling	0.0		107.46353954424558	
14.0	84.70121455362823	pulse	0.0	t		28.0	female	white	5.676880222841227	smiling	124	sub-17	2.0	5.0	124_smiling	0.0		108.16052386756928	
14.0	85.25109378047637	fix	1.0		443	28.0	female	white	5.676880222841227	smiling	124	sub-17	2.0	5.0	124_smiling	0.0		108.71040309441742	3.7666161960951285
14.0	85.40122107375646	pulse	1.0	t		28.0	female	white	5.676880222841227	smiling	124	sub-17	2.0	5.0	124_smiling	0.0		108.86053038769751	
14.0	86.10123031059629	pulse	1.0	t		28.0	female	white	5.676880222841227	smiling	124	sub-17	2.0	5.0	124_smiling	0.0		109.56053962453734	
14.0	86.80121479512309	pulse	1.0	t		28.0	female	white	5.676880222841227	smiling	124	sub-17	2.0	5.0	124_smiling	0.0		110.26052410906414	
14.0	87.50118660162843	pulse	1.0	t		28.0	female	white	5.676880222841227	smiling	124	sub-17	2.0	5.0	124_smiling	0.0		110.96049591556948	
14.0	88.20118889574951	pulse	1.0	t		28.0	female	white	5.676880222841227	smiling	124	sub-17	2.0	5.0	124_smiling	0.0		111.66049820969056	
14.0	88.90117670071777	pulse	1.0	t		28.0	female	white	5.676880222841227	smiling	124	sub-17	2.0	5.0	124_smiling	0.0		112.36048601465882	
15.0	89.0177099765715	face	0.0		146	36.0	female	white	2.7548746518105847	neutral	011	sub-17	2.0	5.0	011_neutral	0.0		112.47701929051254	1.2333312807022594
15.0	89.60117325953615	pulse	0.0	t		36.0	female	white	2.7548746518105847	neutral	011	sub-17	2.0	5.0	011_neutral	0.0		113.0604825734772	
15.0	90.25104125727376	fix	1.0		443	36.0	female	white	2.7548746518105847	neutral	011	sub-17	2.0	5.0	011_neutral	0.0		113.7103505712148	3.758317832951434
15.0	90.3011535180558	pulse	1.0	t		36.0	female	white	2.7548746518105847	neutral	011	sub-17	2.0	5.0	011_neutral	0.0		113.76046283199685	
15.0	91.00116909389908	pulse	1.0	t		36.0	female	white	2.7548746518105847	neutral	011	sub-17	2.0	5.0	011_neutral	0.0		114.46047840784013	
15.0	91.70113818369282	pulse	1.0	t		36.0	female	white	2.7548746518105847	neutral	011	sub-17	2.0	5.0	011_neutral	0.0		115.16044749763387	
15.0	92.40113564809144	pulse	1.0	t		36.0	female	white	2.7548746518105847	neutral	011	sub-17	2.0	5.0	011_neutral	0.0		115.86044496203249	
15.0	93.10112828278216	pulse	1.0	t		36.0	female	white	2.7548746518105847	neutral	011	sub-17	2.0	5.0	011_neutral	0.0		116.5604375967232	
15.0	93.80111880444747	pulse	1.0	t		36.0	female	white	2.7548746518105847	neutral	011	sub-17	2.0	5.0	011_neutral	0.0		117.26042811838852	
16.0	94.00935909022519	face	0.0		146	26.0	male	white	2.7966573816155993	smiling	117	sub-17	2.0	5.0	117_smiling	0.0		117.46866840416624	1.2416284364153398
16.0	94.50113045614853	pulse	0.0	t		26.0	male	white	2.7966573816155993	smiling	117	sub-17	2.0	5.0	117_smiling	0.0		117.96043977008958	
16.0	95.2011019608035	pulse	0.0	t		26.0	male	white	2.7966573816155993	smiling	117	sub-17	2.0	5.0	117_smiling	0.0		118.66041127474455	
16.0	95.25098752664053	fix	1.0		445	26.0	male	white	2.7966573816155993	smiling	117	sub-17	2.0	5.0	117_smiling	0.0		118.71029684058158	3.7666101589566097
16.0	95.90110697163618	pulse	1.0	t		26.0	male	white	2.7966573816155993	smiling	117	sub-17	2.0	5.0	117_smiling	0.0		119.36041628557723	
16.0	96.60106972242647	pulse	1.0	t		26.0	male	white	2.7966573816155993	smiling	117	sub-17	2.0	5.0	117_smiling	0.0		120.06037903636752	
16.0	97.30109918372182	pulse	1.0	t		26.0	male	white	2.7966573816155993	smiling	117	sub-17	2.0	5.0	117_smiling	0.0		120.76040849766287	
16.0	98.00109030910244	pulse	1.0	t		26.0	male	white	2.7966573816155993	smiling	117	sub-17	2.0	5.0	117_smiling	0.0		121.46039962304349	
16.0	98.7010597007611	pulse	1.0	t		26.0	male	white	2.7966573816155993	smiling	117	sub-17	2.0	5.0	117_smiling	0.0		122.16036901470216	
17.0	99.01759768559714	face	0.0		145	22.0	female	west_asian	3.8205332272184642	neutral	066	sub-17	2.0	5.0	066_neutral	0.0		122.47690699953819	1.2333629757340532
17.0	99.40106622088933	pulse	0.0	t		22.0	female	west_asian	3.8205332272184642	neutral	066	sub-17	2.0	5.0	066_neutral	0.0		122.86037553483038	
17.0	100.10113250877475	pulse	0.0	t		22.0	female	west_asian	3.8205332272184642	neutral	066	sub-17	2.0	5.0	066_neutral	0.0		123.5604418227158	
17.0	100.25096066133119	fix	1.0		444	22.0	female	west_asian	3.8205332272184642	neutral	066	sub-17	2.0	5.0	066_neutral	0.0		123.71026997527224	3.766576350913965
17.0	100.80114174561459	pulse	1.0	t		22.0	female	west_asian	3.8205332272184642	neutral	066	sub-17	2.0	5.0	066_neutral	0.0		124.26045105955563	
17.0	101.50104140820622	pulse	1.0	t		22.0	female	west_asian	3.8205332272184642	neutral	066	sub-17	2.0	5.0	066_neutral	0.0		124.96035072214727	
17.0	102.20102921315993	pulse	1.0	t		22.0	female	west_asian	3.8205332272184642	neutral	066	sub-17	2.0	5.0	066_neutral	0.0		125.66033852710098	
17.0	102.90101460326696	pulse	1.0	t		22.0	female	west_asian	3.8205332272184642	neutral	066	sub-17	2.0	5.0	066_neutral	0.0		126.360323917208	
17.0	103.60100120079005	pulse	1.0	t		22.0	female	west_asian	3.8205332272184642	neutral	066	sub-17	2.0	5.0	066_neutral	0.0		127.0603105147311	
18.0	104.01753701224516	face	0.0		145	20.0	male	black	2.609629924393156	smiling	043	sub-17	2.0	5.0	043_smiling	0.0		127.4768463261862	1.2333527125883847
18.0	104.30098930760869	pulse	0.0	t		20.0	male	black	2.609629924393156	smiling	043	sub-17	2.0	5.0	043_smiling	0.0		127.76029862154974	
18.0	105.00101122245542	pulse	0.0	t		20.0	male	black	2.609629924393156	smiling	043	sub-17	2.0	5.0	043_smiling	0.0		128.46032053639647	
18.0	105.25088972483354	fix	1.0		444	20.0	male	black	2.609629924393156	smiling	043	sub-17	2.0	5.0	043_smiling	0.0		128.7101990387746	3.7665917456470197
18.0	105.70098242526001	pulse	1.0	t		20.0	male	black	2.609629924393156	smiling	043	sub-17	2.0	5.0	043_smiling	0.0		129.16029173920106	
18.0	106.40097777664778	pulse	1.0	t		20.0	male	black	2.609629924393156	smiling	043	sub-17	2.0	5.0	043_smiling	0.0		129.86028709058883	
18.0	107.10096105374396	pulse	1.0	t		20.0	male	black	2.609629924393156	smiling	043	sub-17	2.0	5.0	043_smiling	0.0		130.560270367685	
18.0	107.80096787572256	pulse	1.0	t		20.0	male	black	2.609629924393156	smiling	043	sub-17	2.0	5.0	043_smiling	0.0		131.2602771896636	
18.0	108.50093938037753	pulse	1.0	t		20.0	male	black	2.609629924393156	smiling	043	sub-17	2.0	5.0	043_smiling	0.0		131.96024869431858	
19.0	109.01748147048056	face	0.0		145	24.0	female	east_asian	4.409868682849185	neutral	030	sub-17	2.0	5.0	030_neutral	0.0		132.4767907844216	1.2333122636773624
19.0	109.20094590050576	pulse	0.0	t		24.0	female	east_asian	4.409868682849185	neutral	030	sub-17	2.0	5.0	030_neutral	0.0		132.6602552144468	
19.0	109.90093430917477	pulse	0.0	t		24.0	female	east_asian	4.409868682849185	neutral	030	sub-17	2.0	5.0	030_neutral	0.0		133.36024362311582	
19.0	110.25079373415792	fix	1.0		444	24.0	female	east_asian	4.409868682849185	neutral	030	sub-17	2.0	5.0	030_neutral	0.0		133.71010304809897	3.7666285722661996
19.0	110.60092845314648	pulse	1.0	t		24.0	female	east_asian	4.409868682849185	neutral	030	sub-17	2.0	5.0	030_neutral	0.0		134.06023776708753	
19.0	111.30091323952365	pulse	1.0	t		24.0	female	east_asian	4.409868682849185	neutral	030	sub-17	2.0	5.0	030_neutral	0.0		134.7602225534647	
19.0	112.00095296396466	pulse	1.0	t		24.0	female	east_asian	4.409868682849185	neutral	030	sub-17	2.0	5.0	030_neutral	0.0		135.4602622779057	
19.0	112.70090062188683	pulse	1.0	t		24.0	female	east_asian	4.409868682849185	neutral	030	sub-17	2.0	5.0	030_neutral	0.0		136.16020993582788	
19.0	113.4008911435667	pulse	1.0	t		24.0	female	east_asian	4.409868682849185	neutral	030	sub-17	2.0	5.0	030_neutral	0.0		136.86020045750774	
20.0	114.01742230642412	face	0.0		145	31.0	female	east_asian	3.395941106247513	smiling	087	sub-17	2.0	5.0	087_smiling	0.0		137.47673162036517	1.233327658410417
20.0	114.10089313582284	pulse	0.0	t		31.0	female	east_asian	3.395941106247513	smiling	087	sub-17	2.0	5.0	087_smiling	0.0		137.5602024497639	
20.0	114.80090539123921	pulse	0.0	t		31.0	female	east_asian	3.395941106247513	smiling	087	sub-17	2.0	5.0	087_smiling	0.0		138.26021470518026	
20.0	115.25074996483454	fix	1.0		1185	31.0	female	east_asian	3.395941106247513	smiling	087	sub-17	2.0	5.0	087_smiling	0.0		138.7100592787756	10.016539675241802
20.0	115.50085848258459	pulse	1.0	t		31.0	female	east_asian	3.395941106247513	smiling	087	sub-17	2.0	5.0	087_smiling	0.0		138.96016779652564	
20.0	116.20088100114663	pulse	1.0	t		31.0	female	east_asian	3.395941106247513	smiling	087	sub-17	2.0	5.0	087_smiling	0.0		139.66019031508768	
20.0	116.90086397639243	pulse	1.0	t		31.0	female	east_asian	3.395941106247513	smiling	087	sub-17	2.0	5.0	087_smiling	0.0		140.36017329033348	
20.0	117.60084725348861	pulse	1.0	t		31.0	female	east_asian	3.395941106247513	smiling	087	sub-17	2.0	5.0	087_smiling	0.0		141.06015656742966	
20.0	118.30083596402255	pulse	1.0	t		31.0	female	east_asian	3.395941106247513	smiling	087	sub-17	2.0	5.0	087_smiling	0.0		141.7601452779636	
20.0	119.00082618383749	pulse	1.0	t		31.0	female	east_asian	3.395941106247513	smiling	087	sub-17	2.0	5.0	087_smiling	0.0		142.46013549777854	
20.0	119.70081972409389	pulse	1.0	t		31.0	female	east_asian	3.395941106247513	smiling	087	sub-17	2.0	5.0	087_smiling	0.0		143.16012903803494	
20.0	120.4015814915474	pulse	1.0	t		31.0	female	east_asian	3.395941106247513	smiling	087	sub-17	2.0	5.0	087_smiling	0.0		143.86089080548845	
20.0	121.1008016730193	pulse	1.0	t		31.0	female	east_asian	3.395941106247513	smiling	087	sub-17	2.0	5.0	087_smiling	0.0		144.56011098696035	
20.0	121.80080275969522	pulse	1.0	t		31.0	female	east_asian	3.395941106247513	smiling	087	sub-17	2.0	5.0	087_smiling	0.0		145.26011207363626	
20.0	122.50077275506919	pulse	1.0	t		31.0	female	east_asian	3.395941106247513	smiling	087	sub-17	2.0	5.0	087_smiling	0.0		145.96008206901024	
20.0	123.20077776590188	pulse	1.0	t		31.0	female	east_asian	3.395941106247513	smiling	087	sub-17	2.0	5.0	087_smiling	0.0		146.66008707984292	
20.0	123.9007631560089	pulse	1.0	t		31.0	female	east_asian	3.395941106247513	smiling	087	sub-17	2.0	5.0	087_smiling	0.0		147.36007246994996	
20.0	124.60076635569567	pulse	1.0	t		31.0	female	east_asian	3.395941106247513	smiling	087	sub-17	2.0	5.0	087_smiling	0.0		148.06007566963672	
21.0	125.26728964007634	face	0.0		145	40.0	male	white	1.868682849184242	neutral	172	sub-17	2.0	5.0	172_neutral	0.0		148.7265989540174	1.2333370159904007
21.0	125.30076080151775	pulse	0.0	t		40.0	male	white	1.868682849184242	neutral	172	sub-17	2.0	5.0	172_neutral	0.0		148.7600701154588	
21.0	126.00074921018677	pulse	0.0	t		40.0	male	white	1.868682849184242	neutral	172	sub-17	2.0	5.0	172_neutral	0.0		149.46005852412782	
21.0	126.50062665606674	fix	1.0		443	40.0	male	white	1.868682849184242	neutral	172	sub-17	2.0	5.0	172_neutral	0.0		149.9599359700078	3.7665805769211147
21.0	126.70074033558194	pulse	1.0	t		40.0	male	white	1.868682849184242	neutral	172	sub-17	2.0	5.0	172_neutral	0.0		150.160049649523	
21.0	127.40072964983119	pulse	1.0	t		40.0	male	white	1.868682849184242	neutral	172	sub-17	2.0	5.0	172_neutral	0.0		150.86003896377224	
21.0	128.1007174547849	pulse	1.0	t		40.0	male	white	1.868682849184242	neutral	172	sub-17	2.0	5.0	172_neutral	0.0		151.56002676872595	
21.0	128.80073906778125	pulse	1.0	t		40.0	male	white	1.868682849184242	neutral	172	sub-17	2.0	5.0	172_neutral	0.0		152.2600483817223	
21.0	129.50072475973866	pulse	1.0	t		40.0	male	white	1.868682849184242	neutral	172	sub-17	2.0	5.0	172_neutral	0.0		152.9600340736797	
21.0	130.20069203838648	pulse	1.0	t		40.0	male	white	1.868682849184242	neutral	172	sub-17	2.0	5.0	172_neutral	0.0		153.66000135232753	
22.0	130.26720723298786	face	0.0		146	26.0	female	white	4.854755272582572	neutral	027	sub-17	2.0	5.0	027_neutral	1.0	attractiveness	153.7265165469289	1.2333641831646673
22.0	130.90069372879225	pulse	0.0	t		26.0	female	white	4.854755272582572	neutral	027	sub-17	2.0	5.0	027_neutral	1.0	attractiveness	154.3600030427333	
22.0	131.50057141615252	fix	1.0		177	26.0	female	white	4.854755272582572	neutral	027	sub-17	2.0	5.0	027_neutral	1.0	attractiveness	154.95988073009357	1.4999833978363313
22.0	131.6006863634684	pulse	1.0	t		26.0	female	white	4.854755272582572	neutral	027	sub-17	2.0	5.0	027_neutral	1.0	attractiveness	155.05999567740946	
22.0	132.30068050744012	pulse	1.0	t		26.0	female	white	4.854755272582572	neutral	027	sub-17	2.0	5.0	027_neutral	1.0	attractiveness	155.75998982138117	
22.0	133.00055481398886	rating	2.0		294	26.0	female	white	4.854755272582572	neutral	027	sub-17	2.0	5.0	027_neutral	1.0	attractiveness	156.4598641279299	2.4999622678296873
22.0	133.00849909834506	pulse	2.0	t		26.0	female	white	4.854755272582572	neutral	027	sub-17	2.0	5.0	027_neutral	1.0	attractiveness	156.4678084122861	
22.0	133.700659437789	pulse	2.0	t		26.0	female	white	4.854755272582572	neutral	027	sub-17	2.0	5.0	027_neutral	1.0	attractiveness	157.15996875173005	
22.0	134.07564819359686	response	2.0	y		26.0	female	white	4.854755272582572	neutral	027	sub-17	2.0	5.0	027_neutral	1.0	attractiveness	157.5349575075379	
22.0	134.40065116688493	pulse	2.0	t		26.0	female	white	4.854755272582572	neutral	027	sub-17	2.0	5.0	027_neutral	1.0	attractiveness	157.85996048082598	
22.0	135.10064108484949	pulse	2.0	t		26.0	female	white	4.854755272582572	neutral	027	sub-17	2.0	5.0	027_neutral	1.0	attractiveness	158.55995039879053	
22.0	135.50051708181854	fix	3.0		444	26.0	female	white	4.854755272582572	neutral	027	sub-17	2.0	5.0	027_neutral	1.0	attractiveness	158.9598263957596	3.7666104608069872
22.0	135.80063824739773	pulse	3.0	t		26.0	female	white	4.854755272582572	neutral	027	sub-17	2.0	5.0	027_neutral	1.0	attractiveness	159.25994756133878	
22.0	136.50063450436573	pulse	3.0	t		26.0	female	white	4.854755272582572	neutral	027	sub-17	2.0	5.0	027_neutral	1.0	attractiveness	159.95994381830678	
22.0	137.2006165740313	pulse	3.0	t		26.0	female	white	4.854755272582572	neutral	027	sub-17	2.0	5.0	027_neutral	1.0	attractiveness	160.65992588797235	
22.0	137.9006116235687	pulse	3.0	t		26.0	female	white	4.854755272582572	neutral	027	sub-17	2.0	5.0	027_neutral	1.0	attractiveness	161.35992093750974	
22.0	138.60060033410264	pulse	3.0	t		26.0	female	white	4.854755272582572	neutral	027	sub-17	2.0	5.0	027_neutral	1.0	attractiveness	162.05990964804369	
23.0	139.26712754262553	face	0.0		145	24.0	female	east_asian	2.9076800636689217	neutral	034	sub-17	2.0	5.0	034_neutral	0.0		162.72643685656658	1.2333352048444794
23.0	139.30070767459983	pulse	0.0	t		24.0	female	east_asian	2.9076800636689217	neutral	034	sub-17	2.0	5.0	034_neutral	0.0		162.76001698854088	
23.0	140.00059164060804	pulse	0.0	t		24.0	female	east_asian	2.9076800636689217	neutral	034	sub-17	2.0	5.0	034_neutral	0.0		163.45990095454908	
23.0	140.50046274747	fix	1.0		443	24.0	female	east_asian	2.9076800636689217	neutral	034	sub-17	2.0	5.0	034_neutral	0.0		163.95977206141106	3.7583181348163635
23.0	140.70058035112743	pulse	1.0	t		24.0	female	east_asian	2.9076800636689217	neutral	034	sub-17	2.0	5.0	034_neutral	0.0		164.15988966506848	
23.0	141.40056694866507	pulse	1.0	t		24.0	female	east_asian	2.9076800636689217	neutral	034	sub-17	2.0	5.0	034_neutral	0.0		164.85987626260612	
23.0	142.10055958334124	pulse	1.0	t		24.0	female	east_asian	2.9076800636689217	neutral	034	sub-17	2.0	5.0	034_neutral	0.0		165.55986889728229	
23.0	142.80055795330554	pulse	1.0	t		24.0	female	east_asian	2.9076800636689217	neutral	034	sub-17	2.0	5.0	034_neutral	0.0		166.2598672672466	
23.0	143.5005400229711	pulse	1.0	t		24.0	female	east_asian	2.9076800636689217	neutral	034	sub-17	2.0	5.0	034_neutral	0.0		166.95984933691216	
23.0	144.20053446880775	pulse	1.0	t		24.0	female	east_asian	2.9076800636689217	neutral	034	sub-17	2.0	5.0	034_neutral	0.0		167.6598437827488	
24.0	144.25878088228637	face	0.0		147	20.0	male	black	3.1070433744528456	smiling	082	sub-17	2.0	5.0	082_smiling	0.0		167.71809019622742	1.2416272289847257
24.0	144.9005313294765	pulse	0.0	t		20.0	male	black	3.1070433744528456	smiling	082	sub-17	2.0	5.0	082_smiling	0.0		168.35984064341756	
24.0	145.5004081112711	fix	1.0		443	20.0	male	black	3.1070433744528456	smiling	082	sub-17	2.0	5.0	082_smiling	0.0		168.95971742521215	3.766603518088232
24.0	145.6005227567366	pulse	1.0	t		20.0	male	black	3.1070433744528456	smiling	082	sub-17	2.0	5.0	082_smiling	0.0		169.05983207067766	
24.0	146.30051388211723	pulse	1.0	t		20.0	male	black	3.1070433744528456	smiling	082	sub-17	2.0	5.0	082_smiling	0.0		169.75982319605828	
24.0	147.00049806479365	pulse	1.0	t		20.0	male	black	3.1070433744528456	smiling	082	sub-17	2.0	5.0	082_smiling	0.0		170.4598073787347	
24.0	147.70049673662288	pulse	1.0	t		20.0	male	black	3.1070433744528456	smiling	082	sub-17	2.0	5.0	082_smiling	0.0		171.15980605056393	
24.0	148.40048695643782	pulse	1.0	t		20.0	male	black	3.1070433744528456	smiling	082	sub-17	2.0	5.0	082_smiling	0.0		171.85979627037887	
24.0	149.10047415767622	pulse	1.0	t		20.0	male	black	3.1070433744528456	smiling	082	sub-17	2.0	5.0	082_smiling	0.0		172.55978347161727	
25.0	149.26701162935933	face	0.0		146	23.0	male	white	2.6275368085953046	neutral	141	sub-17	2.0	5.0	141_neutral	0.0		172.72632094330038	1.2333391290012514
25.0	149.8004960725375	pulse	0.0	t		23.0	male	white	2.6275368085953046	neutral	141	sub-17	2.0	5.0	141_neutral	0.0		173.25980538647855	
25.0	150.50035075836058	fix	1.0		444	23.0	male	white	2.6275368085953046	neutral	141	sub-17	2.0	5.0	141_neutral	0.0		173.95966007230163	3.7666032162233023
25.0	150.50783893611515	pulse	1.0	t		23.0	male	white	2.6275368085953046	neutral	141	sub-17	2.0	5.0	141_neutral	0.0		173.9671482500562	
25.0	151.20046323044517	pulse	1.0	t		23.0	male	white	2.6275368085953046	neutral	141	sub-17	2.0	5.0	141_neutral	0.0		174.65977254438621	
25.0	151.90044530011073	pulse	1.0	t		23.0	male	white	2.6275368085953046	neutral	141	sub-17	2.0	5.0	141_neutral	0.0		175.35975461405178	
25.0	152.60044034964812	pulse	1.0	t		23.0	male	white	2.6275368085953046	neutral	141	sub-17	2.0	5.0	141_neutral	0.0		176.05974966358917	
25.0	153.30042543789023	pulse	1.0	t		23.0	male	white	2.6275368085953046	neutral	141	sub-17	2.0	5.0	141_neutral	0.0		176.75973475183127	
25.0	154.00042320413922	pulse	1.0	t		23.0	male	white	2.6275368085953046	neutral	141	sub-17	2.0	5.0	141_neutral	0.0		177.45973251808027	
26.0	154.26695397458388	face	0.0		145	26.0	female	white	4.854755272582572	smiling	027	sub-17	2.0	5.0	027_smiling	0.0		177.72626328852493	1.2333306769869523
26.0	154.70041523511463	pulse	0.0	t		26.0	female	white	4.854755272582572	smiling	027	sub-17	2.0	5.0	027_smiling	0.0		178.15972454905568	
26.0	155.40042266080854	pulse	0.0	t		26.0	female	white	4.854755272582572	smiling	027	sub-17	2.0	5.0	027_smiling	0.0		178.8597319747496	
26.0	155.50028465157084	fix	1.0		444	26.0	female	white	4.854755272582572	smiling	027	sub-17	2.0	5.0	027_smiling	0.0		178.95959396551189	3.7666107626719167
26.0	156.10041921962693	pulse	1.0	t		26.0	female	white	4.854755272582572	smiling	027	sub-17	2.0	5.0	027_smiling	0.0		179.55972853356798	
26.0	156.80043841776205	pulse	1.0	t		26.0	female	white	4.854755272582572	smiling	027	sub-17	2.0	5.0	027_smiling	0.0		180.2597477317031	
26.0	157.50038184967707	pulse	1.0	t		26.0	female	white	4.854755272582572	smiling	027	sub-17	2.0	5.0	027_smiling	0.0		180.95969116361812	
26.0	158.200372069492	pulse	1.0	t		26.0	female	white	4.854755272582572	smiling	027	sub-17	2.0	5.0	027_smiling	0.0		181.65968138343305	
26.0	158.90036228930694	pulse	1.0	t		26.0	female	white	4.854755272582572	smiling	027	sub-17	2.0	5.0	027_smiling	0.0		182.359671603248	
27.0	159.26689541424275	face	0.0		145	20.0	male	black	3.1070433744528456	neutral	082	sub-17	2.0	5.0	082_neutral	1.0	trustworthiness	182.7262047281838	1.2333376197057078
27.0	159.60035975370556	pulse	0.0	t		20.0	male	black	3.1070433744528456	neutral	082	sub-17	2.0	5.0	082_neutral	1.0	trustworthiness	183.0596690676466	
27.0	160.30034544566297	pulse	0.0	t		20.0	male	black	3.1070433744528456	neutral	082	sub-17	2.0	5.0	082_neutral	1.0	trustworthiness	183.75965475960402	
27.0	160.50023303394846	fix	1.0		177	20.0	male	black	3.1070433744528456	neutral	082	sub-17	2.0	5.0	082_neutral	1.0	trustworthiness	183.9595423478895	1.49999607585778
27.0	161.0003441174922	pulse	1.0	t		20.0	male	black	3.1070433744528456	neutral	082	sub-17	2.0	5.0	082_neutral	1.0	trustworthiness	184.45965343143325	
27.0	161.7003298094496	pulse	1.0	t		20.0	male	black	3.1070433744528456	neutral	082	sub-17	2.0	5.0	082_neutral	1.0	trustworthiness	185.15963912339066	
27.0	162.00022910980624	rating	2.0		295	20.0	male	black	3.1070433744528456	neutral	082	sub-17	2.0	5.0	082_neutral	1.0	trustworthiness	185.4595384237473	2.4999589473882224
27.0	162.40032606641762	pulse	2.0	t		20.0	male	black	3.1070433744528456	neutral	082	sub-17	2.0	5.0	082_neutral	1.0	trustworthiness	185.85963538035867	
27.0	162.9836520042445	response	2.0	g		20.0	male	black	3.1070433744528456	neutral	082	sub-17	2.0	5.0	082_neutral	1.0	trustworthiness	186.44296131818555	
27.0	163.10031296580564	pulse	2.0	t		20.0	male	black	3.1070433744528456	neutral	082	sub-17	2.0	5.0	082_neutral	1.0	trustworthiness	186.5596222797467	
27.0	163.80031707107264	pulse	2.0	t		20.0	male	black	3.1070433744528456	neutral	082	sub-17	2.0	5.0	082_neutral	1.0	trustworthiness	187.2596263850137	
27.0	164.50018805719446	fix	3.0		443	20.0	male	black	3.1070433744528456	neutral	082	sub-17	2.0	5.0	082_neutral	1.0	trustworthiness	187.9594973711355	3.76659959393146
27.0	164.50813626569288	pulse	3.0	t		20.0	male	black	3.1070433744528456	neutral	082	sub-17	2.0	5.0	082_neutral	1.0	trustworthiness	187.96744557963393	
27.0	165.2003041515709	pulse	3.0	t		20.0	male	black	3.1070433744528456	neutral	082	sub-17	2.0	5.0	082_neutral	1.0	trustworthiness	188.65961346551194	
27.0	165.90028441009053	pulse	3.0	t		20.0	male	black	3.1070433744528456	neutral	082	sub-17	2.0	5.0	082_neutral	1.0	trustworthiness	189.35959372403158	
27.0	166.6002888172079	pulse	3.0	t		20.0	male	black	3.1070433744528456	neutral	082	sub-17	2.0	5.0	082_neutral	1.0	trustworthiness	190.05959813114896	
27.0	167.30026696273126	pulse	3.0	t		20.0	male	black	3.1070433744528456	neutral	082	sub-17	2.0	5.0	082_neutral	1.0	trustworthiness	190.7595762766723	
27.0	168.0002592955425	pulse	3.0	t		20.0	male	black	3.1070433744528456	neutral	082	sub-17	2.0	5.0	082_neutral	1.0	trustworthiness	191.45956860948354	
28.0	168.26678765112592	face	0.0		145	21.0	male	east_asian/white	3.501790688420215	smiling	036	sub-17	2.0	5.0	036_smiling	0.0		191.72609696506697	1.2333409401471727
28.0	168.70025374137913	pulse	0.0	t		21.0	male	east_asian/white	3.501790688420215	smiling	036	sub-17	2.0	5.0	036_smiling	0.0		192.15956305532018	
28.0	169.40024728162098	pulse	0.0	t		21.0	male	east_asian/white	3.501790688420215	smiling	036	sub-17	2.0	5.0	036_smiling	0.0		192.85955659556203	
28.0	169.5001285912731	fix	1.0		444	21.0	male	east_asian/white	3.501790688420215	smiling	036	sub-17	2.0	5.0	036_smiling	0.0		192.95943790521414	3.758332322118804
28.0	170.10023508658924	pulse	1.0	t		21.0	male	east_asian/white	3.501790688420215	smiling	036	sub-17	2.0	5.0	036_smiling	0.0		193.55954440053029	
28.0	170.80023345655354	pulse	1.0	t		21.0	male	east_asian/white	3.501790688420215	smiling	036	sub-17	2.0	5.0	036_smiling	0.0		194.2595427704946	
28.0	171.5002149225038	pulse	1.0	t		21.0	male	east_asian/white	3.501790688420215	smiling	036	sub-17	2.0	5.0	036_smiling	0.0		194.95952423644485	
28.0	172.2002084627602	pulse	1.0	t		21.0	male	east_asian/white	3.501790688420215	smiling	036	sub-17	2.0	5.0	036_smiling	0.0		195.65951777670125	
28.0	172.90020260671736	pulse	1.0	t		21.0	male	east_asian/white	3.501790688420215	smiling	036	sub-17	2.0	5.0	036_smiling	0.0		196.3595119206584	
29.0	173.2584609133919	face	0.0		146	40.0	female	west_asian	1.5777954635893354	neutral	038	sub-17	2.0	5.0	038_neutral	0.0		196.71777022733295	1.241603382251924
29.0	173.60019705253944	pulse	0.0	t		40.0	female	west_asian	1.5777954635893354	neutral	038	sub-17	2.0	5.0	038_neutral	0.0		197.0595063664805	
29.0	174.30018878164992	pulse	0.0	t		40.0	female	west_asian	1.5777954635893354	neutral	038	sub-17	2.0	5.0	038_neutral	0.0		197.75949809559097	
29.0	174.50006429564382	fix	1.0		444	40.0	female	west_asian	1.5777954635893354	neutral	038	sub-17	2.0	5.0	038_neutral	0.0		197.95937360958487	3.7666104608069872
29.0	175.0001726624614	pulse	1.0	t		40.0	female	west_asian	1.5777954635893354	neutral	038	sub-17	2.0	5.0	038_neutral	0.0		198.45948197640246	
29.0	175.70016861757904	pulse	1.0	t		40.0	female	west_asian	1.5777954635893354	neutral	038	sub-17	2.0	5.0	038_neutral	0.0		199.1594779315201	
29.0	176.4001606485399	pulse	1.0	t		40.0	female	west_asian	1.5777954635893354	neutral	038	sub-17	2.0	5.0	038_neutral	0.0		199.85946996248094	
29.0	177.10015237763582	pulse	1.0	t		40.0	female	west_asian	1.5777954635893354	neutral	038	sub-17	2.0	5.0	038_neutral	0.0		200.55946169157687	
29.0	177.80015135133	pulse	1.0	t		40.0	female	west_asian	1.5777954635893354	neutral	038	sub-17	2.0	5.0	038_neutral	0.0		201.25946066527104	
30.0	178.2666747564508	face	0.0		145	22.0	male	black	2.767608436132113	neutral	044	sub-17	2.0	5.0	044_neutral	0.0		201.72598407039186	1.2333346011291724
30.0	178.50012466713088	pulse	0.0	t		22.0	male	black	2.767608436132113	neutral	044	sub-17	2.0	5.0	044_neutral	0.0		201.95943398107192	
30.0	179.20012877238332	pulse	0.0	t		22.0	male	black	2.767608436132113	neutral	044	sub-17	2.0	5.0	044_neutral	0.0		202.65943808632437	
30.0	179.50000935757998	fix	1.0		444	22.0	male	black	2.767608436132113	neutral	044	sub-17	2.0	5.0	044_neutral	0.0		202.95931867152103	3.758311192097608
30.0	179.90012019964342	pulse	1.0	t		22.0	male	black	2.767608436132113	neutral	044	sub-17	2.0	5.0	044_neutral	0.0		203.35942951358447	
30.0	180.60010951387812	pulse	1.0	t		22.0	male	black	2.767608436132113	neutral	044	sub-17	2.0	5.0	044_neutral	0.0		204.05941882781917	
30.0	181.3001012429886	pulse	1.0	t		22.0	male	black	2.767608436132113	neutral	044	sub-17	2.0	5.0	044_neutral	0.0		204.75941055692965	
30.0	182.00012164855434	pulse	1.0	t		22.0	male	black	2.767608436132113	neutral	044	sub-17	2.0	5.0	044_neutral	0.0		205.4594309624954	
30.0	182.70008832348685	pulse	1.0	t		22.0	male	black	2.767608436132113	neutral	044	sub-17	2.0	5.0	044_neutral	0.0		206.1593976374279	
31.0	183.2583205496776	face	0.0		146	37.0	male	white	3.898925586947871	smiling	101	sub-17	2.0	5.0	101_smiling	0.0		206.71762986361864	1.2416332661377965
31.0	183.40008126002795	pulse	0.0	t		37.0	male	white	3.898925586947871	smiling	101	sub-17	2.0	5.0	101_smiling	0.0		206.859390573969	
31.0	184.10007812071126	pulse	0.0	t		37.0	male	white	3.898925586947871	smiling	101	sub-17	2.0	5.0	101_smiling	0.0		207.5593874346523	
31.0	184.4999538158154	fix	1.0		444	37.0	male	white	3.898925586947871	smiling	101	sub-17	2.0	5.0	101_smiling	0.0		207.95926312975644	3.7666071403800743
31.0	184.8000767925405	pulse	1.0	t		37.0	male	white	3.898925586947871	smiling	101	sub-17	2.0	5.0	101_smiling	0.0		208.25938610648154	
31.0	185.5000639937789	pulse	1.0	t		37.0	male	white	3.898925586947871	smiling	101	sub-17	2.0	5.0	101_smiling	0.0		208.95937330771994	
31.0	186.20004545972915	pulse	1.0	t		37.0	male	white	3.898925586947871	smiling	101	sub-17	2.0	5.0	101_smiling	0.0		209.6593547736702	
31.0	186.90004171669716	pulse	1.0	t		37.0	male	white	3.898925586947871	smiling	101	sub-17	2.0	5.0	101_smiling	0.0		210.3593510306382	
31.0	187.60001895665482	pulse	1.0	t		37.0	male	white	3.898925586947871	smiling	101	sub-17	2.0	5.0	101_smiling	0.0		211.05932827059587	
32.0	188.26656095619546	face	0.0		145	34.0	male	white	2.651014723438122	neutral	121	sub-17	2.0	5.0	121_neutral	0.0		211.7258702701365	1.2333339974138653
32.0	188.30002970277565	pulse	0.0	t		34.0	male	white	2.651014723438122	neutral	121	sub-17	2.0	5.0	121_neutral	0.0		211.7593390167167	
32.0	189.00002535602835	pulse	0.0	t		34.0	male	white	2.651014723438122	neutral	121	sub-17	2.0	5.0	121_neutral	0.0		212.4593346699694	
32.0	189.49989495360933	fix	1.0		443	34.0	male	white	2.651014723438122	neutral	121	sub-17	2.0	5.0	121_neutral	0.0		212.95920426755038	3.766605329234153
32.0	189.70001436841267	pulse	1.0	t		34.0	male	white	2.651014723438122	neutral	121	sub-17	2.0	5.0	121_neutral	0.0		213.15932368235372	
32.0	190.39998436378664	pulse	1.0	t		34.0	male	white	2.651014723438122	neutral	121	sub-17	2.0	5.0	121_neutral	0.0		213.8592936777277	
32.0	191.0999779040285	pulse	1.0	t		34.0	male	white	2.651014723438122	neutral	121	sub-17	2.0	5.0	121_neutral	0.0		214.55928721796954	
32.0	191.79999076316017	pulse	1.0	t		34.0	male	white	2.651014723438122	neutral	121	sub-17	2.0	5.0	121_neutral	0.0		215.25930007710122	
32.0	192.49999547214247	pulse	1.0	t		34.0	male	white	2.651014723438122	neutral	121	sub-17	2.0	5.0	121_neutral	0.0		215.95930478608352	
32.0	193.1999648637866	pulse	1.0	t		34.0	male	white	2.651014723438122	neutral	121	sub-17	2.0	5.0	121_neutral	0.0		216.65927417772764	
33.0	193.26650028284348	face	0.0		146	20.0	male	black	2.609629924393156	neutral	043	sub-17	2.0	5.0	043_neutral	0.0		216.72580959678453	1.233336110424716
33.0	193.89996413933113	pulse	0.0	t		20.0	male	black	2.609629924393156	neutral	043	sub-17	2.0	5.0	043_neutral	0.0		217.35927345327218	
33.0	194.4998363932682	fix	1.0		443	20.0	male	black	2.609629924393156	neutral	043	sub-17	2.0	5.0	043_neutral	0.0		217.95914570720925	3.758376393292565
33.0	194.59994952943816	pulse	1.0	t		20.0	male	black	2.609629924393156	neutral	043	sub-17	2.0	5.0	043_neutral	0.0		218.0592588433792	
33.0	195.29996691642737	pulse	1.0	t		20.0	male	black	2.609629924393156	neutral	043	sub-17	2.0	5.0	043_neutral	0.0		218.7592762303684	
33.0	195.99993027093296	pulse	1.0	t		20.0	male	black	2.609629924393156	neutral	043	sub-17	2.0	5.0	043_neutral	0.0		219.459239584874	
33.0	196.69992984832788	pulse	1.0	t		20.0	male	black	2.609629924393156	neutral	043	sub-17	2.0	5.0	043_neutral	0.0		220.15923916226893	
33.0	197.3999173514312	pulse	1.0	t		20.0	male	black	2.609629924393156	neutral	043	sub-17	2.0	5.0	043_neutral	0.0		220.85922666537226	
33.0	198.0999124009686	pulse	1.0	t		20.0	male	black	2.609629924393156	neutral	043	sub-17	2.0	5.0	043_neutral	0.0		221.55922171490965	
34.0	198.25821278656076	face	0.0		147	54.0	female	white	2.286908077994429	neutral	136	sub-17	2.0	5.0	136_neutral	0.0		221.7175221005018	1.2415686686435947
34.0	198.79990835607168	pulse	0.0	t		54.0	female	white	2.286908077994429	neutral	136	sub-17	2.0	5.0	136_neutral	0.0		222.25921767001273	
34.0	199.49978145520436	fix	1.0		444	54.0	female	white	2.286908077994429	neutral	136	sub-17	2.0	5.0	136_neutral	0.0		222.9590907691454	3.7665832936472725
34.0	199.50732396730746	pulse	1.0	t		54.0	female	white	2.286908077994429	neutral	136	sub-17	2.0	5.0	136_neutral	0.0		222.9666332812485	
34.0	200.19988638085488	pulse	1.0	t		54.0	female	white	2.286908077994429	neutral	136	sub-17	2.0	5.0	136_neutral	0.0		223.65919569479593	
34.0	200.89987569510413	pulse	1.0	t		54.0	female	white	2.286908077994429	neutral	136	sub-17	2.0	5.0	136_neutral	0.0		224.35918500904518	
34.0	201.59986289634253	pulse	1.0	t		54.0	female	white	2.286908077994429	neutral	136	sub-17	2.0	5.0	136_neutral	0.0		225.05917221028358	
34.0	202.29987484990852	pulse	1.0	t		54.0	female	white	2.286908077994429	neutral	136	sub-17	2.0	5.0	136_neutral	0.0		225.75918416384957	
34.0	202.99985208985163	pulse	1.0	t		54.0	female	white	2.286908077994429	neutral	136	sub-17	2.0	5.0	136_neutral	0.0		226.45916140379268	
35.0	203.26636474885163	face	0.0		145	27.0	male	black	3.5523278949462798	smiling	042	sub-17	2.0	5.0	042_smiling	0.0		226.72567406279268	1.2333409401326207
35.0	203.6998453282431	pulse	0.0	t		27.0	male	black	3.5523278949462798	smiling	042	sub-17	2.0	5.0	042_smiling	0.0		227.15915464218415	
35.0	204.39983464249235	pulse	0.0	t		27.0	male	black	3.5523278949462798	smiling	042	sub-17	2.0	5.0	042_smiling	0.0		227.8591439564334	
35.0	204.49970568898425	fix	1.0		444	27.0	male	black	3.5523278949462798	smiling	042	sub-17	2.0	5.0	042_smiling	0.0		227.9590150029253	3.766623742543743
35.0	205.0998387477448	pulse	1.0	t		27.0	male	black	3.5523278949462798	smiling	042	sub-17	2.0	5.0	042_smiling	0.0		228.55914806168585	
35.0	205.7998337972822	pulse	1.0	t		27.0	male	black	3.5523278949462798	smiling	042	sub-17	2.0	5.0	042_smiling	0.0		229.25914311122324	
35.0	206.49981224467047	pulse	1.0	t		27.0	male	black	3.5523278949462798	smiling	042	sub-17	2.0	5.0	042_smiling	0.0		229.9591215586115	
35.0	207.19980155891972	pulse	1.0	t		27.0	male	black	3.5523278949462798	smiling	042	sub-17	2.0	5.0	042_smiling	0.0		230.65911087286077	
35.0	207.8998098901793	pulse	1.0	t		27.0	male	black	3.5523278949462798	smiling	042	sub-17	2.0	5.0	042_smiling	0.0		231.35911920412036	
36.0	208.266329431528	face	0.0		145	24.0	female	black	3.0955033824114606	smiling	099	sub-17	2.0	5.0	099_smiling	0.0		231.72563874546904	1.2333339974138653
36.0	208.5998022230051	pulse	0.0	t		24.0	female	black	3.0955033824114606	smiling	099	sub-17	2.0	5.0	099_smiling	0.0		232.05911153694615	
36.0	209.2997794629482	pulse	0.0	t		24.0	female	black	3.0955033824114606	smiling	099	sub-17	2.0	5.0	099_smiling	0.0		232.75908877688926	
36.0	209.49966342894186	fix	1.0		444	24.0	female	black	3.0955033824114606	smiling	099	sub-17	2.0	5.0	099_smiling	0.0		232.9589727428829	3.7666068385151448
36.0	209.99977873849275	pulse	1.0	t		24.0	female	black	3.0955033824114606	smiling	099	sub-17	2.0	5.0	099_smiling	0.0		233.4590880524338	
36.0	210.699760204443	pulse	1.0	t		24.0	female	black	3.0955033824114606	smiling	099	sub-17	2.0	5.0	099_smiling	0.0		234.15906951838406	
36.0	211.39976823385223	pulse	1.0	t		24.0	female	black	3.0955033824114606	smiling	099	sub-17	2.0	5.0	099_smiling	0.0		234.85907754779328	
36.0	212.0997509072331	pulse	1.0	t		24.0	female	black	3.0955033824114606	smiling	099	sub-17	2.0	5.0	099_smiling	0.0		235.55906022117415	
36.0	212.79975682364602	pulse	1.0	t		24.0	female	black	3.0955033824114606	smiling	099	sub-17	2.0	5.0	099_smiling	0.0		236.25906613758707	
37.0	213.266270267457	face	0.0		145	21.0	male	black	2.969757262236371	neutral	137	sub-17	2.0	5.0	137_neutral	1.0	dominance	236.72557958139805	1.2333346011437243
37.0	213.49973195057828	pulse	0.0	t		21.0	male	black	2.969757262236371	neutral	137	sub-17	2.0	5.0	137_neutral	1.0	dominance	236.95904126451933	
37.0	214.1997239815537	pulse	0.0	t		21.0	male	black	2.969757262236371	neutral	137	sub-17	2.0	5.0	137_neutral	1.0	dominance	237.65903329549474	
37.0	214.49960486860073	fix	1.0		177	21.0	male	black	2.969757262236371	neutral	137	sub-17	2.0	5.0	137_neutral	1.0	dominance	237.95891418254178	1.4999852089822525
37.0	214.89971631436492	pulse	1.0	t		21.0	male	black	2.969757262236371	neutral	137	sub-17	2.0	5.0	137_neutral	1.0	dominance	238.35902562830597	
37.0	215.5997059304791	pulse	1.0	t		21.0	male	black	2.969757262236371	neutral	137	sub-17	2.0	5.0	137_neutral	1.0	dominance	239.05901524442015	
37.0	215.99959007758298	rating	2.0		294	21.0	male	black	2.969757262236371	neutral	137	sub-17	2.0	5.0	137_neutral	1.0	dominance	239.45889939152403	2.4999686068331357
37.0	216.29969977258588	pulse	2.0	t		21.0	male	black	2.969757262236371	neutral	137	sub-17	2.0	5.0	137_neutral	1.0	dominance	239.75900908652693	
37.0	216.99969240726205	pulse	2.0	t		21.0	male	black	2.969757262236371	neutral	137	sub-17	2.0	5.0	137_neutral	1.0	dominance	240.4590017212031	
37.0	217.21635179915756	response	2.0	y		21.0	male	black	2.969757262236371	neutral	137	sub-17	2.0	5.0	137_neutral	1.0	dominance	240.6756611130986	
37.0	217.6996611952054	pulse	2.0	t		21.0	male	black	2.969757262236371	neutral	137	sub-17	2.0	5.0	137_neutral	1.0	dominance	241.15897050914646	
37.0	218.39967284689192	pulse	2.0	t		21.0	male	black	2.969757262236371	neutral	137	sub-17	2.0	5.0	137_neutral	1.0	dominance	241.85898216083297	
37.0	218.49955868441612	fix	3.0		444	21.0	male	black	2.969757262236371	neutral	137	sub-17	2.0	5.0	137_neutral	1.0	dominance	241.95886799835716	3.7666071403655224
37.0	219.09966548156808	pulse	3.0	t		21.0	male	black	2.969757262236371	neutral	137	sub-17	2.0	5.0	137_neutral	1.0	dominance	242.55897479550913	
37.0	219.79966626640817	pulse	3.0	t		21.0	male	black	2.969757262236371	neutral	137	sub-17	2.0	5.0	137_neutral	1.0	dominance	243.25897558034922	
37.0	220.49965075093496	pulse	3.0	t		21.0	male	black	2.969757262236371	neutral	137	sub-17	2.0	5.0	137_neutral	1.0	dominance	243.958960064876	
37.0	221.19964066889952	pulse	3.0	t		21.0	male	black	2.969757262236371	neutral	137	sub-17	2.0	5.0	137_neutral	1.0	dominance	244.65894998284057	
37.0	221.89961911627324	pulse	3.0	t		21.0	male	black	2.969757262236371	neutral	137	sub-17	2.0	5.0	137_neutral	1.0	dominance	245.3589284302143	
38.0	222.26616582478164	face	0.0		145	36.0	female	white	2.7548746518105847	smiling	011	sub-17	2.0	5.0	011_smiling	0.0		245.7254751387227	1.2333339974284172
38.0	222.59962835311308	pulse	0.0	t		36.0	female	white	2.7548746518105847	smiling	011	sub-17	2.0	5.0	011_smiling	0.0		246.05893766705412	
38.0	223.29961917664332	pulse	0.0	t		36.0	female	white	2.7548746518105847	smiling	011	sub-17	2.0	5.0	011_smiling	0.0		246.75892849058437	
38.0	223.49949982221005	fix	1.0		444	36.0	female	white	2.7548746518105847	smiling	011	sub-17	2.0	5.0	011_smiling	0.0		246.9588091361511	3.7666077440953813
38.0	223.99964048777474	pulse	1.0	t		36.0	female	white	2.7548746518105847	smiling	011	sub-17	2.0	5.0	011_smiling	0.0		247.4589498017158	
38.0	224.6996382540383	pulse	1.0	t		36.0	female	white	2.7548746518105847	smiling	011	sub-17	2.0	5.0	011_smiling	0.0		248.15894756797934	
38.0	225.39959345839452	pulse	1.0	t		36.0	female	white	2.7548746518105847	smiling	011	sub-17	2.0	5.0	011_smiling	0.0		248.85890277233557	
38.0	226.09959816736227	pulse	1.0	t		36.0	female	white	2.7548746518105847	smiling	011	sub-17	2.0	5.0	011_smiling	0.0		249.55890748130332	
38.0	226.7995877834619	pulse	1.0	t		36.0	female	white	2.7548746518105847	smiling	011	sub-17	2.0	5.0	011_smiling	0.0		250.25889709740295	
39.0	227.26610756630544	face	0.0		145	19.0	male	white	2.243931555909272	smiling	130	sub-17	2.0	5.0	130_smiling	0.0		250.72541688024648	1.233336110410164
39.0	227.49956683456548	pulse	0.0	t		19.0	male	white	2.243931555909272	smiling	130	sub-17	2.0	5.0	130_smiling	0.0		250.95887614850653	
39.0	228.19955886552634	pulse	0.0	t		19.0	male	white	2.243931555909272	smiling	130	sub-17	2.0	5.0	130_smiling	0.0		251.6588681794674	
39.0	228.4994436767156	fix	1.0		444	19.0	male	white	2.243931555909272	smiling	130	sub-17	2.0	5.0	130_smiling	0.0		251.95875299065665	3.749956079744152
39.0	228.89955451877904	pulse	1.0	t		19.0	male	white	2.243931555909272	smiling	130	sub-17	2.0	5.0	130_smiling	0.0		252.3588638327201	
39.0	229.59953628657968	pulse	1.0	t		19.0	male	white	2.243931555909272	smiling	130	sub-17	2.0	5.0	130_smiling	0.0		253.05884560052073	
39.0	230.29952982683608	pulse	1.0	t		19.0	male	white	2.243931555909272	smiling	130	sub-17	2.0	5.0	130_smiling	0.0		253.75883914077713	
39.0	230.99954389339837	pulse	1.0	t		19.0	male	white	2.243931555909272	smiling	130	sub-17	2.0	5.0	130_smiling	0.0		254.45885320733942	
39.0	231.69951690733433	pulse	1.0	t		19.0	male	white	2.243931555909272	smiling	130	sub-17	2.0	5.0	130_smiling	0.0		255.15882622127538	
40.0	232.24939975645975	fix	0.0		720													255.7087090704008	5.999949589808239
40.0	232.39952312559763	pulse	0.0	t														255.85883243953867	
40.0	233.0995048934128	pulse	0.0	t														256.55881420735386	
40.0	233.79950477267266	pulse	0.0	t														257.2588140866137	
40.0	234.49948835161922	pulse	0.0	t														257.95879766556027	
40.0	235.19947917516402	pulse	0.0	t														258.65878848910506	
40.0	235.8994736209861	pulse	0.0	t														259.35878293492715	
40.0	236.5994623315055	pulse	0.0	t														260.05877164544654	
40.0	237.2994543624809	pulse	0.0	t														260.75876367642195	
40.0	237.99944729900744	pulse	0.0	t														261.4587566129485	
