trial_nr	onset	event_type	phase	response	nr_frames	rating_type	face_id	repetition	session	rating	onset_abs	duration
0.0	0.008729063664759451	cue	0.0		479						791.5572552380269	3.992132432555536
0.0	1.7757302569002604	response	0.0	return							793.3242564312624	
0.0	4.0008614962202955	fix	1.0		120						795.5493876705824	1.017086241084371
0.0	5.017947737304667	face	0.0		147	attractiveness	064	1.0	2		796.5664739116668	1.2833990523540706
0.0	6.301346789658737	rating	1.0		100	attractiveness	064	1.0	2		797.8498729640208	0.8415619705262998
0.0	7.142908760185037	fix	2.0		59	attractiveness	064	1.0	2	-0.79	798.6914349345471	0.5167480117518153
1.0	7.659656771936852	face	0.0		147	attractiveness	005	1.0	2		799.208182946299	1.2334488736405547
1.0	8.893105645577407	rating	1.0		50	attractiveness	005	1.0	2		800.4416318199395	0.42504967790478076
1.0	9.318155323482188	fix	2.0		60	attractiveness	005	1.0	2	-3.57	800.8666814978443	0.5167516340204656
2.0	9.834906957502653	face	0.0		147	attractiveness	062	1.0	2		801.3834331318648	1.2334612497249964
2.0	11.06836820722765	rating	1.0		70	attractiveness	062	1.0	2		802.6168943815898	0.5917319907593992
2.0	11.660100197987049	fix	2.0		60	attractiveness	062	1.0	2	-1.9900000000000002	803.2086263723492	0.5167492191749261
3.0	12.176849417161975	face	0.0		147	attractiveness	018	1.0	2		803.7253755915241	1.2334802666350697
3.0	13.410329683797045	rating	1.0		41	attractiveness	018	1.0	2		804.9588558581592	0.3500137797136631
3.0	13.760343463510708	fix	2.0		60	attractiveness	018	1.0	2	-0.5800000000000001	805.3088696378728	0.5167528414433491
4.0	14.277096304954057	face	0.0		147	attractiveness	099	1.0	2		805.8256224793162	1.233456118177628
4.0	15.510552423131685	rating	1.0		36	attractiveness	099	1.0	2		807.0590785974938	0.308365840678789
4.0	15.818918263810474	fix	2.0		60	attractiveness	099	1.0	2	0.3600000000000003	807.3674444381726	0.5167561618561649
5.0	16.33567442566664	face	0.0		147	attractiveness	039	1.0	2		807.8842006000287	1.2334558163220208
5.0	17.56913024198866	rating	1.0		124	attractiveness	039	1.0	2		809.1176564163508	1.041785585242451
5.0	18.61091582723111	fix	2.0		60	attractiveness	039	1.0	2	4.0	810.1594420015932	0.5167516340204656
6.0	19.127667461251576	face	0.0		147	attractiveness	172	1.0	2		810.6761936356137	1.2334567218890697
6.0	20.361124183140646	rating	1.0		106	attractiveness	172	1.0	2		811.9096503575028	0.8917928750579449
6.0	21.25291705819859	fix	2.0		60	attractiveness	172	1.0	2	-3.4	812.8014432325607	0.5167398616474657
7.0	21.769656919846057	face	0.0		147	attractiveness	024	1.0	2		813.3181830942082	1.2334425346705302
7.0	23.003099454516587	rating	1.0		165	attractiveness	024	1.0	2		814.5516256288787	1.3835107087843426
7.0	24.38661016330093	fix	2.0		61	attractiveness	024	1.0	2	-0.5499999999999998	815.935136337663	0.5250786258682183
8.0	24.911688789169148	face	0.0		146	attractiveness	082	1.0	2		816.4602149635313	1.2251224855042437
8.0	26.13681127467339	rating	1.0		42	attractiveness	082	1.0	2		817.6853374490355	0.35836673115295525
8.0	26.495178005826347	fix	2.0		60	attractiveness	082	1.0	2	0.96	818.0437041801885	0.5167516340204656
9.0	27.011929639846812	face	0.0		147	attractiveness	091	1.0	2		818.5604558142089	1.2334654757050885
9.0	28.2453951155519	rating	1.0		68	attractiveness	091	1.0	2		819.793921289914	0.5750547641737285
9.0	28.82044987972563	fix	2.0		60	attractiveness	091	1.0	2	1.3899999999999997	820.3689760540877	0.5167513321646311
10.0	29.33720121189026	face	0.0		147	attractiveness	092	1.0	2		820.8857273862524	1.233461853436438
10.0	30.5706630653267	rating	1.0		40	attractiveness	092	1.0	2		822.1191892396888	0.3417058047759838
10.0	30.912368870102682	fix	2.0		60	attractiveness	092	1.0	2	-1.06	822.4608950444648	0.5167498228861405
11.0	31.429118692988823	face	0.0		147	attractiveness	141	1.0	2		822.9776448673509	1.233452495909205
11.0	32.66257118889803	rating	1.0		199	attractiveness	141	1.0	2		824.2110973632601	1.6668614642235298
11.0	34.32943265312156	fix	2.0		60	attractiveness	141	1.0	2	-1.5099999999999998	825.8779588274837	0.5167483136076498
12.0	34.84618096672921	face	0.0		147	attractiveness	030	1.0	2		826.3947071410913	1.2334597404462784
12.0	36.079640707175486	rating	1.0		37	attractiveness	030	1.0	2		827.6281668815376	0.31670400118809994
12.0	36.396344708363586	fix	2.0		60	attractiveness	030	1.0	2	2.42	827.9448708827257	0.5167703490749318
13.0	36.91311505743852	face	0.0		147	attractiveness	061	1.0	2		828.4616412318006	1.2334374031231619
13.0	38.14655246056168	rating	1.0		49	attractiveness	061	1.0	2		829.6950786349238	0.4167084988384886
13.0	38.56326095940017	fix	2.0		60	attractiveness	061	1.0	2	0.5199999999999996	830.1117871337623	0.5167501247417476
14.0	39.080011084141915	face	0.0		147	attractiveness	124	1.0	2		830.628537258504	1.2334654757050885
14.0	40.313476559847004	rating	1.0		151	attractiveness	124	1.0	2		831.8620027342091	1.2668069490807738
14.0	41.58028350892778	fix	2.0		60	attractiveness	124	1.0	2	3.91	833.1288096832899	0.5167594822692081
15.0	42.097042991196986	face	0.0		147	attractiveness	042	1.0	2		833.6455691655591	1.2334591367348366
15.0	43.33050212793182	rating	1.0		121	attractiveness	042	1.0	2		834.8790283022939	1.016767783301475
15.0	44.3472699112333	fix	2.0		60	attractiveness	042	1.0	2	-0.2400000000000002	835.8957960855954	0.5167637082490728
16.0	44.86403361948237	face	0.0		147	attractiveness	034	1.0	2		836.4125597938445	1.2334675886950208
16.0	46.09750120817739	rating	1.0		51	attractiveness	034	1.0	2		837.6460273825395	0.433365199235368
16.0	46.53086640741276	fix	2.0		60	attractiveness	034	1.0	2	-0.81	838.0793925817749	0.5167597841250426
17.0	47.0476261915378	face	0.0		147	attractiveness	038	1.0	2		838.5961523658999	1.2334826814808366
17.0	48.28110887301864	rating	1.0		90	attractiveness	038	1.0	2		839.8296350473807	0.7583964941270551
17.0	49.03950536714569	fix	2.0		60	attractiveness	038	1.0	2	-2.8600000000000003	840.5880315415078	0.5167495210303059
18.0	49.556254888176	face	0.0		147	attractiveness	137	1.0	2		841.1047810625381	1.233455212610579
18.0	50.78971010078658	rating	1.0		71	attractiveness	137	1.0	2		842.3382362751487	0.6000629067316368
18.0	51.389773007518215	fix	2.0		60	attractiveness	137	1.0	2	-2.6399999999999997	842.9382991818803	0.516767028662116
19.0	51.90654003618033	face	0.0		147	attractiveness	012	1.0	2		843.4550662105424	1.2334449495162971
19.0	53.13998498569663	rating	1.0		40	attractiveness	012	1.0	2		844.6885111600587	0.3416991639501248
19.0	53.48168414964675	fix	2.0		60	attractiveness	012	1.0	2	0.9500000000000002	845.0302103240089	0.5167621989705822
20.0	53.998446348617335	face	0.0		147	attractiveness	101	1.0	2		845.5469725229794	1.2334497792076036
20.0	55.23189612782494	rating	1.0		116	attractiveness	101	1.0	2		846.780422302187	0.9751150145752945
20.0	56.20701114240023	fix	2.0		60	attractiveness	101	1.0	2	1.08	847.7555373167623	0.5167446913387721
21.0	56.723755833739006	face	0.0		147	attractiveness	121	1.0	2		848.2722820081011	1.2334615515806036
21.0	57.95721738531961	rating	1.0		239	attractiveness	121	1.0	2		849.5057435596817	2.0002306177689206
21.0	59.95744800308853	fix	2.0		60	attractiveness	121	1.0	2	-2.2199999999999998	851.5059741774506	0.5167546525776743
22.0	60.474202655666204	face	0.0		147	attractiveness	100	1.0	2		852.0227288300283	1.2334630608593216
22.0	61.707665716525526	rating	1.0		93	attractiveness	100	1.0	2		853.2561918908876	0.7834130886449202
22.0	62.491078805170446	fix	2.0		60	attractiveness	100	1.0	2	0.6500000000000004	854.0396049795326	0.5167694435078829
23.0	63.00784824867833	face	0.0		147	attractiveness	144	1.0	2		854.5563744230404	1.2334594385906712
23.0	64.241307687269	rating	1.0		68	attractiveness	144	1.0	2		855.7898338616311	0.5750496326265875
23.0	64.81635731989559	fix	2.0		60	attractiveness	144	1.0	2	1.5599999999999996	856.3648834942577	0.5167570674232138
24.0	65.3331143873188	face	0.0		147	attractiveness	102	1.0	2		856.8816405616809	1.2334470625062295
24.0	66.56656144982503	rating	1.0		37	attractiveness	102	1.0	2		858.1150876241871	0.3167003789194496
24.0	66.88326182874448	fix	2.0		60	attractiveness	102	1.0	2	-1.5899999999999999	858.4317880031066	0.5167664249506743
25.0	67.40002825369515	face	0.0		147	attractiveness	087	1.0	2		858.9485544280573	1.233461551580831
25.0	68.63348980527599	rating	1.0		64	attractiveness	087	1.0	2		860.1820159796381	0.5417166112106315
25.0	69.17520641648662	fix	2.0		60	attractiveness	087	1.0	2	2.3200000000000003	860.7237325908487	0.5167449931946066
26.0	69.69195140968122	face	0.0		147	attractiveness	136	1.0	2		861.2404775840433	1.2334739276652726
26.0	70.9254253373465	rating	1.0		87	attractiveness	136	1.0	2		862.4739515117086	0.7334007276533612
26.0	71.65882606499986	fix	2.0		60	attractiveness	136	1.0	2	-2.69	863.207352239362	0.5167621989705822
27.0	72.17558826397044	face	0.0		147	attractiveness	011	1.0	2		863.7241144383325	1.2334606460135547
27.0	73.409048909984	rating	1.0		71	attractiveness	011	1.0	2		864.9575750843461	0.6000616993087533
27.0	74.00911060929275	fix	2.0		60	attractiveness	011	1.0	2	-1.62	865.5576367836549	0.5167597841248153
28.0	74.52587039341756	face	0.0		147	attractiveness	043	1.0	2		866.0743965677797	1.2334470625062295
28.0	75.75931745592379	rating	1.0		69	attractiveness	043	1.0	2		867.3078436302859	0.5833941321059228
28.0	76.34271158802972	fix	2.0		60	attractiveness	043	1.0	2	-0.2200000000000002	867.8912377623918	0.5167625008264167
29.0	76.85947408885613	face	0.0		147	attractiveness	036	1.0	2		868.4080002632182	1.2334989816897632
29.0	78.0929730705459	rating	1.0		41	attractiveness	036	1.0	2		869.641499244908	0.3499857071315091
29.0	78.4429587776774	fix	2.0		61	attractiveness	036	1.0	2	0.7599999999999998	869.9914849520395	0.5250985483457953
30.0	78.9680573260232	face	0.0		146	attractiveness	044	1.0	2		870.5165835003853	1.2251082982852495
30.0	80.19316562430845	rating	1.0		63	attractiveness	044	1.0	2		871.7416917986706	0.5334095418404559
30.0	80.7265751661489	fix	2.0		60	attractiveness	044	1.0	2	1.4900000000000002	872.275101340511	0.516743483916116
31.0	81.24331865006502	face	0.0		147	attractiveness	027	1.0	2		872.7918448244271	1.2334485717847201
31.0	82.47676722184974	rating	1.0		125	attractiveness	027	1.0	2		874.0252933962119	1.0501219346174366
31.0	83.52688915646718	fix	2.0		60	attractiveness	027	1.0	2	0.5599999999999996	875.0754153308293	0.5167655193836254
32.0	84.0436546758508	face	0.0		147	attractiveness	117	1.0	2		875.5921808502129	1.2334491754961618
32.0	85.27710385134696	rating	1.0		544	attractiveness	117	1.0	2		876.8256300257091	4.542223728817589
32.0	89.81932758016455	fix	2.0		60	attractiveness	117	1.0	2	-0.009999999999999787	881.3678537545267	0.5167353338117664
33.0	90.33606291397632	face	0.0		147	attractiveness	070	1.0	2		881.8845890883384	1.233439214257487
33.0	91.56950212823381	rating	1.0		95	attractiveness	070	1.0	2		883.1180283025959	0.8001244249269348
33.0	92.36962655316074	fix	2.0		60	attractiveness	070	1.0	2	-2.9	883.9181527275229	0.5167344282447175
34.0	92.88636098140546	face	0.0		147	attractiveness	006	1.0	2		884.4348871557676	1.2334449495160698
34.0	94.11980593092153	rating	1.0		77	attractiveness	006	1.0	2		885.6683321052836	0.6500749658675886
34.0	94.76988089678912	fix	2.0		60	attractiveness	006	1.0	2	-2.19	886.3184070711512	0.5167631045378585
35.0	95.28664400132698	face	0.0		147	attractiveness	033	1.0	2		886.8351701756891	1.2334485717847201
35.0	96.5200925731117	rating	1.0		37	attractiveness	033	1.0	2		888.0686187474738	0.31669736036224094
35.0	96.83678993347394	fix	2.0		60	attractiveness	033	1.0	2	0.6500000000000004	888.385316107836	0.5167522377319074
36.0	97.35354217120585	face	0.0		147	attractiveness	009	1.0	2		888.902068345568	1.233454910754972
36.0	98.58699708196082	rating	1.0		60	attractiveness	009	1.0	2		890.1355232563229	0.5084131716553202
36.0	99.09541025361614	fix	2.0		60	attractiveness	009	1.0	2	1.8099999999999996	890.6439364279782	0.5167431820602815
37.0	99.61215343567642	face	0.0		147	attractiveness	126	1.0	2		891.1606796100385	1.233448269929113
37.0	100.84560170560553	rating	1.0		40	attractiveness	126	1.0	2		892.3941278799676	0.3417136530247262
37.0	101.18731535863026	fix	2.0		60	attractiveness	126	1.0	2	-1.2799999999999998	892.7358415329924	0.5167555581447232
38.0	101.70407091677498	face	0.0		147	attractiveness	130	1.0	2		893.2525970911371	1.233431366008972
38.0	102.93750228278395	rating	1.0		117	attractiveness	130	1.0	2		894.4860284571461	0.9834552880743104
38.0	103.92095757085826	fix	2.0		60	attractiveness	130	1.0	2	-2.55	895.4694837452204	0.5167597841250426
39.0	104.4377173549833	face	0.0		147	attractiveness	066	1.0	2		895.9862435293454	1.2334497792076036
39.0	105.67116713419091	rating	1.0		217	attractiveness	066	1.0	2		897.219693308553	1.8168759080197106
39.0	107.48804304221062	fix	2.0		60	attractiveness	066	1.0	2	-2.01	899.0365692165727	0.5000677666087086
40.0	107.98811080881933	cue	0.0		480						899.5366369831814	4.000465159662099
40.0	111.98857596848143	fix	1.0		120						903.5371021428435	1.016815174649082
40.0	113.00539114313051	face	0.0		147	trustworthiness	124	1.0	2		904.5539173174926	1.2334491754963892
40.0	114.2388403186269	rating	1.0		235	trustworthiness	124	1.0	2		905.787366492989	1.9668939740843143
40.0	116.20573429271121	fix	2.0		60	trustworthiness	124	1.0	2	3.3499999999999996	907.7542604670733	0.5167549544335088
41.0	116.72248924714472	face	0.0		147	trustworthiness	087	1.0	2		908.2710154215068	1.2334660794163028
41.0	117.95595532656102	rating	1.0		92	trustworthiness	087	1.0	2		909.5044815009231	0.77509394504591
41.0	118.73104927160693	fix	2.0		60	trustworthiness	087	1.0	2	4.0	910.279575445969	0.5167908752639505
42.0	119.24784014687089	face	0.0		147	trustworthiness	066	1.0	2		910.796366321233	1.2334002748698367
42.0	120.48124042174072	rating	1.0		42	trustworthiness	066	1.0	2		912.0297665961028	0.3583769942474646
42.0	120.83961741598819	fix	2.0		60	trustworthiness	066	1.0	2	-1.2400000000000002	912.3881435903503	0.5167600859806498
43.0	121.35637750196884	face	0.0		147	trustworthiness	034	1.0	2		912.904903676331	1.2334555144661863
43.0	122.58983301643502	rating	1.0		36	trustworthiness	034	1.0	2		914.1383591907971	0.3083685573803905
43.0	122.89820157381541	fix	2.0		60	trustworthiness	034	1.0	2	0.0	914.4467277481775	0.5167483136074225
44.0	123.41494988742284	face	0.0		147	trustworthiness	036	1.0	2		914.963476061785	1.2334663812721374
44.0	124.64841626869497	rating	1.0		37	trustworthiness	036	1.0	2		916.1969424430571	0.31670219005377476
44.0	124.96511845874875	fix	2.0		60	trustworthiness	036	1.0	2	1.6500000000000004	916.5136446331109	0.5167416727817908
45.0	125.48186013153054	face	0.0		147	trustworthiness	141	1.0	2		917.0303863058926	1.2334512884863216
45.0	126.71531142001686	rating	1.0		72	trustworthiness	141	1.0	2		918.263837594379	0.6084089154896901
45.0	127.32372033550655	fix	2.0		60	trustworthiness	141	1.0	2	0.8499999999999996	918.8722465098687	0.5167455969060484
46.0	127.8404659324126	face	0.0		147	trustworthiness	061	1.0	2		919.3889921067747	1.233471814675113
46.0	129.0739377470877	rating	1.0		37	trustworthiness	061	1.0	2		920.6224639214498	0.3166925306709345
46.0	129.39063027775865	fix	2.0		60	trustworthiness	061	1.0	2	1.3099999999999996	920.9391564521208	0.5167446913387721
47.0	129.90737496909742	face	0.0		147	trustworthiness	064	1.0	2		921.4559011434595	1.2334645701380396
47.0	131.14083953923546	rating	1.0		59	trustworthiness	064	1.0	2		922.6893657135976	0.5000445237183158
47.0	131.64088406295377	fix	2.0		60	trustworthiness	064	1.0	2	-0.8500000000000001	923.1894102373159	0.5167567655676066
48.0	132.15764082852138	face	0.0		147	trustworthiness	062	1.0	2		923.7061670028835	1.2334494773519964
48.0	133.39109030587338	rating	1.0		40	trustworthiness	062	1.0	2		924.9396164802355	0.34175681839246863
48.0	133.73284712426585	fix	2.0		61	trustworthiness	062	1.0	2	-1.67	925.281373298628	0.525046327306427
49.0	134.25789345157227	face	0.0		146	trustworthiness	044	1.0	2		925.8064196259344	1.2251146372555013
49.0	135.48300808882777	rating	1.0		60	trustworthiness	044	1.0	2		927.0315342631899	0.5083902306207619
49.0	135.99139831944854	fix	2.0		60	trustworthiness	044	1.0	2	1.04	927.5399244938106	0.5167549544332815
50.0	136.50815327388182	face	0.0		147	trustworthiness	027	1.0	2		928.0566794482439	1.2334564200334626
50.0	137.74160969391528	rating	1.0		144	trustworthiness	027	1.0	2		929.2901358682774	1.2084766519128607
50.0	138.95008634582814	fix	2.0		60	trustworthiness	027	1.0	2	1.3499999999999996	930.4986125201902	0.5167471061847664
51.0	139.4668334520129	face	0.0		147	trustworthiness	033	1.0	2		931.015359626375	1.2334537033320885
51.0	140.700287155345	rating	1.0		36	trustworthiness	033	1.0	2		932.2488133297071	0.30838002789732855
51.0	141.00866718324232	fix	2.0		60	trustworthiness	033	1.0	2	0.0	932.5571933576044	0.5167416727817908
52.0	141.52540885602411	face	0.0		147	trustworthiness	039	1.0	2		933.0739350303862	1.2334715128195057
52.0	142.75888036884362	rating	1.0		156	trustworthiness	039	1.0	2		934.3074065432057	1.3084754143044393
52.0	144.06735578314806	fix	2.0		60	trustworthiness	039	1.0	2	3.87	935.6158819575102	0.5167471061847664
53.0	144.58410288933283	face	0.0		147	trustworthiness	137	1.0	2		936.1326290636949	1.2334567218890697
53.0	145.8175596112219	rating	1.0		37	trustworthiness	137	1.0	2		937.366085785584	0.31668981396933304
53.0	146.13424942519123	fix	2.0		60	trustworthiness	137	1.0	2	0.0	937.6827755995533	0.5167688397964412
54.0	146.65101826498767	face	0.0		147	trustworthiness	043	1.0	2		938.1995444393498	1.2334540051876957
54.0	147.88447227017537	rating	1.0		80	trustworthiness	043	1.0	2		939.4329984445375	0.6750640915154236
54.0	148.5595363616908	fix	2.0		60	trustworthiness	043	1.0	2	-0.7400000000000002	940.1080625360529	0.516765519383398
55.0	149.0763018810742	face	0.0		147	trustworthiness	024	1.0	2		940.6248280554363	1.2334654757050885
55.0	150.30976735677928	rating	1.0		45	trustworthiness	024	1.0	2		941.8582935311414	0.38336551618385784
55.0	150.69313287296313	fix	2.0		60	trustworthiness	024	1.0	2	-2.24	942.2416590473252	0.5167513321646311
56.0	151.20988420512776	face	0.0		147	trustworthiness	126	1.0	2		942.7584103794899	1.2334452513719043
56.0	152.44332945649967	rating	1.0		47	trustworthiness	126	1.0	2		943.9918556308618	0.400065381948707
56.0	152.84339483844838	fix	2.0		60	trustworthiness	126	1.0	2	-0.9500000000000002	944.3919210128105	0.5167480117518153
57.0	153.3601428502002	face	0.0		147	trustworthiness	121	1.0	2		944.9086690245623	1.2334437420931863
57.0	154.59358659229338	rating	1.0		53	trustworthiness	121	1.0	2		946.1421127666555	0.45004665180135817
57.0	155.04363324409474	fix	2.0		60	trustworthiness	121	1.0	2	-0.41000000000000014	946.5921594184568	0.5167652175277908
58.0	155.56039846162253	face	0.0		147	trustworthiness	099	1.0	2		947.1089246359846	1.233458533023395
58.0	156.79385699464592	rating	1.0		87	trustworthiness	099	1.0	2		948.342383169008	0.7334179334293367
58.0	157.52727492807526	fix	2.0		61	trustworthiness	099	1.0	2	1.2199999999999998	949.0758011024374	0.525129337629096
59.0	158.05240426570435	face	0.0		146	trustworthiness	070	1.0	2		949.6009304400665	1.2250657366289488
59.0	159.2774700023333	rating	1.0		110	trustworthiness	070	1.0	2		950.8259961766954	0.9251117092549066
59.0	160.2025817115882	fix	2.0		60	trustworthiness	070	1.0	2	-3.81	951.7511078859503	0.5167558600005577
60.0	160.71933757158877	face	0.0		147	trustworthiness	136	1.0	2		952.2678637459509	1.2334573256007388
60.0	161.9527948971895	rating	1.0		229	trustworthiness	136	1.0	2		953.5013210715516	1.9168758778341726
60.0	163.86967077502368	fix	2.0		60	trustworthiness	136	1.0	2	-3.17	955.4181969493858	0.5167498228861405
61.0	164.38642059790982	face	0.0		147	trustworthiness	101	1.0	2		955.9349467722719	1.2334558163220208
61.0	165.61987641423184	rating	1.0		382	trustworthiness	101	1.0	2		957.168402588594	3.192044834026092
61.0	168.81192124825793	fix	2.0		60	trustworthiness	101	1.0	2	0.6799999999999997	960.36044742262	0.5167465024733247
62.0	169.32866775073126	face	0.0		147	trustworthiness	172	1.0	2		960.8771939250934	1.2334579293119532
62.0	170.5621256800432	rating	1.0		89	trustworthiness	172	1.0	2		962.1106518544053	0.7500900284680938
62.0	171.3122157085113	fix	2.0		60	trustworthiness	172	1.0	2	-3.21	962.8607418828734	0.5167483136074225
63.0	171.82896402211873	face	0.0		147	trustworthiness	009	1.0	2		963.3774901964808	1.2334564200334626
63.0	173.0624204421522	rating	1.0		585	trustworthiness	009	1.0	2		964.6109466165143	4.883904177713248
63.0	177.94632461986544	fix	2.0		60	trustworthiness	009	1.0	2	0.08000000000000007	969.4948507942275	0.5167537470106254
64.0	178.46307836687606	face	0.0		147	trustworthiness	130	1.0	2		970.0116045412382	1.233481172202346
64.0	179.6965595390784	rating	1.0		237	trustworthiness	130	1.0	2		971.2450857134405	1.9835376946855376
64.0	181.68009723376395	fix	2.0		60	trustworthiness	130	1.0	2	-1.62	973.228623408126	0.5167597841248153
65.0	182.19685701788876	face	0.0		147	trustworthiness	006	1.0	2		973.7453831922509	1.2334479680735058
65.0	183.43030498596227	rating	1.0		89	trustworthiness	006	1.0	2		974.9788311603244	0.7500861043436089
65.0	184.18039109030587	fix	2.0		60	trustworthiness	006	1.0	2	-2.3200000000000003	975.728917264668	0.51679329010949
66.0	184.69718438041537	face	0.0		147	trustworthiness	042	1.0	2		976.2457105547775	1.2334126509542784
66.0	185.93059703136964	rating	1.0		246	trustworthiness	042	1.0	2		977.4791232057318	2.058576007722877
66.0	187.98917303909252	fix	2.0		60	trustworthiness	042	1.0	2	-1.2999999999999998	979.5376992134546	0.5167477098959807
67.0	188.5059207489885	face	0.0		147	trustworthiness	091	1.0	2		980.0544469233506	1.233457627456346
67.0	189.73937837644485	rating	1.0		62	trustworthiness	091	1.0	2		981.287904550807	0.5250602126693593
67.0	190.2644385891142	fix	2.0		60	trustworthiness	091	1.0	2	2.09	981.8129647634763	0.5167510303090239
68.0	190.78118961942323	face	0.0		147	trustworthiness	117	1.0	2		982.3297157937853	1.2334588348792295
68.0	192.01464845430246	rating	1.0		47	trustworthiness	117	1.0	2		983.5631746286646	0.4000463650384063
68.0	192.41469481934087	fix	2.0		60	trustworthiness	117	1.0	2	0.8499999999999996	983.963220993703	0.5167465024733247
69.0	192.9314413218142	face	0.0		147	trustworthiness	011	1.0	2		984.4799674961763	1.233458834879002
69.0	194.1649001566932	rating	1.0		36	trustworthiness	011	1.0	2		985.7134263310553	0.308365840678789
69.0	194.47326599737198	fix	2.0		60	trustworthiness	011	1.0	2	0.0	986.0217921717341	0.5167504265975822
70.0	194.99001642396956	face	0.0		147	trustworthiness	005	1.0	2		986.5385425983317	1.2334585330236223
70.0	196.2234749569932	rating	1.0		165	trustworthiness	005	1.0	2		987.7720011313553	1.3834925974410908
70.0	197.60696755443428	fix	2.0		60	trustworthiness	005	1.0	2	-3.94	989.1554937287964	0.5167543507220671
71.0	198.12372190515634	face	0.0		147	trustworthiness	038	1.0	2		989.6722480795185	1.2334530996204194
71.0	199.35717500477676	rating	1.0		120	trustworthiness	038	1.0	2		990.9057011791389	1.0084522619711151
71.0	200.36562726674788	fix	2.0		60	trustworthiness	038	1.0	2	-3.08	991.91415344111	0.5167474080403736
72.0	200.88237467478825	face	0.0		147	trustworthiness	092	1.0	2		992.4309008491504	1.2334600423018856
72.0	202.11583471709014	rating	1.0		43	trustworthiness	092	1.0	2		993.6643608914522	0.36670791021970217
72.0	202.48254262730984	fix	2.0		60	trustworthiness	092	1.0	2	-1.06	994.031068801672	0.516748615463257
73.0	202.9992912427731	face	0.0		147	trustworthiness	018	1.0	2		994.5478174171352	1.233459136735064
73.0	204.23275037950816	rating	1.0		52	trustworthiness	018	1.0	2		995.7812765538703	0.4417489399581882
73.0	204.67449931946635	fix	2.0		60	trustworthiness	018	1.0	2	1.8899999999999997	996.2230254938285	0.516719335458447
74.0	205.1912186549248	face	0.0		147	trustworthiness	144	1.0	2		996.7397448292869	1.2334561181778554
74.0	206.42467477310265	rating	1.0		55	trustworthiness	144	1.0	2		997.9732009474648	0.46671995426277135
74.0	206.89139472736542	fix	2.0		60	trustworthiness	144	1.0	2	2.5599999999999996	998.4399209017275	0.5167778954680671
75.0	207.4081726228335	face	0.0		147	trustworthiness	102	1.0	2		998.9566987971956	1.233433478998677
75.0	208.64160610183217	rating	1.0		69	trustworthiness	102	1.0	2		1000.1901322761943	0.5833995655088984
75.0	209.22500566734107	fix	2.0		60	trustworthiness	102	1.0	2	0.0	1000.7735318417032	0.5167465024733247
76.0	209.7417521698144	face	0.0		147	trustworthiness	030	1.0	2		1001.2902783441765	1.2334615515806036
76.0	210.975213721395	rating	1.0		69	trustworthiness	030	1.0	2		1002.5237398957571	0.5833962450960826
76.0	211.55860996649108	fix	2.0		60	trustworthiness	030	1.0	2	2.08	1003.1071361408532	0.5167760843335145
77.0	212.0753860508246	face	0.0		147	trustworthiness	082	1.0	2		1003.6239122251867	1.2334636645707633
77.0	213.30884971539535	rating	1.0		105	trustworthiness	082	1.0	2		1004.8573758897575	0.8834030972207074
77.0	214.19225281261606	fix	2.0		60	trustworthiness	082	1.0	2	2.26	1005.7407789869782	0.5167495210305333
78.0	214.7090023336466	face	0.0		147	trustworthiness	012	1.0	2		1006.2575285080087	1.2334579293119532
78.0	215.94246026295855	rating	1.0		36	trustworthiness	012	1.0	2		1007.4909864373207	0.3083670481016725
78.0	216.25082731106022	fix	2.0		60	trustworthiness	012	1.0	2	1.0899999999999999	1007.7993534854223	0.5167540488662326
79.0	216.76758135992645	face	0.0		147	trustworthiness	100	1.0	2		1008.3161075342886	1.2334715128192784
79.0	218.00105287274573	rating	1.0		37	trustworthiness	100	1.0	2		1009.5495790471078	0.3167000770638424
79.0	218.31775294980957	fix	2.0		60	trustworthiness	100	1.0	2	0.6799999999999997	1009.8662791241717	0.5000436181512669
80.0	218.81779656796084	cue	0.0		477						1010.366322742323	4.000466970796424
80.0	222.81826353875726	fix	1.0		120						1014.3667897131194	1.016826645166475
80.0	223.83509018392374	face	0.0		147	dominance	124	1.0	2		1015.3836163582858	1.2334564200334626
80.0	225.0685466039572	rating	1.0		87	dominance	124	1.0	2		1016.6170727783193	0.733410688892036
80.0	225.80195729284924	fix	2.0		60	dominance	124	1.0	2	2.8499999999999996	1017.3504834672113	0.5167606896920915
81.0	226.31871798254133	face	0.0		147	dominance	062	1.0	2		1017.8672441569034	1.2334440439490209
81.0	227.55216202649035	rating	1.0		44	dominance	062	1.0	2		1019.1006882008525	0.3750542208333627
81.0	227.9272162473237	fix	2.0		60	dominance	062	1.0	2	-2.23	1019.4757424216858	0.5167437857717232
82.0	228.44396003309544	face	0.0		142	dominance	101	1.0	2		1019.9924862074575	1.2334564200334626
82.0	229.6774164531289	rating	1.0		45	dominance	101	1.0	2		1021.225942627491	0.38338543866120744
82.0	230.0608018917901	fix	2.0		60	dominance	101	1.0	2	1.62	1021.6093280661522	0.5167489173190916
83.0	230.5775508091092	face	0.0		147	dominance	066	1.0	2		1022.1260769834713	1.2348407303579734
83.0	231.81239153946717	rating	1.0		45	dominance	066	1.0	2		1023.3609177138293	0.38200354318246355
83.0	232.19439508264963	fix	2.0		60	dominance	066	1.0	2	1.75	1023.7429212570117	0.5250765128782859
84.0	232.71947159552792	face	0.0		141	dominance	030	1.0	2		1024.26799776989	1.2251116186980653
84.0	233.944583214226	rating	1.0		110	dominance	030	1.0	2		1025.493109388588	0.9251443096727598
84.0	234.86972752389875	fix	2.0		60	dominance	030	1.0	2	0.41999999999999993	1026.4182536982607	0.5167238632943736
85.0	235.38645138719312	face	0.0		147	dominance	126	1.0	2		1026.9349775615551	1.2334506847746525
85.0	236.61990207196777	rating	1.0		39	dominance	126	1.0	2		1028.1684282463298	0.3333591923064887
85.0	236.95326126427426	fix	2.0		60	dominance	126	1.0	2	-3.31	1028.5017874386363	0.5167609915479261
86.0	237.4700222558222	face	0.0		147	dominance	027	1.0	2		1029.0185484301842	1.2334672868391863
86.0	238.70348954266137	rating	1.0		37	dominance	027	1.0	2		1030.2520157170234	0.3166907195366093
86.0	239.02018026219798	fix	2.0		59	dominance	027	1.0	2	-1.58	1030.5687064365602	0.5167474080403736
87.0	239.53692767023836	face	0.0		147	dominance	042	1.0	2		1031.0854538446006	1.2334657775606956
87.0	240.77039344779905	rating	1.0		54	dominance	042	1.0	2		1032.318919622161	0.4583730399376691
87.0	241.22876648773672	fix	2.0		60	dominance	042	1.0	2	1.6500000000000004	1032.7772926620987	0.516753747010398
88.0	241.74552023474712	face	0.0		147	dominance	061	1.0	2		1033.2940464091093	1.2334530996206468
88.0	242.97897333436777	rating	1.0		46	dominance	061	1.0	2		1034.5274995087298	0.39173597525496007
88.0	243.37070930962273	fix	2.0		60	dominance	061	1.0	2	2.09	1034.9192354839847	0.5167929882538829
89.0	243.8875022978766	face	0.0		147	dominance	064	1.0	2		1035.4360284722388	1.2334138583771619
89.0	245.12091615625377	rating	1.0		47	dominance	064	1.0	2		1036.6694423306158	0.40002614070522213
89.0	245.520942296959	fix	2.0		60	dominance	064	1.0	2	0.8099999999999996	1037.0694684713212	0.5167516340204656
90.0	246.03769393097946	face	0.0		147	dominance	012	1.0	2		1037.5862201053415	1.2334530996206468
90.0	247.2711470306001	rating	1.0		45	dominance	012	1.0	2		1038.8196732049623	0.3833742699996492
90.0	247.65452130059975	fix	2.0		60	dominance	012	1.0	2	0.0	1039.2030474749617	0.5167474080403736
91.0	248.17126870864013	face	0.0		147	dominance	009	1.0	2		1039.7197948830021	1.233465475704861
91.0	249.404734184345	rating	1.0		63	dominance	009	1.0	2		1040.9532603587072	0.533401995447548
91.0	249.93813617979254	fix	2.0		60	dominance	009	1.0	2	1.4900000000000002	1041.4866623541548	0.5167510303090239
92.0	250.45488721010156	face	0.0		147	dominance	136	1.0	2		1042.0034133844638	1.2334543070433028
92.0	251.68834151714486	rating	1.0		124	dominance	136	1.0	2		1043.236867691507	1.0417741147252855
92.0	252.73011563187015	fix	2.0		60	dominance	136	1.0	2	-3.07	1044.2786418062324	0.5167685379406066
93.0	253.24688416981076	face	0.0		147	dominance	121	1.0	2		1044.795410344173	1.2334570237449043
93.0	254.48034119355566	rating	1.0		167	dominance	121	1.0	2		1046.0288673679179	1.4001483922711486
93.0	255.8804895858268	fix	2.0		60	dominance	121	1.0	2	0.8099999999999996	1047.429015760189	0.5167567655676066
94.0	256.3972463513944	face	0.0		147	dominance	087	1.0	2		1047.9457725257566	1.2334730220979964
94.0	257.6307193734924	rating	1.0		176	dominance	087	1.0	2		1049.1792455478544	1.5001522862098682
94.0	259.1308716597023	fix	2.0		61	dominance	087	1.0	2	1.04	1050.6793978340643	0.5250964353556355
95.0	259.6559680950579	face	0.0		146	dominance	024	1.0	2		1051.2044942694201	1.2250720755992006
95.0	260.8810401706571	rating	1.0		75	dominance	024	1.0	2		1052.4295663450193	0.6335124444547091
95.0	261.5145526151118	fix	2.0		60	dominance	024	1.0	2	1.4000000000000004	1053.0630787894738	0.5250191602917766
96.0	262.0395717754036	face	0.0		146	dominance	102	1.0	2		1053.5880979497656	1.2251255040614524
96.0	263.26469727946505	rating	1.0		37	dominance	102	1.0	2		1054.813223453827	0.3166937380935906
96.0	263.58139101755864	fix	2.0		60	dominance	102	1.0	2	-1.6099999999999999	1055.1299171919209	0.5167637082493002
97.0	264.09815472580794	face	0.0		147	dominance	005	1.0	2		1055.64668090017	1.2334461569389532
97.0	265.3316008827469	rating	1.0		112	dominance	005	1.0	2		1056.880127057109	0.9417738430549889
97.0	266.2733747258019	fix	2.0		60	dominance	005	1.0	2	-3.71	1057.821900900164	0.5167652175277908
98.0	266.7901399433297	face	0.0		147	dominance	100	1.0	2		1058.338666117692	1.2334386105460453
98.0	268.0235785538757	rating	1.0		291	dominance	100	1.0	2		1059.5721047282377	2.433623285874546
98.0	270.45720183975027	fix	2.0		60	dominance	100	1.0	2	0.0	1062.0057280141123	0.5167673305177232
99.0	270.973969170268	face	0.0		147	dominance	036	1.0	2		1062.52249534463	1.233452495909205
99.0	272.2074216661772	rating	1.0		399	dominance	036	1.0	2		1063.7559478405392	3.383753098926263
99.0	275.59117476510346	fix	2.0		60	dominance	036	1.0	2	-0.029999999999999805	1067.1397009394655	0.5167256744286988
100.0	276.10790043953216	face	0.0		147	dominance	033	1.0	2		1067.6564266138944	1.2334609478691618
100.0	277.3413613874013	rating	1.0		134	dominance	033	1.0	2		1068.8898875617633	1.1251149692966464
100.0	278.46647635669797	fix	2.0		60	dominance	033	1.0	2	0.6900000000000004	1070.01500253106	0.5167579729907175
101.0	278.9832343296887	face	0.0		147	dominance	044	1.0	2		1070.531760504051	1.2334455532275115
101.0	280.2166798829162	rating	1.0		648	dominance	044	1.0	2		1071.7652060572782	5.408988236984442
101.0	285.62566811990064	fix	2.0		60	dominance	044	1.0	2	-1.67	1077.1741942942626	0.5167404653589074
102.0	286.14240858525955	face	0.0		147	dominance	141	1.0	2		1077.6909347596215	1.233450986630487
102.0	287.37585957189003	rating	1.0		55	dominance	141	1.0	2		1078.924385746252	0.4667392730289066
102.0	287.84259884491894	fix	2.0		60	dominance	141	1.0	2	-1.44	1079.391125019281	0.5167462006174901
103.0	288.35934504553643	face	0.0		147	dominance	043	1.0	2		1079.9078712198984	1.2334371012675547
103.0	289.592782146804	rating	1.0		37	dominance	043	1.0	2		1081.141308321166	0.3167012844864985
103.0	289.9094834312905	fix	2.0		60	dominance	043	1.0	2	0.0	1081.4580096056525	0.5167597841248153
104.0	290.4262432154153	face	0.0		147	dominance	038	1.0	2		1081.9747693897775	1.2334808703467388
104.0	291.65972408576204	rating	1.0		106	dominance	038	1.0	2		1083.2082502601243	0.8917530301032457
104.0	292.5514771158653	fix	2.0		60	dominance	038	1.0	2	-1.08	1084.1000032902275	0.5167320133987232
105.0	293.068209129264	face	0.0		147	dominance	011	1.0	2		1084.6167353036262	1.233470305396395
105.0	294.3016794346604	rating	1.0		36	dominance	011	1.0	2		1085.8502056090224	0.3083818390318811
105.0	294.6100612736923	fix	2.0		60	dominance	011	1.0	2	1.17	1086.1585874480543	0.5167350319559318
106.0	295.1267963056482	face	0.0		147	dominance	091	1.0	2		1086.6753224800104	1.2334778517895302
106.0	296.36027415743774	rating	1.0		49	dominance	091	1.0	2		1087.9088003317997	0.41670397100256196
106.0	296.7769781284403	fix	2.0		60	dominance	091	1.0	2	1.6900000000000004	1088.3255043028025	0.5167425783488397
107.0	297.29372070678914	face	0.0		147	dominance	034	1.0	2		1088.8422468811514	1.2334440439490209
107.0	298.52716475073817	rating	1.0		81	dominance	034	1.0	2		1090.0756909251004	0.6834119114078021
107.0	299.21057666214597	fix	2.0		60	dominance	034	1.0	2	-0.5899999999999999	1090.7591028365082	0.5167643119605145
108.0	299.7273409741065	face	0.0		147	dominance	039	1.0	2		1091.2758671484685	1.2334570237449043
108.0	300.9607979978514	rating	1.0		126	dominance	039	1.0	2		1092.5093241722134	1.0584486246095821
108.0	302.01924662246097	fix	2.0		61	dominance	039	1.0	2	2.17	1093.5677727968232	0.5250816444254269
109.0	302.5443282668864	face	0.0		146	dominance	070	1.0	2		1094.0928544412486	1.2251158446781574
109.0	303.76944411156455	rating	1.0		215	dominance	070	1.0	2		1095.3179702859265	1.8002258484486902
109.0	305.56966996001324	fix	2.0		60	dominance	070	1.0	2	2.42	1097.1181961343755	0.5167543507218397
110.0	306.0864243107351	face	0.0		147	dominance	006	1.0	2		1097.6349504850973	1.2334751350879287
110.0	307.319899445823	rating	1.0		94	dominance	006	1.0	2		1098.868425620185	0.7917349489457592
110.0	308.11163439476877	fix	2.0		60	dominance	006	1.0	2	0.7800000000000002	1099.6601605691308	0.5167570674234412
111.0	308.6283914621922	face	0.0		147	dominance	172	1.0	2		1100.1769176365542	1.233453401476254
111.0	309.86184486366847	rating	1.0		51	dominance	172	1.0	2		1101.4103710380305	0.43337727346397514
111.0	310.29522213713244	fix	2.0		60	dominance	172	1.0	2	-2.06	1101.8437483114944	0.516743483916116
112.0	310.81196562104856	face	0.0		147	dominance	130	1.0	2		1102.3604917954108	1.233476946222254
112.0	312.0454425672708	rating	1.0		83	dominance	130	1.0	2		1103.593968741633	0.700059556133283
112.0	312.7455021234041	fix	2.0		60	dominance	130	1.0	2	-1.5299999999999998	1104.294028297766	0.5167522377319074
113.0	313.262254361136	face	0.0		147	dominance	018	1.0	2		1104.810780535498	1.2334558163220208
113.0	314.495710177458	rating	1.0		154	dominance	018	1.0	2		1106.04423635182	1.291835919683308
113.0	315.78754609714133	fix	2.0		60	dominance	018	1.0	2	-3.17	1107.3360722715033	0.5167359375232081
114.0	316.30428203466454	face	0.0		147	dominance	092	1.0	2		1107.8528082090265	1.233477248077861
114.0	317.5377592827424	rating	1.0		55	dominance	092	1.0	2		1109.0862854571046	0.46668765570098003
114.0	318.0044469384434	fix	2.0		60	dominance	092	1.0	2	-1.0699999999999998	1109.5529731128054	0.5167513321648585
115.0	318.52119827060824	face	0.0		147	dominance	117	1.0	2		1110.0697244449702	1.2334597404462784
115.0	319.7546580110545	rating	1.0		39	dominance	117	1.0	2		1111.3031841854167	0.33339179272411457
115.0	320.08804980377863	fix	2.0		60	dominance	117	1.0	2	1.4500000000000002	1111.6365759781406	0.5167416727817908
116.0	320.6047914765604	face	0.0		147	dominance	082	1.0	2		1112.1533176509224	1.2334446476604626
116.0	321.8382361242209	rating	1.0		74	dominance	082	1.0	2		1113.386762298583	0.6250692381554472
116.0	322.46330536237633	fix	2.0		60	dominance	082	1.0	2	0.0	1114.0118315367386	0.5167528414433491
117.0	322.9800582038197	face	0.0		147	dominance	137	1.0	2		1114.5285843781817	1.233453703331861
117.0	324.21351190715154	rating	1.0		70	dominance	137	1.0	2		1115.7620380815138	0.5917528188042525
117.0	324.8052647259558	fix	2.0		60	dominance	137	1.0	2	-0.20999999999999996	1116.353790900318	0.516753747010398
118.0	325.3220184729662	face	0.0		147	dominance	099	1.0	2		1116.8705446473282	1.2334926427197388
118.0	326.55551111568593	rating	1.0		142	dominance	099	1.0	2		1118.104037290048	1.191749317277754
118.0	327.7472604329637	fix	2.0		60	dominance	099	1.0	2	1.4900000000000002	1119.2957866073257	0.5167652175277908
119.0	328.2640256504915	face	0.0		147	dominance	144	1.0	2		1119.8125518248535	1.2334555144664137
119.0	329.4974811649579	rating	1.0		69	dominance	144	1.0	2		1121.04600733932	0.5834161675732048
119.0	330.0808973325311	fix	2.0		60	dominance	144	1.0	2	1.67	1121.629423506893	0.5000490515542424
120.0	330.58094638408534	cue	0.0		3600						1122.1294725584476	30.003522656233827
120.0	360.58446904031916	fix	1.0		120						1152.1329952146812	1.0001056495013927
120.0	361.58457468982056	cue	0.0		478						1153.1331008641828	4.000469989353633
120.0	365.5850446791742	fix	1.0		120						1157.1335708535362	1.016819098773567
120.0	366.60186377794776	face	0.0		147	dominance	043	2.0	2		1158.15038995231	1.2334491754961618
120.0	367.8353129534439	rating	1.0		194	dominance	043	2.0	2		1159.383839127806	1.6252005453927723
120.0	369.4605134988367	fix	2.0		61	dominance	043	2.0	2	-0.69	1161.009039673199	0.525074098032519
121.0	369.9855875968692	face	0.0		146	dominance	087	2.0	2		1161.5341137712312	1.225136370867176
121.0	371.2107239677364	rating	1.0		50	dominance	087	2.0	2		1162.7592501420986	0.4250234164574067
121.0	371.6357473841938	fix	2.0		60	dominance	087	2.0	2	1.6900000000000004	1163.184273558556	0.5167634063934656
122.0	372.15251079058726	face	0.0		147	dominance	099	2.0	2		1163.7010369649493	1.2334521940533705
122.0	373.3859629846406	rating	1.0		59	dominance	099	2.0	2		1164.9344891590026	0.5000565979471503
122.0	373.8860195825878	fix	2.0		60	dominance	099	2.0	2	0.0	1165.4345457569498	0.5167468043291592
123.0	374.40276638691694	face	0.0		147	dominance	042	2.0	2		1165.951292561279	1.2334567218890697
123.0	375.636223108806	rating	1.0		37	dominance	042	2.0	2		1167.184749283168	0.3167094345910755
123.0	375.9529325433971	fix	2.0		61	dominance	042	2.0	2	0.9400000000000004	1167.5014587177593	0.5250834555597521
124.0	376.47801599895683	face	0.0		146	dominance	066	2.0	2		1168.0265421733188	1.2251176558124826
124.0	377.7031336547693	rating	1.0		37	dominance	066	2.0	2		1169.2516598291313	0.3167175846954251
124.0	378.01985123946474	fix	2.0		60	dominance	066	2.0	2	2.12	1169.568377413827	0.5167359375232081
125.0	378.53658717698795	face	0.0		147	dominance	141	2.0	2		1170.0851133513502	1.233452495909205
125.0	379.77003967289716	rating	1.0		39	dominance	141	2.0	2		1171.3185658472594	0.3333773036495131
125.0	380.10341697654667	fix	2.0		60	dominance	141	2.0	2	-0.8799999999999999	1171.6519431509087	0.5167419746376254
126.0	380.6201589511843	face	0.0		147	dominance	018	2.0	2		1172.1686851255463	1.2334624571476525
126.0	381.85362140833195	rating	1.0		37	dominance	018	2.0	2		1173.402147582694	0.31669464366086686
126.0	382.1703160519928	fix	2.0		60	dominance	018	2.0	2	-1.67	1173.7188422263548	0.5167643119607419
127.0	382.68708036395356	face	0.0		147	dominance	062	2.0	2		1174.2356065383156	1.2334449495160698
127.0	383.9205253134696	rating	1.0		66	dominance	062	2.0	2		1175.4690514878316	0.5584125528512232
127.0	384.47893786632085	fix	2.0		60	dominance	062	2.0	2	-2.26	1176.0274640406828	0.5167492191746987
128.0	384.99568708549555	face	0.0		147	dominance	005	2.0	2		1176.5442132598578	1.2334422328146957
128.0	386.22912931831024	rating	1.0		54	dominance	005	2.0	2		1177.7776554926722	0.45838752901204316
128.0	386.6875168473223	fix	2.0		60	dominance	005	2.0	2	-3.62	1178.2360430216845	0.5167437857717232
129.0	387.204260633094	face	0.0		147	dominance	130	2.0	2		1178.7527868074562	1.233470909108064
129.0	388.4377315422021	rating	1.0		94	dominance	130	2.0	2		1179.986257716564	0.7917705679203664
129.0	389.22950211012244	fix	2.0		60	dominance	130	2.0	2	0.4500000000000002	1180.7780282844847	0.5167356356673736
130.0	389.7462377457898	face	0.0		147	dominance	092	2.0	2		1181.294763920152	1.2334609478691618
130.0	390.979698693659	rating	1.0		53	dominance	092	2.0	2		1182.528224868021	0.45004514252264016
130.0	391.4297438361816	fix	2.0		60	dominance	092	2.0	2	-1.38	1182.9782700105438	0.5167573692792757
131.0	391.9465012054609	face	0.0		147	dominance	044	2.0	2		1183.4950273798231	1.233466984983579
131.0	393.17996819044447	rating	1.0		41	dominance	044	2.0	2		1184.7284943648065	0.3500228353850616
131.0	393.52999102582953	fix	2.0		60	dominance	044	2.0	2	1.37	1185.0785172001915	0.5167658212392325
132.0	394.04675684706876	face	0.0		147	dominance	117	2.0	2		1185.595283021431	1.2334524959089777
132.0	395.28020934297774	rating	1.0		36	dominance	117	2.0	2		1186.8287355173397	0.30837157593737174
132.0	395.5885809189151	fix	2.0		60	dominance	117	2.0	2	0.0	1187.1371070932773	0.5167425783490671
133.0	396.1053234972642	face	0.0		147	dominance	061	2.0	2		1187.6538496716262	1.2334570237449043
133.0	397.3387805210091	rating	1.0		50	dominance	061	2.0	2		1188.887306695371	0.42503307584024697
133.0	397.76381359684933	fix	2.0		60	dominance	061	2.0	2	1.6900000000000004	1189.3123397712116	0.5167640101049074
134.0	398.28057760695424	face	0.0		147	dominance	009	2.0	2		1189.8291037813165	1.2334476662176712
134.0	399.5140252731719	rating	1.0		41	dominance	009	2.0	2		1191.0625514475341	0.35003823002671197
134.0	399.8640635031986	fix	2.0		60	dominance	009	2.0	2	1.38	1191.4125896775608	0.5167588785577664
135.0	400.3808223817564	face	0.0		147	dominance	102	2.0	2		1191.9293485561184	1.2334491754961618
135.0	401.61427155725255	rating	1.0		39	dominance	102	2.0	2		1193.1627977316148	0.3333757943710225
135.0	401.9476473516236	fix	2.0		60	dominance	102	2.0	2	-2.3899999999999997	1193.4961735259858	0.5167576711348829
136.0	402.46440502275846	face	0.0		147	dominance	030	2.0	2		1194.0129311971205	1.233460042302113
136.0	403.69786506506057	rating	1.0		38	dominance	030	2.0	2		1195.2463912394228	0.32504125613013457
136.0	404.0229063211907	fix	2.0		60	dominance	030	2.0	2	1.0	1195.571432495553	0.5167341263888829
137.0	404.5396404475796	face	0.0		147	dominance	070	2.0	2		1196.0881666219416	1.2334506847748798
137.0	405.77309113235447	rating	1.0		55	dominance	070	2.0	2		1197.3216173067167	0.46672327467558716
137.0	406.23981440703005	fix	2.0		60	dominance	070	2.0	2	1.7999999999999998	1197.7883405813923	0.5167564637119995
138.0	406.75657087074205	face	0.0		147	dominance	100	2.0	2		1198.305097045104	1.2334540051876957
138.0	407.99002487592975	rating	1.0		50	dominance	100	2.0	2		1199.538551050292	0.4250478667704556
138.0	408.4150727427002	fix	2.0		60	dominance	100	2.0	2	-0.9700000000000002	1199.9635989170624	0.5167631045378585
139.0	408.93183584723806	face	0.0		147	dominance	091	2.0	2		1200.4803620216003	1.233445855083346
139.0	410.1652817023214	rating	1.0		37	dominance	091	2.0	2		1201.7138078766834	0.31669313438214886
139.0	410.48197483670356	fix	2.0		60	dominance	091	2.0	2	1.6399999999999997	1202.0305010110656	0.5167588785577664
140.0	410.9987337152613	face	0.0		147	dominance	144	2.0	2		1202.5472598896235	1.2334446476604626
140.0	412.2321783629218	rating	1.0		49	dominance	144	2.0	2		1203.7807045372838	0.41672479904696047
140.0	412.64890316196875	fix	2.0		60	dominance	144	2.0	2	2.0300000000000002	1204.197429336331	0.5167543507220671
141.0	413.1656575126908	face	0.0		147	dominance	034	2.0	2		1204.7141836870528	1.2334485717847201
141.0	414.39910608447553	rating	1.0		56	dominance	034	2.0	2		1205.9476322588375	0.4750632463194506
141.0	414.874169330795	fix	2.0		60	dominance	034	2.0	2	0.0	1206.4226955051572	0.5167528414433491
142.0	415.39092217223833	face	0.0		147	dominance	033	2.0	2		1206.9394483466003	1.233445251371677
142.0	416.62436742361	rating	1.0		36	dominance	033	2.0	2		1208.1728935979722	0.3083661425346236
142.0	416.93273356614463	fix	2.0		60	dominance	033	2.0	2	0.8600000000000003	1208.4812597405066	0.5167652175277908
143.0	417.4494987836724	face	0.0		147	dominance	124	2.0	2		1208.9980249580344	1.233441629103254
143.0	418.6829404127757	rating	1.0		53	dominance	124	2.0	2		1210.2314665871377	0.4500605371642905
143.0	419.13300094993997	fix	2.0		60	dominance	124	2.0	2	1.6500000000000004	1210.6815271243022	0.5167440876275577
144.0	419.6497450375675	face	0.0		147	dominance	011	2.0	2		1211.1982712119298	1.233453703331861
144.0	420.8831987408994	rating	1.0		40	dominance	011	2.0	2		1212.4317249152614	0.3417154641590514
144.0	421.22491420505844	fix	2.0		60	dominance	011	2.0	2	-0.4700000000000002	1212.7734403794207	0.5167621989705822
145.0	421.741676404029	face	0.0		147	dominance	039	2.0	2		1213.290202578391	1.2334383086904381
145.0	422.97511471271946	rating	1.0		65	dominance	039	2.0	2		1214.5236408870815	0.5500520550185684
145.0	423.525166767738	fix	2.0		60	dominance	039	2.0	2	2.1399999999999997	1215.0736929421	0.5167528414433491
146.0	424.0419196091814	face	0.0		147	dominance	136	2.0	2		1215.5904457835436	1.2334543070433028
146.0	425.2753739162247	rating	1.0		203	dominance	136	2.0	2		1216.823900090587	1.7002077672909763
146.0	426.97558168351566	fix	2.0		60	dominance	136	2.0	2	-0.7599999999999998	1218.5241078578779	0.5167425783490671
147.0	427.4923242618647	face	0.0		147	dominance	036	2.0	2		1219.0408504362267	1.2334549107547446
147.0	428.72577917261947	rating	1.0		53	dominance	036	2.0	2		1220.2743053469817	0.45006415943294087
147.0	429.1758433320524	fix	2.0		60	dominance	036	2.0	2	-0.16000000000000014	1220.7243695064144	0.5167606896920915
148.0	429.6926040217445	face	0.0		147	dominance	101	2.0	2		1221.2411301961065	1.2334380068346036
148.0	430.9260420285791	rating	1.0		36	dominance	101	2.0	2		1222.474568202941	0.3083634258330221
148.0	431.2344054544121	fix	2.0		60	dominance	101	2.0	2	0.9800000000000004	1222.7829316287743	0.5167561618561649
149.0	431.7511616162683	face	0.0		147	dominance	082	2.0	2		1223.2996877906303	1.2334606460135547
149.0	432.98462226228185	rating	1.0		37	dominance	082	2.0	2		1224.5331484366438	0.3166943418050323
149.0	433.3013166040869	fix	2.0		60	dominance	082	2.0	2	-0.3599999999999999	1224.8498427784489	0.5167516340204656
150.0	433.81806823810734	face	0.0		147	dominance	172	2.0	2		1225.3665944124696	1.2334660794165302
150.0	435.0515343175239	rating	1.0		192	dominance	172	2.0	2		1226.6000604918859	1.6085305633441749
150.0	436.66006488086805	fix	2.0		60	dominance	172	2.0	2	2.2800000000000002	1228.20859105523	0.5167422764932326
151.0	437.1768071573613	face	0.0		147	dominance	024	2.0	2		1228.7253333317235	1.2334606460135547
151.0	438.41026780337484	rating	1.0		53	dominance	024	2.0	2		1229.958793977737	0.4500330682938056
151.0	438.86030087166864	fix	2.0		60	dominance	024	2.0	2	1.7599999999999998	1230.4088270460306	0.5167549544335088
152.0	439.37705582610215	face	0.0		147	dominance	027	2.0	2		1230.9255820004641	1.2334681924064625
152.0	440.6105240185086	rating	1.0		57	dominance	027	2.0	2		1232.1590501928708	0.48338057878413565
152.0	441.09390459729275	fix	2.0		60	dominance	027	2.0	2	1.7000000000000002	1232.6424307716547	0.5167449931946066
153.0	441.61064959048736	face	0.0		147	dominance	137	2.0	2		1233.1591757648494	1.2334636645707633
153.0	442.8441132550581	rating	1.0		102	dominance	137	2.0	2		1234.3926394294203	0.8584236309559401
153.0	443.70253688601406	fix	2.0		60	dominance	137	2.0	2	0.0	1235.251063060376	0.5167498228861405
154.0	444.2192867089002	face	0.0		147	dominance	121	2.0	2		1235.7678128832622	1.233453401476254
154.0	445.45274011037645	rating	1.0		151	dominance	121	2.0	2		1237.0012662847384	1.2668150991853508
154.0	446.7195552095618	fix	2.0		60	dominance	121	2.0	2	1.0999999999999996	1238.2680813839238	0.5167597841248153
155.0	447.2363149936866	face	0.0		147	dominance	126	2.0	2		1238.7848411680488	1.2334485717847201
155.0	448.46976356547134	rating	1.0		43	dominance	126	2.0	2		1240.0182897398336	0.36670640094121154
155.0	448.83646996641255	fix	2.0		60	dominance	126	2.0	2	-2.66	1240.3849961407745	0.5167531432989563
156.0	449.3532231097115	face	0.0		147	dominance	038	2.0	2		1240.9017492840735	1.2334594385906712
156.0	450.5866825483022	rating	1.0		58	dominance	038	2.0	2		1242.1352087226642	0.4917274931094653
156.0	451.07841004141164	fix	2.0		60	dominance	038	2.0	2	-1.56	1242.6269362157736	0.5167428802046743
157.0	451.5951529216163	face	0.0		147	dominance	012	2.0	2		1243.1436790959783	1.233453703331861
157.0	452.8286066249482	rating	1.0		46	dominance	012	2.0	2		1244.3771327993104	0.39171122308607664
157.0	453.22031784803426	fix	2.0		60	dominance	012	2.0	2	-0.94	1244.7688440223965	0.5167597841250426
158.0	453.7370776321593	face	0.0		147	dominance	006	2.0	2		1245.2856038065215	1.2334515903419287
158.0	454.9705292225012	rating	1.0		37	dominance	006	2.0	2		1246.5190553968632	0.3166988696407316
158.0	455.28722809214196	fix	2.0		61	dominance	006	2.0	2	1.0199999999999996	1246.835754266504	0.5250825499927032
159.0	455.81231064213466	face	0.0		146	dominance	064	2.0	2		1247.3608368164969	1.2251249003497833
159.0	457.03743554248445	rating	1.0		37	dominance	064	2.0	2		1248.5859617168467	0.31670611417825967
159.0	457.3541416566627	fix	2.0		60	dominance	064	2.0	2	1.04	1248.9026678310247	0.5000529756784999
160.0	457.8541946323412	cue	0.0		480						1249.4027208067032	4.000467574507866
160.0	461.85466220684907	fix	1.0		120						1253.4031883812113	1.0168100431019411
160.0	462.871472249951	face	0.0		147	attractiveness	061	2.0	2		1254.4199984243132	1.2334579293119532
160.0	464.10493017926296	rating	1.0		50	attractiveness	061	2.0	2		1255.6534563536252	0.4250868061583333
160.0	464.5300169854213	fix	2.0		61	attractiveness	061	2.0	2	-0.8999999999999999	1256.0785431597833	0.5250451198835435
161.0	465.05506210530484	face	0.0		146	attractiveness	117	2.0	2		1256.6035882796668	1.2251224855040164
161.0	466.28018459080886	rating	1.0		46	attractiveness	117	2.0	2		1257.8287107651709	0.39171182679774574
161.0	466.6718964176066	fix	2.0		60	attractiveness	117	2.0	2	-1.98	1258.2204225919686	0.5167546525774469
162.0	467.18865107018405	face	0.0		147	attractiveness	082	2.0	2		1258.7371772445463	1.2334512884863216
162.0	468.4221023586704	rating	1.0		36	attractiveness	082	2.0	2		1259.9706285330326	0.30836674624583793
162.0	468.7304691049162	fix	2.0		60	attractiveness	082	2.0	2	0.009999999999999787	1260.2789952792782	0.5167646138163491
163.0	469.24723371873256	face	0.0		147	attractiveness	038	2.0	2		1260.7957598930948	1.2334434402375791
163.0	470.48067715897014	rating	1.0		57	attractiveness	038	2.0	2		1262.0292033333321	0.48338782332143637
163.0	470.9640649822916	fix	2.0		60	attractiveness	038	2.0	2	-2.5700000000000003	1262.5125911566538	0.5167546525776743
164.0	471.48081963486925	face	0.0		147	attractiveness	033	2.0	2		1263.0293458092315	1.2334518921977633
164.0	472.714271527067	rating	1.0		42	attractiveness	033	2.0	2		1264.262797701429	0.3583788053817898
164.0	473.0726503324488	fix	2.0		60	attractiveness	033	2.0	2	1.0199999999999996	1264.621176506811	0.5167504265975822
165.0	473.5894007590464	face	0.0		147	attractiveness	024	2.0	2		1265.1379269334084	1.2334527977648122
165.0	474.8228535568112	rating	1.0		36	attractiveness	024	2.0	2		1266.3713797311734	0.3083755000616293
165.0	475.1312290568728	fix	2.0		60	attractiveness	024	2.0	2	-0.9700000000000002	1266.679755231235	0.5167428802046743
166.0	475.6479719370775	face	0.0		147	attractiveness	006	2.0	2		1267.1964981114397	1.2334681924064625
166.0	476.88144012948396	rating	1.0		62	attractiveness	006	2.0	2		1268.429966303846	0.5250481384407522
166.0	477.4064882679247	fix	2.0		60	attractiveness	006	2.0	2	-1.81	1268.955014442287	0.5167612934035333
167.0	477.92324956132825	face	0.0		147	attractiveness	136	2.0	2		1269.4717757356902	1.2334639664263705
167.0	479.1567135277546	rating	1.0		125	attractiveness	136	2.0	2		1270.7052397021166	1.0501041251300194
167.0	480.20681765288464	fix	2.0		60	attractiveness	136	2.0	2	-3.84	1271.7553438272466	0.5167519358760728
168.0	480.7235695887607	face	0.0		147	attractiveness	101	2.0	2		1272.2720957631227	1.2334594385906712
168.0	481.9570290273514	rating	1.0		100	attractiveness	101	2.0	2		1273.5055552017134	0.8417599878775945
168.0	482.798789015229	fix	2.0		60	attractiveness	101	2.0	2	0.5300000000000002	1274.347315189591	0.5167585767019318
169.0	483.3155475919309	face	0.0		147	attractiveness	012	2.0	2		1274.8640737662931	1.233448269929113
169.0	484.54899586186	rating	1.0		93	attractiveness	012	2.0	2		1276.097522036222	0.783424559162313
169.0	485.33242042102233	fix	2.0		60	attractiveness	012	2.0	2	0.5300000000000002	1276.8809465953846	0.5167612934035333
170.0	485.84918171442587	face	0.0		147	attractiveness	092	2.0	2		1277.3977078887879	1.2334491754961618
170.0	487.08263088992203	rating	1.0		108	attractiveness	092	2.0	2		1278.6311570642843	0.908434784524843
170.0	487.9910656744469	fix	2.0		60	attractiveness	092	2.0	2	-1.06	1279.5395918488089	0.5167543507218397
171.0	488.5078200251687	face	0.0		147	attractiveness	172	2.0	2		1280.0563461995307	1.233448269929113
171.0	489.7412682950978	rating	1.0		60	attractiveness	172	2.0	2		1281.28979446946	0.5083980788695044
171.0	490.24966637396733	fix	2.0		60	attractiveness	172	2.0	2	-2.62	1281.7981925483296	0.5167812158806555
172.0	490.766447589848	face	0.0		147	attractiveness	027	2.0	2		1282.3149737642102	1.2334280455959288
172.0	491.9998756354439	rating	1.0		143	attractiveness	027	2.0	2		1283.548401809806	1.2001291338763167
172.0	493.20000476932023	fix	2.0		60	attractiveness	027	2.0	2	0.8300000000000001	1284.7485309436825	0.5167612934035333
173.0	493.71676606272376	face	0.0		147	attractiveness	062	2.0	2		1285.2652922370858	1.2334491754961618
173.0	494.9502152382199	rating	1.0		73	attractiveness	062	2.0	2		1286.4987414125821	0.6167419444520874
173.0	495.566957182672	fix	2.0		60	attractiveness	062	2.0	2	-2.4699999999999998	1287.115483357034	0.5167410690701217
174.0	496.08369825174213	face	0.0		147	attractiveness	039	2.0	2		1287.6322244261041	1.2334621552922727
174.0	497.3171604070344	rating	1.0		209	attractiveness	039	2.0	2		1288.8656865813964	1.750202016939511
174.0	499.0673624239739	fix	2.0		60	attractiveness	039	2.0	2	4.0	1290.615888598336	0.5167525395875145
175.0	499.58411496356143	face	0.0		147	attractiveness	070	2.0	2		1291.1326411379237	1.2334527977648122
175.0	500.81756776132625	rating	1.0		123	attractiveness	070	2.0	2		1292.3660939356882	1.0334610082404652
175.0	501.8510287695667	fix	2.0		60	attractiveness	070	2.0	2	-4.0	1293.3995549439287	0.5167591804133735
176.0	502.3677879499801	face	0.0		147	attractiveness	034	2.0	2		1293.916314124342	1.2334407235359777
176.0	503.60122867351606	rating	1.0		300	attractiveness	034	2.0	2		1295.1497548478783	2.508628998494032
176.0	506.1098576720101	fix	2.0		60	attractiveness	034	2.0	2	0.7999999999999998	1297.658383846372	0.5167462006177175
177.0	506.6266038726278	face	0.0		147	attractiveness	137	2.0	2		1298.17513004699	1.2334558163220208
177.0	507.86005968894983	rating	1.0		202	attractiveness	137	2.0	2		1299.408585863312	1.6918717197715978
177.0	509.55193140872143	fix	2.0		60	attractiveness	137	2.0	2	-1.08	1301.1004575830834	0.5167425783488397
178.0	510.06867398707027	face	0.0		147	attractiveness	100	2.0	2		1301.6172001614323	1.2334582311677877
178.0	511.30213221823806	rating	1.0		43	attractiveness	100	2.0	2		1302.8506583926	0.36671002320963453
178.0	511.6688422414477	fix	2.0		60	attractiveness	100	2.0	2	0.9199999999999999	1303.2173684158097	0.5167428802046743
179.0	512.1855851216524	face	0.0		147	attractiveness	044	2.0	2		1303.7341112960144	1.233466984983579
179.0	513.419052106636	rating	1.0		37	attractiveness	044	2.0	2		1304.9675782809982	0.3167049067553762
179.0	513.7357570133913	fix	2.0		60	attractiveness	044	2.0	2	0.9199999999999999	1305.2842831877533	0.5167437857717232
180.0	514.252500799163	face	0.0		147	attractiveness	091	2.0	2		1305.801026973525	1.233453703331861
180.0	515.4859545024949	rating	1.0		49	attractiveness	091	2.0	2		1307.0344806768571	0.4167127248183533
180.0	515.9026672273133	fix	2.0		60	attractiveness	091	2.0	2	0.8099999999999996	1307.4511934016755	0.5167573692792757
181.0	516.4194245965925	face	0.0		147	attractiveness	043	2.0	2		1307.9679507709548	1.2334512884860942
181.0	517.6528758850786	rating	1.0		37	attractiveness	043	2.0	2		1309.2014020594406	0.3167027937652165
181.0	517.9695786788438	fix	2.0		60	attractiveness	043	2.0	2	0.8700000000000001	1309.5181048532058	0.5167507284534167
182.0	518.4863294072973	face	0.0		147	attractiveness	121	2.0	2		1310.0348555816595	1.2334555144661863
182.0	519.7197849217634	rating	1.0		45	attractiveness	121	2.0	2		1311.2683110961257	0.38337940154701755
182.0	520.1031643233105	fix	2.0		60	attractiveness	121	2.0	2	-1.9	1311.6516904976725	0.5167507284531894
183.0	520.6199150517637	face	0.0		147	attractiveness	126	2.0	2		1312.1684412261257	1.2334530996206468
183.0	521.8533681513843	rating	1.0		41	attractiveness	126	2.0	2		1313.4018943257465	0.3500460782754544
183.0	522.2034142296598	fix	2.0		60	attractiveness	126	2.0	2	-1.15	1313.7519404040218	0.5167455969060484
184.0	522.7201598265658	face	0.0		147	attractiveness	144	2.0	2		1314.268686000928	1.2334558163220208
184.0	523.9536156428878	rating	1.0		148	attractiveness	144	2.0	2		1315.50214181725	1.2418208419901475
184.0	525.195436484878	fix	2.0		60	attractiveness	144	2.0	2	-1.19	1316.74396265924	0.516750124741975
185.0	525.71218660962	face	0.0		147	attractiveness	042	2.0	2		1317.260712783982	1.233453401476254
185.0	526.9456400110962	rating	1.0		36	attractiveness	042	2.0	2		1318.4941661854582	0.3083637276886293
185.0	527.2540037387848	fix	2.0		60	attractiveness	042	2.0	2	0.46999999999999975	1318.8025299131468	0.5167507284534167
186.0	527.7707544672382	face	0.0		147	attractiveness	130	2.0	2		1319.3192806416005	1.233453401476254
186.0	529.0042078687145	rating	1.0		36	attractiveness	130	2.0	2		1320.5527340430767	0.3083679536687214
186.0	529.3125758223832	fix	2.0		60	attractiveness	130	2.0	2	-1.13	1320.8611019967452	0.5167516340204656
187.0	529.8293274564037	face	0.0		147	attractiveness	018	2.0	2		1321.377853630766	1.233476040655205
187.0	531.0628034970589	rating	1.0		203	attractiveness	018	2.0	2		1322.6113296714211	1.7001809021319332
187.0	532.7629843991908	fix	2.0		60	attractiveness	018	2.0	2	-0.1499999999999999	1324.3115105735528	0.516744993194834
188.0	533.2797293923857	face	0.0		147	attractiveness	011	2.0	2		1324.8282555667479	1.2334576274561186
188.0	534.5131870198418	rating	1.0		36	attractiveness	011	2.0	2		1326.061713194204	0.3083718777932063
188.0	534.821558897635	fix	2.0		60	attractiveness	011	2.0	2	0.0	1326.370085071997	0.5167573692790484
189.0	535.338316266914	face	0.0		147	attractiveness	124	2.0	2		1326.8868424412763	1.2334500810634381
189.0	536.5717663479775	rating	1.0		115	attractiveness	124	2.0	2		1328.1202925223397	0.9667789670556886
189.0	537.5385453150332	fix	2.0		60	attractiveness	124	2.0	2	3.5300000000000002	1329.0870714893954	0.5167513321648585
190.0	538.055296647198	face	0.0		147	attractiveness	102	2.0	2		1329.6038228215602	1.2334491754961618
190.0	539.2887458226942	rating	1.0		50	attractiveness	102	2.0	2		1330.8372719970562	0.42504575378052323
190.0	539.7137915764747	fix	2.0		60	attractiveness	102	2.0	2	-1.6400000000000001	1331.2623177508367	0.5167585767019318
191.0	540.2305501531766	face	0.0		147	attractiveness	141	2.0	2		1331.7790763275389	1.233450986630487
191.0	541.4640011398071	rating	1.0		45	attractiveness	141	2.0	2		1333.0125273141693	0.38338181639278446
191.0	541.8473829561999	fix	2.0		60	attractiveness	141	2.0	2	-0.31000000000000005	1333.395909130562	0.5167549544332815
192.0	542.3641379106332	face	0.0		147	attractiveness	099	2.0	2		1333.9126640849954	1.2334491754961618
192.0	543.5975870861294	rating	1.0		148	attractiveness	099	2.0	2		1335.1461132604913	1.241809069617375
192.0	544.8393961557467	fix	2.0		60	attractiveness	099	2.0	2	-1.63	1336.3879223301087	0.5167573692790484
193.0	545.3561535250258	face	0.0		147	attractiveness	087	2.0	2		1336.904679699388	1.2334506847748798
193.0	546.5896042098007	rating	1.0		62	attractiveness	087	2.0	2		1338.1381303841627	0.52506172194785
193.0	547.1146659317485	fix	2.0		60	attractiveness	087	2.0	2	2.12	1338.6631921061107	0.5167465024733247
194.0	547.6314124342218	face	0.0		147	attractiveness	005	2.0	2		1339.179938608584	1.2334606460133273
194.0	548.8648730802352	rating	1.0		287	attractiveness	005	2.0	2		1340.4133992545972	2.4002766809517198
194.0	551.2651497611869	fix	2.0		60	attractiveness	005	2.0	2	-3.87	1342.8136759355489	0.5167480117515879
195.0	551.7818977729385	face	0.0		147	attractiveness	066	2.0	2		1343.3304239473005	1.2334615515810583
195.0	553.0153593245195	rating	1.0		37	attractiveness	066	2.0	2		1344.5638854988815	0.3166982659290625
195.0	553.3320575904486	fix	2.0		60	attractiveness	066	2.0	2	-1.1800000000000002	1344.8805837648106	0.5167564637122268
196.0	553.8488140541608	face	0.0		147	attractiveness	009	2.0	2		1345.3973402285228	1.233461249724769
196.0	555.0822753038856	rating	1.0		40	attractiveness	009	2.0	2		1346.6308014782476	0.3417227086965795
196.0	555.4239980125822	fix	2.0		60	attractiveness	009	2.0	2	1.38	1346.9725241869442	0.5167253725726368
197.0	555.9407233851548	face	0.0		147	attractiveness	036	2.0	2		1347.4892495595168	1.233453401476254
197.0	557.174176786631	rating	1.0		43	attractiveness	036	2.0	2		1348.722702960993	0.36671726774693525
197.0	557.540894054378	fix	2.0		60	attractiveness	036	2.0	2	1.3099999999999996	1349.08942022874	0.5167492191749261
198.0	558.0576432735529	face	0.0		147	attractiveness	030	2.0	2		1349.606169447915	1.2334585330231675
198.0	559.2911018065761	rating	1.0		60	attractiveness	030	2.0	2		1350.839627980938	0.5083829860836886
198.0	559.7994847926598	fix	2.0		60	attractiveness	030	2.0	2	1.0199999999999996	1351.3480109670218	0.5167489173190916
199.0	560.3162337099789	face	0.0		147	attractiveness	064	2.0	2		1351.8647598843409	1.2334561181778554
199.0	561.5496898281567	rating	1.0		37	attractiveness	064	2.0	2		1353.0982160025187	0.3167003789194496
199.0	561.8663902070762	fix	2.0		60	attractiveness	064	2.0	2	-0.9199999999999999	1353.4149163814382	0.500072596300015
200.0	562.3664628033762	cue	0.0		480						1353.9149889777382	4.000459122547909
200.0	566.3669219259241	fix	1.0		120						1357.915448100286	1.016809439390272
200.0	567.3837313653144	face	0.0		147	trustworthiness	070	2.0	2		1358.9322575396764	1.2334612497252238
200.0	568.6171926150396	rating	1.0		123	trustworthiness	070	2.0	2		1360.1657187894016	1.033449537722845
200.0	569.6506421527624	fix	2.0		60	trustworthiness	070	2.0	2	-3.94	1361.1991683271244	0.5167428802046743
201.0	570.1673850329671	face	0.0		147	trustworthiness	044	2.0	2		1361.715911207329	1.2334624571476525
201.0	571.4008474901148	rating	1.0		44	trustworthiness	044	2.0	2		1362.9493736644768	0.3750415428935412
201.0	571.7758890330083	fix	2.0		60	trustworthiness	044	2.0	2	1.7599999999999998	1363.3244152073703	0.5167516340202383
202.0	572.2926406670285	face	0.0		147	trustworthiness	117	2.0	2		1363.8411668413905	1.2334567218895245
202.0	573.5260973889181	rating	1.0		120	trustworthiness	117	2.0	2		1365.07462356328	1.0084513564033841
202.0	574.5345487453214	fix	2.0		60	trustworthiness	117	2.0	2	1.0099999999999998	1366.0830749196834	0.5167513321648585
203.0	575.0513000774863	face	0.0		147	trustworthiness	006	2.0	2		1366.5998262518483	1.2334555144661863
203.0	576.2847555919525	rating	1.0		55	trustworthiness	006	2.0	2		1367.8332817663145	0.46672236910853826
203.0	576.751477961061	fix	2.0		60	trustworthiness	006	2.0	2	-0.9700000000000002	1368.300004135423	0.5167480117520427
204.0	577.2682259728131	face	0.0		147	trustworthiness	024	2.0	2		1368.816752147175	1.2334573256007388
204.0	578.5016832984138	rating	1.0		78	trustworthiness	024	2.0	2		1370.0502094727758	0.6584119189537887
204.0	579.1600952173676	fix	2.0		60	trustworthiness	024	2.0	2	-0.3799999999999999	1370.7086213917296	0.5167492191749261
205.0	579.6768444365425	face	0.0		147	trustworthiness	012	2.0	2		1371.2253706109045	1.2334521940533705
205.0	580.9102966305959	rating	1.0		40	trustworthiness	012	2.0	2		1372.458822804958	0.34171093632312477
205.0	581.252007566919	fix	2.0		60	trustworthiness	012	2.0	2	1.0300000000000002	1372.800533741281	0.516748615463257
206.0	581.7687561823823	face	0.0		147	trustworthiness	034	2.0	2		1373.3172823567443	1.233454910754972
206.0	583.0022110931372	rating	1.0		52	trustworthiness	034	2.0	2		1374.5507372674992	0.44171935809799834
206.0	583.4439304512352	fix	2.0		60	trustworthiness	034	2.0	2	1.08	1374.9924566255972	0.5167498228861405
207.0	583.9606802741214	face	0.0		147	trustworthiness	144	2.0	2		1375.5092064484834	1.233449477351769
207.0	585.1941297514732	rating	1.0		46	trustworthiness	144	2.0	2		1376.7426559258352	0.39171786391170826
207.0	585.5858476153849	fix	2.0		60	trustworthiness	144	2.0	2	1.7599999999999998	1377.1343737897469	0.5167588785579937
208.0	586.1026064939429	face	0.0		147	trustworthiness	172	2.0	2		1377.6511326683049	1.2334449495160698
208.0	587.3360514434589	rating	1.0		37	trustworthiness	172	2.0	2		1378.884577617821	0.3167043030439345
208.0	587.6527557465029	fix	2.0		60	trustworthiness	172	2.0	2	-2.1399999999999997	1379.2012819208649	0.5167480117515879
209.0	588.1695037582545	face	0.0		147	trustworthiness	033	2.0	2		1379.7180299326164	1.2334606460135547
209.0	589.402964404268	rating	1.0		111	trustworthiness	033	2.0	2		1380.95149057863	0.933437191824396
209.0	590.3364015960924	fix	2.0		60	trustworthiness	033	2.0	2	-0.56	1381.8849277704544	0.5167474080403736
210.0	590.8531490041328	face	0.0		147	trustworthiness	064	2.0	2		1382.4016751784948	1.2334630608593216
210.0	592.0866120649921	rating	1.0		36	trustworthiness	064	2.0	2		1383.635138239354	0.3083676518131142
210.0	592.3949797168052	fix	2.0		60	trustworthiness	064	2.0	2	1.4000000000000004	1383.9435058911672	0.516748615463257
211.0	592.9117283322685	face	0.0		147	trustworthiness	062	2.0	2		1384.4602545066305	1.2334521940533705
211.0	594.1451805263218	rating	1.0		444	trustworthiness	062	2.0	2		1385.6937067006838	3.7087756400019316
211.0	597.8539561663238	fix	2.0		60	trustworthiness	062	2.0	2	-2.29	1389.4024823406858	0.5167495210303059
212.0	598.3707056873541	face	0.0		147	trustworthiness	130	2.0	2		1389.919231861716	1.2334488736405547
212.0	599.6041545609946	rating	1.0		38	trustworthiness	130	2.0	2		1391.1526807353566	0.3250376338614842
212.0	599.9291921948561	fix	2.0		60	trustworthiness	130	2.0	2	-1.8199999999999998	1391.477718369218	0.5167498228861405
213.0	600.4459420177423	face	0.0		147	trustworthiness	038	2.0	2		1391.9944681921043	1.233457929312408
213.0	601.6793999470547	rating	1.0		50	trustworthiness	038	2.0	2		1393.2279261214167	0.42505058347205704
213.0	602.1044505305267	fix	2.0		61	trustworthiness	038	2.0	2	1.3600000000000003	1393.6529767048887	0.5250840592711938
214.0	602.6295345897979	face	0.0		146	trustworthiness	011	2.0	2		1394.17806076416	1.2251245984939487
214.0	603.8546591882919	rating	1.0		36	trustworthiness	011	2.0	2		1395.4031853626539	0.30835919985293003
214.0	604.1630183881448	fix	2.0		60	trustworthiness	011	2.0	2	1.0199999999999996	1395.7115445625068	0.5167528414431217
215.0	604.6797712295879	face	0.0		147	trustworthiness	124	2.0	2		1396.22829740395	1.2334615515810583
215.0	605.913232781169	rating	1.0		81	trustworthiness	124	2.0	2		1397.461758955531	0.6834061761487646
215.0	606.5966389573177	fix	2.0		60	trustworthiness	124	2.0	2	3.6500000000000004	1398.1451651316797	0.5167510303090239
216.0	607.1133899876268	face	0.0		147	trustworthiness	091	2.0	2		1398.6619161619888	1.23345642003369
216.0	608.3468464076605	rating	1.0		111	trustworthiness	091	2.0	2		1399.8953725820224	0.9334423233713096
216.0	609.2802887310318	fix	2.0		60	trustworthiness	091	2.0	2	2.51	1400.8288149053938	0.5167510303090239
217.0	609.7970397613408	face	0.0		147	trustworthiness	009	2.0	2		1401.3455659357028	1.2334552126103517
217.0	611.0304949739511	rating	1.0		56	trustworthiness	009	2.0	2		1402.5790211483131	0.4750538887924449
217.0	611.5055488627436	fix	2.0		60	trustworthiness	009	2.0	2	2.9400000000000004	1403.0540750371056	0.5167516340202383
218.0	612.0223004967638	face	0.0		147	trustworthiness	042	2.0	2		1403.5708266711258	1.233454005187923
218.0	613.2557545019517	rating	1.0		105	trustworthiness	042	2.0	2		1404.8042806763137	0.8834344902152225
218.0	614.139188992167	fix	2.0		60	trustworthiness	042	2.0	2	1.67	1405.687715166529	0.5167480117520427
219.0	614.655937003919	face	0.0		147	trustworthiness	018	2.0	2		1406.204463178281	1.2334615515806036
219.0	615.8893985554996	rating	1.0		89	trustworthiness	018	2.0	2		1407.4379247298616	0.7500879154781614
219.0	616.6394864709778	fix	2.0		60	trustworthiness	018	2.0	2	0.9199999999999999	1408.1880126453398	0.5167437857717232
220.0	617.1562302567495	face	0.0		147	trustworthiness	039	2.0	2		1408.7047564311115	1.233459740446051
220.0	618.3896899971955	rating	1.0		129	trustworthiness	039	2.0	2		1409.9382161715575	1.0834579745906012
220.0	619.4731479717861	fix	2.0		60	trustworthiness	039	2.0	2	3.8600000000000003	1411.0216741461481	0.5167477098962081
221.0	619.9898956816824	face	0.0		147	trustworthiness	082	2.0	2		1411.5384218560444	1.233459740446051
221.0	621.2233554221284	rating	1.0		74	trustworthiness	082	2.0	2		1412.7718815964904	0.6250722567128832
221.0	621.8484276788413	fix	2.0		60	trustworthiness	082	2.0	2	1.4000000000000004	1413.3969538532033	0.5167507284531894
222.0	622.3651784072945	face	0.0		147	trustworthiness	043	2.0	2		1413.9137045816565	1.2334570237449043
222.0	623.5986354310394	rating	1.0		36	trustworthiness	043	2.0	2		1415.1471616054014	0.3083667462460653
222.0	623.9070021772854	fix	2.0		60	trustworthiness	043	2.0	2	0.0	1415.4555283516474	0.5168086847511404
223.0	624.4238108620366	face	0.0		147	trustworthiness	066	2.0	2		1415.9723370363986	1.2333996711581676
223.0	625.6572105331948	rating	1.0		49	trustworthiness	066	2.0	2		1417.2057367075568	0.4167148378087404
223.0	626.0739253710035	fix	2.0		60	trustworthiness	066	2.0	2	-0.4700000000000002	1417.6224515453655	0.5167501247415203
224.0	626.590675495745	face	0.0		147	trustworthiness	137	2.0	2		1418.139201670107	1.2334552126108065
224.0	627.8241307083558	rating	1.0		37	trustworthiness	137	2.0	2		1419.3726568827178	0.3167018881981676
224.0	628.140832596554	fix	2.0		60	trustworthiness	137	2.0	2	-0.8599999999999999	1419.689358770916	0.5167516340202383
225.0	628.6575842305742	face	0.0		147	trustworthiness	092	2.0	2		1420.2061104049362	1.2334881148840395
225.0	629.8910723454583	rating	1.0		50	trustworthiness	092	2.0	2		1421.4395985198203	0.42501647377594054
225.0	630.3160888192342	fix	2.0		60	trustworthiness	092	2.0	2	-1.33	1421.8646149935962	0.5167519358760728
226.0	630.8328407551103	face	0.0		147	trustworthiness	027	2.0	2		1422.3813669294723	1.2334558163220208
226.0	632.0662965714323	rating	1.0		64	trustworthiness	027	2.0	2		1423.6148227457943	0.5417289872948459
226.0	632.6080255587271	fix	2.0		60	trustworthiness	027	2.0	2	1.0999999999999996	1424.1565517330891	0.5167492191749261
227.0	633.1247747779021	face	0.0		147	trustworthiness	126	2.0	2		1424.673300952264	1.2334570237449043
227.0	634.358231801647	rating	1.0		46	trustworthiness	126	2.0	2		1425.906757976009	0.39171122308607664
227.0	634.749943024733	fix	2.0		60	trustworthiness	126	2.0	2	-1.25	1426.298469199095	0.516750124741975
228.0	635.266693149475	face	0.0		147	trustworthiness	061	2.0	2		1426.815219323837	1.2334573256007388
228.0	636.5001504750758	rating	1.0		49	trustworthiness	061	2.0	2		1428.0486766494378	0.41672328976846984
228.0	636.9168737648442	fix	2.0		60	trustworthiness	061	2.0	2	1.04	1428.4653999392062	0.5167413709259563
229.0	637.4336151357702	face	0.0		147	trustworthiness	087	2.0	2		1428.9821413101322	1.2334576274561186
229.0	638.6670727632263	rating	1.0		60	trustworthiness	087	2.0	2		1430.2155989375883	0.5083890231981059
229.0	639.1754617864244	fix	2.0		60	trustworthiness	087	2.0	2	2.08	1430.7239879607864	0.5167513321648585
230.0	639.6922131185893	face	0.0		147	trustworthiness	102	2.0	2		1431.2407392929513	1.2334555144661863
230.0	640.9256686330555	rating	1.0		49	trustworthiness	102	2.0	2		1432.4741948074175	0.41671544151995477
230.0	641.3423840745754	fix	2.0		60	trustworthiness	102	2.0	2	-1.35	1432.8909102489374	0.5167480117515879
231.0	641.859132086327	face	0.0		147	trustworthiness	101	2.0	2		1433.407658260689	1.2334594385906712
231.0	643.0925915249177	rating	1.0		37	trustworthiness	101	2.0	2		1434.6411176992797	0.316700077063615
231.0	643.4092916019813	fix	2.0		60	trustworthiness	101	2.0	2	1.0899999999999999	1434.9578177763433	0.5167474080408283
232.0	643.9260390100221	face	0.0		147	trustworthiness	141	2.0	2		1435.4745651843841	1.23346034415772
232.0	645.1594993541798	rating	1.0		56	trustworthiness	141	2.0	2		1436.7080255285418	0.4750578129164751
232.0	645.6345571670963	fix	2.0		60	trustworthiness	141	2.0	2	1.21	1437.1830833414583	0.5167462006174901
233.0	646.1513033677138	face	0.0		147	trustworthiness	099	2.0	2		1437.6998295420758	1.2334582311677877
233.0	647.3847615988816	rating	1.0		52	trustworthiness	099	2.0	2		1438.9332877732436	0.4417154339730587
233.0	647.8264770328547	fix	2.0		60	trustworthiness	099	2.0	2	1.88	1439.3750032072167	0.5167552562893434
234.0	648.343232289144	face	0.0		147	trustworthiness	030	2.0	2		1439.891758463506	1.2334660794163028
234.0	649.5766983685603	rating	1.0		88	trustworthiness	030	2.0	2		1441.1252245429223	0.7417370770285743
234.0	650.3184354455889	fix	2.0		60	trustworthiness	030	2.0	2	2.92	1441.8669616199509	0.5167516340202383
235.0	650.8351870796091	face	0.0		147	trustworthiness	100	2.0	2		1442.383713253971	1.2334588348794568
235.0	652.0686459144886	rating	1.0		46	trustworthiness	100	2.0	2		1443.6171720888506	0.39170971380735864
235.0	652.4603556282959	fix	2.0		60	trustworthiness	100	2.0	2	0.6399999999999997	1444.008881802658	0.5167540488664599
236.0	652.9771096771624	face	0.0		147	trustworthiness	121	2.0	2		1444.5256358515244	1.2335010946794682
236.0	654.2106107718419	rating	1.0		36	trustworthiness	121	2.0	2		1445.7591369462039	0.3083202604652797
236.0	654.5189310323071	fix	2.0		60	trustworthiness	121	2.0	2	-1.48	1446.0674572066691	0.5167495210307607
237.0	655.0356805533379	face	0.0		147	trustworthiness	036	2.0	2		1446.5842067277	1.2334570237449043
237.0	656.2691375770828	rating	1.0		72	trustworthiness	036	2.0	2		1447.8176637514448	0.6084031802311074
237.0	656.8775407573139	fix	2.0		60	trustworthiness	036	2.0	2	0.0	1448.426066931676	0.516748615463257
238.0	657.3942893727772	face	0.0		147	trustworthiness	136	2.0	2		1448.9428155471392	1.2334594385906712
238.0	658.6277488113678	rating	1.0		85	trustworthiness	136	2.0	2		1450.1762749857298	0.7167488569475609
238.0	659.3444976683154	fix	2.0		60	trustworthiness	136	2.0	2	-3.35	1450.8930238426774	0.5167498228861405
239.0	659.8612474912015	face	0.0		147	trustworthiness	005	2.0	2		1451.4097736655635	1.2334561181778554
239.0	661.0947036093794	rating	1.0		196	trustworthiness	005	2.0	2		1452.6432297837414	1.6418569439342718
239.0	662.7365605533137	fix	2.0		60	trustworthiness	005	2.0	2	-3.93	1454.2850867276757	0.5000596165041316
