trial_nr	onset	event_type	phase	response	nr_frames	trial_type	stim_name	task_probe	onset_abs	duration
0.0	0.05561059423052939	baseline	0.0		701		baseline	0.0	20.912306184878616	5.849649935916204
0.0	0.7054776863960797	pulse	0.0	t			baseline	0.0	21.562173277044167	
0.0	1.4054491910528668	pulse	0.0	t			baseline	0.0	22.262144781700954	
0.0	2.105428544003189	pulse	0.0	t			baseline	0.0	22.962124134651276	
0.0	2.8054302344044117	pulse	0.0	t			baseline	0.0	23.6621258250525	
0.0	3.5054261895147647	pulse	0.0	t			baseline	0.0	24.362121780162852	
0.0	4.2054170130486455	pulse	0.0	t			baseline	0.0	25.062112603696733	
0.0	4.905406931009566	pulse	0.0	t			baseline	0.0	25.762102521657653	
0.0	5.605392622966974	pulse	0.0	t			baseline	0.0	26.46208821361506	
0.0	5.905260530146734	ISI	1.0		2		baseline	0.0	26.76195612079482	0.12553104271773918
1.0	6.030791572864473	number	0.0		45	character	number-139.jpg	0.0	26.88748716351256	0.37443454553249467
1.0	6.305347827321384	pulse	0.0	t		character	number-139.jpg	0.0	27.16204341796947	
1.0	6.405226118396968	ISI	1.0		233	character	number-139.jpg	0.0	27.261921709045055	2.01666162564743
1.0	7.0053356322805485	pulse	1.0	t		character	number-139.jpg	0.0	27.862031222928636	
1.0	7.705322229809099	pulse	1.0	t		character	number-139.jpg	0.0	28.562017820457186	
2.0	8.421887744044398	limb	0.0		45	body	limb-81.jpg	0.0	29.278583334692485	0.3832904393902936
2.0	8.413651865388601	pulse	0.0	t		body	limb-81.jpg	0.0	29.27034745603669	
2.0	8.805178183434691	ISI	1.0		234	body	limb-81.jpg	0.0	29.66187377408278	2.0166839630983304
2.0	9.1053029713039	pulse	1.0	t		body	limb-81.jpg	0.0	29.961998561951987	
2.0	9.80529288926482	pulse	1.0	t		body	limb-81.jpg	0.0	30.661988479912907	
2.0	10.505285222086059	pulse	1.0	t		body	limb-81.jpg	0.0	31.361980812734146	
3.0	10.821862146533022	number	0.0		46	character	number-72.jpg	0.0	31.67855773718111	0.38331006012413127
3.0	11.205172206657153	ISI	1.0		231	character	number-72.jpg	0.0	32.06186779730524	2.0166981503980423
3.0	11.273289962455237	pulse	1.0	t		character	number-72.jpg	0.0	32.129985553103324	
3.0	11.905278943450867	pulse	1.0	t		character	number-72.jpg	0.0	32.761974534098954	
3.0	12.605345533204854	pulse	1.0	t		character	number-72.jpg	0.0	33.46204112385294	
4.0	13.221870357055195	house	0.0		46	place	house-34.jpg	0.0	34.07856594770328	0.38327383723026287
4.0	13.305263005378038	pulse	0.0	t		place	house-34.jpg	0.0	34.161958596026125	
4.0	13.605144194285458	ISI	1.0		231	place	house-34.jpg	0.0	34.461839784933545	2.0166637386491857
4.0	14.005249602906588	pulse	1.0	t		place	house-34.jpg	0.0	34.861945193554675	
4.0	14.705230767001922	pulse	1.0	t		place	house-34.jpg	0.0	35.56192635765001	
4.0	15.405233966691412	pulse	1.0	t		place	house-34.jpg	0.0	36.2619295573395	
5.0	15.621807932934644	car	0.0		46	object	car-27.jpg	0.0	36.47850352358273	0.3833079471223755
5.0	16.00511588005702	ISI	1.0		354	object	car-27.jpg	0.0	36.861811470705106	3.0166507587791784
5.0	16.105233242233226	pulse	1.0	t		object	car-27.jpg	0.0	36.96192883288131	
5.0	16.80522436762385	pulse	1.0	t		object	car-27.jpg	0.0	37.66191995827194	
5.0	17.505207342864196	pulse	1.0	t		object	car-27.jpg	0.0	38.36190293351228	
5.0	18.205200581257486	pulse	1.0	t		object	car-27.jpg	0.0	39.06189617190557	
5.0	18.90519321593547	pulse	1.0	t		object	car-27.jpg	0.0	39.761888806583556	
6.0	19.021766638836198	limb	0.0		46	body	limb-10.jpg	0.0	39.878462229484285	0.3833414532982715
6.0	19.40510809213447	ISI	1.0		233	body	limb-10.jpg	0.0	40.261803682782556	2.016666757223902
6.0	19.60527338927386	pulse	1.0	t		body	limb-10.jpg	0.0	40.46196897992195	
6.0	20.30524429021625	pulse	1.0	t		body	limb-10.jpg	0.0	41.16193988086434	
6.0	21.00523903789599	pulse	1.0	t		body	limb-10.jpg	0.0	41.86193462854408	
7.0	21.42177484935837	limb	0.0		46	body	limb-33.jpg	0.0	42.27847044000646	0.3832690075105347
7.0	21.705162245360953	pulse	0.0	t		body	limb-33.jpg	0.0	42.56185783600904	
7.0	21.805043856868906	ISI	1.0		235	body	limb-33.jpg	0.0	42.66173944751699	2.0166655497941974
7.0	22.405155785611896	pulse	1.0	t		body	limb-33.jpg	0.0	43.26185137625998	
7.0	23.105166229879615	pulse	1.0	t		body	limb-33.jpg	0.0	43.9618618205277	
8.0	23.821709406663103	car	0.0		45	object	car-26.jpg	0.0	44.67840499731119	0.38331006012413127
8.0	23.81365645362257	pulse	0.0	t		object	car-26.jpg	0.0	44.67035204427066	
8.0	24.205019466787235	ISI	1.0		353	object	car-26.jpg	0.0	45.06171505743532	3.0166495513494738
8.0	24.50513248221614	pulse	1.0	t		object	car-26.jpg	0.0	45.36182807286423	
8.0	25.205121192748265	pulse	1.0	t		object	car-26.jpg	0.0	46.06181678339635	
8.0	25.905122883149488	pulse	1.0	t		object	car-26.jpg	0.0	46.761818473797575	
8.0	26.605118234544534	pulse	1.0	t		object	car-26.jpg	0.0	47.46181382519262	
9.0	27.22166901813671	adult	0.0		46	face	adult-73.jpg	0.0	48.078364608784796	0.3833435663009368
9.0	27.305109058078415	pulse	0.0	t		face	adult-73.jpg	0.0	48.1618046487265	
9.0	27.605012584437645	ISI	1.0		353	face	adult-73.jpg	0.0	48.46170817508573	3.0166567959277018
9.0	28.005147876946467	pulse	1.0	t		face	adult-73.jpg	0.0	48.861843467594554	
9.0	28.70515288778006	pulse	1.0	t		face	adult-73.jpg	0.0	49.561848478428146	
9.0	29.40515457818219	pulse	1.0	t		face	adult-73.jpg	0.0	50.26185016883028	
9.0	30.105122460548955	pulse	1.0	t		face	adult-73.jpg	0.0	50.96181805119704	
10.0	30.621669380365347	number	0.0		46	character	number-44.jpg	0.0	51.478364971013434	0.38327353537260933
10.0	30.80505834602718	pulse	0.0	t		character	number-44.jpg	0.0	51.66175393667527	
10.0	31.004942915737956	ISI	1.0		234	character	number-44.jpg	0.0	51.86163850638604	2.016662531219481
10.0	31.50504735841605	pulse	1.0	t		character	number-44.jpg	0.0	52.36174294906414	
10.0	32.20503637080492	pulse	1.0	t		character	number-44.jpg	0.0	53.061731961453006	
10.0	32.90502689248024	pulse	1.0	t		character	number-44.jpg	0.0	53.761722483128324	
11.0	33.02160544695744	adult	0.0		46	face	adult-42.jpg	0.0	53.878301037605524	0.38331006012413127
11.0	33.40491550708157	ISI	1.0		234	face	adult-42.jpg	0.0	54.261611097729656	2.01666162564743
11.0	33.605030695884125	pulse	1.0	t		face	adult-42.jpg	0.0	54.46172628653221	
11.0	34.30501306740916	pulse	1.0	t		face	adult-42.jpg	0.0	55.16170865805725	
11.0	35.00499936308097	pulse	1.0	t		face	adult-42.jpg	0.0	55.86169495372906	
12.0	35.421577132729	car	0.0		46	object	car-122.jpg	0.0	56.278272723377086	0.38330704154941486
12.0	35.70499592190663	pulse	0.0	t		object	car-122.jpg	0.0	56.56169151255472	
12.0	35.80488417427841	ISI	1.0		234	object	car-122.jpg	0.0	56.6615797649265	2.025025793718669
12.0	36.40499187701607	pulse	1.0	t		object	car-122.jpg	0.0	57.26168746766416	
12.0	37.10504910918917	pulse	1.0	t		object	car-122.jpg	0.0	57.961744699837254	
13.0	37.82990996799708	adult	0.0		44	face	adult-70.jpg	0.0	58.68660555864517	0.37497939822969784
13.0	37.815197134044865	pulse	0.0	t		face	adult-70.jpg	0.0	58.67189272469295	
13.0	38.20488936622678	ISI	1.0		595	face	adult-70.jpg	0.0	59.06158495687487	5.016628119469715
13.0	38.5050376989775	pulse	1.0	t		face	adult-70.jpg	0.0	59.36173328962559	
13.0	39.20502761693842	pulse	1.0	t		face	adult-70.jpg	0.0	60.06172320758651	
13.0	39.90501813861465	pulse	1.0	t		face	adult-70.jpg	0.0	60.76171372926274	
13.0	40.60500986772058	pulse	1.0	t		face	adult-70.jpg	0.0	61.46170545836867	
13.0	41.30500521911563	pulse	1.0	t		face	adult-70.jpg	0.0	62.161700809763715	
13.0	42.004994835219804	pulse	1.0	t		face	adult-70.jpg	0.0	62.86169042586789	
13.0	42.70498445132307	pulse	1.0	t		face	adult-70.jpg	0.0	63.56168004197116	
14.0	43.221517485696495	car	0.0		46	object	car-34.jpg	0.0	64.07821307634458	0.3832850059561679
14.0	43.40490464021332	pulse	0.0	t		object	car-34.jpg	0.0	64.2616002308614	
14.0	43.60480249165266	ISI	1.0		235	object	car-34.jpg	0.0	64.46149808230075	2.016663436791532
14.0	44.10490391575604	pulse	1.0	t		object	car-34.jpg	0.0	64.96159950640413	
14.0	44.8048823631334	pulse	1.0	t		object	car-34.jpg	0.0	65.66157795378149	
14.0	45.50488284610583	pulse	1.0	t		object	car-34.jpg	0.0	66.36157843675392	
15.0	45.621465928444195	car	0.0		46	object	car-131.jpg	0.0	66.47816151909228	0.38330040068558446
15.0	46.00476632912978	ISI	1.0		234	object	car-131.jpg	0.0	66.86146191977787	2.0166646442221463
15.0	46.20488181978999	pulse	1.0	t		object	car-131.jpg	0.0	67.06157741043808	
15.0	46.90487656747064	pulse	1.0	t		object	car-131.jpg	0.0	67.76157215811872	
15.0	47.60485742970832	pulse	1.0	t		object	car-131.jpg	0.0	68.4615530203564	
16.0	48.021430973351926	adult	0.0		46	face	adult-37.jpg	0.0	68.87812656400001	0.38331066383852885
16.0	48.30485549782043	pulse	0.0	t		face	adult-37.jpg	0.0	69.16155108846851	
16.0	48.404741637190455	ISI	1.0		232	face	adult-37.jpg	0.0	69.26143722783854	2.0166903021054168
16.0	49.0048451139246	pulse	1.0	t		face	adult-37.jpg	0.0	69.86154070457269	
16.0	49.704906270243555	pulse	1.0	t		face	adult-37.jpg	0.0	70.56160186089164	
17.0	50.42143193929587	limb	0.0		45	body	limb-112.jpg	0.0	71.27812752994396	0.38331126755383593
17.0	50.41337808068238	pulse	0.0	t		body	limb-112.jpg	0.0	71.27007367133047	
17.0	50.80474320684971	ISI	1.0		354	body	limb-112.jpg	0.0	71.6614387974978	3.016659210787111
17.0	51.10489003031307	pulse	1.0	t		body	limb-112.jpg	0.0	71.96158562096116	
17.0	51.8048805519893	pulse	1.0	t		body	limb-112.jpg	0.0	72.66157614263739	
17.0	52.504876808956396	pulse	1.0	t		body	limb-112.jpg	0.0	73.36157239960448	
17.0	53.2048618971985	pulse	1.0	t		body	limb-112.jpg	0.0	74.06155748784658	
18.0	53.82140241763682	limb	0.0		46	body	limb-84.jpg	0.0	74.6780980082849	0.38326991308349534
18.0	53.90479506595966	pulse	0.0	t		body	limb-84.jpg	0.0	74.76149065660775	
18.0	54.204672330720314	ISI	1.0		953	body	limb-84.jpg	0.0	75.0613679213684	8.01662781761297
18.0	54.60478105977381	pulse	1.0	t		body	limb-84.jpg	0.0	75.4614766504219	
18.0	55.30477007216268	pulse	1.0	t		body	limb-84.jpg	0.0	76.16146566281077	
18.0	56.004759386409205	pulse	1.0	t		body	limb-84.jpg	0.0	76.86145497705729	
18.0	56.70475111551423	pulse	1.0	t		body	limb-84.jpg	0.0	77.56144670616231	
18.0	57.40474314647781	pulse	1.0	t		body	limb-84.jpg	0.0	78.2614387371259	
18.0	58.104742422020536	pulse	1.0	t		body	limb-84.jpg	0.0	78.96143801266862	
18.0	58.80473113255175	pulse	1.0	t		body	limb-84.jpg	0.0	79.66142672319984	
18.0	59.504740369389765	pulse	1.0	t		body	limb-84.jpg	0.0	80.36143596003785	
18.0	60.204773151108384	pulse	1.0	t		body	limb-84.jpg	0.0	81.06146874175647	
18.0	60.90477453965286	pulse	1.0	t		body	limb-84.jpg	0.0	81.76147013030095	
18.0	61.60476687247319	pulse	1.0	t		body	limb-84.jpg	0.0	82.46146246312128	
19.0	62.221300148333285	house	0.0		46	place	house-103.jpg	0.0	83.07799573898137	0.38327595023201866
19.0	62.304738980845286	pulse	0.0	t		place	house-103.jpg	0.0	83.16143457149337	
19.0	62.6045760985653	ISI	1.0		474	place	house-103.jpg	0.0	83.46127168921339	4.016638080765915
19.0	63.004685733190854	pulse	1.0	t		place	house-103.jpg	0.0	83.86138132383894	
19.0	63.70467504743738	pulse	1.0	t		place	house-103.jpg	0.0	84.56137063808546	
19.0	64.40466828583067	pulse	1.0	t		place	house-103.jpg	0.0	85.26136387647875	
19.0	65.10465609078983	pulse	1.0	t		place	house-103.jpg	0.0	85.96135168143792	
19.0	65.80464208460398	pulse	1.0	t		place	house-103.jpg	0.0	86.66133767525207	
19.0	66.50463502113962	pulse	1.0	t		place	house-103.jpg	0.0	87.36133061178771	
20.0	66.62121417933122	adult	0.0		46	face	adult-118.jpg	0.0	87.4779097699793	0.3832853078138214
20.0	67.00449948714504	ISI	1.0		353	face	adult-118.jpg	0.0	87.86119507779313	3.0167047912618727
20.0	67.20463791897146	pulse	1.0	t		face	adult-118.jpg	0.0	88.06133350961954	
20.0	67.90462029049559	pulse	1.0	t		face	adult-118.jpg	0.0	88.76131588114367	
20.0	68.60468657839192	pulse	1.0	t		face	adult-118.jpg	0.0	89.46138216904001	
20.0	69.30467498706548	pulse	1.0	t		face	adult-118.jpg	0.0	90.16137057771357	
21.0	70.02120427840691	limb	0.0		45	body	limb-132.jpg	0.0	90.877899869055	0.3833124749835406
21.0	70.01314317521519	pulse	0.0	t		body	limb-132.jpg	0.0	90.86983876586328	
21.0	70.40451675339045	ISI	1.0		231	body	limb-132.jpg	0.0	91.26121234403854	2.0250040599830754
21.0	70.70466146385206	pulse	1.0	t		body	limb-132.jpg	0.0	91.56135705450015	
21.0	71.40466587097126	pulse	1.0	t		body	limb-132.jpg	0.0	92.26136146161934	
21.0	72.10465609078983	pulse	1.0	t		body	limb-132.jpg	0.0	92.96135168143792	
22.0	72.42952081337353	car	0.0		45	object	car-75.jpg	0.0	93.28621640402162	0.3749633997840647
22.0	72.8044842131576	ISI	1.0		236	object	car-75.jpg	0.0	93.66117980380568	2.0166501550638714
22.0	72.83621727940772	pulse	1.0	t		object	car-75.jpg	0.0	93.6929128700558	
22.0	73.5046413601458	pulse	1.0	t		object	car-75.jpg	0.0	94.36133695079388	
22.0	74.20462010938172	pulse	1.0	t		object	car-75.jpg	0.0	95.06131570002981	
23.0	74.82113436822146	car	0.0		46	object	car-75.jpg	1.0	95.67782995886955	0.38330311740264733
23.0	74.90455086328257	pulse	0.0	t		object	car-75.jpg	1.0	95.76124645393065	
23.0	75.20443748562411	ISI	1.0		234	object	car-75.jpg	1.0	96.0611330762722	2.0166540792115484
23.0	75.43787320900447	response	1.0	b		object	car-75.jpg	1.0	96.29456879965255	
23.0	75.60452780137348	pulse	1.0	t		object	car-75.jpg	1.0	96.46122339202157	
23.0	76.30452285091087	pulse	1.0	t		object	car-75.jpg	1.0	97.16121844155896	
23.0	77.0045251450274	pulse	1.0	t		object	car-75.jpg	1.0	97.86122073567549	
24.0	77.22109156483566	house	0.0		46	place	house-139.jpg	0.0	98.07778715548375	0.38329526910911227
24.0	77.60438683394477	ISI	1.0		354	place	house-139.jpg	0.0	98.46108242459286	3.016665247936544
24.0	77.70455038031105	pulse	1.0	t		place	house-139.jpg	0.0	98.56124597095913	
24.0	78.40451282924369	pulse	1.0	t		place	house-139.jpg	0.0	99.26120841989177	
24.0	79.10448735247519	pulse	1.0	t		place	house-139.jpg	0.0	99.96118294312328	
24.0	79.8044953818835	pulse	1.0	t		place	house-139.jpg	0.0	100.66119097253159	
24.0	80.50447594226353	pulse	1.0	t		place	house-139.jpg	0.0	101.36117153291161	
25.0	80.62105208188132	limb	0.0		46	body	limb-46.jpg	0.0	101.4777476725294	0.3833496034494601
25.0	81.00440168533078	ISI	1.0		233	body	limb-46.jpg	0.0	101.86109727597886	2.0166592107880206
25.0	81.20455521002987	pulse	1.0	t		body	limb-46.jpg	0.0	102.06125080067795	
25.0	81.90455327814198	pulse	1.0	t		body	limb-46.jpg	0.0	102.76124886879006	
25.0	82.60452448094111	pulse	1.0	t		body	limb-46.jpg	0.0	103.4612200715892	
26.0	83.0210608961188	car	0.0		46	object	car-65.jpg	0.0	103.87775648676688	0.3832518016361064
26.0	83.30444738654842	pulse	0.0	t		object	car-65.jpg	0.0	104.1611429771965	
26.0	83.4043126977549	ISI	1.0		355	object	car-65.jpg	0.0	104.26100828840299	3.016672190658028
26.0	84.00445390666937	pulse	1.0	t		object	car-65.jpg	0.0	104.86114949731746	
26.0	84.70442571318381	pulse	1.0	t		object	car-65.jpg	0.0	105.5611213038319	
26.0	85.40442106457886	pulse	1.0	t		object	car-65.jpg	0.0	106.26111665522694	
26.0	86.10441551040185	pulse	1.0	t		object	car-65.jpg	0.0	106.96111110104994	
27.0	86.42098488841293	limb	0.0		46	body	limb-70.jpg	0.0	107.27768047906102	0.38330915455117065
27.0	86.8042940429641	ISI	1.0		351	body	limb-70.jpg	0.0	107.66098963361219	3.016686981673047
27.0	86.87518617058231	pulse	1.0	t		body	limb-70.jpg	0.0	107.7318817612304	
27.0	87.50439564818225	pulse	1.0	t		body	limb-70.jpg	0.0	108.36109123883034	
27.0	88.20438677357288	pulse	1.0	t		body	limb-70.jpg	0.0	109.06108236422097	
27.0	88.90439993455766	pulse	1.0	t		body	limb-70.jpg	0.0	109.76109552520575	
27.0	89.60445022400927	pulse	1.0	t		body	limb-70.jpg	0.0	110.46114581465736	
28.0	89.82098102463715	number	0.0		46	character	number-136.jpg	0.0	110.67767661528524	0.3832720260852511
28.0	90.2042530507224	ISI	1.0		354	character	number-136.jpg	0.0	111.06094864137049	3.0166540792115484
28.0	90.30438278905422	pulse	1.0	t		character	number-136.jpg	0.0	111.1610783797023	
28.0	91.00437029215664	pulse	1.0	t		character	number-136.jpg	0.0	111.86106588280472	
28.0	91.70435960640225	pulse	1.0	t		character	number-136.jpg	0.0	112.56105519705034	
28.0	92.40434046863993	pulse	1.0	t		character	number-136.jpg	0.0	113.26103605928802	
28.0	93.10433099031616	pulse	1.0	t		character	number-136.jpg	0.0	113.96102658096424	
29.0	93.22090712993395	car	0.0		46	object	car-25.jpg	0.0	114.07760272058204	0.3833067396917613
29.0	93.60421386962571	ISI	1.0		232	object	car-25.jpg	0.0	114.4609094602738	2.0166649460788904
29.0	93.80431939899063	pulse	1.0	t		object	car-25.jpg	0.0	114.66101498963872	
29.0	94.50429301664917	pulse	1.0	t		object	car-25.jpg	0.0	115.36098860729726	
29.0	95.20431734635986	pulse	1.0	t		object	car-25.jpg	0.0	116.06101293700794	
30.0	95.6208788157046	number	0.0		46	character	number-98.jpg	0.0	116.47757440635269	0.3833311901462366
30.0	95.90435224108114	pulse	0.0	t		character	number-98.jpg	0.0	116.76104783172923	
30.0	96.00421000585084	ISI	1.0		714	character	number-98.jpg	0.0	116.86090559649892	6.016627817612061
30.0	96.60436087420385	pulse	1.0	t		character	number-98.jpg	0.0	117.46105646485194	
30.0	97.30435894231596	pulse	1.0	t		character	number-98.jpg	0.0	118.16105453296404	
30.0	98.004354293711	pulse	1.0	t		character	number-98.jpg	0.0	118.86104988435909	
30.0	98.70433787266575	pulse	1.0	t		character	number-98.jpg	0.0	119.56103346331383	
30.0	99.40432960177168	pulse	1.0	t		character	number-98.jpg	0.0	120.26102519241977	
30.0	100.10431710487319	pulse	1.0	t		character	number-98.jpg	0.0	120.96101269552128	
30.0	100.80430913583677	pulse	1.0	t		character	number-98.jpg	0.0	121.66100472648486	
30.0	101.5042984500833	pulse	1.0	t		character	number-98.jpg	0.0	122.36099404073138	
31.0	102.0208378234629	house	0.0		46	place	house-115.jpg	0.0	122.87753341411099	0.38327232794290467
31.0	102.20422678912473	pulse	0.0	t		place	house-115.jpg	0.0	123.06092237977282	
31.0	102.4041101514058	ISI	1.0		234	place	house-115.jpg	0.0	123.26080574205389	2.0166676627968627
31.0	102.90424236496892	pulse	1.0	t		place	house-115.jpg	0.0	123.76093795561701	
31.0	103.6042102473366	pulse	1.0	t		place	house-115.jpg	0.0	124.46090583798468	
31.0	104.30420197644253	pulse	1.0	t		place	house-115.jpg	0.0	125.16089756709061	
32.0	104.42077781420267	number	0.0		46	character	number-73.jpg	0.0	125.27747340485075	0.38330553226205666
32.0	104.80408334646472	ISI	1.0		232	character	number-73.jpg	0.0	125.66077893711281	2.016671285085067
32.0	105.00419461112051	pulse	1.0	t		character	number-73.jpg	0.0	125.8608902017686	
32.0	105.70418392536703	pulse	1.0	t		character	number-73.jpg	0.0	126.56087951601512	
32.0	106.40417384332795	pulse	1.0	t		character	number-73.jpg	0.0	127.26086943397604	
33.0	106.82075463154979	car	0.0		46	object	car-139.jpg	0.0	127.67745022219788	0.3833013062585451
33.0	107.1041697984383	pulse	0.0	t		object	car-139.jpg	0.0	127.9608653890864	
33.0	107.20405593780833	ISI	1.0		590	object	car-139.jpg	0.0	128.06075152845642	5.01666494607889
33.0	107.80415518853715	pulse	1.0	t		object	car-139.jpg	0.0	128.66085077918524	
33.0	108.50423083401438	pulse	1.0	t		object	car-139.jpg	0.0	129.36092642466247	
33.0	109.20422678912473	pulse	1.0	t		object	car-139.jpg	0.0	130.06092237977282	
33.0	109.90421278293888	pulse	1.0	t		object	car-139.jpg	0.0	130.76090837358697	
33.0	110.60420239904306	pulse	1.0	t		object	car-139.jpg	0.0	131.46089798969115	
33.0	111.30418627985455	pulse	1.0	t		object	car-139.jpg	0.0	132.16088187050264	
33.0	112.004171066239	pulse	1.0	t		object	car-139.jpg	0.0	132.86086665688708	
34.0	112.22072088388722	adult	0.0		46	face	adult-137.jpg	0.0	133.0774164745353	0.38327232794290467
34.0	112.60399321183013	ISI	1.0		354	face	adult-137.jpg	0.0	133.46068880247822	3.0166534754962413
34.0	112.70410966843428	pulse	1.0	t		face	adult-137.jpg	0.0	133.56080525908237	
34.0	113.40410381239963	pulse	1.0	t		face	adult-137.jpg	0.0	134.2607994030477	
34.0	114.10411063437823	pulse	1.0	t		face	adult-137.jpg	0.0	134.96080622502632	
34.0	114.80408062974766	pulse	1.0	t		face	adult-137.jpg	0.0	135.66077622039575	
34.0	115.504074773713	pulse	1.0	t		face	adult-137.jpg	0.0	136.3607703643611	
35.0	115.62064668732637	house	0.0		46	place	house-127.jpg	0.0	136.47734227797446	0.38330613597736374
35.0	116.00395282330373	ISI	1.0		234	place	house-127.jpg	0.0	136.86064841395182	2.016666153508595
35.0	116.20406438981718	pulse	1.0	t		place	house-127.jpg	0.0	137.06075998046526	
35.0	116.90404706319896	pulse	1.0	t		place	house-127.jpg	0.0	137.76074265384705	
35.0	117.60404271645166	pulse	1.0	t		place	house-127.jpg	0.0	138.46073830709975	
36.0	118.02061897681233	adult	0.0		46	face	adult-75.jpg	0.0	138.87731456746042	0.38333873658211814
36.0	118.30407489445588	pulse	0.0	t		face	adult-75.jpg	0.0	139.16077048510397	
36.0	118.40395771339445	ISI	1.0		594	face	adult-75.jpg	0.0	139.26065330404253	5.0166290250426755
36.0	119.0041058650304	pulse	1.0	t		face	adult-75.jpg	0.0	139.86080145567848	
36.0	119.70408582169603	pulse	1.0	t		face	adult-75.jpg	0.0	140.5607814123441	
36.0	120.40408056937576	pulse	1.0	t		face	adult-75.jpg	0.0	141.26077616002385	
36.0	121.1040722984817	pulse	1.0	t		face	adult-75.jpg	0.0	141.96076788912978	
36.0	121.8040661405903	pulse	1.0	t		face	adult-75.jpg	0.0	142.66076173123838	
36.0	122.5040530399765	pulse	1.0	t		face	adult-75.jpg	0.0	143.36074863062458	
36.0	123.2040486932292	pulse	1.0	t		face	adult-75.jpg	0.0	144.06074428387728	
37.0	123.42058673843712	number	0.0		46	character	number-18.jpg	0.0	144.2772823290852	0.3832762520887627
37.0	123.80386299052589	ISI	1.0		354	character	number-18.jpg	0.0	144.66055858117397	3.016654682925946
37.0	123.90398578613713	pulse	1.0	t		character	number-18.jpg	0.0	144.76068137678521	
37.0	124.60396695023155	pulse	1.0	t		character	number-18.jpg	0.0	145.46066254087964	
37.0	125.3039728666381	pulse	1.0	t		character	number-18.jpg	0.0	146.1606684572862	
37.0	126.00394920101371	pulse	1.0	t		character	number-18.jpg	0.0	146.8606447916618	
37.0	126.70393821340258	pulse	1.0	t		character	number-18.jpg	0.0	147.56063380405067	
38.0	126.82051767345183	adult	0.0		46	face	adult-64.jpg	0.0	147.67721326409992	0.3833052304053126
38.0	127.20382290385714	ISI	1.0		712	face	adult-64.jpg	0.0	148.06051849450523	6.016653777353895
38.0	127.40393628151469	pulse	1.0	t		face	adult-64.jpg	0.0	148.26063187216278	
38.0	128.10392227532975	pulse	1.0	t		face	adult-64.jpg	0.0	148.96061786597784	
38.0	128.80391400443568	pulse	1.0	t		face	adult-64.jpg	0.0	149.66060959508377	
38.0	129.50398119790316	pulse	1.0	t		face	adult-64.jpg	0.0	150.36067678855125	
38.0	130.20396628614526	pulse	1.0	t		face	adult-64.jpg	0.0	151.06066187679335	
38.0	130.90394775209825	pulse	1.0	t		face	adult-64.jpg	0.0	151.76064334274633	
38.0	131.60395880008127	pulse	1.0	t		face	adult-64.jpg	0.0	152.46065439072936	
38.0	132.30394358646572	pulse	1.0	t		face	adult-64.jpg	0.0	153.1606391771138	
38.0	133.00393229699694	pulse	1.0	t		face	adult-64.jpg	0.0	153.86062788764502	
39.0	133.22047668121104	number	0.0		46	character	number-108.jpg	0.0	154.07717227185913	0.3832717242275976
39.0	133.60374840543864	ISI	1.0		474	character	number-108.jpg	0.0	154.46044399608672	4.016641401198285
39.0	133.7038561081763	pulse	1.0	t		character	number-108.jpg	0.0	154.56055169882438	
39.0	134.40384874285428	pulse	1.0	t		character	number-108.jpg	0.0	155.26054433350237	
39.0	135.10384409425023	pulse	1.0	t		character	number-108.jpg	0.0	155.96053968489832	
39.0	135.80383340849585	pulse	1.0	t		character	number-108.jpg	0.0	156.66052899914393	
39.0	136.50381910045326	pulse	1.0	t		character	number-108.jpg	0.0	157.36051469110134	
39.0	137.20382048899774	pulse	1.0	t		character	number-108.jpg	0.0	158.06051607964582	
40.0	137.62038980663692	limb	0.0		46	body	limb-100.jpg	0.0	158.477085397285	0.3833088526935171
40.0	137.90381312367572	pulse	0.0	t		body	limb-100.jpg	0.0	158.7605087143238	
40.0	138.00369865933044	ISI	1.0		354	body	limb-100.jpg	0.0	158.86039424997853	3.0250152287089804
40.0	138.6038051546393	pulse	1.0	t		body	limb-100.jpg	0.0	159.4605007452874	
40.0	139.3038629905259	pulse	1.0	t		body	limb-100.jpg	0.0	160.16055858117397	
40.0	140.0038616623533	pulse	1.0	t		body	limb-100.jpg	0.0	160.8605572530014	
40.0	140.70384343016394	pulse	1.0	t		body	limb-100.jpg	0.0	161.56053902081203	
41.0	141.02871388803942	house	0.0		45	place	house-57.jpg	0.0	161.8854094786875	0.3749775870837766
41.0	141.4036914751232	ISI	1.0		353	place	house-57.jpg	0.0	162.26038706577128	3.0166607200753788
41.0	141.4565898801693	pulse	1.0	t		place	house-57.jpg	0.0	162.3132854708174	
41.0	142.10383171809463	pulse	1.0	t		place	house-57.jpg	0.0	162.9605273087427	
41.0	142.8038107691873	pulse	1.0	t		place	house-57.jpg	0.0	163.66050635983538	
41.0	143.5038194023109	pulse	1.0	t		place	house-57.jpg	0.0	164.360514992959	
41.0	144.20380992398714	pulse	1.0	t		place	house-57.jpg	0.0	165.06050551463522	
42.0	144.42035219519857	car	0.0		46	object	car-94.jpg	0.0	165.27704778584666	0.38326689450877893
42.0	144.80361908970735	ISI	1.0		234	object	car-94.jpg	0.0	165.66031468035544	2.016647740204462
42.0	144.90373403702415	pulse	1.0	t		object	car-94.jpg	0.0	165.76042962767224	
42.0	145.60372184198332	pulse	1.0	t		object	car-94.jpg	0.0	166.4604174326314	
42.0	146.30370602465246	pulse	1.0	t		object	car-94.jpg	0.0	167.16040161530054	
43.0	146.82026682991182	adult	0.0		46	face	adult-112.jpg	0.0	167.6769624205599	0.38332485113915027
43.0	147.00371103548605	pulse	0.0	t		face	adult-112.jpg	0.0	167.86040662613414	
43.0	147.20359168105097	ISI	1.0		475	face	adult-112.jpg	0.0	168.06028727169905	4.01667068137067
43.0	147.70369944416052	pulse	1.0	t		face	adult-112.jpg	0.0	168.5603950348086	
43.0	148.40370053084735	pulse	1.0	t		face	adult-112.jpg	0.0	169.26039612149543	
43.0	149.10368139308503	pulse	1.0	t		face	adult-112.jpg	0.0	169.9603769837331	
43.0	149.8036634627524	pulse	1.0	t		face	adult-112.jpg	0.0	170.6603590534005	
43.0	150.5037312599352	pulse	1.0	t		face	adult-112.jpg	0.0	171.36042685058328	
44.0	151.22026236242164	number	0.0		45	character	number-138.jpg	0.0	172.07695795306972	0.38331006012413127
44.0	151.21222601154022	pulse	0.0	t		character	number-138.jpg	0.0	172.0689216021883	
44.0	151.60357242254577	ISI	1.0		474	character	number-138.jpg	0.0	172.46026801319385	4.016643212342387
44.0	151.9037207552965	pulse	1.0	t		character	number-138.jpg	0.0	172.76041634594458	
44.0	152.6037070509683	pulse	1.0	t		character	number-138.jpg	0.0	173.46040264161638	
44.0	153.30370119493364	pulse	1.0	t		character	number-138.jpg	0.0	174.16039678558172	
44.0	154.0036920184666	pulse	1.0	t		character	number-138.jpg	0.0	174.8603876091147	
44.0	154.70369612372815	pulse	1.0	t		character	number-138.jpg	0.0	175.56039171437624	
44.0	155.40367426924877	pulse	1.0	t		character	number-138.jpg	0.0	176.26036985989685	
45.0	155.62021563488815	house	0.0		46	place	house-110.jpg	0.0	176.47691122553624	0.38326417779171607
45.0	156.00347981267987	ISI	1.0		234	place	house-110.jpg	0.0	176.86017540332796	2.016689396532456
45.0	156.10360351386225	pulse	1.0	t		place	house-110.jpg	0.0	176.96029910451034	
45.0	156.80359252625112	pulse	1.0	t		place	house-110.jpg	0.0	177.6602881168992	
45.0	157.5035803312103	pulse	1.0	t		place	house-110.jpg	0.0	178.36027592185837	
46.0	158.02016920921233	number	0.0		46	character	number-118.jpg	0.0	178.8768647998604	0.38327444094466045
46.0	158.203575984463	pulse	0.0	t		character	number-118.jpg	0.0	179.06027157511107	
46.0	158.403443650157	ISI	1.0		236	character	number-118.jpg	0.0	179.26013924080507	2.016698754114259
46.0	158.90357435443275	pulse	1.0	t		character	number-118.jpg	0.0	179.76026994508084	
46.0	159.6035727244025	pulse	1.0	t		character	number-118.jpg	0.0	180.4602683150506	
46.0	160.30354875692137	pulse	1.0	t		character	number-118.jpg	0.0	181.16024434756946	
47.0	160.42014240427125	number	0.0		46	character	number-118.jpg	1.0	181.27683799491933	0.3832916468190888
47.0	160.80343405109033	ISI	1.0		474	character	number-118.jpg	1.0	181.66012964173842	4.016675209232744
47.0	160.90356197827714	response	1.0	b		character	number-118.jpg	1.0	181.76025756892523	
47.0	161.00354199531466	pulse	1.0	t		character	number-118.jpg	1.0	181.86023758596275	
47.0	161.70359802005714	pulse	1.0	t		character	number-118.jpg	1.0	182.56029361070523	
47.0	162.40359156030718	pulse	1.0	t		character	number-118.jpg	1.0	183.26028715095526	
47.0	163.10360773986667	pulse	1.0	t		character	number-118.jpg	1.0	183.96030333051476	
47.0	163.80359524296819	pulse	1.0	t		character	number-118.jpg	1.0	184.66029083361627	
47.0	164.5035733884888	pulse	1.0	t		character	number-118.jpg	1.0	185.3602689791369	
48.0	164.82010926032308	adult	0.0		46	face	adult-63.jpg	0.0	185.67680485097117	0.3832726297996487
48.0	165.20338189012273	ISI	1.0		233	face	adult-63.jpg	0.0	186.06007748077081	2.0166607200753788
48.0	165.2583785063007	pulse	1.0	t		face	adult-63.jpg	0.0	186.11507409694877	
48.0	165.9034883250597	pulse	1.0	t		face	adult-63.jpg	0.0	186.76018391570778	
48.0	166.60347733744857	pulse	1.0	t		face	adult-63.jpg	0.0	187.46017292809665	
49.0	167.2200426101981	house	0.0		46	place	house-75.jpg	0.0	188.0767382008462	0.3833109656961824
49.0	167.30347480184628	pulse	0.0	t		place	house-75.jpg	0.0	188.16017039249436	
49.0	167.6033535758943	ISI	1.0		234	place	house-75.jpg	0.0	188.46004916654238	2.016666757223902
49.0	168.00346924766927	pulse	1.0	t		place	house-75.jpg	0.0	188.86016483831736	
49.0	168.70345524148343	pulse	1.0	t		place	house-75.jpg	0.0	189.5601508321315	
49.0	169.40344395201464	pulse	1.0	t		place	house-75.jpg	0.0	190.26013954266273	
50.0	169.6200203331182	limb	0.0		46	body	limb-141.jpg	0.0	190.47671592376628	0.38332545485354785
50.0	170.00334578797174	ISI	1.0		474	body	limb-141.jpg	0.0	190.86004137861983	4.016714752558983
50.0	170.10352231420893	pulse	1.0	t		body	limb-141.jpg	0.0	190.96021790485702	
50.0	170.80343888080915	pulse	1.0	t		body	limb-141.jpg	0.0	191.66013447145724	
50.0	171.50348313311133	pulse	1.0	t		body	limb-141.jpg	0.0	192.36017872375942	
50.0	172.2034815030811	pulse	1.0	t		body	limb-141.jpg	0.0	193.06017709372918	
50.0	172.90346930804026	pulse	1.0	t		body	limb-141.jpg	0.0	193.76016489868834	
50.0	173.60347673373417	pulse	1.0	t		body	limb-141.jpg	0.0	194.46017232438226	
51.0	174.02006054053072	number	0.0		46	character	number-84.jpg	0.0	194.8767561311788	0.3832059193036912
51.0	174.30338877247323	pulse	0.0	t		character	number-84.jpg	0.0	195.1600843631213	
51.0	174.4032664598344	ISI	1.0		352	character	number-84.jpg	0.0	195.2599620504825	3.0166655497941974
51.0	175.0034025371724	pulse	1.0	t		character	number-84.jpg	0.0	195.8600981278205	
51.0	175.70337162696978	pulse	1.0	t		character	number-84.jpg	0.0	196.56006721761787	
51.0	176.40335460220922	pulse	1.0	t		character	number-84.jpg	0.0	197.2600501928573	
51.0	177.10335629261135	pulse	1.0	t		character	number-84.jpg	0.0	197.96005188325944	
52.0	177.4199320096286	house	0.0		46	place	house-82.jpg	0.0	198.2766276002767	0.38330462669000553
52.0	177.80323663631862	ISI	1.0		234	place	house-82.jpg	0.0	198.6599322269667	2.0166649460788904
52.0	177.84624377645468	pulse	1.0	t		place	house-82.jpg	0.0	198.70293936710277	
52.0	178.50333884525116	pulse	1.0	t		place	house-82.jpg	0.0	199.36003443589925	
52.0	179.2033305743571	pulse	1.0	t		place	house-82.jpg	0.0	200.06002616500518	
53.0	179.8199015823975	limb	0.0		46	body	limb-54.jpg	0.0	200.6765971730456	0.3833360198650553
53.0	179.90331596445594	pulse	0.0	t		body	limb-54.jpg	0.0	200.76001155510403	
53.0	180.20323760226256	ISI	1.0		232	body	limb-54.jpg	0.0	201.05993319291065	2.016665247936544
53.0	180.60337198919842	pulse	1.0	t		body	limb-54.jpg	0.0	201.4600675798465	
53.0	181.30338182975174	pulse	1.0	t		body	limb-54.jpg	0.0	202.16007742039983	
53.0	182.00337325700002	pulse	1.0	t		body	limb-54.jpg	0.0	202.8600688476481	
54.0	182.2199028501991	car	0.0		46	object	car-121.jpg	0.0	203.0765984408472	0.3832771576617233
54.0	182.60318000786083	ISI	1.0		234	object	car-121.jpg	0.0	203.45987559850892	2.0166637386491857
54.0	182.70330793504763	pulse	1.0	t		object	car-121.jpg	0.0	203.56000352569572	
54.0	183.4032827601368	pulse	1.0	t		object	car-121.jpg	0.0	204.25997835078488	
54.0	184.10327569667243	pulse	1.0	t		object	car-121.jpg	0.0	204.9599712873205	
55.0	184.61984374651	car	0.0		46	object	car-84.jpg	0.0	205.4765393371581	0.3833079471223755
55.0	184.80325927562717	pulse	0.0	t		object	car-84.jpg	0.0	205.65995486627526	
55.0	185.0031516936324	ISI	1.0		832	object	car-84.jpg	0.0	205.85984728428048	7.016624497180601
55.0	185.50325674002488	pulse	1.0	t		object	car-84.jpg	0.0	206.35995233067297	
55.0	186.20324997841726	pulse	1.0	t		object	car-84.jpg	0.0	207.05994556906535	
55.0	186.90321635149758	pulse	1.0	t		object	car-84.jpg	0.0	207.75991194214566	
55.0	187.60324460535503	pulse	1.0	t		object	car-84.jpg	0.0	208.45994019600312	
55.0	188.3032994226678	pulse	1.0	t		object	car-84.jpg	0.0	209.1599950133159	
55.0	189.00329356663315	pulse	1.0	t		object	car-84.jpg	0.0	209.85998915728123	
55.0	189.7032665805773	pulse	1.0	t		object	car-84.jpg	0.0	210.55996217122538	
55.0	190.40326887469382	pulse	1.0	t		object	car-84.jpg	0.0	211.2599644653419	
55.0	191.1032621130871	pulse	1.0	t		object	car-84.jpg	0.0	211.9599577037352	
55.0	191.8032553514804	pulse	1.0	t		object	car-84.jpg	0.0	212.6599509421285	
56.0	192.019776190813	house	0.0		46	place	house-92.jpg	0.0	212.87647178146108	0.38328621338587254
56.0	192.40306240419886	ISI	1.0		236	place	house-92.jpg	0.0	213.25975799484695	2.0166700776553625
56.0	192.503188218383	pulse	1.0	t		place	house-92.jpg	0.0	213.3598838090311	
56.0	193.20316757133423	pulse	1.0	t		place	house-92.jpg	0.0	214.05986316198232	
56.0	193.9031583948672	pulse	1.0	t		place	house-92.jpg	0.0	214.7598539855153	
57.0	194.41973248185423	house	0.0		46	place	house-92.jpg	1.0	215.2764280725023	0.3832955709667658
57.0	194.6031546518352	pulse	0.0	t		place	house-92.jpg	1.0	215.4598502424833	
57.0	194.803028052821	ISI	1.0		594	place	house-92.jpg	1.0	215.65972364346908	5.0166700776553625
57.0	195.0284307457514	response	1.0	b		place	house-92.jpg	1.0	215.88512633639948	
57.0	195.3031249490623	pulse	1.0	t		place	house-92.jpg	1.0	216.15982053971038	
57.0	196.00313780818942	pulse	1.0	t		place	house-92.jpg	1.0	216.8598333988375	
57.0	196.70312500943328	pulse	1.0	t		place	house-92.jpg	1.0	217.55982060008137	
57.0	197.4031155311095	pulse	1.0	t		place	house-92.jpg	1.0	218.2598111217576	
57.0	198.10318845986967	pulse	1.0	t		place	house-92.jpg	1.0	218.95988405051776	
57.0	198.80318682983943	pulse	1.0	t		place	house-92.jpg	1.0	219.65988242048752	
57.0	199.50316286235739	pulse	1.0	t		place	house-92.jpg	1.0	220.35985845300547	
58.0	199.81969813047635	house	0.0		46	place	house-55.jpg	0.0	220.67639372112444	0.38327383723026287
58.0	200.20297196770662	ISI	1.0		233	place	house-55.jpg	0.0	221.0596675583547	2.0166682665112603
58.0	200.25675602250976	pulse	1.0	t		place	house-55.jpg	0.0	221.11345161315785	
58.0	200.90307810078593	pulse	1.0	t		place	house-55.jpg	0.0	221.75977369143402	
58.0	201.60307133917922	pulse	1.0	t		place	house-55.jpg	0.0	222.4597669298273	
59.0	202.21964023421788	number	0.0		46	character	number-82.jpg	0.0	223.07633582486596	0.38330613597645424
59.0	202.30311045990402	pulse	0.0	t		character	number-82.jpg	0.0	223.1598060505521	
59.0	202.60294637019433	ISI	1.0		474	character	number-82.jpg	0.0	223.45964196084242	4.016673398088642
59.0	203.00305419367578	pulse	1.0	t		character	number-82.jpg	0.0	223.85974978432387	
59.0	203.70304833764112	pulse	1.0	t		character	number-82.jpg	0.0	224.5597439282892	
59.0	204.40303614260029	pulse	1.0	t		character	number-82.jpg	0.0	225.25973173324837	
59.0	205.10302787170622	pulse	1.0	t		character	number-82.jpg	0.0	225.9597234623543	
59.0	205.8030186952401	pulse	1.0	t		character	number-82.jpg	0.0	226.65971428588819	
59.0	206.5030777385573	pulse	1.0	t		character	number-82.jpg	0.0	227.35977332920538	
60.0	206.61961976828297	house	0.0		46	place	house-8.jpg	0.0	227.47631535893106	0.3832762520887627
60.0	207.00289602037174	ISI	1.0		232	place	house-8.jpg	0.0	227.85959161101982	2.0166435142009504
60.0	207.2030087943158	pulse	1.0	t		place	house-8.jpg	0.0	228.05970438496388	
60.0	207.90299720298935	pulse	1.0	t		place	house-8.jpg	0.0	228.75969279363744	
60.0	208.60299164881235	pulse	1.0	t		place	house-8.jpg	0.0	229.45968723946044	
61.0	209.0195395345727	adult	0.0		46	face	adult-99.jpg	0.0	229.87623512522077	0.383330284573276
61.0	209.3029882076371	pulse	0.0	t		face	adult-99.jpg	0.0	230.1596837982852	
61.0	209.40286981914596	ISI	1.0		232	face	adult-99.jpg	0.0	230.25956540979405	2.0166685683680043
61.0	210.00298838875187	pulse	1.0	t		face	adult-99.jpg	0.0	230.85968397939996	
61.0	210.70296864727425	pulse	1.0	t		face	adult-99.jpg	0.0	231.55966423792233	
62.0	211.41953838751397	adult	0.0		45	face	adult-124.jpg	0.0	232.27623397816205	0.38330251368824975
62.0	211.41135714505708	pulse	0.0	t		face	adult-124.jpg	0.0	232.26805273570517	
62.0	211.80284090120222	ISI	1.0		471	face	adult-124.jpg	0.0	232.6595364918503	4.016673096230079
62.0	212.1029590482076	pulse	1.0	t		face	adult-124.jpg	0.0	232.95965463885568	
62.0	212.8030075265142	pulse	1.0	t		face	adult-124.jpg	0.0	233.65970311716228	
62.0	213.50300076490748	pulse	1.0	t		face	adult-124.jpg	0.0	234.35969635555557	
62.0	214.20299219215576	pulse	1.0	t		face	adult-124.jpg	0.0	235.05968778280385	
62.0	214.9029727525358	pulse	1.0	t		face	adult-124.jpg	0.0	235.75966834318388	
62.0	215.60297776336938	pulse	1.0	t		face	adult-124.jpg	0.0	236.45967335401747	
63.0	215.8195139974323	adult	0.0		46	face	adult-32.jpg	0.0	236.67620958808038	0.38327383723026287
63.0	216.20278783466256	ISI	1.0		234	face	adult-32.jpg	0.0	237.05948342531065	2.0166664553662486
63.0	216.30289976340464	pulse	1.0	t		face	adult-32.jpg	0.0	237.15959535405273	
63.0	217.00289662408704	pulse	1.0	t		face	adult-32.jpg	0.0	237.85959221473513	
63.0	217.7029025404927	pulse	1.0	t		face	adult-32.jpg	0.0	238.55959813114077	
64.0	218.2194542900288	limb	0.0		46	body	limb-43.jpg	0.0	239.0761498806769	0.38330613597736374
64.0	218.4028758562945	pulse	0.0	t		body	limb-43.jpg	0.0	239.25957144694257	
64.0	218.60276042600617	ISI	1.0		354	body	limb-43.jpg	0.0	239.45945601665426	3.016651966208883
64.0	219.1028657742554	pulse	1.0	t		body	limb-43.jpg	0.0	239.9595613649035	
64.0	219.80286504979813	pulse	1.0	t		body	limb-43.jpg	0.0	240.65956064044622	
64.0	220.50285074175463	pulse	1.0	t		body	limb-43.jpg	0.0	241.35954633240272	
64.0	221.20284458386232	pulse	1.0	t		body	limb-43.jpg	0.0	242.0595401745104	
65.0	221.61941239221505	limb	0.0		46	body	limb-35.jpg	0.0	242.47610798286314	0.3833456793026926
65.0	221.90287163029006	pulse	0.0	t		body	limb-35.jpg	0.0	242.75956722093815	
65.0	222.00275807151775	ISI	1.0		359	body	limb-35.jpg	0.0	242.85945366216583	2.999997283282937
65.0	222.60289716743046	pulse	1.0	t		body	limb-35.jpg	0.0	243.45959275807854	
65.0	223.3029018764064	pulse	1.0	t		body	limb-35.jpg	0.0	244.15959746705448	
65.0	224.00288485164674	pulse	1.0	t		body	limb-35.jpg	0.0	244.85958044229483	
65.0	224.70287356217796	pulse	1.0	t		body	limb-35.jpg	0.0	245.55956915282604	
66.0	225.00275535480068	baseline	0.0		708		baseline	0.0	245.85945094544877	5.899927614583248
66.0	225.40286348013888	pulse	0.0	t			baseline	0.0	246.25955907078696	
66.0	226.10283377736596	pulse	0.0	t			baseline	0.0	246.95952936801405	
66.0	226.80284301420397	pulse	0.0	t			baseline	0.0	247.65953860485206	
66.0	227.5028353470252	pulse	0.0	t			baseline	0.0	248.3595309376733	
66.0	228.2028285854176	pulse	0.0	t			baseline	0.0	249.05952417606568	
66.0	228.90282182381088	pulse	0.0	t			baseline	0.0	249.75951741445897	
66.0	229.60281476034652	pulse	0.0	t			baseline	0.0	250.4595103509946	
66.0	230.30279894301657	pulse	0.0	t			baseline	0.0	251.15949453366466	
66.0	230.90268296938393	ISI	1.0		12		baseline	0.0	251.75937856003202	0.10000265634607786
