trial_nr	onset	event_type	phase	response	nr_frames	face_age	face_sex	face_eth	attractiveness	expression	face_id	sub_id	ses	run	trial_type	catch	rating_type	onset_abs	duration
-1.0	0.05561161670129877	fix	0.0		714													31.399852272257704	5.966310890528803
-1.0	0.7054787553079223	pulse	0.0	t														32.04971941086433	
-1.0	1.4054610364305518	pulse	0.0	t														32.74970169198696	
-1.0	2.1054412045696154	pulse	0.0	t														33.44968186012602	
-1.0	2.8054322394818882	pulse	0.0	t														34.14967289503829	
-1.0	3.5054112002017064	pulse	0.0	t														34.84965185575811	
-1.0	4.2054031406783	pulse	0.0	t														35.549643796234704	
-1.0	4.905380592124402	pulse	0.0	t														36.24962124768081	
-1.0	5.605363476956882	pulse	0.0	t														36.94960413251329	
0.0	6.0219225072301015	face	0.0		144	26.0	female	white	4.854755272582572	smiling	027	sub-09	2.0	3.0	027_smiling	0.0		37.366163162786506	1.2333093157526491
0.0	6.305370510173816	pulse	0.0	t		26.0	female	white	4.854755272582572	smiling	027	sub-09	2.0	3.0	027_smiling	0.0		37.64961116573022	
0.0	7.005343735652332	pulse	0.0	t		26.0	female	white	4.854755272582572	smiling	027	sub-09	2.0	3.0	027_smiling	0.0		38.34958439120874	
0.0	7.255231822982751	fix	1.0		445	26.0	female	white	4.854755272582572	smiling	027	sub-09	2.0	3.0	027_smiling	0.0		38.599472478539155	3.758240862628554
0.0	7.70533446870968	pulse	1.0	t		26.0	female	white	4.854755272582572	smiling	027	sub-09	2.0	3.0	027_smiling	0.0		39.049575124266084	
0.0	8.405312825720102	pulse	1.0	t		26.0	female	white	4.854755272582572	smiling	027	sub-09	2.0	3.0	027_smiling	0.0		39.74955348127651	
0.0	9.105284240069977	pulse	1.0	t		26.0	female	white	4.854755272582572	smiling	027	sub-09	2.0	3.0	027_smiling	0.0		40.44952489562638	
0.0	9.805284632481289	pulse	1.0	t		26.0	female	white	4.854755272582572	smiling	027	sub-09	2.0	3.0	027_smiling	0.0		41.149525288037694	
0.0	10.505269026587484	pulse	1.0	t		26.0	female	white	4.854755272582572	smiling	027	sub-09	2.0	3.0	027_smiling	0.0		41.84950968214389	
1.0	11.013472685611305	face	0.0		146	34.0	male	white	2.651014723438122	neutral	121	sub-09	2.0	3.0	121_neutral	0.0		42.35771334116771	1.2416574123012651
1.0	11.205264589321814	pulse	0.0	t		34.0	male	white	2.651014723438122	neutral	121	sub-09	2.0	3.0	121_neutral	0.0		42.54950524487822	
1.0	11.90523660738154	pulse	0.0	t		34.0	male	white	2.651014723438122	neutral	121	sub-09	2.0	3.0	121_neutral	0.0		43.249477262937944	
1.0	12.25513009791257	fix	1.0		444	34.0	male	white	2.651014723438122	neutral	121	sub-09	2.0	3.0	121_neutral	0.0		43.599370753468975	3.758237844080668
1.0	12.605237603502246	pulse	1.0	t		34.0	male	white	2.651014723438122	neutral	121	sub-09	2.0	3.0	121_neutral	0.0		43.94947825905865	
1.0	13.30521686607699	pulse	1.0	t		34.0	male	white	2.651014723438122	neutral	121	sub-09	2.0	3.0	121_neutral	0.0		44.649457521633394	
1.0	14.005198845345149	pulse	1.0	t		34.0	male	white	2.651014723438122	neutral	121	sub-09	2.0	3.0	121_neutral	0.0		45.34943950090155	
1.0	14.705175994935871	pulse	1.0	t		34.0	male	white	2.651014723438122	neutral	121	sub-09	2.0	3.0	121_neutral	0.0		46.049416650492276	
1.0	15.405167633557994	pulse	1.0	t		34.0	male	white	2.651014723438122	neutral	121	sub-09	2.0	3.0	121_neutral	0.0		46.7494082891144	
2.0	16.013367941993238	face	0.0		146	28.0	male	white	3.9076800636689217	neutral	033	sub-09	2.0	3.0	033_neutral	0.0		47.35760859754964	1.2416592234303607
2.0	16.105162290728003	pulse	0.0	t		28.0	male	white	3.9076800636689217	neutral	033	sub-09	2.0	3.0	033_neutral	0.0		47.44940294628441	
2.0	16.80513702548069	pulse	0.0	t		28.0	male	white	3.9076800636689217	neutral	033	sub-09	2.0	3.0	033_neutral	0.0		48.149377681037095	
2.0	17.2550271654236	fix	1.0		444	28.0	male	white	3.9076800636689217	neutral	033	sub-09	2.0	3.0	033_neutral	0.0		48.59926782098	3.7582333162581563
2.0	17.50513289006949	pulse	1.0	t		28.0	male	white	3.9076800636689217	neutral	033	sub-09	2.0	3.0	033_neutral	0.0		48.849373545625895	
2.0	18.20510883224142	pulse	1.0	t		28.0	male	white	3.9076800636689217	neutral	033	sub-09	2.0	3.0	033_neutral	0.0		49.549349487797826	
2.0	18.90508930223541	pulse	1.0	t		28.0	male	white	3.9076800636689217	neutral	033	sub-09	2.0	3.0	033_neutral	0.0		50.249329957791815	
2.0	19.60508094085708	pulse	1.0	t		28.0	male	white	3.9076800636689217	neutral	033	sub-09	2.0	3.0	033_neutral	0.0		50.94932159641348	
2.0	20.30507016464071	pulse	1.0	t		28.0	male	white	3.9076800636689217	neutral	033	sub-09	2.0	3.0	033_neutral	0.0		51.649310820197115	
3.0	21.013260481681755	face	0.0		147	25.0	female	black	3.858336649423	smiling	126	sub-09	2.0	3.0	126_smiling	0.0		52.35750113723816	1.241662241978247
3.0	21.006523384239244	pulse	0.0	t		25.0	female	black	3.858336649423	smiling	126	sub-09	2.0	3.0	126_smiling	0.0		52.35076403979565	
3.0	21.705044989949783	pulse	0.0	t		25.0	female	black	3.858336649423	smiling	126	sub-09	2.0	3.0	126_smiling	0.0		53.04928564550619	
3.0	22.254922723660002	fix	1.0		443	25.0	female	black	3.858336649423	smiling	126	sub-09	2.0	3.0	126_smiling	0.0		53.59916337921641	3.7665726590180384
3.0	22.405032100749395	pulse	1.0	t		25.0	female	black	3.858336649423	smiling	126	sub-09	2.0	3.0	126_smiling	0.0		53.7492727563058	
3.0	23.105003816954195	pulse	1.0	t		25.0	female	black	3.858336649423	smiling	126	sub-09	2.0	3.0	126_smiling	0.0		54.4492444725106	
3.0	23.804990927753806	pulse	1.0	t		25.0	female	black	3.858336649423	smiling	126	sub-09	2.0	3.0	126_smiling	0.0		55.14923158331021	
3.0	24.50498135895623	pulse	1.0	t		25.0	female	black	3.858336649423	smiling	126	sub-09	2.0	3.0	126_smiling	0.0		55.849222014512634	
3.0	25.20496907346569	pulse	1.0	t		25.0	female	black	3.858336649423	smiling	126	sub-09	2.0	3.0	126_smiling	0.0		56.549209729022095	
3.0	25.90495195829817	pulse	1.0	t		25.0	female	black	3.858336649423	smiling	126	sub-09	2.0	3.0	126_smiling	0.0		57.249192613854575	
4.0	26.02149538267804	face	0.0		146	31.0	male	west_asian	1.9538400318344609	smiling	070	sub-09	2.0	3.0	070_smiling	0.0		57.365736038234445	1.233321088089724
4.0	26.604947219177575	pulse	0.0	t		31.0	male	west_asian	1.9538400318344609	smiling	070	sub-09	2.0	3.0	070_smiling	0.0		57.94918787473398	
4.0	27.254816470767764	fix	1.0		444	31.0	male	west_asian	1.9538400318344609	smiling	070	sub-09	2.0	3.0	070_smiling	0.0		58.59905712632417	3.7665756775659247
4.0	27.304925274333073	pulse	1.0	t		31.0	male	west_asian	1.9538400318344609	smiling	070	sub-09	2.0	3.0	070_smiling	0.0		58.64916592988948	
4.0	28.004914799971175	pulse	1.0	t		31.0	male	west_asian	1.9538400318344609	smiling	070	sub-09	2.0	3.0	070_smiling	0.0		59.34915545552758	
4.0	28.70488621432105	pulse	1.0	t		31.0	male	west_asian	1.9538400318344609	smiling	070	sub-09	2.0	3.0	070_smiling	0.0		60.049126869877455	
4.0	29.404876343669002	pulse	1.0	t		31.0	male	west_asian	1.9538400318344609	smiling	070	sub-09	2.0	3.0	070_smiling	0.0		60.74911699922541	
4.0	30.104859228501482	pulse	1.0	t		31.0	male	west_asian	1.9538400318344609	smiling	070	sub-09	2.0	3.0	070_smiling	0.0		61.44909988405789	
4.0	30.80484664115602	pulse	1.0	t		31.0	male	west_asian	1.9538400318344609	smiling	070	sub-09	2.0	3.0	070_smiling	0.0		62.14908729671242	
5.0	31.02139214833369	face	0.0		145	40.0	male	black	2.408674890569041	neutral	061	sub-09	2.0	3.0	061_neutral	0.0		62.365632803890094	1.2333210880901788
5.0	31.504842505745273	pulse	0.0	t		40.0	male	black	2.408674890569041	neutral	061	sub-09	2.0	3.0	061_neutral	0.0		62.84908316130168	
5.0	32.204815429368864	pulse	0.0	t		40.0	male	black	2.408674890569041	neutral	061	sub-09	2.0	3.0	061_neutral	0.0		63.54905608492527	
5.0	32.25471323642387	fix	1.0		445	40.0	male	black	2.408674890569041	neutral	061	sub-09	2.0	3.0	061_neutral	0.0		63.59895389198027	3.766573866437284
5.0	32.90481008653887	pulse	1.0	t		40.0	male	black	2.408674890569041	neutral	061	sub-09	2.0	3.0	061_neutral	0.0		64.24905074209528	
5.0	33.60478904725869	pulse	1.0	t		40.0	male	black	2.408674890569041	neutral	061	sub-09	2.0	3.0	061_neutral	0.0		64.9490297028151	
5.0	34.30477434692966	pulse	1.0	t		40.0	male	black	2.408674890569041	neutral	061	sub-09	2.0	3.0	061_neutral	0.0		65.64901500248607	
5.0	35.004768702244746	pulse	1.0	t		40.0	male	black	2.408674890569041	neutral	061	sub-09	2.0	3.0	061_neutral	0.0		66.34900935780115	
5.0	35.70474222957819	pulse	1.0	t		40.0	male	black	2.408674890569041	neutral	061	sub-09	2.0	3.0	061_neutral	0.0		67.04898288513459	
6.0	36.02128710286115	face	0.0		145	27.0	female	white	3.504576203740549	smiling	144	sub-09	2.0	3.0	144_smiling	0.0		67.36552775841756	1.2333219936540445
6.0	36.40473869787684	pulse	0.0	t		27.0	female	white	3.504576203740549	smiling	144	sub-09	2.0	3.0	144_smiling	0.0		67.74897935343324	
6.0	37.104714338193844	pulse	0.0	t		27.0	female	white	3.504576203740549	smiling	144	sub-09	2.0	3.0	144_smiling	0.0		68.44895499375025	
6.0	37.254609096515196	fix	1.0		445	27.0	female	white	3.504576203740549	smiling	144	sub-09	2.0	3.0	144_smiling	0.0		68.5988497520716	3.7665732627274338
6.0	37.80471171205727	pulse	1.0	t		27.0	female	white	3.504576203740549	smiling	144	sub-09	2.0	3.0	144_smiling	0.0		69.14895236761367	
6.0	38.50469157834141	pulse	1.0	t		27.0	female	white	3.504576203740549	smiling	144	sub-09	2.0	3.0	144_smiling	0.0		69.84893223389781	
6.0	39.20468472623725	pulse	1.0	t		27.0	female	white	3.504576203740549	smiling	144	sub-09	2.0	3.0	144_smiling	0.0		70.54892538179365	
6.0	39.90465553687727	pulse	1.0	t		27.0	female	white	3.504576203740549	smiling	144	sub-09	2.0	3.0	144_smiling	0.0		71.24889619243368	
6.0	40.60464385509658	pulse	1.0	t		27.0	female	white	3.504576203740549	smiling	144	sub-09	2.0	3.0	144_smiling	0.0		71.94888451065299	
7.0	41.02118235924263	face	0.0		145	31.0	female	east_asian	3.395941106247513	smiling	087	sub-09	2.0	3.0	087_smiling	0.0		72.36542301479903	1.2333222955094243
7.0	41.30464062525016	pulse	0.0	t		31.0	female	east_asian	3.395941106247513	smiling	087	sub-09	2.0	3.0	087_smiling	0.0		72.64888128080656	
7.0	42.00461747298641	pulse	0.0	t		31.0	female	east_asian	3.395941106247513	smiling	087	sub-09	2.0	3.0	087_smiling	0.0		73.34885812854282	
7.0	42.254504654752054	fix	1.0		444	31.0	female	east_asian	3.395941106247513	smiling	087	sub-09	2.0	3.0	087_smiling	0.0		73.59874531030846	3.7665756775659247
7.0	42.70460760233391	pulse	1.0	t		31.0	female	east_asian	3.395941106247513	smiling	087	sub-09	2.0	3.0	087_smiling	0.0		74.04884825789031	
7.0	43.404581431522274	pulse	1.0	t		31.0	female	east_asian	3.395941106247513	smiling	087	sub-09	2.0	3.0	087_smiling	0.0		74.74882208707868	
7.0	44.10457457941811	pulse	1.0	t		31.0	female	east_asian	3.395941106247513	smiling	087	sub-09	2.0	3.0	087_smiling	0.0		75.44881523497452	
7.0	44.804551427154365	pulse	1.0	t		31.0	female	east_asian	3.395941106247513	smiling	087	sub-09	2.0	3.0	087_smiling	0.0		76.14879208271077	
7.0	45.50454668803377	pulse	1.0	t		31.0	female	east_asian	3.395941106247513	smiling	087	sub-09	2.0	3.0	087_smiling	0.0		76.84878734359017	
8.0	46.02108033231798	face	0.0		145	21.0	male	east_asian/white	3.501790688420215	neutral	036	sub-09	2.0	3.0	036_neutral	1.0	attractiveness	77.36532098787438	1.233311428736215
8.0	46.20453802480097	pulse	0.0	t		21.0	male	east_asian/white	3.501790688420215	neutral	036	sub-09	2.0	3.0	036_neutral	1.0	attractiveness	77.54877868035737	
8.0	46.90451336326305	pulse	0.0	t		21.0	male	east_asian/white	3.501790688420215	neutral	036	sub-09	2.0	3.0	036_neutral	1.0	attractiveness	78.24875401881945	
8.0	47.254391761054194	fix	1.0		177	21.0	male	east_asian/white	3.501790688420215	neutral	036	sub-09	2.0	3.0	036_neutral	1.0	attractiveness	78.5986324166106	1.5083310417521716
8.0	47.60450560559457	pulse	1.0	t		21.0	male	east_asian/white	3.501790688420215	neutral	036	sub-09	2.0	3.0	036_neutral	1.0	attractiveness	78.94874626115097	
8.0	48.304485773734086	pulse	1.0	t		21.0	male	east_asian/white	3.501790688420215	neutral	036	sub-09	2.0	3.0	036_neutral	1.0	attractiveness	79.64872642929049	
8.0	48.762722802806366	rating	2.0		293	21.0	male	east_asian/white	3.501790688420215	neutral	036	sub-09	2.0	3.0	036_neutral	1.0	attractiveness	80.10696345836277	2.4915947019653686
8.0	49.00448405316138	pulse	2.0	t		21.0	male	east_asian/white	3.501790688420215	neutral	036	sub-09	2.0	3.0	036_neutral	1.0	attractiveness	80.34872470871778	
8.0	49.704461202752555	pulse	2.0	t		21.0	male	east_asian/white	3.501790688420215	neutral	036	sub-09	2.0	3.0	036_neutral	1.0	attractiveness	81.04870185830896	
8.0	50.404445596859205	pulse	2.0	t		21.0	male	east_asian/white	3.501790688420215	neutral	036	sub-09	2.0	3.0	036_neutral	1.0	attractiveness	81.74868625241561	
8.0	50.45749778664958	response	2.0	b		21.0	male	east_asian/white	3.501790688420215	neutral	036	sub-09	2.0	3.0	036_neutral	1.0	attractiveness	81.80173844220599	
8.0	51.10442546314334	pulse	2.0	t		21.0	male	east_asian/white	3.501790688420215	neutral	036	sub-09	2.0	3.0	036_neutral	1.0	attractiveness	82.44866611869975	
8.0	51.254317504771734	fix	3.0		444	21.0	male	east_asian/white	3.501790688420215	neutral	036	sub-09	2.0	3.0	036_neutral	1.0	attractiveness	82.59855816032814	3.766566018211961
8.0	51.80441197023356	pulse	3.0	t		21.0	male	east_asian/white	3.501790688420215	neutral	036	sub-09	2.0	3.0	036_neutral	1.0	attractiveness	83.14865262578996	
8.0	52.50440300514583	pulse	3.0	t		21.0	male	east_asian/white	3.501790688420215	neutral	036	sub-09	2.0	3.0	036_neutral	1.0	attractiveness	83.84864366070224	
8.0	53.204382569575046	pulse	3.0	t		21.0	male	east_asian/white	3.501790688420215	neutral	036	sub-09	2.0	3.0	036_neutral	1.0	attractiveness	84.54862322513145	
8.0	53.90436394513381	pulse	3.0	t		21.0	male	east_asian/white	3.501790688420215	neutral	036	sub-09	2.0	3.0	036_neutral	1.0	attractiveness	85.24860460069021	
8.0	54.60435347077191	pulse	3.0	t		21.0	male	east_asian/white	3.501790688420215	neutral	036	sub-09	2.0	3.0	036_neutral	1.0	attractiveness	85.94859412632832	
9.0	55.020883522983695	face	0.0		145	32.0	male	white	2.389176283326701	smiling	092	sub-09	2.0	3.0	092_smiling	0.0		86.3651241785401	1.2333304455892176
9.0	55.304346316812826	pulse	0.0	t		32.0	male	white	2.389176283326701	smiling	092	sub-09	2.0	3.0	092_smiling	0.0		86.64858697236923	
9.0	56.00432618309742	pulse	0.0	t		32.0	male	white	2.389176283326701	smiling	092	sub-09	2.0	3.0	092_smiling	0.0		87.34856683865382	
9.0	56.25421396857291	fix	1.0		444	32.0	male	white	2.389176283326701	smiling	092	sub-09	2.0	3.0	092_smiling	0.0		87.59845462412932	3.766573866436829
9.0	56.704314501316276	pulse	1.0	t		32.0	male	white	2.389176283326701	smiling	092	sub-09	2.0	3.0	092_smiling	0.0		88.04855515687268	
9.0	57.40430553622855	pulse	1.0	t		32.0	male	white	2.389176283326701	smiling	092	sub-09	2.0	3.0	092_smiling	0.0		88.74854619178495	
9.0	58.104281176545555	pulse	1.0	t		32.0	male	white	2.389176283326701	smiling	092	sub-09	2.0	3.0	092_smiling	0.0		89.44852183210196	
9.0	58.80426285395879	pulse	1.0	t		32.0	male	white	2.389176283326701	smiling	092	sub-09	2.0	3.0	092_smiling	0.0		90.1485035095152	
9.0	59.50425841669312	pulse	1.0	t		32.0	male	white	2.389176283326701	smiling	092	sub-09	2.0	3.0	092_smiling	0.0		90.84849907224952	
10.0	60.02078783500974	face	0.0		145	27.0	male	black	3.5523278949462798	smiling	042	sub-09	2.0	3.0	042_smiling	1.0	trustworthiness	91.36502849056615	1.23332380478314
10.0	60.204231642171635	pulse	0.0	t		27.0	male	black	3.5523278949462798	smiling	042	sub-09	2.0	3.0	042_smiling	1.0	trustworthiness	91.54847229772804	
10.0	60.90422599748672	pulse	0.0	t		27.0	male	black	3.5523278949462798	smiling	042	sub-09	2.0	3.0	042_smiling	1.0	trustworthiness	92.24846665304312	
10.0	61.25411163979288	fix	1.0		177	27.0	male	black	3.5523278949462798	smiling	042	sub-09	2.0	3.0	042_smiling	1.0	trustworthiness	92.59835229534929	1.4999702673017055
10.0	61.60421522127035	pulse	1.0	t		27.0	male	black	3.5523278949462798	smiling	042	sub-09	2.0	3.0	042_smiling	1.0	trustworthiness	92.94845587682676	
10.0	62.30420444505353	pulse	1.0	t		27.0	male	black	3.5523278949462798	smiling	042	sub-09	2.0	3.0	042_smiling	1.0	trustworthiness	93.64844510060993	
10.0	62.75408190709459	rating	2.0		294	27.0	male	black	3.5523278949462798	smiling	042	sub-09	2.0	3.0	042_smiling	1.0	trustworthiness	94.09832256265099	2.4999452133524755
10.0	63.004190348433895	pulse	2.0	t		27.0	male	black	3.5523278949462798	smiling	042	sub-09	2.0	3.0	042_smiling	1.0	trustworthiness	94.3484310039903	
10.0	63.70417081842788	pulse	2.0	t		27.0	male	black	3.5523278949462798	smiling	042	sub-09	2.0	3.0	042_smiling	1.0	trustworthiness	95.04841147398429	
10.0	64.21560492759863	response	2.0	e		27.0	male	black	3.5523278949462798	smiling	042	sub-09	2.0	3.0	042_smiling	1.0	trustworthiness	95.55984558315504	
10.0	64.40415189213172	pulse	2.0	t		27.0	male	black	3.5523278949462798	smiling	042	sub-09	2.0	3.0	042_smiling	1.0	trustworthiness	95.74839254768813	
10.0	65.10412873986797	pulse	2.0	t		27.0	male	black	3.5523278949462798	smiling	042	sub-09	2.0	3.0	042_smiling	1.0	trustworthiness	96.44836939542438	
10.0	65.25402712044706	fix	3.0		444	27.0	male	black	3.5523278949462798	smiling	042	sub-09	2.0	3.0	042_smiling	1.0	trustworthiness	96.59826777600347	3.7665584718420178
10.0	65.80412400074738	pulse	3.0	t		27.0	male	black	3.5523278949462798	smiling	042	sub-09	2.0	3.0	042_smiling	1.0	trustworthiness	97.14836465630378	
10.0	66.50410779114418	pulse	3.0	t		27.0	male	black	3.5523278949462798	smiling	042	sub-09	2.0	3.0	042_smiling	1.0	trustworthiness	97.84834844670058	
10.0	67.20409369452454	pulse	3.0	t		27.0	male	black	3.5523278949462798	smiling	042	sub-09	2.0	3.0	042_smiling	1.0	trustworthiness	98.54833435008095	
10.0	67.904081409034	pulse	3.0	t		27.0	male	black	3.5523278949462798	smiling	042	sub-09	2.0	3.0	042_smiling	1.0	trustworthiness	99.24832206459041	
10.0	68.60406399201156	pulse	3.0	t		27.0	male	black	3.5523278949462798	smiling	042	sub-09	2.0	3.0	042_smiling	1.0	trustworthiness	99.94830464756797	
11.0	69.02058559228908	face	0.0		145	37.0	male	white	3.898925586947871	smiling	101	sub-09	2.0	3.0	101_smiling	0.0		100.36482624784549	1.2333376901042357
11.0	69.30405774361725	pulse	0.0	t		37.0	male	white	3.898925586947871	smiling	101	sub-09	2.0	3.0	101_smiling	0.0		100.64829839917365	
11.0	70.00403127095069	pulse	0.0	t		37.0	male	white	3.898925586947871	smiling	101	sub-09	2.0	3.0	101_smiling	0.0		101.3482719265071	
11.0	70.25392328239332	fix	1.0		444	37.0	male	white	3.898925586947871	smiling	101	sub-09	2.0	3.0	101_smiling	0.0		101.59816393794972	3.758357680439076
11.0	70.70402683368502	pulse	1.0	t		37.0	male	white	3.898925586947871	smiling	101	sub-09	2.0	3.0	101_smiling	0.0		102.04826748924143	
11.0	71.40400639811469	pulse	1.0	t		37.0	male	white	3.898925586947871	smiling	101	sub-09	2.0	3.0	101_smiling	0.0		102.7482470536711	
11.0	72.10399471633355	pulse	1.0	t		37.0	male	white	3.898925586947871	smiling	101	sub-09	2.0	3.0	101_smiling	0.0		103.44823537188995	
11.0	72.8039779030205	pulse	1.0	t		37.0	male	white	3.898925586947871	smiling	101	sub-09	2.0	3.0	101_smiling	0.0		104.1482185585769	
11.0	73.50396169341775	pulse	1.0	t		37.0	male	white	3.898925586947871	smiling	101	sub-09	2.0	3.0	101_smiling	0.0		104.84820234897416	
12.0	74.01228096283239	face	0.0		146	19.0	male	white	3.2522881018702745	neutral	018	sub-09	2.0	3.0	018_neutral	0.0		105.3565216183888	1.2415387833621025
12.0	74.20395846357133	pulse	0.0	t		19.0	male	white	3.2522881018702745	neutral	018	sub-09	2.0	3.0	018_neutral	0.0		105.54819911912773	
12.0	74.90393470759773	pulse	0.0	t		19.0	male	white	3.2522881018702745	neutral	018	sub-09	2.0	3.0	018_neutral	0.0		106.24817536315413	
12.0	75.2538197461945	fix	1.0		444	19.0	male	white	3.2522881018702745	neutral	018	sub-09	2.0	3.0	018_neutral	0.0		106.5980604017509	3.75824297561212
12.0	75.60392664807432	pulse	1.0	t		19.0	male	white	3.2522881018702745	neutral	018	sub-09	2.0	3.0	018_neutral	0.0		106.94816730363073	
12.0	76.3038899123444	pulse	1.0	t		19.0	male	white	3.2522881018702745	neutral	018	sub-09	2.0	3.0	018_neutral	0.0		107.64813056790081	
12.0	77.0038794379825	pulse	1.0	t		19.0	male	white	3.2522881018702745	neutral	018	sub-09	2.0	3.0	018_neutral	0.0		108.34812009353891	
12.0	77.70386232281498	pulse	1.0	t		19.0	male	white	3.2522881018702745	neutral	018	sub-09	2.0	3.0	018_neutral	0.0		109.04810297837139	
12.0	78.40385607442067	pulse	1.0	t		19.0	male	white	3.2522881018702745	neutral	018	sub-09	2.0	3.0	018_neutral	0.0		109.74809672997708	
13.0	79.01206272180661	face	0.0		146	40.0	female	west_asian	1.5777954635893354	neutral	038	sub-09	2.0	3.0	038_neutral	0.0		110.35630337736302	1.241652582624738
13.0	79.10385465570289	pulse	0.0	t		40.0	female	west_asian	1.5777954635893354	neutral	038	sub-09	2.0	3.0	038_neutral	0.0		110.4480953112593	
13.0	79.8038296923105	pulse	0.0	t		40.0	female	west_asian	1.5777954635893354	neutral	038	sub-09	2.0	3.0	038_neutral	0.0		111.1480703478669	
13.0	80.25371530443135	fix	1.0		444	40.0	female	west_asian	1.5777954635893354	neutral	038	sub-09	2.0	3.0	038_neutral	0.0		111.59795595998776	3.766573564581904
13.0	80.50382646246408	pulse	1.0	t		40.0	female	west_asian	1.5777954635893354	neutral	038	sub-09	2.0	3.0	038_neutral	0.0		111.84806711802048	
13.0	81.20380240463555	pulse	1.0	t		40.0	female	west_asian	1.5777954635893354	neutral	038	sub-09	2.0	3.0	038_neutral	0.0		112.54804306019196	
13.0	81.90378891172577	pulse	1.0	t		40.0	female	west_asian	1.5777954635893354	neutral	038	sub-09	2.0	3.0	038_neutral	0.0		113.24802956728217	
13.0	82.6037787392188	pulse	1.0	t		40.0	female	west_asian	1.5777954635893354	neutral	038	sub-09	2.0	3.0	038_neutral	0.0		113.9480193947752	
13.0	83.30375860550339	pulse	1.0	t		40.0	female	west_asian	1.5777954635893354	neutral	038	sub-09	2.0	3.0	038_neutral	0.0		114.6479992610598	
14.0	84.02028886901326	face	0.0		146	19.0	male	white	2.243931555909272	smiling	130	sub-09	2.0	3.0	130_smiling	0.0		115.36452952456966	1.2333241066380651
14.0	84.00661816664842	pulse	0.0	t		19.0	male	white	2.243931555909272	smiling	130	sub-09	2.0	3.0	130_smiling	0.0		115.35085882220483	
14.0	84.70373584565095	pulse	0.0	t		19.0	male	white	2.243931555909272	smiling	130	sub-09	2.0	3.0	130_smiling	0.0		116.04797650120736	
14.0	85.25361297565132	fix	1.0		443	19.0	male	white	2.243931555909272	smiling	130	sub-09	2.0	3.0	130_smiling	0.0		116.59785363120773	3.7583190430236755
14.0	85.40372174903132	pulse	1.0	t		19.0	male	white	2.243931555909272	smiling	130	sub-09	2.0	3.0	130_smiling	0.0		116.74796240458772	
14.0	86.10369769120325	pulse	1.0	t		19.0	male	white	2.243931555909272	smiling	130	sub-09	2.0	3.0	130_smiling	0.0		117.44793834675966	
14.0	86.80368299087422	pulse	1.0	t		19.0	male	white	2.243931555909272	smiling	130	sub-09	2.0	3.0	130_smiling	0.0		118.14792364643063	
14.0	87.50367493135082	pulse	1.0	t		19.0	male	white	2.243931555909272	smiling	130	sub-09	2.0	3.0	130_smiling	0.0		118.84791558690722	
14.0	88.20365992916686	pulse	1.0	t		19.0	male	white	2.243931555909272	smiling	130	sub-09	2.0	3.0	130_smiling	0.0		119.54790058472327	
14.0	88.90364643625708	pulse	1.0	t		19.0	male	white	2.243931555909272	smiling	130	sub-09	2.0	3.0	130_smiling	0.0		120.24788709181348	
15.0	89.011932018675	face	0.0		147	30.0	female	black	2.7345801830481498	neutral	062	sub-09	2.0	3.0	062_neutral	0.0		120.3561726742314	1.241575005939012
15.0	89.60363294334684	pulse	0.0	t		30.0	female	black	2.7345801830481498	neutral	062	sub-09	2.0	3.0	062_neutral	0.0		120.94787359890324	
15.0	90.25350702461401	fix	1.0		443	30.0	female	black	2.7345801830481498	neutral	062	sub-09	2.0	3.0	062_neutral	0.0		121.59774768017041	3.7665747720016043
15.0	90.30361673374364	pulse	1.0	t		30.0	female	black	2.7345801830481498	neutral	062	sub-09	2.0	3.0	062_neutral	0.0		121.64785738930004	
15.0	91.00359992043104	pulse	1.0	t		30.0	female	black	2.7345801830481498	neutral	062	sub-09	2.0	3.0	062_neutral	0.0		122.34784057598745	
15.0	91.70358159784428	pulse	1.0	t		30.0	female	black	2.7345801830481498	neutral	062	sub-09	2.0	3.0	062_neutral	0.0		123.04782225340068	
15.0	92.40357353832087	pulse	1.0	t		30.0	female	black	2.7345801830481498	neutral	062	sub-09	2.0	3.0	062_neutral	0.0		123.74781419387728	
15.0	93.10356004541109	pulse	1.0	t		30.0	female	black	2.7345801830481498	neutral	062	sub-09	2.0	3.0	062_neutral	0.0		124.44780070096749	
15.0	93.80353478016377	pulse	1.0	t		30.0	female	black	2.7345801830481498	neutral	062	sub-09	2.0	3.0	062_neutral	0.0		125.14777543572018	
16.0	94.02008179661561	face	0.0		145	22.0	female	white	4.614007162753682	neutral	009	sub-09	2.0	3.0	009_neutral	0.0		125.36432245217202	1.2333219936544992
16.0	94.50353426701031	pulse	0.0	t		22.0	female	white	4.614007162753682	neutral	009	sub-09	2.0	3.0	009_neutral	0.0		125.84777492256671	
16.0	95.20350749248928	pulse	0.0	t		22.0	female	white	4.614007162753682	neutral	009	sub-09	2.0	3.0	009_neutral	0.0		126.54774814804568	
16.0	95.25340379027011	fix	1.0		444	22.0	female	white	4.614007162753682	neutral	009	sub-09	2.0	3.0	009_neutral	0.0		126.59764444582652	3.766573866436829
16.0	95.9035003385302	pulse	1.0	t		22.0	female	white	4.614007162753682	neutral	009	sub-09	2.0	3.0	009_neutral	0.0		127.2477409940866	
16.0	96.60348020481433	pulse	1.0	t		22.0	female	white	4.614007162753682	neutral	009	sub-09	2.0	3.0	009_neutral	0.0		127.94772086037074	
16.0	97.30346490077591	pulse	1.0	t		22.0	female	white	4.614007162753682	neutral	009	sub-09	2.0	3.0	009_neutral	0.0		128.6477055563323	
16.0	98.00345835052667	pulse	1.0	t		22.0	female	white	4.614007162753682	neutral	009	sub-09	2.0	3.0	009_neutral	0.0		129.34769900608308	
16.0	98.70343610382724	pulse	1.0	t		22.0	female	white	4.614007162753682	neutral	009	sub-09	2.0	3.0	009_neutral	0.0		130.04767675938365	
17.0	99.01997765670694	face	0.0		145	47.0	male	east_asian	2.171110226820533	smiling	024	sub-09	2.0	3.0	024_smiling	0.0		130.36421831226335	1.2333222955094243
17.0	99.40343408140006	pulse	0.0	t		47.0	male	east_asian	2.171110226820533	smiling	024	sub-09	2.0	3.0	024_smiling	0.0		130.74767473695647	
17.0	100.10340670316918	pulse	0.0	t		47.0	male	east_asian	2.171110226820533	smiling	024	sub-09	2.0	3.0	024_smiling	0.0		131.4476473587256	
17.0	100.25329995221637	fix	1.0		444	47.0	male	east_asian	2.171110226820533	smiling	024	sub-09	2.0	3.0	024_smiling	0.0		131.59754060777277	3.7665747720016043
17.0	100.8033995492101	pulse	1.0	t		47.0	male	east_asian	2.171110226820533	smiling	024	sub-09	2.0	3.0	024_smiling	0.0		132.1476402047665	
17.0	101.50338032105901	pulse	1.0	t		47.0	male	east_asian	2.171110226820533	smiling	024	sub-09	2.0	3.0	024_smiling	0.0		132.84762097661542	
17.0	102.20336350774596	pulse	1.0	t		47.0	male	east_asian	2.171110226820533	smiling	024	sub-09	2.0	3.0	024_smiling	0.0		133.54760416330237	
17.0	102.9033566556418	pulse	1.0	t		47.0	male	east_asian	2.171110226820533	smiling	024	sub-09	2.0	3.0	024_smiling	0.0		134.2475973111982	
17.0	103.60335101095689	pulse	1.0	t		47.0	male	east_asian	2.171110226820533	smiling	024	sub-09	2.0	3.0	024_smiling	0.0		134.9475916665133	
18.0	104.01987472421797	face	0.0		145	21.0	male	east_asian/white	3.501790688420215	smiling	036	sub-09	2.0	3.0	036_smiling	1.0	attractiveness	135.36411537977438	1.2333213899446491
18.0	104.30333208466072	pulse	0.0	t		21.0	male	east_asian/white	3.501790688420215	smiling	036	sub-09	2.0	3.0	036_smiling	1.0	attractiveness	135.64757274021713	
18.0	105.00330863054205	pulse	0.0	t		21.0	male	east_asian/white	3.501790688420215	smiling	036	sub-09	2.0	3.0	036_smiling	1.0	attractiveness	136.34754928609846	
18.0	105.25319611416262	fix	1.0		177	21.0	male	east_asian/white	3.501790688420215	smiling	036	sub-09	2.0	3.0	036_smiling	1.0	attractiveness	136.59743676971902	1.4999735877045168
18.0	105.70329634505151	pulse	1.0	t		21.0	male	east_asian/white	3.501790688420215	smiling	036	sub-09	2.0	3.0	036_smiling	1.0	attractiveness	137.04753700060792	
18.0	106.40327953173846	pulse	1.0	t		21.0	male	east_asian/white	3.501790688420215	smiling	036	sub-09	2.0	3.0	036_smiling	1.0	attractiveness	137.74752018729487	
18.0	106.75316970186714	rating	2.0		294	21.0	male	east_asian/white	3.501790688420215	smiling	036	sub-09	2.0	3.0	036_smiling	1.0	attractiveness	138.09741035742354	2.4999431003689097
18.0	107.098024330101	pulse	2.0	t		21.0	male	east_asian/white	3.501790688420215	smiling	036	sub-09	2.0	3.0	036_smiling	1.0	attractiveness	138.4422649856574	
18.0	107.79798970735465	pulse	2.0	t		21.0	male	east_asian/white	3.501790688420215	smiling	036	sub-09	2.0	3.0	036_smiling	1.0	attractiveness	139.14223036291105	
18.0	108.16990863760566	response	2.0	b		21.0	male	east_asian/white	3.501790688420215	smiling	036	sub-09	2.0	3.0	036_smiling	1.0	attractiveness	139.51414929316206	
18.0	108.50322939365515	pulse	2.0	t		21.0	male	east_asian/white	3.501790688420215	smiling	036	sub-09	2.0	3.0	036_smiling	1.0	attractiveness	139.84747004921155	
18.0	109.20321741001953	pulse	2.0	t		21.0	male	east_asian/white	3.501790688420215	smiling	036	sub-09	2.0	3.0	036_smiling	1.0	attractiveness	140.54745806557594	
18.0	109.25311280223605	fix	3.0		444	21.0	male	east_asian/white	3.501790688420215	smiling	036	sub-09	2.0	3.0	036_smiling	1.0	attractiveness	140.59735345779245	3.76657688498517
18.0	109.90320693565764	pulse	3.0	t		21.0	male	east_asian/white	3.501790688420215	smiling	036	sub-09	2.0	3.0	036_smiling	1.0	attractiveness	141.24744759121404	
18.0	110.6031922353286	pulse	3.0	t		21.0	male	east_asian/white	3.501790688420215	smiling	036	sub-09	2.0	3.0	036_smiling	1.0	attractiveness	141.947432890885	
18.0	111.30314765137337	pulse	3.0	t		21.0	male	east_asian/white	3.501790688420215	smiling	036	sub-09	2.0	3.0	036_smiling	1.0	attractiveness	142.64738830692977	
18.0	112.00315619386447	pulse	3.0	t		21.0	male	east_asian/white	3.501790688420215	smiling	036	sub-09	2.0	3.0	036_smiling	1.0	attractiveness	143.34739684942087	
18.0	112.70315205845372	pulse	3.0	t		21.0	male	east_asian/white	3.501790688420215	smiling	036	sub-09	2.0	3.0	036_smiling	1.0	attractiveness	144.04739271401013	
19.0	113.01968968722122	face	0.0		145	20.0	male	black	3.1070433744528456	neutral	082	sub-09	2.0	3.0	082_neutral	1.0	dominance	144.36393034277762	1.2333198806704786
19.0	113.40314279151107	pulse	0.0	t		20.0	male	black	3.1070433744528456	neutral	082	sub-09	2.0	3.0	082_neutral	1.0	dominance	144.74738344706748	
19.0	114.10312054481165	pulse	0.0	t		20.0	male	black	3.1070433744528456	neutral	082	sub-09	2.0	3.0	082_neutral	1.0	dominance	145.44736120036805	
19.0	114.2530095678917	fix	1.0		177	20.0	male	black	3.1070433744528456	neutral	082	sub-09	2.0	3.0	082_neutral	1.0	dominance	145.5972502234481	1.4999705691566305
19.0	114.80311339085256	pulse	1.0	t		20.0	male	black	3.1070433744528456	neutral	082	sub-09	2.0	3.0	082_neutral	1.0	dominance	146.14735404640896	
19.0	115.50308903117002	pulse	1.0	t		20.0	male	black	3.1070433744528456	neutral	082	sub-09	2.0	3.0	082_neutral	1.0	dominance	146.84732968672643	
19.0	115.75298013704833	rating	2.0		295	20.0	male	black	3.1070433744528456	neutral	082	sub-09	2.0	3.0	082_neutral	1.0	dominance	147.09722079260473	2.4999473263360414
19.0	116.19783443324195	pulse	2.0	t		20.0	male	black	3.1070433744528456	neutral	082	sub-09	2.0	3.0	082_neutral	1.0	dominance	147.54207508879836	
19.0	116.89780494202705	pulse	2.0	t		20.0	male	black	3.1070433744528456	neutral	082	sub-09	2.0	3.0	082_neutral	1.0	dominance	148.24204559758346	
19.0	116.99471723901843	response	2.0	b		20.0	male	black	3.1070433744528456	neutral	082	sub-09	2.0	3.0	082_neutral	1.0	dominance	148.33895789457483	
19.0	117.60304975985946	pulse	2.0	t		20.0	male	black	3.1070433744528456	neutral	082	sub-09	2.0	3.0	082_neutral	1.0	dominance	148.94729041541586	
19.0	118.25292746338437	fix	3.0		443	20.0	male	black	3.1070433744528456	neutral	082	sub-09	2.0	3.0	082_neutral	1.0	dominance	149.59716811894077	3.766574168291754
19.0	118.30304049291681	pulse	3.0	t		20.0	male	black	3.1070433744528456	neutral	082	sub-09	2.0	3.0	082_neutral	1.0	dominance	149.6472811484732	
19.0	119.00302186847512	pulse	3.0	t		20.0	male	black	3.1070433744528456	neutral	082	sub-09	2.0	3.0	082_neutral	1.0	dominance	150.34726252403152	
19.0	119.70300535701745	pulse	3.0	t		20.0	male	black	3.1070433744528456	neutral	082	sub-09	2.0	3.0	082_neutral	1.0	dominance	151.04724601257385	
19.0	120.4029861288659	pulse	3.0	t		20.0	male	black	3.1070433744528456	neutral	082	sub-09	2.0	3.0	082_neutral	1.0	dominance	151.7472267844223	
19.0	121.10296931555331	pulse	3.0	t		20.0	male	black	3.1070433744528456	neutral	082	sub-09	2.0	3.0	082_neutral	1.0	dominance	152.44720997110971	
19.0	121.80295521893368	pulse	3.0	t		20.0	male	black	3.1070433744528456	neutral	082	sub-09	2.0	3.0	082_neutral	1.0	dominance	153.14719587449008	
20.0	122.01950163167612	face	0.0		145	25.0	female	west_asian	2.6756864305610826	neutral	064	sub-09	2.0	3.0	064_neutral	0.0		153.36374228723253	1.2333225973638946
20.0	122.502950781668	pulse	0.0	t		25.0	female	west_asian	2.6756864305610826	neutral	064	sub-09	2.0	3.0	064_neutral	0.0		153.8471914372244	
20.0	123.20292521456577	pulse	0.0	t		25.0	female	west_asian	2.6756864305610826	neutral	064	sub-09	2.0	3.0	064_neutral	0.0		154.54716587012217	
20.0	123.25282422904002	fix	1.0		1185	25.0	female	west_asian	2.6756864305610826	neutral	064	sub-09	2.0	3.0	064_neutral	0.0		154.59706488459642	10.008227354626342
20.0	123.90291987173578	pulse	1.0	t		25.0	female	west_asian	2.6756864305610826	neutral	064	sub-09	2.0	3.0	064_neutral	0.0		155.24716052729218	
20.0	124.60290366213258	pulse	1.0	t		25.0	female	west_asian	2.6756864305610826	neutral	064	sub-09	2.0	3.0	064_neutral	0.0		155.94714431768898	
20.0	125.30288292470732	pulse	1.0	t		25.0	female	west_asian	2.6756864305610826	neutral	064	sub-09	2.0	3.0	064_neutral	0.0		156.64712358026372	
20.0	126.0028658095398	pulse	1.0	t		25.0	female	west_asian	2.6756864305610826	neutral	064	sub-09	2.0	3.0	064_neutral	0.0		157.3471064650962	
20.0	126.70285050550137	pulse	1.0	t		25.0	female	west_asian	2.6756864305610826	neutral	064	sub-09	2.0	3.0	064_neutral	0.0		158.04709116105778	
20.0	127.402832786624	pulse	1.0	t		25.0	female	west_asian	2.6756864305610826	neutral	064	sub-09	2.0	3.0	064_neutral	0.0		158.7470734421804	
20.0	128.10282351968135	pulse	1.0	t		25.0	female	west_asian	2.6756864305610826	neutral	064	sub-09	2.0	3.0	064_neutral	0.0		159.44706417523776	
20.0	128.80279674515987	pulse	1.0	t		25.0	female	west_asian	2.6756864305610826	neutral	064	sub-09	2.0	3.0	064_neutral	0.0		160.14703740071627	
20.0	129.50279593015193	pulse	1.0	t		25.0	female	west_asian	2.6756864305610826	neutral	064	sub-09	2.0	3.0	064_neutral	0.0		160.84703658570834	
20.0	130.2027842483708	pulse	1.0	t		25.0	female	west_asian	2.6756864305610826	neutral	064	sub-09	2.0	3.0	064_neutral	0.0		161.5470249039272	
20.0	130.90276562392955	pulse	1.0	t		25.0	female	west_asian	2.6756864305610826	neutral	064	sub-09	2.0	3.0	064_neutral	0.0		162.24700627948596	
20.0	131.60275424400334	pulse	1.0	t		25.0	female	west_asian	2.6756864305610826	neutral	064	sub-09	2.0	3.0	064_neutral	0.0		162.94699489955974	
20.0	132.30274044923863	pulse	1.0	t		25.0	female	west_asian	2.6756864305610826	neutral	064	sub-09	2.0	3.0	064_neutral	0.0		163.64698110479503	
20.0	133.00273118229597	pulse	1.0	t		25.0	female	west_asian	2.6756864305610826	neutral	064	sub-09	2.0	3.0	064_neutral	0.0		164.34697183785238	
21.0	133.26105158366636	face	0.0		146	19.0	female	white	4.298846000795861	smiling	100	sub-09	2.0	3.0	100_smiling	0.0		164.60529223922276	1.2415442167484798
21.0	133.70271678382142	pulse	0.0	t		19.0	female	white	4.298846000795861	smiling	100	sub-09	2.0	3.0	100_smiling	0.0		165.04695743937782	
21.0	134.40269876308957	pulse	0.0	t		19.0	female	white	4.298846000795861	smiling	100	sub-09	2.0	3.0	100_smiling	0.0		165.74693941864598	
21.0	134.50259580041484	fix	1.0		444	19.0	female	white	4.298846000795861	smiling	100	sub-09	2.0	3.0	100_smiling	0.0		165.84683645597124	3.766568131195527
21.0	135.1026916091305	pulse	1.0	t		19.0	female	white	4.298846000795861	smiling	100	sub-09	2.0	3.0	100_smiling	0.0		166.4469322646869	
21.0	135.80266392904468	pulse	1.0	t		19.0	female	white	4.298846000795861	smiling	100	sub-09	2.0	3.0	100_smiling	0.0		167.1469045846011	
21.0	136.5026537565377	pulse	1.0	t		19.0	female	white	4.298846000795861	smiling	100	sub-09	2.0	3.0	100_smiling	0.0		167.84689441209412	
21.0	137.20264962112697	pulse	1.0	t		19.0	female	white	4.298846000795861	smiling	100	sub-09	2.0	3.0	100_smiling	0.0		168.54689027668337	
21.0	137.90262978926603	pulse	1.0	t		19.0	female	white	4.298846000795861	smiling	100	sub-09	2.0	3.0	100_smiling	0.0		169.24687044482243	
22.0	138.26916393161036	face	0.0		145	22.0	female	white	4.614007162753682	smiling	009	sub-09	2.0	3.0	009_smiling	0.0		169.61340458716677	1.2333219936544992
22.0	138.602615088937	pulse	0.0	t		22.0	female	white	4.614007162753682	smiling	009	sub-09	2.0	3.0	009_smiling	0.0		169.9468557444934	
22.0	139.3025982756244	pulse	0.0	t		22.0	female	white	4.614007162753682	smiling	009	sub-09	2.0	3.0	009_smiling	0.0		170.6468389311808	
22.0	139.50248592526486	fix	1.0		444	22.0	female	white	4.614007162753682	smiling	009	sub-09	2.0	3.0	009_smiling	0.0		170.84672658082127	3.758235731097102
22.0	140.0025884049719	pulse	1.0	t		22.0	female	white	4.614007162753682	smiling	009	sub-09	2.0	3.0	009_smiling	0.0		171.3468290605283	
22.0	140.70256857311142	pulse	1.0	t		22.0	female	white	4.614007162753682	smiling	009	sub-09	2.0	3.0	009_smiling	0.0		172.04680922866783	
22.0	141.40255960802324	pulse	1.0	t		22.0	female	white	4.614007162753682	smiling	009	sub-09	2.0	3.0	009_smiling	0.0		172.74680026357964	
22.0	142.10253887059798	pulse	1.0	t		22.0	female	white	4.614007162753682	smiling	009	sub-09	2.0	3.0	009_smiling	0.0		173.4467795261544	
22.0	142.80252507583327	pulse	1.0	t		22.0	female	white	4.614007162753682	smiling	009	sub-09	2.0	3.0	009_smiling	0.0		174.14676573138968	
23.0	143.26072165636197	face	0.0		146	20.0	male	black	2.609629924393156	neutral	043	sub-09	2.0	3.0	043_neutral	0.0		174.60496231191837	1.2416655623810584
23.0	143.50251611074555	pulse	0.0	t		20.0	male	black	2.609629924393156	neutral	043	sub-09	2.0	3.0	043_neutral	0.0		174.84675676630195	
23.0	144.20249567517521	pulse	0.0	t		20.0	male	black	2.609629924393156	neutral	043	sub-09	2.0	3.0	043_neutral	0.0		175.54673633073162	
23.0	144.50238721874302	fix	1.0		444	20.0	male	black	2.609629924393156	neutral	043	sub-09	2.0	3.0	043_neutral	0.0		175.84662787429943	3.766568131195527
23.0	144.90248338968468	pulse	1.0	t		20.0	male	black	2.609629924393156	neutral	043	sub-09	2.0	3.0	043_neutral	0.0		176.24672404524108	
23.0	145.60246899121012	pulse	1.0	t		20.0	male	black	2.609629924393156	neutral	043	sub-09	2.0	3.0	043_neutral	0.0		176.94670964676652	
23.0	146.3024536871717	pulse	1.0	t		20.0	male	black	2.609629924393156	neutral	043	sub-09	2.0	3.0	043_neutral	0.0		177.6466943427281	
23.0	147.0024380812779	pulse	1.0	t		20.0	male	black	2.609629924393156	neutral	043	sub-09	2.0	3.0	043_neutral	0.0		178.3466787368343	
23.0	147.70242338094886	pulse	1.0	t		20.0	male	black	2.609629924393156	neutral	043	sub-09	2.0	3.0	043_neutral	0.0		179.04666403650526	
24.0	148.26895534993855	face	0.0		145	30.0	female	black	2.7345801830481498	smiling	062	sub-09	2.0	3.0	062_smiling	0.0		179.61319600549496	1.2333228992188197
24.0	148.4024159251353	pulse	0.0	t		30.0	female	black	2.7345801830481498	smiling	062	sub-09	2.0	3.0	062_smiling	0.0		179.7466565806917	
24.0	149.10239367843587	pulse	0.0	t		30.0	female	black	2.7345801830481498	smiling	062	sub-09	2.0	3.0	062_smiling	0.0		180.44663433399228	
24.0	149.50227824915737	fix	1.0		444	30.0	female	black	2.7345801830481498	smiling	062	sub-09	2.0	3.0	062_smiling	0.0		180.84651890471378	3.766569640470152
24.0	149.80238199665473	pulse	1.0	t		30.0	female	black	2.7345801830481498	smiling	062	sub-09	2.0	3.0	062_smiling	0.0		181.14662265221114	
24.0	150.50236639076138	pulse	1.0	t		30.0	female	black	2.7345801830481498	smiling	062	sub-09	2.0	3.0	062_smiling	0.0		181.84660704631779	
24.0	151.20234504962627	pulse	1.0	t		30.0	female	black	2.7345801830481498	smiling	062	sub-09	2.0	3.0	062_smiling	0.0		182.54658570518268	
24.0	151.90233608453855	pulse	1.0	t		30.0	female	black	2.7345801830481498	smiling	062	sub-09	2.0	3.0	062_smiling	0.0		183.24657674009495	
24.0	152.6023228934837	pulse	1.0	t		30.0	female	black	2.7345801830481498	smiling	062	sub-09	2.0	3.0	062_smiling	0.0		183.9465635490401	
25.0	153.26884788962752	face	0.0		145	22.0	female	west_asian	3.8205332272184642	neutral	066	sub-09	2.0	3.0	066_neutral	0.0		184.61308854518393	1.2333268233310264
25.0	153.30231453210536	pulse	0.0	t		22.0	female	west_asian	3.8205332272184642	neutral	066	sub-09	2.0	3.0	066_neutral	0.0		184.64655518766176	
25.0	154.00229500209934	pulse	0.0	t		22.0	female	west_asian	3.8205332272184642	neutral	066	sub-09	2.0	3.0	066_neutral	0.0		185.34653565765575	
25.0	154.50217471295855	fix	1.0		443	22.0	female	west_asian	3.8205332272184642	neutral	066	sub-09	2.0	3.0	066_neutral	0.0		185.84641536851495	3.7665726590180384
25.0	154.7022809054797	pulse	1.0	t		22.0	female	west_asian	3.8205332272184642	neutral	066	sub-09	2.0	3.0	066_neutral	0.0		186.04652156103612	
25.0	155.40226167732862	pulse	1.0	t		22.0	female	west_asian	3.8205332272184642	neutral	066	sub-09	2.0	3.0	066_neutral	0.0		186.74650233288503	
25.0	156.10224818441884	pulse	1.0	t		22.0	female	west_asian	3.8205332272184642	neutral	066	sub-09	2.0	3.0	066_neutral	0.0		187.44648883997525	
25.0	156.80223046554147	pulse	1.0	t		22.0	female	west_asian	3.8205332272184642	neutral	066	sub-09	2.0	3.0	066_neutral	0.0		188.14647112109787	
25.0	157.50222150045374	pulse	1.0	t		22.0	female	west_asian	3.8205332272184642	neutral	066	sub-09	2.0	3.0	066_neutral	0.0		188.84646215601015	
25.0	158.20219955560924	pulse	1.0	t		22.0	female	west_asian	3.8205332272184642	neutral	066	sub-09	2.0	3.0	066_neutral	0.0		189.54644021116565	
26.0	158.2687473719766	face	0.0		146	31.0	female	white	2.1822522881018704	smiling	102	sub-09	2.0	3.0	102_smiling	0.0		189.612988027533	1.2333228992188197
26.0	158.9021954201985	pulse	0.0	t		31.0	female	white	2.1822522881018704	smiling	102	sub-09	2.0	3.0	102_smiling	0.0		190.2464360757549	
26.0	159.5020702711954	fix	1.0		443	31.0	female	white	2.1822522881018704	smiling	102	sub-09	2.0	3.0	102_smiling	0.0		190.8463109267518	3.7665777905494906
26.0	159.60218313470796	pulse	1.0	t		31.0	female	white	2.1822522881018704	smiling	102	sub-09	2.0	3.0	102_smiling	0.0		190.94642379026436	
26.0	160.30215756760572	pulse	1.0	t		31.0	female	white	2.1822522881018704	smiling	102	sub-09	2.0	3.0	102_smiling	0.0		191.64639822316212	
26.0	161.00214075429312	pulse	1.0	t		31.0	female	white	2.1822522881018704	smiling	102	sub-09	2.0	3.0	102_smiling	0.0		192.34638140984953	
26.0	161.70212816694766	pulse	1.0	t		31.0	female	white	2.1822522881018704	smiling	102	sub-09	2.0	3.0	102_smiling	0.0		193.04636882250406	
26.0	162.4021086369412	pulse	1.0	t		31.0	female	white	2.1822522881018704	smiling	102	sub-09	2.0	3.0	102_smiling	0.0		193.7463492924976	
26.0	163.10209906814407	pulse	1.0	t		31.0	female	white	2.1822522881018704	smiling	102	sub-09	2.0	3.0	102_smiling	0.0		194.44633972370048	
27.0	163.2686480617449	face	0.0		146	31.0	female	west_asian	2.364902506963788	smiling	006	sub-09	2.0	3.0	006_smiling	0.0		194.6128887173013	1.2333177676873674
27.0	163.80209432902348	pulse	0.0	t		31.0	female	west_asian	2.364902506963788	smiling	006	sub-09	2.0	3.0	006_smiling	0.0		195.14633498457988	
27.0	164.50196582943227	fix	1.0		444	31.0	female	west_asian	2.364902506963788	smiling	006	sub-09	2.0	3.0	006_smiling	0.0		195.84620648498867	3.766573866436829
27.0	164.5094400563139	pulse	1.0	t		31.0	female	west_asian	2.364902506963788	smiling	006	sub-09	2.0	3.0	006_smiling	0.0		195.8536807118703	
27.0	165.20206040054336	pulse	1.0	t		31.0	female	west_asian	2.364902506963788	smiling	006	sub-09	2.0	3.0	006_smiling	0.0		196.54630105609976	
27.0	165.90204419094016	pulse	1.0	t		31.0	female	west_asian	2.364902506963788	smiling	006	sub-09	2.0	3.0	006_smiling	0.0		197.24628484649656	
27.0	166.60202828319188	pulse	1.0	t		31.0	female	west_asian	2.364902506963788	smiling	006	sub-09	2.0	3.0	006_smiling	0.0		197.9462689387483	
27.0	167.30201267729808	pulse	1.0	t		31.0	female	west_asian	2.364902506963788	smiling	006	sub-09	2.0	3.0	006_smiling	0.0		198.64625333285449	
27.0	168.00199827882398	pulse	1.0	t		31.0	female	west_asian	2.364902506963788	smiling	006	sub-09	2.0	3.0	006_smiling	0.0		199.34623893438038	
28.0	168.2685396958691	face	0.0		145	27.0	female	white	3.504576203740549	neutral	144	sub-09	2.0	3.0	144_neutral	0.0		199.6127803514255	1.2333250122023856
28.0	168.70199021930057	pulse	0.0	t		27.0	female	white	3.504576203740549	neutral	144	sub-09	2.0	3.0	144_neutral	0.0		200.04623087485697	
28.0	169.40197642453586	pulse	0.0	t		27.0	female	white	3.504576203740549	neutral	144	sub-09	2.0	3.0	144_neutral	0.0		200.74621708009226	
28.0	169.50186470807148	fix	1.0		444	27.0	female	white	3.504576203740549	neutral	144	sub-09	2.0	3.0	144_neutral	0.0		200.84610536362788	3.7665786961142658
28.0	170.10195991307774	pulse	1.0	t		27.0	female	white	3.504576203740549	neutral	144	sub-09	2.0	3.0	144_neutral	0.0		201.44620056863414	
28.0	170.80193766637876	pulse	1.0	t		27.0	female	white	3.504576203740549	neutral	144	sub-09	2.0	3.0	144_neutral	0.0		202.14617832193517	
28.0	171.50193171983892	pulse	1.0	t		27.0	female	white	3.504576203740549	neutral	144	sub-09	2.0	3.0	144_neutral	0.0		202.84617237539533	
28.0	172.2019112842686	pulse	1.0	t		27.0	female	white	3.504576203740549	neutral	144	sub-09	2.0	3.0	144_neutral	0.0		203.546151939825	
28.0	172.90189990434237	pulse	1.0	t		27.0	female	white	3.504576203740549	neutral	144	sub-09	2.0	3.0	144_neutral	0.0		204.24614055989878	
29.0	173.26844340418575	face	0.0		145	25.0	female	black	3.858336649423	neutral	126	sub-09	2.0	3.0	126_neutral	0.0		204.61268405974215	1.2333144472841013
29.0	173.60188942998047	pulse	0.0	t		25.0	female	black	3.858336649423	neutral	126	sub-09	2.0	3.0	126_neutral	0.0		204.94613008553688	
29.0	174.3018702018294	pulse	0.0	t		25.0	female	black	3.858336649423	neutral	126	sub-09	2.0	3.0	126_neutral	0.0		205.6461108573858	
29.0	174.50175785146985	fix	1.0		444	25.0	female	black	3.858336649423	neutral	126	sub-09	2.0	3.0	126_neutral	0.0		205.84599850702625	3.7665744701466792
29.0	175.00185701077407	pulse	1.0	t		25.0	female	black	3.858336649423	neutral	126	sub-09	2.0	3.0	126_neutral	0.0		206.34609766633048	
29.0	175.7018386881873	pulse	1.0	t		25.0	female	black	3.858336649423	neutral	126	sub-09	2.0	3.0	126_neutral	0.0		207.0460793437437	
29.0	176.4018215730198	pulse	1.0	t		25.0	female	black	3.858336649423	neutral	126	sub-09	2.0	3.0	126_neutral	0.0		207.7460622285762	
29.0	177.10181079680297	pulse	1.0	t		25.0	female	black	3.858336649423	neutral	126	sub-09	2.0	3.0	126_neutral	0.0		208.44605145235937	
29.0	177.80179851131243	pulse	1.0	t		25.0	female	black	3.858336649423	neutral	126	sub-09	2.0	3.0	126_neutral	0.0		209.14603916686883	
30.0	178.26833232161653	face	0.0		145	26.0	male	white	2.7966573816155993	smiling	117	sub-09	2.0	3.0	117_smiling	0.0		209.61257297717293	1.2333132398653106
30.0	178.50179075364395	pulse	0.0	t		26.0	male	white	2.7966573816155993	smiling	117	sub-09	2.0	3.0	117_smiling	0.0		209.84603140920035	
30.0	179.2017703180736	pulse	0.0	t		26.0	male	white	2.7966573816155993	smiling	117	sub-09	2.0	3.0	117_smiling	0.0		210.54601097363002	
30.0	179.50164556148184	fix	1.0		444	26.0	male	white	2.7966573816155993	smiling	117	sub-09	2.0	3.0	117_smiling	0.0		210.84588621703824	3.766583525790793
30.0	179.90175803258262	pulse	1.0	t		26.0	male	white	2.7966573816155993	smiling	117	sub-09	2.0	3.0	117_smiling	0.0		211.24599868813903	
30.0	180.6017369933029	pulse	1.0	t		26.0	male	white	2.7966573816155993	smiling	117	sub-09	2.0	3.0	117_smiling	0.0		211.9459776488593	
30.0	181.30172289668326	pulse	1.0	t		26.0	male	white	2.7966573816155993	smiling	117	sub-09	2.0	3.0	117_smiling	0.0		212.64596355223966	
30.0	182.00170608337066	pulse	1.0	t		26.0	male	white	2.7966573816155993	smiling	117	sub-09	2.0	3.0	117_smiling	0.0		213.34594673892707	
30.0	182.7017752986776	pulse	1.0	t		26.0	male	white	2.7966573816155993	smiling	117	sub-09	2.0	3.0	117_smiling	0.0		214.046015954234	
31.0	183.26822908727263	face	0.0		145	27.0	female	white	4.181058495821727	smiling	039	sub-09	2.0	3.0	039_smiling	0.0		214.61246974282903	1.2333256159122357
31.0	183.40169268101727	pulse	0.0	t		27.0	female	white	4.181058495821727	smiling	039	sub-09	2.0	3.0	039_smiling	0.0		214.74593333657367	
31.0	184.10167133988216	pulse	0.0	t		27.0	female	white	4.181058495821727	smiling	039	sub-09	2.0	3.0	039_smiling	0.0		215.44591199543856	
31.0	184.50155470318487	fix	1.0		444	27.0	female	white	4.181058495821727	smiling	039	sub-09	2.0	3.0	039_smiling	0.0		215.84579535874127	3.7665696404696973
31.0	184.8016563376982	pulse	1.0	t		27.0	female	white	4.181058495821727	smiling	039	sub-09	2.0	3.0	039_smiling	0.0		216.1458969932546	
31.0	185.50163650583727	pulse	1.0	t		27.0	female	white	4.181058495821727	smiling	039	sub-09	2.0	3.0	039_smiling	0.0		216.84587716139367	
31.0	186.20162120179884	pulse	1.0	t		27.0	female	white	4.181058495821727	smiling	039	sub-09	2.0	3.0	039_smiling	0.0		217.54586185735525	
31.0	186.9016077088886	pulse	1.0	t		27.0	female	white	4.181058495821727	smiling	039	sub-09	2.0	3.0	039_smiling	0.0		218.245848364445	
31.0	187.6015966308173	pulse	1.0	t		27.0	female	white	4.181058495821727	smiling	039	sub-09	2.0	3.0	039_smiling	0.0		218.94583728637372	
32.0	188.26812434365456	face	0.0		145	23.0	male	white	2.6275368085953046	neutral	141	sub-09	2.0	3.0	141_neutral	0.0		219.61236499921097	1.2333232010737447
32.0	188.3015961176643	pulse	0.0	t		23.0	male	white	2.6275368085953046	neutral	141	sub-09	2.0	3.0	141_neutral	0.0		219.6458367732207	
32.0	189.0015651171757	pulse	0.0	t		23.0	male	white	2.6275368085953046	neutral	141	sub-09	2.0	3.0	141_neutral	0.0		220.3458057727321	
32.0	189.5014475447283	fix	1.0		443	23.0	male	white	2.6275368085953046	neutral	141	sub-09	2.0	3.0	141_neutral	0.0		220.8456882002847	3.7665744701466792
32.0	189.70155585023304	pulse	1.0	t		23.0	male	white	2.6275368085953046	neutral	141	sub-09	2.0	3.0	141_neutral	0.0		221.04579650578944	
32.0	190.40153179240497	pulse	1.0	t		23.0	male	white	2.6275368085953046	neutral	141	sub-09	2.0	3.0	141_neutral	0.0		221.74577244796137	
32.0	191.10151799764026	pulse	1.0	t		23.0	male	white	2.6275368085953046	neutral	141	sub-09	2.0	3.0	141_neutral	0.0		222.44575865319666	
32.0	191.80150178803706	pulse	1.0	t		23.0	male	white	2.6275368085953046	neutral	141	sub-09	2.0	3.0	141_neutral	0.0		223.14574244359346	
32.0	192.50150218044837	pulse	1.0	t		23.0	male	white	2.6275368085953046	neutral	141	sub-09	2.0	3.0	141_neutral	0.0		223.84574283600477	
32.0	193.2014711799593	pulse	1.0	t		23.0	male	white	2.6275368085953046	neutral	141	sub-09	2.0	3.0	141_neutral	0.0		224.5457118355157	
33.0	193.268022014875	face	0.0		146	22.0	male	black	2.767608436132113	smiling	044	sub-09	2.0	3.0	044_smiling	0.0		224.6122626704314	1.2333201825254037
33.0	193.90146704454855	pulse	0.0	t		22.0	male	black	2.767608436132113	smiling	044	sub-09	2.0	3.0	044_smiling	0.0		225.24570770010496	
33.0	194.5013421974004	fix	1.0		443	22.0	male	black	2.767608436132113	smiling	044	sub-09	2.0	3.0	044_smiling	0.0		225.8455828529568	3.7665756775659247
33.0	194.60144992938103	pulse	1.0	t		22.0	male	black	2.767608436132113	smiling	044	sub-09	2.0	3.0	044_smiling	0.0		225.94569058493744	
33.0	195.30143221050366	pulse	1.0	t		22.0	male	black	2.767608436132113	smiling	044	sub-09	2.0	3.0	044_smiling	0.0		226.64567286606007	
33.0	196.00141449162675	pulse	1.0	t		22.0	male	black	2.767608436132113	smiling	044	sub-09	2.0	3.0	044_smiling	0.0		227.34565514718315	
33.0	196.70140160242636	pulse	1.0	t		22.0	male	black	2.767608436132113	smiling	044	sub-09	2.0	3.0	044_smiling	0.0		228.04564225798276	
33.0	197.40139957999918	pulse	1.0	t		22.0	male	black	2.767608436132113	smiling	044	sub-09	2.0	3.0	044_smiling	0.0		228.74564023555558	
33.0	198.10137401289694	pulse	1.0	t		22.0	male	black	2.767608436132113	smiling	044	sub-09	2.0	3.0	044_smiling	0.0		229.44561466845335	
34.0	198.26791787496632	face	0.0		146	36.0	female	white	2.7548746518105847	neutral	011	sub-09	2.0	3.0	011_neutral	0.0		229.61215853052272	1.2333228992188197
34.0	198.80136565151906	pulse	0.0	t		36.0	female	white	2.7548746518105847	neutral	011	sub-09	2.0	3.0	011_neutral	0.0		230.14560630707547	
34.0	199.50124077418513	fix	1.0		444	36.0	female	white	2.7548746518105847	neutral	011	sub-09	2.0	3.0	011_neutral	0.0		230.84548142974154	3.766573564582359
34.0	199.50877718315724	pulse	1.0	t		36.0	female	white	2.7548746518105847	neutral	011	sub-09	2.0	3.0	011_neutral	0.0		230.85301783871364	
34.0	200.2013350434413	pulse	1.0	t		36.0	female	white	2.7548746518105847	neutral	011	sub-09	2.0	3.0	011_neutral	0.0		231.5455756989977	
34.0	200.90131460787097	pulse	1.0	t		36.0	female	white	2.7548746518105847	neutral	011	sub-09	2.0	3.0	011_neutral	0.0		232.24555526342738	
34.0	201.60130262423536	pulse	1.0	t		36.0	female	white	2.7548746518105847	neutral	011	sub-09	2.0	3.0	011_neutral	0.0		232.94554327979176	
34.0	202.30128641463216	pulse	1.0	t		36.0	female	white	2.7548746518105847	neutral	011	sub-09	2.0	3.0	011_neutral	0.0		233.64552707018856	
34.0	203.00127231801252	pulse	1.0	t		36.0	female	white	2.7548746518105847	neutral	011	sub-09	2.0	3.0	011_neutral	0.0		234.34551297356893	
35.0	203.2678143387675	face	0.0		145	26.0	female	white	4.854755272582572	neutral	027	sub-09	2.0	3.0	027_neutral	1.0	dominance	234.6120549943239	1.2333216917995742
35.0	203.70126637147268	pulse	0.0	t		26.0	female	white	4.854755272582572	neutral	027	sub-09	2.0	3.0	027_neutral	1.0	dominance	235.0455070270291	
35.0	204.40124653961175	pulse	0.0	t		26.0	female	white	4.854755272582572	neutral	027	sub-09	2.0	3.0	027_neutral	1.0	dominance	235.74548719516815	
35.0	204.50113603056707	fix	1.0		177	26.0	female	white	4.854755272582572	neutral	027	sub-09	2.0	3.0	027_neutral	1.0	dominance	235.84537668612347	1.4999551745609097
35.0	205.10123938565312	pulse	1.0	t		26.0	female	white	4.854755272582572	neutral	027	sub-09	2.0	3.0	027_neutral	1.0	dominance	236.44548004120952	
35.0	205.8012117055673	pulse	1.0	t		26.0	female	white	4.854755272582572	neutral	027	sub-09	2.0	3.0	027_neutral	1.0	dominance	237.14545236112372	
35.0	206.00109120512798	rating	2.0		295	26.0	female	white	4.854755272582572	neutral	027	sub-09	2.0	3.0	027_neutral	1.0	dominance	237.34533186068438	2.4999624190768373
35.0	206.49596254102562	pulse	2.0	t		26.0	female	white	4.854755272582572	neutral	027	sub-09	2.0	3.0	027_neutral	1.0	dominance	237.84020319658202	
35.0	207.19593214424685	pulse	2.0	t		26.0	female	white	4.854755272582572	neutral	027	sub-09	2.0	3.0	027_neutral	1.0	dominance	238.54017279980326	
35.0	207.51785274979147	response	2.0	b		26.0	female	white	4.854755272582572	neutral	027	sub-09	2.0	3.0	027_neutral	1.0	dominance	238.86209340534788	
35.0	207.90116518974128	pulse	2.0	t		26.0	female	white	4.854755272582572	neutral	027	sub-09	2.0	3.0	027_neutral	1.0	dominance	239.24540584529768	
35.0	208.50105362420481	fix	3.0		443	26.0	female	white	4.854755272582572	neutral	027	sub-09	2.0	3.0	027_neutral	1.0	dominance	239.84529427976122	3.766563301518545
35.0	208.60117614707087	pulse	3.0	t		26.0	female	white	4.854755272582572	neutral	027	sub-09	2.0	3.0	027_neutral	1.0	dominance	239.94541680262728	
35.0	209.301143939163	pulse	3.0	t		26.0	female	white	4.854755272582572	neutral	027	sub-09	2.0	3.0	027_neutral	1.0	dominance	240.64538459471942	
35.0	210.0011105238359	pulse	3.0	t		26.0	female	white	4.854755272582572	neutral	027	sub-09	2.0	3.0	027_neutral	1.0	dominance	241.3453511793923	
35.0	210.70111272737586	pulse	3.0	t		26.0	female	white	4.854755272582572	neutral	027	sub-09	2.0	3.0	027_neutral	1.0	dominance	242.04535338293226	
35.0	211.40109802704683	pulse	3.0	t		26.0	female	white	4.854755272582572	neutral	027	sub-09	2.0	3.0	027_neutral	1.0	dominance	242.74533868260323	
35.0	212.101125284536	pulse	3.0	t		26.0	female	white	4.854755272582572	neutral	027	sub-09	2.0	3.0	027_neutral	1.0	dominance	243.44536594009242	
36.0	212.26761692572336	face	0.0		146	20.0	male	black	3.1070433744528456	smiling	082	sub-09	2.0	3.0	082_smiling	0.0		243.61185758127976	1.2333201825258584
36.0	212.80108220985494	pulse	0.0	t		20.0	male	black	3.1070433744528456	smiling	082	sub-09	2.0	3.0	082_smiling	0.0		244.14532286541134	
36.0	213.50093710824922	fix	1.0		444	20.0	male	black	3.1070433744528456	smiling	082	sub-09	2.0	3.0	082_smiling	0.0		244.84517776380562	3.75828010375335
36.0	213.50840982585714	pulse	1.0	t		20.0	male	black	3.1070433744528456	smiling	082	sub-09	2.0	3.0	082_smiling	0.0		244.85265048141355	
36.0	214.20104526282648	pulse	1.0	t		20.0	male	black	3.1070433744528456	smiling	082	sub-09	2.0	3.0	082_smiling	0.0		245.5452859183829	
36.0	214.90102120499841	pulse	1.0	t		20.0	male	black	3.1070433744528456	smiling	082	sub-09	2.0	3.0	082_smiling	0.0		246.24526186055482	
36.0	215.60101012692712	pulse	1.0	t		20.0	male	black	3.1070433744528456	smiling	082	sub-09	2.0	3.0	082_smiling	0.0		246.94525078248353	
36.0	216.3009987470009	pulse	1.0	t		20.0	male	black	3.1070433744528456	smiling	082	sub-09	2.0	3.0	082_smiling	0.0		247.6452394025573	
36.0	217.0009792169949	pulse	1.0	t		20.0	male	black	3.1070433744528456	smiling	082	sub-09	2.0	3.0	082_smiling	0.0		248.3452198725513	
37.0	217.25921721200257	face	0.0		146	27.0	female	white	4.181058495821727	neutral	039	sub-09	2.0	3.0	039_neutral	0.0		248.60345786755897	1.2416287360947535
37.0	217.70097387416445	pulse	0.0	t		27.0	female	white	4.181058495821727	neutral	039	sub-09	2.0	3.0	039_neutral	0.0		249.04521452972085	
37.0	218.40095494786829	pulse	0.0	t		27.0	female	white	4.181058495821727	neutral	039	sub-09	2.0	3.0	039_neutral	0.0		249.7451956034247	
37.0	218.50084594809732	fix	1.0		444	27.0	female	white	4.181058495821727	neutral	039	sub-09	2.0	3.0	039_neutral	0.0		249.84508660365373	3.7665578681321676
37.0	219.1009426623773	pulse	1.0	t		27.0	female	white	4.181058495821727	neutral	039	sub-09	2.0	3.0	039_neutral	0.0		250.4451833179337	
37.0	219.80092192495204	pulse	1.0	t		27.0	female	white	4.181058495821727	neutral	039	sub-09	2.0	3.0	039_neutral	0.0		251.14516258050844	
37.0	220.50091024317135	pulse	1.0	t		27.0	female	white	4.181058495821727	neutral	039	sub-09	2.0	3.0	039_neutral	0.0		251.84515089872775	
37.0	221.2008952409874	pulse	1.0	t		27.0	female	white	4.181058495821727	neutral	039	sub-09	2.0	3.0	039_neutral	0.0		252.5451358965438	
37.0	221.90087782396495	pulse	1.0	t		27.0	female	white	4.181058495821727	neutral	039	sub-09	2.0	3.0	039_neutral	0.0		253.24511847952135	
38.0	222.2674038162295	face	0.0		145	27.0	male	black	3.5523278949462798	neutral	042	sub-09	2.0	3.0	042_neutral	0.0		253.6116444717859	1.2333376901046904
38.0	222.60087580153777	pulse	0.0	t		27.0	male	black	3.5523278949462798	neutral	042	sub-09	2.0	3.0	042_neutral	0.0		253.94511645709417	
38.0	223.3008484233069	pulse	0.0	t		27.0	male	black	3.5523278949462798	neutral	042	sub-09	2.0	3.0	042_neutral	0.0		254.6450890788633	
38.0	223.50074150633418	fix	1.0		444	27.0	male	black	3.5523278949462798	neutral	042	sub-09	2.0	3.0	042_neutral	0.0		254.84498216189058	3.7665720553081883
38.0	224.0008476082985	pulse	1.0	t		27.0	male	black	3.5523278949462798	neutral	042	sub-09	2.0	3.0	042_neutral	0.0		255.3450882638549	
38.0	224.70082294676104	pulse	1.0	t		27.0	male	black	3.5523278949462798	neutral	042	sub-09	2.0	3.0	042_neutral	0.0		256.04506360231744	
38.0	225.4008055297386	pulse	1.0	t		27.0	male	black	3.5523278949462798	neutral	042	sub-09	2.0	3.0	042_neutral	0.0		256.745046185295	
38.0	226.1007920368288	pulse	1.0	t		27.0	male	black	3.5523278949462798	neutral	042	sub-09	2.0	3.0	042_neutral	0.0		257.4450326923852	
38.0	226.80077612908053	pulse	1.0	t		27.0	male	black	3.5523278949462798	neutral	042	sub-09	2.0	3.0	042_neutral	0.0		258.14501678463694	
39.0	227.26731356164237	face	0.0		145	26.0	male	white	2.7966573816155993	neutral	117	sub-09	2.0	3.0	117_neutral	0.0		258.6115542171988	1.2333222955089695
39.0	227.50077380479843	pulse	0.0	t		26.0	male	white	2.7966573816155993	neutral	117	sub-09	2.0	3.0	117_neutral	0.0		258.84501446035483	
39.0	228.20074401172906	pulse	0.0	t		26.0	male	white	2.7966573816155993	neutral	117	sub-09	2.0	3.0	117_neutral	0.0		259.54498466728546	
39.0	228.50063585715134	fix	1.0		444	26.0	male	white	2.7966573816155993	neutral	117	sub-09	2.0	3.0	117_neutral	0.0		259.84487651270774	3.749924460834791
39.0	228.90075345978448	pulse	1.0	t		26.0	male	white	2.7966573816155993	neutral	117	sub-09	2.0	3.0	117_neutral	0.0		260.2449941153409	
39.0	229.6007209500217	pulse	1.0	t		26.0	male	white	2.7966573816155993	neutral	117	sub-09	2.0	3.0	117_neutral	0.0		260.9449616055781	
39.0	230.3006971940481	pulse	1.0	t		26.0	male	white	2.7966573816155993	neutral	117	sub-09	2.0	3.0	117_neutral	0.0		261.6449378496045	
39.0	231.00069456791152	pulse	1.0	t		26.0	male	white	2.7966573816155993	neutral	117	sub-09	2.0	3.0	117_neutral	0.0		262.3449352234679	
39.0	231.7006747360506	pulse	1.0	t		26.0	male	white	2.7966573816155993	neutral	117	sub-09	2.0	3.0	117_neutral	0.0		263.044915391607	
40.0	232.25056031798613	fix	0.0		720													263.59480097354253	5.999875032109685
40.0	232.40066214870512	pulse	0.0	t														263.7449028042615	
40.0	233.10064110942494	pulse	0.0	t														264.44488176498135	
40.0	233.8006288239344	pulse	0.0	t														265.1448694794908	
40.0	234.50062136812085	pulse	0.0	t														265.84486202367725	
40.0	235.20059972513081	pulse	0.0	t														266.5448403806872	
40.0	235.9005826099633	pulse	0.0	t														267.2448232655197	
40.0	236.60057515414974	pulse	0.0	t														267.94481580970614	
40.0	237.30056166123995	pulse	0.0	t														268.64480231679636	
40.0	238.00054816832971	pulse	0.0	t														269.3447888238861	
