trial_nr	onset	event_type	phase	response	nr_frames	face_age	face_sex	face_eth	attractiveness	expression	face_id	sub_id	ses	run	trial_type	catch	rating_type	onset_abs	duration
-1.0	0.0574749664265255	fix	0.0		714													23.66784712019944	5.96630364601333
-1.0	0.7073312382599397	pulse	0.0	t														24.317703392032854	
-1.0	1.407305369302776	pulse	0.0	t														25.01767752307569	
-1.0	2.1072970079239894	pulse	0.0	t														25.717669161696904	
-1.0	2.807275666789792	pulse	0.0	t														26.417647820562706	
-1.0	3.507264890573424	pulse	0.0	t														27.11763704434634	
-1.0	4.207242040163692	pulse	0.0	t														27.817614193936606	
-1.0	4.907233075076874	pulse	0.0	t														28.51760522884979	
-1.0	5.607215054344124	pulse	0.0	t														29.21758720811704	
0.0	6.023778612439855	face	0.0		144	32.0	male	white	2.389176283326701	neutral	092	sub-04	2.0	3.0	092_neutral	0.0		29.63415076621277	1.2332984489803493
0.0	6.307210617078454	pulse	0.0	t		32.0	male	white	2.389176283326701	neutral	092	sub-04	2.0	3.0	092_neutral	0.0		29.917582770851368	
0.0	7.007191087073807	pulse	0.0	t		32.0	male	white	2.389176283326701	neutral	092	sub-04	2.0	3.0	092_neutral	0.0		30.61756324084672	
0.0	7.257077061420205	fix	1.0		445	32.0	male	white	2.389176283326701	neutral	092	sub-04	2.0	3.0	092_neutral	0.0		30.86744921519312	3.758252936821009
0.0	7.707184838678586	pulse	1.0	t		32.0	male	white	2.389176283326701	neutral	092	sub-04	2.0	3.0	092_neutral	0.0		31.3175569924515	
0.0	8.407162591978704	pulse	1.0	t		32.0	male	white	2.389176283326701	neutral	092	sub-04	2.0	3.0	092_neutral	0.0		32.01753474575162	
0.0	9.10714909906892	pulse	1.0	t		32.0	male	white	2.389176283326701	neutral	092	sub-04	2.0	3.0	092_neutral	0.0		32.717521252841834	
0.0	9.807149793336066	pulse	1.0	t		32.0	male	white	2.389176283326701	neutral	092	sub-04	2.0	3.0	092_neutral	0.0		33.41752194710898	
0.0	10.507108227928256	pulse	1.0	t		32.0	male	white	2.389176283326701	neutral	092	sub-04	2.0	3.0	092_neutral	0.0		34.11748038170117	
1.0	11.015329998241214	face	0.0		146	27.0	male	black	3.5523278949462798	smiling	042	sub-04	2.0	3.0	042_smiling	0.0		34.62570215201413	1.241641715851074
1.0	11.207108620339568	pulse	0.0	t		27.0	male	black	3.5523278949462798	smiling	042	sub-04	2.0	3.0	042_smiling	0.0		34.81748077411248	
1.0	11.90708365694627	pulse	0.0	t		27.0	male	black	3.5523278949462798	smiling	042	sub-04	2.0	3.0	042_smiling	0.0		35.517455810719184	
1.0	12.256971714092288	fix	1.0		445	27.0	male	black	3.5523278949462798	smiling	042	sub-04	2.0	3.0	042_smiling	0.0		35.8673438678652	3.758253540530859
1.0	12.607084653067432	pulse	1.0	t		27.0	male	black	3.5523278949462798	smiling	042	sub-04	2.0	3.0	042_smiling	0.0		36.217456806840346	
1.0	13.307056972982537	pulse	1.0	t		27.0	male	black	3.5523278949462798	smiling	042	sub-04	2.0	3.0	042_smiling	0.0		36.91742912675545	
1.0	14.007041367089187	pulse	1.0	t		27.0	male	black	3.5523278949462798	smiling	042	sub-04	2.0	3.0	042_smiling	0.0		37.6174135208621	
1.0	14.707025157485987	pulse	1.0	t		27.0	male	black	3.5523278949462798	smiling	042	sub-04	2.0	3.0	042_smiling	0.0		38.3173973112589	
1.0	15.407007136753236	pulse	1.0	t		27.0	male	black	3.5523278949462798	smiling	042	sub-04	2.0	3.0	042_smiling	0.0		39.01737929052615	
2.0	16.015225254623147	face	0.0		146	24.0	female	east_asian	4.409868682849185	smiling	030	sub-04	2.0	3.0	030_smiling	0.0		39.62559740839606	1.2416411121412239
2.0	16.107009642148114	pulse	0.0	t		24.0	female	east_asian	4.409868682849185	smiling	030	sub-04	2.0	3.0	030_smiling	0.0		39.71738179592103	
2.0	16.806981056497534	pulse	0.0	t		24.0	female	east_asian	4.409868682849185	smiling	030	sub-04	2.0	3.0	030_smiling	0.0		40.41735321027045	
2.0	17.25686636676437	fix	1.0		445	24.0	female	east_asian	4.409868682849185	smiling	030	sub-04	2.0	3.0	030_smiling	0.0		40.867238520537285	3.7582493145637272
2.0	17.50697631737785	pulse	1.0	t		24.0	female	east_asian	4.409868682849185	smiling	030	sub-04	2.0	3.0	030_smiling	0.0		41.11734847115076	
2.0	18.206959202210783	pulse	1.0	t		24.0	female	east_asian	4.409868682849185	smiling	030	sub-04	2.0	3.0	030_smiling	0.0		41.8173313559837	
2.0	18.90694812413858	pulse	1.0	t		24.0	female	east_asian	4.409868682849185	smiling	030	sub-04	2.0	3.0	030_smiling	0.0		42.517320277911494	
2.0	19.60692255703725	pulse	1.0	t		24.0	female	east_asian	4.409868682849185	smiling	030	sub-04	2.0	3.0	030_smiling	0.0		43.217294710810165	
2.0	20.306904234450485	pulse	1.0	t		24.0	female	east_asian	4.409868682849185	smiling	030	sub-04	2.0	3.0	030_smiling	0.0		43.9172763882234	
3.0	21.015115681328098	face	0.0		147	31.0	female	west_asian	2.364902506963788	neutral	006	sub-04	2.0	3.0	006_neutral	0.0		44.62548783510101	1.2416462436722213
3.0	21.008247880752606	pulse	0.0	t		31.0	female	west_asian	2.364902506963788	neutral	006	sub-04	2.0	3.0	006_neutral	0.0		44.61862003452552	
3.0	21.706886606129046	pulse	0.0	t		31.0	female	west_asian	2.364902506963788	neutral	006	sub-04	2.0	3.0	006_neutral	0.0		45.31725875990196	
3.0	22.25676192500032	fix	1.0		444	31.0	female	west_asian	2.364902506963788	neutral	006	sub-04	2.0	3.0	006_neutral	0.0		45.86713407877323	3.766579601679041
3.0	22.406871905799562	pulse	1.0	t		31.0	female	west_asian	2.364902506963788	neutral	006	sub-04	2.0	3.0	006_neutral	0.0		46.01724405957248	
3.0	23.10685207393908	pulse	1.0	t		31.0	female	west_asian	2.364902506963788	neutral	006	sub-04	2.0	3.0	006_neutral	0.0		46.717224227711995	
3.0	23.806839184739147	pulse	1.0	t		31.0	female	west_asian	2.364902506963788	neutral	006	sub-04	2.0	3.0	006_neutral	0.0		47.41721133851206	
3.0	24.506819956586696	pulse	1.0	t		31.0	female	west_asian	2.364902506963788	neutral	006	sub-04	2.0	3.0	006_neutral	0.0		48.11719211035961	
3.0	25.206805558113047	pulse	1.0	t		31.0	female	west_asian	2.364902506963788	neutral	006	sub-04	2.0	3.0	006_neutral	0.0		48.81717771188596	
3.0	25.906802026411242	pulse	1.0	t		31.0	female	west_asian	2.364902506963788	neutral	006	sub-04	2.0	3.0	006_neutral	0.0		49.517174180184156	
4.0	26.02334152667936	face	0.0		146	27.0	female	white	3.504576203740549	neutral	144	sub-04	2.0	3.0	144_neutral	0.0		49.633713680452274	1.2333153528488765
4.0	26.606788533501458	pulse	0.0	t		27.0	female	white	3.504576203740549	neutral	144	sub-04	2.0	3.0	144_neutral	0.0		50.21716068727437	
4.0	27.256656879528236	fix	1.0		444	27.0	female	white	3.504576203740549	neutral	144	sub-04	2.0	3.0	144_neutral	0.0		50.86702903330115	3.7665919777246017
4.0	27.306782586962072	pulse	1.0	t		27.0	female	white	3.504576203740549	neutral	144	sub-04	2.0	3.0	144_neutral	0.0		50.917154740734986	
4.0	28.00675732171476	pulse	1.0	t		27.0	female	white	3.504576203740549	neutral	144	sub-04	2.0	3.0	144_neutral	0.0		51.61712947548767	
4.0	28.70673296203131	pulse	1.0	t		27.0	female	white	3.504576203740549	neutral	144	sub-04	2.0	3.0	144_neutral	0.0		52.317105115804225	
4.0	29.406720676541227	pulse	1.0	t		27.0	female	white	3.504576203740549	neutral	144	sub-04	2.0	3.0	144_neutral	0.0		53.01709283031414	
4.0	30.10670054282491	pulse	1.0	t		27.0	female	white	3.504576203740549	neutral	144	sub-04	2.0	3.0	144_neutral	0.0		53.717072696597825	
4.0	30.806688257334827	pulse	1.0	t		27.0	female	white	3.504576203740549	neutral	144	sub-04	2.0	3.0	144_neutral	0.0		54.41706041110774	
5.0	31.023248857252838	face	0.0		145	25.0	female	west_asian	2.6756864305610826	neutral	064	sub-04	2.0	3.0	064_neutral	1.0	attractiveness	54.63362101102575	1.2333026749474811
5.0	31.506684423779006	pulse	0.0	t		25.0	female	west_asian	2.6756864305610826	neutral	064	sub-04	2.0	3.0	064_neutral	1.0	attractiveness	55.11705657755192	
5.0	32.20665915853169	pulse	0.0	t		25.0	female	west_asian	2.6756864305610826	neutral	064	sub-04	2.0	3.0	064_neutral	1.0	attractiveness	55.81703131230461	
5.0	32.25655153220032	fix	1.0		177	25.0	female	west_asian	2.6756864305610826	neutral	064	sub-04	2.0	3.0	064_neutral	1.0	attractiveness	55.866923685973234	1.5083376825587038
5.0	32.90665653239557	pulse	1.0	t		25.0	female	west_asian	2.6756864305610826	neutral	064	sub-04	2.0	3.0	064_neutral	1.0	attractiveness	56.51702868616849	
5.0	33.60663066343841	pulse	1.0	t		25.0	female	west_asian	2.6756864305610826	neutral	064	sub-04	2.0	3.0	064_neutral	1.0	attractiveness	57.21700281721132	
5.0	33.76488921475902	rating	2.0		294	25.0	female	west_asian	2.6756864305610826	neutral	064	sub-04	2.0	3.0	064_neutral	1.0	attractiveness	57.37526136853194	2.4915799110785883
5.0	34.30139357308872	pulse	2.0	t		25.0	female	west_asian	2.6756864305610826	neutral	064	sub-04	2.0	3.0	064_neutral	1.0	attractiveness	57.91176572686163	
5.0	35.00137766534135	pulse	2.0	t		25.0	female	west_asian	2.6756864305610826	neutral	064	sub-04	2.0	3.0	064_neutral	1.0	attractiveness	58.611749819114266	
5.0	35.1097130538019	response	2.0	w		25.0	female	west_asian	2.6756864305610826	neutral	064	sub-04	2.0	3.0	064_neutral	1.0	attractiveness	58.72008520757481	
5.0	35.706585355032075	pulse	2.0	t		25.0	female	west_asian	2.6756864305610826	neutral	064	sub-04	2.0	3.0	064_neutral	1.0	attractiveness	59.31695750880499	
5.0	36.25646912583761	fix	3.0		443	25.0	female	west_asian	2.6756864305610826	neutral	064	sub-04	2.0	3.0	064_neutral	1.0	attractiveness	59.866841279610526	3.7665865443395887
5.0	36.406580314056555	pulse	3.0	t		25.0	female	west_asian	2.6756864305610826	neutral	064	sub-04	2.0	3.0	064_neutral	1.0	attractiveness	60.01695246782947	
5.0	37.10655595437311	pulse	3.0	t		25.0	female	west_asian	2.6756864305610826	neutral	064	sub-04	2.0	3.0	064_neutral	1.0	attractiveness	60.71692810814602	
5.0	37.806571439525214	pulse	3.0	t		25.0	female	west_asian	2.6756864305610826	neutral	064	sub-04	2.0	3.0	064_neutral	1.0	attractiveness	61.41694359329813	
5.0	38.5065362130681	pulse	3.0	t		25.0	female	west_asian	2.6756864305610826	neutral	064	sub-04	2.0	3.0	064_neutral	1.0	attractiveness	62.11690836684102	
5.0	39.2065224183043	pulse	3.0	t		25.0	female	west_asian	2.6756864305610826	neutral	064	sub-04	2.0	3.0	064_neutral	1.0	attractiveness	62.81689457207722	
5.0	39.90650137902412	pulse	3.0	t		25.0	female	west_asian	2.6756864305610826	neutral	064	sub-04	2.0	3.0	064_neutral	1.0	attractiveness	63.516873532797035	
6.0	40.0230556701772	face	0.0		146	26.0	female	white	4.854755272582572	neutral	027	sub-04	2.0	3.0	027_neutral	1.0	attractiveness	63.633427823950115	1.2333228992192744
6.0	40.60649573433875	pulse	0.0	t		26.0	female	white	4.854755272582572	neutral	027	sub-04	2.0	3.0	027_neutral	1.0	attractiveness	64.21686788811166	
6.0	41.256378569396475	fix	1.0		176	26.0	female	white	4.854755272582572	neutral	027	sub-04	2.0	3.0	027_neutral	1.0	attractiveness	64.86675072316939	1.4999560801243206
6.0	41.3065232936824	pulse	1.0	t		26.0	female	white	4.854755272582572	neutral	027	sub-04	2.0	3.0	027_neutral	1.0	attractiveness	64.91689544745532	
6.0	42.00645908916522	pulse	1.0	t		26.0	female	white	4.854755272582572	neutral	027	sub-04	2.0	3.0	027_neutral	1.0	attractiveness	65.61683124293813	
6.0	42.70644982222257	pulse	1.0	t		26.0	female	white	4.854755272582572	neutral	027	sub-04	2.0	3.0	027_neutral	1.0	attractiveness	66.31682197599548	
6.0	42.756334649520795	rating	2.0		295	26.0	female	white	4.854755272582572	neutral	027	sub-04	2.0	3.0	027_neutral	1.0	attractiveness	66.36670680329371	2.49994611891816
6.0	43.40119552615033	pulse	2.0	t		26.0	female	white	4.854755272582572	neutral	027	sub-04	2.0	3.0	027_neutral	1.0	attractiveness	67.01156767992325	
6.0	44.101171770176734	pulse	2.0	t		26.0	female	white	4.854755272582572	neutral	027	sub-04	2.0	3.0	027_neutral	1.0	attractiveness	67.71154392394965	
6.0	44.1647285072595	response	2.0	y		26.0	female	white	4.854755272582572	neutral	027	sub-04	2.0	3.0	027_neutral	1.0	attractiveness	67.77510066103241	
6.0	44.806396363735985	pulse	2.0	t		26.0	female	white	4.854755272582572	neutral	027	sub-04	2.0	3.0	027_neutral	1.0	attractiveness	68.4167685175089	
6.0	45.256280768438955	fix	3.0		444	26.0	female	white	4.854755272582572	neutral	027	sub-04	2.0	3.0	027_neutral	1.0	attractiveness	68.86665292221187	3.766572659016674
6.0	45.50638890792288	pulse	3.0	t		26.0	female	white	4.854755272582572	neutral	027	sub-04	2.0	3.0	027_neutral	1.0	attractiveness	69.1167610616958	
6.0	46.20637088719013	pulse	3.0	t		26.0	female	white	4.854755272582572	neutral	027	sub-04	2.0	3.0	027_neutral	1.0	attractiveness	69.81674304096305	
6.0	46.90635226274935	pulse	3.0	t		26.0	female	white	4.854755272582572	neutral	027	sub-04	2.0	3.0	027_neutral	1.0	attractiveness	70.51672441652227	
6.0	47.60634269395268	pulse	3.0	t		26.0	female	white	4.854755272582572	neutral	027	sub-04	2.0	3.0	027_neutral	1.0	attractiveness	71.2167148477256	
6.0	48.30632527692978	pulse	3.0	t		26.0	female	white	4.854755272582572	neutral	027	sub-04	2.0	3.0	027_neutral	1.0	attractiveness	71.9166974307027	
7.0	49.02285342745563	face	0.0		146	28.0	male	white	3.9076800636689217	neutral	033	sub-04	2.0	3.0	033_neutral	0.0		72.63322558122854	1.2333247103488247
7.0	49.00907435921545	pulse	0.0	t		28.0	male	white	3.9076800636689217	neutral	033	sub-04	2.0	3.0	033_neutral	0.0		72.61944651298836	
7.0	49.70630010223795	pulse	0.0	t		28.0	male	white	3.9076800636689217	neutral	033	sub-04	2.0	3.0	033_neutral	0.0		73.31667225601086	
7.0	50.256178137804454	fix	1.0		443	28.0	male	white	3.9076800636689217	neutral	033	sub-04	2.0	3.0	033_neutral	0.0		73.86655029157737	3.7665868461936043
7.0	50.40628117594133	pulse	1.0	t		28.0	male	white	3.9076800636689217	neutral	033	sub-04	2.0	3.0	033_neutral	0.0		74.01665332971425	
7.0	51.10626979601511	pulse	1.0	t		28.0	male	white	3.9076800636689217	neutral	033	sub-04	2.0	3.0	033_neutral	0.0		74.71664194978803	
7.0	51.80625177528418	pulse	1.0	t		28.0	male	white	3.9076800636689217	neutral	033	sub-04	2.0	3.0	033_neutral	0.0		75.4166239290571	
7.0	52.50624371576123	pulse	1.0	t		28.0	male	white	3.9076800636689217	neutral	033	sub-04	2.0	3.0	033_neutral	0.0		76.11661586953414	
7.0	53.20622509131863	pulse	1.0	t		28.0	male	white	3.9076800636689217	neutral	033	sub-04	2.0	3.0	033_neutral	0.0		76.81659724509154	
7.0	53.90621069284498	pulse	1.0	t		28.0	male	white	3.9076800636689217	neutral	033	sub-04	2.0	3.0	033_neutral	0.0		77.5165828466179	
8.0	54.02276498399806	face	0.0		146	22.0	male	black	2.767608436132113	smiling	044	sub-04	2.0	3.0	044_smiling	0.0		77.63313713777097	1.2333090138963598
8.0	54.60619810549906	pulse	0.0	t		22.0	male	black	2.767608436132113	smiling	044	sub-04	2.0	3.0	044_smiling	0.0		78.21657025927198	
8.0	55.25607399789442	fix	1.0		443	22.0	male	black	2.767608436132113	smiling	044	sub-04	2.0	3.0	044_smiling	0.0		78.86644615166733	3.766593185146121
8.0	55.30618642371883	pulse	1.0	t		22.0	male	black	2.767608436132113	smiling	044	sub-04	2.0	3.0	044_smiling	0.0		78.91655857749174	
8.0	56.00617021411563	pulse	1.0	t		22.0	male	black	2.767608436132113	smiling	044	sub-04	2.0	3.0	044_smiling	0.0		79.61654236788854	
8.0	56.706149778545296	pulse	1.0	t		22.0	male	black	2.767608436132113	smiling	044	sub-04	2.0	3.0	044_smiling	0.0		80.31652193231821	
8.0	57.40612692813556	pulse	1.0	t		22.0	male	black	2.767608436132113	smiling	044	sub-04	2.0	3.0	044_smiling	0.0		81.01649908190848	
8.0	58.10612249086989	pulse	1.0	t		22.0	male	black	2.767608436132113	smiling	044	sub-04	2.0	3.0	044_smiling	0.0		81.71649464464281	
8.0	58.806108696106094	pulse	1.0	t		22.0	male	black	2.767608436132113	smiling	044	sub-04	2.0	3.0	044_smiling	0.0		82.41648084987901	
9.0	59.02266718304054	face	0.0		145	47.0	male	east_asian	2.171110226820533	neutral	024	sub-04	2.0	3.0	024_neutral	0.0		82.63303933681345	1.233301467527781
9.0	59.5061130126287	pulse	0.0	t		47.0	male	east_asian	2.171110226820533	neutral	024	sub-04	2.0	3.0	024_neutral	0.0		83.11648516640162	
9.0	60.20608140843069	pulse	0.0	t		47.0	male	east_asian	2.171110226820533	neutral	024	sub-04	2.0	3.0	024_neutral	0.0		83.8164535622036	
9.0	60.25596865056832	fix	1.0		445	47.0	male	east_asian	2.171110226820533	neutral	024	sub-04	2.0	3.0	024_neutral	0.0		83.86634080434123	3.75825354052904
9.0	60.90606761366689	pulse	1.0	t		47.0	male	east_asian	2.171110226820533	neutral	024	sub-04	2.0	3.0	024_neutral	0.0		84.5164397674398	
9.0	61.60604114099988	pulse	1.0	t		47.0	male	east_asian	2.171110226820533	neutral	024	sub-04	2.0	3.0	024_neutral	0.0		85.21641329477279	
9.0	62.30602553510653	pulse	1.0	t		47.0	male	east_asian	2.171110226820533	neutral	024	sub-04	2.0	3.0	024_neutral	0.0		85.91639768887944	
9.0	63.00601928671131	pulse	1.0	t		47.0	male	east_asian	2.171110226820533	neutral	024	sub-04	2.0	3.0	024_neutral	0.0		86.61639144048422	
9.0	63.706000058560676	pulse	1.0	t		47.0	male	east_asian	2.171110226820533	neutral	024	sub-04	2.0	3.0	024_neutral	0.0		87.31637221233359	
10.0	64.01422219109736	face	0.0		146	26.0	female	white	4.854755272582572	smiling	027	sub-04	2.0	3.0	027_smiling	0.0		87.62459434487027	1.2416408102872083
10.0	64.40599501758516	pulse	0.0	t		26.0	female	white	4.854755272582572	smiling	027	sub-04	2.0	3.0	027_smiling	0.0		88.01636717135807	
10.0	65.10597095975754	pulse	0.0	t		26.0	female	white	4.854755272582572	smiling	027	sub-04	2.0	3.0	027_smiling	0.0		88.71634311353046	
10.0	65.25586300138457	fix	1.0		445	26.0	female	white	4.854755272582572	smiling	027	sub-04	2.0	3.0	027_smiling	0.0		88.86623515515748	3.76658835546732
10.0	65.8059671261999	pulse	1.0	t		26.0	female	white	4.854755272582572	smiling	027	sub-04	2.0	3.0	027_smiling	0.0		89.41633927997282	
10.0	66.505944577646	pulse	1.0	t		26.0	female	white	4.854755272582572	smiling	027	sub-04	2.0	3.0	027_smiling	0.0		90.11631673141892	
10.0	67.20592655691507	pulse	1.0	t		26.0	female	white	4.854755272582572	smiling	027	sub-04	2.0	3.0	027_smiling	0.0		90.81629871068799	
10.0	67.9059157806987	pulse	1.0	t		26.0	female	white	4.854755272582572	smiling	027	sub-04	2.0	3.0	027_smiling	0.0		91.51628793447162	
10.0	68.60589926923967	pulse	1.0	t		26.0	female	white	4.854755272582572	smiling	027	sub-04	2.0	3.0	027_smiling	0.0		92.21627142301259	
11.0	69.02245135685189	face	0.0		145	20.0	male	black	2.609629924393156	smiling	043	sub-04	2.0	3.0	043_smiling	0.0		92.6328235106248	1.2333078064784786
11.0	69.30589211528059	pulse	0.0	t		20.0	male	black	2.609629924393156	smiling	043	sub-04	2.0	3.0	043_smiling	0.0		92.9162642690535	
11.0	70.00586866116282	pulse	0.0	t		20.0	male	black	2.609629924393156	smiling	043	sub-04	2.0	3.0	043_smiling	0.0		93.61624081493574	
11.0	70.25575916333037	fix	1.0		445	20.0	male	black	2.609629924393156	smiling	043	sub-04	2.0	3.0	043_smiling	0.0		93.86613131710328	3.766587148049439
11.0	70.70586211091359	pulse	1.0	t		20.0	male	black	2.609629924393156	smiling	043	sub-04	2.0	3.0	043_smiling	0.0		94.3162342646865	
11.0	71.40584348647099	pulse	1.0	t		20.0	male	black	2.609629924393156	smiling	043	sub-04	2.0	3.0	043_smiling	0.0		95.0162156402439	
11.0	72.10584931226913	pulse	1.0	t		20.0	male	black	2.609629924393156	smiling	043	sub-04	2.0	3.0	043_smiling	0.0		95.71622146604204	
11.0	72.80581318024815	pulse	1.0	t		20.0	male	black	2.609629924393156	smiling	043	sub-04	2.0	3.0	043_smiling	0.0		96.41618533402107	
11.0	73.50580180032193	pulse	1.0	t		20.0	male	black	2.609629924393156	smiling	043	sub-04	2.0	3.0	043_smiling	0.0		97.11617395409485	
12.0	74.0223463113798	face	0.0		145	19.0	male	white	3.2522881018702745	smiling	018	sub-04	2.0	3.0	018_smiling	0.0		97.63271846515272	1.2333093157521944
12.0	74.20579072225155	pulse	0.0	t		19.0	male	white	3.2522881018702745	smiling	018	sub-04	2.0	3.0	018_smiling	0.0		97.81616287602446	
12.0	74.90576606071409	pulse	0.0	t		19.0	male	white	3.2522881018702745	smiling	018	sub-04	2.0	3.0	018_smiling	0.0		98.516138214487	
12.0	75.255655627132	fix	1.0		444	19.0	male	white	3.2522881018702745	smiling	018	sub-04	2.0	3.0	018_smiling	0.0		98.86602778090491	3.766593185144302
12.0	75.605758906755	pulse	1.0	t		19.0	male	white	3.2522881018702745	smiling	018	sub-04	2.0	3.0	018_smiling	0.0		99.21613106052791	
12.0	76.30576261956958	pulse	1.0	t		19.0	male	white	3.2522881018702745	smiling	018	sub-04	2.0	3.0	018_smiling	0.0		99.91613477334249	
12.0	77.00574369327296	pulse	1.0	t		19.0	male	white	3.2522881018702745	smiling	018	sub-04	2.0	3.0	018_smiling	0.0		100.61611584704588	
12.0	77.7057292947975	pulse	1.0	t		19.0	male	white	3.2522881018702745	smiling	018	sub-04	2.0	3.0	018_smiling	0.0		101.31610144857041	
12.0	78.40571972600083	pulse	1.0	t		19.0	male	white	3.2522881018702745	smiling	018	sub-04	2.0	3.0	018_smiling	0.0		102.01609187977374	
13.0	79.0222488122763	face	0.0		145	31.0	male	west_asian	1.9538400318344609	neutral	070	sub-04	2.0	3.0	070_neutral	0.0		102.63262096604922	1.2333011656737654
13.0	79.10568993293055	pulse	0.0	t		31.0	male	west_asian	1.9538400318344609	neutral	070	sub-04	2.0	3.0	070_neutral	0.0		102.71606208670346	
13.0	79.80566617695695	pulse	0.0	t		31.0	male	west_asian	1.9538400318344609	neutral	070	sub-04	2.0	3.0	070_neutral	0.0		103.41603833072986	
13.0	80.25554997795007	fix	1.0		444	31.0	male	west_asian	1.9538400318344609	neutral	070	sub-04	2.0	3.0	070_neutral	0.0		103.86592213172298	3.766582922080488
13.0	80.50567954912549	pulse	1.0	t		31.0	male	west_asian	1.9538400318344609	neutral	070	sub-04	2.0	3.0	070_neutral	0.0		104.1160517028984	
13.0	81.2056585098453	pulse	1.0	t		31.0	male	west_asian	1.9538400318344609	neutral	070	sub-04	2.0	3.0	070_neutral	0.0		104.81603066361822	
13.0	81.90564199838809	pulse	1.0	t		31.0	male	west_asian	1.9538400318344609	neutral	070	sub-04	2.0	3.0	070_neutral	0.0		105.516014152161	
13.0	82.60562186467178	pulse	1.0	t		31.0	male	west_asian	1.9538400318344609	neutral	070	sub-04	2.0	3.0	070_neutral	0.0		106.21599401844469	
13.0	83.30560927732586	pulse	1.0	t		31.0	male	west_asian	1.9538400318344609	neutral	070	sub-04	2.0	3.0	070_neutral	0.0		106.91598143109877	
14.0	84.02213290003056	face	0.0		145	34.0	male	white	2.651014723438122	neutral	121	sub-04	2.0	3.0	121_neutral	0.0		107.63250505380347	1.2333132398653106
14.0	84.00833149453501	pulse	0.0	t		34.0	male	white	2.651014723438122	neutral	121	sub-04	2.0	3.0	121_neutral	0.0		107.61870364830793	
14.0	84.70558561190956	pulse	0.0	t		34.0	male	white	2.651014723438122	neutral	121	sub-04	2.0	3.0	121_neutral	0.0		108.31595776568247	
14.0	85.25544613989587	fix	1.0		443	34.0	male	white	2.651014723438122	neutral	121	sub-04	2.0	3.0	121_neutral	0.0		108.86581829366878	3.7665859406297386
14.0	85.40557393012932	pulse	1.0	t		34.0	male	white	2.651014723438122	neutral	121	sub-04	2.0	3.0	121_neutral	0.0		109.01594608390224	
14.0	86.10555560754256	pulse	1.0	t		34.0	male	white	2.651014723438122	neutral	121	sub-04	2.0	3.0	121_neutral	0.0		109.71592776131547	
14.0	86.80551524955445	pulse	1.0	t		34.0	male	white	2.651014723438122	neutral	121	sub-04	2.0	3.0	121_neutral	0.0		110.41588740332736	
14.0	87.50549994551511	pulse	1.0	t		34.0	male	white	2.651014723438122	neutral	121	sub-04	2.0	3.0	121_neutral	0.0		111.11587209928803	
14.0	88.2054909804283	pulse	1.0	t		34.0	male	white	2.651014723438122	neutral	121	sub-04	2.0	3.0	121_neutral	0.0		111.81586313420121	
14.0	88.9054977117903	pulse	1.0	t		34.0	male	white	2.651014723438122	neutral	121	sub-04	2.0	3.0	121_neutral	0.0		112.51586986556322	
15.0	89.0220320805256	face	0.0		146	28.0	male	white	3.9076800636689217	smiling	033	sub-04	2.0	3.0	033_smiling	0.0		112.63240423429852	1.233307504624463
15.0	89.60548965226735	pulse	0.0	t		28.0	male	white	3.9076800636689217	smiling	033	sub-04	2.0	3.0	033_smiling	0.0		113.21586180604027	
15.0	90.25533958515007	fix	1.0		443	28.0	male	white	3.9076800636689217	smiling	033	sub-04	2.0	3.0	033_smiling	0.0		113.86571173892298	3.7665874499016354
15.0	90.30544627572999	pulse	1.0	t		28.0	male	white	3.9076800636689217	smiling	033	sub-04	2.0	3.0	033_smiling	0.0		113.9158184295029	
15.0	91.00543731064317	pulse	1.0	t		28.0	male	white	3.9076800636689217	smiling	033	sub-04	2.0	3.0	033_smiling	0.0		114.61580946441609	
15.0	91.70541385652359	pulse	1.0	t		28.0	male	white	3.9076800636689217	smiling	033	sub-04	2.0	3.0	033_smiling	0.0		115.3157860102965	
15.0	92.40539945804994	pulse	1.0	t		28.0	male	white	3.9076800636689217	smiling	033	sub-04	2.0	3.0	033_smiling	0.0		116.01577161182286	
15.0	93.10539019110729	pulse	1.0	t		28.0	male	white	3.9076800636689217	smiling	033	sub-04	2.0	3.0	033_smiling	0.0		116.7157623448802	
15.0	93.80537005739279	pulse	1.0	t		28.0	male	white	3.9076800636689217	smiling	033	sub-04	2.0	3.0	033_smiling	0.0		117.4157422111657	
16.0	94.0219270350517	face	0.0		145	22.0	female	white	4.614007162753682	smiling	009	sub-04	2.0	3.0	009_smiling	0.0		117.63229918882462	1.2333072027704475
16.0	94.50538554254308	pulse	0.0	t		22.0	female	white	4.614007162753682	smiling	009	sub-04	2.0	3.0	009_smiling	0.0		118.115757696316	
16.0	95.20535997544175	pulse	0.0	t		22.0	female	white	4.614007162753682	smiling	009	sub-04	2.0	3.0	009_smiling	0.0		118.81573212921467	
16.0	95.25523423782215	fix	1.0		445	22.0	female	white	4.614007162753682	smiling	009	sub-04	2.0	3.0	009_smiling	0.0		118.86560639159507	3.7665675274856767
16.0	95.90533923801559	pulse	1.0	t		22.0	female	white	4.614007162753682	smiling	009	sub-04	2.0	3.0	009_smiling	0.0		119.5157113917885	
16.0	96.60530914309129	pulse	1.0	t		22.0	female	white	4.614007162753682	smiling	009	sub-04	2.0	3.0	009_smiling	0.0		120.2156812968642	
16.0	97.30529474461764	pulse	1.0	t		22.0	female	white	4.614007162753682	smiling	009	sub-04	2.0	3.0	009_smiling	0.0		120.91566689839055	
16.0	98.00530026855995	pulse	1.0	t		22.0	female	white	4.614007162753682	smiling	009	sub-04	2.0	3.0	009_smiling	0.0		121.61567242233286	
16.0	98.70528919048957	pulse	1.0	t		22.0	female	white	4.614007162753682	smiling	009	sub-04	2.0	3.0	009_smiling	0.0		122.31566134426248	
17.0	99.02180176530783	face	0.0		145	23.0	male	white	2.6275368085953046	neutral	141	sub-04	2.0	3.0	141_neutral	0.0		122.63217391908074	1.2333316530075535
17.0	99.40528414951405	pulse	0.0	t		23.0	male	white	2.6275368085953046	neutral	141	sub-04	2.0	3.0	141_neutral	0.0		123.01565630328696	
17.0	100.10523865999494	pulse	0.0	t		23.0	male	white	2.6275368085953046	neutral	141	sub-04	2.0	3.0	141_neutral	0.0		123.71561081376785	
17.0	100.25513341831538	fix	1.0		444	23.0	male	white	2.6275368085953046	neutral	141	sub-04	2.0	3.0	141_neutral	0.0		123.8655055720883	3.7665847332100384
17.0	100.80523392087343	pulse	1.0	t		23.0	male	white	2.6275368085953046	neutral	141	sub-04	2.0	3.0	141_neutral	0.0		124.41560607464635	
17.0	101.50521167417537	pulse	1.0	t		23.0	male	white	2.6275368085953046	neutral	141	sub-04	2.0	3.0	141_neutral	0.0		125.11558382794829	
17.0	102.20520210537688	pulse	1.0	t		23.0	male	white	2.6275368085953046	neutral	141	sub-04	2.0	3.0	141_neutral	0.0		125.8155742591498	
17.0	102.90518257537042	pulse	1.0	t		23.0	male	white	2.6275368085953046	neutral	141	sub-04	2.0	3.0	141_neutral	0.0		126.51555472914333	
17.0	103.59702564347208	pulse	1.0	t		23.0	male	white	2.6275368085953046	neutral	141	sub-04	2.0	3.0	141_neutral	0.0		127.207397797245	
18.0	104.02171815152542	face	0.0		145	31.0	female	white	2.1822522881018704	smiling	102	sub-04	2.0	3.0	102_smiling	0.0		127.63209030529833	1.2333207862357085
18.0	104.30516223035738	pulse	0.0	t		31.0	female	white	2.1822522881018704	smiling	102	sub-04	2.0	3.0	102_smiling	0.0		127.9155343841303	
18.0	105.00513455027067	pulse	0.0	t		31.0	female	white	2.1822522881018704	smiling	102	sub-04	2.0	3.0	102_smiling	0.0		128.61550670404358	
18.0	105.25503893776113	fix	1.0		444	31.0	female	white	2.1822522881018704	smiling	102	sub-04	2.0	3.0	102_smiling	0.0		128.86541109153404	3.7665539440204157
18.0	105.69699271111313	pulse	1.0	t		31.0	female	white	2.1822522881018704	smiling	102	sub-04	2.0	3.0	102_smiling	0.0		129.30736486488604	
18.0	106.39697076626726	pulse	1.0	t		31.0	female	white	2.1822522881018704	smiling	102	sub-04	2.0	3.0	102_smiling	0.0		130.00734292004017	
18.0	107.09695123626261	pulse	1.0	t		31.0	female	white	2.1822522881018704	smiling	102	sub-04	2.0	3.0	102_smiling	0.0		130.70732339003553	
18.0	107.79694921383452	pulse	1.0	t		31.0	female	white	2.1822522881018704	smiling	102	sub-04	2.0	3.0	102_smiling	0.0		131.40732136760744	
18.0	108.49692304302334	pulse	1.0	t		31.0	female	white	2.1822522881018704	smiling	102	sub-04	2.0	3.0	102_smiling	0.0		132.10729519679626	
19.0	109.02159288178154	face	0.0		145	40.0	male	black	2.408674890569041	smiling	061	sub-04	2.0	3.0	061_smiling	0.0		132.63196503555446	1.2333298418780032
19.0	109.20505993176266	pulse	0.0	t		40.0	male	black	2.408674890569041	smiling	061	sub-04	2.0	3.0	061_smiling	0.0		132.81543208553558	
19.0	109.90503496837118	pulse	0.0	t		40.0	male	black	2.408674890569041	smiling	061	sub-04	2.0	3.0	061_smiling	0.0		133.5154071221441	
19.0	110.25492272365955	fix	1.0		444	40.0	male	black	2.408674890569041	smiling	061	sub-04	2.0	3.0	061_smiling	0.0		133.86529487743246	3.7665934870001365
19.0	110.59688407356771	pulse	1.0	t		40.0	male	black	2.408674890569041	smiling	061	sub-04	2.0	3.0	061_smiling	0.0		134.20725622734062	
19.0	111.29688084371992	pulse	1.0	t		40.0	male	black	2.408674890569041	smiling	061	sub-04	2.0	3.0	061_smiling	0.0		134.90725299749283	
19.0	111.99687338790682	pulse	1.0	t		40.0	male	black	2.408674890569041	smiling	061	sub-04	2.0	3.0	061_smiling	0.0		135.60724554167973	
19.0	112.69684902822337	pulse	1.0	t		40.0	male	black	2.408674890569041	smiling	061	sub-04	2.0	3.0	061_smiling	0.0		136.30722118199628	
19.0	113.39681682031551	pulse	1.0	t		40.0	male	black	2.408674890569041	smiling	061	sub-04	2.0	3.0	061_smiling	0.0		137.00718897408842	
20.0	114.02151621065968	face	0.0		145	21.0	male	east_asian/white	3.501790688420215	neutral	036	sub-04	2.0	3.0	036_neutral	0.0		137.6318883644326	1.2333017693817965
20.0	114.10495793502378	pulse	0.0	t		21.0	male	east_asian/white	3.501790688420215	neutral	036	sub-04	2.0	3.0	036_neutral	0.0		137.7153300887967	
20.0	114.79673580248527	pulse	0.0	t		21.0	male	east_asian/white	3.501790688420215	neutral	036	sub-04	2.0	3.0	036_neutral	0.0		138.4071079562582	
20.0	115.25481798004148	fix	1.0		1185	21.0	male	east_asian/white	3.501790688420215	neutral	036	sub-04	2.0	3.0	036_neutral	0.0		138.8651901338144	10.016458331510876
20.0	115.49678509537625	pulse	1.0	t		21.0	male	east_asian/white	3.501790688420215	neutral	036	sub-04	2.0	3.0	036_neutral	0.0		139.10715724914917	
20.0	116.19676798020919	pulse	1.0	t		21.0	male	east_asian/white	3.501790688420215	neutral	036	sub-04	2.0	3.0	036_neutral	0.0		139.8071401339821	
20.0	116.89675237431402	pulse	1.0	t		21.0	male	east_asian/white	3.501790688420215	neutral	036	sub-04	2.0	3.0	036_neutral	0.0		140.50712452808693	
20.0	117.59673103317982	pulse	1.0	t		21.0	male	east_asian/white	3.501790688420215	neutral	036	sub-04	2.0	3.0	036_neutral	0.0		141.20710318695274	
20.0	118.2967208606733	pulse	1.0	t		21.0	male	east_asian/white	3.501790688420215	neutral	036	sub-04	2.0	3.0	036_neutral	0.0		141.90709301444622	
20.0	118.9967085751814	pulse	1.0	t		21.0	male	east_asian/white	3.501790688420215	neutral	036	sub-04	2.0	3.0	036_neutral	0.0		142.60708072895432	
20.0	119.69669779896503	pulse	1.0	t		21.0	male	east_asian/white	3.501790688420215	neutral	036	sub-04	2.0	3.0	036_neutral	0.0		143.30706995273795	
20.0	120.39668219307168	pulse	1.0	t		21.0	male	east_asian/white	3.501790688420215	neutral	036	sub-04	2.0	3.0	036_neutral	0.0		144.0070543468446	
20.0	121.09666688903417	pulse	1.0	t		21.0	male	east_asian/white	3.501790688420215	neutral	036	sub-04	2.0	3.0	036_neutral	0.0		144.70703904280708	
20.0	121.7966449441883	pulse	1.0	t		21.0	male	east_asian/white	3.501790688420215	neutral	036	sub-04	2.0	3.0	036_neutral	0.0		145.40701709796122	
20.0	122.49663024386064	pulse	1.0	t		21.0	male	east_asian/white	3.501790688420215	neutral	036	sub-04	2.0	3.0	036_neutral	0.0		146.10700239763355	
20.0	123.19661916578843	pulse	1.0	t		21.0	male	east_asian/white	3.501790688420215	neutral	036	sub-04	2.0	3.0	036_neutral	0.0		146.80699131956135	
20.0	123.89659963578197	pulse	1.0	t		21.0	male	east_asian/white	3.501790688420215	neutral	036	sub-04	2.0	3.0	036_neutral	0.0		147.50697178955488	
20.0	124.59658161505104	pulse	1.0	t		21.0	male	east_asian/white	3.501790688420215	neutral	036	sub-04	2.0	3.0	036_neutral	0.0		148.20695376882395	
21.0	125.27127631155236	face	0.0		145	28.0	female	white	5.676880222841227	smiling	124	sub-04	2.0	3.0	124_smiling	0.0		148.88164846532527	1.2333081083324942
21.0	125.29655152012674	pulse	0.0	t		28.0	female	white	5.676880222841227	smiling	124	sub-04	2.0	3.0	124_smiling	0.0		148.90692367389966	
21.0	125.99652384004003	pulse	0.0	t		28.0	female	white	5.676880222841227	smiling	124	sub-04	2.0	3.0	124_smiling	0.0		149.60689599381294	
21.0	126.50458441988485	fix	1.0		443	28.0	female	white	5.676880222841227	smiling	124	sub-04	2.0	3.0	124_smiling	0.0		150.11495657365776	3.7665853369198885
21.0	126.69655864390006	pulse	1.0	t		28.0	female	white	5.676880222841227	smiling	124	sub-04	2.0	3.0	124_smiling	0.0		150.30693079767298	
21.0	127.39652885082978	pulse	1.0	t		28.0	female	white	5.676880222841227	smiling	124	sub-04	2.0	3.0	124_smiling	0.0		151.0069010046027	
21.0	128.09651958388713	pulse	1.0	t		28.0	female	white	5.676880222841227	smiling	124	sub-04	2.0	3.0	124_smiling	0.0		151.70689173766004	
21.0	128.79650216686423	pulse	1.0	t		28.0	female	white	5.676880222841227	smiling	124	sub-04	2.0	3.0	124_smiling	0.0		152.40687432063714	
21.0	129.49648595726103	pulse	1.0	t		28.0	female	white	5.676880222841227	smiling	124	sub-04	2.0	3.0	124_smiling	0.0		153.10685811103394	
21.0	130.1964694458038	pulse	1.0	t		28.0	female	white	5.676880222841227	smiling	124	sub-04	2.0	3.0	124_smiling	0.0		153.80684159957673	
22.0	130.27116975680474	face	0.0		146	20.0	male	black	2.609629924393156	neutral	043	sub-04	2.0	3.0	043_neutral	0.0		153.88154191057765	1.2333120324456104
22.0	130.8964164099143	pulse	0.0	t		20.0	male	black	2.609629924393156	neutral	043	sub-04	2.0	3.0	043_neutral	0.0		154.50678856368722	
22.0	131.50448178925035	fix	1.0		443	20.0	male	black	2.609629924393156	neutral	043	sub-04	2.0	3.0	043_neutral	0.0		155.11485394302326	3.766582922082307
22.0	131.59644517667766	pulse	1.0	t		20.0	male	black	2.609629924393156	neutral	043	sub-04	2.0	3.0	043_neutral	0.0		155.20681733045058	
22.0	132.29642262812376	pulse	1.0	t		20.0	male	black	2.609629924393156	neutral	043	sub-04	2.0	3.0	043_neutral	0.0		155.90679478189668	
22.0	132.99642000198583	pulse	1.0	t		20.0	male	black	2.609629924393156	neutral	043	sub-04	2.0	3.0	043_neutral	0.0		156.60679215575874	
22.0	133.69640439609248	pulse	1.0	t		20.0	male	black	2.609629924393156	neutral	043	sub-04	2.0	3.0	043_neutral	0.0		157.3067765498654	
22.0	134.39637399931416	pulse	1.0	t		20.0	male	black	2.609629924393156	neutral	043	sub-04	2.0	3.0	043_neutral	0.0		158.00674615308708	
22.0	135.0963683546288	pulse	1.0	t		20.0	male	black	2.609629924393156	neutral	043	sub-04	2.0	3.0	043_neutral	0.0		158.7067405084017	
23.0	135.27106471133266	face	0.0		146	19.0	female	white	4.298846000795861	smiling	100	sub-04	2.0	3.0	100_smiling	0.0		158.88143686510557	1.2333108250259102
23.0	135.79630565938533	pulse	0.0	t		19.0	female	white	4.298846000795861	smiling	100	sub-04	2.0	3.0	100_smiling	0.0		159.40667781315824	
23.0	136.50437553635857	fix	1.0		444	19.0	female	white	4.298846000795861	smiling	100	sub-04	2.0	3.0	100_smiling	0.0		160.11474769013148	3.766586242483754
23.0	136.49638604331994	pulse	1.0	t		19.0	female	white	4.298846000795861	smiling	100	sub-04	2.0	3.0	100_smiling	0.0		160.10675819709286	
23.0	137.19633059259286	pulse	1.0	t		19.0	female	white	4.298846000795861	smiling	100	sub-04	2.0	3.0	100_smiling	0.0		160.80670274636577	
23.0	137.8963201182305	pulse	1.0	t		19.0	female	white	4.298846000795861	smiling	100	sub-04	2.0	3.0	100_smiling	0.0		161.50669227200342	
23.0	138.5963039086273	pulse	1.0	t		19.0	female	white	4.298846000795861	smiling	100	sub-04	2.0	3.0	100_smiling	0.0		162.20667606240022	
23.0	139.2962849823307	pulse	1.0	t		19.0	female	white	4.298846000795861	smiling	100	sub-04	2.0	3.0	100_smiling	0.0		162.9066571361036	
23.0	139.99626907458332	pulse	1.0	t		19.0	female	white	4.298846000795861	smiling	100	sub-04	2.0	3.0	100_smiling	0.0		163.60664122835624	
24.0	140.27096177884232	face	0.0		145	19.0	male	white	2.243931555909272	neutral	130	sub-04	2.0	3.0	130_neutral	0.0		163.88133393261523	1.2333084101883287
24.0	140.69620607748402	pulse	0.0	t		19.0	male	white	2.243931555909272	neutral	130	sub-04	2.0	3.0	130_neutral	0.0		164.30657823125694	
24.0	141.39617990667284	pulse	0.0	t		19.0	male	white	2.243931555909272	neutral	130	sub-04	2.0	3.0	130_neutral	0.0		165.00655206044576	
24.0	141.50427018903065	fix	1.0		444	19.0	male	white	2.243931555909272	neutral	130	sub-04	2.0	3.0	130_neutral	0.0		165.11464234280356	3.758344096971996
24.0	142.0962301051277	pulse	1.0	t		19.0	male	white	2.243931555909272	neutral	130	sub-04	2.0	3.0	130_neutral	0.0		165.7066022589006	
24.0	142.79606176070047	pulse	1.0	t		19.0	male	white	2.243931555909272	neutral	130	sub-04	2.0	3.0	130_neutral	0.0		166.40643391447338	
24.0	143.49603408061557	pulse	1.0	t		19.0	male	white	2.243931555909272	neutral	130	sub-04	2.0	3.0	130_neutral	0.0		167.1064062343885	
24.0	144.1960145506091	pulse	1.0	t		19.0	male	white	2.243931555909272	neutral	130	sub-04	2.0	3.0	130_neutral	0.0		167.80638670438202	
24.0	144.89598264455708	pulse	1.0	t		19.0	male	white	2.243931555909272	neutral	130	sub-04	2.0	3.0	130_neutral	0.0		168.50635479833	
25.0	145.26261428600264	face	0.0		146	40.0	female	west_asian	1.5777954635893354	smiling	038	sub-04	2.0	3.0	038_smiling	0.0		168.87298643977556	1.2415508575559215
25.0	145.59600688349747	pulse	0.0	t		40.0	female	west_asian	1.5777954635893354	smiling	038	sub-04	2.0	3.0	038_smiling	0.0		169.20637903727038	
25.0	146.2959656199455	pulse	0.0	t		40.0	female	west_asian	1.5777954635893354	smiling	038	sub-04	2.0	3.0	038_smiling	0.0		169.9063377737184	
25.0	146.50416514355857	fix	1.0		444	40.0	female	west_asian	1.5777954635893354	smiling	038	sub-04	2.0	3.0	038_smiling	0.0		170.11453729733148	3.76658835546732
25.0	146.9959279786508	pulse	1.0	t		40.0	female	west_asian	1.5777954635893354	smiling	038	sub-04	2.0	3.0	038_smiling	0.0		170.6063001324237	
25.0	147.69592142840156	pulse	1.0	t		40.0	female	west_asian	1.5777954635893354	smiling	038	sub-04	2.0	3.0	038_smiling	0.0		171.30629358217448	
25.0	148.3958904279134	pulse	1.0	t		40.0	female	west_asian	1.5777954635893354	smiling	038	sub-04	2.0	3.0	038_smiling	0.0		172.00626258168631	
25.0	149.09588599064773	pulse	1.0	t		40.0	female	west_asian	1.5777954635893354	smiling	038	sub-04	2.0	3.0	038_smiling	0.0		172.70625814442064	
25.0	149.7958718940281	pulse	1.0	t		40.0	female	west_asian	1.5777954635893354	smiling	038	sub-04	2.0	3.0	038_smiling	0.0		173.406244047801	
26.0	150.2707534990259	face	0.0		145	24.0	female	black	3.0955033824114606	neutral	099	sub-04	2.0	3.0	099_neutral	0.0		173.8811256527988	1.2333090138981788
26.0	150.49585991039203	pulse	0.0	t		24.0	female	black	3.0955033824114606	neutral	099	sub-04	2.0	3.0	099_neutral	0.0		174.10623206416494	
26.0	151.19584551191656	pulse	0.0	t		24.0	female	black	3.0955033824114606	neutral	099	sub-04	2.0	3.0	099_neutral	0.0		174.80621766568947	
26.0	151.50406251292407	fix	1.0		444	24.0	female	black	3.0955033824114606	neutral	099	sub-04	2.0	3.0	099_neutral	0.0		175.11443466669698	3.7665859406279196
26.0	151.89590023819437	pulse	1.0	t		24.0	female	black	3.0955033824114606	neutral	099	sub-04	2.0	3.0	099_neutral	0.0		175.5062723919673	
26.0	152.5958656154471	pulse	1.0	t		24.0	female	black	3.0955033824114606	neutral	099	sub-04	2.0	3.0	099_neutral	0.0		176.20623776922002	
26.0	153.29585997076174	pulse	1.0	t		24.0	female	black	3.0955033824114606	neutral	099	sub-04	2.0	3.0	099_neutral	0.0		176.90623212453465	
26.0	153.99584164817497	pulse	1.0	t		24.0	female	black	3.0955033824114606	neutral	099	sub-04	2.0	3.0	099_neutral	0.0		177.6062138019479	
26.0	154.69582966454072	pulse	1.0	t		24.0	female	black	3.0955033824114606	neutral	099	sub-04	2.0	3.0	099_neutral	0.0		178.30620181831364	
27.0	155.27064845355198	face	0.0		145	32.0	male	white	2.389176283326701	smiling	092	sub-04	2.0	3.0	092_smiling	0.0		178.8810206073249	1.2333153528488765
27.0	155.39584333856328	pulse	0.0	t		32.0	male	white	2.389176283326701	smiling	092	sub-04	2.0	3.0	092_smiling	0.0		179.0062154923362	
27.0	156.1040725948733	pulse	0.0	t		32.0	male	white	2.389176283326701	smiling	092	sub-04	2.0	3.0	092_smiling	0.0		179.7144447486462	
27.0	156.50396380640086	fix	1.0		444	32.0	male	white	2.389176283326701	smiling	092	sub-04	2.0	3.0	092_smiling	0.0		180.11433596017378	3.766579601679041
27.0	156.79580518411603	pulse	1.0	t		32.0	male	white	2.389176283326701	smiling	092	sub-04	2.0	3.0	092_smiling	0.0		180.40617733788895	
27.0	157.50403836453916	pulse	1.0	t		32.0	male	white	2.389176283326701	smiling	092	sub-04	2.0	3.0	092_smiling	0.0		181.11441051831207	
27.0	158.19576129442612	pulse	1.0	t		32.0	male	white	2.389176283326701	smiling	092	sub-04	2.0	3.0	092_smiling	0.0		181.80613344819903	
27.0	158.89576108312758	pulse	1.0	t		32.0	male	white	2.389176283326701	smiling	092	sub-04	2.0	3.0	092_smiling	0.0		182.5061332369005	
27.0	159.60399999879337	pulse	1.0	t		32.0	male	white	2.389176283326701	smiling	092	sub-04	2.0	3.0	092_smiling	0.0		183.21437215256628	
28.0	160.2705434080799	face	0.0		145	21.0	male	east_asian/white	3.501790688420215	smiling	036	sub-04	2.0	3.0	036_smiling	0.0		183.88091556185282	1.2333111268817447
28.0	160.29575341601594	pulse	0.0	t		21.0	male	east_asian/white	3.501790688420215	smiling	036	sub-04	2.0	3.0	036_smiling	0.0		183.90612556978886	
28.0	160.99569796528704	pulse	0.0	t		21.0	male	east_asian/white	3.501790688420215	smiling	036	sub-04	2.0	3.0	036_smiling	0.0		184.60607011905995	
28.0	161.50385453496165	fix	1.0		443	21.0	male	east_asian/white	3.501790688420215	smiling	036	sub-04	2.0	3.0	036_smiling	0.0		185.11422668873456	3.766586242483754
28.0	161.7039619349016	pulse	1.0	t		21.0	male	east_asian/white	3.501790688420215	smiling	036	sub-04	2.0	3.0	036_smiling	0.0		185.3143340886745	
28.0	162.40393365110685	pulse	1.0	t		21.0	male	east_asian/white	3.501790688420215	smiling	036	sub-04	2.0	3.0	036_smiling	0.0		186.01430580487977	
28.0	163.09562941406148	pulse	1.0	t		21.0	male	east_asian/white	3.501790688420215	smiling	036	sub-04	2.0	3.0	036_smiling	0.0		186.7060015678344	
28.0	163.7956122988926	pulse	1.0	t		21.0	male	east_asian/white	3.501790688420215	smiling	036	sub-04	2.0	3.0	036_smiling	0.0		187.4059844526655	
28.0	164.50389105939212	pulse	1.0	t		21.0	male	east_asian/white	3.501790688420215	smiling	036	sub-04	2.0	3.0	036_smiling	0.0		188.11426321316503	
28.0	165.20387635906445	pulse	1.0	t		21.0	male	east_asian/white	3.501790688420215	smiling	036	sub-04	2.0	3.0	036_smiling	0.0		188.81424851283737	
29.0	165.2704407774454	face	0.0		146	22.0	female	white	4.614007162753682	neutral	009	sub-04	2.0	3.0	009_neutral	1.0	dominance	188.88081293121832	1.2333059953489283
29.0	165.90387916631335	pulse	0.0	t		22.0	female	white	4.614007162753682	neutral	009	sub-04	2.0	3.0	009_neutral	1.0	dominance	189.51425132008626	
29.0	166.50374677279433	fix	1.0		177	22.0	female	white	4.614007162753682	neutral	009	sub-04	2.0	3.0	009_neutral	1.0	dominance	190.11411892656724	1.4999723802866356
29.0	166.6038572214693	pulse	1.0	t		22.0	female	white	4.614007162753682	neutral	009	sub-04	2.0	3.0	009_neutral	1.0	dominance	190.2142293752422	
29.0	167.30383105065812	pulse	1.0	t		22.0	female	white	4.614007162753682	neutral	009	sub-04	2.0	3.0	009_neutral	1.0	dominance	190.91420320443103	
29.0	168.00371915308097	rating	2.0		294	22.0	female	white	4.614007162753682	neutral	009	sub-04	2.0	3.0	009_neutral	1.0	dominance	191.61409130685388	2.499944911496641
29.0	167.99987865436742	pulse	2.0	t		22.0	female	white	4.614007162753682	neutral	009	sub-04	2.0	3.0	009_neutral	1.0	dominance	191.61025080814034	
29.0	168.69859223973617	pulse	2.0	t		22.0	female	white	4.614007162753682	neutral	009	sub-04	2.0	3.0	009_neutral	1.0	dominance	192.3089643935091	
29.0	169.39856818190856	pulse	2.0	t		22.0	female	white	4.614007162753682	neutral	009	sub-04	2.0	3.0	009_neutral	1.0	dominance	193.00894033568147	
29.0	169.53189050760193	response	2.0	e		22.0	female	white	4.614007162753682	neutral	009	sub-04	2.0	3.0	009_neutral	1.0	dominance	193.14226266137484	
29.0	170.10377285305003	pulse	2.0	t		22.0	female	white	4.614007162753682	neutral	009	sub-04	2.0	3.0	009_neutral	1.0	dominance	193.71414500682295	
29.0	170.5036640645776	fix	3.0		444	22.0	female	white	4.614007162753682	neutral	009	sub-04	2.0	3.0	009_neutral	1.0	dominance	194.11403621835052	3.7665868461936043
29.0	170.8037702269139	pulse	3.0	t		22.0	female	white	4.614007162753682	neutral	009	sub-04	2.0	3.0	009_neutral	1.0	dominance	194.41414238068683	
29.0	171.50375431916473	pulse	3.0	t		22.0	female	white	4.614007162753682	neutral	009	sub-04	2.0	3.0	009_neutral	1.0	dominance	195.11412647293764	
29.0	172.2037314687568	pulse	3.0	t		22.0	female	white	4.614007162753682	neutral	009	sub-04	2.0	3.0	009_neutral	1.0	dominance	195.81410362252973	
29.0	172.903722805524	pulse	3.0	t		22.0	female	white	4.614007162753682	neutral	009	sub-04	2.0	3.0	009_neutral	1.0	dominance	196.51409495929693	
29.0	173.60369180503403	pulse	3.0	t		22.0	female	white	4.614007162753682	neutral	009	sub-04	2.0	3.0	009_neutral	1.0	dominance	197.21406395880695	
30.0	174.2702509107712	face	0.0		145	22.0	female	west_asian	3.8205332272184642	neutral	066	sub-04	2.0	3.0	066_neutral	0.0		197.88062306454412	1.233310221317879
30.0	174.30370759204197	pulse	0.0	t		22.0	female	west_asian	3.8205332272184642	neutral	066	sub-04	2.0	3.0	066_neutral	0.0		197.9140797458149	
30.0	175.00367840268154	pulse	0.0	t		22.0	female	west_asian	3.8205332272184642	neutral	066	sub-04	2.0	3.0	066_neutral	0.0		198.61405055645446	
30.0	175.5035611320891	fix	1.0		443	22.0	female	west_asian	3.8205332272184642	neutral	066	sub-04	2.0	3.0	066_neutral	0.0		199.113933285862	3.7584047697891947
30.0	175.70367155057647	pulse	1.0	t		22.0	female	west_asian	3.8205332272184642	neutral	066	sub-04	2.0	3.0	066_neutral	0.0		199.3140437043494	
30.0	176.40365232242584	pulse	1.0	t		22.0	female	west_asian	3.8205332272184642	neutral	066	sub-04	2.0	3.0	066_neutral	0.0		200.01402447619876	
30.0	177.10363852766204	pulse	1.0	t		22.0	female	west_asian	3.8205332272184642	neutral	066	sub-04	2.0	3.0	066_neutral	0.0		200.71401068143496	
30.0	177.80361899765558	pulse	1.0	t		22.0	female	west_asian	3.8205332272184642	neutral	066	sub-04	2.0	3.0	066_neutral	0.0		201.4139911514285	
30.0	178.50360731587352	pulse	1.0	t		22.0	female	west_asian	3.8205332272184642	neutral	066	sub-04	2.0	3.0	066_neutral	0.0		202.11397946964644	
30.0	179.20359170998017	pulse	1.0	t		22.0	female	west_asian	3.8205332272184642	neutral	066	sub-04	2.0	3.0	066_neutral	0.0		202.8139638637531	
31.0	179.26196590187828	face	0.0		147	25.0	female	black	3.858336649423	neutral	126	sub-04	2.0	3.0	126_neutral	0.0		202.8723380556512	1.2414901847369038
31.0	179.90358153747366	pulse	0.0	t		25.0	female	black	3.858336649423	neutral	126	sub-04	2.0	3.0	126_neutral	0.0		203.51395369124657	
31.0	180.5034560866152	fix	1.0		443	25.0	female	black	3.858336649423	neutral	126	sub-04	2.0	3.0	126_neutral	0.0		204.1138282403881	3.758312100364492
31.0	180.60356744085402	pulse	1.0	t		25.0	female	black	3.858336649423	neutral	126	sub-04	2.0	3.0	126_neutral	0.0		204.21393959462694	
31.0	181.30354791084756	pulse	1.0	t		25.0	female	black	3.858336649423	neutral	126	sub-04	2.0	3.0	126_neutral	0.0		204.91392006462047	
31.0	182.0035307956805	pulse	1.0	t		25.0	female	black	3.858336649423	neutral	126	sub-04	2.0	3.0	126_neutral	0.0		205.6139029494534	
31.0	182.7035170009167	pulse	1.0	t		25.0	female	black	3.858336649423	neutral	126	sub-04	2.0	3.0	126_neutral	0.0		206.3138891546896	
31.0	183.4034932449431	pulse	1.0	t		25.0	female	black	3.858336649423	neutral	126	sub-04	2.0	3.0	126_neutral	0.0		207.013865398716	
31.0	184.10348156316104	pulse	1.0	t		25.0	female	black	3.858336649423	neutral	126	sub-04	2.0	3.0	126_neutral	0.0		207.71385371693395	
32.0	184.26176818697968	face	0.0		147	34.0	male	white	2.651014723438122	smiling	121	sub-04	2.0	3.0	121_smiling	1.0	trustworthiness	207.8721403407526	1.2415849671469914
32.0	184.80348044629864	pulse	0.0	t		34.0	male	white	2.651014723438122	smiling	121	sub-04	2.0	3.0	121_smiling	1.0	trustworthiness	208.41385260007155	
32.0	185.50335315412667	fix	1.0		176	34.0	male	white	2.651014723438122	smiling	121	sub-04	2.0	3.0	121_smiling	1.0	trustworthiness	209.11372530789959	1.4999678524636693
32.0	185.51127231499413	pulse	1.0	t		34.0	male	white	2.651014723438122	smiling	121	sub-04	2.0	3.0	121_smiling	1.0	trustworthiness	209.12164446876704	
32.0	186.20344953636595	pulse	1.0	t		34.0	male	white	2.651014723438122	smiling	121	sub-04	2.0	3.0	121_smiling	1.0	trustworthiness	209.81382169013887	
32.0	186.90342819523175	pulse	1.0	t		34.0	male	white	2.651014723438122	smiling	121	sub-04	2.0	3.0	121_smiling	1.0	trustworthiness	210.51380034900467	
32.0	187.00332100659034	rating	2.0		295	34.0	male	white	2.651014723438122	smiling	121	sub-04	2.0	3.0	121_smiling	1.0	trustworthiness	210.61369316036325	2.4999473263360414
32.0	187.59818416222151	pulse	2.0	t		34.0	male	white	2.651014723438122	smiling	121	sub-04	2.0	3.0	121_smiling	1.0	trustworthiness	211.20855631599443	
32.0	188.29816946189203	pulse	2.0	t		34.0	male	white	2.651014723438122	smiling	121	sub-04	2.0	3.0	121_smiling	1.0	trustworthiness	211.90854161566494	
32.0	188.67839332345466	response	2.0	w		34.0	male	white	2.651014723438122	smiling	121	sub-04	2.0	3.0	121_smiling	1.0	trustworthiness	212.28876547722757	
32.0	189.00337805714844	pulse	2.0	t		34.0	male	white	2.651014723438122	smiling	121	sub-04	2.0	3.0	121_smiling	1.0	trustworthiness	212.61375021092135	
32.0	189.50326833292638	fix	3.0		443	34.0	male	white	2.651014723438122	smiling	121	sub-04	2.0	3.0	121_smiling	1.0	trustworthiness	213.1136404866993	3.7665853369198885
32.0	189.7033766384302	pulse	3.0	t		34.0	male	white	2.651014723438122	smiling	121	sub-04	2.0	3.0	121_smiling	1.0	trustworthiness	213.3137487922031	
32.0	190.403355297296	pulse	3.0	t		34.0	male	white	2.651014723438122	smiling	121	sub-04	2.0	3.0	121_smiling	1.0	trustworthiness	214.01372745106892	
32.0	191.10334633220737	pulse	3.0	t		34.0	male	white	2.651014723438122	smiling	121	sub-04	2.0	3.0	121_smiling	1.0	trustworthiness	214.71371848598028	
32.0	191.80332227437975	pulse	3.0	t		34.0	male	white	2.651014723438122	smiling	121	sub-04	2.0	3.0	121_smiling	1.0	trustworthiness	215.41369442815267	
32.0	192.50330334808314	pulse	3.0	t		34.0	male	white	2.651014723438122	smiling	121	sub-04	2.0	3.0	121_smiling	1.0	trustworthiness	216.11367550185605	
32.0	193.20330223122073	pulse	3.0	t		34.0	male	white	2.651014723438122	smiling	121	sub-04	2.0	3.0	121_smiling	1.0	trustworthiness	216.81367438499365	
33.0	193.26985366984627	face	0.0		146	27.0	female	white	3.504576203740549	smiling	144	sub-04	2.0	3.0	144_smiling	0.0		216.88022582361918	1.2333093157521944
33.0	193.90328722903723	pulse	0.0	t		27.0	female	white	3.504576203740549	smiling	144	sub-04	2.0	3.0	144_smiling	0.0		217.51365938281015	
33.0	194.50316298559846	fix	1.0		443	27.0	female	white	3.504576203740549	smiling	144	sub-04	2.0	3.0	144_smiling	0.0		218.11353513937138	3.76658895917717
33.0	194.60327433983548	pulse	1.0	t		27.0	female	white	3.504576203740549	smiling	144	sub-04	2.0	3.0	144_smiling	0.0		218.2136464936084	
33.0	195.3032584320881	pulse	1.0	t		27.0	female	white	3.504576203740549	smiling	144	sub-04	2.0	3.0	144_smiling	0.0		218.91363058586103	
33.0	196.00324161877506	pulse	1.0	t		27.0	female	white	3.504576203740549	smiling	144	sub-04	2.0	3.0	144_smiling	0.0		219.61361377254798	
33.0	196.703224503608	pulse	1.0	t		27.0	female	white	3.504576203740549	smiling	144	sub-04	2.0	3.0	144_smiling	0.0		220.3135966573809	
33.0	197.40320406803767	pulse	1.0	t		27.0	female	white	3.504576203740549	smiling	144	sub-04	2.0	3.0	144_smiling	0.0		221.01357622181058	
33.0	198.10319510294903	pulse	1.0	t		27.0	female	white	3.504576203740549	smiling	144	sub-04	2.0	3.0	144_smiling	0.0		221.71356725672194	
34.0	198.26975194477563	face	0.0		146	37.0	male	white	3.898925586947871	smiling	101	sub-04	2.0	3.0	101_smiling	0.0		221.88012409854855	1.2333078064784786
34.0	198.80318643971623	pulse	0.0	t		37.0	male	white	3.898925586947871	smiling	101	sub-04	2.0	3.0	101_smiling	0.0		222.41355859348914	
34.0	199.5030597512541	fix	1.0		444	37.0	male	white	3.898925586947871	smiling	101	sub-04	2.0	3.0	101_smiling	0.0		223.11343190502703	3.7582444848867453
34.0	199.51067102021807	pulse	1.0	t		37.0	male	white	3.898925586947871	smiling	101	sub-04	2.0	3.0	101_smiling	0.0		223.12104317399098	
34.0	200.2031549260737	pulse	1.0	t		37.0	male	white	3.898925586947871	smiling	101	sub-04	2.0	3.0	101_smiling	0.0		223.8135270798466	
34.0	200.9031423387296	pulse	1.0	t		37.0	male	white	3.898925586947871	smiling	101	sub-04	2.0	3.0	101_smiling	0.0		224.5135144925025	
34.0	201.6031161679166	pulse	1.0	t		37.0	male	white	3.898925586947871	smiling	101	sub-04	2.0	3.0	101_smiling	0.0		225.2134883216895	
34.0	202.30310146758893	pulse	1.0	t		37.0	male	white	3.898925586947871	smiling	101	sub-04	2.0	3.0	101_smiling	0.0		225.91347362136185	
34.0	203.00309310621014	pulse	1.0	t		37.0	male	white	3.898925586947871	smiling	101	sub-04	2.0	3.0	101_smiling	0.0		226.61346525998306	
35.0	203.26130423614086	face	0.0		146	24.0	female	east_asian	2.9076800636689217	neutral	034	sub-04	2.0	3.0	034_neutral	0.0		226.87167638991377	1.2416468473820714
35.0	203.70308746152477	pulse	0.0	t		24.0	female	east_asian	2.9076800636689217	neutral	034	sub-04	2.0	3.0	034_neutral	0.0		227.3134596152977	
35.0	204.40305555547275	pulse	0.0	t		24.0	female	east_asian	2.9076800636689217	neutral	034	sub-04	2.0	3.0	034_neutral	0.0		228.01342770924566	
35.0	204.50295108352293	fix	1.0		444	24.0	female	east_asian	2.9076800636689217	neutral	034	sub-04	2.0	3.0	034_neutral	0.0		228.11332323729584	3.758362510116058
35.0	205.1030529293348	pulse	1.0	t		24.0	female	east_asian	2.9076800636689217	neutral	034	sub-04	2.0	3.0	034_neutral	0.0		228.71342508310772	
35.0	205.80303189005463	pulse	1.0	t		24.0	female	east_asian	2.9076800636689217	neutral	034	sub-04	2.0	3.0	034_neutral	0.0		229.41340404382754	
35.0	206.50302473609554	pulse	1.0	t		24.0	female	east_asian	2.9076800636689217	neutral	034	sub-04	2.0	3.0	034_neutral	0.0		230.11339688986845	
35.0	207.20299826343035	pulse	1.0	t		24.0	female	east_asian	2.9076800636689217	neutral	034	sub-04	2.0	3.0	034_neutral	0.0		230.81337041720326	
35.0	207.90299141132527	pulse	1.0	t		24.0	female	east_asian	2.9076800636689217	neutral	034	sub-04	2.0	3.0	034_neutral	0.0		231.5133635650982	
36.0	208.261313593639	face	0.0		146	19.0	female	white	4.298846000795861	neutral	100	sub-04	2.0	3.0	100_neutral	0.0		231.8716857474119	1.2415336518297408
36.0	208.6029818425286	pulse	0.0	t		19.0	female	white	4.298846000795861	neutral	100	sub-04	2.0	3.0	100_neutral	0.0		232.21335399630152	
36.0	209.3029605013926	pulse	0.0	t		19.0	female	white	4.298846000795861	neutral	100	sub-04	2.0	3.0	100_neutral	0.0		232.9133326551655	
36.0	209.50284724546873	fix	1.0		444	19.0	female	white	4.298846000795861	neutral	100	sub-04	2.0	3.0	100_neutral	0.0		233.11321939924164	3.7665907703067205
36.0	210.00295274372547	pulse	1.0	t		19.0	female	white	4.298846000795861	neutral	100	sub-04	2.0	3.0	100_neutral	0.0		233.6133248974984	
36.0	210.7029280821862	pulse	1.0	t		19.0	female	white	4.298846000795861	neutral	100	sub-04	2.0	3.0	100_neutral	0.0		234.3133002359591	
36.0	211.40291489113224	pulse	1.0	t		19.0	female	white	4.298846000795861	neutral	100	sub-04	2.0	3.0	100_neutral	0.0		235.01328704490516	
36.0	212.10289898338306	pulse	1.0	t		19.0	female	white	4.298846000795861	neutral	100	sub-04	2.0	3.0	100_neutral	0.0		235.71327113715597	
36.0	212.80289001829624	pulse	1.0	t		19.0	female	white	4.298846000795861	neutral	100	sub-04	2.0	3.0	100_neutral	0.0		236.41326217206915	
37.0	213.26943801577545	face	0.0		145	40.0	male	black	2.408674890569041	neutral	061	sub-04	2.0	3.0	061_neutral	0.0		236.87981016954836	1.2333050897850626
37.0	213.50288195877147	pulse	0.0	t		40.0	male	black	2.408674890569041	neutral	061	sub-04	2.0	3.0	061_neutral	0.0		237.11325411254438	
37.0	214.202851863849	pulse	0.0	t		40.0	male	black	2.408674890569041	neutral	061	sub-04	2.0	3.0	061_neutral	0.0		237.8132240176219	
37.0	214.5027431055605	fix	1.0		444	40.0	male	black	2.408674890569041	neutral	061	sub-04	2.0	3.0	061_neutral	0.0		238.11311525933343	3.766587148049439
37.0	214.9028498414209	pulse	1.0	t		40.0	male	black	2.408674890569041	neutral	061	sub-04	2.0	3.0	061_neutral	0.0		238.51322199519382	
37.0	215.6028248780276	pulse	1.0	t		40.0	male	black	2.408674890569041	neutral	061	sub-04	2.0	3.0	061_neutral	0.0		239.21319703180052	
37.0	216.3028159129408	pulse	1.0	t		40.0	male	black	2.408674890569041	neutral	061	sub-04	2.0	3.0	061_neutral	0.0		239.9131880667137	
37.0	217.0027984959179	pulse	1.0	t		40.0	male	black	2.408674890569041	neutral	061	sub-04	2.0	3.0	061_neutral	0.0		240.6131706496908	
37.0	217.70278319187855	pulse	1.0	t		40.0	male	black	2.408674890569041	neutral	061	sub-04	2.0	3.0	061_neutral	0.0		241.31315534565147	
38.0	218.26933025360995	face	0.0		145	36.0	female	white	2.7548746518105847	smiling	011	sub-04	2.0	3.0	011_smiling	0.0		241.87970240738287	1.2333099194620445
38.0	218.40277935832273	pulse	0.0	t		36.0	female	white	2.7548746518105847	smiling	011	sub-04	2.0	3.0	011_smiling	0.0		242.01315151209565	
38.0	219.10275862089838	pulse	0.0	t		36.0	female	white	2.7548746518105847	smiling	011	sub-04	2.0	3.0	011_smiling	0.0		242.7131307746713	
38.0	219.502640173072	fix	1.0		444	36.0	female	white	2.7548746518105847	smiling	011	sub-04	2.0	3.0	011_smiling	0.0		243.1130123268449	3.7583531526161096
38.0	219.80274784468202	pulse	1.0	t		36.0	female	white	2.7548746518105847	smiling	011	sub-04	2.0	3.0	011_smiling	0.0		243.41311999845493	
38.0	220.50272378685258	pulse	1.0	t		36.0	female	white	2.7548746518105847	smiling	011	sub-04	2.0	3.0	011_smiling	0.0		244.1130959406255	
38.0	221.20271331249205	pulse	1.0	t		36.0	female	white	2.7548746518105847	smiling	011	sub-04	2.0	3.0	011_smiling	0.0		244.81308546626497	
38.0	221.90269680103302	pulse	1.0	t		36.0	female	white	2.7548746518105847	smiling	011	sub-04	2.0	3.0	011_smiling	0.0		245.51306895480593	
38.0	222.60267304505942	pulse	1.0	t		36.0	female	white	2.7548746518105847	smiling	011	sub-04	2.0	3.0	011_smiling	0.0		246.21304519883233	
39.0	223.2609933256881	face	0.0		146	54.0	female	white	2.286908077994429	smiling	136	sub-04	2.0	3.0	136_smiling	1.0	dominance	246.87136547946102	1.2415436130395392
39.0	223.30269124690494	pulse	0.0	t		54.0	female	white	2.286908077994429	smiling	136	sub-04	2.0	3.0	136_smiling	1.0	dominance	246.91306340067786	
39.0	224.00265692601351	pulse	0.0	t		54.0	female	white	2.286908077994429	smiling	136	sub-04	2.0	3.0	136_smiling	1.0	dominance	247.61302907978643	
39.0	224.50253693872764	fix	1.0		177	54.0	female	white	2.286908077994429	smiling	136	sub-04	2.0	3.0	136_smiling	1.0	dominance	248.11290909250056	1.4999681543176848
39.0	224.70263498116947	pulse	1.0	t		54.0	female	white	2.286908077994429	smiling	136	sub-04	2.0	3.0	136_smiling	1.0	dominance	248.31300713494238	
39.0	225.40262088454983	pulse	1.0	t		54.0	female	white	2.286908077994429	smiling	136	sub-04	2.0	3.0	136_smiling	1.0	dominance	249.01299303832275	
39.0	226.00250509304533	rating	2.0		294	54.0	female	white	2.286908077994429	smiling	136	sub-04	2.0	3.0	136_smiling	1.0	dominance	249.61287724681824	2.4999464207721758
39.0	226.09739798137707	pulse	2.0	t		54.0	female	white	2.286908077994429	smiling	136	sub-04	2.0	3.0	136_smiling	1.0	dominance	249.70777013514999	
39.0	226.79736486790353	pulse	2.0	t		54.0	female	white	2.286908077994429	smiling	136	sub-04	2.0	3.0	136_smiling	1.0	dominance	250.40773702167644	
39.0	227.4973483564463	pulse	2.0	t		54.0	female	white	2.286908077994429	smiling	136	sub-04	2.0	3.0	136_smiling	1.0	dominance	251.10772051021922	
39.0	227.63071414923252	response	2.0	n		54.0	female	white	2.286908077994429	smiling	136	sub-04	2.0	3.0	136_smiling	1.0	dominance	251.24108630300543	
39.0	228.20256087581402	pulse	2.0	t		54.0	female	white	2.286908077994429	smiling	136	sub-04	2.0	3.0	136_smiling	1.0	dominance	251.81293302958693	
39.0	228.5024515138175	fix	3.0		444	54.0	female	white	2.286908077994429	smiling	136	sub-04	2.0	3.0	136_smiling	1.0	dominance	252.11282366759042	3.749921442285995
39.0	228.90255764596805	pulse	3.0	t		54.0	female	white	2.286908077994429	smiling	136	sub-04	2.0	3.0	136_smiling	1.0	dominance	252.51292979974096	
39.0	229.60253268257475	pulse	3.0	t		54.0	female	white	2.286908077994429	smiling	136	sub-04	2.0	3.0	136_smiling	1.0	dominance	253.21290483634766	
39.0	230.30251375627813	pulse	3.0	t		54.0	female	white	2.286908077994429	smiling	136	sub-04	2.0	3.0	136_smiling	1.0	dominance	253.91288591005105	
39.0	231.0025099227223	pulse	3.0	t		54.0	female	white	2.286908077994429	smiling	136	sub-04	2.0	3.0	136_smiling	1.0	dominance	254.61288207649523	
39.0	231.70249280755525	pulse	3.0	t		54.0	female	white	2.286908077994429	smiling	136	sub-04	2.0	3.0	136_smiling	1.0	dominance	255.31286496132816	
40.0	232.2523729561035	fix	0.0		720													255.8627451098764	5.999885898883804
40.0	232.40248052206334	pulse	0.0	t														256.01285267583626	
40.0	233.10245887907513	pulse	0.0	t														256.71283103284804	
40.0	233.80244659358323	pulse	0.0	t														257.41281874735614	
40.0	234.50242676172275	pulse	0.0	t														258.11279891549566	
40.0	235.2024111558294	pulse	0.0	t														258.8127833096023	
40.0	235.9024139630801	pulse	0.0	t														259.512786116853	
40.0	236.6023814533164	pulse	0.0	t														260.2127536070893	
40.0	237.30236977153618	pulse	0.0	t														260.9127419253091	
40.0	238.00236352314096	pulse	0.0	t														261.61273567691387	
