trial_nr	onset	event_type	phase	response	nr_frames	face_age	face_sex	face_eth	attractiveness	expression	face_id	sub_id	ses	run	trial_type	catch	rating_type	onset_abs	duration
-1.0	0.05567683480330743	fix	0.0		714													32.2305012750403	5.966369257481347
-1.0	0.7056044496057439	pulse	0.0	t														32.88042888984273	
-1.0	1.4055747469228663	pulse	0.0	t														33.580399187159856	
-1.0	2.1055676834803307	pulse	0.0	t														34.28039212371732	
-1.0	2.805558205183843	pulse	0.0	t														34.98038264542083	
-1.0	3.5055529528799525	pulse	0.0	t														35.68037739311694	
-1.0	4.205544983868094	pulse	0.0	t														36.38036942410508	
-1.0	4.905528864728694	pulse	0.0	t														37.08035330496568	
-1.0	5.605507614029193	pulse	0.0	t														37.78033205426618	
0.0	6.022046092284654	face	0.0		144	37.0	male	white	3.898925586947871	smiling	101	sub-08	1.0	5.0	101_smiling	1.0	attractiveness	38.19687053252164	1.2333393302178592
0.0	6.305509304425868	pulse	0.0	t		37.0	male	white	3.898925586947871	smiling	101	sub-08	1.0	5.0	101_smiling	1.0	attractiveness	38.48033374466286	
0.0	7.005494694569279	pulse	0.0	t		37.0	male	white	3.898925586947871	smiling	101	sub-08	1.0	5.0	101_smiling	1.0	attractiveness	39.18031913480627	
0.0	7.255385422502513	fix	1.0		177	37.0	male	white	3.898925586947871	smiling	101	sub-08	1.0	5.0	101_smiling	1.0	attractiveness	39.4302098627395	1.50834120172658
0.0	7.705493668256167	pulse	1.0	t		37.0	male	white	3.898925586947871	smiling	101	sub-08	1.0	5.0	101_smiling	1.0	attractiveness	39.88031810849316	
0.0	8.40546758785058	pulse	1.0	t		37.0	male	white	3.898925586947871	smiling	101	sub-08	1.0	5.0	101_smiling	1.0	attractiveness	40.58029202808757	
0.0	8.763726624229093	rating	2.0		293	37.0	male	white	3.898925586947871	smiling	101	sub-08	1.0	5.0	101_smiling	1.0	attractiveness	40.93855106446608	2.491599634391605
0.0	9.100228746883658	pulse	2.0	t		37.0	male	white	3.898925586947871	smiling	101	sub-08	1.0	5.0	101_smiling	1.0	attractiveness	41.27505318712065	
0.0	9.800226211289555	pulse	2.0	t		37.0	male	white	3.898925586947871	smiling	101	sub-08	1.0	5.0	101_smiling	1.0	attractiveness	41.975050651526544	
0.0	10.500205866157557	pulse	2.0	t		37.0	male	white	3.898925586947871	smiling	101	sub-08	1.0	5.0	101_smiling	1.0	attractiveness	42.67503030639455	
0.0	10.630452132796563	response	2.0	y		37.0	male	white	3.898925586947871	smiling	101	sub-08	1.0	5.0	101_smiling	1.0	attractiveness	42.80527657303355	
0.0	11.20542424125233	pulse	2.0	t		37.0	male	white	3.898925586947871	smiling	101	sub-08	1.0	5.0	101_smiling	1.0	attractiveness	43.38024868148932	
0.0	11.255326258620698	fix	3.0		444	37.0	male	white	3.898925586947871	smiling	101	sub-08	1.0	5.0	101_smiling	1.0	attractiveness	43.43015069885769	3.7582584930351004
0.0	11.905425327935518	pulse	3.0	t		37.0	male	white	3.898925586947871	smiling	101	sub-08	1.0	5.0	101_smiling	1.0	attractiveness	44.08024976817251	
0.0	12.60540286980904	pulse	3.0	t		37.0	male	white	3.898925586947871	smiling	101	sub-08	1.0	5.0	101_smiling	1.0	attractiveness	44.78022731004603	
0.0	13.305398523076292	pulse	3.0	t		37.0	male	white	3.898925586947871	smiling	101	sub-08	1.0	5.0	101_smiling	1.0	attractiveness	45.48022296331328	
0.0	14.005405345033068	pulse	3.0	t		37.0	male	white	3.898925586947871	smiling	101	sub-08	1.0	5.0	101_smiling	1.0	attractiveness	46.18022978527006	
0.0	14.70537262378457	pulse	3.0	t		37.0	male	white	3.898925586947871	smiling	101	sub-08	1.0	5.0	101_smiling	1.0	attractiveness	46.88019706402156	
1.0	15.013584751655799	face	0.0		146	19.0	female	white	4.298846000795861	neutral	100	sub-08	1.0	5.0	100_neutral	0.0		47.18840919189279	1.2416669483991427
1.0	15.40537401232541	pulse	0.0	t		19.0	female	white	4.298846000795861	neutral	100	sub-08	1.0	5.0	100_neutral	0.0		47.5801984525624	
1.0	16.10535940246882	pulse	0.0	t		19.0	female	white	4.298846000795861	neutral	100	sub-08	1.0	5.0	100_neutral	0.0		48.28018384270581	
1.0	16.25525170005494	fix	1.0		445	19.0	female	white	4.298846000795861	neutral	100	sub-08	1.0	5.0	100_neutral	0.0		48.43007614029193	3.7582590967485885
1.0	16.80535324459379	pulse	1.0	t		19.0	female	white	4.298846000795861	neutral	100	sub-08	1.0	5.0	100_neutral	0.0		48.98017768483078	
1.0	17.505340445877664	pulse	1.0	t		19.0	female	white	4.298846000795861	neutral	100	sub-08	1.0	5.0	100_neutral	0.0		49.68016488611465	
1.0	18.205327949017374	pulse	1.0	t		19.0	female	white	4.298846000795861	neutral	100	sub-08	1.0	5.0	100_neutral	0.0		50.38015238925436	
1.0	18.90531515029943	pulse	1.0	t		19.0	female	white	4.298846000795861	neutral	100	sub-08	1.0	5.0	100_neutral	0.0		51.08013959053642	
1.0	19.605300238587006	pulse	1.0	t		19.0	female	white	4.298846000795861	neutral	100	sub-08	1.0	5.0	100_neutral	0.0		51.780124678823995	
2.0	20.01351079680353	face	0.0		146	24.0	male	white	3.1153999204138483	smiling	012	sub-08	1.0	5.0	012_smiling	0.0		52.18833523704052	1.2416633261218522
2.0	20.305298608560406	pulse	0.0	t		24.0	male	white	3.1153999204138483	smiling	012	sub-08	1.0	5.0	012_smiling	0.0		52.480123048797395	
2.0	21.005289733979225	pulse	0.0	t		24.0	male	white	3.1153999204138483	smiling	012	sub-08	1.0	5.0	012_smiling	0.0		53.180114174216214	
2.0	21.255174122925382	fix	1.0		445	24.0	male	white	3.1153999204138483	smiling	012	sub-08	1.0	5.0	012_smiling	0.0		53.42999856316237	3.7582603041737457
2.0	21.705277840830604	pulse	1.0	t		24.0	male	white	3.1153999204138483	smiling	012	sub-08	1.0	5.0	012_smiling	0.0		53.88010228106759	
2.0	22.405258099413913	pulse	1.0	t		24.0	male	white	3.1153999204138483	smiling	012	sub-08	1.0	5.0	012_smiling	0.0		54.5800825396509	
2.0	23.1052498285444	pulse	1.0	t		24.0	male	white	3.1153999204138483	smiling	012	sub-08	1.0	5.0	012_smiling	0.0		55.28007426878139	
2.0	23.805240350249733	pulse	1.0	t		24.0	male	white	3.1153999204138483	smiling	012	sub-08	1.0	5.0	012_smiling	0.0		55.98006479048672	
2.0	24.50523358866303	pulse	1.0	t		24.0	male	white	3.1153999204138483	smiling	012	sub-08	1.0	5.0	012_smiling	0.0		56.68005802890002	
3.0	25.013434427099128	face	0.0		146	31.0	male	west_asian	1.9538400318344609	neutral	070	sub-08	1.0	5.0	070_neutral	0.0		57.18825886733612	1.2416624205525295
3.0	25.20522743078982	pulse	0.0	t		31.0	male	west_asian	1.9538400318344609	neutral	070	sub-08	1.0	5.0	070_neutral	0.0		57.38005187102681	
3.0	25.905214632071875	pulse	0.0	t		31.0	male	west_asian	1.9538400318344609	neutral	070	sub-08	1.0	5.0	070_neutral	0.0		58.080039072308864	
3.0	26.255096847651657	fix	1.0		445	31.0	male	west_asian	1.9538400318344609	neutral	070	sub-08	1.0	5.0	070_neutral	0.0		58.42992128788865	3.758339088730281
3.0	26.60520696491585	pulse	1.0	t		31.0	male	west_asian	1.9538400318344609	neutral	070	sub-08	1.0	5.0	070_neutral	0.0		58.78003140515284	
3.0	27.305178167802296	pulse	1.0	t		31.0	male	west_asian	1.9538400318344609	neutral	070	sub-08	1.0	5.0	070_neutral	0.0		59.480002608039285	
3.0	28.005175934064027	pulse	1.0	t		31.0	male	west_asian	1.9538400318344609	neutral	070	sub-08	1.0	5.0	070_neutral	0.0		60.18000037430102	
3.0	28.705166153911705	pulse	1.0	t		31.0	male	west_asian	1.9538400318344609	neutral	070	sub-08	1.0	5.0	070_neutral	0.0		60.879990594148694	
3.0	29.405153657051414	pulse	1.0	t		31.0	male	west_asian	1.9538400318344609	neutral	070	sub-08	1.0	5.0	070_neutral	0.0		61.579978097288404	
4.0	30.01343593638194	face	0.0		146	32.0	male	white	2.389176283326701	neutral	092	sub-08	1.0	5.0	092_neutral	0.0		62.18826037661893	1.2415866545597964
4.0	30.10515021588617	pulse	0.0	t		32.0	male	white	2.389176283326701	neutral	092	sub-08	1.0	5.0	092_neutral	0.0		62.27997465612316	
4.0	30.805141643160823	pulse	0.0	t		32.0	male	white	2.389176283326701	neutral	092	sub-08	1.0	5.0	092_neutral	0.0		62.97996608339781	
4.0	31.255022590941735	fix	1.0		444	32.0	male	white	2.389176283326701	neutral	092	sub-08	1.0	5.0	092_neutral	0.0		63.429847031178724	3.7665897334973124
4.0	31.505130051869855	pulse	1.0	t		32.0	male	white	2.389176283326701	neutral	092	sub-08	1.0	5.0	092_neutral	0.0		63.679954492106845	
4.0	32.20510729188754	pulse	1.0	t		32.0	male	white	2.389176283326701	neutral	092	sub-08	1.0	5.0	092_neutral	0.0		64.37993173212453	
4.0	32.905101435870165	pulse	1.0	t		32.0	male	white	2.389176283326701	neutral	092	sub-08	1.0	5.0	092_neutral	0.0		65.07992587610715	
4.0	33.605078072174365	pulse	1.0	t		32.0	male	white	2.389176283326701	neutral	092	sub-08	1.0	5.0	092_neutral	0.0		65.77990251241135	
4.0	34.30510028881508	pulse	1.0	t		32.0	male	white	2.389176283326701	neutral	092	sub-08	1.0	5.0	092_neutral	0.0		66.47992472905207	
5.0	35.02161232443905	face	0.0		146	31.0	female	white	2.1822522881018704	smiling	102	sub-08	1.0	5.0	102_smiling	0.0		67.19643676467604	1.233331481946152
5.0	35.00795573092728	pulse	0.0	t		31.0	female	white	2.1822522881018704	smiling	102	sub-08	1.0	5.0	102_smiling	0.0		67.18278017116427	
5.0	35.705066843111126	pulse	0.0	t		31.0	female	white	2.1822522881018704	smiling	102	sub-08	1.0	5.0	102_smiling	0.0		67.87989128334812	
5.0	36.2549438063852	fix	1.0		444	31.0	female	white	2.1822522881018704	smiling	102	sub-08	1.0	5.0	102_smiling	0.0		68.42976824662219	3.758375009660085
5.0	36.405054346250836	pulse	1.0	t		31.0	female	white	2.1822522881018704	smiling	102	sub-08	1.0	5.0	102_smiling	0.0		68.57987878648782	
5.0	37.105036717828625	pulse	1.0	t		31.0	female	white	2.1822522881018704	smiling	102	sub-08	1.0	5.0	102_smiling	0.0		69.27986115806561	
5.0	37.80502542839349	pulse	1.0	t		31.0	female	white	2.1822522881018704	smiling	102	sub-08	1.0	5.0	102_smiling	0.0		69.97984986863048	
5.0	38.505011724106225	pulse	1.0	t		31.0	female	white	2.1822522881018704	smiling	102	sub-08	1.0	5.0	102_smiling	0.0		70.67983616434321	
5.0	39.205006471804154	pulse	1.0	t		31.0	female	white	2.1822522881018704	smiling	102	sub-08	1.0	5.0	102_smiling	0.0		71.37983091204114	
5.0	39.90499276751689	pulse	1.0	t		31.0	female	white	2.1822522881018704	smiling	102	sub-08	1.0	5.0	102_smiling	0.0		72.07981720775388	
6.0	40.013318816045285	face	0.0		147	22.0	male	black	2.767608436132113	neutral	044	sub-08	1.0	5.0	044_neutral	0.0		72.18814325628227	1.241550431775977
6.0	40.60499053377862	pulse	0.0	t		22.0	male	black	2.767608436132113	neutral	044	sub-08	1.0	5.0	044_neutral	0.0		72.77981497401561	
6.0	41.25486924782126	fix	1.0		443	22.0	male	black	2.767608436132113	neutral	044	sub-08	1.0	5.0	044_neutral	0.0		73.42969368805825	3.7665957706267363
6.0	41.30498709261337	pulse	1.0	t		22.0	male	black	2.767608436132113	neutral	044	sub-08	1.0	5.0	044_neutral	0.0		73.47981153285036	
6.0	42.00495980478263	pulse	1.0	t		22.0	male	black	2.767608436132113	neutral	044	sub-08	1.0	5.0	044_neutral	0.0		74.17978424501962	
6.0	42.70495093019963	pulse	1.0	t		22.0	male	black	2.767608436132113	neutral	044	sub-08	1.0	5.0	044_neutral	0.0		74.87977537043662	
6.0	43.40493843333934	pulse	1.0	t		22.0	male	black	2.767608436132113	neutral	044	sub-08	1.0	5.0	044_neutral	0.0		75.57976287357633	
6.0	44.10492865318702	pulse	1.0	t		22.0	male	black	2.767608436132113	neutral	044	sub-08	1.0	5.0	044_neutral	0.0		76.279753093424	
6.0	44.80492128788865	pulse	1.0	t		22.0	male	black	2.767608436132113	neutral	044	sub-08	1.0	5.0	044_neutral	0.0		76.97974572812564	
7.0	45.021465018448	face	0.0		145	28.0	male	east_asian	1.5563072025467568	neutral	005	sub-08	1.0	5.0	005_neutral	0.0		77.19628945868499	1.233327557813027
7.0	45.50491633744059	pulse	0.0	t		28.0	male	east_asian	1.5563072025467568	neutral	005	sub-08	1.0	5.0	005_neutral	0.0		77.67974077767758	
7.0	46.20490474614962	pulse	0.0	t		28.0	male	east_asian	1.5563072025467568	neutral	005	sub-08	1.0	5.0	005_neutral	0.0		78.37972918638661	
7.0	46.254792576261025	fix	1.0		445	28.0	male	east_asian	1.5563072025467568	neutral	005	sub-08	1.0	5.0	005_neutral	0.0		78.42961701649801	3.7665975817653816
7.0	46.904893154858655	pulse	1.0	t		28.0	male	east_asian	1.5563072025467568	neutral	005	sub-08	1.0	5.0	005_neutral	0.0		79.07971759509564	
7.0	47.604871904159154	pulse	1.0	t		28.0	male	east_asian	1.5563072025467568	neutral	005	sub-08	1.0	5.0	005_neutral	0.0		79.77969634439614	
7.0	48.30486423700313	pulse	1.0	t		28.0	male	east_asian	1.5563072025467568	neutral	005	sub-08	1.0	5.0	005_neutral	0.0		80.47968867724012	
7.0	49.004854154993154	pulse	1.0	t		28.0	male	east_asian	1.5563072025467568	neutral	005	sub-08	1.0	5.0	005_neutral	0.0		81.17967859523014	
7.0	49.70484860083343	pulse	1.0	t		28.0	male	east_asian	1.5563072025467568	neutral	005	sub-08	1.0	5.0	005_neutral	0.0		81.87967304107042	
8.0	50.021390158026406	face	0.0		145	19.0	male	white	2.243931555909272	neutral	130	sub-08	1.0	5.0	130_neutral	0.0		82.1962145982634	1.2333323875172937
8.0	50.40482402971065	pulse	0.0	t		19.0	male	white	2.243931555909272	neutral	130	sub-08	1.0	5.0	130_neutral	0.0		82.57964846994764	
8.0	51.104832662807894	pulse	0.0	t		19.0	male	white	2.243931555909272	neutral	130	sub-08	1.0	5.0	130_neutral	0.0		83.27965710304488	
8.0	51.2547225455437	fix	1.0		445	19.0	male	white	2.243931555909272	neutral	130	sub-08	1.0	5.0	130_neutral	0.0		83.42954698578069	3.766590639066635
8.0	51.80482137337458	pulse	1.0	t		19.0	male	white	2.243931555909272	neutral	130	sub-08	1.0	5.0	130_neutral	0.0		83.97964581361157	
8.0	52.50481521550137	pulse	1.0	t		19.0	male	white	2.243931555909272	neutral	130	sub-08	1.0	5.0	130_neutral	0.0		84.67963965573836	
8.0	53.204787927668804	pulse	1.0	t		19.0	male	white	2.243931555909272	neutral	130	sub-08	1.0	5.0	130_neutral	0.0		85.37961236790579	
8.0	53.90483489654616	pulse	1.0	t		19.0	male	white	2.243931555909272	neutral	130	sub-08	1.0	5.0	130_neutral	0.0		86.07965933678315	
8.0	54.60477591378003	pulse	1.0	t		19.0	male	white	2.243931555909272	neutral	130	sub-08	1.0	5.0	130_neutral	0.0		86.77960035401702	
9.0	55.021313184610335	face	0.0		145	27.0	male	black	3.5523278949462798	smiling	042	sub-08	1.0	5.0	042_smiling	1.0	trustworthiness	87.19613762484732	1.2333453673472832
9.0	55.30477066147614	pulse	0.0	t		27.0	male	black	3.5523278949462798	smiling	042	sub-08	1.0	5.0	042_smiling	1.0	trustworthiness	87.47959510171313	
9.0	56.00486713482496	pulse	0.0	t		27.0	male	black	3.5523278949462798	smiling	042	sub-08	1.0	5.0	042_smiling	1.0	trustworthiness	88.17969157506195	
9.0	56.25465855195762	fix	1.0		177	27.0	male	black	3.5523278949462798	smiling	042	sub-08	1.0	5.0	042_smiling	1.0	trustworthiness	88.42948299219461	1.499951401096041
9.0	56.704828074589386	pulse	1.0	t		27.0	male	black	3.5523278949462798	smiling	042	sub-08	1.0	5.0	042_smiling	1.0	trustworthiness	88.87965251482638	
9.0	57.40472683190637	pulse	1.0	t		27.0	male	black	3.5523278949462798	smiling	042	sub-08	1.0	5.0	042_smiling	1.0	trustworthiness	89.57955127214336	
9.0	57.75460995305366	rating	2.0		294	27.0	male	black	3.5523278949462798	smiling	042	sub-08	1.0	5.0	042_smiling	1.0	trustworthiness	89.92943439329065	2.4999655883548257
9.0	58.09948135009472	pulse	2.0	t		27.0	male	black	3.5523278949462798	smiling	042	sub-08	1.0	5.0	042_smiling	1.0	trustworthiness	90.27430579033171	
9.0	58.79951020758017	pulse	2.0	t		27.0	male	black	3.5523278949462798	smiling	042	sub-08	1.0	5.0	042_smiling	1.0	trustworthiness	90.97433464781716	
9.0	59.49946058236492	pulse	2.0	t		27.0	male	black	3.5523278949462798	smiling	042	sub-08	1.0	5.0	042_smiling	1.0	trustworthiness	91.67428502260191	
9.0	60.04109595657064	response	2.0	y		27.0	male	black	3.5523278949462798	smiling	042	sub-08	1.0	5.0	042_smiling	1.0	trustworthiness	92.21592039680763	
9.0	60.19945110407025	pulse	2.0	t		27.0	male	black	3.5523278949462798	smiling	042	sub-08	1.0	5.0	042_smiling	1.0	trustworthiness	92.37427554430724	
9.0	60.254575541408485	fix	3.0		444	27.0	male	black	3.5523278949462798	smiling	042	sub-08	1.0	5.0	042_smiling	1.0	trustworthiness	92.42939998164547	3.758246720630268
9.0	60.904683364564335	pulse	3.0	t		27.0	male	black	3.5523278949462798	smiling	042	sub-08	1.0	5.0	042_smiling	1.0	trustworthiness	93.07950780480132	
9.0	61.60465517116427	pulse	3.0	t		27.0	male	black	3.5523278949462798	smiling	042	sub-08	1.0	5.0	042_smiling	1.0	trustworthiness	93.77947961140126	
9.0	62.304654748564644	pulse	3.0	t		27.0	male	black	3.5523278949462798	smiling	042	sub-08	1.0	5.0	042_smiling	1.0	trustworthiness	94.47947918880163	
9.0	63.00464436470065	pulse	3.0	t		27.0	male	black	3.5523278949462798	smiling	042	sub-08	1.0	5.0	042_smiling	1.0	trustworthiness	95.17946880493764	
9.0	63.704634886404165	pulse	3.0	t		27.0	male	black	3.5523278949462798	smiling	042	sub-08	1.0	5.0	042_smiling	1.0	trustworthiness	95.87945932664115	
10.0	64.01282226203875	face	0.0		146	27.0	female	white	4.181058495821727	smiling	039	sub-08	1.0	5.0	039_smiling	1.0	trustworthiness	96.18764670227574	1.2416844560793834
10.0	64.40462872853095	pulse	0.0	t		27.0	female	white	4.181058495821727	smiling	039	sub-08	1.0	5.0	039_smiling	1.0	trustworthiness	96.57945316876794	
10.0	65.10461442053202	pulse	0.0	t		27.0	female	white	4.181058495821727	smiling	039	sub-08	1.0	5.0	039_smiling	1.0	trustworthiness	97.279438860769	
10.0	65.25450671811814	fix	1.0		177	27.0	female	white	4.181058495821727	smiling	039	sub-08	1.0	5.0	039_smiling	1.0	trustworthiness	97.42933115835513	1.4999758514768473
10.0	65.8046061496625	pulse	1.0	t		27.0	female	white	4.181058495821727	smiling	039	sub-08	1.0	5.0	039_smiling	1.0	trustworthiness	97.9794305898995	
10.0	66.50457554140849	pulse	1.0	t		27.0	female	white	4.181058495821727	smiling	039	sub-08	1.0	5.0	039_smiling	1.0	trustworthiness	98.67939998164547	
10.0	66.75448256959498	rating	2.0		295	27.0	female	white	4.181058495821727	smiling	039	sub-08	1.0	5.0	039_smiling	1.0	trustworthiness	98.92930700983197	2.4999637772161805
10.0	67.19932281504043	pulse	2.0	t		27.0	female	white	4.181058495821727	smiling	039	sub-08	1.0	5.0	039_smiling	1.0	trustworthiness	99.37414725527742	
10.0	67.89933114628184	pulse	2.0	t		27.0	female	white	4.181058495821727	smiling	039	sub-08	1.0	5.0	039_smiling	1.0	trustworthiness	100.07415558651883	
10.0	68.05454064679361	response	2.0	g		27.0	female	white	4.181058495821727	smiling	039	sub-08	1.0	5.0	039_smiling	1.0	trustworthiness	100.2293650870306	
10.0	68.60454499352818	pulse	2.0	t		27.0	female	white	4.181058495821727	smiling	039	sub-08	1.0	5.0	039_smiling	1.0	trustworthiness	100.77936943376517	
10.0	69.25444634681116	fix	3.0		443	27.0	female	white	4.181058495821727	smiling	039	sub-08	1.0	5.0	039_smiling	1.0	trustworthiness	101.42927078704815	3.758241589068348
10.0	69.30455302291193	pulse	3.0	t		27.0	female	white	4.181058495821727	smiling	039	sub-08	1.0	5.0	039_smiling	1.0	trustworthiness	101.47937746314892	
10.0	70.00453992233815	pulse	3.0	t		27.0	female	white	4.181058495821727	smiling	039	sub-08	1.0	5.0	039_smiling	1.0	trustworthiness	102.17936436257514	
10.0	70.70452923661651	pulse	3.0	t		27.0	female	white	4.181058495821727	smiling	039	sub-08	1.0	5.0	039_smiling	1.0	trustworthiness	102.8793536768535	
10.0	71.40451100448081	pulse	3.0	t		27.0	female	white	4.181058495821727	smiling	039	sub-08	1.0	5.0	039_smiling	1.0	trustworthiness	103.5793354447178	
10.0	72.10450726145973	pulse	3.0	t		27.0	female	white	4.181058495821727	smiling	039	sub-08	1.0	5.0	039_smiling	1.0	trustworthiness	104.27933170169672	
10.0	72.80449868873438	pulse	3.0	t		27.0	female	white	4.181058495821727	smiling	039	sub-08	1.0	5.0	039_smiling	1.0	trustworthiness	104.97932312897137	
11.0	73.01268793587951	face	0.0		146	40.0	female	west_asian	1.5777954635893354	smiling	038	sub-08	1.0	5.0	038_smiling	0.0		105.1875123761165	1.2416832486524072
11.0	73.5044934364305	pulse	0.0	t		40.0	female	west_asian	1.5777954635893354	smiling	038	sub-08	1.0	5.0	038_smiling	0.0		105.67931787666748	
11.0	74.20447490243896	pulse	0.0	t		40.0	female	west_asian	1.5777954635893354	smiling	038	sub-08	1.0	5.0	038_smiling	0.0		106.37929934267595	
11.0	74.25437118453192	fix	1.0		445	40.0	female	west_asian	1.5777954635893354	smiling	038	sub-08	1.0	5.0	038_smiling	0.0		106.42919562476891	3.766589431641478
11.0	74.90446814085226	pulse	1.0	t		40.0	female	west_asian	1.5777954635893354	smiling	038	sub-08	1.0	5.0	038_smiling	0.0		107.07929258108925	
11.0	75.60444356972948	pulse	1.0	t		40.0	female	west_asian	1.5777954635893354	smiling	038	sub-08	1.0	5.0	038_smiling	0.0		107.77926800996647	
11.0	76.30444284527402	pulse	1.0	t		40.0	female	west_asian	1.5777954635893354	smiling	038	sub-08	1.0	5.0	038_smiling	0.0		108.47926728551101	
11.0	77.00442974470025	pulse	1.0	t		40.0	female	west_asian	1.5777954635893354	smiling	038	sub-08	1.0	5.0	038_smiling	0.0		109.17925418493724	
11.0	77.70442087011907	pulse	1.0	t		40.0	female	west_asian	1.5777954635893354	smiling	038	sub-08	1.0	5.0	038_smiling	0.0		109.87924531035605	
12.0	78.0209606161734	face	0.0		145	25.0	female	black	3.858336649423	neutral	126	sub-08	1.0	5.0	126_neutral	0.0		110.19578505641039	1.23333419865412
12.0	78.40441501410169	pulse	0.0	t		25.0	female	black	3.858336649423	neutral	126	sub-08	1.0	5.0	126_neutral	0.0		110.57923945433868	
12.0	79.10439497082734	pulse	0.0	t		25.0	female	black	3.858336649423	neutral	126	sub-08	1.0	5.0	126_neutral	0.0		111.27921941106433	
12.0	79.25429481482752	fix	1.0		445	25.0	female	black	3.858336649423	neutral	126	sub-08	1.0	5.0	126_neutral	0.0		111.4291192550645	3.758260606031399
12.0	79.8043972649375	pulse	1.0	t		25.0	female	black	3.858336649423	neutral	126	sub-08	1.0	5.0	126_neutral	0.0		111.9792217051745	
12.0	80.50437873094597	pulse	1.0	t		25.0	female	black	3.858336649423	neutral	126	sub-08	1.0	5.0	126_neutral	0.0		112.67920317118296	
12.0	81.20437046007646	pulse	1.0	t		25.0	female	black	3.858336649423	neutral	126	sub-08	1.0	5.0	126_neutral	0.0		113.37919490031345	
12.0	81.90436400034741	pulse	1.0	t		25.0	female	black	3.858336649423	neutral	126	sub-08	1.0	5.0	126_neutral	0.0		114.0791884405844	
12.0	82.60435089977364	pulse	1.0	t		25.0	female	black	3.858336649423	neutral	126	sub-08	1.0	5.0	126_neutral	0.0		114.77917534001062	
13.0	83.01255542085892	face	0.0		146	31.0	female	white	2.1822522881018704	neutral	102	sub-08	1.0	5.0	102_neutral	0.0		115.1873798610959	1.2416545722826413
13.0	83.3043417233348	pulse	0.0	t		31.0	female	white	2.1822522881018704	neutral	102	sub-08	1.0	5.0	102_neutral	0.0		115.47916616357179	
13.0	84.00431896335067	pulse	0.0	t		31.0	female	white	2.1822522881018704	neutral	102	sub-08	1.0	5.0	102_neutral	0.0		116.17914340358766	
13.0	84.25420999314156	fix	1.0		444	31.0	female	white	2.1822522881018704	neutral	102	sub-08	1.0	5.0	102_neutral	0.0		116.42903443337855	3.766602109613814
13.0	84.70430888134251	pulse	1.0	t		31.0	female	white	2.1822522881018704	neutral	102	sub-08	1.0	5.0	102_neutral	0.0		116.8791333215795	
13.0	85.40430151604414	pulse	1.0	t		31.0	female	white	2.1822522881018704	neutral	102	sub-08	1.0	5.0	102_neutral	0.0		117.57912595628113	
13.0	86.10429294331698	pulse	1.0	t		31.0	female	white	2.1822522881018704	neutral	102	sub-08	1.0	5.0	102_neutral	0.0		118.27911738355397	
13.0	86.80427803160455	pulse	1.0	t		31.0	female	white	2.1822522881018704	neutral	102	sub-08	1.0	5.0	102_neutral	0.0		118.97910247184154	
13.0	87.50426281803448	pulse	1.0	t		31.0	female	white	2.1822522881018704	neutral	102	sub-08	1.0	5.0	102_neutral	0.0		119.67908725827147	
14.0	88.02081210275537	face	0.0		145	40.0	male	white	1.868682849184242	smiling	172	sub-08	1.0	5.0	172_smiling	0.0		120.19563654299236	1.2333296708075068
14.0	88.20426722514094	pulse	0.0	t		40.0	male	white	1.868682849184242	smiling	172	sub-08	1.0	5.0	172_smiling	0.0		120.37909166537793	
14.0	88.9042580487021	pulse	0.0	t		40.0	male	white	1.868682849184242	smiling	172	sub-08	1.0	5.0	172_smiling	0.0		121.0790824889391	
14.0	89.25414177356288	fix	1.0		444	40.0	male	white	1.868682849184242	smiling	172	sub-08	1.0	5.0	172_smiling	0.0		121.42896621379987	3.758339994301423
14.0	89.60424645741114	pulse	1.0	t		40.0	male	white	1.868682849184242	smiling	172	sub-08	1.0	5.0	172_smiling	0.0		121.77907089764813	
14.0	90.3042221881442	pulse	1.0	t		40.0	male	white	1.868682849184242	smiling	172	sub-08	1.0	5.0	172_smiling	0.0		122.47904662838118	
14.0	91.00422387854087	pulse	1.0	t		40.0	male	white	1.868682849184242	smiling	172	sub-08	1.0	5.0	172_smiling	0.0		123.17904831877786	
14.0	91.70420685383215	pulse	1.0	t		40.0	male	white	1.868682849184242	smiling	172	sub-08	1.0	5.0	172_smiling	0.0		123.87903129406914	
14.0	92.40419224397556	pulse	1.0	t		40.0	male	white	1.868682849184242	smiling	172	sub-08	1.0	5.0	172_smiling	0.0		124.57901668421255	
15.0	93.0124817678643	face	0.0		146	32.0	male	white	2.389176283326701	smiling	092	sub-08	1.0	5.0	092_smiling	0.0		125.18730620810129	1.2415851452769857
15.0	93.10419846222067	pulse	0.0	t		32.0	male	white	2.389176283326701	smiling	092	sub-08	1.0	5.0	092_smiling	0.0		125.27902290245765	
15.0	93.80418294679475	pulse	0.0	t		32.0	male	white	2.389176283326701	smiling	092	sub-08	1.0	5.0	092_smiling	0.0		125.97900738703174	
15.0	94.25406691314129	fix	1.0		444	32.0	male	white	2.389176283326701	smiling	092	sub-08	1.0	5.0	092_smiling	0.0		126.42889135337828	3.7665870167893445
15.0	94.50417195921727	pulse	1.0	t		32.0	male	white	2.389176283326701	smiling	092	sub-08	1.0	5.0	092_smiling	0.0		126.67899639945426	
15.0	95.20415916049933	pulse	1.0	t		32.0	male	white	2.389176283326701	smiling	092	sub-08	1.0	5.0	092_smiling	0.0		127.37898360073632	
15.0	95.90414938034883	pulse	1.0	t		32.0	male	white	2.389176283326701	smiling	092	sub-08	1.0	5.0	092_smiling	0.0		128.07897382058582	
15.0	96.60412360179907	pulse	1.0	t		32.0	male	white	2.389176283326701	smiling	092	sub-08	1.0	5.0	092_smiling	0.0		128.77894804203606	
15.0	97.30411653835654	pulse	1.0	t		32.0	male	white	2.389176283326701	smiling	092	sub-08	1.0	5.0	092_smiling	0.0		129.47894097859353	
16.0	98.02065392993063	face	0.0		146	24.0	male	white	3.1153999204138483	neutral	012	sub-08	1.0	5.0	012_neutral	0.0		130.19547837016762	1.2333354060810962
16.0	98.0068448988659	pulse	0.0	t		24.0	male	white	3.1153999204138483	neutral	012	sub-08	1.0	5.0	012_neutral	0.0		130.18166933910288	
16.0	98.70410905231438	pulse	0.0	t		24.0	male	white	3.1153999204138483	neutral	012	sub-08	1.0	5.0	012_neutral	0.0		130.87893349255137	
16.0	99.25398933601173	fix	1.0		443	24.0	male	white	3.1153999204138483	neutral	012	sub-08	1.0	5.0	012_neutral	0.0		131.42881377624872	3.7665957706267363
16.0	99.4040959517406	pulse	1.0	t		24.0	male	white	3.1153999204138483	neutral	012	sub-08	1.0	5.0	012_neutral	0.0		131.5789203919776	
16.0	100.10407711589323	pulse	1.0	t		24.0	male	white	3.1153999204138483	neutral	012	sub-08	1.0	5.0	012_neutral	0.0		132.27890155613022	
16.0	100.80406944873721	pulse	1.0	t		24.0	male	white	3.1153999204138483	neutral	012	sub-08	1.0	5.0	012_neutral	0.0		132.9788938889742	
16.0	101.50404336833162	pulse	1.0	t		24.0	male	white	3.1153999204138483	neutral	012	sub-08	1.0	5.0	012_neutral	0.0		133.6788678085686	
16.0	102.20404777543627	pulse	1.0	t		24.0	male	white	3.1153999204138483	neutral	012	sub-08	1.0	5.0	012_neutral	0.0		134.37887221567325	
16.0	102.9040404101379	pulse	1.0	t		24.0	male	white	3.1153999204138483	neutral	012	sub-08	1.0	5.0	012_neutral	0.0		135.07886485037488	
17.0	103.02058510663846	face	0.0		146	31.0	female	west_asian	2.364902506963788	smiling	006	sub-08	1.0	5.0	006_smiling	0.0		135.19540954687545	1.2333269540995389
17.0	103.60403244112422	pulse	0.0	t		31.0	female	west_asian	2.364902506963788	smiling	006	sub-08	1.0	5.0	006_smiling	0.0		135.7788568813612	
17.0	104.253912060738	fix	1.0		443	31.0	female	west_asian	2.364902506963788	smiling	006	sub-08	1.0	5.0	006_smiling	0.0		136.428736500975	3.766597279909547
17.0	104.30410295481306	pulse	1.0	t		31.0	female	west_asian	2.364902506963788	smiling	006	sub-08	1.0	5.0	006_smiling	0.0		136.47892739505005	
17.0	105.00400865483061	pulse	1.0	t		31.0	female	west_asian	2.364902506963788	smiling	006	sub-08	1.0	5.0	006_smiling	0.0		137.1788330950676	
17.0	105.70400370438256	pulse	1.0	t		31.0	female	west_asian	2.364902506963788	smiling	006	sub-08	1.0	5.0	006_smiling	0.0		137.87882814461955	
17.0	106.40397339798619	pulse	1.0	t		31.0	female	west_asian	2.364902506963788	smiling	006	sub-08	1.0	5.0	006_smiling	0.0		138.57879783822318	
17.0	107.10397237167308	pulse	1.0	t		31.0	female	west_asian	2.364902506963788	smiling	006	sub-08	1.0	5.0	006_smiling	0.0		139.27879681191007	
17.0	107.80396983607898	pulse	1.0	t		31.0	female	west_asian	2.364902506963788	smiling	006	sub-08	1.0	5.0	006_smiling	0.0		139.97879427631597	
18.0	108.02050934064755	face	0.0		145	28.0	male	white	3.9076800636689217	smiling	033	sub-08	1.0	5.0	033_smiling	0.0		140.19533378088454	1.233327557811208
18.0	108.5039588485015	pulse	0.0	t		28.0	male	white	3.9076800636689217	smiling	033	sub-08	1.0	5.0	033_smiling	0.0		140.6787832887385	
18.0	109.20394152193512	pulse	0.0	t		28.0	male	white	3.9076800636689217	smiling	033	sub-08	1.0	5.0	033_smiling	0.0		141.3787659621721	
18.0	109.25383689845876	fix	1.0		445	28.0	male	white	3.9076800636689217	smiling	033	sub-08	1.0	5.0	033_smiling	0.0		141.42866133869575	3.766598789194177
18.0	109.90393777891404	pulse	1.0	t		28.0	male	white	3.9076800636689217	smiling	033	sub-08	1.0	5.0	033_smiling	0.0		142.07876221915103	
18.0	110.60390988736981	pulse	1.0	t		28.0	male	white	3.9076800636689217	smiling	033	sub-08	1.0	5.0	033_smiling	0.0		142.7787343276068	
18.0	111.30391821861122	pulse	1.0	t		28.0	male	white	3.9076800636689217	smiling	033	sub-08	1.0	5.0	033_smiling	0.0		143.4787426588482	
18.0	112.00390511803744	pulse	1.0	t		28.0	male	white	3.9076800636689217	smiling	033	sub-08	1.0	5.0	033_smiling	0.0		144.17872955827443	
18.0	112.70388779147106	pulse	1.0	t		28.0	male	white	3.9076800636689217	smiling	033	sub-08	1.0	5.0	033_smiling	0.0		144.87871223170805	
19.0	113.02043568765293	face	0.0		145	26.0	male	white	2.7966573816155993	smiling	117	sub-08	1.0	5.0	117_smiling	0.0		145.19526012788992	1.2333284633805306
19.0	113.40388374659415	pulse	0.0	t		26.0	male	white	2.7966573816155993	smiling	117	sub-08	1.0	5.0	117_smiling	0.0		145.57870818683114	
19.0	114.10386974045105	pulse	0.0	t		26.0	male	white	2.7966573816155993	smiling	117	sub-08	1.0	5.0	117_smiling	0.0		146.27869418068803	
19.0	114.25376415103347	fix	1.0		444	26.0	male	white	2.7966573816155993	smiling	117	sub-08	1.0	5.0	117_smiling	0.0		146.42858859127045	3.7583342590260145
19.0	114.80386479000299	pulse	1.0	t		26.0	male	white	2.7966573816155993	smiling	117	sub-08	1.0	5.0	117_smiling	0.0		146.97868923023998	
19.0	115.50383901145506	pulse	1.0	t		26.0	male	white	2.7966573816155993	smiling	117	sub-08	1.0	5.0	117_smiling	0.0		147.67866345169205	
19.0	116.20383979628241	pulse	1.0	t		26.0	male	white	2.7966573816155993	smiling	117	sub-08	1.0	5.0	117_smiling	0.0		148.3786642365194	
19.0	116.90383333655154	pulse	1.0	t		26.0	male	white	2.7966573816155993	smiling	117	sub-08	1.0	5.0	117_smiling	0.0		149.07865777678853	
19.0	117.60380514315148	pulse	1.0	t		26.0	male	white	2.7966573816155993	smiling	117	sub-08	1.0	5.0	117_smiling	0.0		149.77862958338847	
20.0	118.01209841005948	face	0.0		146	19.0	male	white	3.2522881018702745	neutral	018	sub-08	1.0	5.0	018_neutral	0.0		150.18692285029647	1.2415999362492585
20.0	118.3038128706794	pulse	0.0	t		19.0	male	white	3.2522881018702745	neutral	018	sub-08	1.0	5.0	018_neutral	0.0		150.47863731091638	
20.0	119.0037889032701	pulse	0.0	t		19.0	male	white	3.2522881018702745	neutral	018	sub-08	1.0	5.0	018_neutral	0.0		151.1786133435071	
20.0	119.25369834630874	fix	1.0		1185	19.0	male	white	3.2522881018702745	neutral	018	sub-08	1.0	5.0	018_neutral	0.0		151.42852278654573	10.016487102273459
20.0	119.70379240480543	pulse	1.0	t		19.0	male	white	3.2522881018702745	neutral	018	sub-08	1.0	5.0	018_neutral	0.0		151.87861684504242	
20.0	120.40376209840906	pulse	1.0	t		19.0	male	white	3.2522881018702745	neutral	018	sub-08	1.0	5.0	018_neutral	0.0		152.57858653864605	
20.0	121.10376439251922	pulse	1.0	t		19.0	male	white	3.2522881018702745	neutral	018	sub-08	1.0	5.0	018_neutral	0.0		153.2785888327562	
20.0	121.80375853650185	pulse	1.0	t		19.0	male	white	3.2522881018702745	neutral	018	sub-08	1.0	5.0	018_neutral	0.0		153.97858297673883	
20.0	122.50373788951401	pulse	1.0	t		19.0	male	white	3.2522881018702745	neutral	018	sub-08	1.0	5.0	018_neutral	0.0		154.678562329751	
20.0	123.20372750565002	pulse	1.0	t		19.0	male	white	3.2522881018702745	neutral	018	sub-08	1.0	5.0	018_neutral	0.0		155.378551945887	
20.0	123.90372225334613	pulse	1.0	t		19.0	male	white	3.2522881018702745	neutral	018	sub-08	1.0	5.0	018_neutral	0.0		156.07854669358312	
20.0	124.60370432306809	pulse	1.0	t		19.0	male	white	3.2522881018702745	neutral	018	sub-08	1.0	5.0	018_neutral	0.0		156.77852876330508	
20.0	125.3036948447716	pulse	1.0	t		19.0	male	white	3.2522881018702745	neutral	018	sub-08	1.0	5.0	018_neutral	0.0		157.4785192850086	
20.0	126.00368959246953	pulse	1.0	t		19.0	male	white	3.2522881018702745	neutral	018	sub-08	1.0	5.0	018_neutral	0.0		158.17851403270652	
20.0	126.7036783030344	pulse	1.0	t		19.0	male	white	3.2522881018702745	neutral	018	sub-08	1.0	5.0	018_neutral	0.0		158.87850274327138	
20.0	127.40365554305026	pulse	1.0	t		19.0	male	white	3.2522881018702745	neutral	018	sub-08	1.0	5.0	018_neutral	0.0		159.57847998328725	
20.0	128.1036481777519	pulse	1.0	t		19.0	male	white	3.2522881018702745	neutral	018	sub-08	1.0	5.0	018_neutral	0.0		160.27847261798888	
20.0	128.80364201987868	pulse	1.0	t		19.0	male	white	3.2522881018702745	neutral	018	sub-08	1.0	5.0	018_neutral	0.0		160.97846646011567	
21.0	129.2701854485822	face	0.0		145	30.0	female	black	2.7345801830481498	smiling	062	sub-08	1.0	5.0	062_smiling	0.0		161.4450098888192	1.2333299726633413
21.0	129.50364220099254	pulse	0.0	t		30.0	female	black	2.7345801830481498	smiling	062	sub-08	1.0	5.0	062_smiling	0.0		161.67846664122953	
21.0	130.2036185354391	pulse	0.0	t		30.0	female	black	2.7345801830481498	smiling	062	sub-08	1.0	5.0	062_smiling	0.0		162.37844297567608	
21.0	130.50351542124554	fix	1.0		444	30.0	female	black	2.7345801830481498	smiling	062	sub-08	1.0	5.0	062_smiling	0.0		162.67833986148253	3.7665957706285553
21.0	130.90361932026644	pulse	1.0	t		30.0	female	black	2.7345801830481498	smiling	062	sub-08	1.0	5.0	062_smiling	0.0		163.07844376050343	
21.0	131.603582674883	pulse	1.0	t		30.0	female	black	2.7345801830481498	smiling	062	sub-08	1.0	5.0	062_smiling	0.0		163.77840711512	
21.0	132.30358436527968	pulse	1.0	t		30.0	female	black	2.7345801830481498	smiling	062	sub-08	1.0	5.0	062_smiling	0.0		164.47840880551666	
21.0	133.0035800185451	pulse	1.0	t		30.0	female	black	2.7345801830481498	smiling	062	sub-08	1.0	5.0	062_smiling	0.0		165.1784044587821	
21.0	133.70357235138908	pulse	1.0	t		30.0	female	black	2.7345801830481498	smiling	062	sub-08	1.0	5.0	062_smiling	0.0		165.87839679162607	
22.0	134.2701111918741	face	0.0		145	22.0	female	white	4.614007162753682	smiling	009	sub-08	1.0	5.0	009_smiling	0.0		166.44493563211108	1.2333006925782684
22.0	134.40356981579498	pulse	0.0	t		22.0	female	white	4.614007162753682	smiling	009	sub-08	1.0	5.0	009_smiling	0.0		166.57839425603197	
22.0	135.10355218737277	pulse	0.0	t		22.0	female	white	4.614007162753682	smiling	009	sub-08	1.0	5.0	009_smiling	0.0		167.27837662760976	
22.0	135.50341188445236	fix	1.0		444	22.0	female	white	4.614007162753682	smiling	009	sub-08	1.0	5.0	009_smiling	0.0		167.67823632468935	3.766623239573164
22.0	135.8035484443517	pulse	1.0	t		22.0	female	white	4.614007162753682	smiling	009	sub-08	1.0	5.0	009_smiling	0.0		167.97837288458868	
22.0	136.5035223639461	pulse	1.0	t		22.0	female	white	4.614007162753682	smiling	009	sub-08	1.0	5.0	009_smiling	0.0		168.6783468041831	
22.0	137.20352677105257	pulse	1.0	t		22.0	female	white	4.614007162753682	smiling	009	sub-08	1.0	5.0	009_smiling	0.0		169.37835121128956	
22.0	137.90351185933832	pulse	1.0	t		22.0	female	white	4.614007162753682	smiling	009	sub-08	1.0	5.0	009_smiling	0.0		170.0783362995753	
22.0	138.6034881937867	pulse	1.0	t		22.0	female	white	4.614007162753682	smiling	009	sub-08	1.0	5.0	009_smiling	0.0		170.77831263402368	
23.0	139.27003512402553	face	0.0		145	27.0	female	white	3.504576203740549	smiling	144	sub-08	1.0	5.0	144_smiling	0.0		171.44485956426252	1.2333257466725627
23.0	139.3034938083183	pulse	0.0	t		27.0	female	white	3.504576203740549	smiling	144	sub-08	1.0	5.0	144_smiling	0.0		171.4783182485553	
23.0	140.00348010403104	pulse	0.0	t		27.0	female	white	3.504576203740549	smiling	144	sub-08	1.0	5.0	144_smiling	0.0		172.17830454426803	
23.0	140.5033608706981	fix	1.0		443	27.0	female	white	3.504576203740549	smiling	144	sub-08	1.0	5.0	144_smiling	0.0		172.67818531093508	3.7665975817672006
23.0	140.7034709275922	pulse	1.0	t		27.0	female	white	3.504576203740549	smiling	144	sub-08	1.0	5.0	144_smiling	0.0		172.8782953678292	
23.0	141.40344786575224	pulse	1.0	t		27.0	female	white	3.504576203740549	smiling	144	sub-08	1.0	5.0	144_smiling	0.0		173.57827230598923	
23.0	142.10344351901767	pulse	1.0	t		27.0	female	white	3.504576203740549	smiling	144	sub-08	1.0	5.0	144_smiling	0.0		174.27826795925466	
23.0	142.8034367574328	pulse	1.0	t		27.0	female	white	3.504576203740549	smiling	144	sub-08	1.0	5.0	144_smiling	0.0		174.97826119766978	
23.0	143.50342184571855	pulse	1.0	t		27.0	female	white	3.504576203740549	smiling	144	sub-08	1.0	5.0	144_smiling	0.0		175.67824628595554	
23.0	144.20341780084163	pulse	1.0	t		27.0	female	white	3.504576203740549	smiling	144	sub-08	1.0	5.0	144_smiling	0.0		176.37824224107862	
24.0	144.2699584524653	face	0.0		146	28.0	male	white	3.9076800636689217	neutral	033	sub-08	1.0	5.0	033_neutral	0.0		176.44478289270228	1.2333296708075068
24.0	144.90340620955067	pulse	0.0	t		28.0	male	white	3.9076800636689217	neutral	033	sub-08	1.0	5.0	033_neutral	0.0		177.07823064978766	
24.0	145.5032881232728	fix	1.0		443	28.0	male	white	3.9076800636689217	neutral	033	sub-08	1.0	5.0	033_neutral	0.0		177.67811256350979	3.7665942613439256
24.0	145.60339733496767	pulse	1.0	t		28.0	male	white	3.9076800636689217	neutral	033	sub-08	1.0	5.0	033_neutral	0.0		177.77822177520466	
24.0	146.30337729169332	pulse	1.0	t		28.0	male	white	3.9076800636689217	neutral	033	sub-08	1.0	5.0	033_neutral	0.0		178.4782017319303	
24.0	147.00336992639495	pulse	1.0	t		28.0	male	white	3.9076800636689217	neutral	033	sub-08	1.0	5.0	033_neutral	0.0		179.17819436663194	
24.0	147.70335471282488	pulse	1.0	t		28.0	male	white	3.9076800636689217	neutral	033	sub-08	1.0	5.0	033_neutral	0.0		179.87817915306186	
24.0	148.40334342338974	pulse	1.0	t		28.0	male	white	3.9076800636689217	neutral	033	sub-08	1.0	5.0	033_neutral	0.0		180.57816786362673	
24.0	149.10335477319677	pulse	1.0	t		28.0	male	white	3.9076800636689217	neutral	033	sub-08	1.0	5.0	033_neutral	0.0		181.27817921343376	
25.0	149.26988238461672	face	0.0		146	21.0	male	black	2.969757262236371	smiling	137	sub-08	1.0	5.0	137_smiling	0.0		181.4447068248537	1.2333287652381841
25.0	149.80333291878196	pulse	0.0	t		21.0	male	black	2.969757262236371	smiling	137	sub-08	1.0	5.0	137_smiling	0.0		181.97815735901895	
25.0	150.5032111498549	fix	1.0		444	21.0	male	black	2.969757262236371	smiling	137	sub-08	1.0	5.0	137_smiling	0.0		182.6780355900919	3.7582811322754424
25.0	150.51051487065888	pulse	1.0	t		21.0	male	black	2.969757262236371	smiling	137	sub-08	1.0	5.0	137_smiling	0.0		182.68533931089587	
25.0	151.2033088306307	pulse	1.0	t		21.0	male	black	2.969757262236371	smiling	137	sub-08	1.0	5.0	137_smiling	0.0		183.3781332708677	
25.0	151.90329452263177	pulse	1.0	t		21.0	male	black	2.969757262236371	smiling	137	sub-08	1.0	5.0	137_smiling	0.0		184.07811896286876	
25.0	152.60326844222618	pulse	1.0	t		21.0	male	black	2.969757262236371	smiling	137	sub-08	1.0	5.0	137_smiling	0.0		184.77809288246317	
25.0	153.30328009388904	pulse	1.0	t		21.0	male	black	2.969757262236371	smiling	137	sub-08	1.0	5.0	137_smiling	0.0		185.47810453412603	
25.0	154.003263672892	pulse	1.0	t		21.0	male	black	2.969757262236371	smiling	137	sub-08	1.0	5.0	137_smiling	0.0		186.17808811312898	
26.0	154.26149228213035	face	0.0		146	36.0	female	white	2.7548746518105847	neutral	011	sub-08	1.0	5.0	011_neutral	0.0		186.43631672236734	1.2416446110164543
26.0	154.70325842058992	pulse	0.0	t		36.0	female	white	2.7548746518105847	neutral	011	sub-08	1.0	5.0	011_neutral	0.0		186.8780828608269	
26.0	155.40327339267424	pulse	0.0	t		36.0	female	white	2.7548746518105847	neutral	011	sub-08	1.0	5.0	011_neutral	0.0		187.57809783291123	
26.0	155.5031368931468	fix	1.0		444	36.0	female	white	2.7548746518105847	neutral	011	sub-08	1.0	5.0	011_neutral	0.0		187.6779613333838	3.7665924502052803
26.0	156.10323584171965	pulse	1.0	t		36.0	female	white	2.7548746518105847	neutral	011	sub-08	1.0	5.0	011_neutral	0.0		188.27806028195664	
26.0	156.8032179114416	pulse	1.0	t		36.0	female	white	2.7548746518105847	neutral	011	sub-08	1.0	5.0	011_neutral	0.0		188.9780423516786	
26.0	157.50319907559424	pulse	1.0	t		36.0	female	white	2.7548746518105847	neutral	011	sub-08	1.0	5.0	011_neutral	0.0		189.67802351583123	
26.0	158.2031950307155	pulse	1.0	t		36.0	female	white	2.7548746518105847	neutral	011	sub-08	1.0	5.0	011_neutral	0.0		190.3780194709525	
26.0	158.9031946081177	pulse	1.0	t		36.0	female	white	2.7548746518105847	neutral	011	sub-08	1.0	5.0	011_neutral	0.0		191.0780190483547	
27.0	159.26972934335208	face	0.0		145	47.0	male	east_asian	2.171110226820533	neutral	024	sub-08	1.0	5.0	024_neutral	1.0	attractiveness	191.44455378358907	1.2333284633823496
27.0	159.60318482796538	pulse	0.0	t		47.0	male	east_asian	2.171110226820533	neutral	024	sub-08	1.0	5.0	024_neutral	1.0	attractiveness	191.77800926820237	
27.0	160.30316206798125	pulse	0.0	t		47.0	male	east_asian	2.171110226820533	neutral	024	sub-08	1.0	5.0	024_neutral	1.0	attractiveness	192.47798650821824	
27.0	160.50305780673443	fix	1.0		177	47.0	male	east_asian	2.171110226820533	neutral	024	sub-08	1.0	5.0	024_neutral	1.0	attractiveness	192.67788224697142	1.4999821904639248
27.0	161.00315953238714	pulse	1.0	t		47.0	male	east_asian	2.171110226820533	neutral	024	sub-08	1.0	5.0	024_neutral	1.0	attractiveness	193.17798397262413	
27.0	161.70315277080044	pulse	1.0	t		47.0	male	east_asian	2.171110226820533	neutral	024	sub-08	1.0	5.0	024_neutral	1.0	attractiveness	193.87797721103743	
27.0	162.00303999719836	rating	2.0		295	47.0	male	east_asian	2.171110226820533	neutral	024	sub-08	1.0	5.0	024_neutral	1.0	attractiveness	194.17786443743535	2.4999625697892043
27.0	162.39791181683722	pulse	2.0	t		47.0	male	east_asian	2.171110226820533	neutral	024	sub-08	1.0	5.0	024_neutral	1.0	attractiveness	194.5727362570742	
27.0	163.09789056613772	pulse	2.0	t		47.0	male	east_asian	2.171110226820533	neutral	024	sub-08	1.0	5.0	024_neutral	1.0	attractiveness	195.2727150063747	
27.0	163.79785180775798	pulse	2.0	t		47.0	male	east_asian	2.171110226820533	neutral	024	sub-08	1.0	5.0	024_neutral	1.0	attractiveness	195.97267624799497	
27.0	164.4864390950097	response	2.0	e		47.0	male	east_asian	2.171110226820533	neutral	024	sub-08	1.0	5.0	024_neutral	1.0	attractiveness	196.6612635352467	
27.0	164.50300256698756	fix	3.0		443	47.0	male	east_asian	2.171110226820533	neutral	024	sub-08	1.0	5.0	024_neutral	1.0	attractiveness	196.67782700722455	3.7665897334973124
27.0	164.51054626374025	pulse	3.0	t		47.0	male	east_asian	2.171110226820533	neutral	024	sub-08	1.0	5.0	024_neutral	1.0	attractiveness	196.68537070397724	
27.0	165.2030948143456	pulse	3.0	t		47.0	male	east_asian	2.171110226820533	neutral	024	sub-08	1.0	5.0	024_neutral	1.0	attractiveness	197.3779192545826	
27.0	165.87808527567904	response	3.0	e		47.0	male	east_asian	2.171110226820533	neutral	024	sub-08	1.0	5.0	024_neutral	1.0	attractiveness	198.05290971591603	
27.0	165.9030693376535	pulse	3.0	t		47.0	male	east_asian	2.171110226820533	neutral	024	sub-08	1.0	5.0	024_neutral	1.0	attractiveness	198.0778937778905	
27.0	166.60306016121467	pulse	3.0	t		47.0	male	east_asian	2.171110226820533	neutral	024	sub-08	1.0	5.0	024_neutral	1.0	attractiveness	198.77788460145166	
27.0	167.30305551262427	pulse	3.0	t		47.0	male	east_asian	2.171110226820533	neutral	024	sub-08	1.0	5.0	024_neutral	1.0	attractiveness	199.47787995286126	
27.0	168.0030424120505	pulse	3.0	t		47.0	male	east_asian	2.171110226820533	neutral	024	sub-08	1.0	5.0	024_neutral	1.0	attractiveness	200.17786685228748	
28.0	168.26959230048487	face	0.0		145	47.0	male	east_asian	2.171110226820533	smiling	024	sub-08	1.0	5.0	024_smiling	0.0		200.44441674072186	1.2333224262492877
28.0	168.70304893215143	pulse	0.0	t		47.0	male	east_asian	2.171110226820533	smiling	024	sub-08	1.0	5.0	024_smiling	0.0		200.87787337238842	
28.0	169.40300534406742	pulse	0.0	t		47.0	male	east_asian	2.171110226820533	smiling	024	sub-08	1.0	5.0	024_smiling	0.0		201.5778297843044	
28.0	169.50291472673416	fix	1.0		444	47.0	male	east_asian	2.171110226820533	smiling	024	sub-08	1.0	5.0	024_smiling	0.0		201.67773916697115	3.75826935987061
28.0	170.10302454214252	pulse	1.0	t		47.0	male	east_asian	2.171110226820533	smiling	024	sub-08	1.0	5.0	024_smiling	0.0		202.2778489823795	
28.0	170.80307060545056	pulse	1.0	t		47.0	male	east_asian	2.171110226820533	smiling	024	sub-08	1.0	5.0	024_smiling	0.0		202.97789504568755	
28.0	171.50300558555318	pulse	1.0	t		47.0	male	east_asian	2.171110226820533	smiling	024	sub-08	1.0	5.0	024_smiling	0.0		203.67783002579017	
28.0	172.20298222185556	pulse	1.0	t		47.0	male	east_asian	2.171110226820533	smiling	024	sub-08	1.0	5.0	024_smiling	0.0		204.37780666209255	
28.0	172.90297334727438	pulse	1.0	t		47.0	male	east_asian	2.171110226820533	smiling	024	sub-08	1.0	5.0	024_smiling	0.0		205.07779778751137	
29.0	173.26118408660477	face	0.0		146	31.0	female	west_asian	2.364902506963788	neutral	006	sub-08	1.0	5.0	006_neutral	0.0		205.43600852684176	1.241662118694876
29.0	173.60296990610914	pulse	0.0	t		31.0	female	west_asian	2.364902506963788	neutral	006	sub-08	1.0	5.0	006_neutral	0.0		205.77779434634613	
29.0	174.30295861667582	pulse	0.0	t		31.0	female	west_asian	2.364902506963788	neutral	006	sub-08	1.0	5.0	006_neutral	0.0		206.4777830569128	
29.0	174.50284620529965	fix	1.0		444	31.0	female	west_asian	2.364902506963788	neutral	006	sub-08	1.0	5.0	006_neutral	0.0		206.67767064553664	3.7665957706285553
29.0	175.00294974209282	pulse	1.0	t		31.0	female	west_asian	2.364902506963788	neutral	006	sub-08	1.0	5.0	006_neutral	0.0		207.1777741823298	
29.0	175.70293905637118	pulse	1.0	t		31.0	female	west_asian	2.364902506963788	neutral	006	sub-08	1.0	5.0	006_neutral	0.0		207.87776349660817	
29.0	176.4029144852484	pulse	1.0	t		31.0	female	west_asian	2.364902506963788	neutral	006	sub-08	1.0	5.0	006_neutral	0.0		208.5777389254854	
29.0	177.10290893108868	pulse	1.0	t		31.0	female	west_asian	2.364902506963788	neutral	006	sub-08	1.0	5.0	006_neutral	0.0		209.27773337132567	
29.0	177.8029088103467	pulse	1.0	t		31.0	female	west_asian	2.364902506963788	neutral	006	sub-08	1.0	5.0	006_neutral	0.0		209.9777332505837	
30.0	178.2694419759282	face	0.0		145	54.0	female	white	2.286908077994429	neutral	136	sub-08	1.0	5.0	136_neutral	0.0		210.4442664161652	1.2333305763768294
30.0	178.50290084133303	pulse	0.0	t		54.0	female	white	2.286908077994429	neutral	136	sub-08	1.0	5.0	136_neutral	0.0		210.67772528157002	
30.0	179.20289196675185	pulse	0.0	t		54.0	female	white	2.286908077994429	neutral	136	sub-08	1.0	5.0	136_neutral	0.0		211.37771640698884	
30.0	179.50277255230503	fix	1.0		444	54.0	female	white	2.286908077994429	neutral	136	sub-08	1.0	5.0	136_neutral	0.0		211.67759699254202	3.7582618134565564
30.0	179.90287614946828	pulse	1.0	t		54.0	female	white	2.286908077994429	neutral	136	sub-08	1.0	5.0	136_neutral	0.0		212.07770058970527	
30.0	180.60285731362092	pulse	1.0	t		54.0	female	white	2.286908077994429	neutral	136	sub-08	1.0	5.0	136_neutral	0.0		212.7776817538579	
30.0	181.30285145760354	pulse	1.0	t		54.0	female	white	2.286908077994429	neutral	136	sub-08	1.0	5.0	136_neutral	0.0		213.47767589784053	
30.0	182.00283594217763	pulse	1.0	t		54.0	female	white	2.286908077994429	neutral	136	sub-08	1.0	5.0	136_neutral	0.0		214.17766038241462	
30.0	182.70282435088666	pulse	1.0	t		54.0	female	white	2.286908077994429	neutral	136	sub-08	1.0	5.0	136_neutral	0.0		214.87764879112365	
31.0	183.2610343657616	face	0.0		146	28.0	female	white	5.676880222841227	smiling	124	sub-08	1.0	5.0	124_smiling	0.0		215.43585880599858	1.241662118694876
31.0	183.40282241900422	pulse	0.0	t		28.0	female	white	5.676880222841227	smiling	124	sub-08	1.0	5.0	124_smiling	0.0		215.5776468592412	
31.0	184.10280871471878	pulse	0.0	t		28.0	female	white	5.676880222841227	smiling	124	sub-08	1.0	5.0	124_smiling	0.0		216.27763315495577	
31.0	184.50269648445646	fix	1.0		444	28.0	female	white	5.676880222841227	smiling	124	sub-08	1.0	5.0	124_smiling	0.0		216.67752092469345	3.766593355776422
31.0	184.8028034624149	pulse	1.0	t		28.0	female	white	5.676880222841227	smiling	124	sub-08	1.0	5.0	124_smiling	0.0		216.97762790265188	
31.0	185.502775269013	pulse	1.0	t		28.0	female	white	5.676880222841227	smiling	124	sub-08	1.0	5.0	124_smiling	0.0		217.67759970925	
31.0	186.2027700167091	pulse	1.0	t		28.0	female	white	5.676880222841227	smiling	124	sub-08	1.0	5.0	124_smiling	0.0		218.3775944569461	
31.0	186.90276566997636	pulse	1.0	t		28.0	female	white	5.676880222841227	smiling	124	sub-08	1.0	5.0	124_smiling	0.0		219.07759011021335	
31.0	187.60274532484436	pulse	1.0	t		28.0	female	white	5.676880222841227	smiling	124	sub-08	1.0	5.0	124_smiling	0.0		219.77756976508135	
32.0	188.2692898402329	face	0.0		145	24.0	female	black	3.0955033824114606	neutral	099	sub-08	1.0	5.0	099_neutral	0.0		220.44411428046988	1.2333320856596401
32.0	188.30275878764587	pulse	0.0	t		24.0	female	black	3.0955033824114606	neutral	099	sub-08	1.0	5.0	099_neutral	0.0		220.47758322788286	
32.0	189.00272878310716	pulse	0.0	t		24.0	female	black	3.0955033824114606	neutral	099	sub-08	1.0	5.0	099_neutral	0.0		221.17755322334415	
32.0	189.50262192589253	fix	1.0		443	24.0	female	black	3.0955033824114606	neutral	099	sub-08	1.0	5.0	099_neutral	0.0		221.67744636612952	3.7665915446359577
32.0	189.70273017164618	pulse	1.0	t		24.0	female	black	3.0955033824114606	neutral	099	sub-08	1.0	5.0	099_neutral	0.0		221.87755461188317	
32.0	190.4027025819596	pulse	1.0	t		24.0	female	black	3.0955033824114606	neutral	099	sub-08	1.0	5.0	099_neutral	0.0		222.5775270221966	
32.0	191.10270125379066	pulse	1.0	t		24.0	female	black	3.0955033824114606	neutral	099	sub-08	1.0	5.0	099_neutral	0.0		223.27752569402764	
32.0	191.80269086992485	pulse	1.0	t		24.0	female	black	3.0955033824114606	neutral	099	sub-08	1.0	5.0	099_neutral	0.0		223.97751531016183	
32.0	192.50267052479467	pulse	1.0	t		24.0	female	black	3.0955033824114606	neutral	099	sub-08	1.0	5.0	099_neutral	0.0		224.67749496503166	
32.0	193.20266557434843	pulse	1.0	t		24.0	female	black	3.0955033824114606	neutral	099	sub-08	1.0	5.0	099_neutral	0.0		225.37749001458542	
33.0	193.26921347052848	face	0.0		146	31.0	female	east_asian	3.395941106247513	smiling	087	sub-08	1.0	5.0	087_smiling	0.0		225.44403791076547	1.2333323875154747
33.0	193.90266243503902	pulse	0.0	t		31.0	female	east_asian	3.395941106247513	smiling	087	sub-08	1.0	5.0	087_smiling	0.0		226.077486875276	
33.0	194.50254585804396	fix	1.0		443	31.0	female	east_asian	3.395941106247513	smiling	087	sub-08	1.0	5.0	087_smiling	0.0		226.67737029828095	3.7583348627395026
33.0	194.60264661775727	pulse	1.0	t		31.0	female	east_asian	3.395941106247513	smiling	087	sub-08	1.0	5.0	087_smiling	0.0		226.77747105799426	
33.0	195.30262959304855	pulse	1.0	t		31.0	female	east_asian	3.395941106247513	smiling	087	sub-08	1.0	5.0	087_smiling	0.0		227.47745403328554	
33.0	196.0026288685931	pulse	1.0	t		31.0	female	east_asian	3.395941106247513	smiling	087	sub-08	1.0	5.0	087_smiling	0.0		228.17745330883008	
33.0	196.70261033460156	pulse	1.0	t		31.0	female	east_asian	3.395941106247513	smiling	087	sub-08	1.0	5.0	087_smiling	0.0		228.87743477483855	
33.0	197.40261051571542	pulse	1.0	t		31.0	female	east_asian	3.395941106247513	smiling	087	sub-08	1.0	5.0	087_smiling	0.0		229.5774349559524	
33.0	198.1025934910067	pulse	1.0	t		31.0	female	east_asian	3.395941106247513	smiling	087	sub-08	1.0	5.0	087_smiling	0.0		230.2774179312437	
34.0	198.26088072078346	face	0.0		147	20.0	female	white	3.9502586549940313	smiling	091	sub-08	1.0	5.0	091_smiling	0.0		230.43570516102045	1.24158695641745
34.0	198.80259004984146	pulse	0.0	t		20.0	female	white	3.9502586549940313	smiling	091	sub-08	1.0	5.0	091_smiling	0.0		230.97741449007844	
34.0	199.5024676772009	fix	1.0		444	20.0	female	white	3.9502586549940313	smiling	091	sub-08	1.0	5.0	091_smiling	0.0		231.6772921174379	3.7665957706285553
34.0	199.50983901387008	pulse	1.0	t		20.0	female	white	3.9502586549940313	smiling	091	sub-08	1.0	5.0	091_smiling	0.0		231.68466345410707	
34.0	200.20256415055155	pulse	1.0	t		20.0	female	white	3.9502586549940313	smiling	091	sub-08	1.0	5.0	091_smiling	0.0		232.37738859078854	
34.0	200.90255255925877	pulse	1.0	t		20.0	female	white	3.9502586549940313	smiling	091	sub-08	1.0	5.0	091_smiling	0.0		233.07737699949575	
34.0	201.60253644012118	pulse	1.0	t		20.0	female	white	3.9502586549940313	smiling	091	sub-08	1.0	5.0	091_smiling	0.0		233.77736088035817	
34.0	202.30252877296516	pulse	1.0	t		20.0	female	white	3.9502586549940313	smiling	091	sub-08	1.0	5.0	091_smiling	0.0		234.47735321320215	
34.0	203.00252472808643	pulse	1.0	t		20.0	female	white	3.9502586549940313	smiling	091	sub-08	1.0	5.0	091_smiling	0.0		235.17734916832342	
35.0	203.26906344782947	face	0.0		145	34.0	male	white	2.651014723438122	neutral	121	sub-08	1.0	5.0	121_neutral	1.0	dominance	235.44388788806646	1.2333299726633413
35.0	203.70250589223906	pulse	0.0	t		34.0	male	white	2.651014723438122	neutral	121	sub-08	1.0	5.0	121_neutral	1.0	dominance	235.87733033247605	
35.0	204.4024994325082	pulse	0.0	t		34.0	male	white	2.651014723438122	neutral	121	sub-08	1.0	5.0	121_neutral	1.0	dominance	236.57732387274518	
35.0	204.5023934204928	fix	1.0		177	34.0	male	white	2.651014723438122	neutral	121	sub-08	1.0	5.0	121_neutral	1.0	dominance	236.6772178607298	1.499977360759658
35.0	205.10249448206196	pulse	1.0	t		34.0	male	white	2.651014723438122	neutral	121	sub-08	1.0	5.0	121_neutral	1.0	dominance	237.27731892229895	
35.0	205.80248409819615	pulse	1.0	t		34.0	male	white	2.651014723438122	neutral	121	sub-08	1.0	5.0	121_neutral	1.0	dominance	237.97730853843314	
35.0	206.00237078125247	rating	2.0		295	34.0	male	white	2.651014723438122	neutral	121	sub-08	1.0	5.0	121_neutral	1.0	dominance	238.17719522148946	2.499959551223583
35.0	206.49719152676516	pulse	2.0	t		34.0	male	white	2.651014723438122	neutral	121	sub-08	1.0	5.0	121_neutral	1.0	dominance	238.67201596700215	
35.0	207.19720770627646	pulse	2.0	t		34.0	male	white	2.651014723438122	neutral	121	sub-08	1.0	5.0	121_neutral	1.0	dominance	239.37203214651345	
35.0	207.89719852983762	pulse	2.0	t		34.0	male	white	2.651014723438122	neutral	121	sub-08	1.0	5.0	121_neutral	1.0	dominance	240.0720229700746	
35.0	208.22216490301798	response	2.0	g		34.0	male	white	2.651014723438122	neutral	121	sub-08	1.0	5.0	121_neutral	1.0	dominance	240.39698934325497	
35.0	208.50233033247605	fix	3.0		443	34.0	male	white	2.651014723438122	neutral	121	sub-08	1.0	5.0	121_neutral	1.0	dominance	240.67715477271304	3.758258794892754
35.0	208.60244769429846	pulse	3.0	t		34.0	male	white	2.651014723438122	neutral	121	sub-08	1.0	5.0	121_neutral	1.0	dominance	240.77727213453545	
35.0	209.30242221760636	pulse	3.0	t		34.0	male	white	2.651014723438122	neutral	121	sub-08	1.0	5.0	121_neutral	1.0	dominance	241.47724665784335	
35.0	210.00241123002888	pulse	3.0	t		34.0	male	white	2.651014723438122	neutral	121	sub-08	1.0	5.0	121_neutral	1.0	dominance	242.17723567026587	
35.0	210.70240507215567	pulse	3.0	t		34.0	male	white	2.651014723438122	neutral	121	sub-08	1.0	5.0	121_neutral	1.0	dominance	242.87722951239266	
35.0	211.40238744373346	pulse	3.0	t		34.0	male	white	2.651014723438122	neutral	121	sub-08	1.0	5.0	121_neutral	1.0	dominance	243.57721188397045	
35.0	212.10238038029092	pulse	3.0	t		34.0	male	white	2.651014723438122	neutral	121	sub-08	1.0	5.0	121_neutral	1.0	dominance	244.2772048205279	
36.0	212.2605891273688	face	0.0		147	27.0	female	white	3.504576203740549	neutral	144	sub-08	1.0	5.0	144_neutral	0.0		244.4354135676058	1.2416657409721665
36.0	212.8023814669741	pulse	0.0	t		27.0	female	white	3.504576203740549	neutral	144	sub-08	1.0	5.0	144_neutral	0.0		244.9772059072111	
36.0	213.50225486834097	fix	1.0		444	27.0	female	white	3.504576203740549	neutral	144	sub-08	1.0	5.0	144_neutral	0.0		245.67707930857796	3.758384970926272
36.0	213.5097433253468	pulse	1.0	t		27.0	female	white	3.504576203740549	neutral	144	sub-08	1.0	5.0	144_neutral	0.0		245.68456776558378	
36.0	214.20235103983396	pulse	1.0	t		27.0	female	white	3.504576203740549	neutral	144	sub-08	1.0	5.0	144_neutral	0.0		246.37717548007095	
36.0	214.9023331095559	pulse	1.0	t		27.0	female	white	3.504576203740549	neutral	144	sub-08	1.0	5.0	144_neutral	0.0		247.0771575497929	
36.0	215.60232091455146	pulse	1.0	t		27.0	female	white	3.504576203740549	neutral	144	sub-08	1.0	5.0	144_neutral	0.0		247.77714535478844	
36.0	216.30231354925309	pulse	1.0	t		27.0	female	white	3.504576203740549	neutral	144	sub-08	1.0	5.0	144_neutral	0.0		248.47713798949007	
36.0	217.00231825821356	pulse	1.0	t		27.0	female	white	3.504576203740549	neutral	144	sub-08	1.0	5.0	144_neutral	0.0		249.17714269845055	
37.0	217.26063983926724	face	0.0		146	24.0	female	east_asian	2.9076800636689217	neutral	034	sub-08	1.0	5.0	034_neutral	0.0		249.43546427950423	1.2415066625762847
37.0	217.70230485578395	pulse	0.0	t		24.0	female	east_asian	2.9076800636689217	neutral	034	sub-08	1.0	5.0	034_neutral	0.0		249.87712929602094	
37.0	218.40228209580164	pulse	0.0	t		24.0	female	east_asian	2.9076800636689217	neutral	034	sub-08	1.0	5.0	034_neutral	0.0		250.57710653603863	
37.0	218.50214650184353	fix	1.0		444	24.0	female	east_asian	2.9076800636689217	neutral	034	sub-08	1.0	5.0	034_neutral	0.0		250.67697094208052	3.7666268618522736
37.0	219.10227895649223	pulse	1.0	t		24.0	female	east_asian	2.9076800636689217	neutral	034	sub-08	1.0	5.0	034_neutral	0.0		251.27710339672922	
37.0	219.80227008191105	pulse	1.0	t		24.0	female	east_asian	2.9076800636689217	neutral	034	sub-08	1.0	5.0	034_neutral	0.0		251.97709452214804	
37.0	220.50223011610433	pulse	1.0	t		24.0	female	east_asian	2.9076800636689217	neutral	034	sub-08	1.0	5.0	034_neutral	0.0		252.67705455634132	
37.0	221.2022698404253	pulse	1.0	t		24.0	female	east_asian	2.9076800636689217	neutral	034	sub-08	1.0	5.0	034_neutral	0.0		253.37709428066228	
37.0	221.902232893186	pulse	1.0	t		24.0	female	east_asian	2.9076800636689217	neutral	034	sub-08	1.0	5.0	034_neutral	0.0		254.077057333423	
38.0	222.2687733636958	face	0.0		145	31.0	female	east_asian	3.395941106247513	neutral	087	sub-08	1.0	5.0	087_neutral	0.0		254.4435978039328	1.2333351042252616
38.0	222.60222794273795	pulse	0.0	t		31.0	female	east_asian	3.395941106247513	neutral	087	sub-08	1.0	5.0	087_neutral	0.0		254.77705238297494	
38.0	223.3022251052862	pulse	0.0	t		31.0	female	east_asian	3.395941106247513	neutral	087	sub-08	1.0	5.0	087_neutral	0.0		255.4770495455232	
38.0	223.50210846792106	fix	1.0		444	31.0	female	east_asian	3.395941106247513	neutral	087	sub-08	1.0	5.0	087_neutral	0.0		255.67693290815805	3.766591242778304
38.0	224.00220657129466	pulse	1.0	t		31.0	female	east_asian	3.395941106247513	neutral	087	sub-08	1.0	5.0	087_neutral	0.0		256.17703101153165	
38.0	224.70218954658594	pulse	1.0	t		31.0	female	east_asian	3.395941106247513	neutral	087	sub-08	1.0	5.0	087_neutral	0.0		256.87701398682293	
38.0	225.40218006829127	pulse	1.0	t		31.0	female	east_asian	3.395941106247513	neutral	087	sub-08	1.0	5.0	087_neutral	0.0		257.57700450852826	
38.0	226.1021705899966	pulse	1.0	t		31.0	female	east_asian	3.395941106247513	neutral	087	sub-08	1.0	5.0	087_neutral	0.0		258.2769950302336	
38.0	226.80216111170012	pulse	1.0	t		31.0	female	east_asian	3.395941106247513	neutral	087	sub-08	1.0	5.0	087_neutral	0.0		258.9769855519371	
39.0	227.26869971069937	face	0.0		145	23.0	male	white	2.6275368085953046	smiling	141	sub-08	1.0	5.0	141_smiling	0.0		259.44352415093635	1.2333296708075068
39.0	227.5021534445441	pulse	0.0	t		23.0	male	white	2.6275368085953046	smiling	141	sub-08	1.0	5.0	141_smiling	0.0		259.6769778847811	
39.0	228.20213702354886	pulse	0.0	t		23.0	male	white	2.6275368085953046	smiling	141	sub-08	1.0	5.0	141_smiling	0.0		260.37696146378585	
39.0	228.50202938150687	fix	1.0		444	23.0	male	white	2.6275368085953046	smiling	141	sub-08	1.0	5.0	141_smiling	0.0		260.67685382174386	3.7499426472586492
39.0	228.90213448795294	pulse	1.0	t		23.0	male	white	2.6275368085953046	smiling	141	sub-08	1.0	5.0	141_smiling	0.0		261.0769589281899	
39.0	229.60211202982646	pulse	1.0	t		23.0	male	white	2.6275368085953046	smiling	141	sub-08	1.0	5.0	141_smiling	0.0		261.77693647006345	
39.0	230.3020974199717	pulse	1.0	t		23.0	male	white	2.6275368085953046	smiling	141	sub-08	1.0	5.0	141_smiling	0.0		262.4769218602087	
39.0	231.0020966955144	pulse	1.0	t		23.0	male	white	2.6275368085953046	smiling	141	sub-08	1.0	5.0	141_smiling	0.0		263.1769211357514	
39.0	231.7020905376412	pulse	1.0	t		23.0	male	white	2.6275368085953046	smiling	141	sub-08	1.0	5.0	141_smiling	0.0		263.8769149778782	
40.0	232.25197202876552	fix	0.0		720													264.4267964690025	5.999909141180979
40.0	232.40207985191955	pulse	0.0	t														264.57690429215654	
40.0	233.10205950678937	pulse	0.0	t														265.27688394702636	
40.0	233.80205304706033	pulse	0.0	t														265.9768774872973	
40.0	234.50204356876384	pulse	0.0	t														266.6768680090008	
40.0	235.20202865705141	pulse	0.0	t														267.3768530972884	
40.0	235.90202732888247	pulse	0.0	t														268.07685176911946	
40.0	236.60200336147318	pulse	0.0	t														268.77682780171017	
40.0	237.30197064022468	pulse	0.0	t														269.47679508046167	
40.0	238.0019913475826	pulse	0.0	t														270.1768157878196	
