trial_nr	onset	event_type	phase	response	nr_frames	face_age	face_sex	face_eth	attractiveness	expression	face_id	sub_id	ses	run	trial_type	catch	rating_type	onset_abs	duration
-1.0	0.05770588535369825	fix	0.0		714													102.42924840265982	5.966337151897278
-1.0	0.7076315837928178	pulse	0.0	t														103.07917410109894	
-1.0	1.407607224110052	pulse	0.0	t														103.77914974141618	
-1.0	2.107593429345343	pulse	0.0	t														104.47913594665147	
-1.0	2.807578729016086	pulse	0.0	t														105.17912124632221	
-1.0	3.5075619157034907	pulse	0.0	t														105.87910443300962	
-1.0	4.207541178278234	pulse	0.0	t														106.57908369558436	
-1.0	4.907537948431582	pulse	0.0	t														107.2790804657377	
-1.0	5.607495779315059	pulse	0.0	t														107.97903829662118	
0.0	6.024043037250976	face	0.0		144	22.0	female	white	4.614007162753682	neutral	009	sub-03	2.0	1.0	009_neutral	1.0	attractiveness	108.3955855545571	1.2333361808302925
0.0	6.307504321806164	pulse	0.0	t		22.0	female	white	4.614007162753682	neutral	009	sub-03	2.0	1.0	009_neutral	1.0	attractiveness	108.67904683911229	
0.0	7.00748509365485	pulse	0.0	t		22.0	female	white	4.614007162753682	neutral	009	sub-03	2.0	1.0	009_neutral	1.0	attractiveness	109.37902761096097	
0.0	7.257379218081269	fix	1.0		177	22.0	female	white	4.614007162753682	neutral	009	sub-03	2.0	1.0	009_neutral	1.0	attractiveness	109.6289217353874	1.5083325510263421
0.0	7.707478241550916	pulse	1.0	t		22.0	female	white	4.614007162753682	neutral	009	sub-03	2.0	1.0	009_neutral	1.0	attractiveness	110.07902075885704	
0.0	8.407469880172584	pulse	1.0	t		22.0	female	white	4.614007162753682	neutral	009	sub-03	2.0	1.0	009_neutral	1.0	attractiveness	110.77901239747871	
0.0	8.765711769107611	rating	2.0		293	22.0	female	white	4.614007162753682	neutral	009	sub-03	2.0	1.0	009_neutral	1.0	attractiveness	111.13725428641374	2.491581722208366
0.0	9.102585054383553	pulse	2.0	t		22.0	female	white	4.614007162753682	neutral	009	sub-03	2.0	1.0	009_neutral	1.0	attractiveness	111.47412757168968	
0.0	9.802426671166359	pulse	2.0	t		22.0	female	white	4.614007162753682	neutral	009	sub-03	2.0	1.0	009_neutral	1.0	attractiveness	112.17396918847248	
0.0	10.04914166076287	response	2.0	y		22.0	female	white	4.614007162753682	neutral	009	sub-03	2.0	1.0	009_neutral	1.0	attractiveness	112.420684178069	
0.0	10.507414006847739	pulse	2.0	t		22.0	female	white	4.614007162753682	neutral	009	sub-03	2.0	1.0	009_neutral	1.0	attractiveness	112.87895652415386	
0.0	11.207408965872673	pulse	2.0	t		22.0	female	white	4.614007162753682	neutral	009	sub-03	2.0	1.0	009_neutral	1.0	attractiveness	113.5789514831788	
0.0	11.257293491315977	fix	3.0		444	22.0	female	white	4.614007162753682	neutral	009	sub-03	2.0	1.0	009_neutral	1.0	attractiveness	113.6288360086221	3.7665744701466792
0.0	11.907390341430983	pulse	3.0	t		22.0	female	white	4.614007162753682	neutral	009	sub-03	2.0	1.0	009_neutral	1.0	attractiveness	114.27893285873711	
0.0	12.60737262255384	pulse	3.0	t		22.0	female	white	4.614007162753682	neutral	009	sub-03	2.0	1.0	009_neutral	1.0	attractiveness	114.97891513985996	
0.0	13.307354299967074	pulse	3.0	t		22.0	female	white	4.614007162753682	neutral	009	sub-03	2.0	1.0	009_neutral	1.0	attractiveness	115.6788968172732	
0.0	14.007338694073496	pulse	3.0	t		22.0	female	white	4.614007162753682	neutral	009	sub-03	2.0	1.0	009_neutral	1.0	attractiveness	116.37888121137962	
0.0	14.707334860517449	pulse	3.0	t		22.0	female	white	4.614007162753682	neutral	009	sub-03	2.0	1.0	009_neutral	1.0	attractiveness	117.07887737782357	
1.0	15.023867961462656	face	0.0		145	20.0	male	black	3.1070433744528456	neutral	082	sub-03	2.0	1.0	082_neutral	0.0		117.39541047876878	1.2333183713967628
1.0	15.407319858333494	pulse	0.0	t		20.0	male	black	3.1070433744528456	neutral	082	sub-03	2.0	1.0	082_neutral	0.0		117.77886237563962	
1.0	16.107301233891803	pulse	0.0	t		20.0	male	black	3.1070433744528456	neutral	082	sub-03	2.0	1.0	082_neutral	0.0		118.47884375119793	
1.0	16.25718633285942	fix	1.0		445	20.0	male	black	3.1070433744528456	neutral	082	sub-03	2.0	1.0	082_neutral	0.0		118.62872885016554	3.766575375711227
1.0	16.807285024288603	pulse	1.0	t		20.0	male	black	3.1070433744528456	neutral	082	sub-03	2.0	1.0	082_neutral	0.0		119.17882754159473	
1.0	17.507268210976008	pulse	1.0	t		20.0	male	black	3.1070433744528456	neutral	082	sub-03	2.0	1.0	082_neutral	0.0		119.87881072828213	
1.0	18.207251095808488	pulse	1.0	t		20.0	male	black	3.1070433744528456	neutral	082	sub-03	2.0	1.0	082_neutral	0.0		120.57879361311461	
1.0	18.90724152701091	pulse	1.0	t		20.0	male	black	3.1070433744528456	neutral	082	sub-03	2.0	1.0	082_neutral	0.0		121.27878404431704	
1.0	19.607229845229995	pulse	1.0	t		20.0	male	black	3.1070433744528456	neutral	082	sub-03	2.0	1.0	082_neutral	0.0		121.97877236253612	
2.0	20.023761708570646	face	0.0		145	24.0	male	white	3.1153999204138483	neutral	012	sub-03	2.0	1.0	012_neutral	1.0	dominance	122.39530422587677	1.2333186732514605
2.0	20.30721484304604	pulse	0.0	t		24.0	male	white	3.1153999204138483	neutral	012	sub-03	2.0	1.0	012_neutral	1.0	dominance	122.67875736035217	
2.0	21.007192294491915	pulse	0.0	t		24.0	male	white	3.1153999204138483	neutral	012	sub-03	2.0	1.0	012_neutral	1.0	dominance	123.37873481179804	
2.0	21.257080381822107	fix	1.0		177	24.0	male	white	3.1153999204138483	neutral	012	sub-03	2.0	1.0	012_neutral	1.0	dominance	123.62862289912823	1.4999684561726099
2.0	21.707181820130018	pulse	1.0	t		24.0	male	white	3.1153999204138483	neutral	012	sub-03	2.0	1.0	012_neutral	1.0	dominance	124.07872433743614	
2.0	22.407178590283593	pulse	1.0	t		24.0	male	white	3.1153999204138483	neutral	012	sub-03	2.0	1.0	012_neutral	1.0	dominance	124.77872110758972	
2.0	22.757048837994716	rating	2.0		294	24.0	male	white	3.1153999204138483	neutral	012	sub-03	2.0	1.0	012_neutral	1.0	dominance	125.12859135530084	2.4999458170620983
2.0	23.101919464533694	pulse	2.0	t		24.0	male	white	3.1153999204138483	neutral	012	sub-03	2.0	1.0	012_neutral	1.0	dominance	125.47346198183982	
2.0	23.80187488057868	pulse	2.0	t		24.0	male	white	3.1153999204138483	neutral	012	sub-03	2.0	1.0	012_neutral	1.0	dominance	126.1734173978848	
2.0	24.140456965918474	response	2.0	b		24.0	male	white	3.1153999204138483	neutral	012	sub-03	2.0	1.0	012_neutral	1.0	dominance	126.5119994832246	
2.0	24.507118792846313	pulse	2.0	t		24.0	male	white	3.1153999204138483	neutral	012	sub-03	2.0	1.0	012_neutral	1.0	dominance	126.87866131015244	
2.0	25.207124920498927	pulse	2.0	t		24.0	male	white	3.1153999204138483	neutral	012	sub-03	2.0	1.0	012_neutral	1.0	dominance	127.57866743780505	
2.0	25.256994655056815	fix	3.0		444	24.0	male	white	3.1153999204138483	neutral	012	sub-03	2.0	1.0	012_neutral	1.0	dominance	127.62853717236294	3.766575073856302
2.0	25.907096032993877	pulse	3.0	t		24.0	male	white	3.1153999204138483	neutral	012	sub-03	2.0	1.0	012_neutral	1.0	dominance	128.2786385503	
2.0	26.607112121855153	pulse	3.0	t		24.0	male	white	3.1153999204138483	neutral	012	sub-03	2.0	1.0	012_neutral	1.0	dominance	128.97865463916128	
2.0	27.30707327314144	pulse	3.0	t		24.0	male	white	3.1153999204138483	neutral	012	sub-03	2.0	1.0	012_neutral	1.0	dominance	129.67861579044757	
2.0	28.007061893215223	pulse	3.0	t		24.0	male	white	3.1153999204138483	neutral	012	sub-03	2.0	1.0	012_neutral	1.0	dominance	130.37860441052135	
2.0	28.707049004014834	pulse	3.0	t		24.0	male	white	3.1153999204138483	neutral	012	sub-03	2.0	1.0	012_neutral	1.0	dominance	131.07859152132096	
3.0	29.023569728913117	face	0.0		145	31.0	female	white	2.1822522881018704	smiling	102	sub-03	2.0	1.0	102_smiling	0.0		131.39511224621924	1.2333222955094243
3.0	29.407021625783955	pulse	0.0	t		31.0	female	white	2.1822522881018704	smiling	102	sub-03	2.0	1.0	102_smiling	0.0		131.77856414309008	
3.0	30.106998473520207	pulse	0.0	t		31.0	female	white	2.1822522881018704	smiling	102	sub-03	2.0	1.0	102_smiling	0.0		132.47854099082633	
3.0	30.25689202442254	fix	1.0		445	31.0	female	white	2.1822522881018704	smiling	102	sub-03	2.0	1.0	102_smiling	0.0		132.62843454172867	3.766559377406338
3.0	30.807008525285255	pulse	1.0	t		31.0	female	white	2.1822522881018704	smiling	102	sub-03	2.0	1.0	102_smiling	0.0		133.17855104259138	
3.0	31.50698839156962	pulse	1.0	t		31.0	female	white	2.1822522881018704	smiling	102	sub-03	2.0	1.0	102_smiling	0.0		133.87853090887575	
3.0	32.206966748580044	pulse	1.0	t		31.0	female	white	2.1822522881018704	smiling	102	sub-03	2.0	1.0	102_smiling	0.0		134.57850926588617	
3.0	32.90694178518743	pulse	1.0	t		31.0	female	white	2.1822522881018704	smiling	102	sub-03	2.0	1.0	102_smiling	0.0		135.27848430249355	
3.0	33.6069192366333	pulse	1.0	t		31.0	female	white	2.1822522881018704	smiling	102	sub-03	2.0	1.0	102_smiling	0.0		135.97846175393943	
4.0	34.02345140182888	face	0.0		145	30.0	female	black	2.7345801830481498	neutral	062	sub-03	2.0	1.0	062_neutral	0.0		136.394993919135	1.2333328604274811
4.0	34.30691842162537	pulse	0.0	t		30.0	female	black	2.7345801830481498	neutral	062	sub-03	2.0	1.0	062_neutral	0.0		136.6784609389315	
4.0	35.00689285452313	pulse	0.0	t		30.0	female	black	2.7345801830481498	neutral	062	sub-03	2.0	1.0	062_neutral	0.0		137.37843537182926	
4.0	35.25678426225636	fix	1.0		444	30.0	female	black	2.7345801830481498	neutral	062	sub-03	2.0	1.0	062_neutral	0.0		137.62832677956249	3.7665705460340178
4.0	35.706887209838214	pulse	1.0	t		30.0	female	black	2.7345801830481498	neutral	062	sub-03	2.0	1.0	062_neutral	0.0		138.07842972714434	
4.0	36.40687281136388	pulse	1.0	t		30.0	female	black	2.7345801830481498	neutral	062	sub-03	2.0	1.0	062_neutral	0.0		138.77841532867	
4.0	37.10686837409821	pulse	1.0	t		30.0	female	black	2.7345801830481498	neutral	062	sub-03	2.0	1.0	062_neutral	0.0		139.47841089140434	
4.0	37.80684129772203	pulse	1.0	t		30.0	female	black	2.7345801830481498	neutral	062	sub-03	2.0	1.0	062_neutral	0.0		140.17838381502816	
4.0	38.50682418255451	pulse	1.0	t		30.0	female	black	2.7345801830481498	neutral	062	sub-03	2.0	1.0	062_neutral	0.0		140.87836669986063	
5.0	39.02335480829038	face	0.0		145	27.0	female	white	3.504576203740549	neutral	144	sub-03	2.0	1.0	144_neutral	0.0		141.3948973255965	1.2333238047833674
5.0	39.20681370819261	pulse	0.0	t		27.0	female	white	3.504576203740549	neutral	144	sub-03	2.0	1.0	144_neutral	0.0		141.57835622549874	
5.0	39.906796291170394	pulse	0.0	t		27.0	female	white	3.504576203740549	neutral	144	sub-03	2.0	1.0	144_neutral	0.0		142.27833880847652	
5.0	40.256678613073746	fix	1.0		444	27.0	female	white	3.504576203740549	neutral	144	sub-03	2.0	1.0	144_neutral	0.0		142.62822113037987	3.758239353354611
5.0	40.606805437370895	pulse	1.0	t		27.0	female	white	3.504576203740549	neutral	144	sub-03	2.0	1.0	144_neutral	0.0		142.97834795467702	
5.0	41.306767192366806	pulse	1.0	t		27.0	female	white	3.504576203740549	neutral	144	sub-03	2.0	1.0	144_neutral	0.0		143.67830970967293	
5.0	42.00674343639366	pulse	1.0	t		27.0	female	white	3.504576203740549	neutral	144	sub-03	2.0	1.0	144_neutral	0.0		144.3782859536998	
5.0	42.706737187999124	pulse	1.0	t		27.0	female	white	3.504576203740549	neutral	144	sub-03	2.0	1.0	144_neutral	0.0		145.07827970530525	
5.0	43.39857753940646	pulse	1.0	t		27.0	female	white	3.504576203740549	neutral	144	sub-03	2.0	1.0	144_neutral	0.0		145.77012005671259	
6.0	44.01491796642836	face	0.0		146	26.0	male	white	2.7966573816155993	neutral	117	sub-03	2.0	1.0	117_neutral	0.0		146.38646048373448	1.2416513752050378
6.0	44.106730728306275	pulse	0.0	t		26.0	male	white	2.7966573816155993	neutral	117	sub-03	2.0	1.0	117_neutral	0.0		146.4782732456124	
6.0	44.806711802009886	pulse	0.0	t		26.0	male	white	2.7966573816155993	neutral	117	sub-03	2.0	1.0	117_neutral	0.0		147.178254319316	
6.0	45.256569341633394	fix	1.0		444	26.0	male	white	2.7966573816155993	neutral	117	sub-03	2.0	1.0	117_neutral	0.0		147.62811185893952	3.766571451598793
6.0	45.50669951651912	pulse	1.0	t		26.0	male	white	2.7966573816155993	neutral	117	sub-03	2.0	1.0	117_neutral	0.0		147.87824203382525	
6.0	46.198521756638	pulse	1.0	t		26.0	male	white	2.7966573816155993	neutral	117	sub-03	2.0	1.0	117_neutral	0.0		148.57006427394413	
6.0	46.90663932667053	pulse	1.0	t		26.0	male	white	2.7966573816155993	neutral	117	sub-03	2.0	1.0	117_neutral	0.0		149.27818184397665	
6.0	47.59849929864026	pulse	1.0	t		26.0	male	white	2.7966573816155993	neutral	117	sub-03	2.0	1.0	117_neutral	0.0		149.9700418159464	
6.0	48.29847675008614	pulse	1.0	t		26.0	male	white	2.7966573816155993	neutral	117	sub-03	2.0	1.0	117_neutral	0.0		150.67001926739226	
7.0	49.02314079323219	face	0.0		146	31.0	male	west_asian	1.9538400318344609	neutral	070	sub-03	2.0	1.0	070_neutral	0.0		151.3946833105383	1.2333256159120083
7.0	49.00933153951087	pulse	0.0	t		31.0	male	west_asian	1.9538400318344609	neutral	070	sub-03	2.0	1.0	070_neutral	0.0		151.380874056817	
7.0	49.70659078841754	pulse	0.0	t		31.0	male	west_asian	1.9538400318344609	neutral	070	sub-03	2.0	1.0	070_neutral	0.0		152.07813330572367	
7.0	50.256466409144195	fix	1.0		447	31.0	male	west_asian	1.9538400318344609	neutral	070	sub-03	2.0	1.0	070_neutral	0.0		152.62800892645032	3.7582562572238203
7.0	50.39841665079416	pulse	1.0	t		31.0	male	west_asian	1.9538400318344609	neutral	070	sub-03	2.0	1.0	070_neutral	0.0		152.76995916810029	
7.0	51.09839380038511	pulse	1.0	t		31.0	male	west_asian	1.9538400318344609	neutral	070	sub-03	2.0	1.0	070_neutral	0.0		153.46993631769124	
7.0	51.79840837997244	pulse	1.0	t		31.0	male	west_asian	1.9538400318344609	neutral	070	sub-03	2.0	1.0	070_neutral	0.0		154.16995089727857	
7.0	52.49845374874985	pulse	1.0	t		31.0	male	west_asian	1.9538400318344609	neutral	070	sub-03	2.0	1.0	070_neutral	0.0		154.86999626605598	
7.0	53.206515777498	pulse	1.0	t		31.0	male	west_asian	1.9538400318344609	neutral	070	sub-03	2.0	1.0	070_neutral	0.0		155.57805829480412	
7.0	53.89838088099941	pulse	1.0	t		31.0	male	west_asian	1.9538400318344609	neutral	070	sub-03	2.0	1.0	070_neutral	0.0		156.26992339830554	
8.0	54.014722666368016	face	0.0		147	19.0	female	white	4.298846000795861	smiling	100	sub-03	2.0	1.0	100_smiling	1.0	trustworthiness	156.38626518367414	1.241635980609999
8.0	54.606486980549334	pulse	0.0	t		19.0	female	white	4.298846000795861	smiling	100	sub-03	2.0	1.0	100_smiling	1.0	trustworthiness	156.97802949785546	
8.0	55.256358646978015	fix	1.0		176	19.0	female	white	4.298846000795861	smiling	100	sub-03	2.0	1.0	100_smiling	1.0	trustworthiness	157.62790116428414	1.4999738895592145
8.0	55.30650065457212	pulse	1.0	t		19.0	female	white	4.298846000795861	smiling	100	sub-03	2.0	1.0	100_smiling	1.0	trustworthiness	157.67804317187824	
8.0	55.998307500095734	pulse	1.0	t		19.0	female	white	4.298846000795861	smiling	100	sub-03	2.0	1.0	100_smiling	1.0	trustworthiness	158.36985001740186	
8.0	56.706422051580375	pulse	1.0	t		19.0	female	white	4.298846000795861	smiling	100	sub-03	2.0	1.0	100_smiling	1.0	trustworthiness	159.0779645688865	
8.0	56.75633253653723	rating	2.0		295	19.0	female	white	4.298846000795861	smiling	100	sub-03	2.0	1.0	100_smiling	1.0	trustworthiness	159.12787505384335	2.4999434022236073
8.0	57.40117228332929	pulse	2.0	t		19.0	female	white	4.298846000795861	smiling	100	sub-03	2.0	1.0	100_smiling	1.0	trustworthiness	159.7727148006354	
8.0	58.10114369767916	pulse	2.0	t		19.0	female	white	4.298846000795861	smiling	100	sub-03	2.0	1.0	100_smiling	1.0	trustworthiness	160.4726862149853	
8.0	58.531394560153785	response	2.0	b		19.0	female	white	4.298846000795861	smiling	100	sub-03	2.0	1.0	100_smiling	1.0	trustworthiness	160.9029370774599	
8.0	58.80111692315768	pulse	2.0	t		19.0	female	white	4.298846000795861	smiling	100	sub-03	2.0	1.0	100_smiling	1.0	trustworthiness	161.1726594404638	
8.0	59.25627593876084	fix	3.0		444	19.0	female	white	4.298846000795861	smiling	100	sub-03	2.0	1.0	100_smiling	1.0	trustworthiness	161.62781845606696	3.7665657163572632
8.0	59.506382267116805	pulse	3.0	t		19.0	female	white	4.298846000795861	smiling	100	sub-03	2.0	1.0	100_smiling	1.0	trustworthiness	161.87792478442293	
8.0	60.19822050554035	pulse	3.0	t		19.0	female	white	4.298846000795861	smiling	100	sub-03	2.0	1.0	100_smiling	1.0	trustworthiness	162.56976302284647	
8.0	60.90636977032773	pulse	3.0	t		19.0	female	white	4.298846000795861	smiling	100	sub-03	2.0	1.0	100_smiling	1.0	trustworthiness	163.27791228763385	
8.0	61.60632820492083	pulse	3.0	t		19.0	female	white	4.298846000795861	smiling	100	sub-03	2.0	1.0	100_smiling	1.0	trustworthiness	163.97787072222695	
8.0	62.29818002681077	pulse	3.0	t		19.0	female	white	4.298846000795861	smiling	100	sub-03	2.0	1.0	100_smiling	1.0	trustworthiness	164.6697225441169	
9.0	63.0228416551181	face	0.0		146	26.0	female	white	4.854755272582572	neutral	027	sub-03	2.0	1.0	027_neutral	0.0		165.39438417242422	1.2333156547035742
9.0	63.00930346701375	pulse	0.0	t		26.0	female	white	4.854755272582572	neutral	027	sub-03	2.0	1.0	027_neutral	0.0		165.38084598431988	
9.0	63.70628953731989	pulse	0.0	t		26.0	female	white	4.854755272582572	neutral	027	sub-03	2.0	1.0	027_neutral	0.0		166.07783205462601	
9.0	64.25615730982167	fix	1.0		443	26.0	female	white	4.854755272582572	neutral	027	sub-03	2.0	1.0	027_neutral	0.0		166.6276998271278	3.7665762812755474
9.0	64.4062820815061	pulse	1.0	t		26.0	female	white	4.854755272582572	neutral	027	sub-03	2.0	1.0	027_neutral	0.0		166.77782459881223	
9.0	65.10625500512992	pulse	1.0	t		26.0	female	white	4.854755272582572	neutral	027	sub-03	2.0	1.0	027_neutral	0.0		167.47779752243605	
9.0	65.80624060665559	pulse	1.0	t		26.0	female	white	4.854755272582572	neutral	027	sub-03	2.0	1.0	027_neutral	0.0		168.17778312396172	
9.0	66.5062406972122	pulse	1.0	t		26.0	female	white	4.854755272582572	neutral	027	sub-03	2.0	1.0	027_neutral	0.0		168.87778321451833	
9.0	67.20620698003017	pulse	1.0	t		26.0	female	white	4.854755272582572	neutral	027	sub-03	2.0	1.0	027_neutral	0.0		169.5777494973363	
9.0	67.90619771308752	pulse	1.0	t		26.0	female	white	4.854755272582572	neutral	027	sub-03	2.0	1.0	027_neutral	0.0		170.27774023039365	
10.0	68.02273359109722	face	0.0		146	31.0	female	west_asian	2.364902506963788	smiling	006	sub-03	2.0	1.0	006_smiling	0.0		170.39427610840335	1.233331049298613
10.0	68.60619116283829	pulse	0.0	t		31.0	female	west_asian	2.364902506963788	smiling	006	sub-03	2.0	1.0	006_smiling	0.0		170.9777336801444	
10.0	69.25606464039583	fix	1.0		443	31.0	female	west_asian	2.364902506963788	smiling	006	sub-03	2.0	1.0	006_smiling	0.0		171.62760715770196	3.7665696404696973
10.0	69.30617525509001	pulse	1.0	t		31.0	female	west_asian	2.364902506963788	smiling	006	sub-03	2.0	1.0	006_smiling	0.0		171.67771777239614	
10.0	70.00615270653589	pulse	1.0	t		31.0	female	west_asian	2.364902506963788	smiling	006	sub-03	2.0	1.0	006_smiling	0.0		172.377695223842	
10.0	70.70614404330286	pulse	1.0	t		31.0	female	west_asian	2.364902506963788	smiling	006	sub-03	2.0	1.0	006_smiling	0.0		173.07768656060898	
10.0	71.40611575950743	pulse	1.0	t		31.0	female	west_asian	2.364902506963788	smiling	006	sub-03	2.0	1.0	006_smiling	0.0		173.77765827681355	
10.0	72.10610619071008	pulse	1.0	t		31.0	female	west_asian	2.364902506963788	smiling	006	sub-03	2.0	1.0	006_smiling	0.0		174.4776487080162	
10.0	72.80609360336462	pulse	1.0	t		31.0	female	west_asian	2.364902506963788	smiling	006	sub-03	2.0	1.0	006_smiling	0.0		175.17763612067074	
11.0	73.02263428086553	face	0.0		145	30.0	female	black	2.7345801830481498	smiling	062	sub-03	2.0	1.0	062_smiling	0.0		175.39417679817166	1.2333241066380651
11.0	73.50606954553632	pulse	0.0	t		30.0	female	black	2.7345801830481498	smiling	062	sub-03	2.0	1.0	062_smiling	0.0		175.87761206284245	
11.0	74.20606118415822	pulse	0.0	t		30.0	female	black	2.7345801830481498	smiling	062	sub-03	2.0	1.0	062_smiling	0.0		176.57760370146434	
11.0	74.2559583875036	fix	1.0		444	30.0	female	black	2.7345801830481498	smiling	062	sub-03	2.0	1.0	062_smiling	0.0		176.62750090480972	3.758237542225743
11.0	74.9060555394733	pulse	1.0	t		30.0	female	black	2.7345801830481498	smiling	062	sub-03	2.0	1.0	062_smiling	0.0		177.27759805677942	
11.0	75.60603751874146	pulse	1.0	t		30.0	female	black	2.7345801830481498	smiling	062	sub-03	2.0	1.0	062_smiling	0.0		177.97758003604758	
11.0	76.30602130913826	pulse	1.0	t		30.0	female	black	2.7345801830481498	smiling	062	sub-03	2.0	1.0	062_smiling	0.0		178.67756382644438	
11.0	77.00600238284187	pulse	1.0	t		30.0	female	black	2.7345801830481498	smiling	062	sub-03	2.0	1.0	062_smiling	0.0		179.377544900148	
11.0	77.7059840602551	pulse	1.0	t		30.0	female	black	2.7345801830481498	smiling	062	sub-03	2.0	1.0	062_smiling	0.0		180.07752657756123	
12.0	78.01419592972934	face	0.0		146	22.0	female	west_asian	3.8205332272184642	smiling	066	sub-03	2.0	1.0	066_smiling	1.0	attractiveness	180.38573844703546	1.2416546956080765
12.0	78.40597751000564	pulse	0.0	t		22.0	female	west_asian	3.8205332272184642	smiling	066	sub-03	2.0	1.0	066_smiling	1.0	attractiveness	180.77752002731177	
12.0	79.10596160225737	pulse	0.0	t		22.0	female	west_asian	3.8205332272184642	smiling	066	sub-03	2.0	1.0	066_smiling	1.0	attractiveness	181.4775041195635	
12.0	79.25585062533742	fix	1.0		177	22.0	female	west_asian	3.8205332272184642	smiling	066	sub-03	2.0	1.0	066_smiling	1.0	attractiveness	181.62739314264354	1.4999711728660259
12.0	79.8059514297504	pulse	1.0	t		22.0	female	west_asian	3.8205332272184642	smiling	066	sub-03	2.0	1.0	066_smiling	1.0	attractiveness	182.17749394705652	
12.0	80.50593129603476	pulse	1.0	t		22.0	female	west_asian	3.8205332272184642	smiling	066	sub-03	2.0	1.0	066_smiling	1.0	attractiveness	182.87747381334088	
12.0	80.75582179820344	rating	2.0		295	22.0	female	west_asian	3.8205332272184642	smiling	066	sub-03	2.0	1.0	066_smiling	1.0	attractiveness	183.12736431550957	2.4999443077879278
12.0	81.20067186842994	pulse	2.0	t		22.0	female	west_asian	3.8205332272184642	smiling	066	sub-03	2.0	1.0	066_smiling	1.0	attractiveness	183.57221438573606	
12.0	81.90066682745464	pulse	2.0	t		22.0	female	west_asian	3.8205332272184642	smiling	066	sub-03	2.0	1.0	066_smiling	1.0	attractiveness	184.27220934476077	
12.0	82.27255557222452	response	2.0	g		22.0	female	west_asian	3.8205332272184642	smiling	066	sub-03	2.0	1.0	066_smiling	1.0	attractiveness	184.64409808953064	
12.0	82.60587753569348	pulse	2.0	t		22.0	female	west_asian	3.8205332272184642	smiling	066	sub-03	2.0	1.0	066_smiling	1.0	attractiveness	184.9774200529996	
12.0	83.25576610599137	fix	3.0		443	22.0	female	west_asian	3.8205332272184642	smiling	066	sub-03	2.0	1.0	066_smiling	1.0	attractiveness	185.6273086232975	3.766573866437284
12.0	83.30587158915387	pulse	3.0	t		22.0	female	west_asian	3.8205332272184642	smiling	066	sub-03	2.0	1.0	066_smiling	1.0	attractiveness	185.67741410646	
12.0	84.00585779438916	pulse	3.0	t		22.0	female	west_asian	3.8205332272184642	smiling	066	sub-03	2.0	1.0	066_smiling	1.0	attractiveness	186.37740031169528	
12.0	84.70584671631764	pulse	3.0	t		22.0	female	west_asian	3.8205332272184642	smiling	066	sub-03	2.0	1.0	066_smiling	1.0	attractiveness	187.07738923362376	
12.0	85.40582597889238	pulse	3.0	t		22.0	female	west_asian	3.8205332272184642	smiling	066	sub-03	2.0	1.0	066_smiling	1.0	attractiveness	187.7773684961985	
12.0	86.10582305090088	pulse	3.0	t		22.0	female	west_asian	3.8205332272184642	smiling	066	sub-03	2.0	1.0	066_smiling	1.0	attractiveness	188.477365568207	
12.0	86.80579174855734	pulse	3.0	t		22.0	female	west_asian	3.8205332272184642	smiling	066	sub-03	2.0	1.0	066_smiling	1.0	attractiveness	189.17733426586346	
13.0	87.02233997242865	face	0.0		145	21.0	male	east_asian/white	3.501790688420215	smiling	036	sub-03	2.0	1.0	036_smiling	0.0		189.39388248973478	1.2333201825254037
13.0	87.50578821685599	pulse	0.0	t		21.0	male	east_asian/white	3.501790688420215	smiling	036	sub-03	2.0	1.0	036_smiling	0.0		189.87733073416211	
13.0	88.20576506459247	pulse	0.0	t		21.0	male	east_asian/white	3.501790688420215	smiling	036	sub-03	2.0	1.0	036_smiling	0.0		190.5773075818986	
13.0	88.25566015495406	fix	1.0		445	21.0	male	east_asian/white	3.501790688420215	smiling	036	sub-03	2.0	1.0	036_smiling	0.0		190.62720267226018	3.7665717534534906
13.0	88.90575489208527	pulse	1.0	t		21.0	male	east_asian/white	3.501790688420215	smiling	036	sub-03	2.0	1.0	036_smiling	0.0		191.2772974093914	
13.0	89.6057423047398	pulse	1.0	t		21.0	male	east_asian/white	3.501790688420215	smiling	036	sub-03	2.0	1.0	036_smiling	0.0		191.97728482204593	
13.0	90.30571975618591	pulse	1.0	t		21.0	male	east_asian/white	3.501790688420215	smiling	036	sub-03	2.0	1.0	036_smiling	0.0		192.67726227349203	
13.0	91.00571109295288	pulse	1.0	t		21.0	male	east_asian/white	3.501790688420215	smiling	036	sub-03	2.0	1.0	036_smiling	0.0		193.377253610259	
13.0	91.70568643141519	pulse	1.0	t		21.0	male	east_asian/white	3.501790688420215	smiling	036	sub-03	2.0	1.0	036_smiling	0.0		194.0772289487213	
14.0	92.02223190840755	face	0.0		145	21.0	male	east_asian/white	3.501790688420215	neutral	036	sub-03	2.0	1.0	036_neutral	0.0		194.39377442571367	1.2333108250265923
14.0	92.40568652197157	pulse	0.0	t		21.0	male	east_asian/white	3.501790688420215	neutral	036	sub-03	2.0	1.0	036_neutral	0.0		194.7772290392777	
14.0	93.10566125672426	pulse	0.0	t		21.0	male	east_asian/white	3.501790688420215	neutral	036	sub-03	2.0	1.0	036_neutral	0.0		195.4772037740304	
14.0	93.25554273343414	fix	1.0		444	21.0	male	east_asian/white	3.501790688420215	neutral	036	sub-03	2.0	1.0	036_neutral	0.0		195.62708525074027	3.7583268912485437
14.0	93.80565561203935	pulse	1.0	t		21.0	male	east_asian/white	3.501790688420215	neutral	036	sub-03	2.0	1.0	036_neutral	0.0		196.17719812934547	
14.0	94.5056381950169	pulse	1.0	t		21.0	male	east_asian/white	3.501790688420215	neutral	036	sub-03	2.0	1.0	036_neutral	0.0		196.87718071232302	
14.0	95.20562047613976	pulse	1.0	t		21.0	male	east_asian/white	3.501790688420215	neutral	036	sub-03	2.0	1.0	036_neutral	0.0		197.57716299344588	
14.0	95.90559822944033	pulse	1.0	t		21.0	male	east_asian/white	3.501790688420215	neutral	036	sub-03	2.0	1.0	036_neutral	0.0		198.27714074674645	
14.0	96.60559107548147	pulse	1.0	t		21.0	male	east_asian/white	3.501790688420215	neutral	036	sub-03	2.0	1.0	036_neutral	0.0		198.9771335927876	
15.0	97.01386962468268	face	0.0		146	20.0	female	white	3.9502586549940313	neutral	091	sub-03	2.0	1.0	091_neutral	0.0		199.3854121419888	1.2415789300514462
15.0	97.30558452523223	pulse	0.0	t		20.0	female	white	3.9502586549940313	neutral	091	sub-03	2.0	1.0	091_neutral	0.0		199.67712704253836	
15.0	98.00555352474339	pulse	0.0	t		20.0	female	white	3.9502586549940313	neutral	091	sub-03	2.0	1.0	091_neutral	0.0		200.37709604204952	
15.0	98.25544855473413	fix	1.0		444	20.0	female	white	3.9502586549940313	neutral	091	sub-03	2.0	1.0	091_neutral	0.0		200.62699107204025	3.7583504359238304
15.0	98.70555059675189	pulse	1.0	t		20.0	female	white	3.9502586549940313	neutral	091	sub-03	2.0	1.0	091_neutral	0.0		201.07709311405802	
15.0	99.40553257601982	pulse	1.0	t		20.0	female	white	3.9502586549940313	neutral	091	sub-03	2.0	1.0	091_neutral	0.0		201.77707509332595	
15.0	100.10551485714268	pulse	1.0	t		20.0	female	white	3.9502586549940313	neutral	091	sub-03	2.0	1.0	091_neutral	0.0		202.4770573744488	
15.0	100.80550196794229	pulse	1.0	t		20.0	female	white	3.9502586549940313	neutral	091	sub-03	2.0	1.0	091_neutral	0.0		203.17704448524842	
15.0	101.50549058801607	pulse	1.0	t		20.0	female	white	3.9502586549940313	neutral	091	sub-03	2.0	1.0	091_neutral	0.0		203.8770331053222	
16.0	102.01379899065796	face	0.0		146	20.0	male	black	2.609629924393156	smiling	043	sub-03	2.0	1.0	043_smiling	0.0		204.38534150796409	1.2415430093292343
16.0	102.2054743784131	pulse	0.0	t		20.0	male	black	2.609629924393156	smiling	043	sub-03	2.0	1.0	043_smiling	0.0		204.57701689571923	
16.0	102.90545454655216	pulse	0.0	t		20.0	male	black	2.609629924393156	smiling	043	sub-03	2.0	1.0	043_smiling	0.0		205.2769970638583	
16.0	103.2553419999872	fix	1.0		444	20.0	male	black	2.609629924393156	smiling	043	sub-03	2.0	1.0	043_smiling	0.0		205.62688451729332	3.7665741682919816
16.0	103.60544709073838	pulse	1.0	t		20.0	male	black	2.609629924393156	smiling	043	sub-03	2.0	1.0	043_smiling	0.0		205.9769896080445	
16.0	104.30543027742556	pulse	1.0	t		20.0	male	black	2.609629924393156	smiling	043	sub-03	2.0	1.0	043_smiling	0.0		206.67697279473168	
16.0	105.00541376596766	pulse	1.0	t		20.0	male	black	2.609629924393156	smiling	043	sub-03	2.0	1.0	043_smiling	0.0		207.37695628327378	
16.0	105.70539665080014	pulse	1.0	t		20.0	male	black	2.609629924393156	smiling	043	sub-03	2.0	1.0	043_smiling	0.0		208.07693916810626	
16.0	106.40537953563262	pulse	1.0	t		20.0	male	black	2.609629924393156	smiling	043	sub-03	2.0	1.0	043_smiling	0.0		208.77692205293874	
17.0	107.02191616827918	face	0.0		145	19.0	female	white	4.298846000795861	neutral	100	sub-03	2.0	1.0	100_neutral	0.0		209.3934586855853	1.233320182525631
17.0	107.10536362788412	pulse	0.0	t		19.0	female	white	4.298846000795861	neutral	100	sub-03	2.0	1.0	100_neutral	0.0		209.47690614519024	
17.0	107.80536069989262	pulse	0.0	t		19.0	female	white	4.298846000795861	neutral	100	sub-03	2.0	1.0	100_neutral	0.0		210.17690321719874	
17.0	108.25523635080481	fix	1.0		444	19.0	female	white	4.298846000795861	neutral	100	sub-03	2.0	1.0	100_neutral	0.0		210.62677886811093	3.766568131195754
17.0	108.50534599956359	pulse	1.0	t		19.0	female	white	4.298846000795861	neutral	100	sub-03	2.0	1.0	100_neutral	0.0		210.8768885168697	
17.0	109.2053273751219	pulse	1.0	t		19.0	female	white	4.298846000795861	neutral	100	sub-03	2.0	1.0	100_neutral	0.0		211.57686989242802	
17.0	109.90531327850249	pulse	1.0	t		19.0	female	white	4.298846000795861	neutral	100	sub-03	2.0	1.0	100_neutral	0.0		212.27685579580861	
17.0	110.60529314478663	pulse	1.0	t		19.0	female	white	4.298846000795861	neutral	100	sub-03	2.0	1.0	100_neutral	0.0		212.97683566209275	
17.0	111.30526999252311	pulse	1.0	t		19.0	female	white	4.298846000795861	neutral	100	sub-03	2.0	1.0	100_neutral	0.0		213.67681250982923	
18.0	112.02180448200056	face	0.0		146	24.0	female	east_asian	4.409868682849185	neutral	030	sub-03	2.0	1.0	030_neutral	0.0		214.3933469993067	1.233326219621631
18.0	112.00783584894089	pulse	0.0	t		24.0	female	east_asian	4.409868682849185	neutral	030	sub-03	2.0	1.0	030_neutral	0.0		214.379378366247	
18.0	112.70525085492818	pulse	0.0	t		24.0	female	east_asian	4.409868682849185	neutral	030	sub-03	2.0	1.0	030_neutral	0.0		215.0767933722343	
18.0	113.25513070162219	fix	1.0		443	24.0	female	east_asian	4.409868682849185	neutral	030	sub-03	2.0	1.0	030_neutral	0.0		215.62667321892832	3.766571149743868
18.0	113.40523947500196	pulse	1.0	t		24.0	female	east_asian	4.409868682849185	neutral	030	sub-03	2.0	1.0	030_neutral	0.0		215.7767819923081	
18.0	114.10521843572201	pulse	1.0	t		24.0	female	east_asian	4.409868682849185	neutral	030	sub-03	2.0	1.0	030_neutral	0.0		216.47676095302813	
18.0	114.80521218732747	pulse	1.0	t		24.0	female	east_asian	4.409868682849185	neutral	030	sub-03	2.0	1.0	030_neutral	0.0		217.1767547046336	
18.0	115.50519144990221	pulse	1.0	t		24.0	female	east_asian	4.409868682849185	neutral	030	sub-03	2.0	1.0	030_neutral	0.0		217.87673396720834	
18.0	116.20517976812107	pulse	1.0	t		24.0	female	east_asian	4.409868682849185	neutral	030	sub-03	2.0	1.0	030_neutral	0.0		218.5767222854272	
18.0	116.9051560121477	pulse	1.0	t		24.0	female	east_asian	4.409868682849185	neutral	030	sub-03	2.0	1.0	030_neutral	0.0		219.27669852945382	
19.0	117.02170185136606	face	0.0		146	37.0	male	white	3.898925586947871	neutral	101	sub-03	2.0	1.0	101_neutral	0.0		219.39324436867219	1.2333228992188197
19.0	117.60515006560809	pulse	0.0	t		37.0	male	white	3.898925586947871	neutral	101	sub-03	2.0	1.0	101_neutral	0.0		219.9766925829142	
19.0	118.25502475058488	fix	1.0		443	37.0	male	white	3.898925586947871	neutral	101	sub-03	2.0	1.0	101_neutral	0.0		220.626567267891	3.7582405607738565
19.0	118.30516283406655	pulse	1.0	t		37.0	male	white	3.898925586947871	neutral	101	sub-03	2.0	1.0	101_neutral	0.0		220.67670535137268	
19.0	119.00510979817682	pulse	1.0	t		37.0	male	white	3.898925586947871	neutral	101	sub-03	2.0	1.0	101_neutral	0.0		221.37665231548294	
19.0	119.70510626647547	pulse	1.0	t		37.0	male	white	3.898925586947871	neutral	101	sub-03	2.0	1.0	101_neutral	0.0		222.0766487837816	
19.0	120.40508341606665	pulse	1.0	t		37.0	male	white	3.898925586947871	neutral	101	sub-03	2.0	1.0	101_neutral	0.0		222.77662593337277	
19.0	121.10506962130194	pulse	1.0	t		37.0	male	white	3.898925586947871	neutral	101	sub-03	2.0	1.0	101_neutral	0.0		223.47661213860806	
19.0	121.80505461911798	pulse	1.0	t		37.0	male	white	3.898925586947871	neutral	101	sub-03	2.0	1.0	101_neutral	0.0		224.1765971364241	
20.0	122.01326531135874	face	0.0		146	26.0	male	white	2.7966573816155993	smiling	117	sub-03	2.0	1.0	117_smiling	0.0		224.38480782866486	1.2416537900435287
20.0	122.50504897443307	pulse	0.0	t		26.0	male	white	2.7966573816155993	smiling	117	sub-03	2.0	1.0	117_smiling	0.0		224.8765914917392	
20.0	123.20502219991181	pulse	0.0	t		26.0	male	white	2.7966573816155993	smiling	117	sub-03	2.0	1.0	117_smiling	0.0		225.57656471721793	
20.0	123.25491910140227	fix	1.0		1185	26.0	male	white	2.7966573816155993	smiling	117	sub-03	2.0	1.0	117_smiling	0.0		225.6264616187084	10.016440220221284
20.0	123.90498818087508	pulse	1.0	t		26.0	male	white	2.7966573816155993	smiling	117	sub-03	2.0	1.0	117_smiling	0.0		226.2765306981812	
20.0	124.60500789199386	pulse	1.0	t		26.0	male	white	2.7966573816155993	smiling	117	sub-03	2.0	1.0	117_smiling	0.0		226.9765504093	
20.0	125.30497719335995	pulse	1.0	t		26.0	male	white	2.7966573816155993	smiling	117	sub-03	2.0	1.0	117_smiling	0.0		227.67651971066607	
20.0	126.00496128561167	pulse	1.0	t		26.0	male	white	2.7966573816155993	smiling	117	sub-03	2.0	1.0	117_smiling	0.0		228.3765038029178	
20.0	126.70494930197583	pulse	1.0	t		26.0	male	white	2.7966573816155993	smiling	117	sub-03	2.0	1.0	117_smiling	0.0		229.07649181928196	
20.0	127.4049294701149	pulse	1.0	t		26.0	male	white	2.7966573816155993	smiling	117	sub-03	2.0	1.0	117_smiling	0.0		229.77647198742102	
20.0	128.10492261801096	pulse	1.0	t		26.0	male	white	2.7966573816155993	smiling	117	sub-03	2.0	1.0	117_smiling	0.0		230.47646513531708	
20.0	128.80490037131153	pulse	1.0	t		26.0	male	white	2.7966573816155993	smiling	117	sub-03	2.0	1.0	117_smiling	0.0		231.17644288861766	
20.0	129.50489865073905	pulse	1.0	t		26.0	male	white	2.7966573816155993	smiling	117	sub-03	2.0	1.0	117_smiling	0.0		231.87644116804518	
20.0	130.20487821516872	pulse	1.0	t		26.0	male	white	2.7966573816155993	smiling	117	sub-03	2.0	1.0	117_smiling	0.0		232.57642073247484	
20.0	130.9048586851627	pulse	1.0	t		26.0	male	white	2.7966573816155993	smiling	117	sub-03	2.0	1.0	117_smiling	0.0		233.27640120246883	
20.0	131.60484639967194	pulse	1.0	t		26.0	male	white	2.7966573816155993	smiling	117	sub-03	2.0	1.0	117_smiling	0.0		233.97638891697807	
20.0	132.30483139748821	pulse	1.0	t		26.0	male	white	2.7966573816155993	smiling	117	sub-03	2.0	1.0	117_smiling	0.0		234.67637391479434	
20.0	133.0048206212714	pulse	1.0	t		26.0	male	white	2.7966573816155993	smiling	117	sub-03	2.0	1.0	117_smiling	0.0		235.37636313857752	
21.0	133.27135932162355	face	0.0		145	24.0	female	east_asian	2.9076800636689217	smiling	034	sub-03	2.0	1.0	034_smiling	0.0		235.64290183892967	1.2333183713967628
21.0	133.7048095432001	pulse	0.0	t		24.0	female	east_asian	2.9076800636689217	smiling	034	sub-03	2.0	1.0	034_smiling	0.0		236.07635206050622	
21.0	134.4047960502901	pulse	0.0	t		24.0	female	east_asian	2.9076800636689217	smiling	034	sub-03	2.0	1.0	034_smiling	0.0		236.7763385675962	
21.0	134.5046776930203	fix	1.0		444	24.0	female	east_asian	2.9076800636689217	smiling	034	sub-03	2.0	1.0	034_smiling	0.0		236.87622021032644	3.7665777905494906
21.0	135.10478346294462	pulse	1.0	t		24.0	female	east_asian	2.9076800636689217	smiling	034	sub-03	2.0	1.0	034_smiling	0.0		237.47632598025075	
21.0	135.80476000882618	pulse	1.0	t		24.0	female	east_asian	2.9076800636689217	smiling	034	sub-03	2.0	1.0	034_smiling	0.0		238.1763025261323	
21.0	136.50474772333564	pulse	1.0	t		24.0	female	east_asian	2.9076800636689217	smiling	034	sub-03	2.0	1.0	034_smiling	0.0		238.87629024064177	
21.0	137.2047224580881	pulse	1.0	t		24.0	female	east_asian	2.9076800636689217	smiling	034	sub-03	2.0	1.0	034_smiling	0.0		239.57626497539422	
21.0	137.90471107816188	pulse	1.0	t		24.0	female	east_asian	2.9076800636689217	smiling	034	sub-03	2.0	1.0	034_smiling	0.0		240.276253595468	
22.0	138.2712554835698	face	0.0		145	21.0	male	black	2.969757262236371	smiling	137	sub-03	2.0	1.0	137_smiling	0.0		240.64279800087593	1.2333180695420651
22.0	138.60470482976734	pulse	0.0	t		21.0	male	black	2.969757262236371	smiling	137	sub-03	2.0	1.0	137_smiling	0.0		240.97624734707347	
22.0	139.3046895257287	pulse	0.0	t		21.0	male	black	2.969757262236371	smiling	137	sub-03	2.0	1.0	137_smiling	0.0		241.67623204303482	
22.0	139.50457355311187	fix	1.0		444	21.0	male	black	2.969757262236371	smiling	137	sub-03	2.0	1.0	137_smiling	0.0		241.876116070418	3.7665744701466792
22.0	140.0046733161255	pulse	1.0	t		21.0	male	black	2.969757262236371	smiling	137	sub-03	2.0	1.0	137_smiling	0.0		242.37621583343162	
22.0	140.70465710652252	pulse	1.0	t		21.0	male	black	2.969757262236371	smiling	137	sub-03	2.0	1.0	137_smiling	0.0		243.07619962382864	
22.0	141.40464210433856	pulse	1.0	t		21.0	male	black	2.969757262236371	smiling	137	sub-03	2.0	1.0	137_smiling	0.0		243.7761846216447	
22.0	142.10462770586423	pulse	1.0	t		21.0	male	black	2.969757262236371	smiling	137	sub-03	2.0	1.0	137_smiling	0.0		244.47617022317036	
22.0	142.8046105906967	pulse	1.0	t		21.0	male	black	2.969757262236371	smiling	137	sub-03	2.0	1.0	137_smiling	0.0		245.17615310800284	
23.0	143.27114802325855	face	0.0		145	19.0	male	white	2.243931555909272	smiling	130	sub-03	2.0	1.0	130_smiling	0.0		245.64269054056467	1.2333210880899514
23.0	143.50460434230217	pulse	0.0	t		19.0	male	white	2.243931555909272	smiling	130	sub-03	2.0	1.0	130_smiling	0.0		245.8761468596083	
23.0	144.20457605850675	pulse	0.0	t		19.0	male	white	2.243931555909272	smiling	130	sub-03	2.0	1.0	130_smiling	0.0		246.57611857581287	
23.0	144.5044691113485	fix	1.0		444	19.0	male	white	2.243931555909272	smiling	130	sub-03	2.0	1.0	130_smiling	0.0		246.87601162865462	3.7582450885959133
23.0	144.9045722249507	pulse	1.0	t		19.0	male	white	2.243931555909272	smiling	130	sub-03	2.0	1.0	130_smiling	0.0		247.27611474225682	
23.0	145.60455480792825	pulse	1.0	t		19.0	male	white	2.243931555909272	smiling	130	sub-03	2.0	1.0	130_smiling	0.0		247.97609732523438	
23.0	146.3045373909058	pulse	1.0	t		19.0	male	white	2.243931555909272	smiling	130	sub-03	2.0	1.0	130_smiling	0.0		248.67607990821193	
23.0	147.0045290295277	pulse	1.0	t		19.0	male	white	2.243931555909272	smiling	130	sub-03	2.0	1.0	130_smiling	0.0		249.37607154683383	
23.0	147.70450617911888	pulse	1.0	t		19.0	male	white	2.243931555909272	smiling	130	sub-03	2.0	1.0	130_smiling	0.0		250.076048696425	
24.0	148.2627141999444	face	0.0		146	36.0	female	white	2.7548746518105847	neutral	011	sub-03	2.0	1.0	011_neutral	0.0		250.63425671725054	1.2416504696407173
24.0	148.40450234556283	pulse	0.0	t		36.0	female	white	2.7548746518105847	neutral	011	sub-03	2.0	1.0	011_neutral	0.0		250.77604486286896	
24.0	149.10447557104135	pulse	0.0	t		36.0	female	white	2.7548746518105847	neutral	011	sub-03	2.0	1.0	011_neutral	0.0		251.47601808834747	
24.0	149.50436466958513	fix	1.0		444	36.0	female	white	2.7548746518105847	neutral	011	sub-03	2.0	1.0	011_neutral	0.0		251.87590718689125	3.766572960872736
24.0	149.8044687189372	pulse	1.0	t		36.0	female	white	2.7548746518105847	neutral	011	sub-03	2.0	1.0	011_neutral	0.0		252.1760112362433	
24.0	150.50444677409268	pulse	1.0	t		36.0	female	white	2.7548746518105847	neutral	011	sub-03	2.0	1.0	011_neutral	0.0		252.8759892913988	
24.0	151.20442362182894	pulse	1.0	t		36.0	female	white	2.7548746518105847	neutral	011	sub-03	2.0	1.0	011_neutral	0.0		253.57596613913506	
24.0	151.90442310867593	pulse	1.0	t		36.0	female	white	2.7548746518105847	neutral	011	sub-03	2.0	1.0	011_neutral	0.0		254.27596562598205	
24.0	152.6044062953631	pulse	1.0	t		36.0	female	white	2.7548746518105847	neutral	011	sub-03	2.0	1.0	011_neutral	0.0		254.97594881266923	
25.0	153.27093763045787	face	0.0		145	19.0	male	white	3.2522881018702745	smiling	018	sub-03	2.0	1.0	018_smiling	0.0		255.642480147764	1.2333210880899514
25.0	153.3044003488235	pulse	0.0	t		19.0	male	white	3.2522881018702745	smiling	018	sub-03	2.0	1.0	018_smiling	0.0		255.67594286612962	
25.0	154.00438021510763	pulse	0.0	t		19.0	male	white	3.2522881018702745	smiling	018	sub-03	2.0	1.0	018_smiling	0.0		256.37592273241376	
25.0	154.50425871854782	fix	1.0		443	19.0	male	white	3.2522881018702745	smiling	018	sub-03	2.0	1.0	018_smiling	0.0		256.87580123585394	3.75823029771027
25.0	154.70436732590747	pulse	1.0	t		19.0	male	white	3.2522881018702745	smiling	018	sub-03	2.0	1.0	018_smiling	0.0		257.0759098432136	
25.0	155.4043456829179	pulse	1.0	t		19.0	male	white	3.2522881018702745	smiling	018	sub-03	2.0	1.0	018_smiling	0.0		257.775888200224	
25.0	156.10433460484614	pulse	1.0	t		19.0	male	white	3.2522881018702745	smiling	018	sub-03	2.0	1.0	018_smiling	0.0		258.47587712215227	
25.0	156.8043208100819	pulse	1.0	t		19.0	male	white	3.2522881018702745	smiling	018	sub-03	2.0	1.0	018_smiling	0.0		259.175863327388	
25.0	157.50430067636603	pulse	1.0	t		19.0	male	white	3.2522881018702745	smiling	018	sub-03	2.0	1.0	018_smiling	0.0		259.87584319367215	
25.0	158.20428235377926	pulse	1.0	t		19.0	male	white	3.2522881018702745	smiling	018	sub-03	2.0	1.0	018_smiling	0.0		260.5758248710854	
26.0	158.2624890162581	face	0.0		147	31.0	female	east_asian	3.395941106247513	neutral	087	sub-03	2.0	1.0	087_neutral	0.0		260.6340315335642	1.2416619401237767
26.0	158.9042755016751	pulse	0.0	t		31.0	female	east_asian	3.395941106247513	neutral	087	sub-03	2.0	1.0	087_neutral	0.0		261.2758180189812	
26.0	159.50415095638186	fix	1.0		443	31.0	female	east_asian	3.395941106247513	neutral	087	sub-03	2.0	1.0	087_neutral	0.0		261.875693473688	3.758377301001019
26.0	159.60426291432964	pulse	1.0	t		31.0	female	east_asian	3.395941106247513	neutral	087	sub-03	2.0	1.0	087_neutral	0.0		261.97580543163576	
26.0	160.30424096948514	pulse	1.0	t		31.0	female	east_asian	3.395941106247513	neutral	087	sub-03	2.0	1.0	087_neutral	0.0		262.67578348679126	
26.0	161.00423411738097	pulse	1.0	t		31.0	female	east_asian	3.395941106247513	neutral	087	sub-03	2.0	1.0	087_neutral	0.0		263.3757766346871	
26.0	161.70421187068155	pulse	1.0	t		31.0	female	east_asian	3.395941106247513	neutral	087	sub-03	2.0	1.0	087_neutral	0.0		264.0757543879877	
26.0	162.40419928333608	pulse	1.0	t		31.0	female	east_asian	3.395941106247513	neutral	087	sub-03	2.0	1.0	087_neutral	0.0		264.7757418006422	
26.0	163.10418488486198	pulse	1.0	t		31.0	female	east_asian	3.395941106247513	neutral	087	sub-03	2.0	1.0	087_neutral	0.0		265.4757274021681	
27.0	163.26252825738288	face	0.0		147	28.0	female	white	5.676880222841227	smiling	124	sub-03	2.0	1.0	124_smiling	0.0		265.634070774689	1.2415197665095548
27.0	163.8041738067907	pulse	0.0	t		28.0	female	white	5.676880222841227	smiling	124	sub-03	2.0	1.0	124_smiling	0.0		266.1757163240968	
27.0	164.50404802389244	fix	1.0		444	28.0	female	white	5.676880222841227	smiling	124	sub-03	2.0	1.0	124_smiling	0.0		266.87559054119856	3.7665702441795474
27.0	164.51154096577216	pulse	1.0	t		28.0	female	white	5.676880222841227	smiling	124	sub-03	2.0	1.0	124_smiling	0.0		266.8830834830783	
27.0	165.20414350056785	pulse	1.0	t		28.0	female	white	5.676880222841227	smiling	124	sub-03	2.0	1.0	124_smiling	0.0		267.575686017874	
27.0	165.90411823532054	pulse	1.0	t		28.0	female	white	5.676880222841227	smiling	124	sub-03	2.0	1.0	124_smiling	0.0		268.27566075262666	
27.0	166.6041083646685	pulse	1.0	t		28.0	female	white	5.676880222841227	smiling	124	sub-03	2.0	1.0	124_smiling	0.0		268.9756508819746	
27.0	167.3040855142592	pulse	1.0	t		28.0	female	white	5.676880222841227	smiling	124	sub-03	2.0	1.0	124_smiling	0.0		269.67562803156534	
27.0	168.00407383247853	pulse	1.0	t		28.0	female	white	5.676880222841227	smiling	124	sub-03	2.0	1.0	124_smiling	0.0		270.37561634978465	
28.0	168.27061826807198	face	0.0		145	31.0	female	west_asian	2.364902506963788	neutral	006	sub-03	2.0	1.0	006_neutral	0.0		270.6421607853781	1.2333192769610832
28.0	168.7040712063415	pulse	0.0	t		31.0	female	west_asian	2.364902506963788	neutral	006	sub-03	2.0	1.0	006_neutral	0.0		271.0756137236476	
28.0	169.40405318560965	pulse	0.0	t		31.0	female	west_asian	2.364902506963788	neutral	006	sub-03	2.0	1.0	006_neutral	0.0		271.7755957029158	
28.0	169.50393754503307	fix	1.0		444	31.0	female	west_asian	2.364902506963788	neutral	006	sub-03	2.0	1.0	006_neutral	0.0		271.8754800623392	3.7665756775659247
28.0	170.10403607044213	pulse	1.0	t		31.0	female	west_asian	2.364902506963788	neutral	006	sub-03	2.0	1.0	006_neutral	0.0		272.47557858774826	
28.0	170.80401986083893	pulse	1.0	t		31.0	female	west_asian	2.364902506963788	neutral	006	sub-03	2.0	1.0	006_neutral	0.0		273.17556237814506	
28.0	171.50400395309066	pulse	1.0	t		31.0	female	west_asian	2.364902506963788	neutral	006	sub-03	2.0	1.0	006_neutral	0.0		273.8755464703968	
28.0	172.2039814045363	pulse	1.0	t		31.0	female	west_asian	2.364902506963788	neutral	006	sub-03	2.0	1.0	006_neutral	0.0		274.57552392184243	
28.0	172.90397877839973	pulse	1.0	t		31.0	female	west_asian	2.364902506963788	neutral	006	sub-03	2.0	1.0	006_neutral	0.0		275.27552129570586	
29.0	173.270513222599	face	0.0		145	19.0	male	white	3.2522881018702745	neutral	018	sub-03	2.0	1.0	018_neutral	0.0		275.6420557399051	1.2333201825254037
29.0	173.60396347436085	pulse	0.0	t		19.0	male	white	3.2522881018702745	neutral	018	sub-03	2.0	1.0	018_neutral	0.0		275.975505991667	
29.0	174.3039478684675	pulse	0.0	t		19.0	male	white	3.2522881018702745	neutral	018	sub-03	2.0	1.0	018_neutral	0.0		276.6754903857736	
29.0	174.5038334051244	fix	1.0		444	19.0	male	white	3.2522881018702745	neutral	018	sub-03	2.0	1.0	018_neutral	0.0		276.8753759224305	3.7582411644834792
29.0	175.00394101636334	pulse	1.0	t		19.0	male	white	3.2522881018702745	neutral	018	sub-03	2.0	1.0	018_neutral	0.0		277.37548353366947	
29.0	175.7039160529705	pulse	1.0	t		19.0	male	white	3.2522881018702745	neutral	018	sub-03	2.0	1.0	018_neutral	0.0		278.0754585702766	
29.0	176.40389833409358	pulse	1.0	t		19.0	male	white	3.2522881018702745	neutral	018	sub-03	2.0	1.0	018_neutral	0.0		278.7754408513997	
29.0	177.10387880408757	pulse	1.0	t		19.0	male	white	3.2522881018702745	neutral	018	sub-03	2.0	1.0	018_neutral	0.0		279.4754213213937	
29.0	177.80386712230643	pulse	1.0	t		19.0	male	white	3.2522881018702745	neutral	018	sub-03	2.0	1.0	018_neutral	0.0		280.17540963961255	
30.0	178.26207456960788	face	0.0		146	23.0	male	white	2.6275368085953046	smiling	141	sub-03	2.0	1.0	141_smiling	0.0		280.633617086914	1.2416537900435287
30.0	178.50387958890974	pulse	0.0	t		23.0	male	white	2.6275368085953046	smiling	141	sub-03	2.0	1.0	141_smiling	0.0		280.87542210621586	
30.0	179.20383500495495	pulse	0.0	t		23.0	male	white	2.6275368085953046	smiling	141	sub-03	2.0	1.0	141_smiling	0.0		281.5753775222611	
30.0	179.5037283596514	fix	1.0		444	23.0	male	white	2.6275368085953046	smiling	141	sub-03	2.0	1.0	141_smiling	0.0		281.87527087695753	3.758287348268823
30.0	179.90383237881792	pulse	1.0	t		23.0	male	white	2.6275368085953046	smiling	141	sub-03	2.0	1.0	141_smiling	0.0		282.27537489612405	
30.0	180.60381164139267	pulse	1.0	t		23.0	male	white	2.6275368085953046	smiling	141	sub-03	2.0	1.0	141_smiling	0.0		282.9753541586988	
30.0	181.30379452622515	pulse	1.0	t		23.0	male	white	2.6275368085953046	smiling	141	sub-03	2.0	1.0	141_smiling	0.0		283.6753370435313	
30.0	182.00378103331536	pulse	1.0	t		23.0	male	white	2.6275368085953046	smiling	141	sub-03	2.0	1.0	141_smiling	0.0		284.3753235506215	
30.0	182.70376723855065	pulse	1.0	t		23.0	male	white	2.6275368085953046	smiling	141	sub-03	2.0	1.0	141_smiling	0.0		285.0753097558568	
31.0	183.26201570792023	face	0.0		146	40.0	male	white	1.868682849184242	neutral	172	sub-03	2.0	1.0	172_neutral	0.0		285.63355822522635	1.2416067006938647
31.0	183.40375495306012	pulse	0.0	t		40.0	male	white	1.868682849184242	neutral	172	sub-03	2.0	1.0	172_neutral	0.0		285.77529747036624	
31.0	184.10372998966727	pulse	0.0	t		40.0	male	white	1.868682849184242	neutral	172	sub-03	2.0	1.0	172_neutral	0.0		286.4752725069734	
31.0	184.5036224086141	fix	1.0		444	40.0	male	white	1.868682849184242	neutral	172	sub-03	2.0	1.0	172_neutral	0.0		286.8751649259202	3.766574168292209
31.0	184.80372947651426	pulse	1.0	t		40.0	male	white	1.868682849184242	neutral	172	sub-03	2.0	1.0	172_neutral	0.0		287.1752719938204	
31.0	185.50370994650825	pulse	1.0	t		40.0	male	white	1.868682849184242	neutral	172	sub-03	2.0	1.0	172_neutral	0.0		287.8752524638144	
31.0	186.20369071835717	pulse	1.0	t		40.0	male	white	1.868682849184242	neutral	172	sub-03	2.0	1.0	172_neutral	0.0		288.5752332356633	
31.0	186.90367360318965	pulse	1.0	t		40.0	male	white	1.868682849184242	neutral	172	sub-03	2.0	1.0	172_neutral	0.0		289.27521612049577	
31.0	187.60366705293995	pulse	1.0	t		40.0	male	white	1.868682849184242	neutral	172	sub-03	2.0	1.0	172_neutral	0.0		289.9752095702461	
32.0	188.2701965769063	face	0.0		145	32.0	male	white	2.389176283326701	neutral	092	sub-03	2.0	1.0	092_neutral	0.0		290.6417390942124	1.2333201825254037
32.0	188.30368072696297	pulse	0.0	t		32.0	male	white	2.389176283326701	neutral	092	sub-03	2.0	1.0	092_neutral	0.0		290.6752232442691	
32.0	189.00363010591195	pulse	0.0	t		32.0	male	white	2.389176283326701	neutral	092	sub-03	2.0	1.0	092_neutral	0.0		291.3751726232181	
32.0	189.5035167594317	fix	1.0		443	32.0	male	white	2.389176283326701	neutral	092	sub-03	2.0	1.0	092_neutral	0.0		291.87505927673783	3.766570847888943
32.0	189.70362536679136	pulse	1.0	t		32.0	male	white	2.389176283326701	neutral	092	sub-03	2.0	1.0	092_neutral	0.0		292.0751678840975	
32.0	190.40360342194685	pulse	1.0	t		32.0	male	white	2.389176283326701	neutral	092	sub-03	2.0	1.0	092_neutral	0.0		292.775145939253	
32.0	191.10358691048873	pulse	1.0	t		32.0	male	white	2.389176283326701	neutral	092	sub-03	2.0	1.0	092_neutral	0.0		293.47512942779485	
32.0	191.8035634563705	pulse	1.0	t		32.0	male	white	2.389176283326701	neutral	092	sub-03	2.0	1.0	092_neutral	0.0		294.17510597367664	
32.0	192.50356083023348	pulse	1.0	t		32.0	male	white	2.389176283326701	neutral	092	sub-03	2.0	1.0	092_neutral	0.0		294.8751033475396	
32.0	193.20354130022747	pulse	1.0	t		32.0	male	white	2.389176283326701	neutral	092	sub-03	2.0	1.0	092_neutral	0.0		295.5750838175336	
33.0	193.27008760732065	face	0.0		146	25.0	female	west_asian	2.6756864305610826	smiling	064	sub-03	2.0	1.0	064_smiling	0.0		295.6416301246268	1.2333213899446491
33.0	193.90354954086365	pulse	0.0	t		25.0	female	west_asian	2.6756864305610826	smiling	064	sub-03	2.0	1.0	064_smiling	0.0		296.2750920581698	
33.0	194.5034089972653	fix	1.0		443	25.0	female	west_asian	2.6756864305610826	smiling	064	sub-03	2.0	1.0	064_smiling	0.0		296.8749515145714	3.7665723571631133
33.0	194.6035263885999	pulse	1.0	t		25.0	female	west_asian	2.6756864305610826	smiling	064	sub-03	2.0	1.0	064_smiling	0.0		296.975068905906	
33.0	195.3035011233526	pulse	1.0	t		25.0	female	west_asian	2.6756864305610826	smiling	064	sub-03	2.0	1.0	064_smiling	0.0		297.6750436406587	
33.0	196.00348219705643	pulse	1.0	t		25.0	female	west_asian	2.6756864305610826	smiling	064	sub-03	2.0	1.0	064_smiling	0.0		298.37502471436255	
33.0	196.70347172269453	pulse	1.0	t		25.0	female	west_asian	2.6756864305610826	smiling	064	sub-03	2.0	1.0	064_smiling	0.0		299.07501424000066	
33.0	197.40344857043078	pulse	1.0	t		25.0	female	west_asian	2.6756864305610826	smiling	064	sub-03	2.0	1.0	064_smiling	0.0		299.7749910877369	
33.0	198.10343990719753	pulse	1.0	t		25.0	female	west_asian	2.6756864305610826	smiling	064	sub-03	2.0	1.0	064_smiling	0.0		300.47498242450365	
34.0	198.2699813544284	face	0.0		146	22.0	male	black	2.767608436132113	neutral	044	sub-03	2.0	1.0	044_neutral	0.0		300.64152387173453	1.2333228992188197
34.0	198.80342943283608	pulse	0.0	t		22.0	male	black	2.767608436132113	neutral	044	sub-03	2.0	1.0	044_neutral	0.0		301.1749719501422	
34.0	199.50330425364723	fix	1.0		444	22.0	male	black	2.767608436132113	neutral	044	sub-03	2.0	1.0	044_neutral	0.0		301.87484677095335	3.7665744701466792
34.0	199.51087054624554	pulse	1.0	t		22.0	male	black	2.767608436132113	neutral	044	sub-03	2.0	1.0	044_neutral	0.0		301.88241306355167	
34.0	200.2034009377419	pulse	1.0	t		22.0	male	black	2.767608436132113	neutral	044	sub-03	2.0	1.0	044_neutral	0.0		302.574943455048	
34.0	200.9033835207199	pulse	1.0	t		22.0	male	black	2.767608436132113	neutral	044	sub-03	2.0	1.0	044_neutral	0.0		303.274926038026	
34.0	201.60336067031062	pulse	1.0	t		22.0	male	black	2.767608436132113	neutral	044	sub-03	2.0	1.0	044_neutral	0.0		303.97490318761675	
34.0	202.30334415885295	pulse	1.0	t		22.0	male	black	2.767608436132113	neutral	044	sub-03	2.0	1.0	044_neutral	0.0		304.6748866761591	
34.0	203.00333881602296	pulse	1.0	t		22.0	male	black	2.767608436132113	neutral	044	sub-03	2.0	1.0	044_neutral	0.0		305.3748813333291	
35.0	203.2698787237939	face	0.0		145	22.0	female	white	4.614007162753682	smiling	009	sub-03	2.0	1.0	009_smiling	0.0		305.64142124110003	1.233318975106613
35.0	203.70332894537046	pulse	0.0	t		22.0	female	white	4.614007162753682	smiling	009	sub-03	2.0	1.0	009_smiling	0.0		306.0748714626766	
35.0	204.4033106227837	pulse	0.0	t		22.0	female	white	4.614007162753682	smiling	009	sub-03	2.0	1.0	009_smiling	0.0		306.7748531400898	
35.0	204.50319769890052	fix	1.0		444	22.0	female	white	4.614007162753682	smiling	009	sub-03	2.0	1.0	009_smiling	0.0		306.87474021620665	3.7583510396329984
35.0	205.1032962243096	pulse	1.0	t		22.0	female	white	4.614007162753682	smiling	009	sub-03	2.0	1.0	009_smiling	0.0		307.4748387416157	
35.0	205.80327578873926	pulse	1.0	t		22.0	female	white	4.614007162753682	smiling	009	sub-03	2.0	1.0	009_smiling	0.0		308.1748183060454	
35.0	206.503267125506	pulse	1.0	t		22.0	female	white	4.614007162753682	smiling	009	sub-03	2.0	1.0	009_smiling	0.0		308.8748096428121	
35.0	207.20324065283944	pulse	1.0	t		22.0	female	white	4.614007162753682	smiling	009	sub-03	2.0	1.0	009_smiling	0.0		309.57478317014557	
35.0	207.90323048033247	pulse	1.0	t		22.0	female	white	4.614007162753682	smiling	009	sub-03	2.0	1.0	009_smiling	0.0		310.2747729976386	
36.0	208.26154873853352	face	0.0		146	24.0	male	white	3.1153999204138483	smiling	012	sub-03	2.0	1.0	012_smiling	0.0		310.63309125583964	1.2415433111841594
36.0	208.60321668556776	pulse	0.0	t		24.0	male	white	3.1153999204138483	smiling	012	sub-03	2.0	1.0	012_smiling	0.0		310.9747592028739	
36.0	209.30322100209173	pulse	0.0	t		24.0	male	white	3.1153999204138483	smiling	012	sub-03	2.0	1.0	012_smiling	0.0		311.67476351939786	
36.0	209.50309204971768	fix	1.0		444	24.0	male	white	3.1153999204138483	smiling	012	sub-03	2.0	1.0	012_smiling	0.0		311.8746345670238	3.7665777905499453
36.0	210.00319151087683	pulse	1.0	t		24.0	male	white	3.1153999204138483	smiling	012	sub-03	2.0	1.0	012_smiling	0.0		312.37473402818296	
36.0	210.70317198087082	pulse	1.0	t		24.0	male	white	3.1153999204138483	smiling	012	sub-03	2.0	1.0	012_smiling	0.0		313.07471449817695	
36.0	211.40316150650892	pulse	1.0	t		24.0	male	white	3.1153999204138483	smiling	012	sub-03	2.0	1.0	012_smiling	0.0		313.77470402381505	
36.0	212.10314227835784	pulse	1.0	t		24.0	male	white	3.1153999204138483	smiling	012	sub-03	2.0	1.0	012_smiling	0.0		314.47468479566396	
36.0	212.80312938915745	pulse	1.0	t		24.0	male	white	3.1153999204138483	smiling	012	sub-03	2.0	1.0	012_smiling	0.0		315.1746719064636	
37.0	213.26966984026762	face	0.0		145	24.0	female	black	3.0955033824114606	smiling	099	sub-03	2.0	1.0	099_smiling	0.0		315.64121235757375	1.2333171639775173
37.0	213.5031225370533	pulse	0.0	t		24.0	female	black	3.0955033824114606	smiling	099	sub-03	2.0	1.0	099_smiling	0.0		315.8746650543594	
37.0	214.20310179962803	pulse	0.0	t		24.0	female	black	3.0955033824114606	smiling	099	sub-03	2.0	1.0	099_smiling	0.0		316.57464431693415	
37.0	214.50298700424514	fix	1.0		444	24.0	female	black	3.0955033824114606	smiling	099	sub-03	2.0	1.0	099_smiling	0.0		316.87452952155127	3.7665747720011495
37.0	214.90309313639523	pulse	1.0	t		24.0	female	black	3.0955033824114606	smiling	099	sub-03	2.0	1.0	099_smiling	0.0		317.27463565370135	
37.0	215.60307300267937	pulse	1.0	t		24.0	female	black	3.0955033824114606	smiling	099	sub-03	2.0	1.0	099_smiling	0.0		317.9746155199855	
37.0	216.3030564912217	pulse	1.0	t		24.0	female	black	3.0955033824114606	smiling	099	sub-03	2.0	1.0	099_smiling	0.0		318.6745990085278	
37.0	217.00304239460206	pulse	1.0	t		24.0	female	black	3.0955033824114606	smiling	099	sub-03	2.0	1.0	099_smiling	0.0		319.3745849119082	
37.0	217.70302226088666	pulse	1.0	t		24.0	female	black	3.0955033824114606	smiling	099	sub-03	2.0	1.0	099_smiling	0.0		320.0745647781928	
38.0	218.2695617762463	face	0.0		145	28.0	male	white	3.9076800636689217	smiling	033	sub-03	2.0	1.0	033_smiling	1.0	dominance	320.6411042935524	1.2333174658324424
38.0	218.40301661620174	pulse	0.0	t		28.0	male	white	3.9076800636689217	smiling	033	sub-03	2.0	1.0	033_smiling	1.0	dominance	320.77455913350786	
38.0	219.10299467135724	pulse	0.0	t		28.0	male	white	3.9076800636689217	smiling	033	sub-03	2.0	1.0	033_smiling	1.0	dominance	321.47453718866336	
38.0	219.50287924207873	fix	1.0		177	28.0	male	white	3.9076800636689217	smiling	033	sub-03	2.0	1.0	033_smiling	1.0	dominance	321.87442175938486	1.4999717765754212
38.0	219.80299053594604	pulse	1.0	t		28.0	male	white	3.9076800636689217	smiling	033	sub-03	2.0	1.0	033_smiling	1.0	dominance	322.17453305325216	
38.0	220.5029719115048	pulse	1.0	t		28.0	male	white	3.9076800636689217	smiling	033	sub-03	2.0	1.0	033_smiling	1.0	dominance	322.8745144288109	
38.0	221.00285101865416	rating	2.0		294	28.0	male	white	3.9076800636689217	smiling	033	sub-03	2.0	1.0	033_smiling	1.0	dominance	323.3743935359603	2.4999431003689097
38.0	221.1977049375298	pulse	2.0	t		28.0	male	white	3.9076800636689217	smiling	033	sub-03	2.0	1.0	033_smiling	1.0	dominance	323.56924745483593	
38.0	221.89767605002476	pulse	2.0	t		28.0	male	white	3.9076800636689217	smiling	033	sub-03	2.0	1.0	033_smiling	1.0	dominance	324.2692185673309	
38.0	222.59767100904924	pulse	2.0	t		28.0	male	white	3.9076800636689217	smiling	033	sub-03	2.0	1.0	033_smiling	1.0	dominance	324.96921352635536	
38.0	222.81432216540975	response	2.0	y		28.0	male	white	3.9076800636689217	smiling	033	sub-03	2.0	1.0	033_smiling	1.0	dominance	325.1858646827159	
38.0	223.3029209584131	pulse	2.0	t		28.0	male	white	3.9076800636689217	smiling	033	sub-03	2.0	1.0	033_smiling	1.0	dominance	325.6744634757192	
38.0	223.50279411902306	fix	3.0		444	28.0	male	white	3.9076800636689217	smiling	033	sub-03	2.0	1.0	033_smiling	1.0	dominance	325.8743366363292	3.758370962050776
38.0	224.00291320074462	pulse	3.0	t		28.0	male	white	3.9076800636689217	smiling	033	sub-03	2.0	1.0	033_smiling	1.0	dominance	326.37445571805074	
38.0	224.7028846150945	pulse	3.0	t		28.0	male	white	3.9076800636689217	smiling	033	sub-03	2.0	1.0	033_smiling	1.0	dominance	327.0744271324006	
38.0	225.40285119976738	pulse	3.0	t		28.0	male	white	3.9076800636689217	smiling	033	sub-03	2.0	1.0	033_smiling	1.0	dominance	327.7743937170735	
38.0	226.10284615879186	pulse	3.0	t		28.0	male	white	3.9076800636689217	smiling	033	sub-03	2.0	1.0	033_smiling	1.0	dominance	328.474388676098	
38.0	226.80282451580229	pulse	3.0	t		28.0	male	white	3.9076800636689217	smiling	033	sub-03	2.0	1.0	033_smiling	1.0	dominance	329.1743670331084	
39.0	227.26116508107384	face	0.0		146	27.0	male	black	3.5523278949462798	smiling	042	sub-03	2.0	1.0	042_smiling	0.0		329.63270759837997	1.241524898041007
39.0	227.50282128595586	pulse	0.0	t		27.0	male	black	3.5523278949462798	smiling	042	sub-03	2.0	1.0	042_smiling	0.0		329.874363803262	
39.0	228.20280507635266	pulse	0.0	t		27.0	male	black	3.5523278949462798	smiling	042	sub-03	2.0	1.0	042_smiling	0.0		330.5743475936588	
39.0	228.50268997911485	fix	1.0		444	27.0	male	black	3.5523278949462798	smiling	042	sub-03	2.0	1.0	042_smiling	0.0		330.874232496421	3.7499187255930337
39.0	228.90280939287618	pulse	1.0	t		27.0	male	black	3.5523278949462798	smiling	042	sub-03	2.0	1.0	042_smiling	0.0		331.2743519101823	
39.0	229.60279499440207	pulse	1.0	t		27.0	male	black	3.5523278949462798	smiling	042	sub-03	2.0	1.0	042_smiling	0.0		331.9743375117082	
39.0	230.3027618809299	pulse	1.0	t		27.0	male	black	3.5523278949462798	smiling	042	sub-03	2.0	1.0	042_smiling	0.0		332.674304398236	
39.0	231.00274114350464	pulse	1.0	t		27.0	male	black	3.5523278949462798	smiling	042	sub-03	2.0	1.0	042_smiling	0.0		333.37428366081076	
39.0	231.7027246320465	pulse	1.0	t		27.0	male	black	3.5523278949462798	smiling	042	sub-03	2.0	1.0	042_smiling	0.0		334.07426714935264	
40.0	232.25260870470788	fix	0.0		720													334.624151222014	5.999875032109685
40.0	232.40272381703858	pulse	0.0	t														334.7742663343447	
40.0	233.10269583509785	pulse	0.0	t														335.474238352404	
40.0	233.8026802292045	pulse	0.0	t														336.1742227465106	
40.0	234.50267579193883	pulse	0.0	t														336.87421830924495	
40.0	235.20267437322104	pulse	0.0	t														337.57421689052717	
40.0	235.9026448820066	pulse	0.0	t														338.2741873993127	
40.0	236.6026229371621	pulse	0.0	t														338.9741654544682	
40.0	237.30260340715608	pulse	0.0	t														339.6741459244622	
40.0	238.00258900868153	pulse	0.0	t														340.37413152598765	
