trial_nr	onset	event_type	phase	response	nr_frames	face_age	face_sex	face_eth	attractiveness	expression	face_id	sub_id	ses	run	trial_type	catch	onset_abs	duration
-1.0	0.056210157292525764	fix	0.0		714												181.34608742688738	5.966234423254036
-1.0	0.70605767625716	pulse	0.0	t													181.995934945852	
-1.0	1.406048409370669	pulse	0.0	t													182.69592567896552	
-1.0	2.106011372009334	pulse	0.0	t													183.3958886416042	
-1.0	2.8059915402682236	pulse	0.0	t													184.09586880986308	
-1.0	3.505987404882262	pulse	0.0	t													184.79586467447712	
-1.0	4.205973610200999	pulse	0.0	t													185.49585087979585	
-1.0	4.905956193283828	pulse	0.0	t													186.19583346287868	
-1.0	5.60591372256863	pulse	0.0	t													186.89579099216348	
0.0	6.022444580546562	face	0.0		144	26.0	male	white	2.7966573816155993	smiling	117	sub-03	1.0	1.0	117_smiling	0.0	187.31232185014142	1.2333073035442794
0.0	6.305904455682139	pulse	0.0	t		26.0	male	white	2.7966573816155993	smiling	117	sub-03	1.0	1.0	117_smiling	0.0	187.595781725277	
0.0	7.005876473910348	pulse	0.0	t		26.0	male	white	2.7966573816155993	smiling	117	sub-03	1.0	1.0	117_smiling	0.0	188.2957537435052	
0.0	7.2557518840908415	fix	1.0		444	26.0	male	white	2.7966573816155993	smiling	117	sub-03	1.0	1.0	117_smiling	0.0	188.5456291536857	3.7665659182021045
0.0	7.705868112582721	pulse	1.0	t		26.0	male	white	2.7966573816155993	smiling	117	sub-03	1.0	1.0	117_smiling	0.0	188.99574538217757	
0.0	8.405834999310173	pulse	1.0	t		26.0	male	white	2.7966573816155993	smiling	117	sub-03	1.0	1.0	117_smiling	0.0	189.69571226890503	
0.0	9.105834184307241	pulse	1.0	t		26.0	male	white	2.7966573816155993	smiling	117	sub-03	1.0	1.0	117_smiling	0.0	190.3957114539021	
0.0	9.805798656210982	pulse	1.0	t		26.0	male	white	2.7966573816155993	smiling	117	sub-03	1.0	1.0	117_smiling	0.0	191.09567592580584	
0.0	10.505781842999568	pulse	1.0	t		26.0	male	white	2.7966573816155993	smiling	117	sub-03	1.0	1.0	117_smiling	0.0	191.79565911259442	
1.0	11.022317802292946	face	0.0		145	26.0	female	white	4.854755272582572	smiling	027	sub-03	1.0	1.0	027_smiling	0.0	192.3121950718878	1.2333100202210971
1.0	11.205760501993609	pulse	0.0	t		26.0	female	white	4.854755272582572	smiling	027	sub-03	1.0	1.0	027_smiling	0.0	192.49563777158846	
1.0	11.905751536959997	pulse	0.0	t		26.0	female	white	4.854755272582572	smiling	027	sub-03	1.0	1.0	027_smiling	0.0	193.19562880655485	
1.0	12.255627822514043	fix	1.0		444	26.0	female	white	4.854755272582572	smiling	027	sub-03	1.0	1.0	027_smiling	0.0	193.5455050921089	3.7665369403155182
1.0	12.605721744070252	pulse	1.0	t		26.0	female	white	4.854755272582572	smiling	027	sub-03	1.0	1.0	027_smiling	0.0	193.8955990136651	
1.0	13.305736927275575	pulse	1.0	t		26.0	female	white	4.854755272582572	smiling	027	sub-03	1.0	1.0	027_smiling	0.0	194.59561419687043	
1.0	14.005725547418024	pulse	1.0	t		26.0	female	white	4.854755272582572	smiling	027	sub-03	1.0	1.0	027_smiling	0.0	195.29560281701288	
1.0	14.705683982261917	pulse	1.0	t		26.0	female	white	4.854755272582572	smiling	027	sub-03	1.0	1.0	027_smiling	0.0	195.99556125185677	
1.0	15.405659320873156	pulse	1.0	t		26.0	female	white	4.854755272582572	smiling	027	sub-03	1.0	1.0	027_smiling	0.0	196.695536590468	
2.0	16.02216476282956	face	0.0		145	26.0	female	white	4.854755272582572	neutral	027	sub-03	1.0	1.0	027_neutral	0.0	197.31204203242442	1.2333223961934436
2.0	16.105644620632575	pulse	0.0	t		26.0	female	white	4.854755272582572	neutral	027	sub-03	1.0	1.0	027_neutral	0.0	197.39552189022743	
2.0	16.805637466716917	pulse	0.0	t		26.0	female	white	4.854755272582572	neutral	027	sub-03	1.0	1.0	027_neutral	0.0	198.09551473631177	
2.0	17.255487159023005	fix	1.0		444	26.0	female	white	4.854755272582572	neutral	027	sub-03	1.0	1.0	027_neutral	0.0	198.54536442861786	3.7665659182021045
2.0	17.505606768268308	pulse	1.0	t		26.0	female	white	4.854755272582572	neutral	027	sub-03	1.0	1.0	027_neutral	0.0	198.79548403786316	
2.0	18.205594784704772	pulse	1.0	t		26.0	female	white	4.854755272582572	neutral	027	sub-03	1.0	1.0	027_neutral	0.0	199.49547205429963	
2.0	18.905552012136923	pulse	1.0	t		26.0	female	white	4.854755272582572	neutral	027	sub-03	1.0	1.0	027_neutral	0.0	200.19542928173178	
2.0	19.605530972983843	pulse	1.0	t		26.0	female	white	4.854755272582572	neutral	027	sub-03	1.0	1.0	027_neutral	0.0	200.8954082425787	
2.0	20.305512046801596	pulse	1.0	t		26.0	female	white	4.854755272582572	neutral	027	sub-03	1.0	1.0	027_neutral	0.0	201.59538931639645	
3.0	21.02205307722511	face	0.0		146	32.0	male	white	2.389176283326701	smiling	092	sub-03	1.0	1.0	092_smiling	0.0	202.31193034681996	1.2332819478936017
3.0	21.00886330919616	pulse	0.0	t		32.0	male	white	2.389176283326701	smiling	092	sub-03	1.0	1.0	092_smiling	0.0	202.298740578791	
3.0	21.70548928708672	pulse	0.0	t		32.0	male	white	2.389176283326701	smiling	092	sub-03	1.0	1.0	092_smiling	0.0	202.99536655668157	
3.0	22.25533502511871	fix	1.0		443	32.0	male	white	2.389176283326701	smiling	092	sub-03	1.0	1.0	092_smiling	0.0	203.54521229471356	3.7665641070841502
3.0	22.405451947872507	pulse	1.0	t		32.0	male	white	2.389176283326701	smiling	092	sub-03	1.0	1.0	092_smiling	0.0	203.69532921746736	
3.0	23.105449321751394	pulse	1.0	t		32.0	male	white	2.389176283326701	smiling	092	sub-03	1.0	1.0	092_smiling	0.0	204.39532659134625	
3.0	23.805423452950663	pulse	1.0	t		32.0	male	white	2.389176283326701	smiling	092	sub-03	1.0	1.0	092_smiling	0.0	205.09530072254552	
3.0	24.505413884211066	pulse	1.0	t		32.0	male	white	2.389176283326701	smiling	092	sub-03	1.0	1.0	092_smiling	0.0	205.79529115380592	
3.0	25.205398580264728	pulse	1.0	t		32.0	male	white	2.389176283326701	smiling	092	sub-03	1.0	1.0	092_smiling	0.0	206.49527584985958	
3.0	25.905368485522104	pulse	1.0	t		32.0	male	white	2.389176283326701	smiling	092	sub-03	1.0	1.0	092_smiling	0.0	207.19524575511696	
4.0	26.02189913220286	face	0.0		146	22.0	female	west_asian	3.8205332272184642	neutral	066	sub-03	1.0	1.0	066_neutral	0.0	207.31177640179772	1.233297040542766
4.0	26.605361331606446	pulse	0.0	t		22.0	female	west_asian	3.8205332272184642	neutral	066	sub-03	1.0	1.0	066_neutral	0.0	207.8952386012013	
4.0	27.255196172745627	fix	1.0		443	22.0	female	west_asian	3.8205332272184642	neutral	066	sub-03	1.0	1.0	066_neutral	0.0	208.54507344234048	3.7665417699633963
4.0	27.305677160384448	pulse	1.0	t		22.0	female	west_asian	3.8205332272184642	neutral	066	sub-03	1.0	1.0	066_neutral	0.0	208.5955544299793	
4.0	28.005351853422553	pulse	1.0	t		22.0	female	west_asian	3.8205332272184642	neutral	066	sub-03	1.0	1.0	066_neutral	0.0	209.2952291230174	
4.0	28.70528463076289	pulse	1.0	t		22.0	female	west_asian	3.8205332272184642	neutral	066	sub-03	1.0	1.0	066_neutral	0.0	209.99516190035774	
4.0	29.405259667521022	pulse	1.0	t		22.0	female	west_asian	3.8205332272184642	neutral	066	sub-03	1.0	1.0	066_neutral	0.0	210.69513693711588	
4.0	30.10526368216574	pulse	1.0	t		22.0	female	west_asian	3.8205332272184642	neutral	066	sub-03	1.0	1.0	066_neutral	0.0	211.3951409517606	
4.0	30.805230568893194	pulse	1.0	t		22.0	female	west_asian	3.8205332272184642	neutral	066	sub-03	1.0	1.0	066_neutral	0.0	212.09510783848805	
5.0	31.021737942709024	face	0.0		145	32.0	male	white	2.389176283326701	neutral	092	sub-03	1.0	1.0	092_neutral	0.0	212.31161521230388	1.2333236036054132
5.0	31.505216472358825	pulse	0.0	t		32.0	male	white	2.389176283326701	neutral	092	sub-03	1.0	1.0	092_neutral	0.0	212.79509374195368	
5.0	32.205183359086504	pulse	0.0	t		32.0	male	white	2.389176283326701	neutral	092	sub-03	1.0	1.0	092_neutral	0.0	213.49506062868136	
5.0	32.25506154631444	fix	1.0		444	32.0	male	white	2.389176283326701	neutral	092	sub-03	1.0	1.0	092_neutral	0.0	213.5449388159093	3.7665559570534697
5.0	32.905159905109485	pulse	1.0	t		32.0	male	white	2.389176283326701	neutral	092	sub-03	1.0	1.0	092_neutral	0.0	214.19503717470434	
5.0	33.60515154378186	pulse	1.0	t		32.0	male	white	2.389176283326701	neutral	092	sub-03	1.0	1.0	092_neutral	0.0	214.8950288133767	
5.0	34.30517668813536	pulse	1.0	t		32.0	male	white	2.389176283326701	neutral	092	sub-03	1.0	1.0	092_neutral	0.0	215.59505395773022	
5.0	35.00514146189221	pulse	1.0	t		32.0	male	white	2.389176283326701	neutral	092	sub-03	1.0	1.0	092_neutral	0.0	216.29501873148706	
5.0	35.70510683935481	pulse	1.0	t		32.0	male	white	2.389176283326701	neutral	092	sub-03	1.0	1.0	092_neutral	0.0	216.99498410894967	
6.0	36.02161750336791	face	0.0		145	40.0	male	black	2.408674890569041	smiling	061	sub-03	1.0	1.0	061_smiling	0.0	217.31149477296276	1.2333127368979149
6.0	36.40509062984938	pulse	0.0	t		40.0	male	black	2.408674890569041	smiling	061	sub-03	1.0	1.0	061_smiling	0.0	217.69496789944424	
6.0	37.1051088315844	pulse	0.0	t		40.0	male	black	2.408674890569041	smiling	061	sub-03	1.0	1.0	061_smiling	0.0	218.39498610117926	
6.0	37.25493024026582	fix	1.0		444	40.0	male	black	2.408674890569041	smiling	061	sub-03	1.0	1.0	061_smiling	0.0	218.54480750986068	3.76655203296491
6.0	37.80504523116042	pulse	1.0	t		40.0	male	black	2.408674890569041	smiling	061	sub-03	1.0	1.0	061_smiling	0.0	219.09492250075527	
6.0	38.505065244013394	pulse	1.0	t		40.0	male	black	2.408674890569041	smiling	061	sub-03	1.0	1.0	061_smiling	0.0	219.79494251360825	
6.0	39.20500405841335	pulse	1.0	t		40.0	male	black	2.408674890569041	smiling	061	sub-03	1.0	1.0	061_smiling	0.0	220.4948813280082	
6.0	39.90498030258345	pulse	1.0	t		40.0	male	black	2.408674890569041	smiling	061	sub-03	1.0	1.0	061_smiling	0.0	221.1948575721783	
6.0	40.604985222787036	pulse	1.0	t		40.0	male	black	2.408674890569041	smiling	061	sub-03	1.0	1.0	061_smiling	0.0	221.8948624923819	
7.0	41.02148227323073	face	0.0		145	37.0	male	white	3.898925586947871	neutral	101	sub-03	1.0	1.0	101_neutral	0.0	222.31135954282558	1.2333109257799606
7.0	41.304935507600476	pulse	0.0	t		37.0	male	white	3.898925586947871	neutral	101	sub-03	1.0	1.0	101_neutral	0.0	222.59481277719533	
7.0	42.005001402107155	pulse	0.0	t		37.0	male	white	3.898925586947871	neutral	101	sub-03	1.0	1.0	101_neutral	0.0	223.294878671702	
7.0	42.25479319901069	fix	1.0		444	37.0	male	white	3.898925586947871	neutral	101	sub-03	1.0	1.0	101_neutral	0.0	223.54467046860555	3.7665523348177885
7.0	42.7049157664153	pulse	1.0	t		37.0	male	white	3.898925586947871	neutral	101	sub-03	1.0	1.0	101_neutral	0.0	223.99479303601015	
7.0	43.404916460677214	pulse	1.0	t		37.0	male	white	3.898925586947871	neutral	101	sub-03	1.0	1.0	101_neutral	0.0	224.69479373027207	
7.0	44.10495096247337	pulse	1.0	t		37.0	male	white	3.898925586947871	neutral	101	sub-03	1.0	1.0	101_neutral	0.0	225.39482823206822	
7.0	44.80488404166658	pulse	1.0	t		37.0	male	white	3.898925586947871	neutral	101	sub-03	1.0	1.0	101_neutral	0.0	226.09476131126144	
7.0	45.5048346283329	pulse	1.0	t		37.0	male	white	3.898925586947871	neutral	101	sub-03	1.0	1.0	101_neutral	0.0	226.79471189792775	
8.0	46.02134553382848	face	0.0		145	30.0	female	black	2.7345801830481498	smiling	062	sub-03	1.0	1.0	062_smiling	0.0	227.31122280342333	1.233310623927082
8.0	46.20481600400376	pulse	0.0	t		30.0	female	black	2.7345801830481498	smiling	062	sub-03	1.0	1.0	062_smiling	0.0	227.4946932735986	
8.0	46.9047837962903	pulse	0.0	t		30.0	female	black	2.7345801830481498	smiling	062	sub-03	1.0	1.0	062_smiling	0.0	228.19466106588516	
8.0	47.25465615775556	fix	1.0		444	30.0	female	black	2.7345801830481498	smiling	062	sub-03	1.0	1.0	062_smiling	0.0	228.54453342735042	3.7665719552617247
8.0	47.60477784978639	pulse	1.0	t		30.0	female	black	2.7345801830481498	smiling	062	sub-03	1.0	1.0	062_smiling	0.0	228.89465511938124	
8.0	48.30478699593186	pulse	1.0	t		30.0	female	black	2.7345801830481498	smiling	062	sub-03	1.0	1.0	062_smiling	0.0	229.59466426552672	
8.0	49.00479191613567	pulse	1.0	t		30.0	female	black	2.7345801830481498	smiling	062	sub-03	1.0	1.0	062_smiling	0.0	230.29466918573053	
8.0	49.704713524915405	pulse	1.0	t		30.0	female	black	2.7345801830481498	smiling	062	sub-03	1.0	1.0	062_smiling	0.0	230.99459079451026	
8.0	50.40474440447565	pulse	1.0	t		30.0	female	black	2.7345801830481498	smiling	062	sub-03	1.0	1.0	062_smiling	0.0	231.6946216740705	
9.0	51.02122811301729	face	0.0		145	21.0	male	black	2.969757262236371	neutral	137	sub-03	1.0	1.0	137_neutral	1.0	232.31110538261214	1.2332786275107992
9.0	51.104669031785534	pulse	0.0	t		21.0	male	black	2.969757262236371	neutral	137	sub-03	1.0	1.0	137_neutral	1.0	232.3945463013804	
9.0	51.80466972604722	pulse	0.0	t		21.0	male	black	2.969757262236371	neutral	137	sub-03	1.0	1.0	137_neutral	1.0	233.09454699564208	
9.0	52.254506740528086	fix	1.0		236	21.0	male	black	2.969757262236371	neutral	137	sub-03	1.0	1.0	137_neutral	1.0	233.54438401012294	2.0083248034711687
9.0	52.50462906645021	pulse	1.0	t		21.0	male	black	2.969757262236371	neutral	137	sub-03	1.0	1.0	137_neutral	1.0	233.79450633604506	
9.0	53.204634288506895	pulse	1.0	t		21.0	male	black	2.969757262236371	neutral	137	sub-03	1.0	1.0	137_neutral	1.0	234.49451155810175	
9.0	53.904591817791925	pulse	1.0	t		21.0	male	black	2.969757262236371	neutral	137	sub-03	1.0	1.0	137_neutral	1.0	235.19446908738678	
9.0	54.262831543999255	rating	2.0		234	21.0	male	black	2.969757262236371	neutral	137	sub-03	1.0	1.0	137_neutral	1.0	235.5527088135941	1.9915767924558168
9.0	54.59945769092724	pulse	2.0	t		21.0	male	black	2.969757262236371	neutral	137	sub-03	1.0	1.0	137_neutral	1.0	235.8893349605221	
9.0	55.29945929074802	pulse	2.0	t		21.0	male	black	2.969757262236371	neutral	137	sub-03	1.0	1.0	137_neutral	1.0	236.58933656034287	
9.0	55.832854342955216	response	2.0	y		21.0	male	black	2.969757262236371	neutral	137	sub-03	1.0	1.0	137_neutral	1.0	237.12273161255007	
9.0	55.99946149427501	pulse	2.0	t		21.0	male	black	2.969757262236371	neutral	137	sub-03	1.0	1.0	137_neutral	1.0	237.28933876386986	
9.0	56.25440833645507	fix	3.0		444	21.0	male	black	2.969757262236371	neutral	137	sub-03	1.0	1.0	137_neutral	1.0	237.54428560604993	3.7665550514946062
9.0	56.70451067970953	pulse	3.0	t		21.0	male	black	2.969757262236371	neutral	137	sub-03	1.0	1.0	137_neutral	1.0	237.99438794930438	
9.0	57.404563896390755	pulse	3.0	t		21.0	male	black	2.969757262236371	neutral	137	sub-03	1.0	1.0	137_neutral	1.0	238.6944411659856	
9.0	58.104474940316095	pulse	3.0	t		21.0	male	black	2.969757262236371	neutral	137	sub-03	1.0	1.0	137_neutral	1.0	239.39435220991095	
9.0	58.80459818688996	pulse	3.0	t		21.0	male	black	2.969757262236371	neutral	137	sub-03	1.0	1.0	137_neutral	1.0	240.09447545648482	
9.0	59.504479045516746	pulse	3.0	t		21.0	male	black	2.969757262236371	neutral	137	sub-03	1.0	1.0	137_neutral	1.0	240.7943563151116	
10.0	60.02096338794968	face	0.0		145	23.0	male	white	2.6275368085953046	smiling	141	sub-03	1.0	1.0	141_smiling	1.0	241.31084065754453	1.2333127368979149
10.0	60.204424802535414	pulse	0.0	t		23.0	male	white	2.6275368085953046	smiling	141	sub-03	1.0	1.0	141_smiling	1.0	241.49430207213027	
10.0	60.904415535648695	pulse	0.0	t		23.0	male	white	2.6275368085953046	smiling	141	sub-03	1.0	1.0	141_smiling	1.0	242.19429280524355	
10.0	61.25427612484759	fix	1.0		236	23.0	male	white	2.6275368085953046	smiling	141	sub-03	1.0	1.0	141_smiling	1.0	242.54415339444245	1.9999517035223562
10.0	61.604415928057506	pulse	1.0	t		23.0	male	white	2.6275368085953046	smiling	141	sub-03	1.0	1.0	141_smiling	1.0	242.89429319765236	
10.0	62.30437738143132	pulse	1.0	t		23.0	male	white	2.6275368085953046	smiling	141	sub-03	1.0	1.0	141_smiling	1.0	243.59425465102618	
10.0	63.00435090892461	pulse	1.0	t		23.0	male	white	2.6275368085953046	smiling	141	sub-03	1.0	1.0	141_smiling	1.0	244.29422817851946	
10.0	63.25422782836995	rating	2.0		235	23.0	male	white	2.6275368085953046	smiling	141	sub-03	1.0	1.0	141_smiling	1.0	244.5441050979648	1.9999314793724352
10.0	63.69922734691454	pulse	2.0	t		23.0	male	white	2.6275368085953046	smiling	141	sub-03	1.0	1.0	141_smiling	1.0	244.9891046165094	
10.0	64.39940100293666	pulse	2.0	t		23.0	male	white	2.6275368085953046	smiling	141	sub-03	1.0	1.0	141_smiling	1.0	245.6892782725315	
10.0	64.54088402476282	response	2.0	w		23.0	male	white	2.6275368085953046	smiling	141	sub-03	1.0	1.0	141_smiling	1.0	245.83076129435767	
10.0	65.10430650635044	pulse	2.0	t		23.0	male	white	2.6275368085953046	smiling	141	sub-03	1.0	1.0	141_smiling	1.0	246.3941837759453	
10.0	65.25415930774238	fix	3.0		444	23.0	male	white	2.6275368085953046	smiling	141	sub-03	1.0	1.0	141_smiling	1.0	246.54403657733724	3.7582290406116954
10.0	65.80430086169963	pulse	3.0	t		23.0	male	white	2.6275368085953046	smiling	141	sub-03	1.0	1.0	141_smiling	1.0	247.09417813129448	
10.0	66.50426593730936	pulse	3.0	t		23.0	male	white	2.6275368085953046	smiling	141	sub-03	1.0	1.0	141_smiling	1.0	247.7941432069042	
10.0	67.2042412759206	pulse	3.0	t		23.0	male	white	2.6275368085953046	smiling	141	sub-03	1.0	1.0	141_smiling	1.0	248.49411854551545	
10.0	67.90425857209652	pulse	3.0	t		23.0	male	white	2.6275368085953046	smiling	141	sub-03	1.0	1.0	141_smiling	1.0	249.19413584169138	
10.0	68.60419949946731	pulse	3.0	t		23.0	male	white	2.6275368085953046	smiling	141	sub-03	1.0	1.0	141_smiling	1.0	249.89407676906217	
11.0	69.01238834835408	face	0.0		146	24.0	female	east_asian	4.409868682849185	neutral	030	sub-03	1.0	1.0	030_neutral	0.0	250.30226561794893	1.2416420681638556
11.0	69.30416759360696	pulse	0.0	t		24.0	female	east_asian	4.409868682849185	neutral	030	sub-03	1.0	1.0	030_neutral	0.0	250.59404486320182	
11.0	70.00419877502031	pulse	0.0	t		24.0	female	east_asian	4.409868682849185	neutral	030	sub-03	1.0	1.0	030_neutral	0.0	251.29407604461517	
11.0	70.25403041651794	fix	1.0		444	24.0	female	east_asian	4.409868682849185	neutral	030	sub-03	1.0	1.0	030_neutral	0.0	251.5439076861128	3.758209420167532
11.0	70.70413275977239	pulse	1.0	t		24.0	female	east_asian	4.409868682849185	neutral	030	sub-03	1.0	1.0	030_neutral	0.0	251.99401002936725	
11.0	71.40411775767916	pulse	1.0	t		24.0	female	east_asian	4.409868682849185	neutral	030	sub-03	1.0	1.0	030_neutral	0.0	252.693995027274	
11.0	72.10413656311994	pulse	1.0	t		24.0	female	east_asian	4.409868682849185	neutral	030	sub-03	1.0	1.0	030_neutral	0.0	253.3940138327148	
11.0	72.80410012946481	pulse	1.0	t		24.0	female	east_asian	4.409868682849185	neutral	030	sub-03	1.0	1.0	030_neutral	0.0	254.09397739905967	
11.0	73.50406218654462	pulse	1.0	t		24.0	female	east_asian	4.409868682849185	neutral	030	sub-03	1.0	1.0	030_neutral	0.0	254.79393945613947	
12.0	74.01223983668547	face	0.0		146	19.0	female	white	4.298846000795861	neutral	100	sub-03	1.0	1.0	100_neutral	0.0	255.30211710628032	1.2416529348713539
12.0	74.20406650304221	pulse	0.0	t		19.0	female	white	4.298846000795861	neutral	100	sub-03	1.0	1.0	100_neutral	0.0	255.49394377263707	
12.0	74.90406659359815	pulse	0.0	t		19.0	female	white	4.298846000795861	neutral	100	sub-03	1.0	1.0	100_neutral	0.0	256.193943863193	
12.0	75.25389277155682	fix	1.0		444	19.0	female	white	4.298846000795861	neutral	100	sub-03	1.0	1.0	100_neutral	0.0	256.5437700411517	3.75821092943238
12.0	75.60401567099962	pulse	1.0	t		19.0	female	white	4.298846000795861	neutral	100	sub-03	1.0	1.0	100_neutral	0.0	256.89389294059447	
12.0	76.30406828397486	pulse	1.0	t		19.0	female	white	4.298846000795861	neutral	100	sub-03	1.0	1.0	100_neutral	0.0	257.5939455535697	
12.0	77.00397962975308	pulse	1.0	t		19.0	female	white	4.298846000795861	neutral	100	sub-03	1.0	1.0	100_neutral	0.0	258.29385689934793	
12.0	77.70403797793506	pulse	1.0	t		19.0	female	white	4.298846000795861	neutral	100	sub-03	1.0	1.0	100_neutral	0.0	258.9939152475299	
12.0	78.40399399795524	pulse	1.0	t		19.0	female	white	4.298846000795861	neutral	100	sub-03	1.0	1.0	100_neutral	0.0	259.6938712675501	
13.0	79.0121037009892	face	0.0		146	20.0	female	white	3.9502586549940313	neutral	091	sub-03	1.0	1.0	091_neutral	0.0	260.30198097058405	1.2416490107825666
13.0	79.10392466232452	pulse	0.0	t		20.0	female	white	3.9502586549940313	neutral	091	sub-03	1.0	1.0	091_neutral	0.0	260.39380193191937	
13.0	79.80403221254323	pulse	0.0	t		20.0	female	white	3.9502586549940313	neutral	091	sub-03	1.0	1.0	091_neutral	0.0	261.0939094821381	
13.0	80.25375271177177	fix	1.0		444	20.0	female	white	3.9502586549940313	neutral	091	sub-03	1.0	1.0	091_neutral	0.0	261.5436299813666	3.7665861423520255
13.0	80.50389737481487	pulse	1.0	t		20.0	female	white	3.9502586549940313	neutral	091	sub-03	1.0	1.0	091_neutral	0.0	261.7937746444097	
13.0	81.20389474869376	pulse	1.0	t		20.0	female	white	3.9502586549940313	neutral	091	sub-03	1.0	1.0	091_neutral	0.0	262.4937720182886	
13.0	81.90386193727431	pulse	1.0	t		20.0	female	white	3.9502586549940313	neutral	091	sub-03	1.0	1.0	091_neutral	0.0	263.19373920686917	
13.0	82.60384150182722	pulse	1.0	t		20.0	female	white	3.9502586549940313	neutral	091	sub-03	1.0	1.0	091_neutral	0.0	263.8937187714221	
13.0	83.30381684043846	pulse	1.0	t		20.0	female	white	3.9502586549940313	neutral	091	sub-03	1.0	1.0	091_neutral	0.0	264.5936941100333	
14.0	84.02033885412379	face	0.0		146	40.0	female	west_asian	1.5777954635893354	smiling	038	sub-03	1.0	1.0	038_smiling	0.0	265.31021612371865	1.233275910833754
14.0	84.00701657263448	pulse	0.0	t		40.0	female	west_asian	1.5777954635893354	smiling	038	sub-03	1.0	1.0	038_smiling	0.0	265.29689384222934	
14.0	84.7037750639854	pulse	0.0	t		40.0	female	west_asian	1.5777954635893354	smiling	038	sub-03	1.0	1.0	038_smiling	0.0	265.99365233358026	
14.0	85.25361476495755	fix	1.0		443	40.0	female	west_asian	1.5777954635893354	smiling	038	sub-03	1.0	1.0	038_smiling	0.0	266.5434920345524	3.766558673730515
14.0	85.40375221371437	pulse	1.0	t		40.0	female	west_asian	1.5777954635893354	smiling	038	sub-03	1.0	1.0	038_smiling	0.0	266.6936294833092	
14.0	86.10373389123811	pulse	1.0	t		40.0	female	west_asian	1.5777954635893354	smiling	038	sub-03	1.0	1.0	038_smiling	0.0	267.39361116083296	
14.0	86.80371013540821	pulse	1.0	t		40.0	female	west_asian	1.5777954635893354	smiling	038	sub-03	1.0	1.0	038_smiling	0.0	268.09358740500306	
14.0	87.50369271849104	pulse	1.0	t		40.0	female	west_asian	1.5777954635893354	smiling	038	sub-03	1.0	1.0	038_smiling	0.0	268.7935699880859	
14.0	88.20370458131333	pulse	1.0	t		40.0	female	west_asian	1.5777954635893354	smiling	038	sub-03	1.0	1.0	038_smiling	0.0	269.4935818509082	
14.0	88.90364399941927	pulse	1.0	t		40.0	female	west_asian	1.5777954635893354	smiling	038	sub-03	1.0	1.0	038_smiling	0.0	270.1935212690141	
15.0	89.02017343868806	face	0.0		146	20.0	male	black	3.1070433744528456	smiling	082	sub-03	1.0	1.0	082_smiling	0.0	270.3100507082829	1.2333054924263251
15.0	89.6036332232677	pulse	0.0	t		20.0	male	black	3.1070433744528456	smiling	082	sub-03	1.0	1.0	082_smiling	0.0	270.89351049286256	
15.0	90.25347893111439	fix	1.0		443	20.0	male	black	3.1070433744528456	smiling	082	sub-03	1.0	1.0	082_smiling	0.0	271.54335620070924	3.766555655200591
15.0	90.30360433593705	pulse	1.0	t		20.0	male	black	3.1070433744528456	smiling	082	sub-03	1.0	1.0	082_smiling	0.0	271.5934816055319	
15.0	91.00358178751912	pulse	1.0	t		20.0	male	black	3.1070433744528456	smiling	082	sub-03	1.0	1.0	082_smiling	0.0	272.293459057114	
15.0	91.70360753557861	pulse	1.0	t		20.0	male	black	3.1070433744528456	smiling	082	sub-03	1.0	1.0	082_smiling	0.0	272.99348480517347	
15.0	92.40354363330175	pulse	1.0	t		20.0	male	black	3.1070433744528456	smiling	082	sub-03	1.0	1.0	082_smiling	0.0	273.6934209028966	
15.0	93.10351444411822	pulse	1.0	t		20.0	male	black	3.1070433744528456	smiling	082	sub-03	1.0	1.0	082_smiling	0.0	274.3933917137131	
15.0	93.80351030873226	pulse	1.0	t		20.0	male	black	3.1070433744528456	smiling	082	sub-03	1.0	1.0	082_smiling	0.0	275.0933875783271	
16.0	94.02003458631498	face	0.0		145	28.0	female	white	5.676880222841227	neutral	124	sub-03	1.0	1.0	124_neutral	0.0	275.30991185590983	1.2332997572195836
16.0	94.50348021398963	pulse	0.0	t		28.0	female	white	5.676880222841227	neutral	124	sub-03	1.0	1.0	124_neutral	0.0	275.7933574835845	
16.0	95.20348815272314	pulse	0.0	t		28.0	female	white	5.676880222841227	neutral	124	sub-03	1.0	1.0	124_neutral	0.0	276.493365422318	
16.0	95.25333434353456	fix	1.0		444	28.0	female	white	5.676880222841227	neutral	124	sub-03	1.0	1.0	124_neutral	0.0	276.5432116131294	3.7665595792893782
16.0	95.90344628571415	pulse	1.0	t		28.0	female	white	5.676880222841227	neutral	124	sub-03	1.0	1.0	124_neutral	0.0	277.193323555309	
16.0	96.60342343544312	pulse	1.0	t		28.0	female	white	5.676880222841227	neutral	124	sub-03	1.0	1.0	124_neutral	0.0	277.893300705038	
16.0	97.30344465570806	pulse	1.0	t		28.0	female	white	5.676880222841227	neutral	124	sub-03	1.0	1.0	124_neutral	0.0	278.5933219253029	
16.0	98.0033982609043	pulse	1.0	t		28.0	female	white	5.676880222841227	neutral	124	sub-03	1.0	1.0	124_neutral	0.0	279.29327553049916	
16.0	98.7033847680757	pulse	1.0	t		28.0	female	white	5.676880222841227	neutral	124	sub-03	1.0	1.0	124_neutral	0.0	279.99326203767055	
17.0	99.01989392282394	face	0.0		145	31.0	female	west_asian	2.364902506963788	smiling	006	sub-03	1.0	1.0	006_smiling	0.0	280.3097711924188	1.2333100202213245
17.0	99.40335346592133	pulse	0.0	t		31.0	female	west_asian	2.364902506963788	smiling	006	sub-03	1.0	1.0	006_smiling	0.0	280.6932307355162	
17.0	100.1033448027406	pulse	0.0	t		31.0	female	west_asian	2.364902506963788	smiling	006	sub-03	1.0	1.0	006_smiling	0.0	281.39322207233545	
17.0	100.25320394304526	fix	1.0		444	31.0	female	west_asian	2.364902506963788	smiling	006	sub-03	1.0	1.0	006_smiling	0.0	281.5430812126401	3.766552938523546
17.0	100.80334096920774	pulse	1.0	t		31.0	female	west_asian	2.364902506963788	smiling	006	sub-03	1.0	1.0	006_smiling	0.0	282.0932182388026	
17.0	101.50330181887557	pulse	1.0	t		31.0	female	west_asian	2.364902506963788	smiling	006	sub-03	1.0	1.0	006_smiling	0.0	282.7931790884704	
17.0	102.20330281499037	pulse	1.0	t		31.0	female	west_asian	2.364902506963788	smiling	006	sub-03	1.0	1.0	006_smiling	0.0	283.4931800845852	
17.0	102.90327362580683	pulse	1.0	t		31.0	female	west_asian	2.364902506963788	smiling	006	sub-03	1.0	1.0	006_smiling	0.0	284.1931508954017	
17.0	103.60324141809315	pulse	1.0	t		31.0	female	west_asian	2.364902506963788	smiling	006	sub-03	1.0	1.0	006_smiling	0.0	284.893118687688	
18.0	104.01975688156881	face	0.0		145	21.0	male	east_asian/white	3.501790688420215	smiling	036	sub-03	1.0	1.0	036_smiling	0.0	285.30963415116366	1.2333302443712455
18.0	104.30321343632158	pulse	0.0	t		21.0	male	east_asian/white	3.501790688420215	smiling	036	sub-03	1.0	1.0	036_smiling	0.0	285.59309070591644	
18.0	105.00319783052214	pulse	0.0	t		21.0	male	east_asian/white	3.501790688420215	smiling	036	sub-03	1.0	1.0	036_smiling	0.0	286.293075100117	
18.0	105.25308712594006	fix	1.0		444	21.0	male	east_asian/white	3.501790688420215	smiling	036	sub-03	1.0	1.0	036_smiling	0.0	286.5429643955349	3.7665381477274877
18.0	105.703179206193	pulse	1.0	t		21.0	male	east_asian/white	3.501790688420215	smiling	036	sub-03	1.0	1.0	036_smiling	0.0	286.99305647578785	
18.0	106.40320465239961	pulse	1.0	t		21.0	male	east_asian/white	3.501790688420215	smiling	036	sub-03	1.0	1.0	036_smiling	0.0	287.69308192199446	
18.0	107.10316520021456	pulse	1.0	t		21.0	male	east_asian/white	3.501790688420215	smiling	036	sub-03	1.0	1.0	036_smiling	0.0	288.3930424698094	
18.0	107.8031402369727	pulse	1.0	t		21.0	male	east_asian/white	3.501790688420215	smiling	036	sub-03	1.0	1.0	036_smiling	0.0	289.09301750656755	
18.0	108.50309836996371	pulse	1.0	t		21.0	male	east_asian/white	3.501790688420215	smiling	036	sub-03	1.0	1.0	036_smiling	0.0	289.79297563955856	
19.0	109.01962527366754	face	0.0		145	31.0	female	white	2.1822522881018704	neutral	102	sub-03	1.0	1.0	102_neutral	0.0	290.3095025432624	1.2333054924263251
19.0	109.20308397157623	pulse	0.0	t		31.0	female	white	2.1822522881018704	neutral	102	sub-03	1.0	1.0	102_neutral	0.0	290.4929612411711	
19.0	109.9030656491002	pulse	0.0	t		31.0	female	white	2.1822522881018704	neutral	102	sub-03	1.0	1.0	102_neutral	0.0	291.19294291869505	
19.0	110.25293076609387	fix	1.0		444	31.0	female	white	2.1822522881018704	neutral	102	sub-03	1.0	1.0	102_neutral	0.0	291.5428080356887	3.766570747849755
19.0	110.60304310068227	pulse	1.0	t		31.0	female	white	2.1822522881018704	neutral	102	sub-03	1.0	1.0	102_neutral	0.0	291.8929203702771	
19.0	111.30310446739395	pulse	1.0	t		31.0	female	white	2.1822522881018704	neutral	102	sub-03	1.0	1.0	102_neutral	0.0	292.5929817369888	
19.0	112.00301430390732	pulse	1.0	t		31.0	female	white	2.1822522881018704	neutral	102	sub-03	1.0	1.0	102_neutral	0.0	293.2928915735022	
19.0	112.70298209619386	pulse	1.0	t		31.0	female	white	2.1822522881018704	neutral	102	sub-03	1.0	1.0	102_neutral	0.0	293.9928593657887	
19.0	113.40296135889389	pulse	1.0	t		31.0	female	white	2.1822522881018704	neutral	102	sub-03	1.0	1.0	102_neutral	0.0	294.69283862848874	
20.0	114.01950151394362	face	0.0		145	24.0	male	white	3.1153999204138483	neutral	012	sub-03	1.0	1.0	012_neutral	0.0	295.3093787835385	1.2333299425181394
20.0	114.102954204978	pulse	0.0	t		24.0	male	white	3.1153999204138483	neutral	012	sub-03	1.0	1.0	012_neutral	0.0	295.39283147457286	
20.0	114.80293316582515	pulse	0.0	t		24.0	male	white	3.1153999204138483	neutral	012	sub-03	1.0	1.0	012_neutral	0.0	296.09281043542	
20.0	115.25283145646176	fix	1.0		444	24.0	male	white	3.1153999204138483	neutral	012	sub-03	1.0	1.0	012_neutral	0.0	296.5427087260566	3.76653543105067
20.0	115.5029531786779	pulse	1.0	t		24.0	male	white	3.1153999204138483	neutral	012	sub-03	1.0	1.0	012_neutral	0.0	296.79283044827275	
20.0	116.20293878029065	pulse	1.0	t		24.0	male	white	3.1153999204138483	neutral	012	sub-03	1.0	1.0	012_neutral	0.0	297.4928160498855	
20.0	116.90287910395546	pulse	1.0	t		24.0	male	white	3.1153999204138483	neutral	012	sub-03	1.0	1.0	012_neutral	0.0	298.1927563735503	
20.0	117.60288885380692	pulse	1.0	t		24.0	male	white	3.1153999204138483	neutral	012	sub-03	1.0	1.0	012_neutral	0.0	298.89276612340177	
20.0	118.30288441656808	pulse	1.0	t		24.0	male	white	3.1153999204138483	neutral	012	sub-03	1.0	1.0	012_neutral	0.0	299.59276168616293	
21.0	119.01936688751243	face	0.0		146	22.0	female	west_asian	3.8205332272184642	smiling	066	sub-03	1.0	1.0	066_smiling	0.0	300.3092441571073	1.2332955312776903
21.0	119.0059948002804	pulse	0.0	t		22.0	female	west_asian	3.8205332272184642	smiling	066	sub-03	1.0	1.0	066_smiling	0.0	300.29587206987526	
21.0	119.70282996228957	pulse	0.0	t		22.0	female	west_asian	3.8205332272184642	smiling	066	sub-03	1.0	1.0	066_smiling	0.0	300.9927072318844	
21.0	120.25266241879012	fix	1.0		443	22.0	female	west_asian	3.8205332272184642	smiling	066	sub-03	1.0	1.0	066_smiling	0.0	301.542539688385	3.766558975583621
21.0	120.40279926384096	pulse	1.0	t		22.0	female	west_asian	3.8205332272184642	smiling	066	sub-03	1.0	1.0	066_smiling	0.0	301.6926765334358	
21.0	121.10279271363129	pulse	1.0	t		22.0	female	west_asian	3.8205332272184642	smiling	066	sub-03	1.0	1.0	066_smiling	0.0	302.39266998322614	
21.0	121.80279944495283	pulse	1.0	t		22.0	female	west_asian	3.8205332272184642	smiling	066	sub-03	1.0	1.0	066_smiling	0.0	303.0926767145477	
21.0	122.50272920376324	pulse	1.0	t		22.0	female	west_asian	3.8205332272184642	smiling	066	sub-03	1.0	1.0	066_smiling	0.0	303.7926064733581	
21.0	123.20275404626386	pulse	1.0	t		22.0	female	west_asian	3.8205332272184642	smiling	066	sub-03	1.0	1.0	066_smiling	0.0	304.4926313158587	
21.0	123.90269195510473	pulse	1.0	t		22.0	female	west_asian	3.8205332272184642	smiling	066	sub-03	1.0	1.0	066_smiling	0.0	305.1925692246996	
22.0	124.01922139437374	face	0.0		146	20.0	female	white	3.9502586549940313	smiling	091	sub-03	1.0	1.0	091_smiling	0.0	305.3090986639686	1.2332997572195836
22.0	124.60267333077559	pulse	0.0	t		20.0	female	white	3.9502586549940313	smiling	091	sub-03	1.0	1.0	091_smiling	0.0	305.89255060037044	
22.0	125.25252115159333	fix	1.0		443	20.0	female	white	3.9502586549940313	smiling	091	sub-03	1.0	1.0	091_smiling	0.0	306.5423984211882	3.766564408937029
22.0	125.30264414159205	pulse	1.0	t		20.0	female	white	3.9502586549940313	smiling	091	sub-03	1.0	1.0	091_smiling	0.0	306.5925214111869	
22.0	126.00262491355693	pulse	1.0	t		20.0	female	white	3.9502586549940313	smiling	091	sub-03	1.0	1.0	091_smiling	0.0	307.2925021831518	
22.0	126.7026545857052	pulse	1.0	t		20.0	female	white	3.9502586549940313	smiling	091	sub-03	1.0	1.0	091_smiling	0.0	307.99253185530006	
22.0	127.40263384840523	pulse	1.0	t		20.0	female	white	3.9502586549940313	smiling	091	sub-03	1.0	1.0	091_smiling	0.0	308.6925111180001	
22.0	128.1025786998648	pulse	1.0	t		20.0	female	white	3.9502586549940313	smiling	091	sub-03	1.0	1.0	091_smiling	0.0	309.39245596945966	
22.0	128.8025522273581	pulse	1.0	t		20.0	female	white	3.9502586549940313	smiling	091	sub-03	1.0	1.0	091_smiling	0.0	310.09242949695295	
23.0	129.01908556053036	face	0.0		145	27.0	male	black	3.5523278949462798	neutral	042	sub-03	1.0	1.0	042_neutral	0.0	310.3089628301252	1.2332946257190542
23.0	129.50255111050205	pulse	0.0	t		27.0	male	black	3.5523278949462798	neutral	042	sub-03	1.0	1.0	042_neutral	0.0	310.7924283800969	
23.0	130.20252463799534	pulse	0.0	t		27.0	male	black	3.5523278949462798	neutral	042	sub-03	1.0	1.0	042_neutral	0.0	311.4924019075902	
23.0	130.2523801862494	fix	1.0		1185	27.0	male	black	3.5523278949462798	neutral	042	sub-03	1.0	1.0	042_neutral	0.0	311.54225745584426	10.01641868940851
23.0	130.90254042490642	pulse	1.0	t		27.0	male	black	3.5523278949462798	neutral	042	sub-03	1.0	1.0	042_neutral	0.0	312.1924176945013	
23.0	131.6024919171316	pulse	1.0	t		27.0	male	black	3.5523278949462798	neutral	042	sub-03	1.0	1.0	042_neutral	0.0	312.89236918672646	
23.0	132.3024998558651	pulse	1.0	t		27.0	male	black	3.5523278949462798	neutral	042	sub-03	1.0	1.0	042_neutral	0.0	313.59237712545996	
23.0	133.00242508688075	pulse	1.0	t		27.0	male	black	3.5523278949462798	neutral	042	sub-03	1.0	1.0	042_neutral	0.0	314.2923023564756	
23.0	133.70245264605842	pulse	1.0	t		27.0	male	black	3.5523278949462798	neutral	042	sub-03	1.0	1.0	042_neutral	0.0	314.9923299156533	
23.0	134.40241017534345	pulse	1.0	t		27.0	male	black	3.5523278949462798	neutral	042	sub-03	1.0	1.0	042_neutral	0.0	315.6922874449383	
23.0	135.10236498795143	pulse	1.0	t		27.0	male	black	3.5523278949462798	neutral	042	sub-03	1.0	1.0	042_neutral	0.0	316.3922422575463	
23.0	135.8023931508351	pulse	1.0	t		27.0	male	black	3.5523278949462798	neutral	042	sub-03	1.0	1.0	042_neutral	0.0	317.09227042042994	
23.0	136.50236667832837	pulse	1.0	t		27.0	male	black	3.5523278949462798	neutral	042	sub-03	1.0	1.0	042_neutral	0.0	317.7922439479232	
23.0	137.20230851125802	pulse	1.0	t		27.0	male	black	3.5523278949462798	neutral	042	sub-03	1.0	1.0	042_neutral	0.0	318.4921857808529	
23.0	137.90228837766404	pulse	1.0	t		27.0	male	black	3.5523278949462798	neutral	042	sub-03	1.0	1.0	042_neutral	0.0	319.1921656472589	
23.0	138.60228907192572	pulse	1.0	t		27.0	male	black	3.5523278949462798	neutral	042	sub-03	1.0	1.0	042_neutral	0.0	319.8921663415206	
23.0	139.30230123660112	pulse	1.0	t		27.0	male	black	3.5523278949462798	neutral	042	sub-03	1.0	1.0	042_neutral	0.0	320.592178506196	
23.0	140.0022539362385	pulse	1.0	t		27.0	male	black	3.5523278949462798	neutral	042	sub-03	1.0	1.0	042_neutral	0.0	321.29213120583336	
24.0	140.26879887565792	face	0.0		145	21.0	male	east_asian/white	3.501790688420215	neutral	036	sub-03	1.0	1.0	036_neutral	0.0	321.5586761452528	1.2332807404816322
24.0	140.70223953785103	pulse	0.0	t		21.0	male	east_asian/white	3.501790688420215	neutral	036	sub-03	1.0	1.0	036_neutral	0.0	321.9921168074459	
24.0	141.40221638572712	pulse	0.0	t		21.0	male	east_asian/white	3.501790688420215	neutral	036	sub-03	1.0	1.0	036_neutral	0.0	322.69209365532197	
24.0	141.50207961613955	fix	1.0		444	21.0	male	east_asian/white	3.501790688420215	neutral	036	sub-03	1.0	1.0	036_neutral	0.0	322.7919568857344	3.76655203296491
24.0	142.10219353545608	pulse	1.0	t		21.0	male	east_asian/white	3.501790688420215	neutral	036	sub-03	1.0	1.0	036_neutral	0.0	323.39207080505093	
24.0	142.8021869852464	pulse	1.0	t		21.0	male	east_asian/white	3.501790688420215	neutral	036	sub-03	1.0	1.0	036_neutral	0.0	324.09206425484126	
24.0	143.50215055159106	pulse	1.0	t		21.0	male	east_asian/white	3.501790688420215	neutral	036	sub-03	1.0	1.0	036_neutral	0.0	324.7920278211859	
24.0	144.2021255883492	pulse	1.0	t		21.0	male	east_asian/white	3.501790688420215	neutral	036	sub-03	1.0	1.0	036_neutral	0.0	325.49200285794404	
24.0	144.9021437900842	pulse	1.0	t		21.0	male	east_asian/white	3.501790688420215	neutral	036	sub-03	1.0	1.0	036_neutral	0.0	326.19202105967906	
25.0	145.26863164910446	face	0.0		145	22.0	male	black	2.767608436132113	smiling	044	sub-03	1.0	1.0	044_smiling	0.0	326.5585089186993	1.2332958331307964
25.0	145.60210011195727	pulse	0.0	t		22.0	male	black	2.767608436132113	smiling	044	sub-03	1.0	1.0	044_smiling	0.0	326.8919773815521	
25.0	146.3020899395117	pulse	0.0	t		22.0	male	black	2.767608436132113	smiling	044	sub-03	1.0	1.0	044_smiling	0.0	327.59196720910654	
25.0	146.50192748223526	fix	1.0		444	22.0	male	black	2.767608436132113	smiling	044	sub-03	1.0	1.0	044_smiling	0.0	327.7918047518301	3.7665653144961198
25.0	147.00204927991467	pulse	1.0	t		22.0	male	black	2.767608436132113	smiling	044	sub-03	1.0	1.0	044_smiling	0.0	328.2919265495095	
25.0	147.70206144458984	pulse	1.0	t		22.0	male	black	2.767608436132113	smiling	044	sub-03	1.0	1.0	044_smiling	0.0	328.9919387141847	
25.0	148.40200659790253	pulse	1.0	t		22.0	male	black	2.767608436132113	smiling	044	sub-03	1.0	1.0	044_smiling	0.0	329.6918838674974	
25.0	149.10202812002035	pulse	1.0	t		22.0	male	black	2.767608436132113	smiling	044	sub-03	1.0	1.0	044_smiling	0.0	330.3919053896152	
25.0	149.80199742157174	pulse	1.0	t		22.0	male	black	2.767608436132113	smiling	044	sub-03	1.0	1.0	044_smiling	0.0	331.0918746911666	
26.0	150.26849279673138	face	0.0		145	36.0	female	white	2.7548746518105847	smiling	011	sub-03	1.0	1.0	011_smiling	1.0	331.55837006632623	1.2333483555501061
26.0	150.50196581756427	pulse	0.0	t		36.0	female	white	2.7548746518105847	smiling	011	sub-03	1.0	1.0	011_smiling	1.0	331.7918430871591	
26.0	151.20195081547104	pulse	0.0	t		36.0	female	white	2.7548746518105847	smiling	011	sub-03	1.0	1.0	011_smiling	1.0	332.4918280850659	
26.0	151.5018411522815	fix	1.0		236	36.0	female	white	2.7548746518105847	smiling	011	sub-03	1.0	1.0	011_smiling	1.0	332.79171842187634	1.9999124626344837
26.0	151.9019635838522	pulse	1.0	t		36.0	female	white	2.7548746518105847	smiling	011	sub-03	1.0	1.0	011_smiling	1.0	333.19184085344705	
26.0	152.601903303811	pulse	1.0	t		36.0	female	white	2.7548746518105847	smiling	011	sub-03	1.0	1.0	011_smiling	1.0	333.89178057340587	
26.0	153.30187532203945	pulse	1.0	t		36.0	female	white	2.7548746518105847	smiling	011	sub-03	1.0	1.0	011_smiling	1.0	334.5917525916343	
26.0	153.50175361491597	rating	2.0		235	36.0	female	white	2.7548746518105847	smiling	011	sub-03	1.0	1.0	011_smiling	1.0	334.7916308845108	1.9999405349619792
26.0	153.99675266558825	pulse	2.0	t		36.0	female	white	2.7548746518105847	smiling	011	sub-03	1.0	1.0	011_smiling	1.0	335.2866299351831	
26.0	154.5768253578242	response	2.0	n		36.0	female	white	2.7548746518105847	smiling	011	sub-03	1.0	1.0	011_smiling	1.0	335.86670262741904	
26.0	154.69658311476655	pulse	2.0	t		36.0	female	white	2.7548746518105847	smiling	011	sub-03	1.0	1.0	011_smiling	1.0	335.9864603843614	
26.0	155.4017956026662	pulse	2.0	t		36.0	female	white	2.7548746518105847	smiling	011	sub-03	1.0	1.0	011_smiling	1.0	336.69167287226105	
26.0	155.50169414987795	fix	3.0		444	36.0	female	white	2.7548746518105847	smiling	011	sub-03	1.0	1.0	011_smiling	1.0	336.7915714194728	3.766566521907862
26.0	156.10179871175183	pulse	3.0	t		36.0	female	white	2.7548746518105847	smiling	011	sub-03	1.0	1.0	011_smiling	1.0	337.3916759813467	
26.0	156.8017975948958	pulse	3.0	t		36.0	female	white	2.7548746518105847	smiling	011	sub-03	1.0	1.0	011_smiling	1.0	338.09167486449064	
26.0	157.501790742833	pulse	3.0	t		36.0	female	white	2.7548746518105847	smiling	011	sub-03	1.0	1.0	011_smiling	1.0	338.79166801242786	
26.0	158.20175310176592	pulse	3.0	t		36.0	female	white	2.7548746518105847	smiling	011	sub-03	1.0	1.0	011_smiling	1.0	339.49163037136077	
26.0	158.90173598670162	pulse	3.0	t		36.0	female	white	2.7548746518105847	smiling	011	sub-03	1.0	1.0	011_smiling	1.0	340.1916132562965	
27.0	159.2682606717858	face	0.0		145	34.0	male	white	2.651014723438122	neutral	121	sub-03	1.0	1.0	121_neutral	0.0	340.55813794138066	1.2333048887205678
27.0	159.60171736237248	pulse	0.0	t		34.0	male	white	2.651014723438122	neutral	121	sub-03	1.0	1.0	121_neutral	0.0	340.89159463196734	
27.0	160.30172469739978	pulse	0.0	t		34.0	male	white	2.651014723438122	neutral	121	sub-03	1.0	1.0	121_neutral	0.0	341.59160196699463	
27.0	160.50156556050638	fix	1.0		444	34.0	male	white	2.651014723438122	neutral	121	sub-03	1.0	1.0	121_neutral	0.0	341.79144283010123	3.766557768171424
27.0	161.0017181471901	pulse	1.0	t		34.0	male	white	2.651014723438122	neutral	121	sub-03	1.0	1.0	121_neutral	0.0	342.29159541678496	
27.0	161.70166360235567	pulse	1.0	t		34.0	male	white	2.651014723438122	neutral	121	sub-03	1.0	1.0	121_neutral	0.0	342.9915408719505	
27.0	162.4016769744428	pulse	1.0	t		34.0	male	white	2.651014723438122	neutral	121	sub-03	1.0	1.0	121_neutral	0.0	343.69155424403766	
27.0	163.1016085443714	pulse	1.0	t		34.0	male	white	2.651014723438122	neutral	121	sub-03	1.0	1.0	121_neutral	0.0	344.39148581396626	
27.0	163.80160833307423	pulse	1.0	t		34.0	male	white	2.651014723438122	neutral	121	sub-03	1.0	1.0	121_neutral	0.0	345.0914856026691	
28.0	164.2681233286778	face	0.0		145	27.0	male	black	3.5523278949462798	smiling	042	sub-03	1.0	1.0	042_smiling	0.0	345.55800059827266	1.2333000590724623
28.0	164.50160842363016	pulse	0.0	t		27.0	male	black	3.5523278949462798	smiling	042	sub-03	1.0	1.0	042_smiling	0.0	345.791485693225	
28.0	165.20158587521223	pulse	0.0	t		27.0	male	black	3.5523278949462798	smiling	042	sub-03	1.0	1.0	042_smiling	0.0	346.4914631448071	
28.0	165.50142338775026	fix	1.0		444	27.0	male	black	3.5523278949462798	smiling	042	sub-03	1.0	1.0	042_smiling	0.0	346.7913006573451	3.7665734645270277
28.0	165.901528009995	pulse	1.0	t		27.0	male	black	3.5523278949462798	smiling	042	sub-03	1.0	1.0	042_smiling	0.0	347.19140527958984	
28.0	166.60153685428736	pulse	1.0	t		27.0	male	black	3.5523278949462798	smiling	042	sub-03	1.0	1.0	042_smiling	0.0	347.8914141238822	
28.0	167.30151279660436	pulse	1.0	t		27.0	male	black	3.5523278949462798	smiling	042	sub-03	1.0	1.0	042_smiling	0.0	348.5913900661992	
28.0	168.00154397801793	pulse	1.0	t		27.0	male	black	3.5523278949462798	smiling	042	sub-03	1.0	1.0	042_smiling	0.0	349.2914212476128	
28.0	168.70149456468403	pulse	1.0	t		27.0	male	black	3.5523278949462798	smiling	042	sub-03	1.0	1.0	042_smiling	0.0	349.9913718342789	
29.0	169.2679968522773	face	0.0		145	20.0	male	black	2.609629924393156	neutral	043	sub-03	1.0	1.0	043_neutral	0.0	350.55787412187215	1.233287984953222
29.0	169.40147412923693	pulse	0.0	t		20.0	male	black	2.609629924393156	neutral	043	sub-03	1.0	1.0	043_neutral	0.0	350.6913513988318	
29.0	170.10145037340703	pulse	0.0	t		20.0	male	black	2.609629924393156	neutral	043	sub-03	1.0	1.0	043_neutral	0.0	351.3913276430019	
29.0	170.50128483723051	fix	1.0		444	20.0	male	black	2.609629924393156	neutral	043	sub-03	1.0	1.0	043_neutral	0.0	351.79116210682537	3.766564408937029
29.0	170.80141212863396	pulse	1.0	t		20.0	male	black	2.609629924393156	neutral	043	sub-03	1.0	1.0	043_neutral	0.0	352.0912893982288	
29.0	171.50140708768936	pulse	1.0	t		20.0	male	black	2.609629924393156	neutral	043	sub-03	1.0	1.0	043_neutral	0.0	352.7912843572842	
29.0	172.2013673336512	pulse	1.0	t		20.0	male	black	2.609629924393156	neutral	043	sub-03	1.0	1.0	043_neutral	0.0	353.49124460324606	
29.0	172.9013746686785	pulse	1.0	t		20.0	male	black	2.609629924393156	neutral	043	sub-03	1.0	1.0	043_neutral	0.0	354.19125193827335	
29.0	173.60133551834656	pulse	1.0	t		20.0	male	black	2.609629924393156	neutral	043	sub-03	1.0	1.0	043_neutral	0.0	354.8912127879414	
30.0	174.26784924616754	face	0.0		145	22.0	female	white	4.614007162753682	neutral	009	sub-03	1.0	1.0	009_neutral	0.0	355.5577265157624	1.2333003609255684
30.0	174.30135402193423	pulse	0.0	t		22.0	female	white	4.614007162753682	neutral	009	sub-03	1.0	1.0	009_neutral	0.0	355.5912312915291	
30.0	175.0012867992748	pulse	0.0	t		22.0	female	white	4.614007162753682	neutral	009	sub-03	1.0	1.0	009_neutral	0.0	356.29116406886965	
30.0	175.5011496070931	fix	1.0		443	22.0	female	white	4.614007162753682	neutral	009	sub-03	1.0	1.0	009_neutral	0.0	356.79102687668797	3.766557466318318
30.0	175.7012763249761	pulse	1.0	t		22.0	female	white	4.614007162753682	neutral	009	sub-03	1.0	1.0	009_neutral	0.0	356.99115359457096	
30.0	176.4012746044143	pulse	1.0	t		22.0	female	white	4.614007162753682	neutral	009	sub-03	1.0	1.0	009_neutral	0.0	357.69115187400917	
30.0	177.10124450967146	pulse	1.0	t		22.0	female	white	4.614007162753682	neutral	009	sub-03	1.0	1.0	009_neutral	0.0	358.3911217792663	
30.0	177.8013511543311	pulse	1.0	t		22.0	female	white	4.614007162753682	neutral	009	sub-03	1.0	1.0	009_neutral	0.0	359.09122842392594	
30.0	178.50118250906849	pulse	1.0	t		22.0	female	white	4.614007162753682	neutral	009	sub-03	1.0	1.0	009_neutral	0.0	359.79105977866334	
30.0	179.2011856181541	pulse	1.0	t		22.0	female	white	4.614007162753682	neutral	009	sub-03	1.0	1.0	009_neutral	0.0	360.49106288774897	
31.0	179.26770707341143	face	0.0		146	47.0	male	east_asian	2.171110226820533	neutral	024	sub-03	1.0	1.0	024_neutral	0.0	360.5575843430063	1.233307001691628
31.0	179.90116548456012	pulse	0.0	t		47.0	male	east_asian	2.171110226820533	neutral	024	sub-03	1.0	1.0	024_neutral	0.0	361.191042754155	
31.0	180.50101407510306	fix	1.0		443	47.0	male	east_asian	2.171110226820533	neutral	024	sub-03	1.0	1.0	024_neutral	0.0	361.7908913446979	3.766548410728774
31.0	180.60114535096614	pulse	1.0	t		47.0	male	east_asian	2.171110226820533	neutral	024	sub-03	1.0	1.0	024_neutral	0.0	361.891022620561	
31.0	181.30113819705025	pulse	1.0	t		47.0	male	east_asian	2.171110226820533	neutral	024	sub-03	1.0	1.0	024_neutral	0.0	362.5910154666451	
31.0	182.00109753745323	pulse	1.0	t		47.0	male	east_asian	2.171110226820533	neutral	024	sub-03	1.0	1.0	024_neutral	0.0	363.2909748070481	
31.0	182.70111573918825	pulse	1.0	t		47.0	male	east_asian	2.171110226820533	neutral	024	sub-03	1.0	1.0	024_neutral	0.0	363.9909930087831	
31.0	183.40107839997404	pulse	1.0	t		47.0	male	east_asian	2.171110226820533	neutral	024	sub-03	1.0	1.0	024_neutral	0.0	364.6909556695689	
31.0	184.10103109961096	pulse	1.0	t		47.0	male	east_asian	2.171110226820533	neutral	024	sub-03	1.0	1.0	024_neutral	0.0	365.3909083692058	
32.0	184.26756248583183	face	0.0		146	24.0	male	white	3.1153999204138483	smiling	012	sub-03	1.0	1.0	012_smiling	1.0	365.5574397554267	1.2333169628395808
32.0	184.80103541610902	pulse	0.0	t		24.0	male	white	3.1153999204138483	smiling	012	sub-03	1.0	1.0	012_smiling	1.0	366.09091268570387	
32.0	185.5008794486714	fix	1.0		237	24.0	male	white	3.1153999204138483	smiling	012	sub-03	1.0	1.0	012_smiling	1.0	366.79075671826627	1.9999426479330396
32.0	185.50869110206827	pulse	1.0	t		24.0	male	white	3.1153999204138483	smiling	012	sub-03	1.0	1.0	012_smiling	1.0	366.7985683716631	
32.0	186.20099605447945	pulse	1.0	t		24.0	male	white	3.1153999204138483	smiling	012	sub-03	1.0	1.0	012_smiling	1.0	367.4908733240743	
32.0	186.90098346721038	pulse	1.0	t		24.0	male	white	3.1153999204138483	smiling	012	sub-03	1.0	1.0	012_smiling	1.0	368.19086073680523	
32.0	187.50082209660445	rating	2.0		235	24.0	male	white	3.1153999204138483	smiling	012	sub-03	1.0	1.0	012_smiling	1.0	368.7906993661993	1.9999426479330396
32.0	187.59590759797152	pulse	2.0	t		24.0	male	white	3.1153999204138483	smiling	012	sub-03	1.0	1.0	012_smiling	1.0	368.8857848675664	
32.0	188.2959414960617	pulse	2.0	t		24.0	male	white	3.1153999204138483	smiling	012	sub-03	1.0	1.0	012_smiling	1.0	369.58581876565654	
32.0	188.8375707958446	response	2.0	w		24.0	male	white	3.1153999204138483	smiling	012	sub-03	1.0	1.0	012_smiling	1.0	370.12744806543947	
32.0	188.99583442880817	pulse	2.0	t		24.0	male	white	3.1153999204138483	smiling	012	sub-03	1.0	1.0	012_smiling	1.0	370.285711698403	
32.0	189.5007647445375	fix	3.0		443	24.0	male	white	3.1153999204138483	smiling	012	sub-03	1.0	1.0	012_smiling	1.0	370.79064201413235	3.766550221846501
32.0	189.70091772363025	pulse	3.0	t		24.0	male	white	3.1153999204138483	smiling	012	sub-03	1.0	1.0	012_smiling	1.0	370.9907949932251	
32.0	190.4008809881218	pulse	3.0	t		24.0	male	white	3.1153999204138483	smiling	012	sub-03	1.0	1.0	012_smiling	1.0	371.69075825771665	
32.0	191.10086598602834	pulse	3.0	t		24.0	male	white	3.1153999204138483	smiling	012	sub-03	1.0	1.0	012_smiling	1.0	372.3907432556232	
32.0	191.80083498572708	pulse	3.0	t		24.0	male	white	3.1153999204138483	smiling	012	sub-03	1.0	1.0	012_smiling	1.0	373.09071225532193	
32.0	192.500831152194	pulse	3.0	t		24.0	male	white	3.1153999204138483	smiling	012	sub-03	1.0	1.0	012_smiling	1.0	373.79070842178885	
32.0	193.20080135930425	pulse	3.0	t		24.0	male	white	3.1153999204138483	smiling	012	sub-03	1.0	1.0	012_smiling	1.0	374.4906786288991	
33.0	193.267314966384	face	0.0		146	34.0	male	white	2.651014723438122	smiling	121	sub-03	1.0	1.0	121_smiling	0.0	374.55719223597885	1.2333148498692026
33.0	193.90076613306087	pulse	0.0	t		34.0	male	white	2.651014723438122	smiling	121	sub-03	1.0	1.0	121_smiling	0.0	375.1906434026557	
33.0	194.5006298162532	fix	1.0		443	34.0	male	white	2.651014723438122	smiling	121	sub-03	1.0	1.0	121_smiling	0.0	375.79050708584805	3.766550221846501
33.0	194.6008199534483	pulse	1.0	t		34.0	male	white	2.651014723438122	smiling	121	sub-03	1.0	1.0	121_smiling	0.0	375.89069722304316	
33.0	195.3007397511103	pulse	1.0	t		34.0	male	white	2.651014723438122	smiling	121	sub-03	1.0	1.0	121_smiling	0.0	376.59061702070517	
33.0	196.00073772869496	pulse	1.0	t		34.0	male	white	2.651014723438122	smiling	121	sub-03	1.0	1.0	121_smiling	0.0	377.2906149982898	
33.0	196.70072604698476	pulse	1.0	t		34.0	male	white	2.651014723438122	smiling	121	sub-03	1.0	1.0	121_smiling	0.0	377.9906033165796	
33.0	197.40069202815334	pulse	1.0	t		34.0	male	white	2.651014723438122	smiling	121	sub-03	1.0	1.0	121_smiling	0.0	378.6905692977482	
33.0	198.1006724982651	pulse	1.0	t		34.0	male	white	2.651014723438122	smiling	121	sub-03	1.0	1.0	121_smiling	0.0	379.39054976785997	
34.0	198.2671800380997	face	0.0		146	30.0	female	black	2.7345801830481498	neutral	062	sub-03	1.0	1.0	062_neutral	0.0	379.55705730769455	1.2333145480160965
34.0	198.80066142026067	pulse	0.0	t		30.0	female	black	2.7345801830481498	neutral	062	sub-03	1.0	1.0	062_neutral	0.0	380.0905386898555	
34.0	199.5004945861158	fix	1.0		444	30.0	female	black	2.7345801830481498	neutral	062	sub-03	1.0	1.0	062_neutral	0.0	380.79037185571065	3.766564408937029
34.0	199.50828058200864	pulse	1.0	t		30.0	female	black	2.7345801830481498	neutral	062	sub-03	1.0	1.0	062_neutral	0.0	380.7981578516035	
34.0	200.20061511601284	pulse	1.0	t		30.0	female	black	2.7345801830481498	neutral	062	sub-03	1.0	1.0	062_neutral	0.0	381.4904923856077	
34.0	200.90064448630824	pulse	1.0	t		30.0	female	black	2.7345801830481498	neutral	062	sub-03	1.0	1.0	062_neutral	0.0	382.1905217559031	
34.0	201.60056035988123	pulse	1.0	t		30.0	female	black	2.7345801830481498	neutral	062	sub-03	1.0	1.0	062_neutral	0.0	382.8904376294761	
34.0	202.30054626334663	pulse	1.0	t		30.0	female	black	2.7345801830481498	neutral	062	sub-03	1.0	1.0	062_neutral	0.0	383.5904235329415	
34.0	203.0005176778693	pulse	1.0	t		30.0	female	black	2.7345801830481498	neutral	062	sub-03	1.0	1.0	062_neutral	0.0	384.29039494746416	
35.0	203.26705899505282	face	0.0		145	22.0	female	white	4.614007162753682	smiling	009	sub-03	1.0	1.0	009_smiling	0.0	384.5569362646477	1.2333009646317805
35.0	203.70055761301887	pulse	0.0	t		22.0	female	white	4.614007162753682	smiling	009	sub-03	1.0	1.0	009_smiling	0.0	384.9904348826137	
35.0	204.40048616441732	pulse	0.0	t		22.0	female	white	4.614007162753682	smiling	009	sub-03	1.0	1.0	009_smiling	0.0	385.69036343401217	
35.0	204.5003599596846	fix	1.0		444	22.0	female	white	4.614007162753682	smiling	009	sub-03	1.0	1.0	009_smiling	0.0	385.79023722927946	3.7665653144958924
35.0	205.10049168832734	pulse	1.0	t		22.0	female	white	4.614007162753682	smiling	009	sub-03	1.0	1.0	009_smiling	0.0	386.3903689579222	
35.0	205.80044197314032	pulse	1.0	t		22.0	female	white	4.614007162753682	smiling	009	sub-03	1.0	1.0	009_smiling	0.0	387.0903192427352	
35.0	206.50046409896436	pulse	1.0	t		22.0	female	white	4.614007162753682	smiling	009	sub-03	1.0	1.0	009_smiling	0.0	387.7903413685592	
35.0	207.2004023096581	pulse	1.0	t		22.0	female	white	4.614007162753682	smiling	009	sub-03	1.0	1.0	009_smiling	0.0	388.49027957925296	
35.0	207.9004072298619	pulse	1.0	t		22.0	female	white	4.614007162753682	smiling	009	sub-03	1.0	1.0	009_smiling	0.0	389.19028449945677	
36.0	208.2669252741805	face	0.0		145	31.0	female	white	2.1822522881018704	smiling	102	sub-03	1.0	1.0	102_smiling	0.0	389.55680254377535	1.23330609613231
36.0	208.6003898129445	pulse	0.0	t		31.0	female	white	2.1822522881018704	smiling	102	sub-03	1.0	1.0	102_smiling	0.0	389.89026708253937	
36.0	209.30036877379166	pulse	0.0	t		31.0	female	white	2.1822522881018704	smiling	102	sub-03	1.0	1.0	102_smiling	0.0	390.5902460433865	
36.0	209.5002313703128	fix	1.0		444	31.0	female	white	2.1822522881018704	smiling	102	sub-03	1.0	1.0	102_smiling	0.0	390.79010863990766	3.766533016226731
36.0	210.0003727884366	pulse	1.0	t		31.0	female	white	2.1822522881018704	smiling	102	sub-03	1.0	1.0	102_smiling	0.0	391.29025005803146	
36.0	210.7003366566339	pulse	1.0	t		31.0	female	white	2.1822522881018704	smiling	102	sub-03	1.0	1.0	102_smiling	0.0	391.99021392622876	
36.0	211.40029811000772	pulse	1.0	t		31.0	female	white	2.1822522881018704	smiling	102	sub-03	1.0	1.0	102_smiling	0.0	392.6901753796026	
36.0	212.10033049883327	pulse	1.0	t		31.0	female	white	2.1822522881018704	smiling	102	sub-03	1.0	1.0	102_smiling	0.0	393.3902077684281	
36.0	212.80025120205414	pulse	1.0	t		31.0	female	white	2.1822522881018704	smiling	102	sub-03	1.0	1.0	102_smiling	0.0	394.090128471649	
37.0	213.26676438653953	face	0.0		145	25.0	female	west_asian	2.6756864305610826	neutral	064	sub-03	1.0	1.0	064_neutral	1.0	394.5566416561344	1.2333208869285954
37.0	213.5002217110175	pulse	0.0	t		25.0	female	west_asian	2.6756864305610826	neutral	064	sub-03	1.0	1.0	064_neutral	1.0	394.79009898061236	
37.0	214.20021365154275	pulse	0.0	t		25.0	female	west_asian	2.6756864305610826	neutral	064	sub-03	1.0	1.0	064_neutral	1.0	395.4900909211376	
37.0	214.50008527346813	fix	1.0		236	25.0	female	west_asian	2.6756864305610826	neutral	064	sub-03	1.0	1.0	064_neutral	1.0	395.789962543063	1.9999601554059154
37.0	214.90021766618725	pulse	1.0	t		25.0	female	west_asian	2.6756864305610826	neutral	064	sub-03	1.0	1.0	064_neutral	1.0	396.1900949357821	
37.0	215.60017730844334	pulse	1.0	t		25.0	female	west_asian	2.6756864305610826	neutral	064	sub-03	1.0	1.0	064_neutral	1.0	396.8900545780382	
37.0	216.30016894711548	pulse	1.0	t		25.0	female	west_asian	2.6756864305610826	neutral	064	sub-03	1.0	1.0	064_neutral	1.0	397.59004621671033	
37.0	216.50004542887405	rating	2.0		236	25.0	female	west_asian	2.6756864305610826	neutral	064	sub-03	1.0	1.0	064_neutral	1.0	397.7899226984689	1.999921216371149
37.0	216.99487302705097	pulse	2.0	t		25.0	female	west_asian	2.6756864305610826	neutral	064	sub-03	1.0	1.0	064_neutral	1.0	398.2847502966458	
37.0	217.69492775299727	pulse	2.0	t		25.0	female	west_asian	2.6756864305610826	neutral	064	sub-03	1.0	1.0	064_neutral	1.0	398.9848050225921	
37.0	218.39502504021425	pulse	2.0	t		25.0	female	west_asian	2.6756864305610826	neutral	064	sub-03	1.0	1.0	064_neutral	1.0	399.6849023098091	
37.0	218.4999666452452	fix	3.0		443	25.0	female	west_asian	2.6756864305610826	neutral	064	sub-03	1.0	1.0	064_neutral	1.0	399.78984391484005	3.766568936731801
37.0	218.60011120263948	response	3.0	b		25.0	female	west_asian	2.6756864305610826	neutral	064	sub-03	1.0	1.0	064_neutral	1.0	399.88998847223434	
37.0	219.10009143126922	pulse	3.0	t		25.0	female	west_asian	2.6756864305610826	neutral	064	sub-03	1.0	1.0	064_neutral	1.0	400.3899687008641	
37.0	219.80009635147258	pulse	3.0	t		25.0	female	west_asian	2.6756864305610826	neutral	064	sub-03	1.0	1.0	064_neutral	1.0	401.08997362106743	
37.0	220.50004573072715	pulse	3.0	t		25.0	female	west_asian	2.6756864305610826	neutral	064	sub-03	1.0	1.0	064_neutral	1.0	401.789923000322	
37.0	221.20003887866437	pulse	3.0	t		25.0	female	west_asian	2.6756864305610826	neutral	064	sub-03	1.0	1.0	064_neutral	1.0	402.4899161482592	
37.0	221.9000078783631	pulse	3.0	t		25.0	female	west_asian	2.6756864305610826	neutral	064	sub-03	1.0	1.0	064_neutral	1.0	403.18988514795797	
38.0	222.266535581977	face	0.0		145	24.0	female	black	3.0955033824114606	smiling	099	sub-03	1.0	1.0	099_smiling	0.0	403.55641285157185	1.233322698046777
38.0	222.59998804662177	pulse	0.0	t		24.0	female	black	3.0955033824114606	smiling	099	sub-03	1.0	1.0	099_smiling	0.0	403.8898653162166	
38.0	223.29999507979642	pulse	0.0	t		24.0	female	black	3.0955033824114606	smiling	099	sub-03	1.0	1.0	099_smiling	0.0	404.58987234939127	
38.0	223.49985828002377	fix	1.0		444	24.0	female	black	3.0955033824114606	smiling	099	sub-03	1.0	1.0	099_smiling	0.0	404.7897355496186	3.7665312051085493
38.0	223.99997011655455	pulse	1.0	t		24.0	female	black	3.0955033824114606	smiling	099	sub-03	1.0	1.0	099_smiling	0.0	405.2898473861494	
38.0	224.6999581329908	pulse	1.0	t		24.0	female	black	3.0955033824114606	smiling	099	sub-03	1.0	1.0	099_smiling	0.0	405.98983540258564	
38.0	225.39992200118854	pulse	1.0	t		24.0	female	black	3.0955033824114606	smiling	099	sub-03	1.0	1.0	099_smiling	0.0	406.6897992707834	
38.0	226.09991665839084	pulse	1.0	t		24.0	female	black	3.0955033824114606	smiling	099	sub-03	1.0	1.0	099_smiling	0.0	407.3897939279857	
38.0	226.79989773220882	pulse	1.0	t		24.0	female	black	3.0955033824114606	smiling	099	sub-03	1.0	1.0	099_smiling	0.0	408.0897750018037	
39.0	227.26638948513232	face	0.0		145	23.0	male	white	2.6275368085953046	neutral	141	sub-03	1.0	1.0	141_neutral	0.0	408.5562667547272	1.2333187739577625
39.0	227.49987639120286	pulse	0.0	t		23.0	male	white	2.6275368085953046	neutral	141	sub-03	1.0	1.0	141_neutral	0.0	408.7897536607977	
39.0	228.19983060010486	pulse	0.0	t		23.0	male	white	2.6275368085953046	neutral	141	sub-03	1.0	1.0	141_neutral	0.0	409.4897078696997	
39.0	228.49970825909008	fix	1.0		444	23.0	male	white	2.6275368085953046	neutral	141	sub-03	1.0	1.0	141_neutral	0.0	409.78958552868494	3.749885220402575
39.0	228.89983853883837	pulse	1.0	t		23.0	male	white	2.6275368085953046	neutral	141	sub-03	1.0	1.0	141_neutral	0.0	410.1897158084332	
39.0	229.59983319604066	pulse	1.0	t		23.0	male	white	2.6275368085953046	neutral	141	sub-03	1.0	1.0	141_neutral	0.0	410.8897104656355	
39.0	230.29978499011872	pulse	1.0	t		23.0	male	white	2.6275368085953046	neutral	141	sub-03	1.0	1.0	141_neutral	0.0	411.5896622597136	
39.0	230.99976123428883	pulse	1.0	t		23.0	male	white	2.6275368085953046	neutral	141	sub-03	1.0	1.0	141_neutral	0.0	412.2896385038837	
39.0	231.69973627104696	pulse	1.0	t		23.0	male	white	2.6275368085953046	neutral	141	sub-03	1.0	1.0	141_neutral	0.0	412.9896135406418	
40.0	232.24959347949266	fix	0.0		720												413.5394707490875	5.999836697535102
40.0	232.39972308007168	pulse	0.0	t													413.68960034966653	
40.0	233.09971079465527	pulse	0.0	t													414.3895880642501	
40.0	233.79969820738575	pulse	0.0	t													415.0895754769806	
40.0	234.49969769423546	pulse	0.0	t													415.7895749638303	
40.0	235.19965492166762	pulse	0.0	t													416.48953219126247	
40.0	235.899602489804	pulse	0.0	t													417.18947975939886	
40.0	236.5995865821517	pulse	0.0	t													417.88946385174654	
40.0	237.29962108394807	pulse	0.0	t													418.5894983535429	
40.0	237.99957227432037	pulse	0.0	t													419.2894495439152	
