trial_nr	onset	event_type	phase	response	nr_frames	face_age	face_sex	face_eth	attractiveness	expression	face_id	sub_id	ses	run	trial_type	catch	rating_type	onset_abs	duration
-1.0	0.05777875980902536	fix	0.0		714													94.0492634614011	5.966235830600908
-1.0	0.7075871882339015	pulse	0.0	t														94.69907188982597	
-1.0	1.407567960141023	pulse	0.0	t														95.3990526617331	
-1.0	2.107560504349749	pulse	0.0	t														96.09904520594182	
-1.0	2.807537654009593	pulse	0.0	t														96.79902235560166	
-1.0	3.507526274117936	pulse	0.0	t														97.49901097571001	
-1.0	4.207504329339372	pulse	0.0	t														98.19898903093144	
-1.0	4.907493553155291	pulse	0.0	t														98.89897825474736	
-1.0	5.607455308266708	pulse	0.0	t														99.59894000985878	
0.0	6.024014590409934	face	0.0		144	26.0	male	white	2.7966573816155993	neutral	117	sub-02	2.0	1.0	117_neutral	1.0	dominance	100.015499292002	1.2333122337458917
0.0	6.307464756293939	pulse	0.0	t		26.0	male	white	2.7966573816155993	neutral	117	sub-02	2.0	1.0	117_neutral	1.0	dominance	100.29894945788601	
0.0	7.007428926236116	pulse	0.0	t		26.0	male	white	2.7966573816155993	neutral	117	sub-02	2.0	1.0	117_neutral	1.0	dominance	100.99891362782819	
0.0	7.257326824155825	fix	1.0		177	26.0	male	white	2.7966573816155993	neutral	117	sub-02	2.0	1.0	117_neutral	1.0	dominance	101.2488115257479	1.508328601773428
0.0	7.707426601961288	pulse	1.0	t		26.0	male	white	2.7966573816155993	neutral	117	sub-02	2.0	1.0	117_neutral	1.0	dominance	101.69891130355336	
0.0	8.407410694260761	pulse	1.0	t		26.0	male	white	2.7966573816155993	neutral	117	sub-02	2.0	1.0	117_neutral	1.0	dominance	102.39889539585283	
0.0	8.765655425929253	rating	2.0		293	26.0	male	white	2.7966573816155993	neutral	117	sub-02	2.0	1.0	117_neutral	1.0	dominance	102.75714012752132	2.491561825262579
0.0	9.102117173041734	pulse	2.0	t		26.0	male	white	2.7966573816155993	neutral	117	sub-02	2.0	1.0	117_neutral	1.0	dominance	103.0936018746338	
0.0	9.802107000565229	pulse	2.0	t		26.0	male	white	2.7966573816155993	neutral	117	sub-02	2.0	1.0	117_neutral	1.0	dominance	103.7935917021573	
0.0	10.132359311181517	response	2.0	y		26.0	male	white	2.7966573816155993	neutral	117	sub-02	2.0	1.0	117_neutral	1.0	dominance	104.12384401277359	
0.0	10.507329767231568	pulse	2.0	t		26.0	male	white	2.7966573816155993	neutral	117	sub-02	2.0	1.0	117_neutral	1.0	dominance	104.49881446882364	
0.0	11.207321405878702	pulse	2.0	t		26.0	male	white	2.7966573816155993	neutral	117	sub-02	2.0	1.0	117_neutral	1.0	dominance	105.19880610747077	
0.0	11.257217251191832	fix	3.0		444	26.0	male	white	2.7966573816155993	neutral	117	sub-02	2.0	1.0	117_neutral	1.0	dominance	105.2487019527839	3.758249440589225
0.0	11.907313950087428	pulse	3.0	t		26.0	male	white	2.7966573816155993	neutral	117	sub-02	2.0	1.0	117_neutral	1.0	dominance	105.8987986516795	
0.0	12.607311022104568	pulse	3.0	t		26.0	male	white	2.7966573816155993	neutral	117	sub-02	2.0	1.0	117_neutral	1.0	dominance	106.59879572369664	
0.0	13.30730417002087	pulse	3.0	t		26.0	male	white	2.7966573816155993	neutral	117	sub-02	2.0	1.0	117_neutral	1.0	dominance	107.29878887161294	
0.0	14.007273169625932	pulse	3.0	t		26.0	male	white	2.7966573816155993	neutral	117	sub-02	2.0	1.0	117_neutral	1.0	dominance	107.998757871218	
0.0	14.707262393441852	pulse	3.0	t		26.0	male	white	2.7966573816155993	neutral	117	sub-02	2.0	1.0	117_neutral	1.0	dominance	108.69874709503392	
1.0	15.015466691781057	face	0.0		146	27.0	female	white	3.504576203740549	smiling	144	sub-02	2.0	1.0	144_smiling	1.0	trustworthiness	109.00695139337313	1.2416506457711876
1.0	15.407254032088986	pulse	0.0	t		27.0	female	white	3.504576203740549	smiling	144	sub-02	2.0	1.0	144_smiling	1.0	trustworthiness	109.39873873368106	
1.0	16.107243557758466	pulse	0.0	t		27.0	female	white	3.504576203740549	smiling	144	sub-02	2.0	1.0	144_smiling	1.0	trustworthiness	110.09872825935054	
1.0	16.257117337552245	fix	1.0		177	27.0	female	white	3.504576203740549	smiling	144	sub-02	2.0	1.0	144_smiling	1.0	trustworthiness	110.24860203914432	1.4999609099204463
1.0	16.8072351964056	pulse	1.0	t		27.0	female	white	3.504576203740549	smiling	144	sub-02	2.0	1.0	144_smiling	1.0	trustworthiness	110.79871989799767	
1.0	17.507185481068973	pulse	1.0	t		27.0	female	white	3.504576203740549	smiling	144	sub-02	2.0	1.0	144_smiling	1.0	trustworthiness	111.49867018266104	
1.0	17.75707824747269	rating	2.0		295	27.0	female	white	3.504576203740549	smiling	144	sub-02	2.0	1.0	144_smiling	1.0	trustworthiness	111.74856294906476	2.499944911663988
1.0	18.20200787174599	pulse	2.0	t		27.0	female	white	3.504576203740549	smiling	144	sub-02	2.0	1.0	144_smiling	1.0	trustworthiness	112.19349257333806	
1.0	18.901893861529516	pulse	2.0	t		27.0	female	white	3.504576203740549	smiling	144	sub-02	2.0	1.0	144_smiling	1.0	trustworthiness	112.89337856312159	
1.0	19.47381794768944	response	2.0	y		27.0	female	white	3.504576203740549	smiling	144	sub-02	2.0	1.0	144_smiling	1.0	trustworthiness	113.46530264928151	
1.0	19.601858031471693	pulse	2.0	t		27.0	female	white	3.504576203740549	smiling	144	sub-02	2.0	1.0	144_smiling	1.0	trustworthiness	113.59334273306376	
1.0	20.25702315913668	fix	3.0		443	27.0	female	white	3.504576203740549	smiling	144	sub-02	2.0	1.0	144_smiling	1.0	trustworthiness	114.24850786072875	3.766545593068713
1.0	20.299138116570703	pulse	3.0	t		27.0	female	white	3.504576203740549	smiling	144	sub-02	2.0	1.0	144_smiling	1.0	trustworthiness	114.29062281816277	
1.0	21.007097490658452	pulse	3.0	t		27.0	female	white	3.504576203740549	smiling	144	sub-02	2.0	1.0	144_smiling	1.0	trustworthiness	114.99858219225052	
1.0	21.70709094042877	pulse	3.0	t		27.0	female	white	3.504576203740549	smiling	144	sub-02	2.0	1.0	144_smiling	1.0	trustworthiness	115.69857564202084	
1.0	22.407071712335437	pulse	3.0	t		27.0	female	white	3.504576203740549	smiling	144	sub-02	2.0	1.0	144_smiling	1.0	trustworthiness	116.39855641392751	
1.0	23.10706938806061	pulse	3.0	t		27.0	female	white	3.504576203740549	smiling	144	sub-02	2.0	1.0	144_smiling	1.0	trustworthiness	117.09855408965268	
1.0	23.807031143172026	pulse	3.0	t		27.0	female	white	3.504576203740549	smiling	144	sub-02	2.0	1.0	144_smiling	1.0	trustworthiness	117.7985158447641	
2.0	24.023568752205392	face	0.0		145	28.0	male	east_asian	1.5563072025467568	smiling	005	sub-02	2.0	1.0	005_smiling	1.0	dominance	118.01505345379746	1.2333390987428174
2.0	24.507026102211967	pulse	0.0	t		28.0	male	east_asian	1.5563072025467568	smiling	005	sub-02	2.0	1.0	005_smiling	1.0	dominance	118.49851080380404	
2.0	25.207013514904702	pulse	0.0	t		28.0	male	east_asian	1.5563072025467568	smiling	005	sub-02	2.0	1.0	005_smiling	1.0	dominance	119.19849821649677	
2.0	25.25690785094821	fix	1.0		177	28.0	male	east_asian	1.5563072025467568	smiling	005	sub-02	2.0	1.0	005_smiling	1.0	dominance	119.24839255254028	1.4999648340212843
2.0	25.90700002203539	pulse	1.0	t		28.0	male	east_asian	1.5563072025467568	smiling	005	sub-02	2.0	1.0	005_smiling	1.0	dominance	119.89848472362746	
2.0	26.606970832763636	pulse	1.0	t		28.0	male	east_asian	1.5563072025467568	smiling	005	sub-02	2.0	1.0	005_smiling	1.0	dominance	120.59845553435571	
2.0	26.756872684969494	rating	2.0		295	28.0	male	east_asian	1.5563072025467568	smiling	005	sub-02	2.0	1.0	005_smiling	1.0	dominance	120.74835738656157	2.49994098756315
2.0	27.301815862482727	pulse	2.0	t		28.0	male	east_asian	1.5563072025467568	smiling	005	sub-02	2.0	1.0	005_smiling	1.0	dominance	121.2933005640748	
2.0	27.826657985348447	response	2.0	y		28.0	male	east_asian	1.5563072025467568	smiling	005	sub-02	2.0	1.0	005_smiling	1.0	dominance	121.81814268694052	
2.0	28.00182712163314	pulse	2.0	t		28.0	male	east_asian	1.5563072025467568	smiling	005	sub-02	2.0	1.0	005_smiling	1.0	dominance	121.99331182322521	
2.0	28.70693699494177	pulse	2.0	t		28.0	male	east_asian	1.5563072025467568	smiling	005	sub-02	2.0	1.0	005_smiling	1.0	dominance	122.69842169653384	
2.0	29.256813672532644	fix	3.0		443	28.0	male	east_asian	1.5563072025467568	smiling	005	sub-02	2.0	1.0	005_smiling	1.0	dominance	123.24829837412472	3.7582965297970077
2.0	29.40692410578049	pulse	3.0	t		28.0	male	east_asian	1.5563072025467568	smiling	005	sub-02	2.0	1.0	005_smiling	1.0	dominance	123.39840880737256	
2.0	30.106891897969945	pulse	3.0	t		28.0	male	east_asian	1.5563072025467568	smiling	005	sub-02	2.0	1.0	005_smiling	1.0	dominance	124.09837659956202	
2.0	30.80687689583101	pulse	3.0	t		28.0	male	east_asian	1.5563072025467568	smiling	005	sub-02	2.0	1.0	005_smiling	1.0	dominance	124.79836159742308	
2.0	31.50684921582888	pulse	3.0	t		28.0	male	east_asian	1.5563072025467568	smiling	005	sub-02	2.0	1.0	005_smiling	1.0	dominance	125.49833391742095	
2.0	32.20684840082322	pulse	3.0	t		28.0	male	east_asian	1.5563072025467568	smiling	005	sub-02	2.0	1.0	005_smiling	1.0	dominance	126.19833310241529	
2.0	32.906835813515954	pulse	3.0	t		28.0	male	east_asian	1.5563072025467568	smiling	005	sub-02	2.0	1.0	005_smiling	1.0	dominance	126.89832051510803	
3.0	33.01511020232965	face	0.0		147	31.0	male	west_asian	1.9538400318344609	neutral	070	sub-02	2.0	1.0	070_neutral	0.0		127.00659490392172	1.2415543543784224
3.0	33.60679304081896	pulse	0.0	t		31.0	male	west_asian	1.9538400318344609	neutral	070	sub-02	2.0	1.0	070_neutral	0.0		127.59827774241103	
3.0	34.256664556708074	fix	1.0		443	31.0	male	west_asian	1.9538400318344609	neutral	070	sub-02	2.0	1.0	070_neutral	0.0		128.24814925830015	3.7665772877280688
3.0	34.30678075536525	pulse	1.0	t		31.0	male	west_asian	1.9538400318344609	neutral	070	sub-02	2.0	1.0	070_neutral	0.0		128.29826545695732	
3.0	35.006780845921185	pulse	1.0	t		31.0	male	west_asian	1.9538400318344609	neutral	070	sub-02	2.0	1.0	070_neutral	0.0		128.99826554751326	
3.0	35.706766447490736	pulse	1.0	t		31.0	male	west_asian	1.9538400318344609	neutral	070	sub-02	2.0	1.0	070_neutral	0.0		129.6982511490828	
3.0	36.406750237936194	pulse	1.0	t		31.0	male	west_asian	1.9538400318344609	neutral	070	sub-02	2.0	1.0	070_neutral	0.0		130.39823493952827	
3.0	37.09866788857107	pulse	1.0	t		31.0	male	west_asian	1.9538400318344609	neutral	070	sub-02	2.0	1.0	070_neutral	0.0		131.09015259016314	
3.0	37.79867250693587	pulse	1.0	t		31.0	male	west_asian	1.9538400318344609	neutral	070	sub-02	2.0	1.0	070_neutral	0.0		131.79015720852794	
4.0	38.02324184443614	face	0.0		145	27.0	female	white	3.504576203740549	neutral	144	sub-02	2.0	1.0	144_neutral	0.0		132.01472654602821	1.233312837453468
4.0	38.506698590734686	pulse	0.0	t		27.0	female	white	3.504576203740549	neutral	144	sub-02	2.0	1.0	144_neutral	0.0		132.49818329232676	
4.0	39.20668962567379	pulse	0.0	t		27.0	female	white	3.504576203740549	neutral	144	sub-02	2.0	1.0	144_neutral	0.0		133.19817432726586	
4.0	39.25655468188961	fix	1.0		444	27.0	female	white	3.504576203740549	neutral	144	sub-02	2.0	1.0	144_neutral	0.0		133.24803938348168	3.758238573849212
4.0	39.898599428107445	pulse	1.0	t		27.0	female	white	3.504576203740549	neutral	144	sub-02	2.0	1.0	144_neutral	0.0		133.89008412969952	
4.0	40.60665599915001	pulse	1.0	t		27.0	female	white	3.504576203740549	neutral	144	sub-02	2.0	1.0	144_neutral	0.0		134.59814070074208	
4.0	41.30663858218031	pulse	1.0	t		27.0	female	white	3.504576203740549	neutral	144	sub-02	2.0	1.0	144_neutral	0.0		135.29812328377238	
4.0	41.998551101298744	pulse	1.0	t		27.0	female	white	3.504576203740549	neutral	144	sub-02	2.0	1.0	144_neutral	0.0		135.99003580289082	
4.0	42.69854998443952	pulse	1.0	t		27.0	female	white	3.504576203740549	neutral	144	sub-02	2.0	1.0	144_neutral	0.0		136.6900346860316	
5.0	43.01479325573882	face	0.0		146	30.0	female	black	2.7345801830481498	neutral	062	sub-02	2.0	1.0	062_neutral	0.0		137.0062779573309	1.241651853186795
5.0	43.39846012253474	pulse	0.0	t		30.0	female	black	2.7345801830481498	neutral	062	sub-02	2.0	1.0	062_neutral	0.0		137.38994482412681	
5.0	44.098426707308136	pulse	0.0	t		30.0	female	black	2.7345801830481498	neutral	062	sub-02	2.0	1.0	062_neutral	0.0		138.0899114089002	
5.0	44.25644510892562	fix	1.0		445	30.0	female	black	2.7345801830481498	neutral	062	sub-02	2.0	1.0	062_neutral	0.0		138.2479298105177	3.766562496887218
5.0	44.79849320572157	pulse	1.0	t		30.0	female	black	2.7345801830481498	neutral	062	sub-02	2.0	1.0	062_neutral	0.0		138.78997790731364	
5.0	45.49846854425823	pulse	1.0	t		30.0	female	black	2.7345801830481498	neutral	062	sub-02	2.0	1.0	062_neutral	0.0		139.4899532458503	
5.0	46.19843784571685	pulse	1.0	t		30.0	female	black	2.7345801830481498	neutral	062	sub-02	2.0	1.0	062_neutral	0.0		140.18992254730892	
5.0	46.89843250290323	pulse	1.0	t		30.0	female	black	2.7345801830481498	neutral	062	sub-02	2.0	1.0	062_neutral	0.0		140.8899172044953	
5.0	47.59835199846884	pulse	1.0	t		30.0	female	black	2.7345801830481498	neutral	062	sub-02	2.0	1.0	062_neutral	0.0		141.5898367000609	
6.0	48.023007605812836	face	0.0		145	28.0	male	white	3.9076800636689217	smiling	033	sub-02	2.0	1.0	033_smiling	0.0		142.0144923074049	1.2333366839111477
6.0	48.29835993722645	pulse	0.0	t		28.0	male	white	3.9076800636689217	smiling	033	sub-02	2.0	1.0	033_smiling	0.0		142.28984463881852	
6.0	49.00645695669073	pulse	0.0	t		28.0	male	white	3.9076800636689217	smiling	033	sub-02	2.0	1.0	033_smiling	0.0		142.9979416582828	
6.0	49.256344289723984	fix	1.0		445	28.0	male	white	3.9076800636689217	smiling	033	sub-02	2.0	1.0	033_smiling	0.0		143.24782899131606	3.7582687592389448
6.0	49.698372494348405	pulse	1.0	t		28.0	male	white	3.9076800636689217	smiling	033	sub-02	2.0	1.0	033_smiling	0.0		143.68985719594048	
6.0	50.39835658664833	pulse	1.0	t		28.0	male	white	3.9076800636689217	smiling	033	sub-02	2.0	1.0	033_smiling	0.0		144.3898412882404	
6.0	51.098281515584404	pulse	1.0	t		28.0	male	white	3.9076800636689217	smiling	033	sub-02	2.0	1.0	033_smiling	0.0		145.08976621717648	
6.0	51.79833322315653	pulse	1.0	t		28.0	male	white	3.9076800636689217	smiling	033	sub-02	2.0	1.0	033_smiling	0.0		145.7898179247486	
6.0	52.4982506057454	pulse	1.0	t		28.0	male	white	3.9076800636689217	smiling	033	sub-02	2.0	1.0	033_smiling	0.0		146.48973530733747	
7.0	53.01461304896293	face	0.0		146	24.0	female	east_asian	4.409868682849185	smiling	030	sub-02	2.0	1.0	030_smiling	0.0		147.006097750555	1.2416153288650094
7.0	53.20636181234295	pulse	0.0	t		24.0	female	east_asian	4.409868682849185	smiling	030	sub-02	2.0	1.0	030_smiling	0.0		147.19784651393502	
7.0	53.89820399950395	pulse	0.0	t		24.0	female	east_asian	4.409868682849185	smiling	030	sub-02	2.0	1.0	030_smiling	0.0		147.88968870109602	
7.0	54.25622837782794	fix	1.0		445	24.0	female	east_asian	4.409868682849185	smiling	030	sub-02	2.0	1.0	030_smiling	0.0		148.24771307942	3.758343920858806
7.0	54.59826989420935	pulse	1.0	t		24.0	female	east_asian	4.409868682849185	smiling	030	sub-02	2.0	1.0	030_smiling	0.0		148.58975459580142	
7.0	55.29817429708055	pulse	1.0	t		24.0	female	east_asian	4.409868682849185	smiling	030	sub-02	2.0	1.0	030_smiling	0.0		149.28965899867262	
7.0	55.998221476844265	pulse	1.0	t		24.0	female	east_asian	4.409868682849185	smiling	030	sub-02	2.0	1.0	030_smiling	0.0		149.98970617843634	
7.0	56.698131614939484	pulse	1.0	t		24.0	female	east_asian	4.409868682849185	smiling	030	sub-02	2.0	1.0	030_smiling	0.0		150.68961631653156	
7.0	57.39819418925208	pulse	1.0	t		24.0	female	east_asian	4.409868682849185	smiling	030	sub-02	2.0	1.0	030_smiling	0.0		151.38967889084415	
8.0	58.014572298686744	face	0.0		146	31.0	female	east_asian	3.395941106247513	neutral	087	sub-02	2.0	1.0	087_neutral	1.0	attractiveness	152.00605700027882	1.2415386579759797
8.0	58.098132701613395	pulse	0.0	t		31.0	female	east_asian	3.395941106247513	neutral	087	sub-02	2.0	1.0	087_neutral	1.0	attractiveness	152.08961740320547	
8.0	58.79808872150079	pulse	0.0	t		31.0	female	east_asian	3.395941106247513	neutral	087	sub-02	2.0	1.0	087_neutral	1.0	attractiveness	152.78957342309286	
8.0	59.256110956662724	fix	1.0		177	31.0	female	east_asian	3.395941106247513	neutral	087	sub-02	2.0	1.0	087_neutral	1.0	attractiveness	153.2475956582548	1.4999663432904526
8.0	59.49810360289803	pulse	1.0	t		31.0	female	east_asian	3.395941106247513	neutral	087	sub-02	2.0	1.0	087_neutral	1.0	attractiveness	153.4895883044901	
8.0	60.198121502834056	pulse	1.0	t		31.0	female	east_asian	3.395941106247513	neutral	087	sub-02	2.0	1.0	087_neutral	1.0	attractiveness	154.18960620442613	
8.0	60.756077299953176	rating	2.0		294	31.0	female	east_asian	3.395941106247513	neutral	087	sub-02	2.0	1.0	087_neutral	1.0	attractiveness	154.74756200154525	2.499940082001558
8.0	60.9009149493445	pulse	2.0	t		31.0	female	east_asian	3.395941106247513	neutral	087	sub-02	2.0	1.0	087_neutral	1.0	attractiveness	154.89239965093657	
8.0	61.6010040868	pulse	2.0	t		31.0	female	east_asian	3.395941106247513	neutral	087	sub-02	2.0	1.0	087_neutral	1.0	attractiveness	155.59248878839207	
8.0	61.98429695661844	response	2.0	y		31.0	female	east_asian	3.395941106247513	neutral	087	sub-02	2.0	1.0	087_neutral	1.0	attractiveness	155.9757816582105	
8.0	62.298022162716734	pulse	2.0	t		31.0	female	east_asian	3.395941106247513	neutral	087	sub-02	2.0	1.0	087_neutral	1.0	attractiveness	156.2895068643088	
8.0	62.99801319765584	pulse	2.0	t		31.0	female	east_asian	3.395941106247513	neutral	087	sub-02	2.0	1.0	087_neutral	1.0	attractiveness	156.9894978992479	
8.0	63.256017381954734	fix	3.0		444	31.0	female	east_asian	3.395941106247513	neutral	087	sub-02	2.0	1.0	087_neutral	1.0	attractiveness	157.2475020835468	3.7665631005947944
8.0	63.6979800842837	pulse	3.0	t		31.0	female	east_asian	3.395941106247513	neutral	087	sub-02	2.0	1.0	087_neutral	1.0	attractiveness	157.68946478587577	
8.0	64.39796296916757	pulse	3.0	t		31.0	female	east_asian	3.395941106247513	neutral	087	sub-02	2.0	1.0	087_neutral	1.0	attractiveness	158.38944767075964	
8.0	65.09793891141226	pulse	3.0	t		31.0	female	east_asian	3.395941106247513	neutral	087	sub-02	2.0	1.0	087_neutral	1.0	attractiveness	159.08942361300433	
8.0	65.79778837687445	pulse	3.0	t		31.0	female	east_asian	3.395941106247513	neutral	087	sub-02	2.0	1.0	087_neutral	1.0	attractiveness	159.78927307846652	
8.0	66.49776914878112	pulse	3.0	t		31.0	female	east_asian	3.395941106247513	neutral	087	sub-02	2.0	1.0	087_neutral	1.0	attractiveness	160.4892538503732	
9.0	67.02258048254953	face	0.0		145	31.0	female	white	2.1822522881018704	smiling	102	sub-02	2.0	1.0	102_smiling	0.0		161.0140651841416	1.2333040836911096
9.0	67.19783957129494	pulse	0.0	t		31.0	female	white	2.1822522881018704	smiling	102	sub-02	2.0	1.0	102_smiling	0.0		161.189324272887	
9.0	67.89781853207842	pulse	0.0	t		31.0	female	white	2.1822522881018704	smiling	102	sub-02	2.0	1.0	102_smiling	0.0		161.8893032336705	
9.0	68.25588456624064	fix	1.0		444	31.0	female	white	2.1822522881018704	smiling	102	sub-02	2.0	1.0	102_smiling	0.0		162.2473692678327	3.766576985874053
9.0	68.5977522147773	pulse	1.0	t		31.0	female	white	2.1822522881018704	smiling	102	sub-02	2.0	1.0	102_smiling	0.0		162.58923691636937	
9.0	69.29784497447963	pulse	1.0	t		31.0	female	white	2.1822522881018704	smiling	102	sub-02	2.0	1.0	102_smiling	0.0		163.2893296760717	
9.0	69.9978414427892	pulse	1.0	t		31.0	female	white	2.1822522881018704	smiling	102	sub-02	2.0	1.0	102_smiling	0.0		163.98932614438127	
9.0	70.69780802756304	pulse	1.0	t		31.0	female	white	2.1822522881018704	smiling	102	sub-02	2.0	1.0	102_smiling	0.0		164.6892927291551	
9.0	71.3977918180085	pulse	1.0	t		31.0	female	white	2.1822522881018704	smiling	102	sub-02	2.0	1.0	102_smiling	0.0		165.38927651960057	
10.0	72.02246155211469	face	0.0		145	22.0	male	black	2.767608436132113	neutral	044	sub-02	2.0	1.0	044_neutral	0.0		166.01394625370676	1.2333221949243125
10.0	72.09772459514579	pulse	0.0	t		22.0	male	black	2.767608436132113	neutral	044	sub-02	2.0	1.0	044_neutral	0.0		166.08920929673786	
10.0	72.80589466325318	pulse	0.0	t		22.0	male	black	2.767608436132113	neutral	044	sub-02	2.0	1.0	044_neutral	0.0		166.79737936484526	
10.0	73.255783747039	fix	1.0		444	22.0	male	black	2.767608436132113	neutral	044	sub-02	2.0	1.0	044_neutral	0.0		167.24726844863108	3.758240083118835
10.0	73.49774711344662	pulse	1.0	t		22.0	male	black	2.767608436132113	neutral	044	sub-02	2.0	1.0	044_neutral	0.0		167.4892318150387	
10.0	74.19772365939889	pulse	1.0	t		22.0	male	black	2.767608436132113	neutral	044	sub-02	2.0	1.0	044_neutral	0.0		168.18920836099096	
10.0	74.89757463413025	pulse	1.0	t		22.0	male	black	2.767608436132113	neutral	044	sub-02	2.0	1.0	044_neutral	0.0		168.88905933572232	
10.0	75.59770029590754	pulse	1.0	t		22.0	male	black	2.767608436132113	neutral	044	sub-02	2.0	1.0	044_neutral	0.0		169.58918499749961	
10.0	76.2976807659602	pulse	1.0	t		22.0	male	black	2.767608436132113	neutral	044	sub-02	2.0	1.0	044_neutral	0.0		170.28916546755227	
11.0	77.01402383015784	face	0.0		147	27.0	male	black	3.5523278949462798	smiling	042	sub-02	2.0	1.0	042_smiling	0.0		171.0055085317499	1.2416437031315581
11.0	77.00816816642782	pulse	0.0	t		27.0	male	black	3.5523278949462798	smiling	042	sub-02	2.0	1.0	042_smiling	0.0		170.9996528680199	
11.0	77.70578693159769	pulse	0.0	t		27.0	male	black	3.5523278949462798	smiling	042	sub-02	2.0	1.0	042_smiling	0.0		171.69727163318976	
11.0	78.2556675332894	fix	1.0		443	27.0	male	black	3.5523278949462798	smiling	042	sub-02	2.0	1.0	042_smiling	0.0		172.24715223488147	3.7583550894528344
11.0	78.405774947998	pulse	1.0	t		27.0	male	black	3.5523278949462798	smiling	042	sub-02	2.0	1.0	042_smiling	0.0		172.39725964959007	
11.0	79.10575149395027	pulse	1.0	t		27.0	male	black	3.5523278949462798	smiling	042	sub-02	2.0	1.0	042_smiling	0.0		173.09723619554234	
11.0	79.80572381394813	pulse	1.0	t		27.0	male	black	3.5523278949462798	smiling	042	sub-02	2.0	1.0	042_smiling	0.0		173.7972085155402	
11.0	80.50570941551723	pulse	1.0	t		27.0	male	black	3.5523278949462798	smiling	042	sub-02	2.0	1.0	042_smiling	0.0		174.4971941171093	
11.0	81.19737441444113	pulse	1.0	t		27.0	male	black	3.5523278949462798	smiling	042	sub-02	2.0	1.0	042_smiling	0.0		175.1888591160332	
11.0	81.90568242977906	pulse	1.0	t		27.0	male	black	3.5523278949462798	smiling	042	sub-02	2.0	1.0	042_smiling	0.0		175.89716713137113	
12.0	82.01402262274223	face	0.0		147	21.0	male	black	2.969757262236371	smiling	137	sub-02	2.0	1.0	137_smiling	0.0		176.0055073243343	1.2415274893814967
12.0	82.60566380539376	pulse	0.0	t		21.0	male	black	2.969757262236371	smiling	137	sub-02	2.0	1.0	137_smiling	0.0		176.59714850698583	
12.0	83.25555011212373	fix	1.0		443	21.0	male	black	2.969757262236371	smiling	137	sub-02	2.0	1.0	137_smiling	0.0		177.2470348137158	3.758302868728606
12.0	83.30568230903737	pulse	1.0	t		21.0	male	black	2.969757262236371	smiling	137	sub-02	2.0	1.0	137_smiling	0.0		177.29716701062944	
12.0	84.00563591409355	pulse	1.0	t		21.0	male	black	2.969757262236371	smiling	137	sub-02	2.0	1.0	137_smiling	0.0		177.99712061568562	
12.0	84.705603706283	pulse	1.0	t		21.0	male	black	2.969757262236371	smiling	137	sub-02	2.0	1.0	137_smiling	0.0		178.69708840787507	
12.0	85.40562371919623	pulse	1.0	t		21.0	male	black	2.969757262236371	smiling	137	sub-02	2.0	1.0	137_smiling	0.0		179.3971084207883	
12.0	86.1055740038596	pulse	1.0	t		21.0	male	black	2.969757262236371	smiling	137	sub-02	2.0	1.0	137_smiling	0.0		180.09705870545167	
12.0	86.80556654806833	pulse	1.0	t		21.0	male	black	2.969757262236371	smiling	137	sub-02	2.0	1.0	137_smiling	0.0		180.7970512496604	
13.0	87.01385298085233	face	0.0		146	22.0	female	west_asian	3.8205332272184642	neutral	066	sub-02	2.0	1.0	066_neutral	0.0		181.0053376824444	1.2415585803328213
13.0	87.50556392193948	pulse	0.0	t		22.0	female	west_asian	3.8205332272184642	neutral	066	sub-02	2.0	1.0	066_neutral	0.0		181.49704862353155	
13.0	88.20557669035907	pulse	0.0	t		22.0	female	west_asian	3.8205332272184642	neutral	066	sub-02	2.0	1.0	066_neutral	0.0		182.19706139195114	
13.0	88.25541156118516	fix	1.0		445	22.0	female	west_asian	3.8205332272184642	neutral	066	sub-02	2.0	1.0	066_neutral	0.0		182.24689626277723	3.7582319330635983
13.0	88.90551671199	pulse	1.0	t		22.0	female	west_asian	3.8205332272184642	neutral	066	sub-02	2.0	1.0	066_neutral	0.0		182.89700141358207	
13.0	89.60549838945872	pulse	1.0	t		22.0	female	west_asian	3.8205332272184642	neutral	066	sub-02	2.0	1.0	066_neutral	0.0		183.5969830910508	
13.0	90.3054836891738	pulse	1.0	t		22.0	female	west_asian	3.8205332272184642	neutral	066	sub-02	2.0	1.0	066_neutral	0.0		184.29696839076587	
13.0	91.00546053698008	pulse	1.0	t		22.0	female	west_asian	3.8205332272184642	neutral	066	sub-02	2.0	1.0	066_neutral	0.0		184.99694523857215	
13.0	91.70545338304282	pulse	1.0	t		22.0	female	west_asian	3.8205332272184642	neutral	066	sub-02	2.0	1.0	066_neutral	0.0		185.6969380846349	
14.0	92.01364349424875	face	0.0		146	21.0	male	east_asian/white	3.501790688420215	smiling	036	sub-02	2.0	1.0	036_smiling	0.0		186.00512819584083	1.2416578902643778
14.0	92.40543264567987	pulse	0.0	t		21.0	male	east_asian/white	3.501790688420215	smiling	036	sub-02	2.0	1.0	036_smiling	0.0		186.39691734727194	
14.0	93.10544511224589	pulse	0.0	t		21.0	male	east_asian/white	3.501790688420215	smiling	036	sub-02	2.0	1.0	036_smiling	0.0		187.09692981383796	
14.0	93.25530138451313	fix	1.0		444	21.0	male	east_asian/white	3.501790688420215	smiling	036	sub-02	2.0	1.0	036_smiling	0.0		187.2467860861052	3.7665489134619747
14.0	93.80541743224376	pulse	1.0	t		21.0	male	east_asian/white	3.501790688420215	smiling	036	sub-02	2.0	1.0	036_smiling	0.0		187.79690213383583	
14.0	94.50540212825126	pulse	1.0	t		21.0	male	east_asian/white	3.501790688420215	smiling	036	sub-02	2.0	1.0	036_smiling	0.0		188.49688682984333	
14.0	95.20536116667745	pulse	1.0	t		21.0	male	east_asian/white	3.501790688420215	smiling	036	sub-02	2.0	1.0	036_smiling	0.0		189.19684586826952	
14.0	95.90536186094141	pulse	1.0	t		21.0	male	east_asian/white	3.501790688420215	smiling	036	sub-02	2.0	1.0	036_smiling	0.0		189.89684656253348	
14.0	96.60532844571526	pulse	1.0	t		21.0	male	east_asian/white	3.501790688420215	smiling	036	sub-02	2.0	1.0	036_smiling	0.0		190.59681314730733	
15.0	97.0218502979751	face	0.0		145	22.0	male	black	2.767608436132113	smiling	044	sub-02	2.0	1.0	044_smiling	1.0	attractiveness	191.01333499956718	1.23333306166478
15.0	97.30532159363156	pulse	0.0	t		22.0	male	black	2.767608436132113	smiling	044	sub-02	2.0	1.0	044_smiling	1.0	attractiveness	191.29680629522363	
15.0	98.00530357295384	pulse	0.0	t		22.0	male	black	2.767608436132113	smiling	044	sub-02	2.0	1.0	044_smiling	1.0	attractiveness	191.9967882745459	
15.0	98.25518335963989	fix	1.0		177	22.0	male	black	2.767608436132113	smiling	044	sub-02	2.0	1.0	044_smiling	1.0	attractiveness	192.24666806123196	1.499982945254942
15.0	98.70528555227656	pulse	1.0	t		22.0	male	black	2.767608436132113	smiling	044	sub-02	2.0	1.0	044_smiling	1.0	attractiveness	192.69677025386864	
15.0	99.40526240008239	pulse	1.0	t		22.0	male	black	2.767608436132113	smiling	044	sub-02	2.0	1.0	044_smiling	1.0	attractiveness	193.39674710167446	
15.0	99.75516630489483	rating	2.0		294	22.0	male	black	2.767608436132113	smiling	044	sub-02	2.0	1.0	044_smiling	1.0	attractiveness	193.7466510064869	2.499938572731935
15.0	100.10009112969101	pulse	2.0	t		22.0	male	black	2.767608436132113	smiling	044	sub-02	2.0	1.0	044_smiling	1.0	attractiveness	194.09157583128308	
15.0	100.79997591205893	pulse	2.0	t		22.0	male	black	2.767608436132113	smiling	044	sub-02	2.0	1.0	044_smiling	1.0	attractiveness	194.791460613651	
15.0	100.89994841316911	response	2.0	y		22.0	male	black	2.767608436132113	smiling	044	sub-02	2.0	1.0	044_smiling	1.0	attractiveness	194.89143311476118	
15.0	101.50521829922855	pulse	2.0	t		22.0	male	black	2.767608436132113	smiling	044	sub-02	2.0	1.0	044_smiling	1.0	attractiveness	195.49670300082062	
15.0	102.20521295641447	pulse	2.0	t		22.0	male	black	2.767608436132113	smiling	044	sub-02	2.0	1.0	044_smiling	1.0	attractiveness	196.19669765800654	
15.0	102.25510487762676	fix	3.0		444	22.0	male	black	2.767608436132113	smiling	044	sub-02	2.0	1.0	044_smiling	1.0	attractiveness	196.24658957921883	3.758210501436679
15.0	102.90516837259383	pulse	3.0	t		22.0	male	black	2.767608436132113	smiling	044	sub-02	2.0	1.0	044_smiling	1.0	attractiveness	196.8966530741859	
15.0	103.60517631135144	pulse	3.0	t		22.0	male	black	2.767608436132113	smiling	044	sub-02	2.0	1.0	044_smiling	1.0	attractiveness	197.5966610129435	
15.0	104.30516010179736	pulse	3.0	t		22.0	male	black	2.767608436132113	smiling	044	sub-02	2.0	1.0	044_smiling	1.0	attractiveness	198.29664480338943	
15.0	105.0051393644344	pulse	3.0	t		22.0	male	black	2.767608436132113	smiling	044	sub-02	2.0	1.0	044_smiling	1.0	attractiveness	198.99662406602647	
15.0	105.70515213285444	pulse	3.0	t		22.0	male	black	2.767608436132113	smiling	044	sub-02	2.0	1.0	044_smiling	1.0	attractiveness	199.6966368344465	
16.0	106.01331537906344	face	0.0		146	24.0	female	east_asian	2.9076800636689217	neutral	034	sub-02	2.0	1.0	034_neutral	0.0		200.0048000806555	1.2416747940828827
16.0	106.4051232454367	pulse	0.0	t		24.0	female	east_asian	2.9076800636689217	neutral	034	sub-02	2.0	1.0	034_neutral	0.0		200.39660794702877	
16.0	107.10508711352531	pulse	0.0	t		24.0	female	east_asian	2.9076800636689217	neutral	034	sub-02	2.0	1.0	034_neutral	0.0		201.0965718151174	
16.0	107.25499017314633	fix	1.0		444	24.0	female	east_asian	2.9076800636689217	neutral	034	sub-02	2.0	1.0	034_neutral	0.0		201.2464748747384	3.766560987617595
16.0	107.80508629851965	pulse	1.0	t		24.0	female	east_asian	2.9076800636689217	neutral	034	sub-02	2.0	1.0	034_neutral	0.0		201.79657100011173	
16.0	108.50507190008875	pulse	1.0	t		24.0	female	east_asian	2.9076800636689217	neutral	034	sub-02	2.0	1.0	034_neutral	0.0		202.49655660168082	
16.0	109.20504965345663	pulse	1.0	t		24.0	female	east_asian	2.9076800636689217	neutral	034	sub-02	2.0	1.0	034_neutral	0.0		203.1965343550487	
16.0	109.90501955862328	pulse	1.0	t		24.0	female	east_asian	2.9076800636689217	neutral	034	sub-02	2.0	1.0	034_neutral	0.0		203.89650426021535	
16.0	110.60502085659482	pulse	1.0	t		24.0	female	east_asian	2.9076800636689217	neutral	034	sub-02	2.0	1.0	034_neutral	0.0		204.5965055581869	
17.0	111.02155116076392	face	0.0		145	40.0	female	west_asian	1.5777954635893354	smiling	038	sub-02	2.0	1.0	038_smiling	0.0		205.013035862356	1.2333058948142934
17.0	111.30500374147914	pulse	0.0	t		40.0	female	west_asian	1.5777954635893354	smiling	038	sub-02	2.0	1.0	038_smiling	0.0		205.2964884430712	
17.0	112.00496821327533	pulse	0.0	t		40.0	female	west_asian	1.5777954635893354	smiling	038	sub-02	2.0	1.0	038_smiling	0.0		205.9964529148674	
17.0	112.25485705557821	fix	1.0		444	40.0	female	west_asian	1.5777954635893354	smiling	038	sub-02	2.0	1.0	038_smiling	0.0		206.24634175717028	3.766560082056003
17.0	112.70496951124733	pulse	1.0	t		40.0	female	west_asian	1.5777954635893354	smiling	038	sub-02	2.0	1.0	038_smiling	0.0		206.6964542128394	
17.0	113.40494484978399	pulse	1.0	t		40.0	female	west_asian	1.5777954635893354	smiling	038	sub-02	2.0	1.0	038_smiling	0.0		207.39642955137606	
17.0	114.10493437545392	pulse	1.0	t		40.0	female	west_asian	1.5777954635893354	smiling	038	sub-02	2.0	1.0	038_smiling	0.0		208.096419077046	
17.0	114.8049184677534	pulse	1.0	t		40.0	female	west_asian	1.5777954635893354	smiling	038	sub-02	2.0	1.0	038_smiling	0.0		208.79640316934547	
17.0	115.50489199516687	pulse	1.0	t		40.0	female	west_asian	1.5777954635893354	smiling	038	sub-02	2.0	1.0	038_smiling	0.0		209.49637669675894	
18.0	116.02141713763422	face	0.0		145	24.0	male	white	3.1153999204138483	neutral	012	sub-02	2.0	1.0	012_neutral	0.0		210.0129018392263	1.2333363820575869
18.0	116.20487337078112	pulse	0.0	t		24.0	male	white	3.1153999204138483	neutral	012	sub-02	2.0	1.0	012_neutral	0.0		210.1963580723732	
18.0	116.904851426003	pulse	0.0	t		24.0	male	white	3.1153999204138483	neutral	012	sub-02	2.0	1.0	012_neutral	0.0		210.89633612759508	
18.0	117.2547535196918	fix	1.0		444	24.0	male	white	3.1153999204138483	neutral	012	sub-02	2.0	1.0	012_neutral	0.0		211.24623822128387	3.766566420988056
18.0	117.60484215908855	pulse	1.0	t		24.0	male	white	3.1153999204138483	neutral	012	sub-02	2.0	1.0	012_neutral	0.0		211.59632686068062	
18.0	118.30484496632971	pulse	1.0	t		24.0	male	white	3.1153999204138483	neutral	012	sub-02	2.0	1.0	012_neutral	0.0		212.29632966792178	
18.0	119.00481004183393	pulse	1.0	t		24.0	male	white	3.1153999204138483	neutral	012	sub-02	2.0	1.0	012_neutral	0.0		212.996294743426	
18.0	119.70482341396155	pulse	1.0	t		24.0	male	white	3.1153999204138483	neutral	012	sub-02	2.0	1.0	012_neutral	0.0		213.69630811555362	
18.0	120.40477913199493	pulse	1.0	t		24.0	male	white	3.1153999204138483	neutral	012	sub-02	2.0	1.0	012_neutral	0.0		214.396263833587	
19.0	121.02131994067986	face	0.0		145	32.0	male	white	2.389176283326701	neutral	092	sub-02	2.0	1.0	092_neutral	0.0		215.01280464227193	1.2332968391970098
19.0	121.10477560030449	pulse	0.0	t		32.0	male	white	2.389176283326701	neutral	092	sub-02	2.0	1.0	092_neutral	0.0		215.09626030189656	
19.0	121.80477025749042	pulse	0.0	t		32.0	male	white	2.389176283326701	neutral	092	sub-02	2.0	1.0	092_neutral	0.0		215.7962549590825	
19.0	122.25461677987687	fix	1.0		444	32.0	male	white	2.389176283326701	neutral	092	sub-02	2.0	1.0	092_neutral	0.0		216.24610148146894	3.7665790988517074
19.0	122.50476068872194	pulse	1.0	t		32.0	male	white	2.389176283326701	neutral	092	sub-02	2.0	1.0	092_neutral	0.0		216.49624539031402	
19.0	123.20471459563214	pulse	1.0	t		32.0	male	white	2.389176283326701	neutral	092	sub-02	2.0	1.0	092_neutral	0.0		217.1961992972242	
19.0	123.90469325456161	pulse	1.0	t		32.0	male	white	2.389176283326701	neutral	092	sub-02	2.0	1.0	092_neutral	0.0		217.89617795615368	
19.0	124.60468972287117	pulse	1.0	t		32.0	male	white	2.389176283326701	neutral	092	sub-02	2.0	1.0	092_neutral	0.0		218.59617442446324	
19.0	125.30467472073224	pulse	1.0	t		32.0	male	white	2.389176283326701	neutral	092	sub-02	2.0	1.0	092_neutral	0.0		219.2961594223243	
20.0	126.02119587872858	face	0.0		146	27.0	female	white	4.181058495821727	neutral	039	sub-02	2.0	1.0	039_neutral	0.0		220.01268058032065	1.2333240060479511
20.0	126.00721611923973	pulse	0.0	t		27.0	female	white	4.181058495821727	neutral	039	sub-02	2.0	1.0	039_neutral	0.0		219.9987008208318	
20.0	126.70464049050042	pulse	0.0	t		27.0	female	white	4.181058495821727	neutral	039	sub-02	2.0	1.0	039_neutral	0.0		220.6961251920925	
20.0	127.25451988477653	fix	1.0		1184	27.0	female	white	4.181058495821727	neutral	039	sub-02	2.0	1.0	039_neutral	0.0		221.2460045863686	10.016400325881477
20.0	127.40462820504672	pulse	1.0	t		27.0	female	white	4.181058495821727	neutral	039	sub-02	2.0	1.0	039_neutral	0.0		221.3961129066388	
20.0	128.10459509167458	pulse	1.0	t		27.0	female	white	4.181058495821727	neutral	039	sub-02	2.0	1.0	039_neutral	0.0		222.09607979326665	
20.0	128.80457616543526	pulse	1.0	t		27.0	female	white	4.181058495821727	neutral	039	sub-02	2.0	1.0	039_neutral	0.0		222.79606086702734	
20.0	129.50456086144277	pulse	1.0	t		27.0	female	white	4.181058495821727	neutral	039	sub-02	2.0	1.0	039_neutral	0.0		223.49604556303484	
20.0	130.20454676486588	pulse	1.0	t		27.0	female	white	4.181058495821727	neutral	039	sub-02	2.0	1.0	039_neutral	0.0		224.19603146645795	
20.0	130.90452240525656	pulse	1.0	t		27.0	female	white	4.181058495821727	neutral	039	sub-02	2.0	1.0	039_neutral	0.0		224.89600710684863	
20.0	131.60452128839688	pulse	1.0	t		27.0	female	white	4.181058495821727	neutral	039	sub-02	2.0	1.0	039_neutral	0.0		225.59600598998895	
20.0	132.3045059844044	pulse	1.0	t		27.0	female	white	4.181058495821727	neutral	039	sub-02	2.0	1.0	039_neutral	0.0		226.29599068599646	
20.0	133.0044940008047	pulse	1.0	t		27.0	female	white	4.181058495821727	neutral	039	sub-02	2.0	1.0	039_neutral	0.0		226.99597870239677	
20.0	133.70447054675697	pulse	1.0	t		27.0	female	white	4.181058495821727	neutral	039	sub-02	2.0	1.0	039_neutral	0.0		227.69595524834904	
20.0	134.4044588650113	pulse	1.0	t		27.0	female	white	4.181058495821727	neutral	039	sub-02	2.0	1.0	039_neutral	0.0		228.39594356660336	
20.0	135.1044435610188	pulse	1.0	t		27.0	female	white	4.181058495821727	neutral	039	sub-02	2.0	1.0	039_neutral	0.0		229.09592826261087	
20.0	135.80443067185752	pulse	1.0	t		27.0	female	white	4.181058495821727	neutral	039	sub-02	2.0	1.0	039_neutral	0.0		229.7959153734496	
20.0	136.50441778269578	pulse	1.0	t		27.0	female	white	4.181058495821727	neutral	039	sub-02	2.0	1.0	039_neutral	0.0		230.49590248428785	
20.0	137.20436535067438	pulse	1.0	t		27.0	female	white	4.181058495821727	neutral	039	sub-02	2.0	1.0	039_neutral	0.0		231.19585005226645	
21.0	137.270920210658	face	0.0		146	36.0	female	white	2.7548746518105847	neutral	011	sub-02	2.0	1.0	011_neutral	0.0		231.26240491225008	1.2333363820575869
21.0	137.9043799302176	pulse	0.0	t		36.0	female	white	2.7548746518105847	neutral	011	sub-02	2.0	1.0	011_neutral	0.0		231.89586463180967	
21.0	138.5042565927156	fix	1.0		443	36.0	female	white	2.7548746518105847	neutral	011	sub-02	2.0	1.0	011_neutral	0.0		232.49574129430766	3.7582286126703366
21.0	138.60436583364026	pulse	1.0	t		36.0	female	white	2.7548746518105847	neutral	011	sub-02	2.0	1.0	011_neutral	0.0		232.59585053523233	
21.0	139.3043828280147	pulse	1.0	t		36.0	female	white	2.7548746518105847	neutral	011	sub-02	2.0	1.0	011_neutral	0.0		233.29586752960677	
21.0	140.00436178879818	pulse	1.0	t		36.0	female	white	2.7548746518105847	neutral	011	sub-02	2.0	1.0	011_neutral	0.0		233.99584649039025	
21.0	140.70431569570837	pulse	1.0	t		36.0	female	white	2.7548746518105847	neutral	011	sub-02	2.0	1.0	011_neutral	0.0		234.69580039730045	
21.0	141.40429344907625	pulse	1.0	t		36.0	female	white	2.7548746518105847	neutral	011	sub-02	2.0	1.0	011_neutral	0.0		235.39577815066832	
21.0	142.10427844693777	pulse	1.0	t		36.0	female	white	2.7548746518105847	neutral	011	sub-02	2.0	1.0	011_neutral	0.0		236.09576314852984	
22.0	142.26248520538593	face	0.0		147	27.0	female	white	4.181058495821727	smiling	039	sub-02	2.0	1.0	039_smiling	0.0		236.253969906978	1.2416572865568014
22.0	142.80426918002286	pulse	0.0	t		27.0	female	white	4.181058495821727	smiling	039	sub-02	2.0	1.0	039_smiling	0.0		236.79575388161493	
22.0	143.50414249194273	fix	1.0		444	27.0	female	white	4.181058495821727	smiling	039	sub-02	2.0	1.0	039_smiling	0.0		237.4956271935348	3.7665513282931897
22.0	143.51158681272773	pulse	1.0	t		27.0	female	white	4.181058495821727	smiling	039	sub-02	2.0	1.0	039_smiling	0.0		237.5030715143198	
22.0	144.20422921456702	pulse	1.0	t		27.0	female	white	4.181058495821727	smiling	039	sub-02	2.0	1.0	039_smiling	0.0		238.1957139161591	
22.0	144.90421511799013	pulse	1.0	t		27.0	female	white	4.181058495821727	smiling	039	sub-02	2.0	1.0	039_smiling	0.0		238.8956998195822	
22.0	145.60420011585165	pulse	1.0	t		27.0	female	white	4.181058495821727	smiling	039	sub-02	2.0	1.0	039_smiling	0.0		239.59568481744373	
22.0	146.3041751525343	pulse	1.0	t		27.0	female	white	4.181058495821727	smiling	039	sub-02	2.0	1.0	039_smiling	0.0		240.29565985412637	
22.0	147.00417313011303	pulse	1.0	t		27.0	female	white	4.181058495821727	smiling	039	sub-02	2.0	1.0	039_smiling	0.0		240.9956578317051	
23.0	147.27069382023592	face	0.0		145	36.0	female	white	2.7548746518105847	smiling	011	sub-02	2.0	1.0	011_smiling	0.0		241.262178521828	1.2333083096450537
23.0	147.70415178904295	pulse	0.0	t		36.0	female	white	2.7548746518105847	smiling	011	sub-02	2.0	1.0	011_smiling	0.0		241.69563649063502	
23.0	148.40412109050158	pulse	0.0	t		36.0	female	white	2.7548746518105847	smiling	011	sub-02	2.0	1.0	011_smiling	0.0		242.39560579209365	
23.0	148.50400212988097	fix	1.0		444	36.0	female	white	2.7548746518105847	smiling	011	sub-02	2.0	1.0	011_smiling	0.0		242.49548683147304	3.766568835819271
23.0	149.10412178476554	pulse	1.0	t		36.0	female	white	2.7548746518105847	smiling	011	sub-02	2.0	1.0	011_smiling	0.0		243.0956064863576	
23.0	149.80408806768537	pulse	1.0	t		36.0	female	white	2.7548746518105847	smiling	011	sub-02	2.0	1.0	011_smiling	0.0		243.79557276927744	
23.0	150.5040872526797	pulse	1.0	t		36.0	female	white	2.7548746518105847	smiling	011	sub-02	2.0	1.0	011_smiling	0.0		244.49557195427178	
23.0	151.20406047823917	pulse	1.0	t		36.0	female	white	2.7548746518105847	smiling	011	sub-02	2.0	1.0	011_smiling	0.0		245.19554517983124	
23.0	151.9040445705391	pulse	1.0	t		36.0	female	white	2.7548746518105847	smiling	011	sub-02	2.0	1.0	011_smiling	0.0		245.89552927213117	
24.0	152.27057096570024	face	0.0		145	19.0	female	white	4.298846000795861	neutral	100	sub-02	2.0	1.0	100_neutral	0.0		246.26205566729232	1.2333357783495558
24.0	152.60402353132213	pulse	0.0	t		19.0	female	white	4.298846000795861	neutral	100	sub-02	2.0	1.0	100_neutral	0.0		246.5955082329142	
24.0	153.30401456626169	pulse	0.0	t		19.0	female	white	4.298846000795861	neutral	100	sub-02	2.0	1.0	100_neutral	0.0		247.29549926785376	
24.0	153.5039067440498	fix	1.0		444	19.0	female	white	4.298846000795861	neutral	100	sub-02	2.0	1.0	100_neutral	0.0		247.49539144564187	3.766546196776744
24.0	154.00402341058088	pulse	1.0	t		19.0	female	white	4.298846000795861	neutral	100	sub-02	2.0	1.0	100_neutral	0.0		247.99550811217296	
24.0	154.70397671378305	pulse	1.0	t		19.0	female	white	4.298846000795861	neutral	100	sub-02	2.0	1.0	100_neutral	0.0		248.69546141537512	
24.0	155.40397438950822	pulse	1.0	t		19.0	female	white	4.298846000795861	neutral	100	sub-02	2.0	1.0	100_neutral	0.0		249.3954590911003	
24.0	156.10394972804488	pulse	1.0	t		19.0	female	white	4.298846000795861	neutral	100	sub-02	2.0	1.0	100_neutral	0.0		250.09543442963695	
24.0	156.80393804629875	pulse	1.0	t		19.0	female	white	4.298846000795861	neutral	100	sub-02	2.0	1.0	100_neutral	0.0		250.79542274789083	
25.0	157.27045294082654	face	0.0		145	20.0	female	white	3.9502586549940313	smiling	091	sub-02	2.0	1.0	091_smiling	0.0		251.26193764241862	1.2333448339668394
25.0	157.5039257608455	pulse	0.0	t		20.0	female	white	3.9502586549940313	smiling	091	sub-02	2.0	1.0	091_smiling	0.0		251.49541046243758	
25.0	158.2038947604501	pulse	0.0	t		20.0	female	white	3.9502586549940313	smiling	091	sub-02	2.0	1.0	091_smiling	0.0		252.19537946204218	
25.0	158.50379777479338	fix	1.0		444	20.0	female	white	3.9502586549940313	smiling	091	sub-02	2.0	1.0	091_smiling	0.0		252.49528247638546	3.7582980390666307
25.0	158.90389756769127	pulse	1.0	t		20.0	female	white	3.9502586549940313	smiling	091	sub-02	2.0	1.0	091_smiling	0.0		252.89538226928335	
25.0	159.6038729062284	pulse	1.0	t		20.0	female	white	3.9502586549940313	smiling	091	sub-02	2.0	1.0	091_smiling	0.0		253.59535760782046	
25.0	160.30385790408945	pulse	1.0	t		20.0	female	white	3.9502586549940313	smiling	091	sub-02	2.0	1.0	091_smiling	0.0		254.29534260568153	
25.0	161.00384139268135	pulse	1.0	t		20.0	female	white	3.9502586549940313	smiling	091	sub-02	2.0	1.0	091_smiling	0.0		254.99532609427342	
25.0	161.7038037515008	pulse	1.0	t		20.0	female	white	3.9502586549940313	smiling	091	sub-02	2.0	1.0	091_smiling	0.0		255.69528845309287	
26.0	162.26209581386001	face	0.0		146	25.0	female	black	3.858336649423	smiling	126	sub-02	2.0	1.0	126_smiling	0.0		256.2535805154521	1.2415763897124634
26.0	162.40380746430355	pulse	0.0	t		25.0	female	black	3.858336649423	smiling	126	sub-02	2.0	1.0	126_smiling	0.0		256.3952921658956	
26.0	163.10379366958068	pulse	0.0	t		25.0	female	black	3.858336649423	smiling	126	sub-02	2.0	1.0	126_smiling	0.0		257.09527837117275	
26.0	163.50367220357248	fix	1.0		444	25.0	female	black	3.858336649423	smiling	126	sub-02	2.0	1.0	126_smiling	0.0		257.49515690516455	3.7665627987412336
26.0	163.8037629710393	pulse	1.0	t		25.0	female	black	3.858336649423	smiling	126	sub-02	2.0	1.0	126_smiling	0.0		257.7952476726314	
26.0	164.50375551524803	pulse	1.0	t		25.0	female	black	3.858336649423	smiling	126	sub-02	2.0	1.0	126_smiling	0.0		258.4952402168401	
26.0	165.2037371927163	pulse	1.0	t		25.0	female	black	3.858336649423	smiling	126	sub-02	2.0	1.0	126_smiling	0.0		259.19522189430836	
26.0	165.90372158687023	pulse	1.0	t		25.0	female	black	3.858336649423	smiling	126	sub-02	2.0	1.0	126_smiling	0.0		259.8952062884623	
26.0	166.60370507546213	pulse	1.0	t		25.0	female	black	3.858336649423	smiling	126	sub-02	2.0	1.0	126_smiling	0.0		260.5951897770542	
27.0	167.2702350023137	face	0.0		145	19.0	male	white	2.243931555909272	neutral	130	sub-02	2.0	1.0	130_neutral	0.0		261.2617197039058	1.233320081947113
27.0	167.30369731781684	pulse	0.0	t		19.0	male	white	2.243931555909272	neutral	130	sub-02	2.0	1.0	130_neutral	0.0		261.2951820194089	
27.0	168.00368231567836	pulse	0.0	t		19.0	male	white	2.243931555909272	neutral	130	sub-02	2.0	1.0	130_neutral	0.0		261.99516701727043	
27.0	168.50355508426082	fix	1.0		443	19.0	male	white	2.243931555909272	neutral	130	sub-02	2.0	1.0	130_neutral	0.0		262.4950397858529	3.758236159017997
27.0	168.7036606727538	pulse	1.0	t		19.0	male	white	2.243931555909272	neutral	130	sub-02	2.0	1.0	130_neutral	0.0		262.6951453743459	
27.0	169.40362906865084	pulse	1.0	t		19.0	male	white	2.243931555909272	neutral	130	sub-02	2.0	1.0	130_neutral	0.0		263.3951137702429	
27.0	170.10363761111603	pulse	1.0	t		19.0	male	white	2.243931555909272	neutral	130	sub-02	2.0	1.0	130_neutral	0.0		264.0951223127081	
27.0	170.80360419588987	pulse	1.0	t		19.0	male	white	2.243931555909272	neutral	130	sub-02	2.0	1.0	130_neutral	0.0		264.79508889748195	
27.0	171.5035659510013	pulse	1.0	t		19.0	male	white	2.243931555909272	neutral	130	sub-02	2.0	1.0	130_neutral	0.0		265.49505065259336	
27.0	172.20357992683648	pulse	1.0	t		19.0	male	white	2.243931555909272	neutral	130	sub-02	2.0	1.0	130_neutral	0.0		266.19506462842855	
28.0	172.26179124327882	face	0.0		147	19.0	male	white	3.2522881018702745	smiling	018	sub-02	2.0	1.0	018_smiling	0.0		266.2532759448709	1.2416322326830596
28.0	172.90355254868837	pulse	0.0	t		19.0	male	white	3.2522881018702745	smiling	018	sub-02	2.0	1.0	018_smiling	0.0		266.89503725028044	
28.0	173.50342347596188	fix	1.0		443	19.0	male	white	3.2522881018702745	smiling	018	sub-02	2.0	1.0	018_smiling	0.0		267.49490817755395	3.766562195033657
28.0	173.60353513171822	pulse	1.0	t		19.0	male	white	3.2522881018702745	smiling	018	sub-02	2.0	1.0	018_smiling	0.0		267.5950198333103	
28.0	174.30369007332365	pulse	1.0	t		19.0	male	white	3.2522881018702745	smiling	018	sub-02	2.0	1.0	018_smiling	0.0		268.2951747749157	
28.0	175.00351931457453	pulse	1.0	t		19.0	male	white	3.2522881018702745	smiling	018	sub-02	2.0	1.0	018_smiling	0.0		268.9950040161666	
28.0	175.70349616238082	pulse	1.0	t		19.0	male	white	3.2522881018702745	smiling	018	sub-02	2.0	1.0	018_smiling	0.0		269.6949808639729	
28.0	176.40347693428748	pulse	1.0	t		19.0	male	white	3.2522881018702745	smiling	018	sub-02	2.0	1.0	018_smiling	0.0		270.39496163587955	
28.0	177.10345830990218	pulse	1.0	t		19.0	male	white	3.2522881018702745	smiling	018	sub-02	2.0	1.0	018_smiling	0.0		271.09494301149425	
29.0	177.26998567099554	face	0.0		146	40.0	male	black	2.408674890569041	smiling	061	sub-02	2.0	1.0	061_smiling	0.0		271.2614703725876	1.2333194782395367
29.0	177.80343455400043	pulse	0.0	t		40.0	male	black	2.408674890569041	smiling	061	sub-02	2.0	1.0	061_smiling	0.0		271.7949192555925	
29.0	178.50330514923508	fix	1.0		444	40.0	male	black	2.408674890569041	smiling	061	sub-02	2.0	1.0	061_smiling	0.0		272.49478985082715	3.7583258096246936
29.0	178.51081406675394	pulse	1.0	t		40.0	male	black	2.408674890569041	smiling	061	sub-02	2.0	1.0	061_smiling	0.0		272.502298768346	
29.0	179.20339851264498	pulse	1.0	t		40.0	male	black	2.408674890569041	smiling	061	sub-02	2.0	1.0	061_smiling	0.0		273.19488321423705	
29.0	179.90338501977612	pulse	1.0	t		40.0	male	black	2.408674890569041	smiling	061	sub-02	2.0	1.0	061_smiling	0.0		273.8948697213682	
29.0	180.60336941392916	pulse	1.0	t		40.0	male	black	2.408674890569041	smiling	061	sub-02	2.0	1.0	061_smiling	0.0		274.59485411552123	
29.0	181.303364071116	pulse	1.0	t		40.0	male	black	2.408674890569041	smiling	061	sub-02	2.0	1.0	061_smiling	0.0		275.29484877270806	
29.0	182.0033457485838	pulse	1.0	t		40.0	male	black	2.408674890569041	smiling	061	sub-02	2.0	1.0	061_smiling	0.0		275.99483045017587	
30.0	182.26163095885977	face	0.0		146	19.0	female	white	4.298846000795861	smiling	100	sub-02	2.0	1.0	100_smiling	0.0		276.25311566045184	1.2415591840408524
30.0	182.7033355761082	pulse	0.0	t		19.0	female	white	4.298846000795861	smiling	100	sub-02	2.0	1.0	100_smiling	0.0		276.6948202777003	
30.0	183.4033042738588	pulse	0.0	t		19.0	female	white	4.298846000795861	smiling	100	sub-02	2.0	1.0	100_smiling	0.0		277.39478897545087	
30.0	183.50319014290062	fix	1.0		444	19.0	female	white	4.298846000795861	smiling	100	sub-02	2.0	1.0	100_smiling	0.0		277.4946748444927	3.766560383909564
30.0	184.1032835364963	pulse	1.0	t		19.0	female	white	4.298846000795861	smiling	100	sub-02	2.0	1.0	100_smiling	0.0		278.09476823808836	
30.0	184.8032860418839	pulse	1.0	t		19.0	female	white	4.298846000795861	smiling	100	sub-02	2.0	1.0	100_smiling	0.0		278.79477074347596	
30.0	185.50326741749768	pulse	1.0	t		19.0	female	white	4.298846000795861	smiling	100	sub-02	2.0	1.0	100_smiling	0.0		279.49475211908975	
30.0	186.20324547272003	pulse	1.0	t		19.0	female	white	4.298846000795861	smiling	100	sub-02	2.0	1.0	100_smiling	0.0		280.1947301743121	
30.0	186.9032304705811	pulse	1.0	t		19.0	female	white	4.298846000795861	smiling	100	sub-02	2.0	1.0	100_smiling	0.0		280.89471517217316	
31.0	187.26975052681018	face	0.0		145	20.0	male	black	2.609629924393156	neutral	043	sub-02	2.0	1.0	043_neutral	0.0		281.26123522840226	1.2333517766064688
31.0	187.60321154434178	pulse	0.0	t		20.0	male	black	2.609629924393156	neutral	043	sub-02	2.0	1.0	043_neutral	0.0		281.59469624593385	
31.0	188.3032249164694	pulse	0.0	t		20.0	male	black	2.609629924393156	neutral	043	sub-02	2.0	1.0	043_neutral	0.0		282.29470961806146	
31.0	188.50310230341665	fix	1.0		444	20.0	male	black	2.609629924393156	neutral	043	sub-02	2.0	1.0	043_neutral	0.0		282.4945870050087	3.7665314059358934
31.0	189.0031812382108	pulse	1.0	t		20.0	male	black	2.609629924393156	neutral	043	sub-02	2.0	1.0	043_neutral	0.0		282.99466593980287	
31.0	189.7031858565756	pulse	1.0	t		20.0	male	black	2.609629924393156	neutral	043	sub-02	2.0	1.0	043_neutral	0.0		283.6946705581677	
31.0	190.40313946163178	pulse	1.0	t		20.0	male	black	2.609629924393156	neutral	043	sub-02	2.0	1.0	043_neutral	0.0		284.39462416322385	
31.0	191.1031338169637	pulse	1.0	t		20.0	male	black	2.609629924393156	neutral	043	sub-02	2.0	1.0	043_neutral	0.0		285.09461851855576	
31.0	191.8030985906139	pulse	1.0	t		20.0	male	black	2.609629924393156	neutral	043	sub-02	2.0	1.0	043_neutral	0.0		285.79458329220597	
32.0	192.26963370935255	face	0.0		145	31.0	male	west_asian	1.9538400318344609	smiling	070	sub-02	2.0	1.0	070_smiling	0.0		286.2611184109446	1.2333218930707517
32.0	192.50310864234916	pulse	0.0	t		31.0	male	west_asian	1.9538400318344609	smiling	070	sub-02	2.0	1.0	070_smiling	0.0		286.49459334394123	
32.0	193.20307251043732	pulse	0.0	t		31.0	male	west_asian	1.9538400318344609	smiling	070	sub-02	2.0	1.0	070_smiling	0.0		287.1945572120294	
32.0	193.5029556024233	fix	1.0		444	31.0	male	west_asian	1.9538400318344609	smiling	070	sub-02	2.0	1.0	070_smiling	0.0		287.49444030401537	3.7582950205278394
32.0	193.90307561953205	pulse	1.0	t		31.0	male	west_asian	1.9538400318344609	smiling	070	sub-02	2.0	1.0	070_smiling	0.0		287.8945603211241	
32.0	194.60304190245233	pulse	1.0	t		31.0	male	west_asian	1.9538400318344609	smiling	070	sub-02	2.0	1.0	070_smiling	0.0		288.5945266040444	
32.0	195.30304078559266	pulse	1.0	t		31.0	male	west_asian	1.9538400318344609	smiling	070	sub-02	2.0	1.0	070_smiling	0.0		289.2945254871847	
32.0	196.00300586109688	pulse	1.0	t		31.0	male	west_asian	1.9538400318344609	smiling	070	sub-02	2.0	1.0	070_smiling	0.0		289.99449056268895	
32.0	196.70299991457568	pulse	1.0	t		31.0	male	west_asian	1.9538400318344609	smiling	070	sub-02	2.0	1.0	070_smiling	0.0		290.69448461616776	
33.0	197.26125062295114	face	0.0		146	28.0	female	white	5.676880222841227	neutral	124	sub-02	2.0	1.0	124_neutral	0.0		291.2527353245432	1.2416026510018128
33.0	197.4029924587844	pulse	0.0	t		28.0	female	white	5.676880222841227	neutral	124	sub-02	2.0	1.0	124_neutral	0.0		291.3944771603765	
33.0	198.10296719361259	pulse	0.0	t		28.0	female	white	5.676880222841227	neutral	124	sub-02	2.0	1.0	124_neutral	0.0		292.09445189520466	
33.0	198.50285327395295	fix	1.0		444	28.0	female	white	5.676880222841227	neutral	124	sub-02	2.0	1.0	124_neutral	0.0		292.494337975545	3.76656340244881
33.0	198.8029446451269	pulse	1.0	t		28.0	female	white	5.676880222841227	neutral	124	sub-02	2.0	1.0	124_neutral	0.0		292.79442934671897	
33.0	199.50292058737114	pulse	1.0	t		28.0	female	white	5.676880222841227	neutral	124	sub-02	2.0	1.0	124_neutral	0.0		293.4944052889632	
33.0	200.2029267150051	pulse	1.0	t		28.0	female	white	5.676880222841227	neutral	124	sub-02	2.0	1.0	124_neutral	0.0		294.1944114165972	
33.0	200.90290446837344	pulse	1.0	t		28.0	female	white	5.676880222841227	neutral	124	sub-02	2.0	1.0	124_neutral	0.0		294.8943891699655	
33.0	201.60289037179655	pulse	1.0	t		28.0	female	white	5.676880222841227	neutral	124	sub-02	2.0	1.0	124_neutral	0.0		295.5943750733886	
34.0	202.26941667640176	face	0.0		145	20.0	male	black	3.1070433744528456	smiling	082	sub-02	2.0	1.0	082_smiling	0.0		296.26090137799383	1.2333052911062623
34.0	202.30288291600527	pulse	0.0	t		20.0	male	black	3.1070433744528456	smiling	082	sub-02	2.0	1.0	082_smiling	0.0		296.29436761759735	
34.0	203.0028670083052	pulse	0.0	t		20.0	male	black	3.1070433744528456	smiling	082	sub-02	2.0	1.0	082_smiling	0.0		296.9943517098973	
34.0	203.50272196750802	fix	1.0		443	20.0	male	black	3.1070433744528456	smiling	082	sub-02	2.0	1.0	082_smiling	0.0		297.4942066691001	3.766546498630305
34.0	203.70284747835785	pulse	1.0	t		20.0	male	black	3.1070433744528456	smiling	082	sub-02	2.0	1.0	082_smiling	0.0		297.6943321799499	
34.0	204.40282100577087	pulse	1.0	t		20.0	male	black	3.1070433744528456	smiling	082	sub-02	2.0	1.0	082_smiling	0.0		298.39430570736295	
34.0	205.09474801387705	pulse	1.0	t		20.0	male	black	3.1070433744528456	smiling	082	sub-02	2.0	1.0	082_smiling	0.0		299.0862327154691	
34.0	205.80280277379597	pulse	1.0	t		20.0	male	black	3.1070433744528456	smiling	082	sub-02	2.0	1.0	082_smiling	0.0		299.79428747538805	
34.0	206.5027744900858	pulse	1.0	t		20.0	male	black	3.1070433744528456	smiling	082	sub-02	2.0	1.0	082_smiling	0.0		300.4942591916779	
34.0	207.19471327049314	pulse	1.0	t		20.0	male	black	3.1070433744528456	smiling	082	sub-02	2.0	1.0	082_smiling	0.0		301.1861979720852	
35.0	207.26926846613833	face	0.0		146	24.0	female	east_asian	2.9076800636689217	smiling	034	sub-02	2.0	1.0	034_smiling	0.0		301.2607531677304	1.2333357783500105
35.0	207.90273422277596	pulse	0.0	t		24.0	female	east_asian	2.9076800636689217	smiling	034	sub-02	2.0	1.0	034_smiling	0.0		301.89421892436803	
35.0	208.50260424448834	fix	1.0		443	24.0	female	east_asian	2.9076800636689217	smiling	034	sub-02	2.0	1.0	034_smiling	0.0		302.4940889460804	3.7665612894716105
35.0	208.5946606271741	pulse	1.0	t		24.0	female	east_asian	2.9076800636689217	smiling	034	sub-02	2.0	1.0	034_smiling	0.0		302.5861453287662	
35.0	209.30270995372257	pulse	1.0	t		24.0	female	east_asian	2.9076800636689217	smiling	034	sub-02	2.0	1.0	034_smiling	0.0		303.29419465531464	
35.0	210.0026985738309	pulse	1.0	t		24.0	female	east_asian	2.9076800636689217	smiling	034	sub-02	2.0	1.0	034_smiling	0.0		303.994183275423	
35.0	210.70267391236803	pulse	1.0	t		24.0	female	east_asian	2.9076800636689217	smiling	034	sub-02	2.0	1.0	034_smiling	0.0		304.6941586139601	
35.0	211.40265770281303	pulse	1.0	t		24.0	female	east_asian	2.9076800636689217	smiling	034	sub-02	2.0	1.0	034_smiling	0.0		305.3941424044051	
35.0	212.10263696545053	pulse	1.0	t		24.0	female	east_asian	2.9076800636689217	smiling	034	sub-02	2.0	1.0	034_smiling	0.0		306.0941216670426	
36.0	212.26916553395995	face	0.0		146	28.0	male	white	3.9076800636689217	neutral	033	sub-02	2.0	1.0	033_neutral	0.0		306.260650235552	1.2333240060479511
36.0	212.8026283022441	pulse	0.0	t		28.0	male	white	3.9076800636689217	neutral	033	sub-02	2.0	1.0	033_neutral	0.0		306.7941130038362	
36.0	213.5024895400079	fix	1.0		444	28.0	male	white	3.9076800636689217	neutral	033	sub-02	2.0	1.0	033_neutral	0.0		307.4939742416	3.7665612894716105
36.0	213.49460964405125	pulse	1.0	t		28.0	male	white	3.9076800636689217	neutral	033	sub-02	2.0	1.0	033_neutral	0.0		307.4860943456433	
36.0	214.20259829796623	pulse	1.0	t		28.0	male	white	3.9076800636689217	neutral	033	sub-02	2.0	1.0	033_neutral	0.0		308.1940829995583	
36.0	214.90257122167213	pulse	1.0	t		28.0	male	white	3.9076800636689217	neutral	033	sub-02	2.0	1.0	033_neutral	0.0		308.8940559232642	
36.0	215.59442095518034	pulse	1.0	t		28.0	male	white	3.9076800636689217	neutral	033	sub-02	2.0	1.0	033_neutral	0.0		309.5859056567724	
36.0	216.29440263264905	pulse	1.0	t		28.0	male	white	3.9076800636689217	neutral	033	sub-02	2.0	1.0	033_neutral	0.0		310.2858873342411	
36.0	216.99447214960082	pulse	1.0	t		28.0	male	white	3.9076800636689217	neutral	033	sub-02	2.0	1.0	033_neutral	0.0		310.9859568511929	
37.0	217.2690508294795	face	0.0		145	21.0	male	black	2.969757262236371	neutral	137	sub-02	2.0	1.0	137_neutral	0.0		311.2605355310716	1.233336080204026
37.0	217.7025133260945	pulse	0.0	t		21.0	male	black	2.969757262236371	neutral	137	sub-02	2.0	1.0	137_neutral	0.0		311.6939980276866	
37.0	218.40249953137163	pulse	0.0	t		21.0	male	black	2.969757262236371	neutral	137	sub-02	2.0	1.0	137_neutral	0.0		312.3939842329637	
37.0	218.50238690968354	fix	1.0		444	21.0	male	black	2.969757262236371	neutral	137	sub-02	2.0	1.0	137_neutral	0.0		312.4938716112756	3.758229216377913
37.0	219.0943417185331	pulse	1.0	t		21.0	male	black	2.969757262236371	neutral	137	sub-02	2.0	1.0	137_neutral	0.0		313.08582642012516	
37.0	219.79433456459583	pulse	1.0	t		21.0	male	black	2.969757262236371	neutral	137	sub-02	2.0	1.0	137_neutral	0.0		313.7858192661879	
37.0	220.49432680695054	pulse	1.0	t		21.0	male	black	2.969757262236371	neutral	137	sub-02	2.0	1.0	137_neutral	0.0		314.4858115085426	
37.0	221.19429973065553	pulse	1.0	t		21.0	male	black	2.969757262236371	neutral	137	sub-02	2.0	1.0	137_neutral	0.0		315.1857844322476	
37.0	221.89426661728294	pulse	1.0	t		21.0	male	black	2.969757262236371	neutral	137	sub-02	2.0	1.0	137_neutral	0.0		315.885751318875	
38.0	222.26061612606145	face	0.0		146	24.0	female	east_asian	4.409868682849185	neutral	030	sub-02	2.0	1.0	030_neutral	0.0		316.2521008276535	1.2416434012775426
38.0	222.60241525376432	pulse	0.0	t		24.0	female	east_asian	4.409868682849185	neutral	030	sub-02	2.0	1.0	030_neutral	0.0		316.5938999553564	
38.0	223.29418771267456	pulse	0.0	t		24.0	female	east_asian	4.409868682849185	neutral	030	sub-02	2.0	1.0	030_neutral	0.0		317.2856724142666	
38.0	223.502259527339	fix	1.0		444	24.0	female	east_asian	4.409868682849185	neutral	030	sub-02	2.0	1.0	030_neutral	0.0		317.49374422893106	3.7665552523940278
38.0	223.9942270442375	pulse	1.0	t		24.0	female	east_asian	4.409868682849185	neutral	030	sub-02	2.0	1.0	030_neutral	0.0		317.9857117458296	
38.0	224.69420902356023	pulse	1.0	t		24.0	female	east_asian	4.409868682849185	neutral	030	sub-02	2.0	1.0	030_neutral	0.0		318.6856937251523	
38.0	225.3942658626488	pulse	1.0	t		24.0	female	east_asian	4.409868682849185	neutral	030	sub-02	2.0	1.0	030_neutral	0.0		319.3857505642409	
38.0	226.09423818264668	pulse	1.0	t		24.0	female	east_asian	4.409868682849185	neutral	030	sub-02	2.0	1.0	030_neutral	0.0		320.08572288423875	
38.0	226.79421533230607	pulse	1.0	t		24.0	female	east_asian	4.409868682849185	neutral	030	sub-02	2.0	1.0	030_neutral	0.0		320.78570003389814	
39.0	227.26881477973302	face	0.0		145	47.0	male	east_asian	2.171110226820533	neutral	024	sub-02	2.0	1.0	024_neutral	0.0		321.2602994813251	1.2333218930707517
39.0	227.4941595798914	pulse	0.0	t		47.0	male	east_asian	2.171110226820533	neutral	024	sub-02	2.0	1.0	024_neutral	0.0		321.4856442814835	
39.0	228.1941427666302	pulse	0.0	t		47.0	male	east_asian	2.171110226820533	neutral	024	sub-02	2.0	1.0	024_neutral	0.0		322.18562746822226	
39.0	228.50213667280377	fix	1.0		444	47.0	male	east_asian	2.171110226820533	neutral	024	sub-02	2.0	1.0	024_neutral	0.0		322.49362137439584	3.7499270268199325
39.0	228.89420141684195	pulse	1.0	t		47.0	male	east_asian	2.171110226820533	neutral	024	sub-02	2.0	1.0	024_neutral	0.0		322.885686118434	
39.0	229.59409404741064	pulse	1.0	t		47.0	male	east_asian	2.171110226820533	neutral	024	sub-02	2.0	1.0	024_neutral	0.0		323.5855787490027	
39.0	230.2940766304414	pulse	1.0	t		47.0	male	east_asian	2.171110226820533	neutral	024	sub-02	2.0	1.0	024_neutral	0.0		324.28556133203347	
39.0	230.99405257268563	pulse	1.0	t		47.0	male	east_asian	2.171110226820533	neutral	024	sub-02	2.0	1.0	024_neutral	0.0		324.9855372742777	
39.0	231.69403877796276	pulse	1.0	t		47.0	male	east_asian	2.171110226820533	neutral	024	sub-02	2.0	1.0	024_neutral	0.0		325.68552347955483	
40.0	232.2520636996237	fix	0.0		720													326.2435484012158	5.999856921253922
40.0	232.3940313221715	pulse	0.0	t														326.38551602376356	
40.0	233.09399971806806	pulse	0.0	t														327.08548441966013	
40.0	233.79398682890724	pulse	0.0	t														327.7854715304993	
40.0	234.49395401738866	pulse	0.0	t														328.48543871898073	
40.0	235.1938351775093	pulse	0.0	t														329.18531987910137	
40.0	235.8939454447377	pulse	0.0	t														329.8854301463298	
40.0	236.5939265184984	pulse	0.0	t														330.58541122009046	
40.0	237.29391483675272	pulse	0.0	t														331.2853995383448	
40.0	237.99388836416665	pulse	0.0	t														331.9853730657587	
