trial_nr	onset	event_type	phase	response	nr_frames	face_age	face_sex	face_eth	attractiveness	expression	face_id	sub_id	ses	run	trial_type	catch	rating_type	onset_abs	duration
-1.0	0.05576075092267274	fix	0.0		714													27.116038483086868	5.966304962038521
-1.0	0.7056141090160963	pulse	0.0	t														27.76589184118029	
-1.0	1.4056085548559167	pulse	0.0	t														28.465886287020112	
-1.0	2.105592737573261	pulse	0.0	t														29.165870469737456	
-1.0	2.8055660534550952	pulse	0.0	t														29.86584378561929	
-1.0	3.5055544621641275	pulse	0.0	t														30.565832194328323	
-1.0	4.205560076695747	pulse	0.0	t														31.265837808859942	
-1.0	4.905549390974102	pulse	0.0	t														31.965827123138297	
-1.0	5.605546855379544	pulse	0.0	t														32.66582458754374	
0.0	6.022065712961194	face	0.0		144	19.0	male	white	3.2522881018702745	smiling	018	sub-06	2.0	5.0	018_smiling	0.0		33.08234344512539	1.2333541211869488
0.0	6.305576316577572	pulse	0.0	t		19.0	male	white	3.2522881018702745	smiling	018	sub-06	2.0	5.0	018_smiling	0.0		33.36585404874177	
0.0	7.005571969843459	pulse	0.0	t		19.0	male	white	3.2522881018702745	smiling	018	sub-06	2.0	5.0	018_smiling	0.0		34.065849702007654	
0.0	7.255419834148142	fix	1.0		444	19.0	male	white	3.2522881018702745	smiling	018	sub-06	2.0	5.0	018_smiling	0.0		34.31569756631234	3.758254267043867
0.0	7.705509364797308	pulse	1.0	t		19.0	male	white	3.2522881018702745	smiling	018	sub-06	2.0	5.0	018_smiling	0.0		34.7657870969615	
0.0	8.405505018063195	pulse	1.0	t		19.0	male	white	3.2522881018702745	smiling	018	sub-06	2.0	5.0	018_smiling	0.0		35.46578275022739	
0.0	9.105495237911327	pulse	1.0	t		19.0	male	white	3.2522881018702745	smiling	018	sub-06	2.0	5.0	018_smiling	0.0		36.16577297007552	
0.0	9.805480024341705	pulse	1.0	t		19.0	male	white	3.2522881018702745	smiling	018	sub-06	2.0	5.0	018_smiling	0.0		36.8657577565059	
0.0	10.505468433050737	pulse	1.0	t		19.0	male	white	3.2522881018702745	smiling	018	sub-06	2.0	5.0	018_smiling	0.0		37.56574616521493	
1.0	11.01367410119201	face	0.0		146	19.0	male	white	2.243931555909272	smiling	130	sub-06	2.0	5.0	130_smiling	0.0		38.073951833356205	1.241652761142177
1.0	11.205471029016735	pulse	0.0	t		19.0	male	white	2.243931555909272	smiling	130	sub-06	2.0	5.0	130_smiling	0.0		38.26574876118093	
1.0	11.905449778316779	pulse	0.0	t		19.0	male	white	2.243931555909272	smiling	130	sub-06	2.0	5.0	130_smiling	0.0		38.965727510480974	
1.0	12.255326862334186	fix	1.0		444	19.0	male	white	2.243931555909272	smiling	130	sub-06	2.0	5.0	130_smiling	0.0		39.31560459449838	3.758271774723198
1.0	12.605433961034123	pulse	1.0	t		19.0	male	white	2.243931555909272	smiling	130	sub-06	2.0	5.0	130_smiling	0.0		39.66571169319832	
1.0	13.305436255143832	pulse	1.0	t		19.0	male	white	2.243931555909272	smiling	130	sub-06	2.0	5.0	130_smiling	0.0		40.36571398730803	
1.0	14.005421947143532	pulse	1.0	t		19.0	male	white	2.243931555909272	smiling	130	sub-06	2.0	5.0	130_smiling	0.0		41.06569967930773	
1.0	14.705409148426497	pulse	1.0	t		19.0	male	white	2.243931555909272	smiling	130	sub-06	2.0	5.0	130_smiling	0.0		41.76568688059069	
1.0	15.405396651565752	pulse	1.0	t		19.0	male	white	2.243931555909272	smiling	130	sub-06	2.0	5.0	130_smiling	0.0		42.46567438372995	
2.0	16.013598637057385	face	0.0		146	54.0	female	white	2.286908077994429	neutral	136	sub-06	2.0	5.0	136_neutral	1.0	trustworthiness	43.07387636922158	1.2416645335470093
2.0	16.105396832679617	pulse	0.0	t		54.0	female	white	2.286908077994429	neutral	136	sub-06	2.0	5.0	136_neutral	1.0	trustworthiness	43.16567456484381	
2.0	16.80536471514415	pulse	0.0	t		54.0	female	white	2.286908077994429	neutral	136	sub-06	2.0	5.0	136_neutral	1.0	trustworthiness	43.865642447308346	
2.0	17.255263170604394	fix	1.0		177	54.0	female	white	2.286908077994429	neutral	136	sub-06	2.0	5.0	136_neutral	1.0	trustworthiness	44.31554090276859	1.5083179587736595
2.0	17.505361575836105	pulse	1.0	t		54.0	female	white	2.286908077994429	neutral	136	sub-06	2.0	5.0	136_neutral	1.0	trustworthiness	44.5656393080003	
2.0	18.205343343701315	pulse	1.0	t		54.0	female	white	2.286908077994429	neutral	136	sub-06	2.0	5.0	136_neutral	1.0	trustworthiness	45.26562107586551	
2.0	18.763581129378053	rating	2.0		292	54.0	female	white	2.286908077994429	neutral	136	sub-06	2.0	5.0	136_neutral	1.0	trustworthiness	45.82385886154225	2.491633442323746
2.0	18.900071298514376	pulse	2.0	t		54.0	female	white	2.286908077994429	neutral	136	sub-06	2.0	5.0	136_neutral	1.0	trustworthiness	45.96034903067857	
2.0	19.60006815920633	pulse	2.0	t		54.0	female	white	2.286908077994429	neutral	136	sub-06	2.0	5.0	136_neutral	1.0	trustworthiness	46.660345891370525	
2.0	20.300040569518842	pulse	2.0	t		54.0	female	white	2.286908077994429	neutral	136	sub-06	2.0	5.0	136_neutral	1.0	trustworthiness	47.36031830168304	
2.0	20.355276090064308	response	2.0	b		54.0	female	white	2.286908077994429	neutral	136	sub-06	2.0	5.0	136_neutral	1.0	trustworthiness	47.4155538222285	
2.0	20.405282549794265	response	2.0	y		54.0	female	white	2.286908077994429	neutral	136	sub-06	2.0	5.0	136_neutral	1.0	trustworthiness	47.46556028195846	
2.0	21.005298185963056	pulse	2.0	t		54.0	female	white	2.286908077994429	neutral	136	sub-06	2.0	5.0	136_neutral	1.0	trustworthiness	48.06557591812725	
2.0	21.2552145717018	fix	3.0		444	54.0	female	white	2.286908077994429	neutral	136	sub-06	2.0	5.0	136_neutral	1.0	trustworthiness	48.315492303865994	3.7582446076348788
2.0	21.705304706064	pulse	3.0	t		54.0	female	white	2.286908077994429	neutral	136	sub-06	2.0	5.0	136_neutral	1.0	trustworthiness	48.76558243822819	
2.0	22.405295227768875	pulse	3.0	t		54.0	female	white	2.286908077994429	neutral	136	sub-06	2.0	5.0	136_neutral	1.0	trustworthiness	49.46557295993307	
2.0	23.105274278925208	pulse	3.0	t		54.0	female	white	2.286908077994429	neutral	136	sub-06	2.0	5.0	136_neutral	1.0	trustworthiness	50.1655520110894	
2.0	23.80527385632604	pulse	3.0	t		54.0	female	white	2.286908077994429	neutral	136	sub-06	2.0	5.0	136_neutral	1.0	trustworthiness	50.865551588490234	
2.0	24.50526437803046	pulse	3.0	t		54.0	female	white	2.286908077994429	neutral	136	sub-06	2.0	5.0	136_neutral	1.0	trustworthiness	51.565542110194656	
3.0	25.013459179336678	face	0.0		146	40.0	male	white	1.868682849184242	neutral	172	sub-06	2.0	5.0	172_neutral	0.0		52.07373691150087	1.2416530629984663
3.0	25.20525701273118	pulse	0.0	t		40.0	male	white	1.868682849184242	neutral	172	sub-06	2.0	5.0	172_neutral	0.0		52.265534744895376	
3.0	25.905240289878748	pulse	0.0	t		40.0	male	white	1.868682849184242	neutral	172	sub-06	2.0	5.0	172_neutral	0.0		52.96551802204294	
3.0	26.255112242335144	fix	1.0		445	40.0	male	white	1.868682849184242	neutral	172	sub-06	2.0	5.0	172_neutral	0.0		53.31538997449934	3.7583520685625444
3.0	26.605237452427446	pulse	1.0	t		40.0	male	white	1.868682849184242	neutral	172	sub-06	2.0	5.0	172_neutral	0.0		53.66551518459164	
3.0	27.30522344628389	pulse	1.0	t		40.0	male	white	1.868682849184242	neutral	172	sub-06	2.0	5.0	172_neutral	0.0		54.365501178448085	
3.0	28.005207327144944	pulse	1.0	t		40.0	male	white	1.868682849184242	neutral	172	sub-06	2.0	5.0	172_neutral	0.0		55.06548505930914	
3.0	28.70520147112802	pulse	1.0	t		40.0	male	white	1.868682849184242	neutral	172	sub-06	2.0	5.0	172_neutral	0.0		55.765479203292216	
3.0	29.40517357958379	pulse	1.0	t		40.0	male	white	1.868682849184242	neutral	172	sub-06	2.0	5.0	172_neutral	0.0		56.465451311747984	
4.0	30.01346431089769	face	0.0		146	27.0	female	white	3.504576203740549	smiling	144	sub-06	2.0	5.0	144_smiling	0.0		57.073742043061884	1.2415878619863179
4.0	30.105175873693497	pulse	0.0	t		27.0	female	white	3.504576203740549	smiling	144	sub-06	2.0	5.0	144_smiling	0.0		57.16545360585769	
4.0	30.80517182881613	pulse	0.0	t		27.0	female	white	3.504576203740549	smiling	144	sub-06	2.0	5.0	144_smiling	0.0		57.86544956098032	
4.0	31.255052172884007	fix	1.0		444	27.0	female	white	3.504576203740549	smiling	144	sub-06	2.0	5.0	144_smiling	0.0		58.3153299050482	3.766571622104493
4.0	31.505153294824595	pulse	1.0	t		27.0	female	white	3.504576203740549	smiling	144	sub-06	2.0	5.0	144_smiling	0.0		58.56543102698879	
4.0	32.20514683509464	pulse	1.0	t		27.0	female	white	3.504576203740549	smiling	144	sub-06	2.0	5.0	144_smiling	0.0		59.26542456725883	
4.0	32.90513252709479	pulse	1.0	t		27.0	female	white	3.504576203740549	smiling	144	sub-06	2.0	5.0	144_smiling	0.0		59.96541025925899	
4.0	33.60513633048686	pulse	1.0	t		27.0	female	white	3.504576203740549	smiling	144	sub-06	2.0	5.0	144_smiling	0.0		60.66541406265105	
4.0	34.30511779649578	pulse	1.0	t		27.0	female	white	3.504576203740549	smiling	144	sub-06	2.0	5.0	144_smiling	0.0		61.365395528659974	
5.0	35.0216237949885	face	0.0		146	28.0	male	east_asian	1.5563072025467568	neutral	005	sub-06	2.0	5.0	005_neutral	0.0		62.081901527152695	1.2333381227904283
5.0	35.00793792139166	pulse	0.0	t		28.0	male	east_asian	1.5563072025467568	neutral	005	sub-06	2.0	5.0	005_neutral	0.0		62.06821565355585	
5.0	35.705085558217434	pulse	0.0	t		28.0	male	east_asian	1.5563072025467568	neutral	005	sub-06	2.0	5.0	005_neutral	0.0		62.76536329038163	
5.0	36.25496191777893	fix	1.0		443	28.0	male	east_asian	1.5563072025467568	neutral	005	sub-06	2.0	5.0	005_neutral	0.0		63.31523964994312	3.766609656028777
5.0	36.40508030591354	pulse	1.0	t		28.0	male	east_asian	1.5563072025467568	neutral	005	sub-06	2.0	5.0	005_neutral	0.0		63.46535803807774	
5.0	37.105072035044486	pulse	1.0	t		28.0	male	east_asian	1.5563072025467568	neutral	005	sub-06	2.0	5.0	005_neutral	0.0		64.16534976720868	
5.0	37.80508247928037	pulse	1.0	t		28.0	male	east_asian	1.5563072025467568	neutral	005	sub-06	2.0	5.0	005_neutral	0.0		64.86536021144457	
5.0	38.50505609701895	pulse	1.0	t		28.0	male	east_asian	1.5563072025467568	neutral	005	sub-06	2.0	5.0	005_neutral	0.0		65.56533382918315	
5.0	39.20504360015866	pulse	1.0	t		28.0	male	east_asian	1.5563072025467568	neutral	005	sub-06	2.0	5.0	005_neutral	0.0		66.26532133232286	
5.0	39.905027179162516	pulse	1.0	t		28.0	male	east_asian	1.5563072025467568	neutral	005	sub-06	2.0	5.0	005_neutral	0.0		66.96530491132671	
6.0	40.021571573807705	face	0.0		146	21.0	male	east_asian/white	3.501790688420215	neutral	036	sub-06	2.0	5.0	036_neutral	0.0		67.0818493059719	1.2333076352797434
6.0	40.60502645470706	pulse	0.0	t		21.0	male	east_asian/white	3.501790688420215	neutral	036	sub-06	2.0	5.0	036_neutral	0.0		67.66530418687125	
6.0	41.25487920908745	fix	1.0		443	21.0	male	east_asian/white	3.501790688420215	neutral	036	sub-06	2.0	5.0	036_neutral	0.0		68.31515694125164	3.766600298476078
6.0	41.305076140293295	pulse	1.0	t		21.0	male	east_asian/white	3.501790688420215	neutral	036	sub-06	2.0	5.0	036_neutral	0.0		68.36535387245749	
6.0	42.00499663128085	pulse	1.0	t		21.0	male	east_asian/white	3.501790688420215	neutral	036	sub-06	2.0	5.0	036_neutral	0.0		69.06527436344504	
6.0	42.704979606572124	pulse	1.0	t		21.0	male	east_asian/white	3.501790688420215	neutral	036	sub-06	2.0	5.0	036_neutral	0.0		69.76525733873632	
6.0	43.404964694859245	pulse	1.0	t		21.0	male	east_asian/white	3.501790688420215	neutral	036	sub-06	2.0	5.0	036_neutral	0.0		70.46524242702344	
6.0	44.104968800108054	pulse	1.0	t		21.0	male	east_asian/white	3.501790688420215	neutral	036	sub-06	2.0	5.0	036_neutral	0.0		71.16524653227225	
6.0	44.804937889998655	pulse	1.0	t		21.0	male	east_asian/white	3.501790688420215	neutral	036	sub-06	2.0	5.0	036_neutral	0.0		71.86521562216285	
7.0	45.02147950756353	face	0.0		145	34.0	male	white	2.651014723438122	neutral	121	sub-06	2.0	5.0	121_neutral	0.0		72.08175723972772	1.233331481946152
7.0	45.50495165465691	pulse	0.0	t		34.0	male	white	2.651014723438122	neutral	121	sub-06	2.0	5.0	121_neutral	0.0		72.5652293868211	
7.0	46.20493372437841	pulse	0.0	t		34.0	male	white	2.651014723438122	neutral	121	sub-06	2.0	5.0	121_neutral	0.0		73.2652114565426	
7.0	46.25481098950968	fix	1.0		445	34.0	male	white	2.651014723438122	neutral	121	sub-06	2.0	5.0	121_neutral	0.0		73.31508872167387	3.7666129764506877
7.0	46.90491760523946	pulse	1.0	t		34.0	male	white	2.651014723438122	neutral	121	sub-06	2.0	5.0	121_neutral	0.0		73.96519533740366	
7.0	47.60491597521377	pulse	1.0	t		34.0	male	white	2.651014723438122	neutral	121	sub-06	2.0	5.0	121_neutral	0.0		74.66519370737797	
7.0	48.30490287463999	pulse	1.0	t		34.0	male	white	2.651014723438122	neutral	121	sub-06	2.0	5.0	121_neutral	0.0		75.36518060680419	
7.0	49.00489762233656	pulse	1.0	t		34.0	male	white	2.651014723438122	neutral	121	sub-06	2.0	5.0	121_neutral	0.0		76.06517535450075	
7.0	49.704868221509514	pulse	1.0	t		34.0	male	white	2.651014723438122	neutral	121	sub-06	2.0	5.0	121_neutral	0.0		76.76514595367371	
8.0	50.021423965960366	face	0.0		145	40.0	female	west_asian	1.5777954635893354	neutral	038	sub-06	2.0	5.0	038_neutral	1.0	dominance	77.08170169812456	1.2333133705542423
8.0	50.40487655275001	pulse	0.0	t		40.0	female	west_asian	1.5777954635893354	neutral	038	sub-06	2.0	5.0	038_neutral	1.0	dominance	77.4651542849142	
8.0	51.1048534909105	pulse	0.0	t		40.0	female	west_asian	1.5777954635893354	neutral	038	sub-06	2.0	5.0	038_neutral	1.0	dominance	78.1651312230747	
8.0	51.25473733651461	fix	1.0		177	40.0	female	west_asian	1.5777954635893354	neutral	038	sub-06	2.0	5.0	038_neutral	1.0	dominance	78.3150150686788	1.4999794737555021
8.0	51.80484703118054	pulse	1.0	t		40.0	female	west_asian	1.5777954635893354	neutral	038	sub-06	2.0	5.0	038_neutral	1.0	dominance	78.86512476334474	
8.0	52.50484087330733	pulse	1.0	t		40.0	female	west_asian	1.5777954635893354	neutral	038	sub-06	2.0	5.0	038_neutral	1.0	dominance	79.56511860547153	
8.0	52.75471681027011	rating	2.0		295	40.0	female	west_asian	1.5777954635893354	neutral	038	sub-06	2.0	5.0	038_neutral	1.0	dominance	79.8149945424343	2.4999438546838064
8.0	53.1996841373184	pulse	2.0	t		40.0	female	west_asian	1.5777954635893354	neutral	038	sub-06	2.0	5.0	038_neutral	1.0	dominance	80.2599618694826	
8.0	53.899651717925735	pulse	2.0	t		40.0	female	west_asian	1.5777954635893354	neutral	038	sub-06	2.0	5.0	038_neutral	1.0	dominance	80.95992945008993	
8.0	54.438149293414426	response	2.0	w		40.0	female	west_asian	1.5777954635893354	neutral	038	sub-06	2.0	5.0	038_neutral	1.0	dominance	81.49842702557862	
8.0	54.59951847844968	pulse	2.0	t		40.0	female	west_asian	1.5777954635893354	neutral	038	sub-06	2.0	5.0	038_neutral	1.0	dominance	81.65979621061388	
8.0	55.25466066495392	fix	3.0		443	40.0	female	west_asian	1.5777954635893354	neutral	038	sub-06	2.0	5.0	038_neutral	1.0	dominance	82.31493839711811	3.7666030151845007
8.0	55.30479360257323	pulse	3.0	t		40.0	female	west_asian	1.5777954635893354	neutral	038	sub-06	2.0	5.0	038_neutral	1.0	dominance	82.36507133473742	
8.0	56.00477205001653	pulse	3.0	t		40.0	female	west_asian	1.5777954635893354	neutral	038	sub-06	2.0	5.0	038_neutral	1.0	dominance	83.06504978218072	
8.0	56.70476498657354	pulse	3.0	t		40.0	female	west_asian	1.5777954635893354	neutral	038	sub-06	2.0	5.0	038_neutral	1.0	dominance	83.76504271873773	
8.0	57.40475611199099	pulse	3.0	t		40.0	female	west_asian	1.5777954635893354	neutral	038	sub-06	2.0	5.0	038_neutral	1.0	dominance	84.46503384415519	
8.0	58.10490148610006	pulse	3.0	t		40.0	female	west_asian	1.5777954635893354	neutral	038	sub-06	2.0	5.0	038_neutral	1.0	dominance	85.16517921826426	
8.0	58.80478605615963	pulse	3.0	t		40.0	female	west_asian	1.5777954635893354	neutral	038	sub-06	2.0	5.0	038_neutral	1.0	dominance	85.86506378832382	
9.0	59.02126368013842	face	0.0		145	20.0	female	white	3.9502586549940313	neutral	091	sub-06	2.0	5.0	091_neutral	0.0		86.08154141230261	1.233339028359751
9.0	59.504730091957754	pulse	0.0	t		20.0	female	white	3.9502586549940313	neutral	091	sub-06	2.0	5.0	091_neutral	0.0		86.56500782412195	
9.0	60.204709444970376	pulse	0.0	t		20.0	female	white	3.9502586549940313	neutral	091	sub-06	2.0	5.0	091_neutral	0.0		87.26498717713457	
9.0	60.25460270849817	fix	1.0		445	20.0	female	white	3.9502586549940313	neutral	091	sub-06	2.0	5.0	091_neutral	0.0		87.31488044066236	3.758254568900611
9.0	60.90470630566233	pulse	1.0	t		20.0	female	white	3.9502586549940313	neutral	091	sub-06	2.0	5.0	091_neutral	0.0		87.96498403782653	
9.0	61.60468475310563	pulse	1.0	t		20.0	female	white	3.9502586549940313	neutral	091	sub-06	2.0	5.0	091_neutral	0.0		88.66496248526983	
9.0	62.30469248063309	pulse	1.0	t		20.0	female	white	3.9502586549940313	neutral	091	sub-06	2.0	5.0	091_neutral	0.0		89.36497021279729	
9.0	63.00466972064987	pulse	1.0	t		20.0	female	white	3.9502586549940313	neutral	091	sub-06	2.0	5.0	091_neutral	0.0		90.06494745281407	
9.0	63.70466235535059	pulse	1.0	t		20.0	female	white	3.9502586549940313	neutral	091	sub-06	2.0	5.0	091_neutral	0.0		90.76494008751479	
10.0	64.01285727739878	face	0.0		146	28.0	male	east_asian	1.5563072025467568	smiling	005	sub-06	2.0	5.0	005_smiling	0.0		91.07313500956298	1.2416853616482513
10.0	64.4046664605994	pulse	0.0	t		28.0	male	east_asian	1.5563072025467568	smiling	005	sub-06	2.0	5.0	005_smiling	0.0		91.4649441927636	
10.0	65.10465547302147	pulse	0.0	t		28.0	male	east_asian	1.5563072025467568	smiling	005	sub-06	2.0	5.0	005_smiling	0.0		92.16493320518566	
10.0	65.25454263904703	fix	1.0		445	28.0	male	east_asian	1.5563072025467568	smiling	005	sub-06	2.0	5.0	005_smiling	0.0		92.31482037121123	3.76659426134529
10.0	65.8046456928696	pulse	1.0	t		28.0	male	east_asian	1.5563072025467568	smiling	005	sub-06	2.0	5.0	005_smiling	0.0		92.8649234250338	
10.0	66.5046277625911	pulse	1.0	t		28.0	male	east_asian	1.5563072025467568	smiling	005	sub-06	2.0	5.0	005_smiling	0.0		93.5649054947553	
10.0	67.20461828429598	pulse	1.0	t		28.0	male	east_asian	1.5563072025467568	smiling	005	sub-06	2.0	5.0	005_smiling	0.0		94.26489601646017	
10.0	67.9046069948613	pulse	1.0	t		28.0	male	east_asian	1.5563072025467568	smiling	005	sub-06	2.0	5.0	005_smiling	0.0		94.96488472702549	
10.0	68.6045984221355	pulse	1.0	t		28.0	male	east_asian	1.5563072025467568	smiling	005	sub-06	2.0	5.0	005_smiling	0.0		95.66487615429969	
11.0	69.02113690039232	face	0.0		145	32.0	male	white	2.389176283326701	neutral	092	sub-06	2.0	5.0	092_neutral	0.0		96.08141463255652	1.2333118612714316
11.0	69.30458139742677	pulse	0.0	t		32.0	male	white	2.389176283326701	neutral	092	sub-06	2.0	5.0	092_neutral	0.0		96.36485912959097	
11.0	70.00456527828737	pulse	0.0	t		32.0	male	white	2.389176283326701	neutral	092	sub-06	2.0	5.0	092_neutral	0.0		97.06484301045157	
11.0	70.25444876166375	fix	1.0		444	32.0	male	white	2.389176283326701	neutral	092	sub-06	2.0	5.0	092_neutral	0.0		97.31472649382795	3.7666156931591104
11.0	70.70455821484438	pulse	1.0	t		32.0	male	white	2.389176283326701	neutral	092	sub-06	2.0	5.0	092_neutral	0.0		97.76483594700858	
11.0	71.4045209657479	pulse	1.0	t		32.0	male	white	2.389176283326701	neutral	092	sub-06	2.0	5.0	092_neutral	0.0		98.4647986979121	
11.0	72.10454197496301	pulse	1.0	t		32.0	male	white	2.389176283326701	neutral	092	sub-06	2.0	5.0	092_neutral	0.0		99.16481970712721	
11.0	72.80453642080238	pulse	1.0	t		32.0	male	white	2.389176283326701	neutral	092	sub-06	2.0	5.0	092_neutral	0.0		99.86481415296657	
11.0	73.50451275524983	pulse	1.0	t		32.0	male	white	2.389176283326701	neutral	092	sub-06	2.0	5.0	092_neutral	0.0		100.56479048741403	
12.0	74.02106445482286	face	0.0		145	26.0	male	white	2.7966573816155993	smiling	117	sub-06	2.0	5.0	117_smiling	1.0	trustworthiness	101.08134218698706	1.2333091445630089
12.0	74.20457391138461	pulse	0.0	t		26.0	male	white	2.7966573816155993	smiling	117	sub-06	2.0	5.0	117_smiling	1.0	trustworthiness	101.26485164354881	
12.0	74.904491383807	pulse	0.0	t		26.0	male	white	2.7966573816155993	smiling	117	sub-06	2.0	5.0	117_smiling	1.0	trustworthiness	101.9647691159712	
12.0	75.25437359938587	fix	1.0		177	26.0	male	white	2.7966573816155993	smiling	117	sub-06	2.0	5.0	117_smiling	1.0	trustworthiness	102.31465133155007	1.4999794737550474
12.0	75.60448673521614	pulse	1.0	t		26.0	male	white	2.7966573816155993	smiling	117	sub-06	2.0	5.0	117_smiling	1.0	trustworthiness	102.66476446738034	
12.0	76.30446729565529	pulse	1.0	t		26.0	male	white	2.7966573816155993	smiling	117	sub-06	2.0	5.0	117_smiling	1.0	trustworthiness	103.36474502781948	
12.0	76.75435307314092	rating	2.0		294	26.0	male	white	2.7966573816155993	smiling	117	sub-06	2.0	5.0	117_smiling	1.0	trustworthiness	103.81463080530511	2.499958343797971
12.0	76.99919857089026	pulse	2.0	t		26.0	male	white	2.7966573816155993	smiling	117	sub-06	2.0	5.0	117_smiling	1.0	trustworthiness	104.05947630305445	
12.0	77.6992947423837	pulse	2.0	t		26.0	male	white	2.7966573816155993	smiling	117	sub-06	2.0	5.0	117_smiling	1.0	trustworthiness	104.7595724745479	
12.0	78.04610979367499	response	2.0	y		26.0	male	white	2.7966573816155993	smiling	117	sub-06	2.0	5.0	117_smiling	1.0	trustworthiness	105.10638752583918	
12.0	78.40445848144418	pulse	2.0	t		26.0	male	white	2.7966573816155993	smiling	117	sub-06	2.0	5.0	117_smiling	1.0	trustworthiness	105.46473621360838	
12.0	79.10442817504781	pulse	2.0	t		26.0	male	white	2.7966573816155993	smiling	117	sub-06	2.0	5.0	117_smiling	1.0	trustworthiness	106.16470590721201	
12.0	79.25431141693889	fix	3.0		444	26.0	male	white	2.7966573816155993	smiling	117	sub-06	2.0	5.0	117_smiling	1.0	trustworthiness	106.31458914910309	3.758279019280053
12.0	79.80442231903089	pulse	3.0	t		26.0	male	white	2.7966573816155993	smiling	117	sub-06	2.0	5.0	117_smiling	1.0	trustworthiness	106.86470005119509	
12.0	80.50441676487071	pulse	3.0	t		26.0	male	white	2.7966573816155993	smiling	117	sub-06	2.0	5.0	117_smiling	1.0	trustworthiness	107.5646944970349	
12.0	81.20441030514075	pulse	3.0	t		26.0	male	white	2.7966573816155993	smiling	117	sub-06	2.0	5.0	117_smiling	1.0	trustworthiness	108.26468803730495	
12.0	81.90440263798473	pulse	3.0	t		26.0	male	white	2.7966573816155993	smiling	117	sub-06	2.0	5.0	117_smiling	1.0	trustworthiness	108.96468037014893	
12.0	82.60439255597612	pulse	3.0	t		26.0	male	white	2.7966573816155993	smiling	117	sub-06	2.0	5.0	117_smiling	1.0	trustworthiness	109.66467028814031	
13.0	83.01259043621894	face	0.0		146	19.0	male	white	3.2522881018702745	neutral	018	sub-06	2.0	5.0	018_neutral	1.0	attractiveness	110.07286816838314	1.241663929833976
13.0	83.30437311641526	pulse	0.0	t		19.0	male	white	3.2522881018702745	neutral	018	sub-06	2.0	5.0	018_neutral	1.0	attractiveness	110.36465084857946	
13.0	84.00438506993396	pulse	0.0	t		19.0	male	white	3.2522881018702745	neutral	018	sub-06	2.0	5.0	018_neutral	1.0	attractiveness	111.06466280209816	
13.0	84.25425436605292	fix	1.0		177	19.0	male	white	3.2522881018702745	neutral	018	sub-06	2.0	5.0	018_neutral	1.0	attractiveness	111.31453209821711	1.4999631735022376
13.0	84.70436019695535	pulse	1.0	t		19.0	male	white	3.2522881018702745	neutral	018	sub-06	2.0	5.0	018_neutral	1.0	attractiveness	111.76463792911954	
13.0	85.40433502212	pulse	1.0	t		19.0	male	white	3.2522881018702745	neutral	018	sub-06	2.0	5.0	018_neutral	1.0	attractiveness	112.46461275428419	
13.0	85.75421753955516	rating	2.0		294	19.0	male	white	3.2522881018702745	neutral	018	sub-06	2.0	5.0	018_neutral	1.0	attractiveness	112.81449527171935	2.499954721519316
13.0	86.0990726363425	pulse	2.0	t		19.0	male	white	3.2522881018702745	neutral	018	sub-06	2.0	5.0	018_neutral	1.0	attractiveness	113.1593503685067	
13.0	86.79904655593782	pulse	2.0	t		19.0	male	white	3.2522881018702745	neutral	018	sub-06	2.0	5.0	018_neutral	1.0	attractiveness	113.85932428810202	
13.0	86.82102925835079	response	2.0	e		19.0	male	white	3.2522881018702745	neutral	018	sub-06	2.0	5.0	018_neutral	1.0	attractiveness	113.88130699051499	
13.0	87.50430839837327	pulse	2.0	t		19.0	male	white	3.2522881018702745	neutral	018	sub-06	2.0	5.0	018_neutral	1.0	attractiveness	114.56458613053746	
13.0	88.20428443096444	pulse	2.0	t		19.0	male	white	3.2522881018702745	neutral	018	sub-06	2.0	5.0	018_neutral	1.0	attractiveness	115.26456216312863	
13.0	88.25417226107447	fix	3.0		444	19.0	male	white	3.2522881018702745	neutral	018	sub-06	2.0	5.0	018_neutral	1.0	attractiveness	115.31444999323867	3.758261813457466
13.0	88.90429034735234	pulse	3.0	t		19.0	male	white	3.2522881018702745	neutral	018	sub-06	2.0	5.0	018_neutral	1.0	attractiveness	115.96456807951654	
13.0	89.60427935977441	pulse	3.0	t		19.0	male	white	3.2522881018702745	neutral	018	sub-06	2.0	5.0	018_neutral	1.0	attractiveness	116.6645570919386	
13.0	90.30426414620479	pulse	3.0	t		19.0	male	white	3.2522881018702745	neutral	018	sub-06	2.0	5.0	018_neutral	1.0	attractiveness	117.36454187836898	
13.0	91.00424802706584	pulse	3.0	t		19.0	male	white	3.2522881018702745	neutral	018	sub-06	2.0	5.0	018_neutral	1.0	attractiveness	118.06452575923004	
13.0	91.70424307661824	pulse	3.0	t		19.0	male	white	3.2522881018702745	neutral	018	sub-06	2.0	5.0	018_neutral	1.0	attractiveness	118.76452080878244	
14.0	92.01243407453194	face	0.0		146	36.0	female	white	2.7548746518105847	neutral	011	sub-06	2.0	5.0	011_neutral	1.0	attractiveness	119.07271180669613	1.2416681558256641
14.0	92.40423420203615	pulse	0.0	t		36.0	female	white	2.7548746518105847	neutral	011	sub-06	2.0	5.0	011_neutral	1.0	attractiveness	119.46451193420035	
14.0	93.10422351631496	pulse	0.0	t		36.0	female	white	2.7548746518105847	neutral	011	sub-06	2.0	5.0	011_neutral	1.0	attractiveness	120.16450124847916	
14.0	93.2541022303576	fix	1.0		177	36.0	female	white	2.7548746518105847	neutral	011	sub-06	2.0	5.0	011_neutral	1.0	attractiveness	120.3143799625218	1.4999785681857247
14.0	93.80422550856792	pulse	1.0	t		36.0	female	white	2.7548746518105847	neutral	011	sub-06	2.0	5.0	011_neutral	1.0	attractiveness	120.86450324073212	
14.0	94.50420788014617	pulse	1.0	t		36.0	female	white	2.7548746518105847	neutral	011	sub-06	2.0	5.0	011_neutral	1.0	attractiveness	121.56448561231036	
14.0	94.75408079854333	rating	2.0		295	36.0	female	white	2.7548746518105847	neutral	011	sub-06	2.0	5.0	011_neutral	1.0	attractiveness	121.81435853070752	2.4999595512240376
14.0	95.19903333462116	pulse	2.0	t		36.0	female	white	2.7548746518105847	neutral	011	sub-06	2.0	5.0	011_neutral	1.0	attractiveness	122.25931106678536	
14.0	95.65418107528558	response	2.0	e		36.0	female	white	2.7548746518105847	neutral	011	sub-06	2.0	5.0	011_neutral	1.0	attractiveness	122.71445880744977	
14.0	95.89896257944883	pulse	2.0	t		36.0	female	white	2.7548746518105847	neutral	011	sub-06	2.0	5.0	011_neutral	1.0	attractiveness	122.95924031161303	
14.0	96.60416314500708	pulse	2.0	t		36.0	female	white	2.7548746518105847	neutral	011	sub-06	2.0	5.0	011_neutral	1.0	attractiveness	123.66444087717127	
14.0	97.25404034976737	fix	3.0		443	36.0	female	white	2.7548746518105847	neutral	011	sub-06	2.0	5.0	011_neutral	1.0	attractiveness	124.31431808193156	3.758237664934313
14.0	97.30415789270319	pulse	3.0	t		36.0	female	white	2.7548746518105847	neutral	011	sub-06	2.0	5.0	011_neutral	1.0	attractiveness	124.36443562486738	
14.0	98.00414388656009	pulse	3.0	t		36.0	female	white	2.7548746518105847	neutral	011	sub-06	2.0	5.0	011_neutral	1.0	attractiveness	125.06442161872428	
14.0	98.70414919923496	pulse	3.0	t		36.0	female	white	2.7548746518105847	neutral	011	sub-06	2.0	5.0	011_neutral	1.0	attractiveness	125.76442693139916	
14.0	99.40411436499062	pulse	3.0	t		36.0	female	white	2.7548746518105847	neutral	011	sub-06	2.0	5.0	011_neutral	1.0	attractiveness	126.46439209715481	
14.0	100.1041196776655	pulse	3.0	t		36.0	female	white	2.7548746518105847	neutral	011	sub-06	2.0	5.0	011_neutral	1.0	attractiveness	127.16439740982969	
14.0	100.80411653835745	pulse	3.0	t		36.0	female	white	2.7548746518105847	neutral	011	sub-06	2.0	5.0	011_neutral	1.0	attractiveness	127.86439427052164	
15.0	101.01227801470168	face	0.0		146	54.0	female	white	2.286908077994429	smiling	136	sub-06	2.0	5.0	136_smiling	0.0		128.07255574686587	1.2416862672180287
15.0	101.50409770250963	pulse	0.0	t		54.0	female	white	2.286908077994429	smiling	136	sub-06	2.0	5.0	136_smiling	0.0		128.56437543467382	
15.0	102.20409305391877	pulse	0.0	t		54.0	female	white	2.286908077994429	smiling	136	sub-06	2.0	5.0	136_smiling	0.0		129.26437078608296	
15.0	102.2539642819197	fix	1.0		444	54.0	female	white	2.286908077994429	smiling	136	sub-06	2.0	5.0	136_smiling	0.0		129.3142420140839	3.7666135801632663
15.0	102.90406636980106	pulse	1.0	t		54.0	female	white	2.286908077994429	smiling	136	sub-06	2.0	5.0	136_smiling	0.0		129.96434410196525	
15.0	103.6040692676238	pulse	1.0	t		54.0	female	white	2.286908077994429	smiling	136	sub-06	2.0	5.0	136_smiling	0.0		130.664346999788	
15.0	104.30405163920159	pulse	1.0	t		54.0	female	white	2.286908077994429	smiling	136	sub-06	2.0	5.0	136_smiling	0.0		131.36432937136578	
15.0	105.00404910360703	pulse	1.0	t		54.0	female	white	2.286908077994429	smiling	136	sub-06	2.0	5.0	136_smiling	0.0		132.06432683577123	
15.0	105.70402573991078	pulse	1.0	t		54.0	female	white	2.286908077994429	smiling	136	sub-06	2.0	5.0	136_smiling	0.0		132.76430347207497	
16.0	106.02057786208297	face	0.0		145	31.0	female	east_asian	3.395941106247513	smiling	087	sub-06	2.0	5.0	087_smiling	0.0		133.08085559424717	1.2333136724109863
16.0	106.40404433427375	pulse	0.0	t		31.0	female	east_asian	3.395941106247513	smiling	087	sub-06	2.0	5.0	087_smiling	0.0		133.46432206643794	
16.0	107.10401432973367	pulse	0.0	t		31.0	female	east_asian	3.395941106247513	smiling	087	sub-06	2.0	5.0	087_smiling	0.0		134.16429206189787	
16.0	107.25389153449396	fix	1.0		444	31.0	female	east_asian	3.395941106247513	smiling	087	sub-06	2.0	5.0	087_smiling	0.0		134.31416926665815	3.766596374340679
16.0	107.8040087755735	pulse	1.0	t		31.0	female	east_asian	3.395941106247513	smiling	087	sub-06	2.0	5.0	087_smiling	0.0		134.8642865077377	
16.0	108.50399839170859	pulse	1.0	t		31.0	female	east_asian	3.395941106247513	smiling	087	sub-06	2.0	5.0	087_smiling	0.0		135.5642761238728	
16.0	109.20413591754732	pulse	1.0	t		31.0	female	east_asian	3.395941106247513	smiling	087	sub-06	2.0	5.0	087_smiling	0.0		136.2644136497115	
16.0	109.90397852954811	pulse	1.0	t		31.0	female	east_asian	3.395941106247513	smiling	087	sub-06	2.0	5.0	087_smiling	0.0		136.9642562617123	
16.0	110.60396331597849	pulse	1.0	t		31.0	female	east_asian	3.395941106247513	smiling	087	sub-06	2.0	5.0	087_smiling	0.0		137.66424104814269	
17.0	111.02048790883464	face	0.0		145	25.0	female	black	3.858336649423	smiling	126	sub-06	2.0	5.0	126_smiling	0.0		138.08076564099883	1.2333218225371638
17.0	111.30396319523607	pulse	0.0	t		25.0	female	black	3.858336649423	smiling	126	sub-06	2.0	5.0	126_smiling	0.0		138.36424092740026	
17.0	112.0039458686706	pulse	0.0	t		25.0	female	black	3.858336649423	smiling	126	sub-06	2.0	5.0	126_smiling	0.0		139.0642236008348	
17.0	112.2538097313718	fix	1.0		444	25.0	female	black	3.858336649423	smiling	126	sub-06	2.0	5.0	126_smiling	0.0		139.314087463536	3.7582841508415186
17.0	112.70392974953165	pulse	1.0	t		25.0	female	black	3.858336649423	smiling	126	sub-06	2.0	5.0	126_smiling	0.0		139.76420748169585	
17.0	113.4039247990845	pulse	1.0	t		25.0	female	black	3.858336649423	smiling	126	sub-06	2.0	5.0	126_smiling	0.0		140.4642025312487	
17.0	114.10391743378477	pulse	1.0	t		25.0	female	black	3.858336649423	smiling	126	sub-06	2.0	5.0	126_smiling	0.0		141.16419516594897	
17.0	114.80388833481447	pulse	1.0	t		25.0	female	black	3.858336649423	smiling	126	sub-06	2.0	5.0	126_smiling	0.0		141.86416606697867	
17.0	115.50389666605497	pulse	1.0	t		25.0	female	black	3.858336649423	smiling	126	sub-06	2.0	5.0	126_smiling	0.0		142.56417439821917	
18.0	116.01209388221332	face	0.0		146	24.0	female	east_asian	4.409868682849185	neutral	030	sub-06	2.0	5.0	030_neutral	0.0		143.07237161437752	1.241665740973076
18.0	116.20388779147288	pulse	0.0	t		24.0	female	east_asian	4.409868682849185	neutral	030	sub-06	2.0	5.0	030_neutral	0.0		143.26416552363708	
18.0	116.90386774819854	pulse	0.0	t		24.0	female	east_asian	4.409868682849185	neutral	030	sub-06	2.0	5.0	030_neutral	0.0		143.96414548036273	
18.0	117.2537596231864	fix	1.0		444	24.0	female	east_asian	4.409868682849185	neutral	030	sub-06	2.0	5.0	030_neutral	0.0		144.3140373553506	3.766581281513936
18.0	117.6038661181733	pulse	1.0	t		24.0	female	east_asian	4.409868682849185	neutral	030	sub-06	2.0	5.0	030_neutral	0.0		144.6641438503375	
18.0	118.30385120646042	pulse	1.0	t		24.0	female	east_asian	4.409868682849185	neutral	030	sub-06	2.0	5.0	030_neutral	0.0		145.36412893862462	
18.0	119.00384203002159	pulse	1.0	t		24.0	female	east_asian	4.409868682849185	neutral	030	sub-06	2.0	5.0	030_neutral	0.0		146.06411976218578	
18.0	119.70381444033364	pulse	1.0	t		24.0	female	east_asian	4.409868682849185	neutral	030	sub-06	2.0	5.0	030_neutral	0.0		146.76409217249784	
18.0	120.40381311216515	pulse	1.0	t		24.0	female	east_asian	4.409868682849185	neutral	030	sub-06	2.0	5.0	030_neutral	0.0		147.46409084432935	
19.0	121.02034090470033	face	0.0		145	22.0	female	white	4.614007162753682	neutral	009	sub-06	2.0	5.0	009_neutral	0.0		148.08061863686453	1.2333275578116627
19.0	121.10381087842688	pulse	0.0	t		22.0	female	white	4.614007162753682	neutral	009	sub-06	2.0	5.0	009_neutral	0.0		148.16408861059108	
19.0	121.8037718181904	pulse	0.0	t		22.0	female	white	4.614007162753682	neutral	009	sub-06	2.0	5.0	009_neutral	0.0		148.8640495503546	
19.0	122.253668462512	fix	1.0		444	22.0	female	white	4.614007162753682	neutral	009	sub-06	2.0	5.0	009_neutral	0.0		149.3139461946762	3.7665909409229243
19.0	122.50379433668832	pulse	1.0	t		22.0	female	white	4.614007162753682	neutral	009	sub-06	2.0	5.0	009_neutral	0.0		149.5640720688525	
19.0	123.20377248227487	pulse	1.0	t		22.0	female	white	4.614007162753682	neutral	009	sub-06	2.0	5.0	009_neutral	0.0		150.26405021443907	
19.0	123.90375515570986	pulse	1.0	t		22.0	female	white	4.614007162753682	neutral	009	sub-06	2.0	5.0	009_neutral	0.0		150.96403288787405	
19.0	124.60376107209777	pulse	1.0	t		22.0	female	white	4.614007162753682	neutral	009	sub-06	2.0	5.0	009_neutral	0.0		151.66403880426196	
19.0	125.30376668662939	pulse	1.0	t		22.0	female	white	4.614007162753682	neutral	009	sub-06	2.0	5.0	009_neutral	0.0		152.36404441879358	
20.0	126.02025940343492	face	0.0		146	22.0	female	white	4.614007162753682	smiling	009	sub-06	2.0	5.0	009_smiling	0.0		153.08053713559912	1.233348687769194
20.0	126.00649414156851	pulse	0.0	t		22.0	female	white	4.614007162753682	smiling	009	sub-06	2.0	5.0	009_smiling	0.0		153.0667718737327	
20.0	126.70371784624149	pulse	0.0	t		22.0	female	white	4.614007162753682	smiling	009	sub-06	2.0	5.0	009_smiling	0.0		153.76399557840568	
20.0	127.25360809120411	fix	1.0		1184	22.0	female	white	4.614007162753682	smiling	009	sub-06	2.0	5.0	009_smiling	0.0		154.3138858233683	10.016501591387623
20.0	127.40372285706007	pulse	1.0	t		22.0	female	white	4.614007162753682	smiling	009	sub-06	2.0	5.0	009_smiling	0.0		154.46400058922427	
20.0	128.10369798408146	pulse	1.0	t		22.0	female	white	4.614007162753682	smiling	009	sub-06	2.0	5.0	009_smiling	0.0		155.16397571624566	
20.0	128.803680657516	pulse	1.0	t		22.0	female	white	4.614007162753682	smiling	009	sub-06	2.0	5.0	009_smiling	0.0		155.8639583896802	
20.0	129.50368506462155	pulse	1.0	t		22.0	female	white	4.614007162753682	smiling	009	sub-06	2.0	5.0	009_smiling	0.0		156.56396279678575	
20.0	130.2036598897862	pulse	1.0	t		22.0	female	white	4.614007162753682	smiling	009	sub-06	2.0	5.0	009_smiling	0.0		157.2639376219504	
20.0	130.90366308946568	pulse	1.0	t		22.0	female	white	4.614007162753682	smiling	009	sub-06	2.0	5.0	009_smiling	0.0		157.96394082162988	
20.0	131.60364817775235	pulse	1.0	t		22.0	female	white	4.614007162753682	smiling	009	sub-06	2.0	5.0	009_smiling	0.0		158.66392590991654	
20.0	132.30363839760048	pulse	1.0	t		22.0	female	white	4.614007162753682	smiling	009	sub-06	2.0	5.0	009_smiling	0.0		159.36391612976468	
20.0	133.00362831559232	pulse	1.0	t		22.0	female	white	4.614007162753682	smiling	009	sub-06	2.0	5.0	009_smiling	0.0		160.06390604775652	
20.0	133.70362306328843	pulse	1.0	t		22.0	female	white	4.614007162753682	smiling	009	sub-06	2.0	5.0	009_smiling	0.0		160.76390079545263	
20.0	134.40361177385375	pulse	1.0	t		22.0	female	white	4.614007162753682	smiling	009	sub-06	2.0	5.0	009_smiling	0.0		161.46388950601795	
20.0	135.10359927699346	pulse	1.0	t		22.0	female	white	4.614007162753682	smiling	009	sub-06	2.0	5.0	009_smiling	0.0		162.16387700915766	
20.0	135.8035837615671	pulse	1.0	t		22.0	female	white	4.614007162753682	smiling	009	sub-06	2.0	5.0	009_smiling	0.0		162.8638614937313	
20.0	136.50357186841939	pulse	1.0	t		22.0	female	white	4.614007162753682	smiling	009	sub-06	2.0	5.0	009_smiling	0.0		163.56384960058358	
20.0	137.20356872911134	pulse	1.0	t		22.0	female	white	4.614007162753682	smiling	009	sub-06	2.0	5.0	009_smiling	0.0		164.26384646127553	
21.0	137.27010968259174	face	0.0		146	40.0	female	west_asian	1.5777954635893354	smiling	038	sub-06	2.0	5.0	038_smiling	0.0		164.33038741475593	1.2333305763768294
21.0	137.90355049697655	pulse	0.0	t		40.0	female	west_asian	1.5777954635893354	smiling	038	sub-06	2.0	5.0	038_smiling	0.0		164.96382822914074	
21.0	138.50344025896857	fix	1.0		443	40.0	female	west_asian	1.5777954635893354	smiling	038	sub-06	2.0	5.0	038_smiling	0.0		165.56371799113276	3.76659426134529
21.0	138.60356335606502	pulse	1.0	t		40.0	female	west_asian	1.5777954635893354	smiling	038	sub-06	2.0	5.0	038_smiling	0.0		165.66384108822922	
21.0	139.30353999236922	pulse	1.0	t		40.0	female	west_asian	1.5777954635893354	smiling	038	sub-06	2.0	5.0	038_smiling	0.0		166.36381772453342	
21.0	140.003512100825	pulse	1.0	t		40.0	female	west_asian	1.5777954635893354	smiling	038	sub-06	2.0	5.0	038_smiling	0.0		167.0637898329892	
21.0	140.7035068485211	pulse	1.0	t		40.0	female	west_asian	1.5777954635893354	smiling	038	sub-06	2.0	5.0	038_smiling	0.0		167.7637845806853	
21.0	141.40349887950833	pulse	1.0	t		40.0	female	west_asian	1.5777954635893354	smiling	038	sub-06	2.0	5.0	038_smiling	0.0		168.46377661167253	
21.0	142.103500569905	pulse	1.0	t		40.0	female	west_asian	1.5777954635893354	smiling	038	sub-06	2.0	5.0	038_smiling	0.0		169.1637783020692	
22.0	142.27003452031386	face	0.0		146	24.0	female	east_asian	4.409868682849185	smiling	030	sub-06	2.0	5.0	030_smiling	0.0		169.33031225247805	1.2333284633809853
22.0	142.80348988418382	pulse	0.0	t		24.0	female	east_asian	4.409868682849185	smiling	030	sub-06	2.0	5.0	030_smiling	0.0		169.863767616348	
22.0	143.50336298369484	fix	1.0		443	24.0	female	east_asian	4.409868682849185	smiling	030	sub-06	2.0	5.0	030_smiling	0.0		170.56364071585904	3.76659426134529
22.0	143.51154450331342	pulse	1.0	t		24.0	female	east_asian	4.409868682849185	smiling	030	sub-06	2.0	5.0	030_smiling	0.0		170.5718222354776	
22.0	144.2034642867493	pulse	1.0	t		24.0	female	east_asian	4.409868682849185	smiling	030	sub-06	2.0	5.0	030_smiling	0.0		171.2637420189135	
22.0	144.90344424347495	pulse	1.0	t		24.0	female	east_asian	4.409868682849185	smiling	030	sub-06	2.0	5.0	030_smiling	0.0		171.96372197563915	
22.0	145.60343536889286	pulse	1.0	t		24.0	female	east_asian	4.409868682849185	smiling	030	sub-06	2.0	5.0	030_smiling	0.0		172.66371310105706	
22.0	146.30342438131493	pulse	1.0	t		24.0	female	east_asian	4.409868682849185	smiling	030	sub-06	2.0	5.0	030_smiling	0.0		173.36370211347912	
22.0	147.00341943086778	pulse	1.0	t		24.0	female	east_asian	4.409868682849185	smiling	030	sub-06	2.0	5.0	030_smiling	0.0		174.06369716303197	
23.0	147.26995724504013	face	0.0		145	25.0	female	west_asian	2.6756864305610826	neutral	064	sub-06	2.0	5.0	064_neutral	0.0		174.33023497720433	1.2333302745200854
23.0	147.703411461855	pulse	0.0	t		25.0	female	west_asian	2.6756864305610826	neutral	064	sub-06	2.0	5.0	064_neutral	0.0		174.7636891940192	
23.0	148.4033962482854	pulse	0.0	t		25.0	female	west_asian	2.6756864305610826	neutral	064	sub-06	2.0	5.0	064_neutral	0.0		175.46367398044958	
23.0	148.50328751956022	fix	1.0		444	25.0	female	west_asian	2.6756864305610826	neutral	064	sub-06	2.0	5.0	064_neutral	0.0		175.5635652517244	3.76659969476259
23.0	149.10339371269038	pulse	1.0	t		25.0	female	west_asian	2.6756864305610826	neutral	064	sub-06	2.0	5.0	064_neutral	0.0		176.16367144485457	
23.0	149.8033694434248	pulse	1.0	t		25.0	female	west_asian	2.6756864305610826	neutral	064	sub-06	2.0	5.0	064_neutral	0.0		176.863647175589	
23.0	150.50336298369484	pulse	1.0	t		25.0	female	west_asian	2.6756864305610826	neutral	064	sub-06	2.0	5.0	064_neutral	0.0		177.56364071585904	
23.0	151.20336074995657	pulse	1.0	t		25.0	female	west_asian	2.6756864305610826	neutral	064	sub-06	2.0	5.0	064_neutral	0.0		178.26363848212077	
23.0	151.90334674381302	pulse	1.0	t		25.0	female	west_asian	2.6756864305610826	neutral	064	sub-06	2.0	5.0	064_neutral	0.0		178.9636244759772	
24.0	152.2698872143228	face	0.0		145	31.0	female	white	2.1822522881018704	smiling	102	sub-06	2.0	5.0	102_smiling	0.0		179.330164946487	1.233326350385596
24.0	152.60333937851374	pulse	0.0	t		31.0	female	white	2.1822522881018704	smiling	102	sub-06	2.0	5.0	102_smiling	0.0		179.66361711067793	
24.0	153.30332597608322	pulse	0.0	t		31.0	female	white	2.1822522881018704	smiling	102	sub-06	2.0	5.0	102_smiling	0.0		180.3636037082474	
24.0	153.5032135647084	fix	1.0		444	31.0	female	white	2.1822522881018704	smiling	102	sub-06	2.0	5.0	102_smiling	0.0		180.5634912968726	3.766593959488546
24.0	154.0033180070709	pulse	1.0	t		31.0	female	white	2.1822522881018704	smiling	102	sub-06	2.0	5.0	102_smiling	0.0		181.0635957392351	
24.0	154.7033018879315	pulse	1.0	t		31.0	female	white	2.1822522881018704	smiling	102	sub-06	2.0	5.0	102_smiling	0.0		181.7635796200957	
24.0	155.4032912022103	pulse	1.0	t		31.0	female	white	2.1822522881018704	smiling	102	sub-06	2.0	5.0	102_smiling	0.0		182.4635689343745	
24.0	156.10327659235372	pulse	1.0	t		31.0	female	white	2.1822522881018704	smiling	102	sub-06	2.0	5.0	102_smiling	0.0		183.16355432451792	
24.0	156.80327103819354	pulse	1.0	t		31.0	female	white	2.1822522881018704	smiling	102	sub-06	2.0	5.0	102_smiling	0.0		183.86354877035774	
25.0	157.26980752419695	face	0.0		145	20.0	male	black	3.1070433744528456	neutral	082	sub-06	2.0	5.0	082_neutral	0.0		184.33008525636114	1.2333082389927768
25.0	157.5032805768601	pulse	0.0	t		20.0	male	black	3.1070433744528456	neutral	082	sub-06	2.0	5.0	082_neutral	0.0		184.5635583090243	
25.0	158.20324121476733	pulse	0.0	t		20.0	male	black	3.1070433744528456	neutral	082	sub-06	2.0	5.0	082_neutral	0.0		185.26351894693153	
25.0	158.50311576318973	fix	1.0		444	20.0	male	black	3.1070433744528456	neutral	082	sub-06	2.0	5.0	082_neutral	0.0		185.56339349535392	3.7666165987288878
25.0	158.90324864043805	pulse	1.0	t		20.0	male	black	3.1070433744528456	neutral	082	sub-06	2.0	5.0	082_neutral	0.0		185.96352637260225	
25.0	159.60322286188966	pulse	1.0	t		20.0	male	black	3.1070433744528456	neutral	082	sub-06	2.0	5.0	082_neutral	0.0		186.66350059405386	
25.0	160.30328069760253	pulse	1.0	t		20.0	male	black	3.1070433744528456	neutral	082	sub-06	2.0	5.0	082_neutral	0.0		187.36355842976673	
25.0	161.00320933871672	pulse	1.0	t		20.0	male	black	3.1070433744528456	neutral	082	sub-06	2.0	5.0	082_neutral	0.0		188.0634870708809	
25.0	161.70319503071687	pulse	1.0	t		20.0	male	black	3.1070433744528456	neutral	082	sub-06	2.0	5.0	082_neutral	0.0		188.76347276288107	
26.0	162.2697323619186	face	0.0		145	19.0	female	white	4.298846000795861	neutral	100	sub-06	2.0	5.0	100_neutral	0.0		189.3300100940828	1.2333323875163842
26.0	162.40319158955253	pulse	0.0	t		19.0	female	white	4.298846000795861	neutral	100	sub-06	2.0	5.0	100_neutral	0.0		189.46346932171673	
26.0	163.10318180940067	pulse	0.0	t		19.0	female	white	4.298846000795861	neutral	100	sub-06	2.0	5.0	100_neutral	0.0		190.16345954156486	
26.0	163.503064749435	fix	1.0		444	19.0	female	white	4.298846000795861	neutral	100	sub-06	2.0	5.0	100_neutral	0.0		190.5633424815992	3.7582590967485885
26.0	163.80317263296183	pulse	1.0	t		19.0	female	white	4.298846000795861	neutral	100	sub-06	2.0	5.0	100_neutral	0.0		190.86345036512603	
26.0	164.50315621196614	pulse	1.0	t		19.0	female	white	4.298846000795861	neutral	100	sub-06	2.0	5.0	100_neutral	0.0		191.56343394413034	
26.0	165.20314643181428	pulse	1.0	t		19.0	female	white	4.298846000795861	neutral	100	sub-06	2.0	5.0	100_neutral	0.0		192.26342416397847	
26.0	165.90314027394106	pulse	1.0	t		19.0	female	white	4.298846000795861	neutral	100	sub-06	2.0	5.0	100_neutral	0.0		192.96341800610526	
26.0	166.60315011446392	pulse	1.0	t		19.0	female	white	4.298846000795861	neutral	100	sub-06	2.0	5.0	100_neutral	0.0		193.6634278466281	
27.0	167.2613238461836	face	0.0		146	36.0	female	white	2.7548746518105847	smiling	011	sub-06	2.0	5.0	011_smiling	0.0		194.32160157834778	1.2416648354037534
27.0	167.3031219210634	pulse	0.0	t		36.0	female	white	2.7548746518105847	smiling	011	sub-06	2.0	5.0	011_smiling	0.0		194.3633996532276	
27.0	168.00311032977243	pulse	0.0	t		36.0	female	white	2.7548746518105847	smiling	011	sub-06	2.0	5.0	011_smiling	0.0		195.06338806193662	
27.0	168.50298868158734	fix	1.0		443	36.0	female	white	2.7548746518105847	smiling	011	sub-06	2.0	5.0	011_smiling	0.0		195.56326641375153	3.7665918464927017
27.0	168.70309571991584	pulse	1.0	t		36.0	female	white	2.7548746518105847	smiling	011	sub-06	2.0	5.0	011_smiling	0.0		195.76337345208003	
27.0	169.4030805063462	pulse	1.0	t		36.0	female	white	2.7548746518105847	smiling	011	sub-06	2.0	5.0	011_smiling	0.0		196.4633582385104	
27.0	170.10306891505525	pulse	1.0	t		36.0	female	white	2.7548746518105847	smiling	011	sub-06	2.0	5.0	011_smiling	0.0		197.16334664721944	
27.0	170.80304826806787	pulse	1.0	t		36.0	female	white	2.7548746518105847	smiling	011	sub-06	2.0	5.0	011_smiling	0.0		197.86332600023206	
27.0	171.50304663804263	pulse	1.0	t		36.0	female	white	2.7548746518105847	smiling	011	sub-06	2.0	5.0	011_smiling	0.0		198.56332437020683	
27.0	172.20304048016942	pulse	1.0	t		36.0	female	white	2.7548746518105847	smiling	011	sub-06	2.0	5.0	011_smiling	0.0		199.26331821233362	
28.0	172.26958052808004	face	0.0		146	22.0	male	black	2.767608436132113	smiling	044	sub-06	2.0	5.0	044_smiling	0.0		199.32985826024424	1.2333335949419961
28.0	172.9030379445744	pulse	0.0	t		22.0	male	black	2.767608436132113	smiling	044	sub-06	2.0	5.0	044_smiling	0.0		199.9633156767386	
28.0	173.50291412302204	fix	1.0		443	22.0	male	black	2.767608436132113	smiling	044	sub-06	2.0	5.0	044_smiling	0.0		200.56319185518623	3.7665891297838243
28.0	173.60301307159534	pulse	1.0	t		22.0	male	black	2.767608436132113	smiling	044	sub-06	2.0	5.0	044_smiling	0.0		200.66329080375954	
28.0	174.30302230840562	pulse	1.0	t		22.0	male	black	2.767608436132113	smiling	044	sub-06	2.0	5.0	044_smiling	0.0		201.3633000405698	
28.0	175.00299260572228	pulse	1.0	t		22.0	male	black	2.767608436132113	smiling	044	sub-06	2.0	5.0	044_smiling	0.0		202.06327033788648	
28.0	175.70299218312311	pulse	1.0	t		22.0	male	black	2.767608436132113	smiling	044	sub-06	2.0	5.0	044_smiling	0.0		202.7632699152873	
28.0	176.40299326980676	pulse	1.0	t		22.0	male	black	2.767608436132113	smiling	044	sub-06	2.0	5.0	044_smiling	0.0		203.46327100197095	
28.0	177.1029572281359	pulse	1.0	t		22.0	male	black	2.767608436132113	smiling	044	sub-06	2.0	5.0	044_smiling	0.0		204.1632349603001	
29.0	177.26950325280586	face	0.0		146	21.0	male	black	2.969757262236371	neutral	137	sub-06	2.0	5.0	137_neutral	0.0		204.32978098497006	1.2333348023685176
29.0	177.80296435195032	pulse	0.0	t		21.0	male	black	2.969757262236371	neutral	137	sub-06	2.0	5.0	137_neutral	0.0		204.86324208411452	
29.0	178.50283805517438	fix	1.0		444	21.0	male	black	2.969757262236371	neutral	137	sub-06	2.0	5.0	137_neutral	0.0		205.56311578733857	3.7665767536659587
29.0	178.5103005525184	pulse	1.0	t		21.0	male	black	2.969757262236371	neutral	137	sub-06	2.0	5.0	137_neutral	0.0		205.5705782846826	
29.0	179.20297286430468	pulse	1.0	t		21.0	male	black	2.969757262236371	neutral	137	sub-06	2.0	5.0	137_neutral	0.0		206.26325059646888	
29.0	179.90292172980708	pulse	1.0	t		21.0	male	black	2.969757262236371	neutral	137	sub-06	2.0	5.0	137_neutral	0.0		206.96319946197127	
29.0	180.60291104408543	pulse	1.0	t		21.0	male	black	2.969757262236371	neutral	137	sub-06	2.0	5.0	137_neutral	0.0		207.66318877624963	
29.0	181.3029094140602	pulse	1.0	t		21.0	male	black	2.969757262236371	neutral	137	sub-06	2.0	5.0	137_neutral	0.0		208.3631871462244	
29.0	182.00288846521653	pulse	1.0	t		21.0	male	black	2.969757262236371	neutral	137	sub-06	2.0	5.0	137_neutral	0.0		209.06316619738072	
30.0	182.26941480884034	face	0.0		145	40.0	male	black	2.408674890569041	smiling	061	sub-06	2.0	5.0	061_smiling	0.0		209.32969254100453	1.2333483859129046
30.0	182.70288713704758	pulse	0.0	t		40.0	male	black	2.408674890569041	smiling	061	sub-06	2.0	5.0	061_smiling	0.0		209.76316486921178	
30.0	183.40287131976493	pulse	0.0	t		40.0	male	black	2.408674890569041	smiling	061	sub-06	2.0	5.0	061_smiling	0.0		210.46314905192912	
30.0	183.50276319475324	fix	1.0		444	40.0	male	black	2.408674890569041	smiling	061	sub-06	2.0	5.0	061_smiling	0.0		210.56304092691744	3.7665758480957265
30.0	184.10286667117452	pulse	1.0	t		40.0	male	black	2.408674890569041	smiling	061	sub-06	2.0	5.0	061_smiling	0.0		211.16314440333872	
30.0	184.80284692975692	pulse	1.0	t		40.0	male	black	2.408674890569041	smiling	061	sub-06	2.0	5.0	061_smiling	0.0		211.86312466192112	
30.0	185.50283745146135	pulse	1.0	t		40.0	male	black	2.408674890569041	smiling	061	sub-06	2.0	5.0	061_smiling	0.0		212.56311518362554	
30.0	186.20283370844027	pulse	1.0	t		40.0	male	black	2.408674890569041	smiling	061	sub-06	2.0	5.0	061_smiling	0.0		213.26311144060446	
30.0	186.90281396702267	pulse	1.0	t		40.0	male	black	2.408674890569041	smiling	061	sub-06	2.0	5.0	061_smiling	0.0		213.96309169918686	
31.0	187.26933904284897	face	0.0		145	31.0	female	white	2.1822522881018704	neutral	102	sub-06	2.0	5.0	102_neutral	0.0		214.32961677501316	1.233348989625938
31.0	187.60281384628024	pulse	0.0	t		31.0	female	white	2.1822522881018704	neutral	102	sub-06	2.0	5.0	102_neutral	0.0		214.66309157844444	
31.0	188.30279833085433	pulse	0.0	t		31.0	female	white	2.1822522881018704	neutral	102	sub-06	2.0	5.0	102_neutral	0.0		215.36307606301853	
31.0	188.5026880324749	fix	1.0		444	31.0	female	white	2.1822522881018704	neutral	102	sub-06	2.0	5.0	102_neutral	0.0		215.5629657646391	3.766593959488546
31.0	189.00279187112437	pulse	1.0	t		31.0	female	white	2.1822522881018704	neutral	102	sub-06	2.0	5.0	102_neutral	0.0		216.06306960328857	
31.0	189.70278299654183	pulse	1.0	t		31.0	female	white	2.1822522881018704	neutral	102	sub-06	2.0	5.0	102_neutral	0.0		216.76306072870602	
31.0	190.40276385883726	pulse	1.0	t		31.0	female	white	2.1822522881018704	neutral	102	sub-06	2.0	5.0	102_neutral	0.0		217.46304159100146	
31.0	191.1027429099936	pulse	1.0	t		31.0	female	white	2.1822522881018704	neutral	102	sub-06	2.0	5.0	102_neutral	0.0		218.1630206421578	
31.0	191.80273131870263	pulse	1.0	t		31.0	female	white	2.1822522881018704	neutral	102	sub-06	2.0	5.0	102_neutral	0.0		218.86300905086682	
32.0	192.26928199196345	face	0.0		145	21.0	male	black	2.969757262236371	smiling	137	sub-06	2.0	5.0	137_smiling	0.0		219.32955972412765	1.233314577980309
32.0	192.50272908496436	pulse	0.0	t		21.0	male	black	2.969757262236371	smiling	137	sub-06	2.0	5.0	137_smiling	0.0		219.56300681712855	
32.0	193.20271115468586	pulse	0.0	t		21.0	male	black	2.969757262236371	smiling	137	sub-06	2.0	5.0	137_smiling	0.0		220.26298888685005	
32.0	193.50259656994376	fix	1.0		444	21.0	male	black	2.969757262236371	smiling	137	sub-06	2.0	5.0	137_smiling	0.0		220.56287430210796	3.766592752062479
32.0	193.9028329839848	pulse	1.0	t		21.0	male	black	2.969757262236371	smiling	137	sub-06	2.0	5.0	137_smiling	0.0		220.963110716149	
32.0	194.60274683412854	pulse	1.0	t		21.0	male	black	2.969757262236371	smiling	137	sub-06	2.0	5.0	137_smiling	0.0		221.66302456629273	
32.0	195.30270747203622	pulse	1.0	t		21.0	male	black	2.969757262236371	smiling	137	sub-06	2.0	5.0	137_smiling	0.0		222.3629852042004	
32.0	196.00268229720086	pulse	1.0	t		21.0	male	black	2.969757262236371	smiling	137	sub-06	2.0	5.0	137_smiling	0.0		223.06296002936506	
32.0	196.70265682050876	pulse	1.0	t		21.0	male	black	2.969757262236371	smiling	137	sub-06	2.0	5.0	137_smiling	0.0		223.76293455267296	
33.0	197.26918932200624	face	0.0		145	47.0	male	east_asian	2.171110226820533	smiling	024	sub-06	2.0	5.0	024_smiling	0.0		224.32946705417044	1.2333357079378402
33.0	197.4026560960533	pulse	0.0	t		47.0	male	east_asian	2.171110226820533	smiling	024	sub-06	2.0	5.0	024_smiling	0.0		224.4629338282175	
33.0	198.10265024003638	pulse	0.0	t		47.0	male	east_asian	2.171110226820533	smiling	024	sub-06	2.0	5.0	024_smiling	0.0		225.16292797220058	
33.0	198.50252502994408	fix	1.0		444	47.0	male	east_asian	2.171110226820533	smiling	024	sub-06	2.0	5.0	024_smiling	0.0		225.56280276210828	3.7665900353536017
33.0	198.80264710072834	pulse	1.0	t		47.0	male	east_asian	2.171110226820533	smiling	024	sub-06	2.0	5.0	024_smiling	0.0		225.86292483289253	
33.0	199.50261498319287	pulse	1.0	t		47.0	male	east_asian	2.171110226820533	smiling	024	sub-06	2.0	5.0	024_smiling	0.0		226.56289271535707	
33.0	200.2026070141801	pulse	1.0	t		47.0	male	east_asian	2.171110226820533	smiling	024	sub-06	2.0	5.0	024_smiling	0.0		227.2628847463443	
33.0	200.90261323242476	pulse	1.0	t		47.0	male	east_asian	2.171110226820533	smiling	024	sub-06	2.0	5.0	024_smiling	0.0		227.96289096458895	
33.0	201.60259500028997	pulse	1.0	t		47.0	male	east_asian	2.171110226820533	smiling	024	sub-06	2.0	5.0	024_smiling	0.0		228.66287273245416	
34.0	202.26911506529768	face	0.0		145	27.0	male	black	3.5523278949462798	neutral	042	sub-06	2.0	5.0	042_neutral	0.0		229.32939279746188	1.2333305763768294
34.0	202.30257827743753	pulse	0.0	t		27.0	male	black	3.5523278949462798	neutral	042	sub-06	2.0	5.0	042_neutral	0.0		229.36285600960173	
34.0	203.00258087340399	pulse	0.0	t		27.0	male	black	3.5523278949462798	neutral	042	sub-06	2.0	5.0	042_neutral	0.0		230.06285860556818	
34.0	203.5024456416745	fix	1.0		443	27.0	male	black	3.5523278949462798	neutral	042	sub-06	2.0	5.0	042_neutral	0.0		230.5627233738387	3.766607844889222
34.0	203.70255932084683	pulse	1.0	t		27.0	male	black	3.5523278949462798	neutral	042	sub-06	2.0	5.0	042_neutral	0.0		230.76283705301103	
34.0	204.40255135183452	pulse	1.0	t		27.0	male	black	3.5523278949462798	neutral	042	sub-06	2.0	5.0	042_neutral	0.0		231.4628290839987	
34.0	205.10253523269512	pulse	1.0	t		27.0	male	black	3.5523278949462798	neutral	042	sub-06	2.0	5.0	042_neutral	0.0		232.1628129648593	
34.0	205.80253541380898	pulse	1.0	t		27.0	male	black	3.5523278949462798	neutral	042	sub-06	2.0	5.0	042_neutral	0.0		232.86281314597318	
34.0	206.50252020023936	pulse	1.0	t		27.0	male	black	3.5523278949462798	neutral	042	sub-06	2.0	5.0	042_neutral	0.0		233.56279793240356	
34.0	207.20250347738738	pulse	1.0	t		27.0	male	black	3.5523278949462798	neutral	042	sub-06	2.0	5.0	042_neutral	0.0		234.26278120955158	
35.0	207.26905348656373	face	0.0		146	40.0	male	white	1.868682849184242	smiling	172	sub-06	2.0	5.0	172_smiling	0.0		234.32933121872793	1.2333317838033508
35.0	207.90249248980945	pulse	0.0	t		40.0	male	white	1.868682849184242	smiling	172	sub-06	2.0	5.0	172_smiling	0.0		234.96277022197364	
35.0	208.50238527036709	fix	1.0		443	40.0	male	white	1.868682849184242	smiling	172	sub-06	2.0	5.0	172_smiling	0.0		235.56266300253128	3.7583233921909596
35.0	208.60250776375005	pulse	1.0	t		40.0	male	white	1.868682849184242	smiling	172	sub-06	2.0	5.0	172_smiling	0.0		235.66278549591425	
35.0	209.30247232579268	pulse	1.0	t		40.0	male	white	1.868682849184242	smiling	172	sub-06	2.0	5.0	172_smiling	0.0		236.36275005795687	
35.0	210.00246918648463	pulse	1.0	t		40.0	male	white	1.868682849184242	smiling	172	sub-06	2.0	5.0	172_smiling	0.0		237.06274691864883	
35.0	210.7024581989067	pulse	1.0	t		40.0	male	white	1.868682849184242	smiling	172	sub-06	2.0	5.0	172_smiling	0.0		237.7627359310709	
35.0	211.40244811689809	pulse	1.0	t		40.0	male	white	1.868682849184242	smiling	172	sub-06	2.0	5.0	172_smiling	0.0		238.46272584906228	
35.0	212.1024316959024	pulse	1.0	t		40.0	male	white	1.868682849184242	smiling	172	sub-06	2.0	5.0	172_smiling	0.0		239.1627094280666	
36.0	212.26070866255805	face	0.0		147	28.0	male	white	3.9076800636689217	neutral	033	sub-06	2.0	5.0	033_neutral	0.0		239.32098639472224	1.2416050678093598
36.0	212.8024605533874	pulse	0.0	t		28.0	male	white	3.9076800636689217	neutral	033	sub-06	2.0	5.0	033_neutral	0.0		239.8627382855516	
36.0	213.5023137303674	fix	1.0		444	28.0	male	white	3.9076800636689217	neutral	033	sub-06	2.0	5.0	033_neutral	0.0		240.5625914625316	3.766592148348991
36.0	213.50983026003132	pulse	1.0	t		28.0	male	white	3.9076800636689217	neutral	033	sub-06	2.0	5.0	033_neutral	0.0		240.57010799219552	
36.0	214.20241261856927	pulse	1.0	t		28.0	male	white	3.9076800636689217	neutral	033	sub-06	2.0	5.0	033_neutral	0.0		241.26269035073346	
36.0	214.90238684002088	pulse	1.0	t		28.0	male	white	3.9076800636689217	neutral	033	sub-06	2.0	5.0	033_neutral	0.0		241.96266457218508	
36.0	215.6023873229915	pulse	1.0	t		28.0	male	white	3.9076800636689217	neutral	033	sub-06	2.0	5.0	033_neutral	0.0		242.66266505515568	
36.0	216.30236999642602	pulse	1.0	t		28.0	male	white	3.9076800636689217	neutral	033	sub-06	2.0	5.0	033_neutral	0.0		243.36264772859022	
36.0	217.0023562921392	pulse	1.0	t		28.0	male	white	3.9076800636689217	neutral	033	sub-06	2.0	5.0	033_neutral	0.0		244.0626340243034	
37.0	217.2689058787164	face	0.0		145	27.0	male	black	3.5523278949462798	smiling	042	sub-06	2.0	5.0	042_smiling	0.0		244.3291836108806	1.2333308782335735
37.0	217.70235918996195	pulse	0.0	t		27.0	male	black	3.5523278949462798	smiling	042	sub-06	2.0	5.0	042_smiling	0.0		244.76263692212615	
37.0	218.40234397639233	pulse	0.0	t		27.0	male	black	3.5523278949462798	smiling	042	sub-06	2.0	5.0	042_smiling	0.0		245.46262170855653	
37.0	218.50223675694997	fix	1.0		444	27.0	male	black	3.5523278949462798	smiling	042	sub-06	2.0	5.0	042_smiling	0.0		245.56251448911416	3.7665818852269695
37.0	219.10234204451035	pulse	1.0	t		27.0	male	black	3.5523278949462798	smiling	042	sub-06	2.0	5.0	042_smiling	0.0		246.16261977667455	
37.0	219.80232019009736	pulse	1.0	t		27.0	male	black	3.5523278949462798	smiling	042	sub-06	2.0	5.0	042_smiling	0.0		246.86259792226156	
37.0	220.50229592083133	pulse	1.0	t		27.0	male	black	3.5523278949462798	smiling	042	sub-06	2.0	5.0	042_smiling	0.0		247.56257365299552	
37.0	221.20230787435048	pulse	1.0	t		27.0	male	black	3.5523278949462798	smiling	042	sub-06	2.0	5.0	042_smiling	0.0		248.26258560651468	
37.0	221.90228300137187	pulse	1.0	t		27.0	male	black	3.5523278949462798	smiling	042	sub-06	2.0	5.0	042_smiling	0.0		248.96256073353607	
38.0	222.26881864217694	face	0.0		145	22.0	female	west_asian	3.8205332272184642	smiling	066	sub-06	2.0	5.0	066_smiling	0.0		249.32909637434113	1.2333438580644724
38.0	222.60227895649405	pulse	0.0	t		22.0	female	west_asian	3.8205332272184642	smiling	066	sub-06	2.0	5.0	066_smiling	0.0		249.66255668865824	
38.0	223.30227491161622	pulse	0.0	t		22.0	female	west_asian	3.8205332272184642	smiling	066	sub-06	2.0	5.0	066_smiling	0.0		250.36255264378042	
38.0	223.5021625002414	fix	1.0		444	22.0	female	west_asian	3.8205332272184642	smiling	066	sub-06	2.0	5.0	066_smiling	0.0		250.5624402324056	3.7583801412206412
38.0	224.00226482960807	pulse	1.0	t		22.0	female	west_asian	3.8205332272184642	smiling	066	sub-06	2.0	5.0	066_smiling	0.0		251.06254256177226	
38.0	224.7022441826207	pulse	1.0	t		22.0	female	west_asian	3.8205332272184642	smiling	066	sub-06	2.0	5.0	066_smiling	0.0		251.76252191478488	
38.0	225.40223440246882	pulse	1.0	t		22.0	female	west_asian	3.8205332272184642	smiling	066	sub-06	2.0	5.0	066_smiling	0.0		252.46251213463302	
38.0	226.10223186687426	pulse	1.0	t		22.0	female	west_asian	3.8205332272184642	smiling	066	sub-06	2.0	5.0	066_smiling	0.0		253.16250959903846	
38.0	226.80222118115262	pulse	1.0	t		22.0	female	west_asian	3.8205332272184642	smiling	066	sub-06	2.0	5.0	066_smiling	0.0		253.8624989133168	
39.0	227.26054264146205	face	0.0		146	30.0	female	black	2.7345801830481498	neutral	062	sub-06	2.0	5.0	062_neutral	0.0		254.32082037362625	1.2415259813960802
39.0	227.50221653256176	pulse	0.0	t		30.0	female	black	2.7345801830481498	neutral	062	sub-06	2.0	5.0	062_neutral	0.0		254.56249426472596	
39.0	228.20220162084888	pulse	0.0	t		30.0	female	black	2.7345801830481498	neutral	062	sub-06	2.0	5.0	062_neutral	0.0		255.26247935301308	
39.0	228.50206862285813	fix	1.0		444	30.0	female	black	2.7345801830481498	neutral	062	sub-06	2.0	5.0	062_neutral	0.0		255.56234635502233	3.7499459676796505
39.0	228.90218369057038	pulse	1.0	t		30.0	female	black	2.7345801830481498	neutral	062	sub-06	2.0	5.0	062_neutral	0.0		255.96246142273458	
39.0	229.60217119370964	pulse	1.0	t		30.0	female	black	2.7345801830481498	neutral	062	sub-06	2.0	5.0	062_neutral	0.0		256.66244892587383	
39.0	230.30215296157485	pulse	1.0	t		30.0	female	black	2.7345801830481498	neutral	062	sub-06	2.0	5.0	062_neutral	0.0		257.36243069373904	
39.0	231.00214529441882	pulse	1.0	t		30.0	female	black	2.7345801830481498	neutral	062	sub-06	2.0	5.0	062_neutral	0.0		258.062423026583	
39.0	231.70213128827527	pulse	1.0	t		30.0	female	black	2.7345801830481498	neutral	062	sub-06	2.0	5.0	062_neutral	0.0		258.76240902043946	
40.0	232.25201459053778	fix	0.0		720													259.312292322702	5.999906122616267
40.0	232.40213388424172	pulse	0.0	t														259.4624116164059	
40.0	233.1021247078029	pulse	0.0	t														260.1624024399671	
40.0	233.8021158332208	pulse	0.0	t														260.862393565385	
40.0	234.50210363821634	pulse	0.0	t														261.56238137038054	
40.0	235.20209929148223	pulse	0.0	t														262.2623770236464	
40.0	235.90208679462148	pulse	0.0	t														262.9623645267857	
40.0	236.60205709193815	pulse	0.0	t														263.66233482410235	
40.0	237.3020657250354	pulse	0.0	t														264.3623434571996	
40.0	238.00203692792138	pulse	0.0	t														265.0623146600856	
