trial_nr	onset	event_type	phase	response	nr_frames	face_age	face_sex	face_eth	attractiveness	expression	face_id	sub_id	ses	run	trial_type	catch	rating_type	onset_abs	duration
-1.0	0.05973688603262417	fix	0.0		713													23.63085743712145	5.957876288803163
-1.0	0.7011990542314379	pulse	0.0	t														24.272319605320263	
-1.0	1.401211822651021	pulse	0.0	t														24.972332373739846	
-1.0	2.1012098002292987	pulse	0.0	t														25.672330351318124	
-1.0	2.801151632984329	pulse	0.0	t														26.372272184073154	
-1.0	3.5011487050014694	pulse	0.0	t														27.072269256090294	
-1.0	4.20112162870646	pulse	0.0	t														27.772242179795285	
-1.0	4.9011020987600205	pulse	0.0	t														28.472222649848845	
-1.0	5.601089209598285	pulse	0.0	t														29.17220976068711	
0.0	6.0176131748357875	face	0.0		144	28.0	male	white	3.9076800636689217	neutral	033	sub-13	1.0	5.0	033_neutral	0.0		29.588733725924612	1.233326420879166
0.0	6.301088696446641	pulse	0.0	t		28.0	male	white	3.9076800636689217	neutral	033	sub-13	1.0	5.0	033_neutral	0.0		29.872209247535466	
0.0	7.001043207064868	pulse	0.0	t		28.0	male	white	3.9076800636689217	neutral	033	sub-13	1.0	5.0	033_neutral	0.0		30.572163758153692	
0.0	7.250939595714954	fix	1.0		445	28.0	male	white	3.9076800636689217	neutral	033	sub-13	1.0	5.0	033_neutral	0.0		30.82206014680378	3.7582234811534363
0.0	7.70105808846165	pulse	1.0	t		28.0	male	white	3.9076800636689217	neutral	033	sub-13	1.0	5.0	033_neutral	0.0		31.272178639550475	
0.0	8.401022258403827	pulse	1.0	t		28.0	male	white	3.9076800636689217	neutral	033	sub-13	1.0	5.0	033_neutral	0.0		31.972142809492652	
0.0	9.100997898794958	pulse	1.0	t		28.0	male	white	3.9076800636689217	neutral	033	sub-13	1.0	5.0	033_neutral	0.0		32.67211844988378	
0.0	9.801004931990065	pulse	1.0	t		28.0	male	white	3.9076800636689217	neutral	033	sub-13	1.0	5.0	033_neutral	0.0		33.37212548307889	
0.0	10.500976648280812	pulse	1.0	t		28.0	male	white	3.9076800636689217	neutral	033	sub-13	1.0	5.0	033_neutral	0.0		34.07209719936964	
1.0	11.00916307686839	face	0.0		146	28.0	female	white	5.676880222841227	smiling	124	sub-13	1.0	5.0	124_smiling	0.0		34.580283627957215	1.2416545698724804
1.0	11.200963155411046	pulse	0.0	t		28.0	female	white	5.676880222841227	smiling	124	sub-13	1.0	5.0	124_smiling	0.0		34.77208370649987	
1.0	11.900956001473787	pulse	0.0	t		28.0	female	white	5.676880222841227	smiling	124	sub-13	1.0	5.0	124_smiling	0.0		35.47207655256261	
1.0	12.25081764674087	fix	1.0		445	28.0	female	white	5.676880222841227	smiling	124	sub-13	1.0	5.0	124_smiling	0.0		35.821938197829695	3.758227405254729
1.0	12.60093707523447	pulse	1.0	t		28.0	female	white	5.676880222841227	smiling	124	sub-13	1.0	5.0	124_smiling	0.0		36.172057626323294	
1.0	13.30090577298597	pulse	1.0	t		28.0	female	white	5.676880222841227	smiling	124	sub-13	1.0	5.0	124_smiling	0.0		36.872026324074795	
1.0	14.000895902363482	pulse	1.0	t		28.0	female	white	5.676880222841227	smiling	124	sub-13	1.0	5.0	124_smiling	0.0		37.57201645345231	
1.0	14.700876070562117	pulse	1.0	t		28.0	female	white	5.676880222841227	smiling	124	sub-13	1.0	5.0	124_smiling	0.0		38.27199662165094	
1.0	15.40085774803083	pulse	1.0	t		28.0	female	white	5.676880222841227	smiling	124	sub-13	1.0	5.0	124_smiling	0.0		38.971978299119655	
2.0	16.0090450519956	face	0.0		146	19.0	male	white	2.243931555909272	smiling	130	sub-13	1.0	5.0	130_smiling	0.0		39.580165603084424	1.2416684551508297
2.0	16.100853008924787	pulse	0.0	t		19.0	male	white	2.243931555909272	smiling	130	sub-13	1.0	5.0	130_smiling	0.0		39.67197356001361	
2.0	16.800828951169024	pulse	0.0	t		19.0	male	white	2.243931555909272	smiling	130	sub-13	1.0	5.0	130_smiling	0.0		40.37194950225785	
2.0	17.25071350714643	fix	1.0		444	19.0	male	white	2.243931555909272	smiling	130	sub-13	1.0	5.0	130_smiling	0.0		40.821834058235254	3.758225594131545
2.0	17.50082209908578	pulse	1.0	t		19.0	male	white	2.243931555909272	smiling	130	sub-13	1.0	5.0	130_smiling	0.0		41.071942650174606	
2.0	18.200797739476002	pulse	1.0	t		19.0	male	white	2.243931555909272	smiling	130	sub-13	1.0	5.0	130_smiling	0.0		41.77191829056483	
2.0	18.90078666143836	pulse	1.0	t		19.0	male	white	2.243931555909272	smiling	130	sub-13	1.0	5.0	130_smiling	0.0		42.471907212527185	
2.0	19.60075747216615	pulse	1.0	t		19.0	male	white	2.243931555909272	smiling	130	sub-13	1.0	5.0	130_smiling	0.0		43.171878023254976	
2.0	20.30075333676814	pulse	1.0	t		19.0	male	white	2.243931555909272	smiling	130	sub-13	1.0	5.0	130_smiling	0.0		43.871873887856964	
3.0	21.008939101277974	face	0.0		147	26.0	female	white	4.854755272582572	smiling	027	sub-13	1.0	5.0	027_smiling	0.0		44.5800596523668	1.2416497402091409
3.0	21.00194122240555	pulse	0.0	t		26.0	female	white	4.854755272582572	smiling	027	sub-13	1.0	5.0	027_smiling	0.0		44.57306177349437	
3.0	21.70070190086426	pulse	0.0	t		26.0	female	white	4.854755272582572	smiling	027	sub-13	1.0	5.0	027_smiling	0.0		45.271822451953085	
3.0	22.250588841487115	fix	1.0		443	26.0	female	white	4.854755272582572	smiling	027	sub-13	1.0	5.0	027_smiling	0.0		45.82170939257594	3.7582367627255735
3.0	22.400707122936183	pulse	1.0	t		26.0	female	white	4.854755272582572	smiling	027	sub-13	1.0	5.0	027_smiling	0.0		45.97182767402501	
3.0	23.100679141080036	pulse	1.0	t		26.0	female	white	4.854755272582572	smiling	027	sub-13	1.0	5.0	027_smiling	0.0		46.67179969216886	
3.0	23.80066081854875	pulse	1.0	t		26.0	female	white	4.854755272582572	smiling	027	sub-13	1.0	5.0	027_smiling	0.0		47.371781369637574	
3.0	24.50064068489428	pulse	1.0	t		26.0	female	white	4.854755272582572	smiling	027	sub-13	1.0	5.0	027_smiling	0.0		48.071761235983104	
3.0	25.20062598460936	pulse	1.0	t		26.0	female	white	4.854755272582572	smiling	027	sub-13	1.0	5.0	027_smiling	0.0		48.771746535698185	
3.0	25.90062245291847	pulse	1.0	t		26.0	female	white	4.854755272582572	smiling	027	sub-13	1.0	5.0	027_smiling	0.0		49.471743004007294	
4.0	26.00882560421269	face	0.0		147	40.0	male	white	1.868682849184242	neutral	172	sub-13	1.0	5.0	172_neutral	1.0	attractiveness	49.57994615530151	1.2416391753231437
4.0	26.600606545218398	pulse	0.0	t		40.0	male	white	1.868682849184242	neutral	172	sub-13	1.0	5.0	172_neutral	1.0	attractiveness	50.17172709630722	
4.0	27.250464779535832	fix	1.0		176	40.0	male	white	1.868682849184242	neutral	172	sub-13	1.0	5.0	172_neutral	1.0	attractiveness	50.82158533062466	1.5083346388519203
4.0	27.30066428986902	pulse	1.0	t		40.0	male	white	1.868682849184242	neutral	172	sub-13	1.0	5.0	172_neutral	1.0	attractiveness	50.871784840957844	
4.0	28.000565674200516	pulse	1.0	t		40.0	male	white	1.868682849184242	neutral	172	sub-13	1.0	5.0	172_neutral	1.0	attractiveness	51.57168622528934	
4.0	28.70054584240006	pulse	1.0	t		40.0	male	white	1.868682849184242	neutral	172	sub-13	1.0	5.0	172_neutral	1.0	attractiveness	52.271666393488886	
4.0	28.758799418387753	rating	2.0		294	40.0	male	white	1.868682849184242	neutral	172	sub-13	1.0	5.0	172_neutral	1.0	attractiveness	52.32991996947658	2.4915823513265423
4.0	29.400535669923556	pulse	2.0	t		40.0	male	white	1.868682849184242	neutral	172	sub-13	1.0	5.0	172_neutral	1.0	attractiveness	52.97165622101238	
4.0	29.87552450887597	response	2.0	n		40.0	male	white	1.868682849184242	neutral	172	sub-13	1.0	5.0	172_neutral	1.0	attractiveness	53.446645059964794	
4.0	30.100517045538254	pulse	2.0	t		40.0	male	white	1.868682849184242	neutral	172	sub-13	1.0	5.0	172_neutral	1.0	attractiveness	53.67163759662708	
4.0	30.80050476008455	pulse	2.0	t		40.0	male	white	1.868682849184242	neutral	172	sub-13	1.0	5.0	172_neutral	1.0	attractiveness	54.371625311173375	
4.0	31.250381769714295	fix	3.0		444	40.0	male	white	1.868682849184242	neutral	172	sub-13	1.0	5.0	172_neutral	1.0	attractiveness	54.82150232080312	3.766541367114769
4.0	31.500490965361678	pulse	3.0	t		40.0	male	white	1.868682849184242	neutral	172	sub-13	1.0	5.0	172_neutral	1.0	attractiveness	55.0716115164505	
4.0	32.20048169844722	pulse	3.0	t		40.0	male	white	1.868682849184242	neutral	172	sub-13	1.0	5.0	172_neutral	1.0	attractiveness	55.771602249536045	
4.0	32.900451603613874	pulse	3.0	t		40.0	male	white	1.868682849184242	neutral	172	sub-13	1.0	5.0	172_neutral	1.0	attractiveness	56.4715721547027	
4.0	33.60043056439736	pulse	3.0	t		40.0	male	white	1.868682849184242	neutral	172	sub-13	1.0	5.0	172_neutral	1.0	attractiveness	57.17155111548618	
4.0	34.30042884382965	pulse	3.0	t		40.0	male	white	1.868682849184242	neutral	172	sub-13	1.0	5.0	172_neutral	1.0	attractiveness	57.871549394918475	
5.0	35.016923136829064	face	0.0		146	20.0	male	black	3.1070433744528456	smiling	082	sub-13	1.0	5.0	082_smiling	0.0		58.58804368791789	1.2333089133535395
5.0	35.00322591258737	pulse	0.0	t		20.0	male	black	3.1070433744528456	smiling	082	sub-13	1.0	5.0	082_smiling	0.0		58.57434646367619	
5.0	35.700393104328214	pulse	0.0	t		20.0	male	black	3.1070433744528456	smiling	082	sub-13	1.0	5.0	082_smiling	0.0		59.27151365541704	
5.0	36.2502320501826	fix	1.0		443	20.0	male	black	3.1070433744528456	smiling	082	sub-13	1.0	5.0	082_smiling	0.0		59.82135260127143	3.766581815536483
5.0	36.400368744719344	pulse	1.0	t		20.0	male	black	3.1070433744528456	smiling	082	sub-13	1.0	5.0	082_smiling	0.0		59.97148929580817	
5.0	37.10034951662601	pulse	1.0	t		20.0	male	black	3.1070433744528456	smiling	082	sub-13	1.0	5.0	082_smiling	0.0		60.671470067714836	
5.0	37.80034055156557	pulse	1.0	t		20.0	male	black	3.1070433744528456	smiling	082	sub-13	1.0	5.0	082_smiling	0.0		61.37146110265439	
5.0	38.50031528639374	pulse	1.0	t		20.0	male	black	3.1070433744528456	smiling	082	sub-13	1.0	5.0	082_smiling	0.0		62.07143583748257	
5.0	39.20033469559985	pulse	1.0	t		20.0	male	black	3.1070433744528456	smiling	082	sub-13	1.0	5.0	082_smiling	0.0		62.771455246688674	
5.0	39.90029222475641	pulse	1.0	t		20.0	male	black	3.1070433744528456	smiling	082	sub-13	1.0	5.0	082_smiling	0.0		63.47141277584524	
6.0	40.01681386571909	face	0.0		146	22.0	female	west_asian	3.8205332272184642	neutral	066	sub-13	1.0	5.0	066_neutral	0.0		63.58793441680791	1.2333134411610445
6.0	40.60026303548511	pulse	0.0	t		22.0	female	west_asian	3.8205332272184642	neutral	066	sub-13	1.0	5.0	066_neutral	0.0		64.17138358657394	
6.0	41.25012730688013	fix	1.0		443	22.0	female	west_asian	3.8205332272184642	neutral	066	sub-13	1.0	5.0	066_neutral	0.0		64.82124785796896	3.7665709487964705
6.0	41.30026131491741	pulse	1.0	t		22.0	female	west_asian	3.8205332272184642	neutral	066	sub-13	1.0	5.0	066_neutral	0.0		64.87138186600623	
6.0	42.000235144184444	pulse	1.0	t		22.0	female	west_asian	3.8205332272184642	neutral	066	sub-13	1.0	5.0	066_neutral	0.0		65.57135569527327	
6.0	42.70021531238399	pulse	1.0	t		22.0	female	west_asian	3.8205332272184642	neutral	066	sub-13	1.0	5.0	066_neutral	0.0		66.27133586347281	
6.0	43.40022083630993	pulse	1.0	t		22.0	female	west_asian	3.8205332272184642	neutral	066	sub-13	1.0	5.0	066_neutral	0.0		66.97134138739875	
6.0	44.10018923220741	pulse	1.0	t		22.0	female	west_asian	3.8205332272184642	neutral	066	sub-13	1.0	5.0	066_neutral	0.0		67.67130978329624	
6.0	44.80017573933765	pulse	1.0	t		22.0	female	west_asian	3.8205332272184642	neutral	066	sub-13	1.0	5.0	066_neutral	0.0		68.37129629042647	
7.0	45.0166982556766	face	0.0		145	24.0	male	white	3.1153999204138483	neutral	012	sub-13	1.0	5.0	012_neutral	0.0		68.58781880676543	1.2333176671163528
7.0	45.50015258714393	pulse	0.0	t		24.0	male	white	3.1153999204138483	neutral	012	sub-13	1.0	5.0	012_neutral	0.0		69.07127313823275	
7.0	46.20013426461264	pulse	0.0	t		24.0	male	white	3.1153999204138483	neutral	012	sub-13	1.0	5.0	012_neutral	0.0		69.77125481570147	
7.0	46.250015922792954	fix	1.0		445	24.0	male	white	3.1153999204138483	neutral	012	sub-13	1.0	5.0	012_neutral	0.0		69.82113647388178	3.7582301219399596
7.0	46.90011865876659	pulse	1.0	t		24.0	male	white	3.1153999204138483	neutral	012	sub-13	1.0	5.0	012_neutral	0.0		70.47123920985541	
7.0	47.60009671398802	pulse	1.0	t		24.0	male	white	3.1153999204138483	neutral	012	sub-13	1.0	5.0	012_neutral	0.0		71.17121726507685	
7.0	48.30008593780349	pulse	1.0	t		24.0	male	white	3.1153999204138483	neutral	012	sub-13	1.0	5.0	012_neutral	0.0		71.87120648889231	
7.0	49.000081802405475	pulse	1.0	t		24.0	male	white	3.1153999204138483	neutral	012	sub-13	1.0	5.0	012_neutral	0.0		72.5712023534943	
7.0	49.700067102120556	pulse	1.0	t		24.0	male	white	3.1153999204138483	neutral	012	sub-13	1.0	5.0	012_neutral	0.0		73.27118765320938	
8.0	50.008246044732914	face	0.0		146	25.0	female	black	3.858336649423	neutral	126	sub-13	1.0	5.0	126_neutral	0.0		73.57936659582174	1.2416600032411225
8.0	50.4000261405472	pulse	0.0	t		25.0	female	black	3.858336649423	neutral	126	sub-13	1.0	5.0	126_neutral	0.0		73.97114669163602	
8.0	51.10004464419126	pulse	0.0	t		25.0	female	black	3.858336649423	neutral	126	sub-13	1.0	5.0	126_neutral	0.0		74.67116519528008	
8.0	51.24990604797404	fix	1.0		445	25.0	female	black	3.858336649423	neutral	126	sub-13	1.0	5.0	126_neutral	0.0		74.82102659906286	3.7665721562125327
8.0	51.80001183267268	pulse	1.0	t		25.0	female	black	3.858336649423	neutral	126	sub-13	1.0	5.0	126_neutral	0.0		75.3711323837615	
8.0	52.499995623117684	pulse	1.0	t		25.0	female	black	3.858336649423	neutral	126	sub-13	1.0	5.0	126_neutral	0.0		76.07111617420651	
8.0	53.199981526540796	pulse	1.0	t		25.0	female	black	3.858336649423	neutral	126	sub-13	1.0	5.0	126_neutral	0.0		76.77110207762962	
8.0	53.89996109103231	pulse	1.0	t		25.0	female	black	3.858336649423	neutral	126	sub-13	1.0	5.0	126_neutral	0.0		77.47108164212113	
8.0	54.599938542546624	pulse	1.0	t		25.0	female	black	3.858336649423	neutral	126	sub-13	1.0	5.0	126_neutral	0.0		78.17105909363545	
9.0	55.01647820418657	face	0.0		145	31.0	female	west_asian	2.364902506963788	smiling	006	sub-13	1.0	5.0	006_smiling	0.0		78.5875987552754	1.2333049892522467
9.0	55.29993319973255	pulse	0.0	t		31.0	female	west_asian	2.364902506963788	smiling	006	sub-13	1.0	5.0	006_smiling	0.0		78.87105375082137	
9.0	55.99991216051603	pulse	0.0	t		31.0	female	west_asian	2.364902506963788	smiling	006	sub-13	1.0	5.0	006_smiling	0.0		79.57103271160486	
9.0	56.249783193438816	fix	1.0		445	31.0	female	west_asian	2.364902506963788	smiling	006	sub-13	1.0	5.0	006_smiling	0.0		79.82090374452764	3.7665781932901155
9.0	56.699891121299515	pulse	1.0	t		31.0	female	west_asian	2.364902506963788	smiling	006	sub-13	1.0	5.0	006_smiling	0.0		80.27101167238834	
9.0	57.399880043260964	pulse	1.0	t		31.0	female	west_asian	2.364902506963788	smiling	006	sub-13	1.0	5.0	006_smiling	0.0		80.97100059434979	
9.0	58.09985870219043	pulse	1.0	t		31.0	female	west_asian	2.364902506963788	smiling	006	sub-13	1.0	5.0	006_smiling	0.0		81.67097925327926	
9.0	58.79983917224399	pulse	1.0	t		31.0	female	west_asian	2.364902506963788	smiling	006	sub-13	1.0	5.0	006_smiling	0.0		82.37095972333282	
9.0	59.49983020718264	pulse	1.0	t		31.0	female	west_asian	2.364902506963788	smiling	006	sub-13	1.0	5.0	006_smiling	0.0		83.07095075827147	
10.0	60.01636138672893	face	0.0		145	21.0	male	black	2.969757262236371	smiling	137	sub-13	1.0	5.0	137_smiling	0.0		83.58748193781776	1.2333146485771067
10.0	60.19982033656106	pulse	0.0	t		21.0	male	black	2.969757262236371	smiling	137	sub-13	1.0	5.0	137_smiling	0.0		83.77094088764989	
10.0	60.8997878268965	pulse	0.0	t		21.0	male	black	2.969757262236371	smiling	137	sub-13	1.0	5.0	137_smiling	0.0		84.47090837798532	
10.0	61.24967603530604	fix	1.0		445	21.0	male	black	2.969757262236371	smiling	137	sub-13	1.0	5.0	137_smiling	0.0		84.82079658639486	3.7665504227306883
10.0	61.59977795627401	pulse	1.0	t		21.0	male	black	2.969757262236371	smiling	137	sub-13	1.0	5.0	137_smiling	0.0		85.17089850736284	
10.0	62.299764463404244	pulse	1.0	t		21.0	male	black	2.969757262236371	smiling	137	sub-13	1.0	5.0	137_smiling	0.0		85.87088501449307	
10.0	62.9997343685709	pulse	1.0	t		21.0	male	black	2.969757262236371	smiling	137	sub-13	1.0	5.0	137_smiling	0.0		86.57085491965972	
10.0	63.69971182008521	pulse	1.0	t		21.0	male	black	2.969757262236371	smiling	137	sub-13	1.0	5.0	137_smiling	0.0		87.27083237117404	
10.0	64.39971583474198	pulse	1.0	t		21.0	male	black	2.969757262236371	smiling	137	sub-13	1.0	5.0	137_smiling	0.0		87.97083638583081	
11.0	65.01622645803673	face	0.0		145	24.0	female	east_asian	2.9076800636689217	smiling	034	sub-13	1.0	5.0	034_smiling	0.0		88.58734700912555	1.2333348727888733
11.0	65.09969207884023	pulse	0.0	t		24.0	female	east_asian	2.9076800636689217	smiling	034	sub-13	1.0	5.0	034_smiling	0.0		88.67081262992906	
11.0	65.79967224703887	pulse	0.0	t		24.0	female	east_asian	2.9076800636689217	smiling	034	sub-13	1.0	5.0	034_smiling	0.0		89.3707927981277	
11.0	66.2495613308256	fix	1.0		444	24.0	female	east_asian	2.9076800636689217	smiling	034	sub-13	1.0	5.0	034_smiling	0.0		89.82068188191442	3.766551932000766
11.0	66.49966750793283	pulse	1.0	t		24.0	female	east_asian	2.9076800636689217	smiling	034	sub-13	1.0	5.0	034_smiling	0.0		90.07078805902165	
11.0	67.19964073349274	pulse	1.0	t		24.0	female	east_asian	2.9076800636689217	smiling	034	sub-13	1.0	5.0	034_smiling	0.0		90.77076128458157	
11.0	67.89963146657828	pulse	1.0	t		24.0	female	east_asian	2.9076800636689217	smiling	034	sub-13	1.0	5.0	034_smiling	0.0		91.47075201766711	
11.0	68.59961254033897	pulse	1.0	t		24.0	female	east_asian	2.9076800636689217	smiling	034	sub-13	1.0	5.0	034_smiling	0.0		92.17073309142779	
11.0	69.2996032734236	pulse	1.0	t		24.0	female	east_asian	2.9076800636689217	smiling	034	sub-13	1.0	5.0	034_smiling	0.0		92.87072382451242	
12.0	70.01611326282637	face	0.0		146	40.0	female	west_asian	1.5777954635893354	neutral	038	sub-13	1.0	5.0	038_neutral	0.0		93.58723381391519	1.2333194782386272
12.0	70.00247278711595	pulse	0.0	t		40.0	female	west_asian	1.5777954635893354	neutral	038	sub-13	1.0	5.0	038_neutral	0.0		93.57359333820477	
12.0	70.69956662836103	pulse	0.0	t		40.0	female	west_asian	1.5777954635893354	neutral	038	sub-13	1.0	5.0	038_neutral	0.0		94.27068717944985	
12.0	71.249432741065	fix	1.0		443	40.0	female	west_asian	1.5777954635893354	neutral	038	sub-13	1.0	5.0	038_neutral	0.0		94.82055329215382	3.7665772877280688
12.0	71.39955464476134	pulse	1.0	t		40.0	female	west_asian	1.5777954635893354	neutral	038	sub-13	1.0	5.0	038_neutral	0.0		94.97067519585016	
12.0	72.09953934076839	pulse	1.0	t		40.0	female	west_asian	1.5777954635893354	neutral	038	sub-13	1.0	5.0	038_neutral	0.0		95.67065989185721	
12.0	72.79953037570795	pulse	1.0	t		40.0	female	west_asian	1.5777954635893354	neutral	038	sub-13	1.0	5.0	038_neutral	0.0		96.37065092679677	
12.0	73.4995066198062	pulse	1.0	t		40.0	female	west_asian	1.5777954635893354	neutral	038	sub-13	1.0	5.0	038_neutral	0.0		97.07062717089502	
12.0	74.1994858824437	pulse	1.0	t		40.0	female	west_asian	1.5777954635893354	neutral	038	sub-13	1.0	5.0	038_neutral	0.0		97.77060643353252	
12.0	74.89947148401279	pulse	1.0	t		40.0	female	west_asian	1.5777954635893354	neutral	038	sub-13	1.0	5.0	038_neutral	0.0		98.47059203510162	
13.0	75.01601002879306	face	0.0		146	36.0	female	white	2.7548746518105847	smiling	011	sub-13	1.0	5.0	011_smiling	0.0		98.58713057988189	1.233330344980459
13.0	75.59944561513385	pulse	0.0	t		36.0	female	white	2.7548746518105847	smiling	011	sub-13	1.0	5.0	011_smiling	0.0		99.17056616622267	
13.0	76.24934037377352	fix	1.0		443	36.0	female	white	2.7548746518105847	smiling	011	sub-13	1.0	5.0	011_smiling	0.0		99.82046092486235	3.76654891346152
13.0	76.29943423524219	pulse	1.0	t		36.0	female	white	2.7548746518105847	smiling	011	sub-13	1.0	5.0	011_smiling	0.0		99.87055478633101	
13.0	76.99941681827204	pulse	1.0	t		36.0	female	white	2.7548746518105847	smiling	011	sub-13	1.0	5.0	011_smiling	0.0		100.57053736936086	
13.0	77.69939034568597	pulse	1.0	t		36.0	female	white	2.7548746518105847	smiling	011	sub-13	1.0	5.0	011_smiling	0.0		101.2705108967748	
13.0	78.39935783602141	pulse	1.0	t		36.0	female	white	2.7548746518105847	smiling	011	sub-13	1.0	5.0	011_smiling	0.0		101.97047838711023	
13.0	79.09936275623932	pulse	1.0	t		36.0	female	white	2.7548746518105847	smiling	011	sub-13	1.0	5.0	011_smiling	0.0		102.67048330732814	
13.0	79.7993565078641	pulse	1.0	t		36.0	female	white	2.7548746518105847	smiling	011	sub-13	1.0	5.0	011_smiling	0.0		103.37047705895293	
14.0	80.01588928723504	face	0.0		145	25.0	female	west_asian	2.6756864305610826	neutral	064	sub-13	1.0	5.0	064_neutral	0.0		103.58700983832387	1.2333107244767234
14.0	80.49933335567039	pulse	0.0	t		25.0	female	west_asian	2.6756864305610826	neutral	064	sub-13	1.0	5.0	064_neutral	0.0		104.07045390675921	
14.0	81.19930356269106	pulse	0.0	t		25.0	female	west_asian	2.6756864305610826	neutral	064	sub-13	1.0	5.0	064_neutral	0.0		104.77042411377988	
14.0	81.24920001171176	fix	1.0		446	25.0	female	west_asian	2.6756864305610826	neutral	064	sub-13	1.0	5.0	064_neutral	0.0		104.82032056280059	3.774883099532417
14.0	81.89931844408784	pulse	1.0	t		25.0	female	west_asian	2.6756864305610826	neutral	064	sub-13	1.0	5.0	064_neutral	0.0		105.47043899517666	
14.0	82.59927567139039	pulse	1.0	t		25.0	female	west_asian	2.6756864305610826	neutral	064	sub-13	1.0	5.0	064_neutral	0.0		106.17039622247921	
14.0	83.29927244155351	pulse	1.0	t		25.0	female	west_asian	2.6756864305610826	neutral	064	sub-13	1.0	5.0	064_neutral	0.0		106.87039299264234	
14.0	83.9992619672239	pulse	1.0	t		25.0	female	west_asian	2.6756864305610826	neutral	064	sub-13	1.0	5.0	064_neutral	0.0		107.57038251831273	
14.0	84.69923338165972	pulse	1.0	t		25.0	female	west_asian	2.6756864305610826	neutral	064	sub-13	1.0	5.0	064_neutral	0.0		108.27035393274855	
15.0	85.02408311124418	face	0.0		145	34.0	male	white	2.651014723438122	neutral	121	sub-13	1.0	5.0	121_neutral	0.0		108.595203662333	1.2333345709339483
15.0	85.39921898322882	pulse	0.0	t		34.0	male	white	2.651014723438122	neutral	121	sub-13	1.0	5.0	121_neutral	0.0		108.97033953431765	
15.0	86.09920277367473	pulse	0.0	t		34.0	male	white	2.651014723438122	neutral	121	sub-13	1.0	5.0	121_neutral	0.0		109.67032332476356	
15.0	86.25741768217813	fix	1.0		444	34.0	male	white	2.651014723438122	neutral	121	sub-13	1.0	5.0	121_neutral	0.0		109.82853823326695	3.7665531394168283
15.0	86.79918113075018	pulse	1.0	t		34.0	male	white	2.651014723438122	neutral	121	sub-13	1.0	5.0	121_neutral	0.0		110.37030168183901	
15.0	87.49917578793611	pulse	1.0	t		34.0	male	white	2.651014723438122	neutral	121	sub-13	1.0	5.0	121_neutral	0.0		111.07029633902494	
15.0	88.19913724119397	pulse	1.0	t		34.0	male	white	2.651014723438122	neutral	121	sub-13	1.0	5.0	121_neutral	0.0		111.77025779228279	
15.0	88.89913250208792	pulse	1.0	t		34.0	male	white	2.651014723438122	neutral	121	sub-13	1.0	5.0	121_neutral	0.0		112.47025305317675	
15.0	89.59911719809497	pulse	1.0	t		34.0	male	white	2.651014723438122	neutral	121	sub-13	1.0	5.0	121_neutral	0.0		113.1702377491838	
16.0	90.02397082159496	face	0.0		145	22.0	female	west_asian	3.8205332272184642	smiling	066	sub-13	1.0	5.0	066_smiling	0.0		113.59509137268378	1.2333339672259171
16.0	90.29912634426819	pulse	0.0	t		22.0	female	west_asian	3.8205332272184642	smiling	066	sub-13	1.0	5.0	066_smiling	0.0		113.87024689535701	
16.0	90.9990911179184	pulse	0.0	t		22.0	female	west_asian	3.8205332272184642	smiling	066	sub-13	1.0	5.0	066_smiling	0.0		114.57021166900722	
16.0	91.25730478882087	fix	1.0		444	22.0	female	west_asian	3.8205332272184642	smiling	066	sub-13	1.0	5.0	066_smiling	0.0		114.8284253399097	3.76656823211124
16.0	91.69907732319552	pulse	1.0	t		22.0	female	west_asian	3.8205332272184642	smiling	066	sub-13	1.0	5.0	066_smiling	0.0		115.27019787428435	
16.0	92.39903123010572	pulse	1.0	t		22.0	female	west_asian	3.8205332272184642	smiling	066	sub-13	1.0	5.0	066_smiling	0.0		115.97015178119455	
16.0	93.09902618914566	pulse	1.0	t		22.0	female	west_asian	3.8205332272184642	smiling	066	sub-13	1.0	5.0	066_smiling	0.0		116.67014674023449	
16.0	93.79901390369196	pulse	1.0	t		22.0	female	west_asian	3.8205332272184642	smiling	066	sub-13	1.0	5.0	066_smiling	0.0		117.37013445478078	
16.0	94.49900554233864	pulse	1.0	t		22.0	female	west_asian	3.8205332272184642	smiling	066	sub-13	1.0	5.0	066_smiling	0.0		118.07012609342746	
17.0	95.02387302093211	face	0.0		145	28.0	male	east_asian	1.5563072025467568	neutral	005	sub-13	1.0	5.0	005_neutral	0.0		118.59499357202094	1.2333131393079384
17.0	95.19899416244698	pulse	0.0	t		28.0	male	east_asian	1.5563072025467568	neutral	005	sub-13	1.0	5.0	005_neutral	0.0		118.7701147135358	
17.0	95.89897734918486	pulse	0.0	t		28.0	male	east_asian	1.5563072025467568	neutral	005	sub-13	1.0	5.0	005_neutral	0.0		119.47009790027369	
17.0	96.25718616024005	fix	1.0		443	28.0	male	east_asian	1.5563072025467568	neutral	005	sub-13	1.0	5.0	005_neutral	0.0		119.82830671132888	3.7665655154260094
17.0	96.59894936732871	pulse	1.0	t		28.0	male	east_asian	1.5563072025467568	neutral	005	sub-13	1.0	5.0	005_neutral	0.0		120.17006991841754	
17.0	96.85726808338768	response	1.0	y		28.0	male	east_asian	1.5563072025467568	neutral	005	sub-13	1.0	5.0	005_neutral	0.0		120.4283886344765	
17.0	97.29893738372903	pulse	1.0	t		28.0	male	east_asian	1.5563072025467568	neutral	005	sub-13	1.0	5.0	005_neutral	0.0		120.87005793481785	
17.0	97.99891091114296	pulse	1.0	t		28.0	male	east_asian	1.5563072025467568	neutral	005	sub-13	1.0	5.0	005_neutral	0.0		121.57003146223178	
17.0	98.69889892754327	pulse	1.0	t		28.0	male	east_asian	1.5563072025467568	neutral	005	sub-13	1.0	5.0	005_neutral	0.0		122.2700194786321	
17.0	99.39889298102116	pulse	1.0	t		28.0	male	east_asian	1.5563072025467568	neutral	005	sub-13	1.0	5.0	005_neutral	0.0		122.97001353210999	
18.0	100.02375167566606	face	0.0		145	40.0	female	west_asian	1.5777954635893354	smiling	038	sub-13	1.0	5.0	038_smiling	0.0		123.59487222675489	1.2333049892522467
18.0	100.09887586590503	pulse	0.0	t		40.0	female	west_asian	1.5777954635893354	smiling	038	sub-13	1.0	5.0	038_smiling	0.0		123.66999641699385	
18.0	100.79885512854253	pulse	0.0	t		40.0	female	west_asian	1.5777954635893354	smiling	038	sub-13	1.0	5.0	038_smiling	0.0		124.36997567963135	
18.0	101.25705666491831	fix	1.0		444	40.0	female	west_asian	1.5777954635893354	smiling	038	sub-13	1.0	5.0	038_smiling	0.0		124.82817721600713	3.7665797025592838
18.0	101.49883408932601	pulse	1.0	t		40.0	female	west_asian	1.5777954635893354	smiling	038	sub-13	1.0	5.0	038_smiling	0.0		125.06995464041484	
18.0	102.19881576679472	pulse	1.0	t		40.0	female	west_asian	1.5777954635893354	smiling	038	sub-13	1.0	5.0	038_smiling	0.0		125.76993631788355	
18.0	102.89880468875617	pulse	1.0	t		40.0	female	west_asian	1.5777954635893354	smiling	038	sub-13	1.0	5.0	038_smiling	0.0		126.469925239845	
18.0	103.59878757364095	pulse	1.0	t		40.0	female	west_asian	1.5777954635893354	smiling	038	sub-13	1.0	5.0	038_smiling	0.0		127.16990812472977	
18.0	104.29876894925565	pulse	1.0	t		40.0	female	west_asian	1.5777954635893354	smiling	038	sub-13	1.0	5.0	038_smiling	0.0		127.86988950034447	
18.0	104.99876239902551	pulse	1.0	t		40.0	female	west_asian	1.5777954635893354	smiling	038	sub-13	1.0	5.0	038_smiling	0.0		128.56988295011433	
19.0	105.0236363674776	face	0.0		146	25.0	female	west_asian	2.6756864305610826	smiling	064	sub-13	1.0	5.0	064_smiling	0.0		128.59475691856642	1.2333019707139101
19.0	105.69875947104265	pulse	0.0	t		25.0	female	west_asian	2.6756864305610826	smiling	064	sub-13	1.0	5.0	064_smiling	0.0		129.26988002213147	
19.0	106.2569383381915	fix	1.0		443	25.0	female	west_asian	2.6756864305610826	smiling	064	sub-13	1.0	5.0	064_smiling	0.0		129.82805888928033	3.7665751747508693
19.0	106.39872032059247	pulse	1.0	t		25.0	female	west_asian	2.6756864305610826	smiling	064	sub-13	1.0	5.0	064_smiling	0.0		129.9698408716813	
19.0	107.0987086388468	pulse	1.0	t		25.0	female	west_asian	2.6756864305610826	smiling	064	sub-13	1.0	5.0	064_smiling	0.0		130.66982918993563	
19.0	107.79868126069869	pulse	1.0	t		25.0	female	west_asian	2.6756864305610826	smiling	064	sub-13	1.0	5.0	064_smiling	0.0		131.3698018117875	
19.0	108.49866595670574	pulse	1.0	t		25.0	female	west_asian	2.6756864305610826	smiling	064	sub-13	1.0	5.0	064_smiling	0.0		132.06978650779456	
19.0	109.19864552119725	pulse	1.0	t		25.0	female	west_asian	2.6756864305610826	smiling	064	sub-13	1.0	5.0	064_smiling	0.0		132.76976607228607	
19.0	109.8986534599544	pulse	1.0	t		25.0	female	west_asian	2.6756864305610826	smiling	064	sub-13	1.0	5.0	064_smiling	0.0		133.46977401104323	
20.0	110.02351351294237	face	0.0		146	31.0	female	west_asian	2.364902506963788	neutral	006	sub-13	1.0	5.0	006_neutral	0.0		133.5946340640312	1.2333037818361845
20.0	110.59863121332273	pulse	0.0	t		31.0	female	west_asian	2.364902506963788	neutral	006	sub-13	1.0	5.0	006_neutral	0.0		134.16975176441156	
20.0	111.25681729477856	fix	1.0		1184	31.0	female	west_asian	2.364902506963788	neutral	006	sub-13	1.0	5.0	006_neutral	0.0		134.82793784586738	10.008098438178422
20.0	111.29860866483614	pulse	1.0	t		31.0	female	west_asian	2.364902506963788	neutral	006	sub-13	1.0	5.0	006_neutral	0.0		134.86972921592496	
20.0	111.99858672005848	pulse	1.0	t		31.0	female	west_asian	2.364902506963788	neutral	006	sub-13	1.0	5.0	006_neutral	0.0		135.5697072711473	
20.0	112.69857866055918	pulse	1.0	t		31.0	female	west_asian	2.364902506963788	neutral	006	sub-13	1.0	5.0	006_neutral	0.0		136.269699211648	
20.0	113.39854735830977	pulse	1.0	t		31.0	female	west_asian	2.364902506963788	neutral	006	sub-13	1.0	5.0	006_neutral	0.0		136.9696679093986	
20.0	114.09854020437251	pulse	1.0	t		31.0	female	west_asian	2.364902506963788	neutral	006	sub-13	1.0	5.0	006_neutral	0.0		137.66966075546134	
20.0	114.79854150234496	pulse	1.0	t		31.0	female	west_asian	2.364902506963788	neutral	006	sub-13	1.0	5.0	006_neutral	0.0		138.36966205343379	
20.0	115.49850476672509	pulse	1.0	t		31.0	female	west_asian	2.364902506963788	neutral	006	sub-13	1.0	5.0	006_neutral	0.0		139.06962531781392	
20.0	116.19848614233979	pulse	1.0	t		31.0	female	west_asian	2.364902506963788	neutral	006	sub-13	1.0	5.0	006_neutral	0.0		139.7696066934286	
20.0	116.89848019581859	pulse	1.0	t		31.0	female	west_asian	2.364902506963788	neutral	006	sub-13	1.0	5.0	006_neutral	0.0		140.46960074690742	
20.0	117.59846217514041	pulse	1.0	t		31.0	female	west_asian	2.364902506963788	neutral	006	sub-13	1.0	5.0	006_neutral	0.0		141.16958272622924	
20.0	118.29845079524875	pulse	1.0	t		31.0	female	west_asian	2.364902506963788	neutral	006	sub-13	1.0	5.0	006_neutral	0.0		141.86957134633758	
20.0	118.99841436148381	pulse	1.0	t		31.0	female	west_asian	2.364902506963788	neutral	006	sub-13	1.0	5.0	006_neutral	0.0		142.56953491257264	
20.0	119.69841505574732	pulse	1.0	t		31.0	female	west_asian	2.364902506963788	neutral	006	sub-13	1.0	5.0	006_neutral	0.0		143.26953560683614	
20.0	120.39839582765399	pulse	1.0	t		31.0	female	west_asian	2.364902506963788	neutral	006	sub-13	1.0	5.0	006_neutral	0.0		143.9695163787428	
20.0	121.09836875135989	pulse	1.0	t		31.0	female	west_asian	2.364902506963788	neutral	006	sub-13	1.0	5.0	006_neutral	0.0		144.6694893024487	
21.0	121.26491573295698	face	0.0		147	31.0	male	west_asian	1.9538400318344609	smiling	070	sub-13	1.0	5.0	070_smiling	1.0	dominance	144.8360362840458	1.24998724667239
21.0	121.79834107135775	pulse	0.0	t		31.0	male	west_asian	1.9538400318344609	smiling	070	sub-13	1.0	5.0	070_smiling	1.0	dominance	145.36946162244658	
21.0	122.49835202865415	pulse	0.0	t		31.0	male	west_asian	1.9538400318344609	smiling	070	sub-13	1.0	5.0	070_smiling	1.0	dominance	146.06947257974298	
21.0	122.51490297962937	fix	1.0		176	31.0	male	west_asian	1.9538400318344609	smiling	070	sub-13	1.0	5.0	070_smiling	1.0	dominance	146.0860235307182	1.4916194793568138
21.0	123.19832857460642	pulse	1.0	t		31.0	male	west_asian	1.9538400318344609	smiling	070	sub-13	1.0	5.0	070_smiling	1.0	dominance	146.76944912569525	
21.0	123.89831206319832	pulse	1.0	t		31.0	male	west_asian	1.9538400318344609	smiling	070	sub-13	1.0	5.0	070_smiling	1.0	dominance	147.46943261428714	
21.0	124.00652245898618	rating	2.0		295	31.0	male	west_asian	1.9538400318344609	smiling	070	sub-13	1.0	5.0	070_smiling	1.0	dominance	147.577643010075	2.4999331393619286
21.0	124.59829645735135	pulse	2.0	t		31.0	male	west_asian	1.9538400318344609	smiling	070	sub-13	1.0	5.0	070_smiling	1.0	dominance	148.16941700844018	
21.0	125.29827571998885	pulse	2.0	t		31.0	male	west_asian	1.9538400318344609	smiling	070	sub-13	1.0	5.0	070_smiling	1.0	dominance	148.86939627107768	
21.0	125.52647726542091	response	2.0	w		31.0	male	west_asian	1.9538400318344609	smiling	070	sub-13	1.0	5.0	070_smiling	1.0	dominance	149.09759781650973	
21.0	125.99825830301961	pulse	2.0	t		31.0	male	west_asian	1.9538400318344609	smiling	070	sub-13	1.0	5.0	070_smiling	1.0	dominance	149.56937885410844	
21.0	126.50645559834811	fix	3.0		443	31.0	male	west_asian	1.9538400318344609	smiling	070	sub-13	1.0	5.0	070_smiling	1.0	dominance	150.07757614943694	3.766568835819271
21.0	126.69822820818626	pulse	3.0	t		31.0	male	west_asian	1.9538400318344609	smiling	070	sub-13	1.0	5.0	070_smiling	1.0	dominance	150.2693487592751	
21.0	127.39821139492415	pulse	3.0	t		31.0	male	west_asian	1.9538400318344609	smiling	070	sub-13	1.0	5.0	070_smiling	1.0	dominance	150.96933194601297	
21.0	128.09820756137924	pulse	3.0	t		31.0	male	west_asian	1.9538400318344609	smiling	070	sub-13	1.0	5.0	070_smiling	1.0	dominance	151.66932811246807	
21.0	128.79820342598123	pulse	3.0	t		31.0	male	west_asian	1.9538400318344609	smiling	070	sub-13	1.0	5.0	070_smiling	1.0	dominance	152.36932397707005	
21.0	129.49817484041705	pulse	3.0	t		31.0	male	west_asian	1.9538400318344609	smiling	070	sub-13	1.0	5.0	070_smiling	1.0	dominance	153.06929539150588	
21.0	130.19818941995982	pulse	3.0	t		31.0	male	west_asian	1.9538400318344609	smiling	070	sub-13	1.0	5.0	070_smiling	1.0	dominance	153.76930997104864	
22.0	130.27302443416738	face	0.0		146	40.0	male	black	2.408674890569041	smiling	061	sub-13	1.0	5.0	061_smiling	0.0		153.8441449852562	1.2333194782386272
22.0	130.8981511750717	pulse	0.0	t		40.0	male	black	2.408674890569041	smiling	061	sub-13	1.0	5.0	061_smiling	0.0		154.4692717261605	
22.0	131.506343912406	fix	1.0		443	40.0	male	black	2.408674890569041	smiling	061	sub-13	1.0	5.0	061_smiling	0.0		155.07746446349483	3.7665685339652555
22.0	131.59813436180957	pulse	1.0	t		40.0	male	black	2.408674890569041	smiling	061	sub-13	1.0	5.0	061_smiling	0.0		155.1692549128984	
22.0	132.29812207635587	pulse	1.0	t		40.0	male	black	2.408674890569041	smiling	061	sub-13	1.0	5.0	061_smiling	0.0		155.8692426274447	
22.0	132.99809741489298	pulse	1.0	t		40.0	male	black	2.408674890569041	smiling	061	sub-13	1.0	5.0	061_smiling	0.0		156.5692179659818	
22.0	133.69808090348488	pulse	1.0	t		40.0	male	black	2.408674890569041	smiling	061	sub-13	1.0	5.0	061_smiling	0.0		157.2692014545737	
22.0	134.39806861803117	pulse	1.0	t		40.0	male	black	2.408674890569041	smiling	061	sub-13	1.0	5.0	061_smiling	0.0		157.96918916912	
22.0	135.0980358065126	pulse	1.0	t		40.0	male	black	2.408674890569041	smiling	061	sub-13	1.0	5.0	061_smiling	0.0		158.66915635760142	
23.0	135.27291244637127	face	0.0		146	20.0	male	black	2.609629924393156	neutral	043	sub-13	1.0	5.0	043_neutral	0.0		158.8440329974601	1.241650343917172
23.0	135.79803589706898	pulse	0.0	t		20.0	male	black	2.609629924393156	neutral	043	sub-13	1.0	5.0	043_neutral	0.0		159.3691564481578	
23.0	136.4980112356052	pulse	0.0	t		20.0	male	black	2.609629924393156	neutral	043	sub-13	1.0	5.0	043_neutral	0.0		160.06913178669402	
23.0	136.51456279028844	fix	1.0		444	20.0	male	black	2.609629924393156	neutral	043	sub-13	1.0	5.0	043_neutral	0.0		160.08568334137726	3.7499013692395238
23.0	137.19800498722998	pulse	1.0	t		20.0	male	black	2.609629924393156	neutral	043	sub-13	1.0	5.0	043_neutral	0.0		160.7691255383188	
23.0	137.897967647903	pulse	1.0	t		20.0	male	black	2.609629924393156	neutral	043	sub-13	1.0	5.0	043_neutral	0.0		161.4690881989918	
23.0	138.5979683421665	pulse	1.0	t		20.0	male	black	2.609629924393156	neutral	043	sub-13	1.0	5.0	043_neutral	0.0		162.16908889325532	
23.0	139.2979457936808	pulse	1.0	t		20.0	male	black	2.609629924393156	neutral	043	sub-13	1.0	5.0	043_neutral	0.0		162.86906634476964	
23.0	139.9979335082271	pulse	1.0	t		20.0	male	black	2.609629924393156	neutral	043	sub-13	1.0	5.0	043_neutral	0.0		163.56905405931593	
24.0	140.26446415952796	face	0.0		146	47.0	male	east_asian	2.171110226820533	smiling	024	sub-13	1.0	5.0	024_smiling	0.0		163.83558471061679	1.2416578902648325
24.0	140.69791186530256	pulse	0.0	t		47.0	male	east_asian	2.171110226820533	smiling	024	sub-13	1.0	5.0	024_smiling	0.0		164.26903241639138	
24.0	141.39790229653408	pulse	0.0	t		47.0	male	east_asian	2.171110226820533	smiling	024	sub-13	1.0	5.0	024_smiling	0.0		164.9690228476229	
24.0	141.5061220497928	fix	1.0		444	47.0	male	east_asian	2.171110226820533	smiling	024	sub-13	1.0	5.0	024_smiling	0.0		165.07724260088162	3.766567628403209
24.0	142.09787884248635	pulse	1.0	t		47.0	male	east_asian	2.171110226820533	smiling	024	sub-13	1.0	5.0	024_smiling	0.0		165.66899939357518	
24.0	142.79787349967228	pulse	1.0	t		47.0	male	east_asian	2.171110226820533	smiling	024	sub-13	1.0	5.0	024_smiling	0.0		166.3689940507611	
24.0	143.497855478995	pulse	1.0	t		47.0	male	east_asian	2.171110226820533	smiling	024	sub-13	1.0	5.0	024_smiling	0.0		167.06897603008383	
24.0	144.19783111938523	pulse	1.0	t		47.0	male	east_asian	2.171110226820533	smiling	024	sub-13	1.0	5.0	024_smiling	0.0		167.76895167047405	
24.0	144.8978200413476	pulse	1.0	t		47.0	male	east_asian	2.171110226820533	smiling	024	sub-13	1.0	5.0	024_smiling	0.0		168.4689405924364	
25.0	145.272689678196	face	0.0		145	40.0	male	white	1.868682849184242	smiling	172	sub-13	1.0	5.0	172_smiling	1.0	dominance	168.84381022928483	1.2333004614438323
25.0	145.59780685033274	pulse	0.0	t		40.0	male	white	1.868682849184242	smiling	172	sub-13	1.0	5.0	172_smiling	1.0	dominance	169.16892740142157	
25.0	146.29778399999213	pulse	0.0	t		40.0	male	white	1.868682849184242	smiling	172	sub-13	1.0	5.0	172_smiling	1.0	dominance	169.86890455108096	
25.0	146.50599013963983	fix	1.0		177	40.0	male	white	1.868682849184242	smiling	172	sub-13	1.0	5.0	172_smiling	1.0	dominance	170.07711069072866	1.4999805304241818
25.0	146.9977665830229	pulse	1.0	t		40.0	male	white	1.868682849184242	smiling	172	sub-13	1.0	5.0	172_smiling	1.0	dominance	170.56888713411172	
25.0	147.69774463824433	pulse	1.0	t		40.0	male	white	1.868682849184242	smiling	172	sub-13	1.0	5.0	172_smiling	1.0	dominance	171.26886518933316	
25.0	148.00597067006402	rating	2.0		295	40.0	male	white	1.868682849184242	smiling	172	sub-13	1.0	5.0	172_smiling	1.0	dominance	171.57709122115284	2.508259779085165
25.0	148.3977486529011	pulse	2.0	t		40.0	male	white	1.868682849184242	smiling	172	sub-13	1.0	5.0	172_smiling	1.0	dominance	171.96886920398993	
25.0	149.0176853179164	response	2.0	n		40.0	male	white	1.868682849184242	smiling	172	sub-13	1.0	5.0	172_smiling	1.0	dominance	172.58880586900523	
25.0	149.0977028616653	pulse	2.0	t		40.0	male	white	1.868682849184242	smiling	172	sub-13	1.0	5.0	172_smiling	1.0	dominance	172.66882341275414	
25.0	149.79770204665965	pulse	2.0	t		40.0	male	white	1.868682849184242	smiling	172	sub-13	1.0	5.0	172_smiling	1.0	dominance	173.36882259774848	
25.0	150.4976758759267	pulse	2.0	t		40.0	male	white	1.868682849184242	smiling	172	sub-13	1.0	5.0	172_smiling	1.0	dominance	174.0687964270155	
25.0	150.51423044914918	fix	3.0		443	40.0	male	white	1.868682849184242	smiling	172	sub-13	1.0	5.0	172_smiling	1.0	dominance	174.085351000238	3.7582271034007135
25.0	151.19766027008063	pulse	3.0	t		40.0	male	white	1.868682849184242	smiling	172	sub-13	1.0	5.0	172_smiling	1.0	dominance	174.76878082116946	
25.0	151.897659756929	pulse	3.0	t		40.0	male	white	1.868682849184242	smiling	172	sub-13	1.0	5.0	172_smiling	1.0	dominance	175.4687803080178	
25.0	152.5976375102964	pulse	3.0	t		40.0	male	white	1.868682849184242	smiling	172	sub-13	1.0	5.0	172_smiling	1.0	dominance	176.16875806138523	
25.0	153.297650278716	pulse	3.0	t		40.0	male	white	1.868682849184242	smiling	172	sub-13	1.0	5.0	172_smiling	1.0	dominance	176.86877082980482	
25.0	153.99759211147102	pulse	3.0	t		40.0	male	white	1.868682849184242	smiling	172	sub-13	1.0	5.0	172_smiling	1.0	dominance	177.56871266255985	
26.0	154.2724575525499	face	0.0		145	24.0	female	east_asian	4.409868682849185	neutral	030	sub-13	1.0	5.0	030_neutral	0.0		177.84357810363872	1.2333197800935523
26.0	154.69759099461135	pulse	0.0	t		24.0	female	east_asian	4.409868682849185	neutral	030	sub-13	1.0	5.0	030_neutral	0.0		178.26871154570017	
26.0	155.39755818309277	pulse	0.0	t		24.0	female	east_asian	4.409868682849185	neutral	030	sub-13	1.0	5.0	030_neutral	0.0		178.9686787341816	
26.0	155.50577733264345	fix	1.0		444	24.0	female	east_asian	4.409868682849185	neutral	030	sub-13	1.0	5.0	030_neutral	0.0		179.07689788373227	3.766581815536483
26.0	156.09756008477234	pulse	1.0	t		24.0	female	east_asian	4.409868682849185	neutral	030	sub-13	1.0	5.0	030_neutral	0.0		179.66868063586116	
26.0	156.79754206409507	pulse	1.0	t		24.0	female	east_asian	4.409868682849185	neutral	030	sub-13	1.0	5.0	030_neutral	0.0		180.3686626151839	
26.0	157.49752283600174	pulse	1.0	t		24.0	female	east_asian	4.409868682849185	neutral	030	sub-13	1.0	5.0	030_neutral	0.0		181.06864338709056	
26.0	158.1974927411684	pulse	1.0	t		24.0	female	east_asian	4.409868682849185	neutral	030	sub-13	1.0	5.0	030_neutral	0.0		181.7686132922572	
26.0	158.8974934354319	pulse	1.0	t		24.0	female	east_asian	4.409868682849185	neutral	030	sub-13	1.0	5.0	030_neutral	0.0		182.46861398652072	
27.0	159.27235914817993	face	0.0		145	27.0	female	white	4.181058495821727	smiling	039	sub-13	1.0	5.0	039_smiling	1.0	trustworthiness	182.84347969926876	1.23331857267749
27.0	159.597468472115	pulse	0.0	t		27.0	female	white	4.181058495821727	smiling	039	sub-13	1.0	5.0	039_smiling	1.0	trustworthiness	183.16858902320382	
27.0	160.2974649404241	pulse	0.0	t		27.0	female	white	4.181058495821727	smiling	039	sub-13	1.0	5.0	039_smiling	1.0	trustworthiness	183.86858549151293	
27.0	160.50567772085742	fix	1.0		177	27.0	female	white	4.181058495821727	smiling	039	sub-13	1.0	5.0	039_smiling	1.0	trustworthiness	184.07679827194625	1.499964834021739
27.0	160.99742156401953	pulse	1.0	t		27.0	female	white	4.181058495821727	smiling	039	sub-13	1.0	5.0	039_smiling	1.0	trustworthiness	184.56854211510836	
27.0	161.69742376755312	pulse	1.0	t		27.0	female	white	4.181058495821727	smiling	039	sub-13	1.0	5.0	039_smiling	1.0	trustworthiness	185.26854431864194	
27.0	162.00564255487916	rating	2.0		295	27.0	female	white	4.181058495821727	smiling	039	sub-13	1.0	5.0	039_smiling	1.0	trustworthiness	185.57676310596798	2.508258571669103
27.0	162.3974132932226	pulse	2.0	t		27.0	female	white	4.181058495821727	smiling	039	sub-13	1.0	5.0	039_smiling	1.0	trustworthiness	185.96853384431142	
27.0	162.87239458582735	response	2.0	r		27.0	female	white	4.181058495821727	smiling	039	sub-13	1.0	5.0	039_smiling	1.0	trustworthiness	186.44351513691618	
27.0	163.0973904428829	pulse	2.0	t		27.0	female	white	4.181058495821727	smiling	039	sub-13	1.0	5.0	039_smiling	1.0	trustworthiness	186.66851099397172	
27.0	163.7973506887247	pulse	2.0	t		27.0	female	white	4.181058495821727	smiling	039	sub-13	1.0	5.0	039_smiling	1.0	trustworthiness	187.36847123981352	
27.0	164.49739183141082	pulse	2.0	t		27.0	female	white	4.181058495821727	smiling	039	sub-13	1.0	5.0	039_smiling	1.0	trustworthiness	188.06851238249965	
27.0	164.51390112654826	fix	3.0		443	27.0	female	white	4.181058495821727	smiling	039	sub-13	1.0	5.0	039_smiling	1.0	trustworthiness	188.0850216776371	3.7582252922775297
27.0	165.1973475494442	pulse	3.0	t		27.0	female	white	4.181058495821727	smiling	039	sub-13	1.0	5.0	039_smiling	1.0	trustworthiness	188.76846810053303	
27.0	165.89732741578882	pulse	3.0	t		27.0	female	white	4.181058495821727	smiling	039	sub-13	1.0	5.0	039_smiling	1.0	trustworthiness	189.46844796687765	
27.0	166.59730999881958	pulse	3.0	t		27.0	female	white	4.181058495821727	smiling	039	sub-13	1.0	5.0	039_smiling	1.0	trustworthiness	190.1684305499084	
27.0	167.2972916762883	pulse	3.0	t		27.0	female	white	4.181058495821727	smiling	039	sub-13	1.0	5.0	039_smiling	1.0	trustworthiness	190.86841222737712	
27.0	167.99727486302618	pulse	3.0	t		27.0	female	white	4.181058495821727	smiling	039	sub-13	1.0	5.0	039_smiling	1.0	trustworthiness	191.568395414115	
28.0	168.2721264188258	face	0.0		145	19.0	female	white	4.298846000795861	neutral	100	sub-13	1.0	5.0	100_neutral	0.0		191.84324696991462	1.2333390987432722
28.0	168.6972610683024	pulse	0.0	t		19.0	female	white	4.298846000795861	neutral	100	sub-13	1.0	5.0	100_neutral	0.0		192.26838161939122	
28.0	169.3972442550412	pulse	0.0	t		19.0	female	white	4.298846000795861	neutral	100	sub-13	1.0	5.0	100_neutral	0.0		192.96836480613	
28.0	169.50546551756906	fix	1.0		444	19.0	female	white	4.298846000795861	neutral	100	sub-13	1.0	5.0	100_neutral	0.0		193.0765860686579	3.7665721562116232
28.0	170.09721868801626	pulse	1.0	t		19.0	female	white	4.298846000795861	neutral	100	sub-13	1.0	5.0	100_neutral	0.0		193.66833923910508	
28.0	170.79721485447135	pulse	1.0	t		19.0	female	white	4.298846000795861	neutral	100	sub-13	1.0	5.0	100_neutral	0.0		194.36833540556017	
28.0	171.49718385407596	pulse	1.0	t		19.0	female	white	4.298846000795861	neutral	100	sub-13	1.0	5.0	100_neutral	0.0		195.06830440516478	
28.0	172.19717307789233	pulse	1.0	t		19.0	female	white	4.298846000795861	neutral	100	sub-13	1.0	5.0	100_neutral	0.0		195.76829362898116	
28.0	172.89723685962053	pulse	1.0	t		19.0	female	white	4.298846000795861	neutral	100	sub-13	1.0	5.0	100_neutral	0.0		196.46835741070936	
29.0	173.2720376737807	face	0.0		145	24.0	female	black	3.0955033824114606	neutral	099	sub-13	1.0	5.0	099_neutral	1.0	attractiveness	196.8431582248695	1.233291707681019
29.0	173.5971397532221	pulse	0.0	t		24.0	female	black	3.0955033824114606	neutral	099	sub-13	1.0	5.0	099_neutral	1.0	attractiveness	197.16826030431093	
29.0	174.29713048630765	pulse	0.0	t		24.0	female	black	3.0955033824114606	neutral	099	sub-13	1.0	5.0	099_neutral	1.0	attractiveness	197.86825103739648	
29.0	174.5053293814617	fix	1.0		177	24.0	female	black	3.0955033824114606	neutral	099	sub-13	1.0	5.0	099_neutral	1.0	attractiveness	198.07644993255053	1.4999684562681068
29.0	174.99711367304553	pulse	1.0	t		24.0	female	black	3.0955033824114606	neutral	099	sub-13	1.0	5.0	099_neutral	1.0	attractiveness	198.56823422413436	
29.0	175.69710048202978	pulse	1.0	t		24.0	female	black	3.0955033824114606	neutral	099	sub-13	1.0	5.0	099_neutral	1.0	attractiveness	199.2682210331186	
29.0	176.0052978377298	rating	2.0		295	24.0	female	black	3.0955033824114606	neutral	099	sub-13	1.0	5.0	099_neutral	1.0	attractiveness	199.57641838881864	2.508290870036035
29.0	176.39708547989176	pulse	2.0	t		24.0	female	black	3.0955033824114606	neutral	099	sub-13	1.0	5.0	099_neutral	1.0	attractiveness	199.96820603098058	
29.0	177.09706957219078	pulse	2.0	t		24.0	female	black	3.0955033824114606	neutral	099	sub-13	1.0	5.0	099_neutral	1.0	attractiveness	200.6681901232796	
29.0	177.31370709486418	response	2.0	b		24.0	female	black	3.0955033824114606	neutral	099	sub-13	1.0	5.0	099_neutral	1.0	attractiveness	200.884827645953	
29.0	177.79702921432545	pulse	2.0	t		24.0	female	black	3.0955033824114606	neutral	099	sub-13	1.0	5.0	099_neutral	1.0	attractiveness	201.36814976541427	
29.0	178.4970178344338	pulse	2.0	t		24.0	female	black	3.0955033824114606	neutral	099	sub-13	1.0	5.0	099_neutral	1.0	attractiveness	202.06813838552262	
29.0	178.51358870776585	fix	3.0		443	24.0	female	black	3.0955033824114606	neutral	099	sub-13	1.0	5.0	099_neutral	1.0	attractiveness	202.08470925885467	3.7582307256479908
29.0	179.19700434156402	pulse	3.0	t		24.0	female	black	3.0955033824114606	neutral	099	sub-13	1.0	5.0	099_neutral	1.0	attractiveness	202.76812489265285	
29.0	179.89698994313312	pulse	3.0	t		24.0	female	black	3.0955033824114606	neutral	099	sub-13	1.0	5.0	099_neutral	1.0	attractiveness	203.46811049422195	
29.0	180.59698248734185	pulse	3.0	t		24.0	female	black	3.0955033824114606	neutral	099	sub-13	1.0	5.0	099_neutral	1.0	attractiveness	204.16810303843067	
29.0	181.29696144812533	pulse	3.0	t		24.0	female	black	3.0955033824114606	neutral	099	sub-13	1.0	5.0	099_neutral	1.0	attractiveness	204.86808199921416	
29.0	181.99694282374003	pulse	3.0	t		24.0	female	black	3.0955033824114606	neutral	099	sub-13	1.0	5.0	099_neutral	1.0	attractiveness	205.56806337482885	
30.0	182.27181943341384	face	0.0		145	22.0	male	black	2.767608436132113	smiling	044	sub-13	1.0	5.0	044_smiling	0.0		205.84293998450266	1.2332811427950219
30.0	182.69692721789397	pulse	0.0	t		22.0	male	black	2.767608436132113	smiling	044	sub-13	1.0	5.0	044_smiling	0.0		206.2680477689828	
30.0	183.39690165086904	pulse	0.0	t		22.0	male	black	2.767608436132113	smiling	044	sub-13	1.0	5.0	044_smiling	0.0		206.96802220195787	
30.0	183.50510057620886	fix	1.0		444	22.0	male	black	2.767608436132113	smiling	044	sub-13	1.0	5.0	044_smiling	0.0		207.07622112729769	3.7665803062664054
30.0	184.09690204327853	pulse	1.0	t		22.0	male	black	2.767608436132113	smiling	044	sub-13	1.0	5.0	044_smiling	0.0		207.66802259436736	
30.0	184.79688190962406	pulse	1.0	t		22.0	male	black	2.767608436132113	smiling	044	sub-13	1.0	5.0	044_smiling	0.0		208.3680024607129	
30.0	185.4968644926539	pulse	1.0	t		22.0	male	black	2.767608436132113	smiling	044	sub-13	1.0	5.0	044_smiling	0.0		209.06798504374274	
30.0	186.19684013304504	pulse	1.0	t		22.0	male	black	2.767608436132113	smiling	044	sub-13	1.0	5.0	044_smiling	0.0		209.76796068413387	
30.0	186.89683448837695	pulse	1.0	t		22.0	male	black	2.767608436132113	smiling	044	sub-13	1.0	5.0	044_smiling	0.0		210.46795503946578	
31.0	187.27168088247527	face	0.0		145	24.0	female	black	3.0955033824114606	smiling	099	sub-13	1.0	5.0	099_smiling	0.0		210.8428014335641	1.233335476495995
31.0	187.5968212973612	pulse	0.0	t		24.0	female	black	3.0955033824114606	smiling	099	sub-13	1.0	5.0	099_smiling	0.0		211.16794184845003	
31.0	188.2967918062359	pulse	0.0	t		24.0	female	black	3.0955033824114606	smiling	099	sub-13	1.0	5.0	099_smiling	0.0		211.8679123573247	
31.0	188.50501635897126	fix	1.0		444	24.0	female	black	3.0955033824114606	smiling	099	sub-13	1.0	5.0	099_smiling	0.0		212.0761369100601	3.7665516301467505
31.0	188.99678133190537	pulse	1.0	t		24.0	female	black	3.0955033824114606	smiling	099	sub-13	1.0	5.0	099_smiling	0.0		212.5679018829942	
31.0	189.6967590852737	pulse	1.0	t		24.0	female	black	3.0955033824114606	smiling	099	sub-13	1.0	5.0	099_smiling	0.0		213.26787963636252	
31.0	190.39673502751793	pulse	1.0	t		24.0	female	black	3.0955033824114606	smiling	099	sub-13	1.0	5.0	099_smiling	0.0		213.96785557860676	
31.0	191.09673360880515	pulse	1.0	t		24.0	female	black	3.0955033824114606	smiling	099	sub-13	1.0	5.0	099_smiling	0.0		214.66785415989398	
31.0	191.79671679554303	pulse	1.0	t		24.0	female	black	3.0955033824114606	smiling	099	sub-13	1.0	5.0	099_smiling	0.0		215.36783734663186	
32.0	192.271567989118	face	0.0		145	34.0	male	white	2.651014723438122	smiling	121	sub-13	1.0	5.0	121_smiling	0.0		215.84268854020684	1.2333173652623373
32.0	192.49669726559569	pulse	0.0	t		34.0	male	white	2.651014723438122	smiling	121	sub-13	1.0	5.0	121_smiling	0.0		216.0678178166845	
32.0	193.19667864121038	pulse	0.0	t		34.0	male	white	2.651014723438122	smiling	121	sub-13	1.0	5.0	121_smiling	0.0		216.7677991922992	
32.0	193.50488535438035	fix	1.0		444	34.0	male	white	2.651014723438122	smiling	121	sub-13	1.0	5.0	121_smiling	0.0		217.07600590546917	3.76656823211124
32.0	193.89667571322752	pulse	1.0	t		34.0	male	white	2.651014723438122	smiling	121	sub-13	1.0	5.0	121_smiling	0.0		217.46779626431635	
32.0	194.59665105176464	pulse	1.0	t		34.0	male	white	2.651014723438122	smiling	121	sub-13	1.0	5.0	121_smiling	0.0		218.16777160285346	
32.0	195.29660163828157	pulse	1.0	t		34.0	male	white	2.651014723438122	smiling	121	sub-13	1.0	5.0	121_smiling	0.0		218.8677221893704	
32.0	195.9966113881619	pulse	1.0	t		34.0	male	white	2.651014723438122	smiling	121	sub-13	1.0	5.0	121_smiling	0.0		219.56773193925073	
32.0	196.69659940456222	pulse	1.0	t		34.0	male	white	2.651014723438122	smiling	121	sub-13	1.0	5.0	121_smiling	0.0		220.26771995565105	
33.0	197.2714535864916	face	0.0		145	21.0	male	east_asian/white	3.501790688420215	neutral	036	sub-13	1.0	5.0	036_neutral	0.0		220.8425741375804	1.2333300431264433
33.0	197.3965886283786	pulse	0.0	t		21.0	male	east_asian/white	3.501790688420215	neutral	036	sub-13	1.0	5.0	036_neutral	0.0		220.96770917946742	
33.0	198.096555213152	pulse	0.0	t		21.0	male	east_asian/white	3.501790688420215	neutral	036	sub-13	1.0	5.0	036_neutral	0.0		221.6676757642408	
33.0	198.50478362961803	fix	1.0		444	21.0	male	east_asian/white	3.501790688420215	neutral	036	sub-13	1.0	5.0	036_neutral	0.0		222.07590418070686	3.7665474041923517
33.0	198.79654685179958	pulse	1.0	t		21.0	male	east_asian/white	3.501790688420215	neutral	036	sub-13	1.0	5.0	036_neutral	0.0		222.3676674028884	
33.0	199.49652943482943	pulse	1.0	t		21.0	male	east_asian/white	3.501790688420215	neutral	036	sub-13	1.0	5.0	036_neutral	0.0		223.06764998591825	
33.0	200.19653526060938	pulse	1.0	t		21.0	male	east_asian/white	3.501790688420215	neutral	036	sub-13	1.0	5.0	036_neutral	0.0		223.7676558116982	
33.0	200.89650546763005	pulse	1.0	t		21.0	male	east_asian/white	3.501790688420215	neutral	036	sub-13	1.0	5.0	036_neutral	0.0		224.46762601871887	
33.0	201.59648623953672	pulse	1.0	t		21.0	male	east_asian/white	3.501790688420215	neutral	036	sub-13	1.0	5.0	036_neutral	0.0		225.16760679062554	
34.0	202.27133103381038	face	0.0		145	40.0	male	black	2.408674890569041	neutral	061	sub-13	1.0	5.0	061_neutral	0.0		225.8424515848992	1.2333098189146767
34.0	202.29647244481384	pulse	0.0	t		40.0	male	black	2.408674890569041	neutral	061	sub-13	1.0	5.0	061_neutral	0.0		225.86759299590267	
34.0	202.9964272572861	pulse	0.0	t		40.0	male	black	2.408674890569041	neutral	061	sub-13	1.0	5.0	061_neutral	0.0		226.5675478083749	
34.0	203.50464085272506	fix	1.0		443	40.0	male	black	2.408674890569041	neutral	061	sub-13	1.0	5.0	061_neutral	0.0		227.07576140381389	3.766591474861343
34.0	203.69644213868287	pulse	1.0	t		40.0	male	black	2.408674890569041	neutral	061	sub-13	1.0	5.0	061_neutral	0.0		227.2675626897717	
34.0	204.3964135531187	pulse	1.0	t		40.0	male	black	2.408674890569041	neutral	061	sub-13	1.0	5.0	061_neutral	0.0		227.96753410420752	
34.0	205.0963885898018	pulse	1.0	t		40.0	male	black	2.408674890569041	neutral	061	sub-13	1.0	5.0	061_neutral	0.0		228.66750914089062	
34.0	205.79638264327968	pulse	1.0	t		40.0	male	black	2.408674890569041	neutral	061	sub-13	1.0	5.0	061_neutral	0.0		229.3675031943685	
34.0	206.4963664337256	pulse	1.0	t		40.0	male	black	2.408674890569041	neutral	061	sub-13	1.0	5.0	061_neutral	0.0		230.06748698481442	
34.0	207.19635807237228	pulse	1.0	t		40.0	male	black	2.408674890569041	neutral	061	sub-13	1.0	5.0	061_neutral	0.0		230.7674786234611	
35.0	207.2712323275864	face	0.0		146	20.0	male	black	3.1070433744528456	neutral	082	sub-13	1.0	5.0	082_neutral	0.0		230.84235287867523	1.233293518804203
35.0	207.89633099607818	pulse	0.0	t		20.0	male	black	3.1070433744528456	neutral	082	sub-13	1.0	5.0	082_neutral	0.0		231.467451547167	
35.0	208.5045258463906	fix	1.0		443	20.0	male	black	3.1070433744528456	neutral	082	sub-13	1.0	5.0	082_neutral	0.0		232.07564639747943	3.766578796997237
35.0	208.5963256532641	pulse	1.0	t		20.0	male	black	3.1070433744528456	neutral	082	sub-13	1.0	5.0	082_neutral	0.0		232.16744620435293	
35.0	209.29630370848645	pulse	1.0	t		20.0	male	black	3.1070433744528456	neutral	082	sub-13	1.0	5.0	082_neutral	0.0		232.86742425957527	
35.0	209.99628810263948	pulse	1.0	t		20.0	male	black	3.1070433744528456	neutral	082	sub-13	1.0	5.0	082_neutral	0.0		233.5674086537283	
35.0	210.69627370420858	pulse	1.0	t		20.0	male	black	3.1070433744528456	neutral	082	sub-13	1.0	5.0	082_neutral	0.0		234.2673942552974	
35.0	211.39625930577768	pulse	1.0	t		20.0	male	black	3.1070433744528456	neutral	082	sub-13	1.0	5.0	082_neutral	0.0		234.9673798568665	
35.0	212.09621049600264	pulse	1.0	t		20.0	male	black	3.1070433744528456	neutral	082	sub-13	1.0	5.0	082_neutral	0.0		235.66733104709147	
36.0	212.27110464338784	face	0.0		146	23.0	male	white	2.6275368085953046	smiling	141	sub-13	1.0	5.0	141_smiling	0.0		235.84222519447667	1.2416443068395893
36.0	212.79623292374708	pulse	0.0	t		23.0	male	white	2.6275368085953046	smiling	141	sub-13	1.0	5.0	141_smiling	0.0		236.3673534748359	
36.0	213.49619498071297	pulse	0.0	t		23.0	male	white	2.6275368085953046	smiling	141	sub-13	1.0	5.0	141_smiling	0.0		237.0673155318018	
36.0	213.51274895022743	fix	1.0		443	23.0	male	white	2.6275368085953046	smiling	141	sub-13	1.0	5.0	141_smiling	0.0		237.08386950131626	3.7582325367711746
36.0	214.19619476941534	pulse	1.0	t		23.0	male	white	2.6275368085953046	smiling	141	sub-13	1.0	5.0	141_smiling	0.0		237.76731532050417	
36.0	214.89616376901995	pulse	1.0	t		23.0	male	white	2.6275368085953046	smiling	141	sub-13	1.0	5.0	141_smiling	0.0		238.46728432010877	
36.0	215.59614484278063	pulse	1.0	t		23.0	male	white	2.6275368085953046	smiling	141	sub-13	1.0	5.0	141_smiling	0.0		239.16726539386946	
36.0	216.29613165176488	pulse	1.0	t		23.0	male	white	2.6275368085953046	smiling	141	sub-13	1.0	5.0	141_smiling	0.0		239.8672522028537	
36.0	216.99612630895172	pulse	1.0	t		23.0	male	white	2.6275368085953046	smiling	141	sub-13	1.0	5.0	141_smiling	0.0		240.56724686004054	
37.0	217.2709814869986	face	0.0		145	37.0	male	white	3.898925586947871	neutral	101	sub-13	1.0	5.0	101_neutral	0.0		240.84210203808743	1.233325817171135
37.0	217.69610164748792	pulse	0.0	t		37.0	male	white	3.898925586947871	neutral	101	sub-13	1.0	5.0	101_neutral	0.0		241.26722219857675	
37.0	218.39606642113813	pulse	0.0	t		37.0	male	white	3.898925586947871	neutral	101	sub-13	1.0	5.0	101_neutral	0.0		241.96718697222695	
37.0	218.50430730416974	fix	1.0		444	37.0	male	white	3.898925586947871	neutral	101	sub-13	1.0	5.0	101_neutral	0.0		242.07542785525857	3.766553139415919
37.0	219.09606802096368	pulse	1.0	t		37.0	male	white	3.898925586947871	neutral	101	sub-13	1.0	5.0	101_neutral	0.0		242.6671885720525	
37.0	219.79605452809483	pulse	1.0	t		37.0	male	white	3.898925586947871	neutral	101	sub-13	1.0	5.0	101_neutral	0.0		243.36717507918365	
37.0	220.49605824089758	pulse	1.0	t		37.0	male	white	3.898925586947871	neutral	101	sub-13	1.0	5.0	101_neutral	0.0		244.0671787919864	
37.0	221.19601546820104	pulse	1.0	t		37.0	male	white	3.898925586947871	neutral	101	sub-13	1.0	5.0	101_neutral	0.0		244.76713601928986	
37.0	221.89600137162415	pulse	1.0	t		37.0	male	white	3.898925586947871	neutral	101	sub-13	1.0	5.0	101_neutral	0.0		245.46712192271298	
38.0	222.27086044358566	face	0.0		145	20.0	female	white	3.9502586549940313	neutral	091	sub-13	1.0	5.0	091_neutral	0.0		245.8419809946745	1.2333128374539228
38.0	222.59599723622523	pulse	0.0	t		20.0	female	white	3.9502586549940313	neutral	091	sub-13	1.0	5.0	091_neutral	0.0		246.16711778731406	
38.0	223.29596080246029	pulse	0.0	t		20.0	female	white	3.9502586549940313	neutral	091	sub-13	1.0	5.0	091_neutral	0.0		246.8670813535491	
38.0	223.50417328103958	fix	1.0		444	20.0	female	white	3.9502586549940313	neutral	091	sub-13	1.0	5.0	091_neutral	0.0		247.0752938321284	3.766595097107711
38.0	223.99596270413986	pulse	1.0	t		20.0	female	white	3.9502586549940313	neutral	091	sub-13	1.0	5.0	091_neutral	0.0		247.56708325522868	
38.0	224.69593774082205	pulse	1.0	t		20.0	female	white	3.9502586549940313	neutral	091	sub-13	1.0	5.0	091_neutral	0.0		248.26705829191087	
38.0	225.39592817205357	pulse	1.0	t		20.0	female	white	3.9502586549940313	neutral	091	sub-13	1.0	5.0	091_neutral	0.0		248.9670487231424	
38.0	226.09589807722023	pulse	1.0	t		20.0	female	white	3.9502586549940313	neutral	091	sub-13	1.0	5.0	091_neutral	0.0		249.66701862830905	
38.0	226.79589333811418	pulse	1.0	t		20.0	female	white	3.9502586549940313	neutral	091	sub-13	1.0	5.0	091_neutral	0.0		250.367013889203	
39.0	227.2707683781473	face	0.0		145	36.0	female	white	2.7548746518105847	neutral	011	sub-13	1.0	5.0	011_neutral	0.0		250.84188892923612	1.233308611499524
39.0	227.49587260075168	pulse	0.0	t		36.0	female	white	2.7548746518105847	neutral	011	sub-13	1.0	5.0	011_neutral	0.0		251.0669931518405	
39.0	228.19585608934358	pulse	0.0	t		36.0	female	white	2.7548746518105847	neutral	011	sub-13	1.0	5.0	011_neutral	0.0		251.7669766404324	
39.0	228.50407698964682	fix	1.0		444	36.0	female	white	2.7548746518105847	neutral	011	sub-13	1.0	5.0	011_neutral	0.0		252.07519754073564	3.74989955811634
39.0	228.8958377668123	pulse	1.0	t		36.0	female	white	2.7548746518105847	neutral	011	sub-13	1.0	5.0	011_neutral	0.0		252.46695831790112	
39.0	229.5958218591113	pulse	1.0	t		36.0	female	white	2.7548746518105847	neutral	011	sub-13	1.0	5.0	011_neutral	0.0		253.16694241020014	
39.0	230.29581470517405	pulse	1.0	t		36.0	female	white	2.7548746518105847	neutral	011	sub-13	1.0	5.0	011_neutral	0.0		253.86693525626288	
39.0	230.9958878443731	pulse	1.0	t		36.0	female	white	2.7548746518105847	neutral	011	sub-13	1.0	5.0	011_neutral	0.0		254.56700839546193	
39.0	231.6957744378651	pulse	1.0	t		36.0	female	white	2.7548746518105847	neutral	011	sub-13	1.0	5.0	011_neutral	0.0		255.26689498895394	
40.0	232.25397654776316	fix	0.0		720													255.82509709885198	5.999870806532272
40.0	232.39576728392694	pulse	0.0	t														255.96688783501577	
40.0	233.09573356684723	pulse	0.0	t														256.66685411793605	
40.0	233.79572128139353	pulse	0.0	t														257.36684183248235	
40.0	234.49571805155665	pulse	0.0	t														258.0668386026455	
40.0	235.1956834289149	pulse	0.0	t														258.7668039800037	
40.0	235.8956820102021	pulse	0.0	t														259.46680256129093	
40.0	236.59566036727756	pulse	0.0	t														260.1667809183664	
40.0	237.29564627070067	pulse	0.0	t														260.8667668217895	
40.0	237.9956282500225	pulse	0.0	t														261.5667488011113	
