trial_nr	onset	event_type	phase	response	nr_frames	face_age	face_sex	face_eth	attractiveness	expression	face_id	sub_id	ses	run	trial_type	catch	rating_type	onset_abs	duration
-1.0	0.061969042041710054	fix	0.0		713													29.08088038202459	5.957867172973238
-1.0	0.7034402091230731	pulse	0.0	t														29.72235154910595	
-1.0	1.4034142498367146	pulse	0.0	t														30.422325589819593	
-1.0	2.103391007220125	pulse	0.0	t														31.122302347203004	
-1.0	2.8033725942377714	pulse	0.0	t														31.82228393422065	
-1.0	3.503353577551934	pulse	0.0	t														32.52226491753481	
-1.0	4.203330938639738	pulse	0.0	t														33.222242278622616	
-1.0	4.903301055274824	pulse	0.0	t														33.9222123952577	
-1.0	5.6032892830407945	pulse	0.0	t														34.62220062302367	
0.0	6.019836215014948	face	0.0		144	26.0	male	white	2.7966573816155993	smiling	117	sub-07	2.0	5.0	117_smiling	1.0	attractiveness	35.038747554997826	1.2332955011952436
0.0	6.303279623771232	pulse	0.0	t		26.0	male	white	2.7966573816155993	smiling	117	sub-07	2.0	5.0	117_smiling	1.0	attractiveness	35.32219096375411	
0.0	7.003243703364205	pulse	0.0	t		26.0	male	white	2.7966573816155993	smiling	117	sub-07	2.0	5.0	117_smiling	1.0	attractiveness	36.022155043347084	
0.0	7.253131716210191	fix	1.0		177	26.0	male	white	2.7966573816155993	smiling	117	sub-07	2.0	5.0	117_smiling	1.0	attractiveness	36.27204305619307	1.5083217623341625
0.0	7.703236458912215	pulse	1.0	t		26.0	male	white	2.7966573816155993	smiling	117	sub-07	2.0	5.0	117_smiling	1.0	attractiveness	36.722147798895094	
0.0	8.403213216294716	pulse	1.0	t		26.0	male	white	2.7966573816155993	smiling	117	sub-07	2.0	5.0	117_smiling	1.0	attractiveness	37.422124556277595	
0.0	8.761453478544354	rating	2.0		293	26.0	male	white	2.7966573816155993	smiling	117	sub-07	2.0	5.0	117_smiling	1.0	attractiveness	37.78036481852723	2.4915599116175144
0.0	9.103193897756682	pulse	2.0	t		26.0	male	white	2.7966573816155993	smiling	117	sub-07	2.0	5.0	117_smiling	1.0	attractiveness	38.12210523773956	
0.0	9.803171560696683	pulse	2.0	t		26.0	male	white	2.7966573816155993	smiling	117	sub-07	2.0	5.0	117_smiling	1.0	attractiveness	38.82208290067956	
0.0	10.253147412523504	response	2.0	b		26.0	male	white	2.7966573816155993	smiling	117	sub-07	2.0	5.0	117_smiling	1.0	attractiveness	39.27205875250638	
0.0	10.50314590326252	pulse	2.0	t		26.0	male	white	2.7966573816155993	smiling	117	sub-07	2.0	5.0	117_smiling	1.0	attractiveness	39.5220572432454	
0.0	11.203114208785337	pulse	2.0	t		26.0	male	white	2.7966573816155993	smiling	117	sub-07	2.0	5.0	117_smiling	1.0	attractiveness	40.222025548768215	
0.0	11.253013390161868	fix	3.0		444	26.0	male	white	2.7966573816155993	smiling	117	sub-07	2.0	5.0	117_smiling	1.0	attractiveness	40.27192473014475	3.758219736301726
0.0	11.903107266185543	pulse	3.0	t		26.0	male	white	2.7966573816155993	smiling	117	sub-07	2.0	5.0	117_smiling	1.0	attractiveness	40.92201860616842	
0.0	12.603080401342595	pulse	3.0	t		26.0	male	white	2.7966573816155993	smiling	117	sub-07	2.0	5.0	117_smiling	1.0	attractiveness	41.62199174132547	
0.0	13.303067119847583	pulse	3.0	t		26.0	male	white	2.7966573816155993	smiling	117	sub-07	2.0	5.0	117_smiling	1.0	attractiveness	42.32197845983046	
0.0	14.003043575378797	pulse	3.0	t		26.0	male	white	2.7966573816155993	smiling	117	sub-07	2.0	5.0	117_smiling	1.0	attractiveness	43.021954915361675	
0.0	14.703021238317888	pulse	3.0	t		26.0	male	white	2.7966573816155993	smiling	117	sub-07	2.0	5.0	117_smiling	1.0	attractiveness	43.721932578300766	
1.0	15.011233126463594	face	0.0		146	20.0	male	black	3.1070433744528456	neutral	082	sub-07	2.0	5.0	082_neutral	0.0		44.03014446644647	1.241632054285219
1.0	15.40300403274523	pulse	0.0	t		20.0	male	black	3.1070433744528456	neutral	082	sub-07	2.0	5.0	082_neutral	0.0		44.42191537272811	
1.0	16.102972640119333	pulse	0.0	t		20.0	male	black	3.1070433744528456	neutral	082	sub-07	2.0	5.0	082_neutral	0.0		45.12188398010221	
1.0	16.252865180748813	fix	1.0		445	20.0	male	black	3.1070433744528456	neutral	082	sub-07	2.0	5.0	082_neutral	0.0		45.27177652073169	3.758219132598242
1.0	16.8029611697375	pulse	1.0	t		20.0	male	black	3.1070433744528456	neutral	082	sub-07	2.0	5.0	082_neutral	0.0		45.82187250972038	
1.0	17.502935814155535	pulse	1.0	t		20.0	male	black	3.1070433744528456	neutral	082	sub-07	2.0	5.0	082_neutral	0.0		46.52184715413841	
1.0	18.20292283451272	pulse	1.0	t		20.0	male	black	3.1070433744528456	neutral	082	sub-07	2.0	5.0	082_neutral	0.0		47.2218341744956	
1.0	18.90289778078295	pulse	1.0	t		20.0	male	black	3.1070433744528456	neutral	082	sub-07	2.0	5.0	082_neutral	0.0		47.92180912076583	
1.0	19.60287363260977	pulse	1.0	t		20.0	male	black	3.1070433744528456	neutral	082	sub-07	2.0	5.0	082_neutral	0.0		48.62178497259265	
2.0	20.011084313347055	face	0.0		146	25.0	female	west_asian	2.6756864305610826	smiling	064	sub-07	2.0	5.0	064_smiling	0.0		49.029995653329934	1.2416453357800492
2.0	20.302868501123157	pulse	0.0	t		25.0	female	west_asian	2.6756864305610826	smiling	064	sub-07	2.0	5.0	064_smiling	0.0		49.321779841106036	
2.0	21.00283107145424	pulse	0.0	t		25.0	female	west_asian	2.6756864305610826	smiling	064	sub-07	2.0	5.0	064_smiling	0.0		50.02174241143712	
2.0	21.252729649127104	fix	1.0		445	25.0	female	west_asian	2.6756864305610826	smiling	064	sub-07	2.0	5.0	064_smiling	0.0		50.27164098910998	3.758204039989323
2.0	21.70279545289941	pulse	1.0	t		25.0	female	west_asian	2.6756864305610826	smiling	064	sub-07	2.0	5.0	064_smiling	0.0		50.72170679288229	
2.0	22.402809036246254	pulse	1.0	t		25.0	female	west_asian	2.6756864305610826	smiling	064	sub-07	2.0	5.0	064_smiling	0.0		51.42172037622913	
2.0	23.102750476926303	pulse	1.0	t		25.0	female	west_asian	2.6756864305610826	smiling	064	sub-07	2.0	5.0	064_smiling	0.0		52.12166181690918	
2.0	23.80275319359589	pulse	1.0	t		25.0	female	west_asian	2.6756864305610826	smiling	064	sub-07	2.0	5.0	064_smiling	0.0		52.82166453357877	
2.0	24.502732365796874	pulse	1.0	t		25.0	female	west_asian	2.6756864305610826	smiling	064	sub-07	2.0	5.0	064_smiling	0.0		53.52164370577975	
3.0	25.010933689116428	face	0.0		146	24.0	female	east_asian	4.409868682849185	neutral	030	sub-07	2.0	5.0	030_neutral	1.0	dominance	54.029845029099306	1.241633563546202
3.0	25.20271666948429	pulse	0.0	t		24.0	female	east_asian	4.409868682849185	neutral	030	sub-07	2.0	5.0	030_neutral	1.0	dominance	54.22162800946717	
3.0	25.902680749076353	pulse	0.0	t		24.0	female	east_asian	4.409868682849185	neutral	030	sub-07	2.0	5.0	030_neutral	1.0	dominance	54.92159208905923	
3.0	26.25256725266263	fix	1.0		177	24.0	female	east_asian	4.409868682849185	neutral	030	sub-07	2.0	5.0	030_neutral	1.0	dominance	55.27147859264551	1.4999565332882412
3.0	26.60267290091997	pulse	1.0	t		24.0	female	east_asian	4.409868682849185	neutral	030	sub-07	2.0	5.0	030_neutral	1.0	dominance	55.62158424090285	
3.0	27.30264181014718	pulse	1.0	t		24.0	female	east_asian	4.409868682849185	neutral	030	sub-07	2.0	5.0	030_neutral	1.0	dominance	56.32155315013006	
3.0	27.75252378595087	rating	2.0		294	24.0	female	east_asian	4.409868682849185	neutral	030	sub-07	2.0	5.0	030_neutral	1.0	dominance	56.77143512593375	2.499926046219116
3.0	28.002633961990796	pulse	2.0	t		24.0	female	east_asian	4.409868682849185	neutral	030	sub-07	2.0	5.0	030_neutral	1.0	dominance	57.021545301973674	
3.0	28.70260951196542	pulse	2.0	t		24.0	female	east_asian	4.409868682849185	neutral	030	sub-07	2.0	5.0	030_neutral	1.0	dominance	57.7215208519483	
3.0	29.402587778609814	pulse	2.0	t		24.0	female	east_asian	4.409868682849185	neutral	030	sub-07	2.0	5.0	030_neutral	1.0	dominance	58.42149911859269	
3.0	29.60256755451428	response	2.0	g		24.0	female	east_asian	4.409868682849185	neutral	030	sub-07	2.0	5.0	030_neutral	1.0	dominance	58.62147889449716	
3.0	30.10256151747126	pulse	2.0	t		24.0	female	east_asian	4.409868682849185	neutral	030	sub-07	2.0	5.0	030_neutral	1.0	dominance	59.12147285745414	
3.0	30.252449832169987	fix	3.0		444	24.0	female	east_asian	4.409868682849185	neutral	030	sub-07	2.0	5.0	030_neutral	1.0	dominance	59.271361172152865	3.766514633793122
3.0	30.802548235976246	pulse	3.0	t		24.0	female	east_asian	4.409868682849185	neutral	030	sub-07	2.0	5.0	030_neutral	1.0	dominance	59.821459575959125	
3.0	31.502514428533686	pulse	3.0	t		24.0	female	east_asian	4.409868682849185	neutral	030	sub-07	2.0	5.0	030_neutral	1.0	dominance	60.521425768516565	
3.0	32.20249782666451	pulse	3.0	t		24.0	female	east_asian	4.409868682849185	neutral	030	sub-07	2.0	5.0	030_neutral	1.0	dominance	61.22140916664739	
3.0	32.902480621090945	pulse	3.0	t		24.0	female	east_asian	4.409868682849185	neutral	030	sub-07	2.0	5.0	030_neutral	1.0	dominance	61.92139196107382	
3.0	33.60246220810859	pulse	3.0	t		24.0	female	east_asian	4.409868682849185	neutral	030	sub-07	2.0	5.0	030_neutral	1.0	dominance	62.62137354809147	
4.0	34.01896446596311	face	0.0		145	22.0	female	white	4.614007162753682	smiling	009	sub-07	2.0	5.0	009_smiling	0.0		63.03787580594599	1.2333350438293564
4.0	34.302428098814744	pulse	0.0	t		22.0	female	white	4.614007162753682	smiling	009	sub-07	2.0	5.0	009_smiling	0.0		63.32133943879762	
4.0	35.002395196928774	pulse	0.0	t		22.0	female	white	4.614007162753682	smiling	009	sub-07	2.0	5.0	009_smiling	0.0		64.02130653691165	
4.0	35.252299509792465	fix	1.0		445	22.0	female	white	4.614007162753682	smiling	009	sub-07	2.0	5.0	009_smiling	0.0		64.27121084977534	3.758218830745136
4.0	35.7023945932242	pulse	1.0	t		22.0	female	white	4.614007162753682	smiling	009	sub-07	2.0	5.0	009_smiling	0.0		64.72130593320708	
4.0	36.40237406727647	pulse	1.0	t		22.0	female	white	4.614007162753682	smiling	009	sub-07	2.0	5.0	009_smiling	0.0		65.42128540725935	
4.0	37.102353843181845	pulse	1.0	t		22.0	female	white	4.614007162753682	smiling	009	sub-07	2.0	5.0	009_smiling	0.0		66.12126518316472	
4.0	37.802332411678435	pulse	1.0	t		22.0	female	white	4.614007162753682	smiling	009	sub-07	2.0	5.0	009_smiling	0.0		66.82124375166131	
4.0	38.50231973388691	pulse	1.0	t		22.0	female	white	4.614007162753682	smiling	009	sub-07	2.0	5.0	009_smiling	0.0		67.52123107386979	
5.0	39.0105183405376	face	0.0		146	20.0	male	black	3.1070433744528456	smiling	082	sub-07	2.0	5.0	082_smiling	0.0		68.02942968052048	1.2416290357632533
5.0	39.202291359783885	pulse	0.0	t		20.0	male	black	3.1070433744528456	smiling	082	sub-07	2.0	5.0	082_smiling	0.0		68.22120269976676	
5.0	39.90227143754055	pulse	0.0	t		20.0	male	black	3.1070433744528456	smiling	082	sub-07	2.0	5.0	082_smiling	0.0		68.92118277752343	
5.0	40.252147376300854	fix	1.0		444	20.0	male	black	3.1070433744528456	smiling	082	sub-07	2.0	5.0	082_smiling	0.0		69.27105871628373	3.766556591243898
5.0	40.60225694863675	pulse	1.0	t		20.0	male	black	3.1070433744528456	smiling	082	sub-07	2.0	5.0	082_smiling	0.0		69.62116828861963	
5.0	41.30223400787236	pulse	1.0	t		20.0	male	black	3.1070433744528456	smiling	082	sub-07	2.0	5.0	082_smiling	0.0		70.32114534785524	
5.0	42.0022077467338	pulse	1.0	t		20.0	male	black	3.1070433744528456	smiling	082	sub-07	2.0	5.0	082_smiling	0.0		71.02111908671668	
5.0	42.70218359856062	pulse	1.0	t		20.0	male	black	3.1070433744528456	smiling	082	sub-07	2.0	5.0	082_smiling	0.0		71.7210949385435	
5.0	43.402170920770004	pulse	1.0	t		20.0	male	black	3.1070433744528456	smiling	082	sub-07	2.0	5.0	082_smiling	0.0		72.42108226075288	
6.0	44.01870396754475	face	0.0		145	23.0	male	white	2.6275368085953046	smiling	141	sub-07	2.0	5.0	141_smiling	0.0		73.03761530752763	1.2332964067518333
6.0	44.10215522445742	pulse	0.0	t		23.0	male	white	2.6275368085953046	smiling	141	sub-07	2.0	5.0	141_smiling	0.0		73.1210665644403	
6.0	44.80219386153476	pulse	0.0	t		23.0	male	white	2.6275368085953046	smiling	141	sub-07	2.0	5.0	141_smiling	0.0		73.82110520151764	
6.0	45.252000374296586	fix	1.0		444	23.0	male	white	2.6275368085953046	smiling	141	sub-07	2.0	5.0	141_smiling	0.0		74.27091171427946	3.7665484412355
6.0	45.50210270218031	pulse	1.0	t		23.0	male	white	2.6275368085953046	smiling	141	sub-07	2.0	5.0	141_smiling	0.0		74.52101404216319	
6.0	46.20208187438129	pulse	1.0	t		23.0	male	white	2.6275368085953046	smiling	141	sub-07	2.0	5.0	141_smiling	0.0		75.22099321436417	
6.0	46.90206315954674	pulse	1.0	t		23.0	male	white	2.6275368085953046	smiling	141	sub-07	2.0	5.0	141_smiling	0.0		75.92097449952962	
6.0	47.60204172804333	pulse	1.0	t		23.0	male	white	2.6275368085953046	smiling	141	sub-07	2.0	5.0	141_smiling	0.0		76.62095306802621	
6.0	48.302022711356585	pulse	1.0	t		23.0	male	white	2.6275368085953046	smiling	141	sub-07	2.0	5.0	141_smiling	0.0		77.32093405133946	
7.0	49.018548815532085	face	0.0		146	40.0	female	west_asian	1.5777954635893354	neutral	038	sub-07	2.0	5.0	038_neutral	0.0		78.03746015551496	1.2333066697256072
7.0	49.00466271039113	pulse	0.0	t		40.0	female	west_asian	1.5777954635893354	neutral	038	sub-07	2.0	5.0	038_neutral	0.0		78.02357405037401	
7.0	49.70198316872302	pulse	0.0	t		40.0	female	west_asian	1.5777954635893354	neutral	038	sub-07	2.0	5.0	038_neutral	0.0		78.7208945087059	
7.0	50.25185548525769	fix	1.0		443	40.0	female	west_asian	1.5777954635893354	neutral	038	sub-07	2.0	5.0	038_neutral	0.0		79.27076682524057	3.7665517616087527
7.0	50.40196596314945	pulse	1.0	t		40.0	female	west_asian	1.5777954635893354	neutral	038	sub-07	2.0	5.0	038_neutral	0.0		79.42087730313233	
7.0	51.10193577793325	pulse	1.0	t		40.0	female	west_asian	1.5777954635893354	neutral	038	sub-07	2.0	5.0	038_neutral	0.0		80.12084711791613	
7.0	51.80191525198643	pulse	1.0	t		40.0	female	west_asian	1.5777954635893354	neutral	038	sub-07	2.0	5.0	038_neutral	0.0		80.82082659196931	
7.0	52.501896839004075	pulse	1.0	t		40.0	female	west_asian	1.5777954635893354	neutral	038	sub-07	2.0	5.0	038_neutral	0.0		81.52080817898695	
7.0	53.20187691676165	pulse	1.0	t		40.0	female	west_asian	1.5777954635893354	neutral	038	sub-07	2.0	5.0	038_neutral	0.0		82.22078825674453	
7.0	53.901855787109525	pulse	1.0	t		40.0	female	west_asian	1.5777954635893354	neutral	038	sub-07	2.0	5.0	038_neutral	0.0		82.9207671270924	
8.0	54.018407246866445	face	0.0		146	31.0	female	east_asian	3.395941106247513	smiling	087	sub-07	2.0	5.0	087_smiling	0.0		83.03731858684932	1.2332921808219908
8.0	54.60183737412717	pulse	0.0	t		31.0	female	east_asian	3.395941106247513	smiling	087	sub-07	2.0	5.0	087_smiling	0.0		83.62074871411005	
8.0	55.251699427688436	fix	1.0		443	31.0	female	east_asian	3.395941106247513	smiling	087	sub-07	2.0	5.0	087_smiling	0.0		84.27061076767131	3.758256864118266
8.0	55.30181594262376	pulse	1.0	t		31.0	female	east_asian	3.395941106247513	smiling	087	sub-07	2.0	5.0	087_smiling	0.0		84.32072728260664	
8.0	56.00179088889399	pulse	1.0	t		31.0	female	east_asian	3.395941106247513	smiling	087	sub-07	2.0	5.0	087_smiling	0.0		85.02070222887687	
8.0	56.70178998333813	pulse	1.0	t		31.0	female	east_asian	3.395941106247513	smiling	087	sub-07	2.0	5.0	087_smiling	0.0		85.72070132332101	
8.0	57.401769155538204	pulse	1.0	t		31.0	female	east_asian	3.395941106247513	smiling	087	sub-07	2.0	5.0	087_smiling	0.0		86.42068049552108	
8.0	58.10173564994784	pulse	1.0	t		31.0	female	east_asian	3.395941106247513	smiling	087	sub-07	2.0	5.0	087_smiling	0.0		87.12064698993072	
8.0	58.80171089807027	pulse	1.0	t		31.0	female	east_asian	3.395941106247513	smiling	087	sub-07	2.0	5.0	087_smiling	0.0		87.82062223805315	
9.0	59.0099562918067	face	0.0		146	27.0	female	white	3.504576203740549	smiling	144	sub-07	2.0	5.0	144_smiling	0.0		88.02886763178958	1.2416030764770767
9.0	59.50169701287086	pulse	0.0	t		27.0	female	white	3.504576203740549	smiling	144	sub-07	2.0	5.0	144_smiling	0.0		88.52060835285374	
9.0	60.20166592209807	pulse	0.0	t		27.0	female	white	3.504576203740549	smiling	144	sub-07	2.0	5.0	144_smiling	0.0		89.22057726208095	
9.0	60.25155936828378	fix	1.0		445	27.0	female	white	3.504576203740549	smiling	144	sub-07	2.0	5.0	144_smiling	0.0		89.27047070826666	3.766549648644286
9.0	60.90165203689867	pulse	1.0	t		27.0	female	white	3.504576203740549	smiling	144	sub-07	2.0	5.0	144_smiling	0.0		89.92056337688155	
9.0	61.60162336094254	pulse	1.0	t		27.0	female	white	3.504576203740549	smiling	144	sub-07	2.0	5.0	144_smiling	0.0		90.62053470092542	
9.0	62.30159679795179	pulse	1.0	t		27.0	female	white	3.504576203740549	smiling	144	sub-07	2.0	5.0	144_smiling	0.0		91.32050813793467	
9.0	63.00158049793572	pulse	1.0	t		27.0	female	white	3.504576203740549	smiling	144	sub-07	2.0	5.0	144_smiling	0.0		92.0204918379186	
9.0	63.701565707178816	pulse	1.0	t		27.0	female	white	3.504576203740549	smiling	144	sub-07	2.0	5.0	144_smiling	0.0		92.7204770471617	
10.0	64.01810901692807	face	0.0		145	20.0	female	white	3.9502586549940313	smiling	091	sub-07	2.0	5.0	091_smiling	0.0		93.03702035691094	1.2332713530222463
10.0	64.40154850160616	pulse	0.0	t		20.0	female	white	3.9502586549940313	smiling	091	sub-07	2.0	5.0	091_smiling	0.0		93.42045984158904	
10.0	65.10152374972859	pulse	0.0	t		20.0	female	white	3.9502586549940313	smiling	091	sub-07	2.0	5.0	091_smiling	0.0		94.12043508971146	
10.0	65.25138036995031	fix	1.0		445	20.0	female	white	3.9502586549940313	smiling	091	sub-07	2.0	5.0	091_smiling	0.0		94.27029170993319	3.766578626451519
10.0	65.8015086571204	pulse	1.0	t		20.0	female	white	3.9502586549940313	smiling	091	sub-07	2.0	5.0	091_smiling	0.0		94.82041999710327	
10.0	66.50148028301646	pulse	1.0	t		20.0	female	white	3.9502586549940313	smiling	091	sub-07	2.0	5.0	091_smiling	0.0		95.52039162299934	
10.0	67.2014624737385	pulse	1.0	t		20.0	female	white	3.9502586549940313	smiling	091	sub-07	2.0	5.0	091_smiling	0.0		96.22037381372138	
10.0	67.90143530704427	pulse	1.0	t		20.0	female	white	3.9502586549940313	smiling	091	sub-07	2.0	5.0	091_smiling	0.0		96.92034664702715	
10.0	68.60142172369615	pulse	1.0	t		20.0	female	white	3.9502586549940313	smiling	091	sub-07	2.0	5.0	091_smiling	0.0		97.62033306367903	
11.0	69.01795899640183	face	0.0		145	27.0	female	white	4.181058495821727	smiling	039	sub-07	2.0	5.0	039_smiling	0.0		98.03687033638471	1.2332982178650127
11.0	69.30140300886251	pulse	0.0	t		27.0	female	white	4.181058495821727	smiling	039	sub-07	2.0	5.0	039_smiling	0.0		98.32031434884539	
11.0	70.0013731254976	pulse	0.0	t		27.0	female	white	4.181058495821727	smiling	039	sub-07	2.0	5.0	039_smiling	0.0		99.02028446548047	
11.0	70.25125721426684	fix	1.0		445	27.0	female	white	4.181058495821727	smiling	039	sub-07	2.0	5.0	039_smiling	0.0		99.27016855424972	3.766555081982915
11.0	70.70135984400258	pulse	1.0	t		27.0	female	white	4.181058495821727	smiling	039	sub-07	2.0	5.0	039_smiling	0.0		99.72027118398546	
11.0	71.4013353939772	pulse	1.0	t		27.0	female	white	4.181058495821727	smiling	039	sub-07	2.0	5.0	039_smiling	0.0		100.42024673396008	
11.0	72.1013055106132	pulse	1.0	t		27.0	female	white	4.181058495821727	smiling	039	sub-07	2.0	5.0	039_smiling	0.0		101.12021685059608	
11.0	72.80128679577865	pulse	1.0	t		27.0	female	white	4.181058495821727	smiling	039	sub-07	2.0	5.0	039_smiling	0.0		101.82019813576153	
11.0	73.50129464393558	pulse	1.0	t		27.0	female	white	4.181058495821727	smiling	039	sub-07	2.0	5.0	039_smiling	0.0		102.52020598391846	
12.0	74.01781229624976	face	0.0		145	27.0	male	black	3.5523278949462798	neutral	042	sub-07	2.0	5.0	042_neutral	0.0		103.03672363623264	1.233301236386069
12.0	74.20160192943877	pulse	0.0	t		27.0	male	black	3.5523278949462798	neutral	042	sub-07	2.0	5.0	042_neutral	0.0		103.22051326942164	
12.0	74.90123034942371	pulse	0.0	t		27.0	male	black	3.5523278949462798	neutral	042	sub-07	2.0	5.0	042_neutral	0.0		103.92014168940659	
12.0	75.25111353263583	fix	1.0		444	27.0	male	black	3.5523278949462798	neutral	042	sub-07	2.0	5.0	042_neutral	0.0		104.2700248726187	3.75824146965806
12.0	75.60121314385106	pulse	1.0	t		27.0	male	black	3.5523278949462798	neutral	042	sub-07	2.0	5.0	042_neutral	0.0		104.62012448383393	
12.0	76.30119050493795	pulse	1.0	t		27.0	male	black	3.5523278949462798	neutral	042	sub-07	2.0	5.0	042_neutral	0.0		105.32010184492083	
12.0	77.00117028084333	pulse	1.0	t		27.0	male	black	3.5523278949462798	neutral	042	sub-07	2.0	5.0	042_neutral	0.0		106.0200816208262	
12.0	77.70114915119211	pulse	1.0	t		27.0	male	black	3.5523278949462798	neutral	042	sub-07	2.0	5.0	042_neutral	0.0		106.72006049117499	
12.0	78.40113254932294	pulse	1.0	t		27.0	male	black	3.5523278949462798	neutral	042	sub-07	2.0	5.0	042_neutral	0.0		107.42004388930582	
13.0	79.00935500229389	face	0.0		146	19.0	male	white	2.243931555909272	neutral	130	sub-07	2.0	5.0	130_neutral	0.0		108.02826634227677	1.2416079061122218
13.0	79.101113230784	pulse	0.0	t		19.0	male	white	2.243931555909272	neutral	130	sub-07	2.0	5.0	130_neutral	0.0		108.12002457076687	
13.0	79.80111081596715	pulse	0.0	t		19.0	male	white	2.243931555909272	neutral	130	sub-07	2.0	5.0	130_neutral	0.0		108.82002215595003	
13.0	80.25096290840611	fix	1.0		444	19.0	male	white	2.243931555909272	neutral	130	sub-07	2.0	5.0	130_neutral	0.0		109.26987424838899	3.766533348626581
13.0	80.50107066962846	pulse	1.0	t		19.0	male	white	2.243931555909272	neutral	130	sub-07	2.0	5.0	130_neutral	0.0		109.51998200961134	
13.0	81.20104169182105	pulse	1.0	t		19.0	male	white	2.243931555909272	neutral	130	sub-07	2.0	5.0	130_neutral	0.0		110.21995303180393	
13.0	81.90102086402203	pulse	1.0	t		19.0	male	white	2.243931555909272	neutral	130	sub-07	2.0	5.0	130_neutral	0.0		110.91993220400491	
13.0	82.60100275289187	pulse	1.0	t		19.0	male	white	2.243931555909272	neutral	130	sub-07	2.0	5.0	130_neutral	0.0		111.61991409287475	
13.0	83.30098313250073	pulse	1.0	t		19.0	male	white	2.243931555909272	neutral	130	sub-07	2.0	5.0	130_neutral	0.0		112.31989447248361	
14.0	84.01749625703269	face	0.0		146	26.0	male	white	2.7966573816155993	neutral	117	sub-07	2.0	5.0	117_neutral	0.0		113.03640759701557	1.2333181401081674
14.0	84.0035008814084	pulse	0.0	t		26.0	male	white	2.7966573816155993	neutral	117	sub-07	2.0	5.0	117_neutral	0.0		113.02241222139128	
14.0	84.70093604356316	pulse	0.0	t		26.0	male	white	2.7966573816155993	neutral	117	sub-07	2.0	5.0	117_neutral	0.0		113.71984738354604	
14.0	85.25081439714086	fix	1.0		443	26.0	male	white	2.7966573816155993	neutral	117	sub-07	2.0	5.0	117_neutral	0.0		114.26972573712374	3.766551157905269
14.0	85.40092185651156	pulse	1.0	t		26.0	male	white	2.7966573816155993	neutral	117	sub-07	2.0	5.0	117_neutral	0.0		114.41983319649444	
14.0	86.10089740648618	pulse	1.0	t		26.0	male	white	2.7966573816155993	neutral	117	sub-07	2.0	5.0	117_neutral	0.0		115.11980874646906	
14.0	86.8008820120258	pulse	1.0	t		26.0	male	white	2.7966573816155993	neutral	117	sub-07	2.0	5.0	117_neutral	0.0		115.81979335200867	
14.0	87.50085363792186	pulse	1.0	t		26.0	male	white	2.7966573816155993	neutral	117	sub-07	2.0	5.0	117_neutral	0.0		116.51976497790474	
14.0	88.20083794160928	pulse	1.0	t		26.0	male	white	2.7966573816155993	neutral	117	sub-07	2.0	5.0	117_neutral	0.0		117.21974928159216	
14.0	88.9008219434445	pulse	1.0	t		26.0	male	white	2.7966573816155993	neutral	117	sub-07	2.0	5.0	117_neutral	0.0		117.91973328342738	
15.0	89.01736555504613	face	0.0		146	24.0	female	east_asian	4.409868682849185	smiling	030	sub-07	2.0	5.0	030_smiling	0.0		118.036276895029	1.2333042549080346
15.0	89.60077817488127	pulse	0.0	t		24.0	female	east_asian	4.409868682849185	smiling	030	sub-07	2.0	5.0	030_smiling	0.0		118.61968951486415	
15.0	90.25066980995416	fix	1.0		443	24.0	female	east_asian	4.409868682849185	smiling	030	sub-07	2.0	5.0	030_smiling	0.0		119.26958114993704	3.7581943807199423
15.0	90.3007854193329	pulse	1.0	t		24.0	female	east_asian	4.409868682849185	smiling	030	sub-07	2.0	5.0	030_smiling	0.0		119.31969675931578	
15.0	91.00075100818594	pulse	1.0	t		24.0	female	east_asian	4.409868682849185	smiling	030	sub-07	2.0	5.0	030_smiling	0.0		120.01966234816882	
15.0	91.70073712298654	pulse	1.0	t		24.0	female	east_asian	4.409868682849185	smiling	030	sub-07	2.0	5.0	030_smiling	0.0		120.71964846296942	
15.0	92.40071267296116	pulse	1.0	t		24.0	female	east_asian	4.409868682849185	smiling	030	sub-07	2.0	5.0	030_smiling	0.0		121.41962401294404	
15.0	93.10070542850917	pulse	1.0	t		24.0	female	east_asian	4.409868682849185	smiling	030	sub-07	2.0	5.0	030_smiling	0.0		122.11961676849205	
15.0	93.80067705440615	pulse	1.0	t		24.0	female	east_asian	4.409868682849185	smiling	030	sub-07	2.0	5.0	030_smiling	0.0		122.81958839438903	
16.0	94.0088641906741	face	0.0		146	40.0	female	west_asian	1.5777954635893354	smiling	038	sub-07	2.0	5.0	038_smiling	0.0		123.02777553065698	1.2416492598586046
16.0	94.50065622660622	pulse	0.0	t		40.0	female	west_asian	1.5777954635893354	smiling	038	sub-07	2.0	5.0	038_smiling	0.0		123.5195675665891	
16.0	95.20061819323382	pulse	0.0	t		40.0	female	west_asian	1.5777954635893354	smiling	038	sub-07	2.0	5.0	038_smiling	0.0		124.2195295332167	
16.0	95.25051345053271	fix	1.0		445	40.0	female	west_asian	1.5777954635893354	smiling	038	sub-07	2.0	5.0	038_smiling	0.0		124.26942479051559	3.7582058511025025
16.0	95.90061094878183	pulse	1.0	t		40.0	female	west_asian	1.5777954635893354	smiling	038	sub-07	2.0	5.0	038_smiling	0.0		124.91952228876471	
16.0	96.60059525246925	pulse	1.0	t		40.0	female	west_asian	1.5777954635893354	smiling	038	sub-07	2.0	5.0	038_smiling	0.0		125.61950659245213	
16.0	97.3005686894785	pulse	1.0	t		40.0	female	west_asian	1.5777954635893354	smiling	038	sub-07	2.0	5.0	038_smiling	0.0		126.31948002946137	
16.0	98.00054997464395	pulse	1.0	t		40.0	female	west_asian	1.5777954635893354	smiling	038	sub-07	2.0	5.0	038_smiling	0.0		127.01946131462682	
16.0	98.70052975054932	pulse	1.0	t		40.0	female	west_asian	1.5777954635893354	smiling	038	sub-07	2.0	5.0	038_smiling	0.0		127.7194410905322	
17.0	99.00871930163521	face	0.0		146	37.0	male	white	3.898925586947871	smiling	101	sub-07	2.0	5.0	101_smiling	0.0		128.0276306416181	1.2416489580054986
17.0	99.40050771534152	pulse	0.0	t		37.0	male	white	3.898925586947871	smiling	101	sub-07	2.0	5.0	101_smiling	0.0		128.4194190553244	
17.0	100.10048085049857	pulse	0.0	t		37.0	male	white	3.898925586947871	smiling	101	sub-07	2.0	5.0	101_smiling	0.0		129.11939219048145	
17.0	100.25036825964071	fix	1.0		445	37.0	male	white	3.898925586947871	smiling	101	sub-07	2.0	5.0	101_smiling	0.0		129.2692795996236	3.7583012363866146
17.0	100.80046726715136	pulse	1.0	t		37.0	male	white	3.898925586947871	smiling	101	sub-07	2.0	5.0	101_smiling	0.0		129.81937860713424	
17.0	101.50043738378645	pulse	1.0	t		37.0	male	white	3.898925586947871	smiling	101	sub-07	2.0	5.0	101_smiling	0.0		130.51934872376933	
17.0	102.20041715969182	pulse	1.0	t		37.0	male	white	3.898925586947871	smiling	101	sub-07	2.0	5.0	101_smiling	0.0		131.2193284996747	
17.0	102.90039995411826	pulse	1.0	t		37.0	male	white	3.898925586947871	smiling	101	sub-07	2.0	5.0	101_smiling	0.0		131.91931129410113	
17.0	103.6003821448403	pulse	1.0	t		37.0	male	white	3.898925586947871	smiling	101	sub-07	2.0	5.0	101_smiling	0.0		132.61929348482317	
18.0	104.00866949602732	face	0.0		146	28.0	male	white	3.9076800636689217	neutral	033	sub-07	2.0	5.0	033_neutral	0.0		133.0275808360102	1.2415511579056329
18.0	104.30036101518908	pulse	0.0	t		28.0	male	white	3.9076800636689217	neutral	033	sub-07	2.0	5.0	033_neutral	0.0		133.31927235517196	
18.0	105.0003133225473	pulse	0.0	t		28.0	male	white	3.9076800636689217	neutral	033	sub-07	2.0	5.0	033_neutral	0.0		134.01922466253018	
18.0	105.25022065393296	fix	1.0		444	28.0	male	white	3.9076800636689217	neutral	033	sub-07	2.0	5.0	033_neutral	0.0		134.26913199391583	3.766551459756556
18.0	105.70031724662567	pulse	1.0	t		28.0	male	white	3.9076800636689217	neutral	033	sub-07	2.0	5.0	033_neutral	0.0		134.71922858660855	
18.0	106.4003000410521	pulse	1.0	t		28.0	male	white	3.9076800636689217	neutral	033	sub-07	2.0	5.0	033_neutral	0.0		135.41921138103498	
18.0	107.10027196880037	pulse	1.0	t		28.0	male	white	3.9076800636689217	neutral	033	sub-07	2.0	5.0	033_neutral	0.0		136.11918330878325	
18.0	107.8002710632436	pulse	1.0	t		28.0	male	white	3.9076800636689217	neutral	033	sub-07	2.0	5.0	033_neutral	0.0		136.81918240322648	
18.0	108.50025838545298	pulse	1.0	t		28.0	male	white	3.9076800636689217	neutral	033	sub-07	2.0	5.0	033_neutral	0.0		137.51916972543586	
19.0	109.01677211368951	face	0.0		145	21.0	male	east_asian/white	3.501790688420215	neutral	036	sub-07	2.0	5.0	036_neutral	0.0		138.0356834536724	1.2333009345347818
19.0	109.20022035208058	pulse	0.0	t		21.0	male	east_asian/white	3.501790688420215	neutral	036	sub-07	2.0	5.0	036_neutral	0.0		138.21913169206346	
19.0	109.90019016686347	pulse	0.0	t		21.0	male	east_asian/white	3.501790688420215	neutral	036	sub-07	2.0	5.0	036_neutral	0.0		138.91910150684635	
19.0	110.2500730482243	fix	1.0		444	21.0	male	east_asian/white	3.501790688420215	neutral	036	sub-07	2.0	5.0	036_neutral	0.0		139.26898438820717	3.7665520634609493
19.0	110.60017537610747	pulse	1.0	t		21.0	male	east_asian/white	3.501790688420215	neutral	036	sub-07	2.0	5.0	036_neutral	0.0		139.61908671609035	
19.0	111.30014851126543	pulse	1.0	t		21.0	male	east_asian/white	3.501790688420215	neutral	036	sub-07	2.0	5.0	036_neutral	0.0		140.3190598512483	
19.0	112.0001358334739	pulse	1.0	t		21.0	male	east_asian/white	3.501790688420215	neutral	036	sub-07	2.0	5.0	036_neutral	0.0		141.01904717345678	
19.0	112.70010866677967	pulse	1.0	t		21.0	male	east_asian/white	3.501790688420215	neutral	036	sub-07	2.0	5.0	036_neutral	0.0		141.71902000676255	
19.0	113.40009598898814	pulse	1.0	t		21.0	male	east_asian/white	3.501790688420215	neutral	036	sub-07	2.0	5.0	036_neutral	0.0		142.41900732897102	
20.0	114.01662511168524	face	0.0		145	23.0	male	white	2.6275368085953046	neutral	141	sub-07	2.0	5.0	141_neutral	0.0		143.03553645166812	1.2332988215694058
20.0	114.10006761488512	pulse	0.0	t		23.0	male	white	2.6275368085953046	neutral	141	sub-07	2.0	5.0	141_neutral	0.0		143.118978954868	
20.0	114.80004950375496	pulse	0.0	t		23.0	male	white	2.6275368085953046	neutral	141	sub-07	2.0	5.0	141_neutral	0.0		143.81896084373784	
20.0	115.24992393325465	fix	1.0		1185	23.0	male	white	2.6275368085953046	neutral	141	sub-07	2.0	5.0	141_neutral	0.0		144.26883527323753	10.01636612252787
20.0	115.50003078892041	pulse	1.0	t		23.0	male	white	2.6275368085953046	neutral	141	sub-07	2.0	5.0	141_neutral	0.0		144.5189421289033	
20.0	116.20000271666959	pulse	1.0	t		23.0	male	white	2.6275368085953046	neutral	141	sub-07	2.0	5.0	141_neutral	0.0		145.21891405665247	
20.0	116.89998641665261	pulse	1.0	t		23.0	male	white	2.6275368085953046	neutral	141	sub-07	2.0	5.0	141_neutral	0.0		145.9188977566355	
20.0	117.59996317403602	pulse	1.0	t		23.0	male	white	2.6275368085953046	neutral	141	sub-07	2.0	5.0	141_neutral	0.0		146.6188745140189	
20.0	118.29994777957563	pulse	1.0	t		23.0	male	white	2.6275368085953046	neutral	141	sub-07	2.0	5.0	141_neutral	0.0		147.3188591195585	
20.0	118.99992483881124	pulse	1.0	t		23.0	male	white	2.6275368085953046	neutral	141	sub-07	2.0	5.0	141_neutral	0.0		148.01883617879412	
20.0	119.6998967665595	pulse	1.0	t		23.0	male	white	2.6275368085953046	neutral	141	sub-07	2.0	5.0	141_neutral	0.0		148.71880810654238	
20.0	120.39987956098594	pulse	1.0	t		23.0	male	white	2.6275368085953046	neutral	141	sub-07	2.0	5.0	141_neutral	0.0		149.41879090096882	
20.0	121.09985963874351	pulse	1.0	t		23.0	male	white	2.6275368085953046	neutral	141	sub-07	2.0	5.0	141_neutral	0.0		150.1187709787264	
20.0	121.79983428316154	pulse	1.0	t		23.0	male	white	2.6275368085953046	neutral	141	sub-07	2.0	5.0	141_neutral	0.0		150.81874562314442	
20.0	122.49981405906601	pulse	1.0	t		23.0	male	white	2.6275368085953046	neutral	141	sub-07	2.0	5.0	141_neutral	0.0		151.5187253990489	
20.0	123.19979866460562	pulse	1.0	t		23.0	male	white	2.6275368085953046	neutral	141	sub-07	2.0	5.0	141_neutral	0.0		152.2187100045885	
20.0	123.89977662939782	pulse	1.0	t		23.0	male	white	2.6275368085953046	neutral	141	sub-07	2.0	5.0	141_neutral	0.0		152.9186879693807	
20.0	124.59977662939764	pulse	1.0	t		23.0	male	white	2.6275368085953046	neutral	141	sub-07	2.0	5.0	141_neutral	0.0		153.61868796938052	
21.0	125.26629005578252	face	0.0		145	21.0	male	black	2.969757262236371	smiling	137	sub-07	2.0	5.0	137_smiling	0.0		154.2852013957654	1.2333000289772826
21.0	125.29975519789423	pulse	0.0	t		21.0	male	black	2.969757262236371	smiling	137	sub-07	2.0	5.0	137_smiling	0.0		154.3186665378771	
21.0	125.99971142933009	pulse	0.0	t		21.0	male	black	2.969757262236371	smiling	137	sub-07	2.0	5.0	137_smiling	0.0		155.01862276931297	
21.0	126.4995900847598	fix	1.0		443	21.0	male	black	2.969757262236371	smiling	137	sub-07	2.0	5.0	137_smiling	0.0		155.51850142474268	3.7665508560530725
21.0	126.69970056265265	pulse	1.0	t		21.0	male	black	2.969757262236371	smiling	137	sub-07	2.0	5.0	137_smiling	0.0		155.71861190263553	
21.0	127.39967098113993	pulse	1.0	t		21.0	male	black	2.969757262236371	smiling	137	sub-07	2.0	5.0	137_smiling	0.0		156.4185823211228	
21.0	128.09965377556728	pulse	1.0	t		21.0	male	black	2.969757262236371	smiling	137	sub-07	2.0	5.0	137_smiling	0.0		157.11856511555015	
21.0	128.7996368718459	pulse	1.0	t		21.0	male	black	2.969757262236371	smiling	137	sub-07	2.0	5.0	137_smiling	0.0		157.81854821182878	
21.0	129.49961272367273	pulse	1.0	t		21.0	male	black	2.969757262236371	smiling	137	sub-07	2.0	5.0	137_smiling	0.0		158.5185240636556	
21.0	130.19958616068197	pulse	1.0	t		21.0	male	black	2.969757262236371	smiling	137	sub-07	2.0	5.0	137_smiling	0.0		159.21849750066485	
22.0	130.26614094081287	face	0.0		146	32.0	male	white	2.389176283326701	smiling	092	sub-07	2.0	5.0	092_smiling	0.0		159.28505228079575	1.2333006326816758
22.0	130.89957136992598	pulse	0.0	t		32.0	male	white	2.389176283326701	smiling	092	sub-07	2.0	5.0	092_smiling	0.0		159.91848270990886	
22.0	131.49944157349455	fix	1.0		443	32.0	male	white	2.389176283326701	smiling	092	sub-07	2.0	5.0	092_smiling	0.0		160.51835291347743	3.758231206684286
22.0	131.5995623143608	pulse	1.0	t		32.0	male	white	2.389176283326701	smiling	092	sub-07	2.0	5.0	092_smiling	0.0		160.6184736543437	
22.0	132.29953454396127	pulse	1.0	t		32.0	male	white	2.389176283326701	smiling	092	sub-07	2.0	5.0	092_smiling	0.0		161.31844588394415	
22.0	132.99950707541484	pulse	1.0	t		32.0	male	white	2.389176283326701	smiling	092	sub-07	2.0	5.0	092_smiling	0.0		162.01841841539772	
22.0	133.6994880587281	pulse	1.0	t		32.0	male	white	2.389176283326701	smiling	092	sub-07	2.0	5.0	092_smiling	0.0		162.71839939871097	
22.0	134.39946934389445	pulse	1.0	t		32.0	male	white	2.389176283326701	smiling	092	sub-07	2.0	5.0	092_smiling	0.0		163.41838068387733	
22.0	135.0994430827559	pulse	1.0	t		32.0	male	white	2.389176283326701	smiling	092	sub-07	2.0	5.0	092_smiling	0.0		164.11835442273878	
23.0	135.25767278017884	face	0.0		147	20.0	female	white	3.9502586549940313	neutral	091	sub-07	2.0	5.0	091_neutral	0.0		164.27658412016171	1.2416251116856074
23.0	135.79944278090352	pulse	0.0	t		20.0	female	white	3.9502586549940313	neutral	091	sub-07	2.0	5.0	091_neutral	0.0		164.8183541208864	
23.0	136.49929789186444	fix	1.0		444	20.0	female	white	3.9502586549940313	neutral	091	sub-07	2.0	5.0	091_neutral	0.0		165.51820923184732	3.7665466301223205
23.0	136.50669930694767	pulse	1.0	t		20.0	female	white	3.9502586549940313	neutral	091	sub-07	2.0	5.0	091_neutral	0.0		165.52561064693055	
23.0	137.19938603269657	pulse	1.0	t		20.0	female	white	3.9502586549940313	neutral	091	sub-07	2.0	5.0	091_neutral	0.0		166.21829737267944	
23.0	137.8993618845234	pulse	1.0	t		20.0	female	white	3.9502586549940313	neutral	091	sub-07	2.0	5.0	091_neutral	0.0		166.91827322450627	
23.0	138.59934347154103	pulse	1.0	t		20.0	female	white	3.9502586549940313	neutral	091	sub-07	2.0	5.0	091_neutral	0.0		167.6182548115239	
23.0	139.29931992707225	pulse	1.0	t		20.0	female	white	3.9502586549940313	neutral	091	sub-07	2.0	5.0	091_neutral	0.0		168.31823126705513	
23.0	139.99929879742103	pulse	1.0	t		20.0	female	white	3.9502586549940313	neutral	091	sub-07	2.0	5.0	091_neutral	0.0		169.0182101374039	
24.0	140.26584452198676	face	0.0		145	27.0	male	black	3.5523278949462798	smiling	042	sub-07	2.0	5.0	042_smiling	0.0		169.28475586196964	1.2333006326825853
24.0	140.69929789186426	pulse	0.0	t		27.0	male	black	3.5523278949462798	smiling	042	sub-07	2.0	5.0	042_smiling	0.0		169.71820923184714	
24.0	141.39926680109147	pulse	0.0	t		27.0	male	black	3.5523278949462798	smiling	042	sub-07	2.0	5.0	042_smiling	0.0		170.41817814107435	
24.0	141.49914515466935	fix	1.0		445	27.0	male	black	3.5523278949462798	smiling	042	sub-07	2.0	5.0	042_smiling	0.0		170.51805649465223	3.774883485063583
24.0	142.09923178624013	pulse	1.0	t		27.0	male	black	3.5523278949462798	smiling	042	sub-07	2.0	5.0	042_smiling	0.0		171.118143126223	
24.0	142.7992435584747	pulse	1.0	t		27.0	male	black	3.5523278949462798	smiling	042	sub-07	2.0	5.0	042_smiling	0.0		171.81815489845758	
24.0	143.49920884547555	pulse	1.0	t		27.0	male	black	3.5523278949462798	smiling	042	sub-07	2.0	5.0	042_smiling	0.0		172.51812018545843	
24.0	144.19945032720807	pulse	1.0	t		27.0	male	black	3.5523278949462798	smiling	042	sub-07	2.0	5.0	042_smiling	0.0		173.21836166719095	
24.0	144.89915511579056	pulse	1.0	t		27.0	male	black	3.5523278949462798	smiling	042	sub-07	2.0	5.0	042_smiling	0.0		173.91806645577344	
25.0	145.27402863973293	face	0.0		145	28.0	female	white	5.676880222841227	neutral	124	sub-07	2.0	5.0	124_neutral	0.0		174.2929399797158	1.2333057641690175
25.0	145.59913579725162	pulse	0.0	t		28.0	female	white	5.676880222841227	neutral	124	sub-07	2.0	5.0	124_neutral	0.0		174.6180471372345	
25.0	146.299108026853	pulse	0.0	t		28.0	female	white	5.676880222841227	neutral	124	sub-07	2.0	5.0	124_neutral	0.0		175.31801936683587	
25.0	146.50733440390195	fix	1.0		444	28.0	female	white	5.676880222841227	neutral	124	sub-07	2.0	5.0	124_neutral	0.0		175.52624574388483	3.7665463282710334
25.0	146.99909565091366	pulse	1.0	t		28.0	female	white	5.676880222841227	neutral	124	sub-07	2.0	5.0	124_neutral	0.0		176.01800699089654	
25.0	147.69907361570586	pulse	1.0	t		28.0	female	white	5.676880222841227	neutral	124	sub-07	2.0	5.0	124_neutral	0.0		176.71798495568873	
25.0	148.39905399531563	pulse	1.0	t		28.0	female	white	5.676880222841227	neutral	124	sub-07	2.0	5.0	124_neutral	0.0		177.4179653352985	
25.0	149.0990253193595	pulse	1.0	t		28.0	female	white	5.676880222841227	neutral	124	sub-07	2.0	5.0	124_neutral	0.0		178.11793665934238	
25.0	149.79900600082146	pulse	1.0	t		28.0	female	white	5.676880222841227	neutral	124	sub-07	2.0	5.0	124_neutral	0.0		178.81791734080434	
26.0	150.27388073217298	face	0.0		145	31.0	male	west_asian	1.9538400318344609	smiling	070	sub-07	2.0	5.0	070_smiling	1.0	dominance	179.29279207215586	1.233299727125086
26.0	150.49899151191676	pulse	0.0	t		31.0	male	west_asian	1.9538400318344609	smiling	070	sub-07	2.0	5.0	070_smiling	1.0	dominance	179.51790285189963	
26.0	151.19896857115236	pulse	0.0	t		31.0	male	west_asian	1.9538400318344609	smiling	070	sub-07	2.0	5.0	070_smiling	1.0	dominance	180.21787991113524	
26.0	151.50718045929807	fix	1.0		177	31.0	male	west_asian	1.9538400318344609	smiling	070	sub-07	2.0	5.0	070_smiling	1.0	dominance	180.52609179928095	1.4999577406970275
26.0	151.89895046002312	pulse	1.0	t		31.0	male	west_asian	1.9538400318344609	smiling	070	sub-07	2.0	5.0	070_smiling	1.0	dominance	180.917861800006	
26.0	152.59892540629335	pulse	1.0	t		31.0	male	west_asian	1.9538400318344609	smiling	070	sub-07	2.0	5.0	070_smiling	1.0	dominance	181.61783674627623	
26.0	153.0071381999951	rating	2.0		294	31.0	male	west_asian	1.9538400318344609	smiling	070	sub-07	2.0	5.0	070_smiling	1.0	dominance	182.02604953997798	2.49992212214147
26.0	153.2989136340584	pulse	2.0	t		31.0	male	west_asian	1.9538400318344609	smiling	070	sub-07	2.0	5.0	070_smiling	1.0	dominance	182.3178249740413	
26.0	153.99888646736326	pulse	2.0	t		31.0	male	west_asian	1.9538400318344609	smiling	070	sub-07	2.0	5.0	070_smiling	1.0	dominance	183.01779780734614	
26.0	154.69886714882523	pulse	2.0	t		31.0	male	west_asian	1.9538400318344609	smiling	070	sub-07	2.0	5.0	070_smiling	1.0	dominance	183.7177784888081	
26.0	154.85718559078487	response	2.0	y		31.0	male	west_asian	1.9538400318344609	smiling	070	sub-07	2.0	5.0	070_smiling	1.0	dominance	183.87609693076774	
26.0	155.3988155321049	pulse	2.0	t		31.0	male	west_asian	1.9538400318344609	smiling	070	sub-07	2.0	5.0	070_smiling	1.0	dominance	184.41772687208777	
26.0	155.50706032213657	fix	3.0		444	31.0	male	west_asian	1.9538400318344609	smiling	070	sub-07	2.0	5.0	070_smiling	1.0	dominance	184.52597166211945	3.766552969017539
26.0	156.0988236821131	pulse	3.0	t		31.0	male	west_asian	1.9538400318344609	smiling	070	sub-07	2.0	5.0	070_smiling	1.0	dominance	185.11773502209599	
26.0	156.79879893023553	pulse	3.0	t		31.0	male	west_asian	1.9538400318344609	smiling	070	sub-07	2.0	5.0	070_smiling	1.0	dominance	185.8177102702184	
26.0	157.4987551616723	pulse	3.0	t		31.0	male	west_asian	1.9538400318344609	smiling	070	sub-07	2.0	5.0	070_smiling	1.0	dominance	186.51766650165519	
26.0	158.1987738765065	pulse	3.0	t		31.0	male	west_asian	1.9538400318344609	smiling	070	sub-07	2.0	5.0	070_smiling	1.0	dominance	187.21768521648937	
26.0	158.89874006906393	pulse	3.0	t		31.0	male	west_asian	1.9538400318344609	smiling	070	sub-07	2.0	5.0	070_smiling	1.0	dominance	187.9176514090468	
27.0	159.2736132911541	face	0.0		145	22.0	female	white	4.614007162753682	neutral	009	sub-07	2.0	5.0	009_neutral	0.0		188.29252463113698	1.2333006326825853
27.0	159.59871320422099	pulse	0.0	t		22.0	female	white	4.614007162753682	neutral	009	sub-07	2.0	5.0	009_neutral	0.0		188.61762454420386	
27.0	160.29869237642197	pulse	0.0	t		22.0	female	white	4.614007162753682	neutral	009	sub-07	2.0	5.0	009_neutral	0.0		189.31760371640485	
27.0	160.5069139238367	fix	1.0		444	22.0	female	white	4.614007162753682	neutral	009	sub-07	2.0	5.0	009_neutral	0.0		189.52582526381957	3.766552365313146
27.0	160.99870173383897	pulse	1.0	t		22.0	female	white	4.614007162753682	neutral	009	sub-07	2.0	5.0	009_neutral	0.0		190.01761307382185	
27.0	161.69865011711863	pulse	1.0	t		22.0	female	white	4.614007162753682	neutral	009	sub-07	2.0	5.0	009_neutral	0.0		190.7175614571015	
27.0	162.39863260969287	pulse	1.0	t		22.0	female	white	4.614007162753682	neutral	009	sub-07	2.0	5.0	009_neutral	0.0		191.41754394967575	
27.0	163.09861721523248	pulse	1.0	t		22.0	female	white	4.614007162753682	neutral	009	sub-07	2.0	5.0	009_neutral	0.0		192.11752855521536	
27.0	163.79859759484225	pulse	1.0	t		22.0	female	white	4.614007162753682	neutral	009	sub-07	2.0	5.0	009_neutral	0.0		192.81750893482513	
28.0	164.27346628914984	face	0.0		145	20.0	male	black	2.609629924393156	neutral	043	sub-07	2.0	5.0	043_neutral	0.0		193.29237762913272	1.2333000289781921
28.0	164.49857555963354	pulse	0.0	t		20.0	male	black	2.609629924393156	neutral	043	sub-07	2.0	5.0	043_neutral	0.0		193.51748689961642	
28.0	165.19854990220028	pulse	0.0	t		20.0	male	black	2.609629924393156	neutral	043	sub-07	2.0	5.0	043_neutral	0.0		194.21746124218316	
28.0	165.50676631812803	fix	1.0		444	20.0	male	black	2.609629924393156	neutral	043	sub-07	2.0	5.0	043_neutral	0.0		194.5256776581109	3.7665384801139226
28.0	165.89853692255656	pulse	1.0	t		20.0	male	black	2.609629924393156	neutral	043	sub-07	2.0	5.0	043_neutral	0.0		194.91744826253944	
28.0	166.59850703919255	pulse	1.0	t		20.0	male	black	2.609629924393156	neutral	043	sub-07	2.0	5.0	043_neutral	0.0		195.61741837917543	
28.0	167.29848651324482	pulse	1.0	t		20.0	male	black	2.609629924393156	neutral	043	sub-07	2.0	5.0	043_neutral	0.0		196.3173978532277	
28.0	167.9984653835936	pulse	1.0	t		20.0	male	black	2.609629924393156	neutral	043	sub-07	2.0	5.0	043_neutral	0.0		197.0173767235765	
28.0	168.69845059283762	pulse	1.0	t		20.0	male	black	2.609629924393156	neutral	043	sub-07	2.0	5.0	043_neutral	0.0		197.7173619328205	
29.0	169.27330479824195	face	0.0		145	36.0	female	white	2.7548746518105847	smiling	011	sub-07	2.0	5.0	011_smiling	0.0		198.29221613822483	1.2333118012120394
29.0	169.39843338726405	pulse	0.0	t		36.0	female	white	2.7548746518105847	smiling	011	sub-07	2.0	5.0	011_smiling	0.0		198.41734472724693	
29.0	170.098423124291	pulse	0.0	t		36.0	female	white	2.7548746518105847	smiling	011	sub-07	2.0	5.0	011_smiling	0.0		199.11733446427388	
29.0	170.506616599454	fix	1.0		444	36.0	female	white	2.7548746518105847	smiling	011	sub-07	2.0	5.0	011_smiling	0.0		199.52552793943687	3.7665200671317507
29.0	170.79838992055284	pulse	1.0	t		36.0	female	white	2.7548746518105847	smiling	011	sub-07	2.0	5.0	011_smiling	0.0		199.81730126053571	
29.0	171.49833166308508	pulse	1.0	t		36.0	female	white	2.7548746518105847	smiling	011	sub-07	2.0	5.0	011_smiling	0.0		200.51724300306796	
29.0	172.19834252976216	pulse	1.0	t		36.0	female	white	2.7548746518105847	smiling	011	sub-07	2.0	5.0	011_smiling	0.0		201.21725386974504	
29.0	172.89832230566753	pulse	1.0	t		36.0	female	white	2.7548746518105847	smiling	011	sub-07	2.0	5.0	011_smiling	0.0		201.9172336456504	
29.0	173.59830117601632	pulse	1.0	t		36.0	female	white	2.7548746518105847	smiling	011	sub-07	2.0	5.0	011_smiling	0.0		202.6172125159992	
30.0	174.27313666658574	face	0.0		145	31.0	female	east_asian	3.395941106247513	neutral	087	sub-07	2.0	5.0	087_neutral	1.0	trustworthiness	203.29204800656862	1.2333317234551942
30.0	174.29827793339973	pulse	0.0	t		31.0	female	east_asian	3.395941106247513	neutral	087	sub-07	2.0	5.0	087_neutral	1.0	trustworthiness	203.3171892733826	
30.0	174.99827672599076	pulse	0.0	t		31.0	female	east_asian	3.395941106247513	neutral	087	sub-07	2.0	5.0	087_neutral	1.0	trustworthiness	204.01718806597364	
30.0	175.50646839004094	fix	1.0		177	31.0	female	east_asian	3.395941106247513	neutral	087	sub-07	2.0	5.0	087_neutral	1.0	trustworthiness	204.52537973002381	1.4999462703153768
30.0	175.69826133153038	pulse	1.0	t		31.0	female	east_asian	3.395941106247513	neutral	087	sub-07	2.0	5.0	087_neutral	1.0	trustworthiness	204.71717267151325	
30.0	176.3982359759484	pulse	1.0	t		31.0	female	east_asian	3.395941106247513	neutral	087	sub-07	2.0	5.0	087_neutral	1.0	trustworthiness	205.4171473159313	
30.0	177.0064146603563	rating	2.0		294	31.0	female	east_asian	3.395941106247513	neutral	087	sub-07	2.0	5.0	087_neutral	1.0	trustworthiness	206.0253260003392	2.4999381203060693
30.0	177.09821303518402	pulse	2.0	t		31.0	female	east_asian	3.395941106247513	neutral	087	sub-07	2.0	5.0	087_neutral	1.0	trustworthiness	206.1171243751669	
30.0	177.79818103885464	pulse	2.0	t		31.0	female	east_asian	3.395941106247513	neutral	087	sub-07	2.0	5.0	087_neutral	1.0	trustworthiness	206.81709237883751	
30.0	178.49816564439425	pulse	2.0	t		31.0	female	east_asian	3.395941106247513	neutral	087	sub-07	2.0	5.0	087_neutral	1.0	trustworthiness	207.51707698437713	
30.0	178.94814542029872	response	2.0	g		31.0	female	east_asian	3.395941106247513	neutral	087	sub-07	2.0	5.0	087_neutral	1.0	trustworthiness	207.9670567602816	
30.0	179.1981224795345	pulse	2.0	t		31.0	female	east_asian	3.395941106247513	neutral	087	sub-07	2.0	5.0	087_neutral	1.0	trustworthiness	208.21703381951738	
30.0	179.50635278066238	fix	3.0		444	31.0	female	east_asian	3.395941106247513	neutral	087	sub-07	2.0	5.0	087_neutral	1.0	trustworthiness	208.52526412064526	3.758213699258704
30.0	179.89811825360448	pulse	3.0	t		31.0	female	east_asian	3.395941106247513	neutral	087	sub-07	2.0	5.0	087_neutral	1.0	trustworthiness	208.91702959358736	
30.0	180.59809591654357	pulse	3.0	t		31.0	female	east_asian	3.395941106247513	neutral	087	sub-07	2.0	5.0	087_neutral	1.0	trustworthiness	209.61700725652645	
30.0	181.2980793146744	pulse	3.0	t		31.0	female	east_asian	3.395941106247513	neutral	087	sub-07	2.0	5.0	087_neutral	1.0	trustworthiness	210.31699065465727	
30.0	181.99805365724114	pulse	3.0	t		31.0	female	east_asian	3.395941106247513	neutral	087	sub-07	2.0	5.0	087_neutral	1.0	trustworthiness	211.01696499722402	
30.0	182.69803132018023	pulse	3.0	t		31.0	female	east_asian	3.395941106247513	neutral	087	sub-07	2.0	5.0	087_neutral	1.0	trustworthiness	211.7169426601631	
31.0	183.2645664799211	face	0.0		146	25.0	female	black	3.858336649423	neutral	126	sub-07	2.0	5.0	126_neutral	0.0		212.28347781990396	1.2416332616930958
31.0	183.39801864238962	pulse	0.0	t		25.0	female	black	3.858336649423	neutral	126	sub-07	2.0	5.0	126_neutral	0.0		212.4169299823725	
31.0	184.09799177754667	pulse	0.0	t		25.0	female	black	3.858336649423	neutral	126	sub-07	2.0	5.0	126_neutral	0.0		213.11690311752955	
31.0	184.50619974161418	fix	1.0		444	25.0	female	black	3.858336649423	neutral	126	sub-07	2.0	5.0	126_neutral	0.0		213.52511108159706	3.766553874575038
31.0	184.79797366641742	pulse	1.0	t		25.0	female	black	3.858336649423	neutral	126	sub-07	2.0	5.0	126_neutral	0.0		213.8168850064003	
31.0	185.4979449904613	pulse	1.0	t		25.0	female	black	3.858336649423	neutral	126	sub-07	2.0	5.0	126_neutral	0.0		214.51685633044417	
31.0	186.19792537007106	pulse	1.0	t		25.0	female	black	3.858336649423	neutral	126	sub-07	2.0	5.0	126_neutral	0.0		215.21683671005394	
31.0	186.89790907005408	pulse	1.0	t		25.0	female	black	3.858336649423	neutral	126	sub-07	2.0	5.0	126_neutral	0.0		215.91682041003696	
31.0	187.59788250706333	pulse	1.0	t		25.0	female	black	3.858336649423	neutral	126	sub-07	2.0	5.0	126_neutral	0.0		216.6167938470462	
32.0	188.27275361618922	face	0.0		145	24.0	female	black	3.0955033824114606	neutral	099	sub-07	2.0	5.0	099_neutral	0.0		217.2916649561721	1.2332985197162998
32.0	188.29787405520256	pulse	0.0	t		24.0	female	black	3.0955033824114606	neutral	099	sub-07	2.0	5.0	099_neutral	0.0		217.31678539518543	
32.0	188.99784568109953	pulse	0.0	t		24.0	female	black	3.0955033824114606	neutral	099	sub-07	2.0	5.0	099_neutral	0.0		218.0167570210824	
32.0	189.50605213590552	fix	1.0		443	24.0	female	black	3.0955033824114606	neutral	099	sub-07	2.0	5.0	099_neutral	0.0		218.5249634758884	3.7581955881287286
32.0	189.6978257588562	pulse	1.0	t		24.0	female	black	3.0955033824114606	neutral	099	sub-07	2.0	5.0	099_neutral	0.0		218.71673709883908	
32.0	190.39781308106558	pulse	1.0	t		24.0	female	black	3.0955033824114606	neutral	099	sub-07	2.0	5.0	099_neutral	0.0		219.41672442104846	
32.0	191.097788329188	pulse	1.0	t		24.0	female	black	3.0955033824114606	neutral	099	sub-07	2.0	5.0	099_neutral	0.0		220.11669966917088	
32.0	191.79775603100643	pulse	1.0	t		24.0	female	black	3.0955033824114606	neutral	099	sub-07	2.0	5.0	099_neutral	0.0		220.8166673709893	
32.0	192.49775784211943	pulse	1.0	t		24.0	female	black	3.0955033824114606	neutral	099	sub-07	2.0	5.0	099_neutral	0.0		221.5166691821023	
32.0	193.1977216198593	pulse	1.0	t		24.0	female	black	3.0955033824114606	neutral	099	sub-07	2.0	5.0	099_neutral	0.0		222.21663295984217	
33.0	193.26424772403425	face	0.0		147	19.0	male	white	3.2522881018702745	neutral	018	sub-07	2.0	5.0	018_neutral	0.0		222.28315906401713	1.241655296902536
33.0	193.89770199946906	pulse	0.0	t		19.0	male	white	3.2522881018702745	neutral	018	sub-07	2.0	5.0	018_neutral	0.0		222.91661333945194	
33.0	194.50590302093678	fix	1.0		443	19.0	male	white	3.2522881018702745	neutral	018	sub-07	2.0	5.0	018_neutral	0.0		223.52481436091966	3.7665547801307184
33.0	194.59768268093012	pulse	1.0	t		19.0	male	white	3.2522881018702745	neutral	018	sub-07	2.0	5.0	018_neutral	0.0		223.616594020913	
33.0	195.29765672164376	pulse	1.0	t		19.0	male	white	3.2522881018702745	neutral	018	sub-07	2.0	5.0	018_neutral	0.0		224.31656806162664	
33.0	195.99763408273157	pulse	1.0	t		19.0	male	white	3.2522881018702745	neutral	018	sub-07	2.0	5.0	018_neutral	0.0		225.01654542271444	
33.0	196.6976162734536	pulse	1.0	t		19.0	male	white	3.2522881018702745	neutral	018	sub-07	2.0	5.0	018_neutral	0.0		225.71652761343648	
33.0	197.39759121972384	pulse	1.0	t		19.0	male	white	3.2522881018702745	neutral	018	sub-07	2.0	5.0	018_neutral	0.0		226.41650255970671	
33.0	198.0975800511942	pulse	1.0	t		19.0	male	white	3.2522881018702745	neutral	018	sub-07	2.0	5.0	018_neutral	0.0		227.11649139117708	
34.0	198.2724578010675	face	0.0		146	27.0	female	white	3.504576203740549	neutral	144	sub-07	2.0	5.0	144_neutral	1.0	trustworthiness	227.29136914105038	1.2416341672496856
34.0	198.79752964188265	pulse	0.0	t		27.0	female	white	3.504576203740549	neutral	144	sub-07	2.0	5.0	144_neutral	1.0	trustworthiness	227.81644098186553	
34.0	199.49753054743906	pulse	0.0	t		27.0	female	white	3.504576203740549	neutral	144	sub-07	2.0	5.0	144_neutral	1.0	trustworthiness	228.51644188742193	
34.0	199.5140919683172	fix	1.0		176	27.0	female	white	3.504576203740549	neutral	144	sub-07	2.0	5.0	144_neutral	1.0	trustworthiness	228.53300330830007	1.4916196783469786
34.0	200.19751062519663	pulse	1.0	t		27.0	female	white	3.504576203740549	neutral	144	sub-07	2.0	5.0	144_neutral	1.0	trustworthiness	229.2164219651795	
34.0	200.89749130665768	pulse	1.0	t		27.0	female	white	3.504576203740549	neutral	144	sub-07	2.0	5.0	144_neutral	1.0	trustworthiness	229.91640264664056	
34.0	201.00571164666417	rating	2.0		295	27.0	female	white	3.504576203740549	neutral	144	sub-07	2.0	5.0	144_neutral	1.0	trustworthiness	230.02462298664705	2.499978266643666
34.0	201.5974765159017	pulse	2.0	t		27.0	female	white	3.504576203740549	neutral	144	sub-07	2.0	5.0	144_neutral	1.0	trustworthiness	230.61638785588457	
34.0	202.29745176402412	pulse	2.0	t		27.0	female	white	3.504576203740549	neutral	144	sub-07	2.0	5.0	144_neutral	1.0	trustworthiness	231.316363104007	
34.0	202.99742761585094	pulse	2.0	t		27.0	female	white	3.504576203740549	neutral	144	sub-07	2.0	5.0	144_neutral	1.0	trustworthiness	232.01633895583382	
34.0	203.1390829127522	response	2.0	y		27.0	female	white	3.504576203740549	neutral	144	sub-07	2.0	5.0	144_neutral	1.0	trustworthiness	232.15799425273508	
34.0	203.50568991330783	fix	3.0		443	27.0	female	white	3.504576203740549	neutral	144	sub-07	2.0	5.0	144_neutral	1.0	trustworthiness	232.5246012532907	3.7581910603466895
34.0	203.6974161454682	pulse	3.0	t		27.0	female	white	3.504576203740549	neutral	144	sub-07	2.0	5.0	144_neutral	1.0	trustworthiness	232.71632748545107	
34.0	204.39738746951298	pulse	3.0	t		27.0	female	white	3.504576203740549	neutral	144	sub-07	2.0	5.0	144_neutral	1.0	trustworthiness	233.41629880949586	
34.0	205.09737599913024	pulse	3.0	t		27.0	female	white	3.504576203740549	neutral	144	sub-07	2.0	5.0	144_neutral	1.0	trustworthiness	234.11628733911311	
34.0	205.7973409842798	pulse	3.0	t		27.0	female	white	3.504576203740549	neutral	144	sub-07	2.0	5.0	144_neutral	1.0	trustworthiness	234.81625232426268	
34.0	206.49734671947044	pulse	3.0	t		27.0	female	white	3.504576203740549	neutral	144	sub-07	2.0	5.0	144_neutral	1.0	trustworthiness	235.51625805945332	
34.0	207.19730144164623	pulse	3.0	t		27.0	female	white	3.504576203740549	neutral	144	sub-07	2.0	5.0	144_neutral	1.0	trustworthiness	236.2162127816291	
35.0	207.26388097365452	face	0.0		147	21.0	male	black	2.969757262236371	neutral	137	sub-07	2.0	5.0	137_neutral	0.0		236.2827923136374	1.241608811667902
35.0	207.8972884620025	pulse	0.0	t		21.0	male	black	2.969757262236371	neutral	137	sub-07	2.0	5.0	137_neutral	0.0		236.91619980198539	
35.0	208.50548978532242	fix	1.0		443	21.0	male	black	2.969757262236371	neutral	137	sub-07	2.0	5.0	137_neutral	0.0		237.5244011253053	3.7665502523486794
35.0	208.59725465455995	pulse	1.0	t		21.0	male	black	2.969757262236371	neutral	137	sub-07	2.0	5.0	137_neutral	0.0		237.61616599454283	
35.0	209.29725827678612	pulse	1.0	t		21.0	male	black	2.969757262236371	neutral	137	sub-07	2.0	5.0	137_neutral	0.0		238.316169616769	
35.0	209.99721571563077	pulse	1.0	t		21.0	male	black	2.969757262236371	neutral	137	sub-07	2.0	5.0	137_neutral	0.0		239.01612705561365	
35.0	210.69721631933498	pulse	1.0	t		21.0	male	black	2.969757262236371	neutral	137	sub-07	2.0	5.0	137_neutral	0.0		239.71612765931786	
35.0	211.39719398227498	pulse	1.0	t		21.0	male	black	2.969757262236371	neutral	137	sub-07	2.0	5.0	137_neutral	0.0		240.41610532225786	
35.0	212.09716862669302	pulse	1.0	t		21.0	male	black	2.969757262236371	neutral	137	sub-07	2.0	5.0	137_neutral	0.0		241.1160799666759	
36.0	212.2720400376711	face	0.0		146	28.0	male	white	3.9076800636689217	smiling	033	sub-07	2.0	5.0	033_smiling	0.0		241.29095137765398	1.241635978362865
36.0	212.79714145999878	pulse	0.0	t		28.0	male	white	3.9076800636689217	smiling	033	sub-07	2.0	5.0	033_smiling	0.0		241.81605279998166	
36.0	213.49711640626901	pulse	0.0	t		28.0	male	white	3.9076800636689217	smiling	033	sub-07	2.0	5.0	033_smiling	0.0		242.5160277462519	
36.0	213.51367601603397	fix	1.0		443	28.0	male	white	3.9076800636689217	smiling	033	sub-07	2.0	5.0	033_smiling	0.0		242.53258735601685	3.749969814783981
36.0	214.19710433218188	pulse	1.0	t		28.0	male	white	3.9076800636689217	smiling	033	sub-07	2.0	5.0	033_smiling	0.0		243.21601567216476	
36.0	214.89707716548764	pulse	1.0	t		28.0	male	white	3.9076800636689217	smiling	033	sub-07	2.0	5.0	033_smiling	0.0		243.91598850547052	
36.0	215.5970503006447	pulse	1.0	t		28.0	male	white	3.9076800636689217	smiling	033	sub-07	2.0	5.0	033_smiling	0.0		244.61596164062757	
36.0	216.29703218951454	pulse	1.0	t		28.0	male	white	3.9076800636689217	smiling	033	sub-07	2.0	5.0	033_smiling	0.0		245.31594352949742	
36.0	216.99700924875015	pulse	1.0	t		28.0	male	white	3.9076800636689217	smiling	033	sub-07	2.0	5.0	033_smiling	0.0		246.01592058873302	
37.0	217.26364583081795	face	0.0		146	19.0	male	white	3.2522881018702745	smiling	018	sub-07	2.0	5.0	018_smiling	0.0		246.28255717080083	1.241545422713898
37.0	217.69699657095953	pulse	0.0	t		19.0	male	white	3.2522881018702745	smiling	018	sub-07	2.0	5.0	018_smiling	0.0		246.7159079109424	
37.0	218.3969766487162	pulse	0.0	t		19.0	male	white	3.2522881018702745	smiling	018	sub-07	2.0	5.0	018_smiling	0.0		247.41588798869907	
37.0	218.50519125353185	fix	1.0		444	19.0	male	white	3.2522881018702745	smiling	018	sub-07	2.0	5.0	018_smiling	0.0		247.52410259351473	3.7665517616087527
37.0	219.0969618579602	pulse	1.0	t		19.0	male	white	3.2522881018702745	smiling	018	sub-07	2.0	5.0	018_smiling	0.0		248.11587319794307	
37.0	219.79692623940537	pulse	1.0	t		19.0	male	white	3.2522881018702745	smiling	018	sub-07	2.0	5.0	018_smiling	0.0		248.81583757938824	
37.0	220.49690692086642	pulse	1.0	t		19.0	male	white	3.2522881018702745	smiling	018	sub-07	2.0	5.0	018_smiling	0.0		249.5158182608493	
37.0	221.19688518751082	pulse	1.0	t		19.0	male	white	3.2522881018702745	smiling	018	sub-07	2.0	5.0	018_smiling	0.0		250.2157965274937	
37.0	221.89686224674642	pulse	1.0	t		19.0	male	white	3.2522881018702745	smiling	018	sub-07	2.0	5.0	018_smiling	0.0		250.9157735867293	
38.0	222.2717430151406	face	0.0		145	26.0	female	white	4.854755272582572	smiling	027	sub-07	2.0	5.0	027_smiling	0.0		251.29065435512348	1.2333000289781921
38.0	222.59685107821588	pulse	0.0	t		26.0	female	white	4.854755272582572	smiling	027	sub-07	2.0	5.0	027_smiling	0.0		251.61576241819876	
38.0	223.29682451522513	pulse	0.0	t		26.0	female	white	4.854755272582572	smiling	027	sub-07	2.0	5.0	027_smiling	0.0		252.315735855208	
38.0	223.5050430441188	fix	1.0		444	26.0	female	white	4.854755272582572	smiling	027	sub-07	2.0	5.0	027_smiling	0.0		252.52395438410167	3.7665511579043596
38.0	223.99680700780027	pulse	1.0	t		26.0	female	white	4.854755272582572	smiling	027	sub-07	2.0	5.0	027_smiling	0.0		253.01571834778315	
38.0	224.69678497259156	pulse	1.0	t		26.0	female	white	4.854755272582572	smiling	027	sub-07	2.0	5.0	027_smiling	0.0		253.71569631257444	
38.0	225.39674573181037	pulse	1.0	t		26.0	female	white	4.854755272582572	smiling	027	sub-07	2.0	5.0	027_smiling	0.0		254.41565707179325	
38.0	226.09707203400103	pulse	1.0	t		26.0	female	white	4.854755272582572	smiling	027	sub-07	2.0	5.0	027_smiling	0.0		255.1159833739839	
38.0	226.79672007437603	pulse	1.0	t		26.0	female	white	4.854755272582572	smiling	027	sub-07	2.0	5.0	027_smiling	0.0		255.8156314143589	
39.0	227.27159420202315	face	0.0		145	22.0	female	west_asian	3.8205332272184642	neutral	066	sub-07	2.0	5.0	066_neutral	0.0		256.29050554200603	1.2333009345347818
39.0	227.49670498176783	pulse	0.0	t		22.0	female	west_asian	3.8205332272184642	neutral	066	sub-07	2.0	5.0	066_neutral	0.0		256.5156163217507	
39.0	228.19667902248148	pulse	0.0	t		22.0	female	west_asian	3.8205332272184642	neutral	066	sub-07	2.0	5.0	066_neutral	0.0		257.21559036246435	
39.0	228.50489513655793	fix	1.0		444	22.0	female	west_asian	3.8205332272184642	neutral	066	sub-07	2.0	5.0	066_neutral	0.0		257.5238064765408	3.7498880128468954
39.0	228.89666121320442	pulse	1.0	t		22.0	female	west_asian	3.8205332272184642	neutral	066	sub-07	2.0	5.0	066_neutral	0.0		257.9155725531873	
39.0	229.5966409891089	pulse	1.0	t		22.0	female	west_asian	3.8205332272184642	neutral	066	sub-07	2.0	5.0	066_neutral	0.0		258.61555232909177	
39.0	230.29661593537912	pulse	1.0	t		22.0	female	west_asian	3.8205332272184642	neutral	066	sub-07	2.0	5.0	066_neutral	0.0		259.315527275362	
39.0	230.99659420202352	pulse	1.0	t		22.0	female	west_asian	3.8205332272184642	neutral	066	sub-07	2.0	5.0	066_neutral	0.0		260.0155055420064	
39.0	231.6965724686679	pulse	1.0	t		22.0	female	west_asian	3.8205332272184642	neutral	066	sub-07	2.0	5.0	066_neutral	0.0		260.7154838086508	
40.0	232.25478314940483	fix	0.0		720													261.2736944893877	5.999820096109943
40.0	232.39656190384176	pulse	0.0	t														261.41547324382464	
40.0	233.09654137789494	pulse	0.0	t														262.1154527178778	
40.0	233.796514513052	pulse	0.0	t														262.81542585303487	
40.0	234.4964915722876	pulse	0.0	t														263.5154029122705	
40.0	235.19647014078419	pulse	0.0	t														264.21538148076706	
40.0	235.89644840742767	pulse	0.0	t														264.91535974741055	
40.0	236.59642667407206	pulse	0.0	t														265.61533801405494	
40.0	237.29640282775108	pulse	0.0	t														266.31531416773396	
40.0	237.9963862258819	pulse	0.0	t														267.0152975658648	
