trial_nr	onset	event_type	phase	response	nr_frames	face_age	face_sex	face_eth	attractiveness	expression	face_id	sub_id	ses	run	trial_type	catch	rating_type	onset_abs	duration
-1.0	0.05587017306288544	fix	0.0		714													22.2132776671142	5.96635818018467
-1.0	0.7057634217881059	pulse	0.0	t														22.86317091583942	
-1.0	1.4057538529618796	pulse	0.0	t														23.563161347013192	
-1.0	2.105737341454187	pulse	0.0	t														24.2631448355055	
-1.0	2.8057274707721263	pulse	0.0	t														24.96313496482344	
-1.0	3.505709148129881	pulse	0.0	t														25.663116642181194	
-1.0	4.205702296005256	pulse	0.0	t														26.36310979005657	
-1.0	4.905715064502147	pulse	0.0	t														27.06312255855346	
-1.0	5.605667461855319	pulse	0.0	t														27.76307495590663	
0.0	6.022228353247556	face	0.0		144	27.0	female	white	3.504576203740549	neutral	144	sub-15	1.0	4.0	144_neutral	0.0		28.17963584729887	1.2333184719700512
0.0	6.305670570969141	pulse	0.0	t		27.0	female	white	3.504576203740549	neutral	144	sub-15	1.0	4.0	144_neutral	0.0		28.463078065020454	
0.0	7.005650739048633	pulse	0.0	t		27.0	female	white	3.504576203740549	neutral	144	sub-15	1.0	4.0	144_neutral	0.0		29.163058233099946	
0.0	7.255546825217607	fix	1.0		445	27.0	female	white	3.504576203740549	neutral	144	sub-15	1.0	4.0	144_neutral	0.0		29.41295431926892	3.758257640496595
0.0	7.705633020118057	pulse	1.0	t		27.0	female	white	3.504576203740549	neutral	144	sub-15	1.0	4.0	144_neutral	0.0		29.86304051416937	
0.0	8.405633714386113	pulse	1.0	t		27.0	female	white	3.504576203740549	neutral	144	sub-15	1.0	4.0	144_neutral	0.0		30.563041208437426	
0.0	9.105635616077052	pulse	1.0	t		27.0	female	white	3.504576203740549	neutral	144	sub-15	1.0	4.0	144_neutral	0.0		31.263043110128365	
0.0	9.805594352400476	pulse	1.0	t		27.0	female	white	3.504576203740549	neutral	144	sub-15	1.0	4.0	144_neutral	0.0		31.96300184645179	
0.0	10.505594744812697	pulse	1.0	t		27.0	female	white	3.504576203740549	neutral	144	sub-15	1.0	4.0	144_neutral	0.0		32.66300223886401	
1.0	11.013804465714202	face	0.0		146	36.0	female	white	2.7548746518105847	smiling	011	sub-15	1.0	4.0	011_smiling	0.0		33.171211959765515	1.2416457656736384
1.0	11.205583062996539	pulse	0.0	t		36.0	female	white	2.7548746518105847	smiling	011	sub-15	1.0	4.0	011_smiling	0.0		33.36299055704785	
1.0	11.905569871901662	pulse	0.0	t		36.0	female	white	2.7548746518105847	smiling	011	sub-15	1.0	4.0	011_smiling	0.0		34.062977365952975	
1.0	12.25545023138784	fix	1.0		444	36.0	female	white	2.7548746518105847	smiling	011	sub-15	1.0	4.0	011_smiling	0.0		34.41285772543915	3.75826548874511
1.0	12.605559397508387	pulse	1.0	t		36.0	female	white	2.7548746518105847	smiling	011	sub-15	1.0	4.0	011_smiling	0.0		34.7629668915597	
1.0	13.30554288600024	pulse	1.0	t		36.0	female	white	2.7548746518105847	smiling	011	sub-15	1.0	4.0	011_smiling	0.0		35.46295038005155	
1.0	14.005533015318179	pulse	1.0	t		36.0	female	white	2.7548746518105847	smiling	011	sub-15	1.0	4.0	011_smiling	0.0		36.16294050936949	
1.0	14.705513485253505	pulse	1.0	t		36.0	female	white	2.7548746518105847	smiling	011	sub-15	1.0	4.0	011_smiling	0.0		36.86292097930482	
1.0	15.405503010859775	pulse	1.0	t		36.0	female	white	2.7548746518105847	smiling	011	sub-15	1.0	4.0	011_smiling	0.0		37.56291050491109	
2.0	16.01371572013295	face	0.0		146	20.0	female	white	3.9502586549940313	neutral	091	sub-15	1.0	4.0	091_neutral	0.0		38.17112321418426	1.241650897220552
2.0	16.105498271725082	pulse	0.0	t		20.0	female	white	3.9502586549940313	neutral	091	sub-15	1.0	4.0	091_neutral	0.0		38.262905765776395	
2.0	16.80548176021739	pulse	0.0	t		20.0	female	white	3.9502586549940313	neutral	091	sub-15	1.0	4.0	091_neutral	0.0		38.9628892542687	
2.0	17.255366617353502	fix	1.0		444	20.0	female	white	3.9502586549940313	neutral	091	sub-15	1.0	4.0	091_neutral	0.0		39.412774111404815	3.7582579423524294
2.0	17.505472493246998	pulse	1.0	t		20.0	female	white	3.9502586549940313	neutral	091	sub-15	1.0	4.0	091_neutral	0.0		39.66287998729831	
2.0	18.205462320709103	pulse	1.0	t		20.0	female	white	3.9502586549940313	neutral	091	sub-15	1.0	4.0	091_neutral	0.0		40.362869814760415	
2.0	18.90544943147006	pulse	1.0	t		20.0	female	white	3.9502586549940313	neutral	091	sub-15	1.0	4.0	091_neutral	0.0		41.06285692552137	
2.0	19.605425977280447	pulse	1.0	t		20.0	female	white	3.9502586549940313	neutral	091	sub-15	1.0	4.0	091_neutral	0.0		41.76283347133176	
2.0	20.30542063443454	pulse	1.0	t		20.0	female	white	3.9502586549940313	neutral	091	sub-15	1.0	4.0	091_neutral	0.0		42.46282812848585	
3.0	21.01362455970593	face	0.0		147	19.0	female	white	4.298846000795861	smiling	100	sub-15	1.0	4.0	100_smiling	0.0		43.171032053757244	1.2416551232008715
3.0	21.006424998966395	pulse	0.0	t		19.0	female	white	4.298846000795861	smiling	100	sub-15	1.0	4.0	100_smiling	0.0		43.16383249301771	
3.0	21.7053993837917	pulse	0.0	t		19.0	female	white	4.298846000795861	smiling	100	sub-15	1.0	4.0	100_smiling	0.0		43.86280687784301	
3.0	22.255279682906803	fix	1.0		443	19.0	female	white	4.298846000795861	smiling	100	sub-15	1.0	4.0	100_smiling	0.0		44.412687176958116	3.7582618664764595
3.0	22.405390418677143	pulse	1.0	t		19.0	female	white	4.298846000795861	smiling	100	sub-15	1.0	4.0	100_smiling	0.0		44.562797912728456	
3.0	23.105372699746567	pulse	1.0	t		19.0	female	white	4.298846000795861	smiling	100	sub-15	1.0	4.0	100_smiling	0.0		45.26278019379788	
3.0	23.805362225352837	pulse	1.0	t		19.0	female	white	4.298846000795861	smiling	100	sub-15	1.0	4.0	100_smiling	0.0		45.96276971940415	
3.0	24.505348430546746	pulse	1.0	t		19.0	female	white	4.298846000795861	smiling	100	sub-15	1.0	4.0	100_smiling	0.0		46.66275592459806	
3.0	25.20533101347155	pulse	1.0	t		19.0	female	white	4.298846000795861	smiling	100	sub-15	1.0	4.0	100_smiling	0.0		47.36273850752286	
3.0	25.905322350212373	pulse	1.0	t		19.0	female	white	4.298846000795861	smiling	100	sub-15	1.0	4.0	100_smiling	0.0		48.062729844263686	
4.0	26.013541549383262	face	0.0		147	34.0	male	white	2.651014723438122	smiling	121	sub-15	1.0	4.0	121_smiling	0.0		48.170949043434575	1.241653915777988
4.0	26.605315196231913	pulse	0.0	t		34.0	male	white	2.651014723438122	smiling	121	sub-15	1.0	4.0	121_smiling	0.0		48.762722690283226	
4.0	27.25519546516125	fix	1.0		443	34.0	male	white	2.651014723438122	smiling	121	sub-15	1.0	4.0	121_smiling	0.0		49.41260295921256	3.758245868123595
4.0	27.305302005137037	pulse	1.0	t		34.0	male	white	2.651014723438122	smiling	121	sub-15	1.0	4.0	121_smiling	0.0		49.46270949918835	
4.0	28.00529968084811	pulse	1.0	t		34.0	male	white	2.651014723438122	smiling	121	sub-15	1.0	4.0	121_smiling	0.0		50.162707174899424	
4.0	28.705272302534468	pulse	1.0	t		34.0	male	white	2.651014723438122	smiling	121	sub-15	1.0	4.0	121_smiling	0.0		50.86267979658578	
4.0	29.405265148554008	pulse	1.0	t		34.0	male	white	2.651014723438122	smiling	121	sub-15	1.0	4.0	121_smiling	0.0		51.56267264260532	
4.0	30.10525195745913	pulse	1.0	t		34.0	male	white	2.651014723438122	smiling	121	sub-15	1.0	4.0	121_smiling	0.0		52.262659451510444	
4.0	30.80526291482147	pulse	1.0	t		34.0	male	white	2.651014723438122	smiling	121	sub-15	1.0	4.0	121_smiling	0.0		52.96267040887278	
5.0	31.013441333284845	face	0.0		146	30.0	female	black	2.7345801830481498	neutral	062	sub-15	1.0	4.0	062_neutral	0.0		53.17084882733616	1.2416711215537362
5.0	31.505231612383795	pulse	0.0	t		30.0	female	black	2.7345801830481498	neutral	062	sub-15	1.0	4.0	062_neutral	0.0		53.66263910643511	
5.0	32.205213893452765	pulse	0.0	t		30.0	female	black	2.7345801830481498	neutral	062	sub-15	1.0	4.0	062_neutral	0.0		54.36262138750408	
5.0	32.25511245483858	fix	1.0		444	30.0	female	black	2.7345801830481498	neutral	062	sub-15	1.0	4.0	062_neutral	0.0		54.412519948889894	3.7582446607007114
5.0	32.90520643761647	pulse	1.0	t		30.0	female	black	2.7345801830481498	neutral	062	sub-15	1.0	4.0	062_neutral	0.0		55.062613931667784	
5.0	33.605201094770564	pulse	1.0	t		30.0	female	black	2.7345801830481498	neutral	062	sub-15	1.0	4.0	062_neutral	0.0		55.76260858882188	
5.0	34.30521265584457	pulse	1.0	t		30.0	female	black	2.7345801830481498	neutral	062	sub-15	1.0	4.0	062_neutral	0.0		56.46262014989588	
5.0	35.00516475134191	pulse	1.0	t		30.0	female	black	2.7345801830481498	neutral	062	sub-15	1.0	4.0	062_neutral	0.0		57.16257224539322	
5.0	35.70515518251568	pulse	1.0	t		30.0	female	black	2.7345801830481498	neutral	062	sub-15	1.0	4.0	062_neutral	0.0		57.862562676566995	
6.0	36.01335711553929	face	0.0		146	40.0	female	west_asian	1.5777954635893354	smiling	038	sub-15	1.0	4.0	038_smiling	0.0		58.170764609590606	1.24166417887227
6.0	36.40514531183362	pulse	0.0	t		40.0	female	west_asian	1.5777954635893354	smiling	038	sub-15	1.0	4.0	038_smiling	0.0		58.562552805884934	
6.0	37.10512819661426	pulse	0.0	t		40.0	female	west_asian	1.5777954635893354	smiling	038	sub-15	1.0	4.0	038_smiling	0.0		59.26253569066557	
6.0	37.25502129441156	fix	1.0		444	40.0	female	west_asian	1.5777954635893354	smiling	038	sub-15	1.0	4.0	038_smiling	0.0		59.412428788462876	3.7582648850338956
6.0	37.8051192314997	pulse	1.0	t		40.0	female	west_asian	1.5777954635893354	smiling	038	sub-15	1.0	4.0	038_smiling	0.0		59.962526725551015	
6.0	38.505106945971875	pulse	1.0	t		40.0	female	west_asian	1.5777954635893354	smiling	038	sub-15	1.0	4.0	038_smiling	0.0		60.66251444002319	
6.0	39.20508832147425	pulse	1.0	t		40.0	female	west_asian	1.5777954635893354	smiling	038	sub-15	1.0	4.0	038_smiling	0.0		61.36249581552556	
6.0	39.90510048625947	pulse	1.0	t		40.0	female	west_asian	1.5777954635893354	smiling	038	sub-15	1.0	4.0	038_smiling	0.0		62.062507980310784	
6.0	40.60506616526436	pulse	1.0	t		40.0	female	west_asian	1.5777954635893354	smiling	038	sub-15	1.0	4.0	038_smiling	0.0		62.762473659315674	
7.0	41.01328617944546	face	0.0		146	19.0	male	white	3.2522881018702745	smiling	018	sub-15	1.0	4.0	018_smiling	0.0		63.17069367349677	1.241647576808191
7.0	41.305060520562165	pulse	0.0	t		19.0	male	white	3.2522881018702745	smiling	018	sub-15	1.0	4.0	018_smiling	0.0		63.46246801461348	
7.0	42.00504249977621	pulse	0.0	t		19.0	male	white	3.2522881018702745	smiling	018	sub-15	1.0	4.0	018_smiling	0.0		64.16244999382752	
7.0	42.25493375625365	fix	1.0		444	19.0	male	white	3.2522881018702745	smiling	018	sub-15	1.0	4.0	018_smiling	0.0		64.41234125030496	3.7583747605149256
7.0	42.7050290068255	pulse	1.0	t		19.0	male	white	3.2522881018702745	smiling	018	sub-15	1.0	4.0	018_smiling	0.0		64.86243650087681	
7.0	43.405055358829486	pulse	1.0	t		19.0	male	white	3.2522881018702745	smiling	018	sub-15	1.0	4.0	018_smiling	0.0		65.5624628528808	
7.0	44.105030093505775	pulse	1.0	t		19.0	male	white	3.2522881018702745	smiling	018	sub-15	1.0	4.0	018_smiling	0.0		66.26243758755709	
7.0	44.805012072719364	pulse	1.0	t		19.0	male	white	3.2522881018702745	smiling	018	sub-15	1.0	4.0	018_smiling	0.0		66.96241956677068	
7.0	45.50498318512746	pulse	1.0	t		19.0	male	white	3.2522881018702745	smiling	018	sub-15	1.0	4.0	018_smiling	0.0		67.66239067917877	
8.0	46.013308516768575	face	0.0		146	21.0	male	black	2.969757262236371	smiling	137	sub-15	1.0	4.0	137_smiling	0.0		68.17071601081989	1.2415443421523378
8.0	46.20497723856988	pulse	0.0	t		21.0	male	black	2.969757262236371	smiling	137	sub-15	1.0	4.0	137_smiling	0.0		68.3623847326212	
8.0	46.90498910149927	pulse	0.0	t		21.0	male	black	2.969757262236371	smiling	137	sub-15	1.0	4.0	137_smiling	0.0		69.06239659555058	
8.0	47.25485285892091	fix	1.0		444	21.0	male	black	2.969757262236371	smiling	137	sub-15	1.0	4.0	137_smiling	0.0		69.41226035297223	3.758330387724527
8.0	47.60495025266846	pulse	1.0	t		21.0	male	black	2.969757262236371	smiling	137	sub-15	1.0	4.0	137_smiling	0.0		69.76235774671977	
8.0	48.30493253373788	pulse	1.0	t		21.0	male	black	2.969757262236371	smiling	137	sub-15	1.0	4.0	137_smiling	0.0		70.4623400277892	
8.0	49.00492658718031	pulse	1.0	t		21.0	male	black	2.969757262236371	smiling	137	sub-15	1.0	4.0	137_smiling	0.0		71.16233408123162	
8.0	49.70491007567216	pulse	1.0	t		21.0	male	black	2.969757262236371	smiling	137	sub-15	1.0	4.0	137_smiling	0.0		71.86231756972347	
8.0	50.40489929942305	pulse	1.0	t		21.0	male	black	2.969757262236371	smiling	137	sub-15	1.0	4.0	137_smiling	0.0		72.56230679347436	
9.0	51.01318324664544	face	0.0		146	32.0	male	white	2.389176283326701	smiling	092	sub-15	1.0	4.0	092_smiling	0.0		73.17059074069675	1.2415787537042888
9.0	51.10488761760689	pulse	0.0	t		32.0	male	white	2.389176283326701	smiling	092	sub-15	1.0	4.0	092_smiling	0.0		73.2622951116582	
9.0	51.80486688011888	pulse	0.0	t		32.0	male	white	2.389176283326701	smiling	092	sub-15	1.0	4.0	092_smiling	0.0		73.96227437417019	
9.0	52.25476200034973	fix	1.0		444	32.0	male	white	2.389176283326701	smiling	092	sub-15	1.0	4.0	092_smiling	0.0		74.41216949440104	3.766587349045494
9.0	52.50486576325284	pulse	1.0	t		32.0	male	white	2.389176283326701	smiling	092	sub-15	1.0	4.0	092_smiling	0.0		74.66227325730415	
9.0	53.20485498700373	pulse	1.0	t		32.0	male	white	2.389176283326701	smiling	092	sub-15	1.0	4.0	092_smiling	0.0		75.36226248105504	
9.0	53.904865642510686	pulse	1.0	t		32.0	male	white	2.389176283326701	smiling	092	sub-15	1.0	4.0	092_smiling	0.0		76.062273136562	
9.0	54.60482468068949	pulse	1.0	t		32.0	male	white	2.389176283326701	smiling	092	sub-15	1.0	4.0	092_smiling	0.0		76.7622321747408	
9.0	55.304810584027564	pulse	1.0	t		32.0	male	white	2.389176283326701	smiling	092	sub-15	1.0	4.0	092_smiling	0.0		77.46221807807888	
10.0	56.02134934939522	face	0.0		146	24.0	male	white	3.1153999204138483	smiling	012	sub-15	1.0	4.0	012_smiling	0.0		78.17875684344654	1.233325716507352
10.0	56.00736739251897	pulse	0.0	t		24.0	male	white	3.1153999204138483	smiling	012	sub-15	1.0	4.0	012_smiling	0.0		78.16477488657029	
10.0	56.704792955653375	pulse	0.0	t		24.0	male	white	3.1153999204138483	smiling	012	sub-15	1.0	4.0	012_smiling	0.0		78.86220044970469	
10.0	57.254675065902575	fix	1.0		443	24.0	male	white	3.1153999204138483	smiling	012	sub-15	1.0	4.0	012_smiling	0.0		79.41208255995389	3.7582600553423617
10.0	57.40478338682715	pulse	1.0	t		24.0	male	white	3.1153999204138483	smiling	012	sub-15	1.0	4.0	012_smiling	0.0		79.56219088087846	
10.0	58.10476868645401	pulse	1.0	t		24.0	male	white	3.1153999204138483	smiling	012	sub-15	1.0	4.0	012_smiling	0.0		80.26217618050532	
10.0	58.80475730649323	pulse	1.0	t		24.0	male	white	3.1153999204138483	smiling	012	sub-15	1.0	4.0	012_smiling	0.0		80.96216480054454	
10.0	59.504753472925586	pulse	1.0	t		24.0	male	white	3.1153999204138483	smiling	012	sub-15	1.0	4.0	012_smiling	0.0		81.6621609669769	
10.0	60.20473484842796	pulse	1.0	t		24.0	male	white	3.1153999204138483	smiling	012	sub-15	1.0	4.0	012_smiling	0.0		82.36214234247927	
10.0	60.90473795754178	pulse	1.0	t		24.0	male	white	3.1153999204138483	smiling	012	sub-15	1.0	4.0	012_smiling	0.0		83.0621454515931	
11.0	61.01293512124494	face	0.0		147	24.0	female	east_asian	2.9076800636689217	smiling	034	sub-15	1.0	4.0	034_smiling	0.0		83.17034261529625	1.2416590473253564
11.0	61.60470786252654	pulse	0.0	t		24.0	female	east_asian	2.9076800636689217	smiling	034	sub-15	1.0	4.0	034_smiling	0.0		83.76211535657785	
11.0	62.25459416857029	fix	1.0		444	24.0	female	east_asian	2.9076800636689217	smiling	034	sub-15	1.0	4.0	034_smiling	0.0		84.4120016626216	3.758244962556091
11.0	62.30471610318773	pulse	1.0	t		24.0	female	east_asian	2.9076800636689217	smiling	034	sub-15	1.0	4.0	034_smiling	0.0		84.46212359723904	
11.0	63.0046992898242	pulse	1.0	t		24.0	female	east_asian	2.9076800636689217	smiling	034	sub-15	1.0	4.0	034_smiling	0.0		85.16210678387552	
11.0	63.70466677996319	pulse	1.0	t		24.0	female	east_asian	2.9076800636689217	smiling	034	sub-15	1.0	4.0	034_smiling	0.0		85.8620742740145	
11.0	64.40465992783857	pulse	1.0	t		24.0	female	east_asian	2.9076800636689217	smiling	034	sub-15	1.0	4.0	034_smiling	0.0		86.56206742188988	
11.0	65.10464522746497	pulse	1.0	t		24.0	female	east_asian	2.9076800636689217	smiling	034	sub-15	1.0	4.0	034_smiling	0.0		87.26205272151628	
11.0	65.80463143265888	pulse	1.0	t		24.0	female	east_asian	2.9076800636689217	smiling	034	sub-15	1.0	4.0	034_smiling	0.0		87.96203892671019	
12.0	66.01283913112638	face	0.0		146	28.0	male	east_asian	1.5563072025467568	neutral	005	sub-15	1.0	4.0	005_neutral	0.0		88.1702466251777	1.2416620658827924
12.0	66.50462095826515	pulse	0.0	t		28.0	male	east_asian	1.5563072025467568	neutral	005	sub-15	1.0	4.0	005_neutral	0.0		88.66202845231646	
12.0	67.20460746531444	pulse	0.0	t		28.0	male	east_asian	1.5563072025467568	neutral	005	sub-15	1.0	4.0	005_neutral	0.0		89.36201495936575	
12.0	67.25450119700918	fix	1.0		444	28.0	male	east_asian	1.5563072025467568	neutral	005	sub-15	1.0	4.0	005_neutral	0.0		89.41190869106049	3.7665571634738626
12.0	67.90459759463283	pulse	1.0	t		28.0	male	east_asian	1.5563072025467568	neutral	005	sub-15	1.0	4.0	005_neutral	0.0		90.06200508868415	
12.0	68.60460825013934	pulse	1.0	t		28.0	male	east_asian	1.5563072025467568	neutral	005	sub-15	1.0	4.0	005_neutral	0.0		90.76201574419065	
12.0	69.30456819388564	pulse	1.0	t		28.0	male	east_asian	1.5563072025467568	neutral	005	sub-15	1.0	4.0	005_neutral	0.0		91.46197568793696	
12.0	70.00455771949237	pulse	1.0	t		28.0	male	east_asian	1.5563072025467568	neutral	005	sub-15	1.0	4.0	005_neutral	0.0		92.16196521354368	
12.0	70.70454120798468	pulse	1.0	t		28.0	male	east_asian	1.5563072025467568	neutral	005	sub-15	1.0	4.0	005_neutral	0.0		92.86194870203599	
13.0	71.02105836048304	face	0.0		145	22.0	female	west_asian	3.8205332272184642	neutral	066	sub-15	1.0	4.0	066_neutral	0.0		93.17846585453435	1.2333697874419158
13.0	71.40453827998408	pulse	0.0	t		22.0	female	west_asian	3.8205332272184642	neutral	066	sub-15	1.0	4.0	066_neutral	0.0		93.5619457740354	
13.0	72.10452478703337	pulse	0.0	t		22.0	female	west_asian	3.8205332272184642	neutral	066	sub-15	1.0	4.0	066_neutral	0.0		94.26193228108468	
13.0	72.25442814792495	fix	1.0		444	22.0	female	west_asian	3.8205332272184642	neutral	066	sub-15	1.0	4.0	066_neutral	0.0		94.41183564197627	3.758249490392245
13.0	72.80451370892843	pulse	1.0	t		22.0	female	west_asian	3.8205332272184642	neutral	066	sub-15	1.0	4.0	066_neutral	0.0		94.96192120297974	
13.0	73.50449749927657	pulse	1.0	t		22.0	female	west_asian	3.8205332272184642	neutral	066	sub-15	1.0	4.0	066_neutral	0.0		95.66190499332788	
13.0	74.20448793045034	pulse	1.0	t		22.0	female	west_asian	3.8205332272184642	neutral	066	sub-15	1.0	4.0	066_neutral	0.0		96.36189542450165	
13.0	74.90448651172846	pulse	1.0	t		22.0	female	west_asian	3.8205332272184642	neutral	066	sub-15	1.0	4.0	066_neutral	0.0		97.06189400577978	
13.0	75.6044549074345	pulse	1.0	t		22.0	female	west_asian	3.8205332272184642	neutral	066	sub-15	1.0	4.0	066_neutral	0.0		97.76186240148581	
14.0	76.0126776383172	face	0.0		146	25.0	female	black	3.858336649423	neutral	126	sub-15	1.0	4.0	126_neutral	0.0		98.17008513236851	1.2416668955738714
14.0	76.30445167757853	pulse	0.0	t		25.0	female	black	3.858336649423	neutral	126	sub-15	1.0	4.0	126_neutral	0.0		98.46185917162984	
14.0	77.0044339586475	pulse	0.0	t		25.0	female	black	3.858336649423	neutral	126	sub-15	1.0	4.0	126_neutral	0.0		99.16184145269881	
14.0	77.25434453389107	fix	1.0		444	25.0	female	black	3.858336649423	neutral	126	sub-15	1.0	4.0	126_neutral	0.0		99.41175202794238	3.7665776896628813
14.0	77.70444672714439	pulse	1.0	t		25.0	female	black	3.858336649423	neutral	126	sub-15	1.0	4.0	126_neutral	0.0		99.8618542211957	
14.0	78.4044184432637	pulse	1.0	t		25.0	female	black	3.858336649423	neutral	126	sub-15	1.0	4.0	126_neutral	0.0		100.561825937315	
14.0	79.10440042247728	pulse	1.0	t		25.0	female	black	3.858336649423	neutral	126	sub-15	1.0	4.0	126_neutral	0.0		101.2618079165286	
14.0	79.80438270354671	pulse	1.0	t		25.0	female	black	3.858336649423	neutral	126	sub-15	1.0	4.0	126_neutral	0.0		101.96179019759802	
14.0	80.50437132358593	pulse	1.0	t		25.0	female	black	3.858336649423	neutral	126	sub-15	1.0	4.0	126_neutral	0.0		102.66177881763724	
15.0	81.02092222355395	face	0.0		145	31.0	male	west_asian	1.9538400318344609	smiling	070	sub-15	1.0	4.0	070_smiling	0.0		103.17832971760527	1.233312434855634
15.0	81.20437533826725	pulse	0.0	t		31.0	male	west_asian	1.9538400318344609	smiling	070	sub-15	1.0	4.0	070_smiling	0.0		103.36178283231857	
15.0	81.90436516572936	pulse	0.0	t		31.0	male	west_asian	1.9538400318344609	smiling	070	sub-15	1.0	4.0	070_smiling	0.0		104.06177265978067	
15.0	82.25423465840959	fix	1.0		444	31.0	male	west_asian	1.9538400318344609	smiling	070	sub-15	1.0	4.0	070_smiling	0.0		104.4116421524609	3.7665909713145993
15.0	82.60434080597315	pulse	1.0	t		31.0	male	west_asian	1.9538400318344609	smiling	070	sub-15	1.0	4.0	070_smiling	0.0		104.76174830002446	
15.0	83.30433002972404	pulse	1.0	t		31.0	male	west_asian	1.9538400318344609	smiling	070	sub-15	1.0	4.0	070_smiling	0.0		105.46173752377535	
15.0	84.00431864976326	pulse	1.0	t		31.0	male	west_asian	1.9538400318344609	smiling	070	sub-15	1.0	4.0	070_smiling	0.0		106.16172614381458	
15.0	84.70428613990225	pulse	1.0	t		31.0	male	west_asian	1.9538400318344609	smiling	070	sub-15	1.0	4.0	070_smiling	0.0		106.86169363395356	
15.0	85.40429468241928	pulse	1.0	t		31.0	male	west_asian	1.9538400318344609	smiling	070	sub-15	1.0	4.0	070_smiling	0.0		107.56170217647059	
16.0	86.02082562972419	face	0.0		145	31.0	female	west_asian	2.364902506963788	smiling	006	sub-15	1.0	4.0	006_smiling	0.0		108.1782331237755	1.2333239053727993
16.0	86.104284208026	pulse	0.0	t		31.0	female	west_asian	2.364902506963788	smiling	006	sub-15	1.0	4.0	006_smiling	0.0		108.26169170207731	
16.0	86.80426920579657	pulse	0.0	t		31.0	female	west_asian	2.364902506963788	smiling	006	sub-15	1.0	4.0	006_smiling	0.0		108.96167669984789	
16.0	87.25414953509699	fix	1.0		444	31.0	female	west_asian	2.364902506963788	smiling	006	sub-15	1.0	4.0	006_smiling	0.0		109.4115570291483	3.7582860149341286
16.0	87.50425933511451	pulse	1.0	t		31.0	female	west_asian	2.364902506963788	smiling	006	sub-15	1.0	4.0	006_smiling	0.0		109.66166682916582	
16.0	88.20424644587547	pulse	1.0	t		31.0	female	west_asian	2.364902506963788	smiling	006	sub-15	1.0	4.0	006_smiling	0.0		110.36165393992678	
16.0	88.90424623457648	pulse	1.0	t		31.0	female	west_asian	2.364902506963788	smiling	006	sub-15	1.0	4.0	006_smiling	0.0		111.06165372862779	
16.0	89.60421010244681	pulse	1.0	t		31.0	female	west_asian	2.364902506963788	smiling	006	sub-15	1.0	4.0	006_smiling	0.0		111.76161759649813	
16.0	90.30421683382929	pulse	1.0	t		31.0	female	west_asian	2.364902506963788	smiling	006	sub-15	1.0	4.0	006_smiling	0.0		112.4616243278806	
17.0	91.01243555003111	face	0.0		146	40.0	male	white	1.868682849184242	neutral	172	sub-15	1.0	4.0	172_neutral	1.0	trustworthiness	113.16984304408243	1.2416300691761535
17.0	91.00666527611793	pulse	0.0	t		40.0	male	white	1.868682849184242	neutral	172	sub-15	1.0	4.0	172_neutral	1.0	trustworthiness	113.16407277016924	
17.0	91.70418532009262	pulse	0.0	t		40.0	male	white	1.868682849184242	neutral	172	sub-15	1.0	4.0	172_neutral	1.0	trustworthiness	113.86159281414393	
17.0	92.25406561920727	fix	1.0		177	40.0	male	white	1.868682849184242	neutral	172	sub-15	1.0	4.0	172_neutral	1.0	trustworthiness	114.41147311325858	1.5083289539102225
17.0	92.4041781661117	pulse	1.0	t		40.0	male	white	1.868682849184242	neutral	172	sub-15	1.0	4.0	172_neutral	1.0	trustworthiness	114.56158566016302	
17.0	93.10416195645985	pulse	1.0	t		40.0	male	white	1.868682849184242	neutral	172	sub-15	1.0	4.0	172_neutral	1.0	trustworthiness	115.26156945051116	
17.0	93.76239457311749	rating	2.0		293	40.0	male	white	1.868682849184242	neutral	172	sub-15	1.0	4.0	172_neutral	1.0	trustworthiness	115.9198020671688	2.4915998081401085
17.0	93.79894235793381	pulse	2.0	t		40.0	male	white	1.868682849184242	neutral	172	sub-15	1.0	4.0	172_neutral	1.0	trustworthiness	115.95634985198512	
17.0	94.49891830003344	pulse	2.0	t		40.0	male	white	1.868682849184242	neutral	172	sub-15	1.0	4.0	172_neutral	1.0	trustworthiness	116.65632579408475	
17.0	95.19889876996831	pulse	2.0	t		40.0	male	white	1.868682849184242	neutral	172	sub-15	1.0	4.0	172_neutral	1.0	trustworthiness	117.35630626401962	
17.0	95.82911917595811	response	2.0	b		40.0	male	white	1.868682849184242	neutral	172	sub-15	1.0	4.0	172_neutral	1.0	trustworthiness	117.98652667000943	
17.0	95.89894383702722	pulse	2.0	t		40.0	male	white	1.868682849184242	neutral	172	sub-15	1.0	4.0	172_neutral	1.0	trustworthiness	118.05635133107853	
17.0	96.2539943812576	fix	3.0		444	40.0	male	white	1.868682849184242	neutral	172	sub-15	1.0	4.0	172_neutral	1.0	trustworthiness	118.41140187530891	3.7583958904156134
17.0	96.60410113253238	pulse	3.0	t		40.0	male	white	1.868682849184242	neutral	172	sub-15	1.0	4.0	172_neutral	1.0	trustworthiness	118.76150862658369	
17.0	97.30410846762652	pulse	3.0	t		40.0	male	white	1.868682849184242	neutral	172	sub-15	1.0	4.0	172_neutral	1.0	trustworthiness	119.46151596167783	
17.0	98.00407595776551	pulse	3.0	t		40.0	male	white	1.868682849184242	neutral	172	sub-15	1.0	4.0	172_neutral	1.0	trustworthiness	120.16148345181682	
17.0	98.70406638893928	pulse	3.0	t		40.0	male	white	1.868682849184242	neutral	172	sub-15	1.0	4.0	172_neutral	1.0	trustworthiness	120.8614738829906	
17.0	99.40404806629749	pulse	3.0	t		40.0	male	white	1.868682849184242	neutral	172	sub-15	1.0	4.0	172_neutral	1.0	trustworthiness	121.5614555603488	
18.0	100.01239027167321	face	0.0		146	28.0	male	white	3.9076800636689217	smiling	033	sub-15	1.0	4.0	033_smiling	0.0		122.16979776572452	1.2415189862717853
18.0	100.1040922277889	pulse	0.0	t		28.0	male	white	3.9076800636689217	smiling	033	sub-15	1.0	4.0	033_smiling	0.0		122.26149972184021	
18.0	100.80402500452055	pulse	0.0	t		28.0	male	white	3.9076800636689217	smiling	033	sub-15	1.0	4.0	033_smiling	0.0		122.96143249857187	
18.0	101.253909257945	fix	1.0		444	28.0	male	white	3.9076800636689217	smiling	033	sub-15	1.0	4.0	033_smiling	0.0		123.41131675199631	3.758237114308031
18.0	101.50402358579868	pulse	1.0	t		28.0	male	white	3.9076800636689217	smiling	033	sub-15	1.0	4.0	033_smiling	0.0		123.66143107984999	
18.0	102.20400254645483	pulse	1.0	t		28.0	male	white	3.9076800636689217	smiling	033	sub-15	1.0	4.0	033_smiling	0.0		124.36141004050614	
18.0	102.90399871288719	pulse	1.0	t		28.0	male	white	3.9076800636689217	smiling	033	sub-15	1.0	4.0	033_smiling	0.0		125.0614062069385	
18.0	103.60398582364815	pulse	1.0	t		28.0	male	white	3.9076800636689217	smiling	033	sub-15	1.0	4.0	033_smiling	0.0		125.76139331769946	
18.0	104.30396448244892	pulse	1.0	t		28.0	male	white	3.9076800636689217	smiling	033	sub-15	1.0	4.0	033_smiling	0.0		126.46137197650023	
19.0	105.01214637225303	face	0.0		147	21.0	male	east_asian/white	3.501790688420215	neutral	036	sub-15	1.0	4.0	036_neutral	0.0		127.16955386630434	1.2416819883596872
19.0	105.00626954327117	pulse	0.0	t		21.0	male	east_asian/white	3.501790688420215	neutral	036	sub-15	1.0	4.0	036_neutral	0.0		127.16367703732249	
19.0	105.70393900582621	pulse	0.0	t		21.0	male	east_asian/white	3.501790688420215	neutral	036	sub-15	1.0	4.0	036_neutral	0.0		127.86134649987753	
19.0	106.25382836061272	fix	1.0		443	21.0	male	east_asian/white	3.501790688420215	neutral	036	sub-15	1.0	4.0	036_neutral	0.0		128.41123585466403	3.7583213320531286
19.0	106.4039418130842	pulse	1.0	t		21.0	male	east_asian/white	3.501790688420215	neutral	036	sub-15	1.0	4.0	036_neutral	0.0		128.56134930713552	
19.0	107.10391534033806	pulse	1.0	t		21.0	male	east_asian/white	3.501790688420215	neutral	036	sub-15	1.0	4.0	036_neutral	0.0		129.26132283438938	
19.0	107.80390426223312	pulse	1.0	t		21.0	male	east_asian/white	3.501790688420215	neutral	036	sub-15	1.0	4.0	036_neutral	0.0		129.96131175628443	
19.0	108.50389167484946	pulse	1.0	t		21.0	male	east_asian/white	3.501790688420215	neutral	036	sub-15	1.0	4.0	036_neutral	0.0		130.66129916890077	
19.0	109.20389085983925	pulse	1.0	t		21.0	male	east_asian/white	3.501790688420215	neutral	036	sub-15	1.0	4.0	036_neutral	0.0		131.36129835389056	
19.0	109.90387163162995	pulse	1.0	t		21.0	male	east_asian/white	3.501790688420215	neutral	036	sub-15	1.0	4.0	036_neutral	0.0		132.06127912568127	
20.0	110.01214969266584	face	0.0		147	32.0	male	white	2.389176283326701	neutral	092	sub-15	1.0	4.0	092_neutral	0.0		132.16955718671716	1.2415681887537175
20.0	110.60385361084354	pulse	0.0	t		32.0	male	white	2.389176283326701	neutral	092	sub-15	1.0	4.0	092_neutral	0.0		132.76126110489486	
20.0	111.25371788141956	fix	1.0		1185	32.0	male	white	2.389176283326701	neutral	092	sub-15	1.0	4.0	092_neutral	0.0		133.41112537547087	10.016504263259321
20.0	111.30383287335553	pulse	1.0	t		32.0	male	white	2.389176283326701	neutral	092	sub-15	1.0	4.0	092_neutral	0.0		133.46124036740684	
20.0	112.00382662494212	pulse	1.0	t		32.0	male	white	2.389176283326701	neutral	092	sub-15	1.0	4.0	092_neutral	0.0		134.16123411899343	
20.0	112.70381735797173	pulse	1.0	t		32.0	male	white	2.389176283326701	neutral	092	sub-15	1.0	4.0	092_neutral	0.0		134.86122485202304	
20.0	113.40381412811576	pulse	1.0	t		32.0	male	white	2.389176283326701	neutral	092	sub-15	1.0	4.0	092_neutral	0.0		135.56122162216707	
20.0	114.10380516300074	pulse	1.0	t		32.0	male	white	2.389176283326701	neutral	092	sub-15	1.0	4.0	092_neutral	0.0		136.26121265705206	
20.0	114.80379710345323	pulse	1.0	t		32.0	male	white	2.389176283326701	neutral	092	sub-15	1.0	4.0	092_neutral	0.0		136.96120459750455	
20.0	115.50377063070664	pulse	1.0	t		32.0	male	white	2.389176283326701	neutral	092	sub-15	1.0	4.0	092_neutral	0.0		137.66117812475795	
20.0	116.20377041940765	pulse	1.0	t		32.0	male	white	2.389176283326701	neutral	092	sub-15	1.0	4.0	092_neutral	0.0		138.36117791345896	
20.0	116.90377232109859	pulse	1.0	t		32.0	male	white	2.389176283326701	neutral	092	sub-15	1.0	4.0	092_neutral	0.0		139.0611798151499	
20.0	117.60373528340187	pulse	1.0	t		32.0	male	white	2.389176283326701	neutral	092	sub-15	1.0	4.0	092_neutral	0.0		139.7611427774532	
20.0	118.30372239416283	pulse	1.0	t		32.0	male	white	2.389176283326701	neutral	092	sub-15	1.0	4.0	092_neutral	0.0		140.46112988821415	
20.0	119.00371342904782	pulse	1.0	t		32.0	male	white	2.389176283326701	neutral	092	sub-15	1.0	4.0	092_neutral	0.0		141.16112092309913	
20.0	119.70369782310718	pulse	1.0	t		32.0	male	white	2.389176283326701	neutral	092	sub-15	1.0	4.0	092_neutral	0.0		141.8611053171585	
20.0	120.40368644314685	pulse	1.0	t		32.0	male	white	2.389176283326701	neutral	092	sub-15	1.0	4.0	092_neutral	0.0		142.56109393719817	
20.0	121.10368713741491	pulse	1.0	t		32.0	male	white	2.389176283326701	neutral	092	sub-15	1.0	4.0	092_neutral	0.0		143.26109463146622	
21.0	121.27022214467888	face	0.0		146	47.0	male	east_asian	2.171110226820533	smiling	024	sub-15	1.0	4.0	024_smiling	0.0		143.4276296387302	1.2333260183631864
21.0	121.8036718333301	pulse	0.0	t		47.0	male	east_asian	2.171110226820533	smiling	024	sub-15	1.0	4.0	024_smiling	0.0		143.9610793273814	
21.0	122.50354816304207	fix	1.0		444	47.0	male	east_asian	2.171110226820533	smiling	024	sub-15	1.0	4.0	024_smiling	0.0		144.66095565709338	3.7582573386407603
21.0	122.5108772198846	pulse	1.0	t		47.0	male	east_asian	2.171110226820533	smiling	024	sub-15	1.0	4.0	024_smiling	0.0		144.66828471393592	
21.0	123.20364756413028	pulse	1.0	t		47.0	male	east_asian	2.171110226820533	smiling	024	sub-15	1.0	4.0	024_smiling	0.0		145.3610550581816	
21.0	123.90363286375668	pulse	1.0	t		47.0	male	east_asian	2.171110226820533	smiling	024	sub-15	1.0	4.0	024_smiling	0.0		146.061040357808	
21.0	124.60362057822886	pulse	1.0	t		47.0	male	east_asian	2.171110226820533	smiling	024	sub-15	1.0	4.0	024_smiling	0.0		146.76102807228017	
21.0	125.30361493352711	pulse	1.0	t		47.0	male	east_asian	2.171110226820533	smiling	024	sub-15	1.0	4.0	024_smiling	0.0		147.46102242757843	
21.0	126.00359781830775	pulse	1.0	t		47.0	male	east_asian	2.171110226820533	smiling	024	sub-15	1.0	4.0	024_smiling	0.0		148.16100531235907	
22.0	126.26180550168283	face	0.0		146	26.0	female	white	4.854755272582572	smiling	027	sub-15	1.0	4.0	027_smiling	1.0	dominance	148.41921299573414	1.2416469730965218
22.0	126.70357587339686	pulse	0.0	t		26.0	female	white	4.854755272582572	smiling	027	sub-15	1.0	4.0	027_smiling	1.0	dominance	148.86098336744817	
22.0	127.40357626580953	pulse	0.0	t		26.0	female	white	4.854755272582572	smiling	027	sub-15	1.0	4.0	027_smiling	1.0	dominance	149.56098375986085	
22.0	127.50345247477935	fix	1.0		177	26.0	female	white	4.854755272582572	smiling	027	sub-15	1.0	4.0	027_smiling	1.0	dominance	149.66085996883066	1.499976908037297
22.0	128.10355643388857	pulse	1.0	t		26.0	female	white	4.854755272582572	smiling	027	sub-15	1.0	4.0	027_smiling	1.0	dominance	150.26096392793988	
22.0	128.80353720567928	pulse	1.0	t		26.0	female	white	4.854755272582572	smiling	027	sub-15	1.0	4.0	027_smiling	1.0	dominance	150.9609446997306	
22.0	129.00342938281665	rating	2.0		295	26.0	female	white	4.854755272582572	smiling	027	sub-15	1.0	4.0	027_smiling	1.0	dominance	151.16083687686796	2.499960305973218
22.0	129.4983000995221	pulse	2.0	t		26.0	female	white	4.854755272582572	smiling	027	sub-15	1.0	4.0	027_smiling	1.0	dominance	151.65570759357342	
22.0	130.19828962512838	pulse	2.0	t		26.0	female	white	4.854755272582572	smiling	027	sub-15	1.0	4.0	027_smiling	1.0	dominance	152.3556971191797	
22.0	130.8982927342422	pulse	2.0	t		26.0	female	white	4.854755272582572	smiling	027	sub-15	1.0	4.0	027_smiling	1.0	dominance	153.05570022829352	
22.0	130.94825196862757	response	2.0	b		26.0	female	white	4.854755272582572	smiling	027	sub-15	1.0	4.0	027_smiling	1.0	dominance	153.1056594626789	
22.0	131.50338968878987	fix	3.0		443	26.0	female	white	4.854755272582572	smiling	027	sub-15	1.0	4.0	027_smiling	1.0	dominance	153.66079718284118	3.766592782448697
22.0	131.60351432501602	pulse	3.0	t		26.0	female	white	4.854755272582572	smiling	027	sub-15	1.0	4.0	027_smiling	1.0	dominance	153.76092181906733	
22.0	132.30355305310468	pulse	3.0	t		26.0	female	white	4.854755272582572	smiling	027	sub-15	1.0	4.0	027_smiling	1.0	dominance	154.460960547156	
22.0	133.003477679732	pulse	3.0	t		26.0	female	white	4.854755272582572	smiling	027	sub-15	1.0	4.0	027_smiling	1.0	dominance	155.1608851737833	
22.0	133.70344758471674	pulse	3.0	t		26.0	female	white	4.854755272582572	smiling	027	sub-15	1.0	4.0	027_smiling	1.0	dominance	155.86085507876805	
22.0	134.40345190125345	pulse	3.0	t		26.0	female	white	4.854755272582572	smiling	027	sub-15	1.0	4.0	027_smiling	1.0	dominance	156.56085939530476	
22.0	135.1034390120144	pulse	3.0	t		26.0	female	white	4.854755272582572	smiling	027	sub-15	1.0	4.0	027_smiling	1.0	dominance	157.26084650606572	
23.0	135.26998247123856	face	0.0		146	47.0	male	east_asian	2.171110226820533	neutral	024	sub-15	1.0	4.0	024_neutral	0.0		157.42738996528988	1.2333214905274872
23.0	135.80342189679504	pulse	0.0	t		47.0	male	east_asian	2.171110226820533	neutral	024	sub-15	1.0	4.0	024_neutral	0.0		157.96082939084636	
23.0	136.50330396176605	fix	1.0		444	47.0	male	east_asian	2.171110226820533	neutral	024	sub-15	1.0	4.0	024_neutral	0.0		158.66071145581736	3.75825764049614
23.0	136.5106408668571	pulse	1.0	t		47.0	male	east_asian	2.171110226820533	neutral	024	sub-15	1.0	4.0	024_neutral	0.0		158.66804836090841	
23.0	137.20340638141124	pulse	1.0	t		47.0	male	east_asian	2.171110226820533	neutral	024	sub-15	1.0	4.0	024_neutral	0.0		159.36081387546255	
23.0	137.90338654949028	pulse	1.0	t		47.0	male	east_asian	2.171110226820533	neutral	024	sub-15	1.0	4.0	024_neutral	0.0		160.0607940435416	
23.0	138.60337124540547	pulse	1.0	t		47.0	male	east_asian	2.171110226820533	neutral	024	sub-15	1.0	4.0	024_neutral	0.0		160.76077873945678	
23.0	139.3033568468877	pulse	1.0	t		47.0	male	east_asian	2.171110226820533	neutral	024	sub-15	1.0	4.0	024_neutral	0.0		161.46076434093902	
23.0	140.00334757991732	pulse	1.0	t		47.0	male	east_asian	2.171110226820533	neutral	024	sub-15	1.0	4.0	024_neutral	0.0		162.16075507396863	
24.0	140.2615616022622	face	0.0		146	27.0	female	white	4.181058495821727	neutral	039	sub-15	1.0	4.0	039_neutral	0.0		162.4189690963135	1.241656330623755
24.0	140.7033386148023	pulse	0.0	t		27.0	female	white	4.181058495821727	neutral	039	sub-15	1.0	4.0	039_neutral	0.0		162.86074610885362	
24.0	141.40333327195594	pulse	0.0	t		27.0	female	white	4.181058495821727	neutral	039	sub-15	1.0	4.0	039_neutral	0.0		163.56074076600726	
24.0	141.50321793288595	fix	1.0		444	27.0	female	white	4.181058495821727	neutral	039	sub-15	1.0	4.0	039_neutral	0.0		163.66062542693726	3.758327972879215
24.0	142.10332400498555	pulse	1.0	t		27.0	female	white	4.181058495821727	neutral	039	sub-15	1.0	4.0	039_neutral	0.0		164.26073149903686	
24.0	142.80330326749754	pulse	1.0	t		27.0	female	white	4.181058495821727	neutral	039	sub-15	1.0	4.0	039_neutral	0.0		164.96071076154885	
24.0	143.50329068011433	pulse	1.0	t		27.0	female	white	4.181058495821727	neutral	039	sub-15	1.0	4.0	039_neutral	0.0		165.66069817416565	
24.0	144.20328171499932	pulse	1.0	t		27.0	female	white	4.181058495821727	neutral	039	sub-15	1.0	4.0	039_neutral	0.0		166.36068920905063	
24.0	144.9032603738001	pulse	1.0	t		27.0	female	white	4.181058495821727	neutral	039	sub-15	1.0	4.0	039_neutral	0.0		167.0606678678514	
25.0	145.26154590576516	face	0.0		146	22.0	male	black	2.767608436132113	neutral	044	sub-15	1.0	4.0	044_neutral	0.0		167.41895339981647	1.2415853945299204
25.0	145.6032366177551	pulse	0.0	t		22.0	male	black	2.767608436132113	neutral	044	sub-15	1.0	4.0	044_neutral	0.0		167.7606441118064	
25.0	146.30325059367487	pulse	0.0	t		22.0	male	black	2.767608436132113	neutral	044	sub-15	1.0	4.0	044_neutral	0.0		168.4606580877262	
25.0	146.50313130029508	fix	1.0		444	22.0	male	black	2.767608436132113	neutral	044	sub-15	1.0	4.0	044_neutral	0.0		168.6605387943464	3.7665752748166597
25.0	147.0032392137141	pulse	1.0	t		22.0	male	black	2.767608436132113	neutral	044	sub-15	1.0	4.0	044_neutral	0.0		169.1606467077654	
25.0	147.70320277972905	pulse	1.0	t		22.0	male	black	2.767608436132113	neutral	044	sub-15	1.0	4.0	044_neutral	0.0		169.86061027378037	
25.0	148.4031962294598	pulse	1.0	t		22.0	male	black	2.767608436132113	neutral	044	sub-15	1.0	4.0	044_neutral	0.0		170.56060372351112	
25.0	149.10319662187248	pulse	1.0	t		22.0	male	black	2.767608436132113	neutral	044	sub-15	1.0	4.0	044_neutral	0.0		171.2606041159238	
25.0	149.8031846382005	pulse	1.0	t		22.0	male	black	2.767608436132113	neutral	044	sub-15	1.0	4.0	044_neutral	0.0		171.9605921322518	
26.0	150.26970657511174	face	0.0		145	31.0	female	white	2.1822522881018704	smiling	102	sub-15	1.0	4.0	102_smiling	0.0		172.42711406916305	1.2333281313531188
26.0	150.50317506937427	pulse	0.0	t		31.0	female	white	2.1822522881018704	smiling	102	sub-15	1.0	4.0	102_smiling	0.0		172.66058256342558	
26.0	151.20316157642355	pulse	0.0	t		31.0	female	white	2.1822522881018704	smiling	102	sub-15	1.0	4.0	102_smiling	0.0		173.36056907047487	
26.0	151.50303470646486	fix	1.0		444	31.0	female	white	2.1822522881018704	smiling	102	sub-15	1.0	4.0	102_smiling	0.0		173.66044220051617	3.7582639794668466
26.0	151.90315200759733	pulse	1.0	t		31.0	female	white	2.1822522881018704	smiling	102	sub-15	1.0	4.0	102_smiling	0.0		174.06055950164864	
26.0	152.60313609980085	pulse	1.0	t		31.0	female	white	2.1822522881018704	smiling	102	sub-15	1.0	4.0	102_smiling	0.0		174.76054359385216	
26.0	153.30314554788492	pulse	1.0	t		31.0	female	white	2.1822522881018704	smiling	102	sub-15	1.0	4.0	102_smiling	0.0		175.46055304193624	
26.0	154.00311364173558	pulse	1.0	t		31.0	female	white	2.1822522881018704	smiling	102	sub-15	1.0	4.0	102_smiling	0.0		176.1605211357869	
26.0	154.70308475414322	pulse	1.0	t		31.0	female	white	2.1822522881018704	smiling	102	sub-15	1.0	4.0	102_smiling	0.0		176.86049224819453	
27.0	155.2612986859317	face	0.0		146	23.0	male	white	2.6275368085953046	neutral	141	sub-15	1.0	4.0	141_neutral	0.0		177.41870617998302	1.2416511990763865
27.0	155.40309088181448	pulse	0.0	t		23.0	male	white	2.6275368085953046	neutral	141	sub-15	1.0	4.0	141_neutral	0.0		177.5604983758658	
27.0	156.10307859628665	pulse	0.0	t		23.0	male	white	2.6275368085953046	neutral	141	sub-15	1.0	4.0	141_neutral	0.0		178.26048609033796	
27.0	156.5029498850081	fix	1.0		444	23.0	male	white	2.6275368085953046	neutral	141	sub-15	1.0	4.0	141_neutral	0.0		178.6603573790594	3.7666003288418324
27.0	156.80306570704715	pulse	1.0	t		23.0	male	white	2.6275368085953046	neutral	141	sub-15	1.0	4.0	141_neutral	0.0		178.96047320109847	
27.0	157.50305251595228	pulse	1.0	t		23.0	male	white	2.6275368085953046	neutral	141	sub-15	1.0	4.0	141_neutral	0.0		179.6604600100036	
27.0	158.20304083413612	pulse	1.0	t		23.0	male	white	2.6275368085953046	neutral	141	sub-15	1.0	4.0	141_neutral	0.0		180.36044832818743	
27.0	158.90304183026	pulse	1.0	t		23.0	male	white	2.6275368085953046	neutral	141	sub-15	1.0	4.0	141_neutral	0.0		181.06044932431132	
27.0	159.60299996287176	pulse	1.0	t		23.0	male	white	2.6275368085953046	neutral	141	sub-15	1.0	4.0	141_neutral	0.0		181.76040745692308	
28.0	160.26955021384993	face	0.0		145	34.0	male	white	2.651014723438122	neutral	121	sub-15	1.0	4.0	121_neutral	0.0		182.42695770790124	1.2333199812487692
28.0	160.30300246827437	pulse	0.0	t		34.0	male	white	2.651014723438122	neutral	121	sub-15	1.0	4.0	121_neutral	0.0		182.46040996232568	
28.0	161.00300527553236	pulse	0.0	t		34.0	male	white	2.651014723438122	neutral	121	sub-15	1.0	4.0	121_neutral	0.0		183.16041276958367	
28.0	161.5028701950987	fix	1.0		443	34.0	male	white	2.651014723438122	neutral	121	sub-15	1.0	4.0	121_neutral	0.0		183.66027768915	3.7582205122430423
28.0	161.70297367123885	pulse	1.0	t		34.0	male	white	2.651014723438122	neutral	121	sub-15	1.0	4.0	121_neutral	0.0		183.86038116529016	
28.0	162.40296410241262	pulse	1.0	t		34.0	male	white	2.651014723438122	neutral	121	sub-15	1.0	4.0	121_neutral	0.0		184.56037159646394	
28.0	163.10294306306878	pulse	1.0	t		34.0	male	white	2.651014723438122	neutral	121	sub-15	1.0	4.0	121_neutral	0.0		185.2603505571201	
28.0	163.80293470166544	pulse	1.0	t		34.0	male	white	2.651014723438122	neutral	121	sub-15	1.0	4.0	121_neutral	0.0		185.96034219571675	
28.0	164.50292754768498	pulse	1.0	t		34.0	male	white	2.651014723438122	neutral	121	sub-15	1.0	4.0	121_neutral	0.0		186.6603350417363	
28.0	165.20292311040612	pulse	1.0	t		34.0	male	white	2.651014723438122	neutral	121	sub-15	1.0	4.0	121_neutral	0.0		187.36033060445743	
29.0	165.26109070734174	face	0.0		147	28.0	male	white	3.9076800636689217	neutral	033	sub-15	1.0	4.0	033_neutral	0.0		187.41849820139305	1.2416880254741045
29.0	165.9029298417886	pulse	0.0	t		28.0	male	white	3.9076800636689217	neutral	033	sub-15	1.0	4.0	033_neutral	0.0		188.0603373358399	
29.0	166.50277873281584	fix	1.0		443	28.0	male	white	3.9076800636689217	neutral	033	sub-15	1.0	4.0	033_neutral	0.0		188.66018622686715	3.75832435061011
29.0	166.60291151914635	pulse	1.0	t		28.0	male	white	3.9076800636689217	neutral	033	sub-15	1.0	4.0	033_neutral	0.0		188.76031901319766	
29.0	167.30290074289724	pulse	1.0	t		28.0	male	white	3.9076800636689217	neutral	033	sub-15	1.0	4.0	033_neutral	0.0		189.46030823694855	
29.0	168.0028621959218	pulse	1.0	t		28.0	male	white	3.9076800636689217	neutral	033	sub-15	1.0	4.0	033_neutral	0.0		190.16026968997312	
29.0	168.70285323080725	pulse	1.0	t		28.0	male	white	3.9076800636689217	neutral	033	sub-15	1.0	4.0	033_neutral	0.0		190.86026072485856	
29.0	169.40283671929956	pulse	1.0	t		28.0	male	white	3.9076800636689217	neutral	033	sub-15	1.0	4.0	033_neutral	0.0		191.56024421335087	
29.0	170.10284345068203	pulse	1.0	t		28.0	male	white	3.9076800636689217	neutral	033	sub-15	1.0	4.0	033_neutral	0.0		192.26025094473334	
30.0	170.26110308342595	face	0.0		147	40.0	female	west_asian	1.5777954635893354	neutral	038	sub-15	1.0	4.0	038_neutral	0.0		192.41851057747726	1.241595053912988
30.0	170.80282180762697	pulse	0.0	t		40.0	female	west_asian	1.5777954635893354	neutral	038	sub-15	1.0	4.0	038_neutral	0.0		192.96022930167828	
30.0	171.50269813733894	fix	1.0		444	40.0	female	west_asian	1.5777954635893354	neutral	038	sub-15	1.0	4.0	038_neutral	0.0		193.66010563139025	3.7665743692500655
30.0	171.51010537481307	pulse	1.0	t		40.0	female	west_asian	1.5777954635893354	neutral	038	sub-15	1.0	4.0	038_neutral	0.0		193.66751286886438	
30.0	172.20279602914843	pulse	1.0	t		40.0	female	west_asian	1.5777954635893354	neutral	038	sub-15	1.0	4.0	038_neutral	0.0		194.36020352319974	
30.0	172.90277529166087	pulse	1.0	t		40.0	female	west_asian	1.5777954635893354	neutral	038	sub-15	1.0	4.0	038_neutral	0.0		195.0601827857122	
30.0	173.6027581764415	pulse	1.0	t		40.0	female	west_asian	1.5777954635893354	neutral	038	sub-15	1.0	4.0	038_neutral	0.0		195.76016567049282	
30.0	174.30276279483405	pulse	1.0	t		40.0	female	west_asian	1.5777954635893354	neutral	038	sub-15	1.0	4.0	038_neutral	0.0		196.46017028888537	
30.0	175.00273903878906	pulse	1.0	t		40.0	female	west_asian	1.5777954635893354	neutral	038	sub-15	1.0	4.0	038_neutral	0.0		197.16014653284037	
31.0	175.269272506589	face	0.0		145	31.0	female	west_asian	2.364902506963788	neutral	006	sub-15	1.0	4.0	006_neutral	1.0	attractiveness	197.42668000064032	1.2333290369201677
31.0	175.70273037552988	pulse	0.0	t		31.0	female	west_asian	2.364902506963788	neutral	006	sub-15	1.0	4.0	006_neutral	1.0	attractiveness	197.8601378695812	
31.0	176.40272533453935	pulse	0.0	t		31.0	female	west_asian	2.364902506963788	neutral	006	sub-15	1.0	4.0	006_neutral	1.0	attractiveness	198.56013282859067	
31.0	176.50260154350917	fix	1.0		177	31.0	female	west_asian	2.364902506963788	neutral	006	sub-15	1.0	4.0	006_neutral	1.0	attractiveness	198.66000903756049	1.4999850581421015
31.0	177.10271516200146	pulse	1.0	t		31.0	female	west_asian	2.364902506963788	neutral	006	sub-15	1.0	4.0	006_neutral	1.0	attractiveness	199.26012265605277	
31.0	177.80269925420498	pulse	1.0	t		31.0	female	west_asian	2.364902506963788	neutral	006	sub-15	1.0	4.0	006_neutral	1.0	attractiveness	199.9601067482563	
31.0	178.00258660165127	rating	2.0		295	31.0	female	west_asian	2.364902506963788	neutral	006	sub-15	1.0	4.0	006_neutral	1.0	attractiveness	200.1599940957026	2.4999545707141806
31.0	178.49745580907756	pulse	2.0	t		31.0	female	west_asian	2.364902506963788	neutral	006	sub-15	1.0	4.0	006_neutral	1.0	attractiveness	200.65486330312888	
31.0	179.02767564154146	response	2.0	e		31.0	female	west_asian	2.364902506963788	neutral	006	sub-15	1.0	4.0	006_neutral	1.0	attractiveness	201.18508313559278	
31.0	179.1974441272614	pulse	2.0	t		31.0	female	west_asian	2.364902506963788	neutral	006	sub-15	1.0	4.0	006_neutral	1.0	attractiveness	201.35485162131272	
31.0	179.90266451061188	pulse	2.0	t		31.0	female	west_asian	2.364902506963788	neutral	006	sub-15	1.0	4.0	006_neutral	1.0	attractiveness	202.0600720046632	
31.0	180.50254117236545	fix	3.0		443	31.0	female	west_asian	2.364902506963788	neutral	006	sub-15	1.0	4.0	006_neutral	1.0	attractiveness	202.65994866641677	3.7582422458549445
31.0	180.60266460116873	pulse	3.0	t		31.0	female	west_asian	2.364902506963788	neutral	006	sub-15	1.0	4.0	006_neutral	1.0	attractiveness	202.76007209522004	
31.0	181.3026287708949	pulse	3.0	t		31.0	female	west_asian	2.364902506963788	neutral	006	sub-15	1.0	4.0	006_neutral	1.0	attractiveness	203.4600362649462	
31.0	182.00261890021284	pulse	3.0	t		31.0	female	west_asian	2.364902506963788	neutral	006	sub-15	1.0	4.0	006_neutral	1.0	attractiveness	204.16002639426415	
31.0	182.70260963324245	pulse	3.0	t		31.0	female	west_asian	2.364902506963788	neutral	006	sub-15	1.0	4.0	006_neutral	1.0	attractiveness	204.86001712729376	
31.0	183.40259644214757	pulse	3.0	t		31.0	female	west_asian	2.364902506963788	neutral	006	sub-15	1.0	4.0	006_neutral	1.0	attractiveness	205.56000393619888	
31.0	184.10258294919686	pulse	3.0	t		31.0	female	west_asian	2.364902506963788	neutral	006	sub-15	1.0	4.0	006_neutral	1.0	attractiveness	206.25999044324817	
32.0	184.2607834182204	face	0.0		147	31.0	female	east_asian	3.395941106247513	smiling	087	sub-15	1.0	4.0	087_smiling	0.0		206.4181909122717	1.241666593718037
32.0	184.80258062490793	pulse	0.0	t		31.0	female	east_asian	3.395941106247513	smiling	087	sub-15	1.0	4.0	087_smiling	0.0		206.95998811895925	
32.0	185.50245001193844	fix	1.0		444	31.0	female	east_asian	3.395941106247513	smiling	087	sub-15	1.0	4.0	087_smiling	0.0		207.65985750598975	3.758298391018343
32.0	185.50986811621806	pulse	1.0	t		31.0	female	east_asian	3.395941106247513	smiling	087	sub-15	1.0	4.0	087_smiling	0.0		207.66727561026937	
32.0	186.20254880931498	pulse	1.0	t		31.0	female	east_asian	3.395941106247513	smiling	087	sub-15	1.0	4.0	087_smiling	0.0		208.3599563033663	
32.0	186.902545579459	pulse	1.0	t		31.0	female	east_asian	3.395941106247513	smiling	087	sub-15	1.0	4.0	087_smiling	0.0		209.05995307351031	
32.0	187.60252725681676	pulse	1.0	t		31.0	female	east_asian	3.395941106247513	smiling	087	sub-15	1.0	4.0	087_smiling	0.0		209.75993475086807	
32.0	188.3025188954134	pulse	1.0	t		31.0	female	east_asian	3.395941106247513	smiling	087	sub-15	1.0	4.0	087_smiling	0.0		210.45992638946473	
32.0	189.00249725235835	pulse	1.0	t		31.0	female	east_asian	3.395941106247513	smiling	087	sub-15	1.0	4.0	087_smiling	0.0		211.15990474640967	
33.0	189.26074840295678	face	0.0		146	30.0	female	black	2.7345801830481498	smiling	062	sub-15	1.0	4.0	062_smiling	1.0	trustworthiness	211.4181558970081	1.241620107937706
33.0	189.70249402250238	pulse	0.0	t		30.0	female	black	2.7345801830481498	smiling	062	sub-15	1.0	4.0	062_smiling	1.0	trustworthiness	211.8599015165537	
33.0	190.40247056831276	pulse	0.0	t		30.0	female	black	2.7345801830481498	smiling	062	sub-15	1.0	4.0	062_smiling	1.0	trustworthiness	212.55987806236408	
33.0	190.50236851089448	fix	1.0		177	30.0	female	black	2.7345801830481498	smiling	062	sub-15	1.0	4.0	062_smiling	1.0	trustworthiness	212.6597760049458	1.4999750969031993
33.0	191.1024878646458	pulse	1.0	t		30.0	female	black	2.7345801830481498	smiling	062	sub-15	1.0	4.0	062_smiling	1.0	trustworthiness	213.25989535869712	
33.0	191.80244328055596	pulse	1.0	t		30.0	female	black	2.7345801830481498	smiling	062	sub-15	1.0	4.0	062_smiling	1.0	trustworthiness	213.95985077460728	
33.0	192.00234360779768	rating	2.0		295	30.0	female	black	2.7345801830481498	smiling	062	sub-15	1.0	4.0	062_smiling	1.0	trustworthiness	214.159751101849	2.4999482317443835
33.0	192.49721885233885	pulse	2.0	t		30.0	female	black	2.7345801830481498	smiling	062	sub-15	1.0	4.0	062_smiling	1.0	trustworthiness	214.65462634639016	
33.0	193.19717939979637	pulse	2.0	t		30.0	female	black	2.7345801830481498	smiling	062	sub-15	1.0	4.0	062_smiling	1.0	trustworthiness	215.35458689384768	
33.0	193.3805226390282	response	2.0	g		30.0	female	black	2.7345801830481498	smiling	062	sub-15	1.0	4.0	062_smiling	1.0	trustworthiness	215.5379301330795	
33.0	193.9024197056242	pulse	2.0	t		30.0	female	black	2.7345801830481498	smiling	062	sub-15	1.0	4.0	062_smiling	1.0	trustworthiness	216.0598271996755	
33.0	194.50229183954207	fix	3.0		443	30.0	female	black	2.7345801830481498	smiling	062	sub-15	1.0	4.0	062_smiling	1.0	trustworthiness	216.65969933359338	3.758266394312159
33.0	194.60241013679797	pulse	3.0	t		30.0	female	black	2.7345801830481498	smiling	062	sub-15	1.0	4.0	062_smiling	1.0	trustworthiness	216.75981763084928	
33.0	195.30238487147426	pulse	3.0	t		30.0	female	black	2.7345801830481498	smiling	062	sub-15	1.0	4.0	062_smiling	1.0	trustworthiness	217.45979236552557	
33.0	196.00238586759815	pulse	3.0	t		30.0	female	black	2.7345801830481498	smiling	062	sub-15	1.0	4.0	062_smiling	1.0	trustworthiness	218.15979336164946	
33.0	196.70234460392157	pulse	3.0	t		30.0	female	black	2.7345801830481498	smiling	062	sub-15	1.0	4.0	062_smiling	1.0	trustworthiness	218.8597520979729	
33.0	197.40236250396583	pulse	3.0	t		30.0	female	black	2.7345801830481498	smiling	062	sub-15	1.0	4.0	062_smiling	1.0	trustworthiness	219.55976999801715	
33.0	198.10234991658217	pulse	3.0	t		30.0	female	black	2.7345801830481498	smiling	062	sub-15	1.0	4.0	062_smiling	1.0	trustworthiness	220.25975741063348	
34.0	198.26055823385423	face	0.0		147	20.0	male	black	2.609629924393156	smiling	043	sub-15	1.0	4.0	043_smiling	1.0	dominance	220.41796572790554	1.2416487842310744
34.0	198.80234879971613	pulse	0.0	t		20.0	male	black	2.609629924393156	smiling	043	sub-15	1.0	4.0	043_smiling	1.0	dominance	220.95975629376744	
34.0	199.5022070180853	fix	1.0		177	20.0	male	black	2.609629924393156	smiling	043	sub-15	1.0	4.0	043_smiling	1.0	dominance	221.6596145121366	1.499981737728831
34.0	199.51014521976776	pulse	1.0	t		20.0	male	black	2.609629924393156	smiling	043	sub-15	1.0	4.0	043_smiling	1.0	dominance	221.66755271381908	
34.0	200.20233086948656	pulse	1.0	t		20.0	male	black	2.609629924393156	smiling	043	sub-15	1.0	4.0	043_smiling	1.0	dominance	222.35973836353787	
34.0	200.90230439673996	pulse	1.0	t		20.0	male	black	2.609629924393156	smiling	043	sub-15	1.0	4.0	043_smiling	1.0	dominance	223.05971189079128	
34.0	201.00218875581413	rating	2.0		295	20.0	male	black	2.609629924393156	smiling	043	sub-15	1.0	4.0	043_smiling	1.0	dominance	223.15959624986544	2.4999449113315677
34.0	201.5971044188359	pulse	2.0	t		20.0	male	black	2.609629924393156	smiling	043	sub-15	1.0	4.0	043_smiling	1.0	dominance	223.7545119128872	
34.0	202.29703055474147	pulse	2.0	t		20.0	male	black	2.609629924393156	smiling	043	sub-15	1.0	4.0	043_smiling	1.0	dominance	224.45443804879278	
34.0	202.62725467355676	response	2.0	e		20.0	male	black	2.609629924393156	smiling	043	sub-15	1.0	4.0	043_smiling	1.0	dominance	224.78466216760808	
34.0	203.0022482213908	pulse	2.0	t		20.0	male	black	2.609629924393156	smiling	043	sub-15	1.0	4.0	043_smiling	1.0	dominance	225.1596557154421	
34.0	203.5021336671457	fix	3.0		443	20.0	male	black	2.609629924393156	smiling	043	sub-15	1.0	4.0	043_smiling	1.0	dominance	225.659541161197	3.76659851770728
34.0	203.70225133050462	pulse	3.0	t		20.0	male	black	2.609629924393156	smiling	043	sub-15	1.0	4.0	043_smiling	1.0	dominance	225.85965882455594	
34.0	204.40223029116123	pulse	3.0	t		20.0	male	black	2.609629924393156	smiling	043	sub-15	1.0	4.0	043_smiling	1.0	dominance	226.55963778521254	
34.0	205.10222555202654	pulse	3.0	t		20.0	male	black	2.609629924393156	smiling	043	sub-15	1.0	4.0	043_smiling	1.0	dominance	227.25963304607785	
34.0	205.80220572010558	pulse	3.0	t		20.0	male	black	2.609629924393156	smiling	043	sub-15	1.0	4.0	043_smiling	1.0	dominance	227.9596132141569	
34.0	206.50219222715486	pulse	3.0	t		20.0	male	black	2.609629924393156	smiling	043	sub-15	1.0	4.0	043_smiling	1.0	dominance	228.65959972120618	
34.0	207.20218748802017	pulse	3.0	t		20.0	male	black	2.609629924393156	smiling	043	sub-15	1.0	4.0	043_smiling	1.0	dominance	229.35959498207148	
35.0	207.26873218485298	face	0.0		146	31.0	female	white	2.1822522881018704	neutral	102	sub-15	1.0	4.0	102_neutral	0.0		229.4261396789043	1.23331545341307
35.0	207.90218063589555	pulse	0.0	t		31.0	female	white	2.1822522881018704	neutral	102	sub-15	1.0	4.0	102_neutral	0.0		230.05958812994686	
35.0	208.50204763826605	fix	1.0		443	31.0	female	white	2.1822522881018704	neutral	102	sub-15	1.0	4.0	102_neutral	0.0		230.65945513231736	3.7582558293620423
35.0	208.60215989840754	pulse	1.0	t		31.0	female	white	2.1822522881018704	neutral	102	sub-15	1.0	4.0	102_neutral	0.0		230.75956739245885	
35.0	209.30214399061106	pulse	1.0	t		31.0	female	white	2.1822522881018704	neutral	102	sub-15	1.0	4.0	102_neutral	0.0		231.45955148466237	
35.0	210.00213532735188	pulse	1.0	t		31.0	female	white	2.1822522881018704	neutral	102	sub-15	1.0	4.0	102_neutral	0.0		232.1595428214032	
35.0	210.70211096759567	pulse	1.0	t		31.0	female	white	2.1822522881018704	neutral	102	sub-15	1.0	4.0	102_neutral	0.0		232.85951846164699	
35.0	211.40211498227654	pulse	1.0	t		31.0	female	white	2.1822522881018704	neutral	102	sub-15	1.0	4.0	102_neutral	0.0		233.55952247632786	
35.0	212.1021066208732	pulse	1.0	t		31.0	female	white	2.1822522881018704	neutral	102	sub-15	1.0	4.0	102_neutral	0.0		234.2595141149245	
36.0	212.2603034676281	face	0.0		147	23.0	male	white	2.6275368085953046	smiling	141	sub-15	1.0	4.0	141_smiling	0.0		234.4177109616794	1.2416551232008715
36.0	212.80209795761402	pulse	0.0	t		23.0	male	white	2.6275368085953046	smiling	141	sub-15	1.0	4.0	141_smiling	0.0		234.95950545166534	
36.0	213.50195859082896	fix	1.0		444	23.0	male	white	2.6275368085953046	smiling	141	sub-15	1.0	4.0	141_smiling	0.0		235.65936608488028	3.758252810805061
36.0	213.50938484521294	pulse	1.0	t		23.0	male	white	2.6275368085953046	smiling	141	sub-15	1.0	4.0	141_smiling	0.0		235.66679233926425	
36.0	214.202049539957	pulse	1.0	t		23.0	male	white	2.6275368085953046	smiling	141	sub-15	1.0	4.0	141_smiling	0.0		236.3594570340083	
36.0	214.9020617047422	pulse	1.0	t		23.0	male	white	2.6275368085953046	smiling	141	sub-15	1.0	4.0	141_smiling	0.0		237.05946919879352	
36.0	215.60203674127433	pulse	1.0	t		23.0	male	white	2.6275368085953046	smiling	141	sub-15	1.0	4.0	141_smiling	0.0		237.75944423532565	
36.0	216.3020344169854	pulse	1.0	t		23.0	male	white	2.6275368085953046	smiling	141	sub-15	1.0	4.0	141_smiling	0.0		238.45944191103672	
36.0	217.00201307578618	pulse	1.0	t		23.0	male	white	2.6275368085953046	smiling	141	sub-15	1.0	4.0	141_smiling	0.0		239.1594205698375	
37.0	217.26021140163402	face	0.0		146	24.0	female	black	3.0955033824114606	smiling	099	sub-15	1.0	4.0	099_smiling	0.0		239.41761889568534	1.2416711215537362
37.0	217.7020364092332	pulse	0.0	t		24.0	female	black	3.0955033824114606	smiling	099	sub-15	1.0	4.0	099_smiling	0.0		239.8594439032845	
37.0	218.40198941029803	pulse	0.0	t		24.0	female	black	3.0955033824114606	smiling	099	sub-15	1.0	4.0	099_smiling	0.0		240.55939690434934	
37.0	218.50188252318776	fix	1.0		444	24.0	female	black	3.0955033824114606	smiling	099	sub-15	1.0	4.0	099_smiling	0.0		240.65929001723907	3.758273940705294
37.0	219.1019771247702	pulse	1.0	t		24.0	female	black	3.0955033824114606	smiling	099	sub-15	1.0	4.0	099_smiling	0.0		241.2593846188215	
37.0	219.80195699099386	pulse	1.0	t		24.0	female	black	3.0955033824114606	smiling	099	sub-15	1.0	4.0	099_smiling	0.0		241.95936448504517	
37.0	220.5019489314459	pulse	1.0	t		24.0	female	black	3.0955033824114606	smiling	099	sub-15	1.0	4.0	099_smiling	0.0		242.6593564254972	
37.0	221.20194932385857	pulse	1.0	t		24.0	female	black	3.0955033824114606	smiling	099	sub-15	1.0	4.0	099_smiling	0.0		243.35935681790988	
37.0	221.9019204362662	pulse	1.0	t		24.0	female	black	3.0955033824114606	smiling	099	sub-15	1.0	4.0	099_smiling	0.0		244.05932793031752	
38.0	222.26015646389305	face	0.0		146	21.0	male	black	2.969757262236371	neutral	137	sub-15	1.0	4.0	137_neutral	0.0		244.41756395794437	1.2416321821665406
38.0	222.60191750826561	pulse	0.0	t		21.0	male	black	2.969757262236371	neutral	137	sub-15	1.0	4.0	137_neutral	0.0		244.75932500231693	
38.0	223.30191156170804	pulse	0.0	t		21.0	male	black	2.969757262236371	neutral	137	sub-15	1.0	4.0	137_neutral	0.0		245.45931905575935	
38.0	223.5017886460596	fix	1.0		444	21.0	male	black	2.969757262236371	neutral	137	sub-15	1.0	4.0	137_neutral	0.0		245.6591961401109	3.7666084789457273
38.0	224.0019019928818	pulse	1.0	t		21.0	male	black	2.969757262236371	neutral	137	sub-15	1.0	4.0	137_neutral	0.0		246.15930948693313	
38.0	224.70187250157824	pulse	1.0	t		21.0	male	black	2.969757262236371	neutral	137	sub-15	1.0	4.0	137_neutral	0.0		246.85927999562955	
38.0	225.4018632346074	pulse	1.0	t		21.0	male	black	2.969757262236371	neutral	137	sub-15	1.0	4.0	137_neutral	0.0		247.5592707286587	
38.0	226.10185547691572	pulse	1.0	t		21.0	male	black	2.969757262236371	neutral	137	sub-15	1.0	4.0	137_neutral	0.0		248.25926297096703	
38.0	226.80183685241764	pulse	1.0	t		21.0	male	black	2.969757262236371	neutral	137	sub-15	1.0	4.0	137_neutral	0.0		248.95924434646895	
39.0	227.26839712500532	face	0.0		145	54.0	female	white	2.286908077994429	neutral	136	sub-15	1.0	4.0	136_neutral	0.0		249.42580461905663	1.2333054921746225
39.0	227.50183422627288	pulse	0.0	t		54.0	female	white	2.286908077994429	neutral	136	sub-15	1.0	4.0	136_neutral	0.0		249.6592417203242	
39.0	228.2018512207501	pulse	0.0	t		54.0	female	white	2.286908077994429	neutral	136	sub-15	1.0	4.0	136_neutral	0.0		250.3592587148014	
39.0	228.50170261717994	fix	1.0		444	54.0	female	white	2.286908077994429	neutral	136	sub-15	1.0	4.0	136_neutral	0.0		250.65911011123126	3.74993638390697
39.0	228.90180814593896	pulse	1.0	t		54.0	female	white	2.286908077994429	neutral	136	sub-15	1.0	4.0	136_neutral	0.0		251.05921563999027	
39.0	229.6017943511324	pulse	1.0	t		54.0	female	white	2.286908077994429	neutral	136	sub-15	1.0	4.0	136_neutral	0.0		251.75920184518372	
39.0	230.30178116003754	pulse	1.0	t		54.0	female	white	2.286908077994429	neutral	136	sub-15	1.0	4.0	136_neutral	0.0		252.45918865408885	
39.0	231.00176887451016	pulse	1.0	t		54.0	female	white	2.286908077994429	neutral	136	sub-15	1.0	4.0	136_neutral	0.0		253.15917636856148	
39.0	231.7017490425892	pulse	1.0	t		54.0	female	white	2.286908077994429	neutral	136	sub-15	1.0	4.0	136_neutral	0.0		253.8591565366405	
40.0	232.25163900108691	fix	0.0		720													254.40904649513823	5.999891331941399
40.0	232.40175698139456	pulse	0.0	t														254.55916447544587	
40.0	233.10173382906123	pulse	0.0	t														255.25914132311254	
40.0	233.80172033611052	pulse	0.0	t														255.95912783016183	
40.0	234.50171197470718	pulse	0.0	t														256.6591194687585	
40.0	235.20169425577615	pulse	0.0	t														257.35910174982746	
40.0	235.901694346333	pulse	0.0	t														258.0591018403843	
40.0	236.60166394946236	pulse	0.0	t														258.7590714435137	
40.0	237.3016625307405	pulse	0.0	t														259.4590700247918	
40.0	238.00164994335682	pulse	0.0	t														260.15905743740814	
