trial_nr	onset	event_type	phase	response	nr_frames	face_age	face_sex	face_eth	attractiveness	expression	face_id	sub_id	ses	run	trial_type	catch	rating_type	onset_abs	duration
-1.0	0.06104114848858444	fix	0.0		713													23.916972241673648	5.957915167466126
-1.0	0.7025684600703244	pulse	0.0	t														24.558499553255388	
-1.0	1.4025440100449487	pulse	0.0	t														25.258475103230012	
-1.0	2.102527408176684	pulse	0.0	t														25.958458501361747	
-1.0	2.8024803192383843	pulse	0.0	t														26.658411412423447	
-1.0	3.502502052593627	pulse	0.0	t														27.35843314577869	
-1.0	4.202458585881686	pulse	0.0	t														28.05838967906675	
-1.0	4.90244741735296	pulse	0.0	t														28.758378510538023	
-1.0	5.602423872885993	pulse	0.0	t														29.458354966071056	
0.0	6.018956315954711	face	0.0		144	19.0	female	white	4.298846000795861	smiling	100	sub-11	2.0	2.0	100_smiling	0.0		29.874887409139774	1.2333084808378771
0.0	6.302401837674552	pulse	0.0	t		19.0	female	white	4.298846000795861	smiling	100	sub-11	2.0	2.0	100_smiling	0.0		30.158332930859615	
0.0	7.002382519138337	pulse	0.0	t		19.0	female	white	4.298846000795861	smiling	100	sub-11	2.0	2.0	100_smiling	0.0		30.8583136123234	
0.0	7.252264796792588	fix	1.0		445	19.0	female	white	4.298846000795861	smiling	100	sub-11	2.0	2.0	100_smiling	0.0		31.10819588997765	3.7582076622165914
0.0	7.702361087634927	pulse	1.0	t		19.0	female	white	4.298846000795861	smiling	100	sub-11	2.0	2.0	100_smiling	0.0		31.55829218081999	
0.0	8.402336335755535	pulse	1.0	t		19.0	female	white	4.298846000795861	smiling	100	sub-11	2.0	2.0	100_smiling	0.0		32.2582674289406	
0.0	9.10231701721932	pulse	1.0	t		19.0	female	white	4.298846000795861	smiling	100	sub-11	2.0	2.0	100_smiling	0.0		32.958248110404384	
0.0	9.802301622756204	pulse	1.0	t		19.0	female	white	4.298846000795861	smiling	100	sub-11	2.0	2.0	100_smiling	0.0		33.65823271594127	
0.0	10.502282002365973	pulse	1.0	t		19.0	female	white	4.298846000795861	smiling	100	sub-11	2.0	2.0	100_smiling	0.0		34.35821309555104	
1.0	11.01047245900918	face	0.0		146	40.0	female	west_asian	1.5777954635893354	neutral	038	sub-11	2.0	2.0	038_neutral	0.0		34.86640355219424	1.2416438265208853
1.0	11.202260570862563	pulse	0.0	t		40.0	female	west_asian	1.5777954635893354	neutral	038	sub-11	2.0	2.0	038_neutral	0.0		35.05819166404763	
1.0	11.902232196760451	pulse	0.0	t		40.0	female	west_asian	1.5777954635893354	neutral	038	sub-11	2.0	2.0	038_neutral	0.0		35.758163289945514	
1.0	12.252116285530064	fix	1.0		444	40.0	female	west_asian	1.5777954635893354	neutral	038	sub-11	2.0	2.0	038_neutral	0.0		36.10804737871513	3.7582067566581827
1.0	12.602218009706121	pulse	1.0	t		40.0	female	west_asian	1.5777954635893354	neutral	038	sub-11	2.0	2.0	038_neutral	0.0		36.458149102891184	
1.0	13.302194163385138	pulse	1.0	t		40.0	female	west_asian	1.5777954635893354	neutral	038	sub-11	2.0	2.0	038_neutral	0.0		37.1581252565702	
1.0	14.002177561516874	pulse	1.0	t		40.0	female	west_asian	1.5777954635893354	neutral	038	sub-11	2.0	2.0	038_neutral	0.0		37.85810865470194	
1.0	14.702156130013464	pulse	1.0	t		40.0	female	west_asian	1.5777954635893354	neutral	038	sub-11	2.0	2.0	038_neutral	0.0		38.55808722319853	
1.0	15.402137113327626	pulse	1.0	t		40.0	female	west_asian	1.5777954635893354	neutral	038	sub-11	2.0	2.0	038_neutral	0.0		39.25806820651269	
2.0	16.010323042188247	face	0.0		146	28.0	female	white	5.676880222841227	smiling	124	sub-11	2.0	2.0	124_smiling	0.0		39.86625413537331	1.2416495617108012
2.0	16.102116587378987	pulse	0.0	t		28.0	female	white	5.676880222841227	smiling	124	sub-11	2.0	2.0	124_smiling	0.0		39.95804768056405	
2.0	16.802087911426497	pulse	0.0	t		28.0	female	white	5.676880222841227	smiling	124	sub-11	2.0	2.0	124_smiling	0.0		40.65801900461156	
2.0	17.25197260389905	fix	1.0		445	28.0	female	white	5.676880222841227	smiling	124	sub-11	2.0	2.0	124_smiling	0.0		41.10790369708411	3.7582007196142513
2.0	17.502080666974507	pulse	1.0	t		28.0	female	white	5.676880222841227	smiling	124	sub-11	2.0	2.0	124_smiling	0.0		41.35801176015957	
2.0	18.20204685952922	pulse	1.0	t		28.0	female	white	5.676880222841227	smiling	124	sub-11	2.0	2.0	124_smiling	0.0		42.05797795271428	
2.0	18.902035389146477	pulse	1.0	t		28.0	female	white	5.676880222841227	smiling	124	sub-11	2.0	2.0	124_smiling	0.0		42.75796648233154	
2.0	19.60200912801156	pulse	1.0	t		28.0	female	white	5.676880222841227	smiling	124	sub-11	2.0	2.0	124_smiling	0.0		43.45794022119662	
2.0	20.301992827993672	pulse	1.0	t		28.0	female	white	5.676880222841227	smiling	124	sub-11	2.0	2.0	124_smiling	0.0		44.157923921178735	
3.0	21.0101733235133	face	0.0		147	25.0	female	black	3.858336649423	neutral	126	sub-11	2.0	2.0	126_neutral	0.0		44.86610441669836	1.2416374876229384
3.0	21.002949095651275	pulse	0.0	t		25.0	female	black	3.858336649423	neutral	126	sub-11	2.0	2.0	126_neutral	0.0		44.85888018883634	
3.0	21.701960227957898	pulse	0.0	t		25.0	female	black	3.858336649423	neutral	126	sub-11	2.0	2.0	126_neutral	0.0		45.55789132114296	
3.0	22.251810811136238	fix	1.0		443	25.0	female	black	3.858336649423	neutral	126	sub-11	2.0	2.0	126_neutral	0.0		46.1077419043213	3.7582257733447477
3.0	22.40192521310746	pulse	1.0	t		25.0	female	black	3.858336649423	neutral	126	sub-11	2.0	2.0	126_neutral	0.0		46.257856306292524	
3.0	23.10190468716246	pulse	1.0	t		25.0	female	black	3.858336649423	neutral	126	sub-11	2.0	2.0	126_neutral	0.0		46.95783578034752	
3.0	23.801927929776866	pulse	1.0	t		25.0	female	black	3.858336649423	neutral	126	sub-11	2.0	2.0	126_neutral	0.0		47.65785902296193	
3.0	24.501865748232376	pulse	1.0	t		25.0	female	black	3.858336649423	neutral	126	sub-11	2.0	2.0	126_neutral	0.0		48.35779684141744	
3.0	25.20185457970001	pulse	1.0	t		25.0	female	black	3.858336649423	neutral	126	sub-11	2.0	2.0	126_neutral	0.0		49.057785672885075	
3.0	25.90182439448472	pulse	1.0	t		25.0	female	black	3.858336649423	neutral	126	sub-11	2.0	2.0	126_neutral	0.0		49.75775548766978	
4.0	26.010036584480986	face	0.0		147	28.0	female	white	5.676880222841227	neutral	124	sub-11	2.0	2.0	124_neutral	0.0		49.86596767766605	1.2416396005901333
4.0	26.60179692593738	pulse	0.0	t		28.0	female	white	5.676880222841227	neutral	124	sub-11	2.0	2.0	124_neutral	0.0		50.45772801912244	
4.0	27.25167618507112	fix	1.0		444	28.0	female	white	5.676880222841227	neutral	124	sub-11	2.0	2.0	124_neutral	0.0		51.10760727825618	3.7582061529537896
4.0	27.301782135182293	pulse	1.0	t		28.0	female	white	5.676880222841227	neutral	124	sub-11	2.0	2.0	124_neutral	0.0		51.157713228367356	
4.0	28.001765231460013	pulse	1.0	t		28.0	female	white	5.676880222841227	neutral	124	sub-11	2.0	2.0	124_neutral	0.0		51.857696324645076	
4.0	28.701742592547816	pulse	1.0	t		28.0	female	white	5.676880222841227	neutral	124	sub-11	2.0	2.0	124_neutral	0.0		52.55767368573288	
4.0	29.40172538697516	pulse	1.0	t		28.0	female	white	5.676880222841227	neutral	124	sub-11	2.0	2.0	124_neutral	0.0		53.25765648016022	
4.0	30.101703351767355	pulse	1.0	t		28.0	female	white	5.676880222841227	neutral	124	sub-11	2.0	2.0	124_neutral	0.0		53.95763444495242	
4.0	30.80168312767273	pulse	1.0	t		28.0	female	white	5.676880222841227	neutral	124	sub-11	2.0	2.0	124_neutral	0.0		54.657614220857795	
5.0	31.00988233802491	face	0.0		146	24.0	male	white	3.1153999204138483	neutral	012	sub-11	2.0	2.0	012_neutral	0.0		54.86581343120997	1.241646241338458
5.0	31.501665922100074	pulse	0.0	t		24.0	male	white	3.1153999204138483	neutral	012	sub-11	2.0	2.0	012_neutral	0.0		55.35759701528514	
5.0	32.201639057257125	pulse	0.0	t		24.0	male	white	3.1153999204138483	neutral	012	sub-11	2.0	2.0	012_neutral	0.0		56.05757015044219	
5.0	32.25152857936337	fix	1.0		445	24.0	male	white	3.1153999204138483	neutral	012	sub-11	2.0	2.0	012_neutral	0.0		56.10745967254843	3.766544215304748
5.0	32.90162064427204	pulse	1.0	t		24.0	male	white	3.1153999204138483	neutral	012	sub-11	2.0	2.0	012_neutral	0.0		56.757551737457106	
5.0	33.60159498683788	pulse	1.0	t		24.0	male	white	3.1153999204138483	neutral	012	sub-11	2.0	2.0	012_neutral	0.0		57.457526080022944	
5.0	34.30158502571794	pulse	1.0	t		24.0	male	white	3.1153999204138483	neutral	012	sub-11	2.0	2.0	012_neutral	0.0		58.157516118903004	
5.0	35.00155816087499	pulse	1.0	t		24.0	male	white	3.1153999204138483	neutral	012	sub-11	2.0	2.0	012_neutral	0.0		58.857489254060056	
5.0	35.701540049743926	pulse	1.0	t		24.0	male	white	3.1153999204138483	neutral	012	sub-11	2.0	2.0	012_neutral	0.0		59.55747114292899	
6.0	36.018072794668115	face	0.0		145	31.0	female	east_asian	3.395941106247513	neutral	087	sub-11	2.0	2.0	087_neutral	0.0		59.87400388785318	1.2333096882466634
6.0	36.401507147860684	pulse	0.0	t		31.0	female	east_asian	3.395941106247513	neutral	087	sub-11	2.0	2.0	087_neutral	0.0		60.25743824104575	
6.0	37.10148601820765	pulse	0.0	t		31.0	female	east_asian	3.395941106247513	neutral	087	sub-11	2.0	2.0	087_neutral	0.0		60.957417111392715	
6.0	37.25138248291478	fix	1.0		445	31.0	female	east_asian	3.395941106247513	neutral	087	sub-11	2.0	2.0	087_neutral	0.0		61.10731357609984	3.7665414986367978
6.0	37.80145492743395	pulse	1.0	t		31.0	female	east_asian	3.395941106247513	neutral	087	sub-11	2.0	2.0	087_neutral	0.0		61.657386020619015	
6.0	38.50144043853288	pulse	1.0	t		31.0	female	east_asian	3.395941106247513	neutral	087	sub-11	2.0	2.0	087_neutral	0.0		62.357371531717945	
6.0	39.20143440148604	pulse	1.0	t		31.0	female	east_asian	3.395941106247513	neutral	087	sub-11	2.0	2.0	087_neutral	0.0		63.0573654946711	
6.0	39.901422931106936	pulse	1.0	t		31.0	female	east_asian	3.395941106247513	neutral	087	sub-11	2.0	2.0	087_neutral	0.0		63.757354024292	
6.0	40.6013948588552	pulse	1.0	t		31.0	female	east_asian	3.395941106247513	neutral	087	sub-11	2.0	2.0	087_neutral	0.0		64.45732595204026	
7.0	41.017923981551576	face	0.0		145	21.0	male	east_asian/white	3.501790688420215	neutral	036	sub-11	2.0	2.0	036_neutral	0.0		64.87385507473664	1.2333127067686291
7.0	41.30137644587376	pulse	0.0	t		21.0	male	east_asian/white	3.501790688420215	neutral	036	sub-11	2.0	2.0	036_neutral	0.0		65.15730753905882	
7.0	42.00135139214399	pulse	0.0	t		21.0	male	east_asian/white	3.501790688420215	neutral	036	sub-11	2.0	2.0	036_neutral	0.0		65.85728248532905	
7.0	42.251236688320205	fix	1.0		444	21.0	male	east_asian/white	3.501790688420215	neutral	036	sub-11	2.0	2.0	036_neutral	0.0		66.10716778150527	3.758277088214527
7.0	42.70133418656769	pulse	1.0	t		21.0	male	east_asian/white	3.501790688420215	neutral	036	sub-11	2.0	2.0	036_neutral	0.0		66.55726527975276	
7.0	43.401308830987546	pulse	1.0	t		21.0	male	east_asian/white	3.501790688420215	neutral	036	sub-11	2.0	2.0	036_neutral	0.0		67.25723992417261	
7.0	44.10129313467405	pulse	1.0	t		21.0	male	east_asian/white	3.501790688420215	neutral	036	sub-11	2.0	2.0	036_neutral	0.0		67.95722422785911	
7.0	44.801269590207085	pulse	1.0	t		21.0	male	east_asian/white	3.501790688420215	neutral	036	sub-11	2.0	2.0	036_neutral	0.0		68.65720068339215	
7.0	45.501247253145266	pulse	1.0	t		21.0	male	east_asian/white	3.501790688420215	neutral	036	sub-11	2.0	2.0	036_neutral	0.0		69.35717834633033	
8.0	46.00951377653473	face	0.0		146	26.0	male	white	2.7966573816155993	smiling	117	sub-11	2.0	2.0	117_smiling	0.0		69.8654448697198	1.2415762116324913
8.0	46.20122884016382	pulse	0.0	t		26.0	male	white	2.7966573816155993	smiling	117	sub-11	2.0	2.0	117_smiling	0.0		70.05715993334888	
8.0	46.90120469198882	pulse	0.0	t		26.0	male	white	2.7966573816155993	smiling	117	sub-11	2.0	2.0	117_smiling	0.0		70.75713578517389	
8.0	47.25108998816722	fix	1.0		444	26.0	male	white	2.7966573816155993	smiling	117	sub-11	2.0	2.0	117_smiling	0.0		71.10702108135229	3.766542706045584
8.0	47.60118326048541	pulse	1.0	t		26.0	male	white	2.7966573816155993	smiling	117	sub-11	2.0	2.0	117_smiling	0.0		71.45711435367048	
8.0	48.301164243799576	pulse	1.0	t		26.0	male	white	2.7966573816155993	smiling	117	sub-11	2.0	2.0	117_smiling	0.0		72.15709533698464	
8.0	49.00115488638403	pulse	1.0	t		26.0	male	white	2.7966573816155993	smiling	117	sub-11	2.0	2.0	117_smiling	0.0		72.85708597956909	
8.0	49.70111292893125	pulse	1.0	t		26.0	male	white	2.7966573816155993	smiling	117	sub-11	2.0	2.0	117_smiling	0.0		73.55704402211632	
8.0	50.40110870300123	pulse	1.0	t		26.0	male	white	2.7966573816155993	smiling	117	sub-11	2.0	2.0	117_smiling	0.0		74.25703979618629	
9.0	51.01763269421281	face	0.0		145	40.0	male	black	2.408674890569041	smiling	061	sub-11	2.0	2.0	061_smiling	0.0		74.87356378739787	1.2333090845422703
9.0	51.10108757335183	pulse	0.0	t		40.0	male	black	2.408674890569041	smiling	061	sub-11	2.0	2.0	061_smiling	0.0		74.9570186665369	
9.0	51.80105678442851	pulse	0.0	t		40.0	male	black	2.408674890569041	smiling	061	sub-11	2.0	2.0	061_smiling	0.0		75.65698787761357	
9.0	52.25094177875508	fix	1.0		444	40.0	male	black	2.408674890569041	smiling	061	sub-11	2.0	2.0	061_smiling	0.0		76.10687287194014	3.7665366690016526
9.0	52.50104772886334	pulse	1.0	t		40.0	male	black	2.408674890569041	smiling	061	sub-11	2.0	2.0	061_smiling	0.0		76.3569788220484	
9.0	53.20101965661161	pulse	1.0	t		40.0	male	black	2.408674890569041	smiling	061	sub-11	2.0	2.0	061_smiling	0.0		77.05695074979667	
9.0	53.90099641399502	pulse	1.0	t		40.0	male	black	2.408674890569041	smiling	061	sub-11	2.0	2.0	061_smiling	0.0		77.75692750718008	
9.0	54.600975888050016	pulse	1.0	t		40.0	male	black	2.408674890569041	smiling	061	sub-11	2.0	2.0	061_smiling	0.0		78.45690698123508	
9.0	55.30095475839698	pulse	1.0	t		40.0	male	black	2.408674890569041	smiling	061	sub-11	2.0	2.0	061_smiling	0.0		79.15688585158205	
10.0	56.01747844775673	face	0.0		146	20.0	female	white	3.9502586549940313	smiling	091	sub-11	2.0	2.0	091_smiling	0.0		79.8734095409418	1.2333160271409724
10.0	56.003749909443286	pulse	0.0	t		20.0	female	white	3.9502586549940313	smiling	091	sub-11	2.0	2.0	091_smiling	0.0		79.85968100262835	
10.0	56.70092215836485	pulse	0.0	t		20.0	female	white	3.9502586549940313	smiling	091	sub-11	2.0	2.0	091_smiling	0.0		80.55685325154991	
10.0	57.2507944748977	fix	1.0		443	20.0	female	white	3.9502586549940313	smiling	091	sub-11	2.0	2.0	091_smiling	0.0		81.10672556808277	3.7582870493351948
10.0	57.40089770833947	pulse	1.0	t		20.0	female	white	3.9502586549940313	smiling	091	sub-11	2.0	2.0	091_smiling	0.0		81.25682880152453	
10.0	58.100885634252336	pulse	1.0	t		20.0	female	white	3.9502586549940313	smiling	091	sub-11	2.0	2.0	091_smiling	0.0		81.9568167274374	
10.0	58.8008651083037	pulse	1.0	t		20.0	female	white	3.9502586549940313	smiling	091	sub-11	2.0	2.0	091_smiling	0.0		82.65679620148876	
10.0	59.50083069715765	pulse	1.0	t		20.0	female	white	3.9502586549940313	smiling	091	sub-11	2.0	2.0	091_smiling	0.0		83.35676179034272	
10.0	60.2008219434465	pulse	1.0	t		20.0	female	white	3.9502586549940313	smiling	091	sub-11	2.0	2.0	091_smiling	0.0		84.05675303663156	
10.0	60.90079356934075	pulse	1.0	t		20.0	female	white	3.9502586549940313	smiling	091	sub-11	2.0	2.0	091_smiling	0.0		84.75672466252581	
11.0	61.0090815242329	face	0.0		147	23.0	male	white	2.6275368085953046	neutral	141	sub-11	2.0	2.0	141_neutral	1.0	attractiveness	84.86501261741796	1.2415671560702322
11.0	61.60077938229006	pulse	0.0	t		23.0	male	white	2.6275368085953046	neutral	141	sub-11	2.0	2.0	141_neutral	1.0	attractiveness	85.45671047547512	
11.0	62.25064868030313	fix	1.0		176	23.0	male	white	2.6275368085953046	neutral	141	sub-11	2.0	2.0	141_neutral	1.0	attractiveness	86.10657977348819	1.5083133104708395
11.0	62.30075855449104	pulse	1.0	t		23.0	male	white	2.6275368085953046	neutral	141	sub-11	2.0	2.0	141_neutral	1.0	attractiveness	86.1566896476761	
11.0	63.00073350076127	pulse	1.0	t		23.0	male	white	2.6275368085953046	neutral	141	sub-11	2.0	2.0	141_neutral	1.0	attractiveness	86.85666459394633	
11.0	63.70071297481263	pulse	1.0	t		23.0	male	white	2.6275368085953046	neutral	141	sub-11	2.0	2.0	141_neutral	1.0	attractiveness	87.5566440679977	
11.0	63.75896199077397	rating	2.0		294	23.0	male	white	2.6275368085953046	neutral	141	sub-11	2.0	2.0	141_neutral	1.0	attractiveness	87.61489308395903	2.491569269037427
11.0	64.40070150442989	pulse	2.0	t		23.0	male	white	2.6275368085953046	neutral	141	sub-11	2.0	2.0	141_neutral	1.0	attractiveness	88.25663259761495	
11.0	65.10068218589367	pulse	2.0	t		23.0	male	white	2.6275368085953046	neutral	141	sub-11	2.0	2.0	141_neutral	1.0	attractiveness	88.95661327907874	
11.0	65.3787640964947	response	2.0	b		23.0	male	white	2.6275368085953046	neutral	141	sub-11	2.0	2.0	141_neutral	1.0	attractiveness	89.23469518967977	
11.0	65.80063660621454	pulse	2.0	t		23.0	male	white	2.6275368085953046	neutral	141	sub-11	2.0	2.0	141_neutral	1.0	attractiveness	89.6565676993996	
11.0	66.2505312598114	fix	3.0		444	23.0	male	white	2.6275368085953046	neutral	141	sub-11	2.0	2.0	141_neutral	1.0	attractiveness	90.10646235299646	3.7665375745564234
11.0	66.50063328584292	pulse	3.0	t		23.0	male	white	2.6275368085953046	neutral	141	sub-11	2.0	2.0	141_neutral	1.0	attractiveness	90.35656437902799	
11.0	67.20061577841625	pulse	3.0	t		23.0	male	white	2.6275368085953046	neutral	141	sub-11	2.0	2.0	141_neutral	1.0	attractiveness	91.05654687160131	
11.0	67.90058619690535	pulse	3.0	t		23.0	male	white	2.6275368085953046	neutral	141	sub-11	2.0	2.0	141_neutral	1.0	attractiveness	91.75651729009041	
11.0	68.60056959503709	pulse	3.0	t		23.0	male	white	2.6275368085953046	neutral	141	sub-11	2.0	2.0	141_neutral	1.0	attractiveness	92.45650068822215	
11.0	69.300551182052	pulse	3.0	t		23.0	male	white	2.6275368085953046	neutral	141	sub-11	2.0	2.0	141_neutral	1.0	attractiveness	93.15648227523707	
12.0	70.01706883436782	face	0.0		145	22.0	male	black	2.767608436132113	neutral	044	sub-11	2.0	2.0	044_neutral	1.0	trustworthiness	93.87299992755288	1.2333114993598429
12.0	70.00333063678772	pulse	0.0	t		22.0	male	black	2.767608436132113	neutral	044	sub-11	2.0	2.0	044_neutral	1.0	trustworthiness	93.85926172997279	
12.0	70.70051133756715	pulse	0.0	t		22.0	male	black	2.767608436132113	neutral	044	sub-11	2.0	2.0	044_neutral	1.0	trustworthiness	94.55644243075221	
12.0	71.25038033372766	fix	1.0		177	22.0	male	black	2.767608436132113	neutral	044	sub-11	2.0	2.0	044_neutral	1.0	trustworthiness	95.10631142691273	1.4999631740356563
12.0	71.40049383014048	pulse	1.0	t		22.0	male	black	2.767608436132113	neutral	044	sub-11	2.0	2.0	044_neutral	1.0	trustworthiness	95.25642492332554	
12.0	72.10044191157067	pulse	1.0	t		22.0	male	black	2.767608436132113	neutral	044	sub-11	2.0	2.0	044_neutral	1.0	trustworthiness	95.95637300475573	
12.0	72.75034350776332	rating	2.0		294	22.0	male	black	2.767608436132113	neutral	044	sub-11	2.0	2.0	044_neutral	1.0	trustworthiness	96.60627460094838	2.499910651760729
12.0	72.8004633430719	pulse	2.0	t		22.0	male	black	2.767608436132113	neutral	044	sub-11	2.0	2.0	044_neutral	1.0	trustworthiness	96.65639443625696	
12.0	73.50043195044782	pulse	2.0	t		22.0	male	black	2.767608436132113	neutral	044	sub-11	2.0	2.0	044_neutral	1.0	trustworthiness	97.35636304363288	
12.0	74.20040931153562	pulse	2.0	t		22.0	male	black	2.767608436132113	neutral	044	sub-11	2.0	2.0	044_neutral	1.0	trustworthiness	98.05634040472069	
12.0	74.21129440245204	response	2.0	e		22.0	male	black	2.767608436132113	neutral	044	sub-11	2.0	2.0	044_neutral	1.0	trustworthiness	98.0672254956371	
12.0	74.90042380043815	pulse	2.0	t		22.0	male	black	2.767608436132113	neutral	044	sub-11	2.0	2.0	044_neutral	1.0	trustworthiness	98.75635489362321	
12.0	75.25025415952405	fix	3.0		444	22.0	male	black	2.767608436132113	neutral	044	sub-11	2.0	2.0	044_neutral	1.0	trustworthiness	99.10618525270911	3.7665523653122364
12.0	75.60036041148487	pulse	3.0	t		22.0	male	black	2.767608436132113	neutral	044	sub-11	2.0	2.0	044_neutral	1.0	trustworthiness	99.45629150466993	
12.0	76.30034109294502	pulse	3.0	t		22.0	male	black	2.767608436132113	neutral	044	sub-11	2.0	2.0	044_neutral	1.0	trustworthiness	100.15627218613008	
12.0	77.00031966144161	pulse	3.0	t		22.0	male	black	2.767608436132113	neutral	044	sub-11	2.0	2.0	044_neutral	1.0	trustworthiness	100.85625075462667	
12.0	77.7003066817997	pulse	3.0	t		22.0	male	black	2.767608436132113	neutral	044	sub-11	2.0	2.0	044_neutral	1.0	trustworthiness	101.55623777498477	
12.0	78.40028192992395	pulse	3.0	t		22.0	male	black	2.767608436132113	neutral	044	sub-11	2.0	2.0	044_neutral	1.0	trustworthiness	102.25621302310901	
13.0	79.01680652483628	face	0.0		145	28.0	male	east_asian	1.5563072025467568	neutral	005	sub-11	2.0	2.0	005_neutral	1.0	dominance	102.87273761802135	1.2333136123270378
13.0	79.10026381879288	pulse	0.0	t		28.0	male	east_asian	1.5563072025467568	neutral	005	sub-11	2.0	2.0	005_neutral	1.0	dominance	102.95619491197795	
13.0	79.80024419840265	pulse	0.0	t		28.0	male	east_asian	1.5563072025467568	neutral	005	sub-11	2.0	2.0	005_neutral	1.0	dominance	103.65617529158772	
13.0	80.25012013716332	fix	1.0		177	28.0	male	east_asian	1.5563072025467568	neutral	005	sub-11	2.0	2.0	005_neutral	1.0	dominance	104.10605123034838	1.4999559295829386
13.0	80.50022578542121	pulse	1.0	t		28.0	male	east_asian	1.5563072025467568	neutral	005	sub-11	2.0	2.0	005_neutral	1.0	dominance	104.35615687860627	
13.0	81.20019710946508	pulse	1.0	t		28.0	male	east_asian	1.5563072025467568	neutral	005	sub-11	2.0	2.0	005_neutral	1.0	dominance	105.05612820265014	
13.0	81.75007606674626	rating	2.0		294	28.0	male	east_asian	1.5563072025467568	neutral	005	sub-11	2.0	2.0	005_neutral	1.0	dominance	105.60600715993132	2.499928159184492
13.0	81.90018654463711	pulse	2.0	t		28.0	male	east_asian	1.5563072025467568	neutral	005	sub-11	2.0	2.0	005_neutral	1.0	dominance	105.75611763782217	
13.0	82.60016300017014	pulse	2.0	t		28.0	male	east_asian	1.5563072025467568	neutral	005	sub-11	2.0	2.0	005_neutral	1.0	dominance	106.4560940933552	
13.0	83.30013855014477	pulse	2.0	t		28.0	male	east_asian	1.5563072025467568	neutral	005	sub-11	2.0	2.0	005_neutral	1.0	dominance	107.15606964332983	
13.0	83.61986187244838	response	2.0	w		28.0	male	east_asian	1.5563072025467568	neutral	005	sub-11	2.0	2.0	005_neutral	1.0	dominance	107.47579296563345	
13.0	84.00011923160491	pulse	2.0	t		28.0	male	east_asian	1.5563072025467568	neutral	005	sub-11	2.0	2.0	005_neutral	1.0	dominance	107.85605032478998	
13.0	84.25000422593075	fix	3.0		444	28.0	male	east_asian	1.5563072025467568	neutral	005	sub-11	2.0	2.0	005_neutral	1.0	dominance	108.10593531911582	3.758203134431824
13.0	84.70009055564879	pulse	3.0	t		28.0	male	east_asian	1.5563072025467568	neutral	005	sub-11	2.0	2.0	005_neutral	1.0	dominance	108.55602164883385	
13.0	85.40008180193763	pulse	3.0	t		28.0	male	east_asian	1.5563072025467568	neutral	005	sub-11	2.0	2.0	005_neutral	1.0	dominance	109.2560128951227	
13.0	86.10005554079908	pulse	3.0	t		28.0	male	east_asian	1.5563072025467568	neutral	005	sub-11	2.0	2.0	005_neutral	1.0	dominance	109.95598663398414	
13.0	86.80003320373726	pulse	3.0	t		28.0	male	east_asian	1.5563072025467568	neutral	005	sub-11	2.0	2.0	005_neutral	1.0	dominance	110.65596429692232	
13.0	87.50001509260983	pulse	3.0	t		28.0	male	east_asian	1.5563072025467568	neutral	005	sub-11	2.0	2.0	005_neutral	1.0	dominance	111.35594618579489	
14.0	88.00820736036258	face	0.0		146	30.0	female	black	2.7345801830481498	neutral	062	sub-11	2.0	2.0	062_neutral	0.0		111.86413845354764	1.241629941319843
14.0	88.19997373886144	pulse	0.0	t		30.0	female	black	2.7345801830481498	neutral	062	sub-11	2.0	2.0	062_neutral	0.0		112.05590483204651	
14.0	88.89998128516527	pulse	0.0	t		30.0	female	black	2.7345801830481498	neutral	062	sub-11	2.0	2.0	062_neutral	0.0		112.75591237835033	
14.0	89.24983730168242	fix	1.0		444	30.0	female	black	2.7345801830481498	neutral	062	sub-11	2.0	2.0	062_neutral	0.0		113.10576839486748	3.7583039530582028
14.0	89.59994717587324	pulse	1.0	t		30.0	female	black	2.7345801830481498	neutral	062	sub-11	2.0	2.0	062_neutral	0.0		113.4558782690583	
14.0	90.29993721474966	pulse	1.0	t		30.0	female	black	2.7345801830481498	neutral	062	sub-11	2.0	2.0	062_neutral	0.0		114.15586830793472	
14.0	90.99990884064755	pulse	1.0	t		30.0	female	black	2.7345801830481498	neutral	062	sub-11	2.0	2.0	062_neutral	0.0		114.85583993383261	
14.0	91.69988559803096	pulse	1.0	t		30.0	female	black	2.7345801830481498	neutral	062	sub-11	2.0	2.0	062_neutral	0.0		115.55581669121602	
14.0	92.39987231653504	pulse	1.0	t		30.0	female	black	2.7345801830481498	neutral	062	sub-11	2.0	2.0	062_neutral	0.0		116.2558034097201	
15.0	93.00814125474062	face	0.0		146	54.0	female	white	2.286908077994429	smiling	136	sub-11	2.0	2.0	136_smiling	0.0		116.86407234792568	1.2415653449570527
15.0	93.09985571466677	pulse	0.0	t		54.0	female	white	2.286908077994429	smiling	136	sub-11	2.0	2.0	136_smiling	0.0		116.95578680785184	
15.0	93.79983247205018	pulse	0.0	t		54.0	female	white	2.286908077994429	smiling	136	sub-11	2.0	2.0	136_smiling	0.0		117.65576356523525	
15.0	94.24970659969767	fix	1.0		444	54.0	female	white	2.286908077994429	smiling	136	sub-11	2.0	2.0	136_smiling	0.0		118.10563769288274	3.7665354615892284
15.0	94.49981013498837	pulse	1.0	t		54.0	female	white	2.286908077994429	smiling	136	sub-11	2.0	2.0	136_smiling	0.0		118.35574122817343	
15.0	95.19979111830253	pulse	1.0	t		54.0	female	white	2.286908077994429	smiling	136	sub-11	2.0	2.0	136_smiling	0.0		119.05572221148759	
15.0	95.89977662939782	pulse	1.0	t		54.0	female	white	2.286908077994429	smiling	136	sub-11	2.0	2.0	136_smiling	0.0		119.75570772258288	
15.0	96.59974916085048	pulse	1.0	t		54.0	female	white	2.286908077994429	smiling	136	sub-11	2.0	2.0	136_smiling	0.0		120.45568025403554	
15.0	97.29972772934707	pulse	1.0	t		54.0	female	white	2.286908077994429	smiling	136	sub-11	2.0	2.0	136_smiling	0.0		121.15565882253213	
16.0	98.0162420612869	face	0.0		146	40.0	male	white	1.868682849184242	neutral	172	sub-11	2.0	2.0	172_neutral	0.0		121.87217315447197	1.233318441962183
16.0	98.00249903407166	pulse	0.0	t		40.0	male	white	1.868682849184242	neutral	172	sub-11	2.0	2.0	172_neutral	0.0		121.85843012725672	
16.0	98.6996896959754	pulse	0.0	t		40.0	male	white	1.868682849184242	neutral	172	sub-11	2.0	2.0	172_neutral	0.0		122.55562078916046	
16.0	99.24956050324909	fix	1.0		443	40.0	male	white	1.868682849184242	neutral	172	sub-11	2.0	2.0	172_neutral	0.0		123.10549159643415	3.7665396875199804
16.0	99.39966343483684	pulse	1.0	t		40.0	male	white	1.868682849184242	neutral	172	sub-11	2.0	2.0	172_neutral	0.0		123.2555945280219	
16.0	100.09964773852334	pulse	1.0	t		40.0	male	white	1.868682849184242	neutral	172	sub-11	2.0	2.0	172_neutral	0.0		123.95557883170841	
16.0	100.79962509961115	pulse	1.0	t		40.0	male	white	1.868682849184242	neutral	172	sub-11	2.0	2.0	172_neutral	0.0		124.65555619279621	
16.0	101.49958766994314	pulse	1.0	t		40.0	male	white	1.868682849184242	neutral	172	sub-11	2.0	2.0	172_neutral	0.0		125.3555187631282	
16.0	102.19958857549864	pulse	1.0	t		40.0	male	white	1.868682849184242	neutral	172	sub-11	2.0	2.0	172_neutral	0.0		126.0555196686837	
16.0	102.89955476805699	pulse	1.0	t		40.0	male	white	1.868682849184242	neutral	172	sub-11	2.0	2.0	172_neutral	0.0		126.75548586124205	
17.0	103.01610019076907	face	0.0		146	23.0	male	white	2.6275368085953046	smiling	141	sub-11	2.0	2.0	141_smiling	0.0		126.87203128395413	1.2333133104766603
17.0	103.59954631619621	pulse	0.0	t		23.0	male	white	2.6275368085953046	smiling	141	sub-11	2.0	2.0	141_smiling	0.0		127.45547740938127	
17.0	104.24941350124573	fix	1.0		443	23.0	male	white	2.6275368085953046	smiling	141	sub-11	2.0	2.0	141_smiling	0.0		128.1053445944308	3.7582583733783395
17.0	104.29955657917162	pulse	1.0	t		23.0	male	white	2.6275368085953046	smiling	141	sub-11	2.0	2.0	141_smiling	0.0		128.15548767235668	
17.0	104.9995022457806	pulse	1.0	t		23.0	male	white	2.6275368085953046	smiling	141	sub-11	2.0	2.0	141_smiling	0.0		128.85543333896567	
17.0	105.69948232353636	pulse	1.0	t		23.0	male	white	2.6275368085953046	smiling	141	sub-11	2.0	2.0	141_smiling	0.0		129.55541341672142	
17.0	106.39944610127714	pulse	1.0	t		23.0	male	white	2.6275368085953046	smiling	141	sub-11	2.0	2.0	141_smiling	0.0		130.2553771944622	
17.0	107.09945515684376	pulse	1.0	t		23.0	male	white	2.6275368085953046	smiling	141	sub-11	2.0	2.0	141_smiling	0.0		130.95538625002882	
17.0	107.79940987901864	pulse	1.0	t		23.0	male	white	2.6275368085953046	smiling	141	sub-11	2.0	2.0	141_smiling	0.0		131.6553409722037	
18.0	108.00767187462407	face	0.0		146	34.0	male	white	2.651014723438122	smiling	121	sub-11	2.0	2.0	121_smiling	0.0		131.86360296780913	1.2415943227642856
18.0	108.49940414382581	pulse	0.0	t		34.0	male	white	2.651014723438122	smiling	121	sub-11	2.0	2.0	121_smiling	0.0		132.35533523701088	
18.0	109.19938029750483	pulse	0.0	t		34.0	male	white	2.651014723438122	smiling	121	sub-11	2.0	2.0	121_smiling	0.0		133.0553113906899	
18.0	109.24926619738835	fix	1.0		445	34.0	male	white	2.651014723438122	smiling	121	sub-11	2.0	2.0	121_smiling	0.0		133.10519729057341	3.766539989373996
18.0	109.89935765859263	pulse	1.0	t		34.0	male	white	2.651014723438122	smiling	121	sub-11	2.0	2.0	121_smiling	0.0		133.7552887517777	
18.0	110.59933320856726	pulse	1.0	t		34.0	male	white	2.651014723438122	smiling	121	sub-11	2.0	2.0	121_smiling	0.0		134.45526430175232	
18.0	111.29930634372431	pulse	1.0	t		34.0	male	white	2.651014723438122	smiling	121	sub-11	2.0	2.0	121_smiling	0.0		135.15523743690937	
18.0	111.99929426963718	pulse	1.0	t		34.0	male	white	2.651014723438122	smiling	121	sub-11	2.0	2.0	121_smiling	0.0		135.85522536282224	
18.0	112.6992713288746	pulse	1.0	t		34.0	male	white	2.651014723438122	smiling	121	sub-11	2.0	2.0	121_smiling	0.0		136.55520242205966	
19.0	113.01580618676235	face	0.0		146	25.0	female	black	3.858336649423	smiling	126	sub-11	2.0	2.0	126_smiling	1.0	attractiveness	136.8717372799474	1.2416471468932286
19.0	113.39925563256111	pulse	0.0	t		25.0	female	black	3.858336649423	smiling	126	sub-11	2.0	2.0	126_smiling	1.0	attractiveness	137.25518672574617	
19.0	114.09923691772929	pulse	0.0	t		25.0	female	black	3.858336649423	smiling	126	sub-11	2.0	2.0	126_smiling	1.0	attractiveness	137.95516801091435	
19.0	114.25745333365558	fix	1.0		177	25.0	female	black	3.858336649423	smiling	126	sub-11	2.0	2.0	126_smiling	1.0	attractiveness	138.11338442684064	1.4999574388457404
19.0	114.79920552510157	pulse	1.0	t		25.0	female	black	3.858336649423	smiling	126	sub-11	2.0	2.0	126_smiling	1.0	attractiveness	138.65513661828663	
19.0	115.49919163990126	pulse	1.0	t		25.0	female	black	3.858336649423	smiling	126	sub-11	2.0	2.0	126_smiling	1.0	attractiveness	139.35512273308632	
19.0	115.75741077250132	rating	2.0		295	25.0	female	black	3.858336649423	smiling	126	sub-11	2.0	2.0	126_smiling	1.0	attractiveness	139.61334186568638	2.4999248388085107
19.0	116.19917684914617	pulse	2.0	t		25.0	female	black	3.858336649423	smiling	126	sub-11	2.0	2.0	126_smiling	1.0	attractiveness	140.05510794233123	
19.0	116.89915209727042	pulse	2.0	t		25.0	female	black	3.858336649423	smiling	126	sub-11	2.0	2.0	126_smiling	1.0	attractiveness	140.75508319045548	
19.0	117.4022273671253	response	2.0	b		25.0	female	black	3.858336649423	smiling	126	sub-11	2.0	2.0	126_smiling	1.0	attractiveness	141.25815846031037	
19.0	117.59913187317579	pulse	2.0	t		25.0	female	black	3.858336649423	smiling	126	sub-11	2.0	2.0	126_smiling	1.0	attractiveness	141.45506296636086	
19.0	118.25733561130983	fix	3.0		443	25.0	female	black	3.858336649423	smiling	126	sub-11	2.0	2.0	126_smiling	1.0	attractiveness	142.1132667044949	3.76654119678642
19.0	118.29911225278192	pulse	3.0	t		25.0	female	black	3.858336649423	smiling	126	sub-11	2.0	2.0	126_smiling	1.0	attractiveness	142.155043345967	
19.0	118.99909112313253	pulse	3.0	t		25.0	female	black	3.858336649423	smiling	126	sub-11	2.0	2.0	126_smiling	1.0	attractiveness	142.8550222163176	
19.0	119.69906395643557	pulse	3.0	t		25.0	female	black	3.858336649423	smiling	126	sub-11	2.0	2.0	126_smiling	1.0	attractiveness	143.55499504962063	
19.0	120.39904675086291	pulse	3.0	t		25.0	female	black	3.858336649423	smiling	126	sub-11	2.0	2.0	126_smiling	1.0	attractiveness	144.25497784404797	
19.0	121.09902652676828	pulse	3.0	t		25.0	female	black	3.858336649423	smiling	126	sub-11	2.0	2.0	126_smiling	1.0	attractiveness	144.95495761995335	
19.0	121.79899785081216	pulse	3.0	t		25.0	female	black	3.858336649423	smiling	126	sub-11	2.0	2.0	126_smiling	1.0	attractiveness	145.65492894399722	
20.0	122.02387680809625	face	0.0		145	26.0	female	white	4.854755272582572	neutral	027	sub-11	2.0	2.0	027_neutral	0.0		145.8798079012813	1.2333114993598429
20.0	122.49899060636017	pulse	0.0	t		26.0	female	white	4.854755272582572	neutral	027	sub-11	2.0	2.0	027_neutral	0.0		146.35492169954523	
20.0	123.1989655526304	pulse	0.0	t		26.0	female	white	4.854755272582572	neutral	027	sub-11	2.0	2.0	027_neutral	0.0		147.05489664581546	
20.0	123.25718830745609	fix	1.0		1185	26.0	female	white	4.854755272582572	neutral	027	sub-11	2.0	2.0	027_neutral	0.0		147.11311940064115	10.016356161406293
20.0	123.89894563038979	pulse	1.0	t		26.0	female	white	4.854755272582572	neutral	027	sub-11	2.0	2.0	027_neutral	0.0		147.75487672357485	
20.0	124.5989223877732	pulse	1.0	t		26.0	female	white	4.854755272582572	neutral	027	sub-11	2.0	2.0	027_neutral	0.0		148.45485348095826	
20.0	125.29890457849251	pulse	1.0	t		26.0	female	white	4.854755272582572	neutral	027	sub-11	2.0	2.0	027_neutral	0.0		149.15483567167757	
20.0	125.9990301489961	pulse	1.0	t		26.0	female	white	4.854755272582572	neutral	027	sub-11	2.0	2.0	027_neutral	0.0		149.85496124218116	
20.0	126.69886141363531	pulse	1.0	t		26.0	female	white	4.854755272582572	neutral	027	sub-11	2.0	2.0	027_neutral	0.0		150.55479250682038	
20.0	127.39884239694948	pulse	1.0	t		26.0	female	white	4.854755272582572	neutral	027	sub-11	2.0	2.0	027_neutral	0.0		151.25477349013454	
20.0	128.0988333413843	pulse	1.0	t		26.0	female	white	4.854755272582572	neutral	027	sub-11	2.0	2.0	027_neutral	0.0		151.95476443456937	
20.0	128.79880255246098	pulse	1.0	t		26.0	female	white	4.854755272582572	neutral	027	sub-11	2.0	2.0	027_neutral	0.0		152.65473364564605	
20.0	129.4987781024356	pulse	1.0	t		26.0	female	white	4.854755272582572	neutral	027	sub-11	2.0	2.0	027_neutral	0.0		153.35470919562067	
20.0	130.19876059501257	pulse	1.0	t		26.0	female	white	4.854755272582572	neutral	027	sub-11	2.0	2.0	027_neutral	0.0		154.05469168819764	
20.0	130.89873825795075	pulse	1.0	t		26.0	female	white	4.854755272582572	neutral	027	sub-11	2.0	2.0	027_neutral	0.0		154.75466935113582	
20.0	131.59871682644734	pulse	1.0	t		26.0	female	white	4.854755272582572	neutral	027	sub-11	2.0	2.0	027_neutral	0.0		155.4546479196324	
20.0	132.2986975079075	pulse	1.0	t		26.0	female	white	4.854755272582572	neutral	027	sub-11	2.0	2.0	027_neutral	0.0		156.15462860109255	
20.0	132.9986763782581	pulse	1.0	t		26.0	female	white	4.854755272582572	neutral	027	sub-11	2.0	2.0	027_neutral	0.0		156.85460747144316	
21.0	133.27354446886238	face	0.0		145	31.0	male	west_asian	1.9538400318344609	smiling	070	sub-11	2.0	2.0	070_smiling	0.0		157.12947556204745	1.2333118012102204
21.0	133.69865404119628	pulse	0.0	t		31.0	male	west_asian	1.9538400318344609	smiling	070	sub-11	2.0	2.0	070_smiling	0.0		157.55458513438134	
21.0	134.39863442080605	pulse	0.0	t		31.0	male	west_asian	1.9538400318344609	smiling	070	sub-11	2.0	2.0	070_smiling	0.0		158.2545655139911	
21.0	134.5068562700726	fix	1.0		444	31.0	male	west_asian	1.9538400318344609	smiling	070	sub-11	2.0	2.0	070_smiling	0.0		158.36278736325767	3.7665424041915685
21.0	135.09861812078816	pulse	1.0	t		31.0	male	west_asian	1.9538400318344609	smiling	070	sub-11	2.0	2.0	070_smiling	0.0		158.95454921397322	
21.0	135.798592463354	pulse	1.0	t		31.0	male	west_asian	1.9538400318344609	smiling	070	sub-11	2.0	2.0	070_smiling	0.0		159.65452355653906	
21.0	136.49857465407695	pulse	1.0	t		31.0	male	west_asian	1.9538400318344609	smiling	070	sub-11	2.0	2.0	070_smiling	0.0		160.354505747262	
21.0	137.1985568447999	pulse	1.0	t		31.0	male	west_asian	1.9538400318344609	smiling	070	sub-11	2.0	2.0	070_smiling	0.0		161.05448793798496	
21.0	137.89852484847142	pulse	1.0	t		31.0	male	west_asian	1.9538400318344609	smiling	070	sub-11	2.0	2.0	070_smiling	0.0		161.7544559416565	
22.0	138.27339867426417	face	0.0		145	32.0	male	white	2.389176283326701	smiling	092	sub-11	2.0	2.0	092_smiling	1.0	trustworthiness	162.12932976744924	1.2333093863962858
22.0	138.59851428364345	pulse	0.0	t		32.0	male	white	2.389176283326701	smiling	092	sub-11	2.0	2.0	092_smiling	1.0	trustworthiness	162.45444537682852	
22.0	139.29848922991368	pulse	0.0	t		32.0	male	white	2.389176283326701	smiling	092	sub-11	2.0	2.0	092_smiling	1.0	trustworthiness	163.15442032309875	
22.0	139.50670806066046	fix	1.0		177	32.0	male	white	2.389176283326701	smiling	092	sub-11	2.0	2.0	092_smiling	1.0	trustworthiness	163.36263915384552	1.4999589481049043
22.0	139.99847896693973	pulse	1.0	t		32.0	male	white	2.389176283326701	smiling	092	sub-11	2.0	2.0	092_smiling	1.0	trustworthiness	163.8544100601248	
22.0	140.69844093356733	pulse	1.0	t		32.0	male	white	2.389176283326701	smiling	092	sub-11	2.0	2.0	092_smiling	1.0	trustworthiness	164.5543720267524	
22.0	141.00666700876536	rating	2.0		295	32.0	male	white	2.389176283326701	smiling	092	sub-11	2.0	2.0	092_smiling	1.0	trustworthiness	164.86259810195043	2.5082625993090915
22.0	141.39843972615927	pulse	2.0	t		32.0	male	white	2.389176283326701	smiling	092	sub-11	2.0	2.0	092_smiling	1.0	trustworthiness	165.25437081934433	
22.0	142.09841497428351	pulse	2.0	t		32.0	male	white	2.389176283326701	smiling	092	sub-11	2.0	2.0	092_smiling	1.0	trustworthiness	165.95434606746858	
22.0	142.7983929390757	pulse	2.0	t		32.0	male	white	2.389176283326701	smiling	092	sub-11	2.0	2.0	092_smiling	1.0	trustworthiness	166.65432403226077	
22.0	143.4233696964584	response	2.0	b		32.0	male	white	2.389176283326701	smiling	092	sub-11	2.0	2.0	092_smiling	1.0	trustworthiness	167.27930078964346	
22.0	143.49897913598033	pulse	2.0	t		32.0	male	white	2.389176283326701	smiling	092	sub-11	2.0	2.0	092_smiling	1.0	trustworthiness	167.3549102291654	
22.0	143.51492960807445	fix	3.0		443	32.0	male	white	2.389176283326701	smiling	092	sub-11	2.0	2.0	092_smiling	1.0	trustworthiness	167.37086070125952	3.7582049455486413
22.0	144.19835339644123	pulse	3.0	t		32.0	male	white	2.389176283326701	smiling	092	sub-11	2.0	2.0	092_smiling	1.0	trustworthiness	168.0542844896263	
22.0	144.89832502233912	pulse	3.0	t		32.0	male	white	2.389176283326701	smiling	092	sub-11	2.0	2.0	092_smiling	1.0	trustworthiness	168.75425611552419	
22.0	145.59830811861684	pulse	3.0	t		32.0	male	white	2.389176283326701	smiling	092	sub-11	2.0	2.0	092_smiling	1.0	trustworthiness	169.4542392118019	
22.0	146.29828034821548	pulse	3.0	t		32.0	male	white	2.389176283326701	smiling	092	sub-11	2.0	2.0	092_smiling	1.0	trustworthiness	170.15421144140055	
22.0	146.99826344449684	pulse	3.0	t		32.0	male	white	2.389176283326701	smiling	092	sub-11	2.0	2.0	092_smiling	1.0	trustworthiness	170.8541945376819	
23.0	147.2731345536231	face	0.0		145	25.0	female	west_asian	2.6756864305610826	smiling	064	sub-11	2.0	2.0	064_smiling	0.0		171.12906564680816	1.2333114993598429
23.0	147.6982601241216	pulse	0.0	t		25.0	female	west_asian	2.6756864305610826	smiling	064	sub-11	2.0	2.0	064_smiling	0.0		171.55419121730665	
23.0	148.39821877037684	pulse	0.0	t		25.0	female	west_asian	2.6756864305610826	smiling	064	sub-11	2.0	2.0	064_smiling	0.0		172.2541498635619	
23.0	148.50644605298294	fix	1.0		444	25.0	female	west_asian	2.6756864305610826	smiling	064	sub-11	2.0	2.0	064_smiling	0.0		172.362377146168	3.76654149863316
23.0	149.09820699814009	pulse	1.0	t		25.0	female	west_asian	2.6756864305610826	smiling	064	sub-11	2.0	2.0	064_smiling	0.0		172.95413809132515	
23.0	149.79818828330826	pulse	1.0	t		25.0	female	west_asian	2.6756864305610826	smiling	064	sub-11	2.0	2.0	064_smiling	0.0		173.65411937649333	
23.0	150.49816413513327	pulse	1.0	t		25.0	female	west_asian	2.6756864305610826	smiling	064	sub-11	2.0	2.0	064_smiling	0.0		174.35409522831833	
23.0	151.19814028881228	pulse	1.0	t		25.0	female	west_asian	2.6756864305610826	smiling	064	sub-11	2.0	2.0	064_smiling	0.0		175.05407138199735	
23.0	151.8981173480497	pulse	1.0	t		25.0	female	west_asian	2.6756864305610826	smiling	064	sub-11	2.0	2.0	064_smiling	0.0		175.75404844123477	
24.0	152.2729875516161	face	0.0		145	22.0	female	west_asian	3.8205332272184642	smiling	066	sub-11	2.0	2.0	066_smiling	0.0		176.12891864480116	1.2333081789874996
24.0	152.59810255729099	pulse	0.0	t		22.0	female	west_asian	3.8205332272184642	smiling	066	sub-11	2.0	2.0	066_smiling	0.0		176.45403365047605	
24.0	153.29806995725812	pulse	0.0	t		22.0	female	west_asian	3.8205332272184642	smiling	066	sub-11	2.0	2.0	066_smiling	0.0		177.15400105044318	
24.0	153.5062957306036	fix	1.0		444	22.0	female	west_asian	3.8205332272184642	smiling	066	sub-11	2.0	2.0	066_smiling	0.0		177.36222682378866	3.758293991933897
24.0	153.99806392021492	pulse	1.0	t		22.0	female	west_asian	3.8205332272184642	smiling	066	sub-11	2.0	2.0	066_smiling	0.0		177.85399501339998	
24.0	154.6980352442588	pulse	1.0	t		22.0	female	west_asian	3.8205332272184642	smiling	066	sub-11	2.0	2.0	066_smiling	0.0		178.55396633744385	
24.0	155.39802075535408	pulse	1.0	t		22.0	female	west_asian	3.8205332272184642	smiling	066	sub-11	2.0	2.0	066_smiling	0.0		179.25395184853915	
24.0	156.0979957016243	pulse	1.0	t		22.0	female	west_asian	3.8205332272184642	smiling	066	sub-11	2.0	2.0	066_smiling	0.0		179.95392679480938	
24.0	156.79798996643513	pulse	1.0	t		22.0	female	west_asian	3.8205332272184642	smiling	066	sub-11	2.0	2.0	066_smiling	0.0		180.6539210596202	
25.0	157.2645897225375	face	0.0		146	24.0	female	east_asian	4.409868682849185	neutral	030	sub-11	2.0	2.0	030_neutral	0.0		181.12052081572256	1.2415614208803163
25.0	157.49794136823402	pulse	0.0	t		24.0	female	east_asian	4.409868682849185	neutral	030	sub-11	2.0	2.0	030_neutral	0.0		181.3538724614191	
25.0	158.19794046267998	pulse	0.0	t		24.0	female	east_asian	4.409868682849185	neutral	030	sub-11	2.0	2.0	030_neutral	0.0		182.05387155586504	
25.0	158.5061511434178	fix	1.0		444	24.0	female	east_asian	4.409868682849185	neutral	030	sub-11	2.0	2.0	030_neutral	0.0		182.36208223660287	3.7665387819652096
25.0	158.89791752191377	pulse	1.0	t		24.0	female	east_asian	4.409868682849185	neutral	030	sub-11	2.0	2.0	030_neutral	0.0		182.75384861509883	
25.0	159.59790061819513	pulse	1.0	t		24.0	female	east_asian	4.409868682849185	neutral	030	sub-11	2.0	2.0	030_neutral	0.0		183.4538317113802	
25.0	160.29789790152427	pulse	1.0	t		24.0	female	east_asian	4.409868682849185	neutral	030	sub-11	2.0	2.0	030_neutral	0.0		184.15382899470933	
25.0	160.99785413296195	pulse	1.0	t		24.0	female	east_asian	4.409868682849185	neutral	030	sub-11	2.0	2.0	030_neutral	0.0		184.853785226147	
25.0	161.69781911810787	pulse	1.0	t		24.0	female	east_asian	4.409868682849185	neutral	030	sub-11	2.0	2.0	030_neutral	0.0		185.55375021129294	
26.0	162.27268992538302	face	0.0		145	47.0	male	east_asian	2.171110226820533	smiling	024	sub-11	2.0	2.0	024_smiling	0.0		186.12862101856808	1.2333054623159114
26.0	162.39781489217785	pulse	0.0	t		47.0	male	east_asian	2.171110226820533	smiling	024	sub-11	2.0	2.0	024_smiling	0.0		186.2537459853629	
26.0	163.09779044215247	pulse	0.0	t		47.0	male	east_asian	2.171110226820533	smiling	024	sub-11	2.0	2.0	024_smiling	0.0		186.95372153533754	
26.0	163.50599538769893	fix	1.0		444	47.0	male	east_asian	2.171110226820533	smiling	024	sub-11	2.0	2.0	024_smiling	0.0		187.361926480884	3.7665502523486794
26.0	163.79777625510178	pulse	1.0	t		47.0	male	east_asian	2.171110226820533	smiling	024	sub-11	2.0	2.0	024_smiling	0.0		187.65370734828684	
26.0	164.49774576803247	pulse	1.0	t		47.0	male	east_asian	2.171110226820533	smiling	024	sub-11	2.0	2.0	024_smiling	0.0		188.35367686121754	
26.0	165.1977361087629	pulse	1.0	t		47.0	male	east_asian	2.171110226820533	smiling	024	sub-11	2.0	2.0	024_smiling	0.0		189.05366720194797	
26.0	165.89770894206958	pulse	1.0	t		47.0	male	east_asian	2.171110226820533	smiling	024	sub-11	2.0	2.0	024_smiling	0.0		189.75364003525465	
26.0	166.59768901982534	pulse	1.0	t		47.0	male	east_asian	2.171110226820533	smiling	024	sub-11	2.0	2.0	024_smiling	0.0		190.4536201130104	
27.0	167.2725456400476	face	0.0		145	24.0	female	east_asian	4.409868682849185	smiling	030	sub-11	2.0	2.0	030_smiling	0.0		191.12847673323267	1.2333130086226447
27.0	167.29767513462502	pulse	0.0	t		24.0	female	east_asian	4.409868682849185	smiling	030	sub-11	2.0	2.0	030_smiling	0.0		191.1536062278101	
27.0	167.99764374200095	pulse	0.0	t		24.0	female	east_asian	4.409868682849185	smiling	030	sub-11	2.0	2.0	030_smiling	0.0		191.853574835186	
27.0	168.50585864867026	fix	1.0		443	24.0	female	east_asian	4.409868682849185	smiling	030	sub-11	2.0	2.0	030_smiling	0.0		192.36178974185532	3.766539083815587
27.0	168.69762804568745	pulse	1.0	t		24.0	female	east_asian	4.409868682849185	smiling	030	sub-11	2.0	2.0	030_smiling	0.0		192.55355913887252	
27.0	169.39760510492488	pulse	1.0	t		24.0	female	east_asian	4.409868682849185	smiling	030	sub-11	2.0	2.0	030_smiling	0.0		193.25353619810994	
27.0	170.0975882012026	pulse	1.0	t		24.0	female	east_asian	4.409868682849185	smiling	030	sub-11	2.0	2.0	030_smiling	0.0		193.95351929438766	
27.0	170.7975664678488	pulse	1.0	t		24.0	female	east_asian	4.409868682849185	smiling	030	sub-11	2.0	2.0	030_smiling	0.0		194.65349756103387	
27.0	171.4975435270826	pulse	1.0	t		24.0	female	east_asian	4.409868682849185	smiling	030	sub-11	2.0	2.0	030_smiling	0.0		195.35347462026766	
27.0	172.19752481224714	pulse	1.0	t		24.0	female	east_asian	4.409868682849185	smiling	030	sub-11	2.0	2.0	030_smiling	0.0		196.0534559054322	
28.0	172.27239773248584	face	0.0		146	21.0	male	black	2.969757262236371	neutral	137	sub-11	2.0	2.0	137_neutral	0.0		196.1283288256709	1.2333124049182516
28.0	172.89750247518896	pulse	0.0	t		21.0	male	black	2.969757262236371	neutral	137	sub-11	2.0	2.0	137_neutral	0.0		196.75343356837402	
28.0	173.5057101374041	fix	1.0		443	21.0	male	black	2.969757262236371	neutral	137	sub-11	2.0	2.0	137_neutral	0.0		197.36164123058916	3.7665396875236183
28.0	173.59748738257986	pulse	1.0	t		21.0	male	black	2.969757262236371	neutral	137	sub-11	2.0	2.0	137_neutral	0.0		197.45341847576492	
28.0	174.29743214363407	pulse	1.0	t		21.0	male	black	2.969757262236371	neutral	137	sub-11	2.0	2.0	137_neutral	0.0		198.15336323681913	
28.0	174.99743425659835	pulse	1.0	t		21.0	male	black	2.969757262236371	neutral	137	sub-11	2.0	2.0	137_neutral	0.0		198.85336534978342	
28.0	175.69742308806963	pulse	1.0	t		21.0	male	black	2.969757262236371	neutral	137	sub-11	2.0	2.0	137_neutral	0.0		199.5533541812547	
28.0	176.39739260100032	pulse	1.0	t		21.0	male	black	2.969757262236371	neutral	137	sub-11	2.0	2.0	137_neutral	0.0		200.25332369418538	
28.0	177.09744301031242	pulse	1.0	t		21.0	male	black	2.969757262236371	neutral	137	sub-11	2.0	2.0	137_neutral	0.0		200.95337410349748	
29.0	177.2722498249277	face	0.0		146	40.0	male	white	1.868682849184242	smiling	172	sub-11	2.0	2.0	172_smiling	0.0		201.12818091811278	1.24164624133482
29.0	177.7973636231909	pulse	0.0	t		40.0	male	white	1.868682849184242	smiling	172	sub-11	2.0	2.0	172_smiling	0.0		201.65329471637597	
29.0	178.49733072130766	pulse	0.0	t		40.0	male	white	1.868682849184242	smiling	172	sub-11	2.0	2.0	172_smiling	0.0		202.35326181449273	
29.0	178.51389606626253	fix	1.0		443	40.0	male	white	1.868682849184242	smiling	172	sub-11	2.0	2.0	172_smiling	0.0		202.3698271594476	3.7582070585121983
29.0	179.19732287315128	pulse	1.0	t		40.0	male	white	1.868682849184242	smiling	172	sub-11	2.0	2.0	172_smiling	0.0		203.05325396633634	
29.0	179.89729661201272	pulse	1.0	t		40.0	male	white	1.868682849184242	smiling	172	sub-11	2.0	2.0	172_smiling	0.0		203.7532277051978	
29.0	180.5972751805093	pulse	1.0	t		40.0	male	white	1.868682849184242	smiling	172	sub-11	2.0	2.0	172_smiling	0.0		204.45320627369438	
29.0	181.29724982492553	pulse	1.0	t		40.0	male	white	1.868682849184242	smiling	172	sub-11	2.0	2.0	172_smiling	0.0		205.1531809181106	
29.0	181.99723292120325	pulse	1.0	t		40.0	male	white	1.868682849184242	smiling	172	sub-11	2.0	2.0	172_smiling	0.0		205.8531640143883	
30.0	182.27210312477473	face	0.0		145	20.0	male	black	2.609629924393156	neutral	043	sub-11	2.0	2.0	043_neutral	0.0		206.1280342179598	1.2333093863926479
30.0	182.69721752674377	pulse	0.0	t		20.0	male	black	2.609629924393156	neutral	043	sub-11	2.0	2.0	043_neutral	0.0		206.55314861992883	
30.0	183.3971776822582	pulse	0.0	t		20.0	male	black	2.609629924393156	neutral	043	sub-11	2.0	2.0	043_neutral	0.0		207.25310877544325	
30.0	183.50541251116738	fix	1.0		444	20.0	male	black	2.609629924393156	neutral	043	sub-11	2.0	2.0	043_neutral	0.0		207.36134360435244	3.766542102341191
30.0	184.0971767767005	pulse	1.0	t		20.0	male	black	2.609629924393156	neutral	043	sub-11	2.0	2.0	043_neutral	0.0		207.95310786988557	
30.0	184.7971541377883	pulse	1.0	t		20.0	male	black	2.609629924393156	neutral	043	sub-11	2.0	2.0	043_neutral	0.0		208.65308523097337	
30.0	185.4971348192521	pulse	1.0	t		20.0	male	black	2.609629924393156	neutral	043	sub-11	2.0	2.0	043_neutral	0.0		209.35306591243716	
30.0	186.19710825625953	pulse	1.0	t		20.0	male	black	2.609629924393156	neutral	043	sub-11	2.0	2.0	043_neutral	0.0		210.0530393494446	
30.0	186.8970892395737	pulse	1.0	t		20.0	male	black	2.609629924393156	neutral	043	sub-11	2.0	2.0	043_neutral	0.0		210.75302033275875	
31.0	187.27195461350857	face	0.0		145	37.0	male	white	3.898925586947871	neutral	101	sub-11	2.0	2.0	101_neutral	0.0		211.12788570669363	1.233314216031431
31.0	187.59707263770542	pulse	0.0	t		37.0	male	white	3.898925586947871	neutral	101	sub-11	2.0	2.0	101_neutral	0.0		211.4530037308905	
31.0	188.2970445654537	pulse	0.0	t		37.0	male	white	3.898925586947871	neutral	101	sub-11	2.0	2.0	101_neutral	0.0		212.15297565863875	
31.0	188.50526882954	fix	1.0		444	37.0	male	white	3.898925586947871	neutral	101	sub-11	2.0	2.0	101_neutral	0.0		212.36119992272506	3.7665402912243735
31.0	188.99703490618413	pulse	1.0	t		37.0	male	white	3.898925586947871	neutral	101	sub-11	2.0	2.0	101_neutral	0.0		212.8529659993692	
31.0	189.69700804134118	pulse	1.0	t		37.0	male	white	3.898925586947871	neutral	101	sub-11	2.0	2.0	101_neutral	0.0		213.55293913452624	
31.0	190.39697393204915	pulse	1.0	t		37.0	male	white	3.898925586947871	neutral	101	sub-11	2.0	2.0	101_neutral	0.0		214.2529050252342	
31.0	191.0969684987067	pulse	1.0	t		37.0	male	white	3.898925586947871	neutral	101	sub-11	2.0	2.0	101_neutral	0.0		214.95289959189176	
31.0	191.7969313708927	pulse	1.0	t		37.0	male	white	3.898925586947871	neutral	101	sub-11	2.0	2.0	101_neutral	0.0		215.65286246407777	
32.0	192.27180912076437	face	0.0		145	31.0	female	west_asian	2.364902506963788	smiling	006	sub-11	2.0	2.0	006_smiling	0.0		216.12774021394944	1.2333139141774154
32.0	192.49691869310118	pulse	0.0	t		31.0	female	west_asian	2.364902506963788	smiling	006	sub-11	2.0	2.0	006_smiling	0.0		216.35284978628624	
32.0	193.19690148752852	pulse	0.0	t		31.0	female	west_asian	2.364902506963788	smiling	006	sub-11	2.0	2.0	006_smiling	0.0		217.05283258071358	
32.0	193.5051230349418	fix	1.0		444	31.0	female	west_asian	2.364902506963788	smiling	006	sub-11	2.0	2.0	006_smiling	0.0		217.36105412812685	3.766527311585378
32.0	193.89688730047783	pulse	1.0	t		31.0	female	west_asian	2.364902506963788	smiling	006	sub-11	2.0	2.0	006_smiling	0.0		217.7528183936629	
32.0	194.59686164304367	pulse	1.0	t		31.0	female	west_asian	2.364902506963788	smiling	006	sub-11	2.0	2.0	006_smiling	0.0		218.45279273622873	
32.0	195.29685077636532	pulse	1.0	t		31.0	female	west_asian	2.364902506963788	smiling	006	sub-11	2.0	2.0	006_smiling	0.0		219.15278186955038	
32.0	195.9968205911464	pulse	1.0	t		31.0	female	west_asian	2.364902506963788	smiling	006	sub-11	2.0	2.0	006_smiling	0.0		219.85275168433145	
32.0	196.6967898022267	pulse	1.0	t		31.0	female	west_asian	2.364902506963788	smiling	006	sub-11	2.0	2.0	006_smiling	0.0		220.55272089541177	
33.0	197.27165034652717	face	0.0		145	27.0	female	white	4.181058495821727	neutral	039	sub-11	2.0	2.0	039_neutral	0.0		221.12758143971223	1.2333241771520989
33.0	197.39678829296463	pulse	0.0	t		27.0	female	white	4.181058495821727	neutral	039	sub-11	2.0	2.0	039_neutral	0.0		221.2527193861497	
33.0	198.09675931515812	pulse	0.0	t		27.0	female	white	4.181058495821727	neutral	039	sub-11	2.0	2.0	039_neutral	0.0		221.9526904083432	
33.0	198.50497452367927	fix	1.0		444	27.0	female	white	4.181058495821727	neutral	039	sub-11	2.0	2.0	039_neutral	0.0		222.36090561686433	3.758315121584019
33.0	198.7967704836883	pulse	1.0	t		27.0	female	white	4.181058495821727	neutral	039	sub-11	2.0	2.0	039_neutral	0.0		222.65270157687337	
33.0	199.4967170558557	pulse	1.0	t		27.0	female	white	4.181058495821727	neutral	039	sub-11	2.0	2.0	039_neutral	0.0		223.35264814904076	
33.0	200.196702566951	pulse	1.0	t		27.0	female	white	4.181058495821727	neutral	039	sub-11	2.0	2.0	039_neutral	0.0		224.05263366013605	
33.0	200.89667630581243	pulse	1.0	t		27.0	female	white	4.181058495821727	neutral	039	sub-11	2.0	2.0	039_neutral	0.0		224.7526073989975	
33.0	201.5966557798638	pulse	1.0	t		27.0	female	white	4.181058495821727	neutral	039	sub-11	2.0	2.0	039_neutral	0.0		225.45258687304886	
34.0	202.26328964526328	face	0.0		146	19.0	male	white	2.243931555909272	neutral	130	sub-11	2.0	2.0	130_neutral	0.0		226.11922073844835	1.2415363671498199
34.0	202.2966415928131	pulse	0.0	t		19.0	male	white	2.243931555909272	neutral	130	sub-11	2.0	2.0	130_neutral	0.0		226.15257268599817	
34.0	202.99661593537894	pulse	0.0	t		19.0	male	white	2.243931555909272	neutral	130	sub-11	2.0	2.0	130_neutral	0.0		226.852547028564	
34.0	203.5048260124131	fix	1.0		443	19.0	male	white	2.243931555909272	neutral	130	sub-11	2.0	2.0	130_neutral	0.0		227.36075710559817	3.766540593078389
34.0	203.6965984279559	pulse	1.0	t		19.0	male	white	2.243931555909272	neutral	130	sub-11	2.0	2.0	130_neutral	0.0		227.55252952114097	
34.0	204.39656914829538	pulse	1.0	t		19.0	male	white	2.243931555909272	neutral	130	sub-11	2.0	2.0	130_neutral	0.0		228.25250024148045	
34.0	205.09655737605863	pulse	1.0	t		19.0	male	white	2.243931555909272	neutral	130	sub-11	2.0	2.0	130_neutral	0.0		228.9524884692437	
34.0	205.79653503900045	pulse	1.0	t		19.0	male	white	2.243931555909272	neutral	130	sub-11	2.0	2.0	130_neutral	0.0		229.6524661321855	
34.0	206.49651873898256	pulse	1.0	t		19.0	male	white	2.243931555909272	neutral	130	sub-11	2.0	2.0	130_neutral	0.0		230.35244983216762	
34.0	207.19649972229672	pulse	1.0	t		19.0	male	white	2.243931555909272	neutral	130	sub-11	2.0	2.0	130_neutral	0.0		231.05243081548178	
35.0	207.2713666054915	face	0.0		146	22.0	female	west_asian	3.8205332272184642	neutral	066	sub-11	2.0	2.0	066_neutral	0.0		231.12729769867656	1.2333124049182516
35.0	207.89649217599072	pulse	0.0	t		22.0	female	west_asian	3.8205332272184642	neutral	066	sub-11	2.0	2.0	066_neutral	0.0		231.75242326917578	
35.0	208.50467901040975	fix	1.0		443	22.0	female	west_asian	3.8205332272184642	neutral	066	sub-11	2.0	2.0	066_neutral	0.0		232.3606101035948	3.766539385669603
35.0	208.59644357779325	pulse	1.0	t		22.0	female	west_asian	3.8205332272184642	neutral	066	sub-11	2.0	2.0	066_neutral	0.0		232.45237467097832	
35.0	209.2964429740896	pulse	1.0	t		22.0	female	west_asian	3.8205332272184642	neutral	066	sub-11	2.0	2.0	066_neutral	0.0		233.15237406727465	
35.0	209.9964127888743	pulse	1.0	t		22.0	female	west_asian	3.8205332272184642	neutral	066	sub-11	2.0	2.0	066_neutral	0.0		233.85234388205936	
35.0	210.69638833884892	pulse	1.0	t		22.0	female	west_asian	3.8205332272184642	neutral	066	sub-11	2.0	2.0	066_neutral	0.0		234.55231943203398	
35.0	211.39636630364112	pulse	1.0	t		22.0	female	west_asian	3.8205332272184642	neutral	066	sub-11	2.0	2.0	066_neutral	0.0		235.25229739682618	
35.0	212.09634789065603	pulse	1.0	t		22.0	female	west_asian	3.8205332272184642	neutral	066	sub-11	2.0	2.0	066_neutral	0.0		235.9522789838411	
36.0	212.27121839607935	face	0.0		146	27.0	female	white	3.504576203740549	smiling	144	sub-11	2.0	2.0	144_smiling	0.0		236.1271494892644	1.2416474487436062
36.0	212.7963454758392	pulse	0.0	t		27.0	female	white	3.504576203740549	smiling	144	sub-11	2.0	2.0	144_smiling	0.0		236.65227656902425	
36.0	213.496306235058	pulse	0.0	t		27.0	female	white	3.504576203740549	smiling	144	sub-11	2.0	2.0	144_smiling	0.0		237.35223732824306	
36.0	213.51286584482295	fix	1.0		443	27.0	female	white	3.504576203740549	smiling	144	sub-11	2.0	2.0	144_smiling	0.0		237.36879693800802	3.7498997850816522
36.0	214.19628872763133	pulse	1.0	t		27.0	female	white	3.504576203740549	smiling	144	sub-11	2.0	2.0	144_smiling	0.0		238.0522198208164	
36.0	214.89626880539072	pulse	1.0	t		27.0	female	white	3.504576203740549	smiling	144	sub-11	2.0	2.0	144_smiling	0.0		238.75219989857578	
36.0	215.59624948685087	pulse	1.0	t		27.0	female	white	3.504576203740549	smiling	144	sub-11	2.0	2.0	144_smiling	0.0		239.45218058003593	
36.0	216.2962328849826	pulse	1.0	t		27.0	female	white	3.504576203740549	smiling	144	sub-11	2.0	2.0	144_smiling	0.0		240.15216397816766	
36.0	216.99620571828927	pulse	1.0	t		27.0	female	white	3.504576203740549	smiling	144	sub-11	2.0	2.0	144_smiling	0.0		240.85213681147434	
37.0	217.2627656299046	face	0.0		146	28.0	male	white	3.9076800636689217	smiling	033	sub-11	2.0	2.0	033_smiling	0.0		241.11869672308967	1.2416160561224387
37.0	217.69619183308896	pulse	0.0	t		28.0	male	white	3.9076800636689217	smiling	033	sub-11	2.0	2.0	033_smiling	0.0		241.55212292627402	
37.0	218.396164666392	pulse	0.0	t		28.0	male	white	3.9076800636689217	smiling	033	sub-11	2.0	2.0	033_smiling	0.0		242.25209575957706	
37.0	218.50438168602705	fix	1.0		444	28.0	male	white	3.9076800636689217	smiling	033	sub-11	2.0	2.0	033_smiling	0.0		242.3603127792121	3.766545724563912
37.0	219.09614564970616	pulse	1.0	t		28.0	male	white	3.9076800636689217	smiling	033	sub-11	2.0	2.0	033_smiling	0.0		242.95207674289122	
37.0	219.79612361449836	pulse	1.0	t		28.0	male	white	3.9076800636689217	smiling	033	sub-11	2.0	2.0	033_smiling	0.0		243.65205470768342	
37.0	220.4961052015169	pulse	1.0	t		28.0	male	white	3.9076800636689217	smiling	033	sub-11	2.0	2.0	033_smiling	0.0		244.35203629470197	
37.0	221.19607712926518	pulse	1.0	t		28.0	male	white	3.9076800636689217	smiling	033	sub-11	2.0	2.0	033_smiling	0.0		245.05200822245024	
37.0	221.896054792207	pulse	1.0	t		28.0	male	white	3.9076800636689217	smiling	033	sub-11	2.0	2.0	033_smiling	0.0		245.75198588539206	
38.0	222.27092741059096	face	0.0		145	24.0	female	east_asian	2.9076800636689217	neutral	034	sub-11	2.0	2.0	034_neutral	0.0		246.12685850377602	1.2333090845422703
38.0	222.5960466421966	pulse	0.0	t		24.0	female	east_asian	2.9076800636689217	neutral	034	sub-11	2.0	2.0	034_neutral	0.0		246.45197773538166	
38.0	223.29602219217122	pulse	0.0	t		24.0	female	east_asian	2.9076800636689217	neutral	034	sub-11	2.0	2.0	034_neutral	0.0		247.15195328535629	
38.0	223.50423649513323	fix	1.0		444	24.0	female	east_asian	2.9076800636689217	neutral	034	sub-11	2.0	2.0	034_neutral	0.0		247.3601675883183	3.76654119678642
38.0	223.9960007606678	pulse	1.0	t		24.0	female	east_asian	2.9076800636689217	neutral	034	sub-11	2.0	2.0	034_neutral	0.0		247.85193185385288	
38.0	224.6959778199016	pulse	1.0	t		24.0	female	east_asian	2.9076800636689217	neutral	034	sub-11	2.0	2.0	034_neutral	0.0		248.55190891308666	
38.0	225.3959651421137	pulse	1.0	t		24.0	female	east_asian	2.9076800636689217	neutral	034	sub-11	2.0	2.0	034_neutral	0.0		249.25189623529877	
38.0	226.09592137354775	pulse	1.0	t		24.0	female	east_asian	2.9076800636689217	neutral	034	sub-11	2.0	2.0	034_neutral	0.0		249.95185246673282	
38.0	226.79591563835857	pulse	1.0	t		24.0	female	east_asian	2.9076800636689217	neutral	034	sub-11	2.0	2.0	034_neutral	0.0		250.65184673154363	
39.0	227.27077769191965	face	0.0		145	19.0	male	white	2.243931555909272	smiling	130	sub-11	2.0	2.0	130_smiling	0.0		251.1267087851047	1.2333118012102204
39.0	227.49589299944637	pulse	0.0	t		19.0	male	white	2.243931555909272	smiling	130	sub-11	2.0	2.0	130_smiling	0.0		251.35182409263143	
39.0	228.19587760498325	pulse	0.0	t		19.0	male	white	2.243931555909272	smiling	130	sub-11	2.0	2.0	130_smiling	0.0		252.05180869816832	
39.0	228.50408949312987	fix	1.0		444	19.0	male	white	2.243931555909272	smiling	130	sub-11	2.0	2.0	130_smiling	0.0		252.36002058631493	3.749890729515755
39.0	228.8958597957062	pulse	1.0	t		19.0	male	white	2.243931555909272	smiling	130	sub-11	2.0	2.0	130_smiling	0.0		252.75179088889126	
39.0	229.5958634179333	pulse	1.0	t		19.0	male	white	2.243931555909272	smiling	130	sub-11	2.0	2.0	130_smiling	0.0		253.45179451111835	
39.0	230.29581904566294	pulse	1.0	t		19.0	male	white	2.243931555909272	smiling	130	sub-11	2.0	2.0	130_smiling	0.0		254.151750138848	
39.0	230.99579036971045	pulse	1.0	t		19.0	male	white	2.243931555909272	smiling	130	sub-11	2.0	2.0	130_smiling	0.0		254.8517214628955	
39.0	231.69577316413415	pulse	1.0	t		19.0	male	white	2.243931555909272	smiling	130	sub-11	2.0	2.0	130_smiling	0.0		255.55170425731922	
40.0	232.25398022264562	fix	0.0		720													256.1099113158307	5.999824322039785
40.0	232.39575294003953	pulse	0.0	t														256.2516840332246	
40.0	233.09572909371855	pulse	0.0	t														256.9516601869036	
40.0	233.79573241409162	pulse	0.0	t														257.6516635072767	
40.0	234.4956810992262	pulse	0.0	t														258.35161219241127	
40.0	235.19567204366103	pulse	0.0	t														259.0516031368461	
40.0	235.89564638622687	pulse	0.0	t														259.75157747941194	
40.0	236.59563068991338	pulse	0.0	t														260.45156178309844	
40.0	237.29560503247922	pulse	0.0	t														261.1515361256643	
40.0	237.99558269542104	pulse	0.0	t														261.8515137886061	
