trial_nr	onset	event_type	phase	response	nr_frames	face_age	face_sex	face_eth	attractiveness	expression	face_id	sub_id	ses	run	trial_type	catch	rating_type	onset_abs	duration
-1.0	0.06112167435230731	fix	0.0		713													26.436577437379583	5.957930797370864
-1.0	0.7026210958479169	pulse	0.0	t														27.078076858875193	
-1.0	1.4025879823752803	pulse	0.0	t														27.778043745402556	
-1.0	2.1025874692222715	pulse	0.0	t														28.478043232249547	
-1.0	2.8025670336519397	pulse	0.0	t														29.178022796679215	
-1.0	3.502556257435117	pulse	0.0	t														29.878012020462393	
-1.0	4.202532803316444	pulse	0.0	t														30.57798856634372	
-1.0	4.902526856777058	pulse	0.0	t														31.277982619804334	
-1.0	5.602515174995915	pulse	0.0	t														31.97797093802319	
0.0	6.019052471723171	face	0.0		144	27.0	female	white	3.504576203740549	neutral	144	sub-09	2.0	2.0	144_neutral	0.0		32.39450823475045	1.2333168621225923
0.0	6.302504700634017	pulse	0.0	t		27.0	female	white	3.504576203740549	neutral	144	sub-09	2.0	2.0	144_neutral	0.0		32.67796046366129	
0.0	7.002477020548213	pulse	0.0	t		27.0	female	white	3.504576203740549	neutral	144	sub-09	2.0	2.0	144_neutral	0.0		33.37793278357549	
0.0	7.252369333845763	fix	1.0		444	27.0	female	white	3.504576203740549	neutral	144	sub-09	2.0	2.0	144_neutral	0.0		33.62782509687304	3.7582417681928746
0.0	7.702471375863297	pulse	1.0	t		27.0	female	white	3.504576203740549	neutral	144	sub-09	2.0	2.0	144_neutral	0.0		34.07792713889057	
0.0	8.40244822359955	pulse	1.0	t		27.0	female	white	3.504576203740549	neutral	144	sub-09	2.0	2.0	144_neutral	0.0		34.777903986626825	
0.0	9.102441069640918	pulse	1.0	t		27.0	female	white	3.504576203740549	neutral	144	sub-09	2.0	2.0	144_neutral	0.0		35.47789683266819	
0.0	9.802423048908622	pulse	1.0	t		27.0	female	white	3.504576203740549	neutral	144	sub-09	2.0	2.0	144_neutral	0.0		36.1778788119359	
0.0	10.502405028176781	pulse	1.0	t		27.0	female	white	3.504576203740549	neutral	144	sub-09	2.0	2.0	144_neutral	0.0		36.87786079120406	
1.0	11.010611102038638	face	0.0		146	31.0	female	east_asian	3.395941106247513	neutral	087	sub-09	2.0	2.0	087_neutral	0.0		37.386066865065914	1.2416559030275494
1.0	11.202400892766036	pulse	0.0	t		31.0	female	east_asian	3.395941106247513	neutral	087	sub-09	2.0	2.0	087_neutral	0.0		37.57785665579331	
1.0	11.902373514534702	pulse	0.0	t		31.0	female	east_asian	3.395941106247513	neutral	087	sub-09	2.0	2.0	087_neutral	0.0		38.27782927756198	
1.0	12.252267005066187	fix	1.0		444	31.0	female	east_asian	3.395941106247513	neutral	087	sub-09	2.0	2.0	087_neutral	0.0		38.62772276809346	3.7582399570642337
1.0	12.602369680978882	pulse	1.0	t		31.0	female	east_asian	3.395941106247513	neutral	087	sub-09	2.0	2.0	087_neutral	0.0		38.97782544400616	
1.0	13.302352867666286	pulse	1.0	t		31.0	female	east_asian	3.395941106247513	neutral	087	sub-09	2.0	2.0	087_neutral	0.0		39.67780863069356	
1.0	14.002333639514745	pulse	1.0	t		31.0	female	east_asian	3.395941106247513	neutral	087	sub-09	2.0	2.0	087_neutral	0.0		40.37778940254202	
1.0	14.702322561443452	pulse	1.0	t		31.0	female	east_asian	3.395941106247513	neutral	087	sub-09	2.0	2.0	087_neutral	0.0		41.07777832447073	
1.0	15.40231087966231	pulse	1.0	t		31.0	female	east_asian	3.395941106247513	neutral	087	sub-09	2.0	2.0	087_neutral	0.0		41.777766642689585	
2.0	16.01050696213042	face	0.0		146	30.0	female	black	2.7345801830481498	smiling	062	sub-09	2.0	2.0	062_smiling	0.0		42.3859627251577	1.2416568085918698
2.0	16.102299197881166	pulse	0.0	t		30.0	female	black	2.7345801830481498	smiling	062	sub-09	2.0	2.0	062_smiling	0.0		42.47775496090844	
2.0	16.80227906416576	pulse	0.0	t		30.0	female	black	2.7345801830481498	smiling	062	sub-09	2.0	2.0	062_smiling	0.0		43.177734827193035	
2.0	17.25216377072229	fix	1.0		444	30.0	female	black	2.7345801830481498	smiling	062	sub-09	2.0	2.0	062_smiling	0.0		43.62761953374957	3.7582363348060426
2.0	17.50227402319024	pulse	1.0	t		30.0	female	black	2.7345801830481498	smiling	062	sub-09	2.0	2.0	062_smiling	0.0		43.877729786217515	
2.0	18.20224755052368	pulse	1.0	t		30.0	female	black	2.7345801830481498	smiling	062	sub-09	2.0	2.0	062_smiling	0.0		44.577703313550955	
2.0	18.902229831646764	pulse	1.0	t		30.0	female	black	2.7345801830481498	smiling	062	sub-09	2.0	2.0	062_smiling	0.0		45.27768559467404	
2.0	19.602221470268432	pulse	1.0	t		30.0	female	black	2.7345801830481498	smiling	062	sub-09	2.0	2.0	062_smiling	0.0		45.97767723329571	
2.0	20.302201336553026	pulse	1.0	t		30.0	female	black	2.7345801830481498	smiling	062	sub-09	2.0	2.0	062_smiling	0.0		46.6776570995803	
3.0	21.010400105528333	face	0.0		147	19.0	male	white	2.243931555909272	smiling	130	sub-09	2.0	2.0	130_smiling	0.0		47.38585586855561	1.2416601289946811
3.0	21.003280558044935	pulse	0.0	t		19.0	male	white	2.243931555909272	smiling	130	sub-09	2.0	2.0	130_smiling	0.0		47.37873632107221	
3.0	21.702180689684155	pulse	0.0	t		19.0	male	white	2.243931555909272	smiling	130	sub-09	2.0	2.0	130_smiling	0.0		48.07763645271143	
3.0	22.252060234523015	fix	1.0		443	19.0	male	white	2.243931555909272	smiling	130	sub-09	2.0	2.0	130_smiling	0.0		48.62751599755029	3.7582423719027247
3.0	22.402169007903012	pulse	1.0	t		19.0	male	white	2.243931555909272	smiling	130	sub-09	2.0	2.0	130_smiling	0.0		48.77762477093029	
3.0	23.10214645934866	pulse	1.0	t		19.0	male	white	2.243931555909272	smiling	130	sub-09	2.0	2.0	130_smiling	0.0		49.477602222375936	
3.0	23.80212843861682	pulse	1.0	t		19.0	male	white	2.243931555909272	smiling	130	sub-09	2.0	2.0	130_smiling	0.0		50.177584201644095	
3.0	24.50211554941643	pulse	1.0	t		19.0	male	white	2.243931555909272	smiling	130	sub-09	2.0	2.0	130_smiling	0.0		50.877571312443706	
3.0	25.202105678764383	pulse	1.0	t		19.0	male	white	2.243931555909272	smiling	130	sub-09	2.0	2.0	130_smiling	0.0		51.57756144179166	
3.0	25.902090374725503	pulse	1.0	t		19.0	male	white	2.243931555909272	smiling	130	sub-09	2.0	2.0	130_smiling	0.0		52.27754613775278	
4.0	26.01030260642574	face	0.0		147	19.0	female	white	4.298846000795861	neutral	100	sub-09	2.0	2.0	100_neutral	0.0		52.385758369453015	1.241652582624738
4.0	26.602085635605363	pulse	0.0	t		19.0	female	white	4.298846000795861	neutral	100	sub-09	2.0	2.0	100_neutral	0.0		52.97754139863264	
4.0	27.251955189050477	fix	1.0		443	19.0	female	white	4.298846000795861	neutral	100	sub-09	2.0	2.0	100_neutral	0.0		53.62741095207775	3.7583039502828797
4.0	27.302069124147238	pulse	1.0	t		19.0	female	white	4.298846000795861	neutral	100	sub-09	2.0	2.0	100_neutral	0.0		53.67752488717451	
4.0	28.00204204777083	pulse	1.0	t		19.0	female	white	4.298846000795861	neutral	100	sub-09	2.0	2.0	100_neutral	0.0		54.377497810798104	
4.0	28.702043345746915	pulse	1.0	t		19.0	female	white	4.298846000795861	neutral	100	sub-09	2.0	2.0	100_neutral	0.0		55.07749910877419	
4.0	29.40201657122543	pulse	1.0	t		19.0	female	white	4.298846000795861	neutral	100	sub-09	2.0	2.0	100_neutral	0.0		55.77747233425271	
4.0	30.102003682025043	pulse	1.0	t		19.0	female	white	4.298846000795861	neutral	100	sub-09	2.0	2.0	100_neutral	0.0		56.47745944505232	
4.0	30.80199109467958	pulse	1.0	t		19.0	female	white	4.298846000795861	neutral	100	sub-09	2.0	2.0	100_neutral	0.0		57.177446857706855	
5.0	31.010259139333357	face	0.0		146	34.0	male	white	2.651014723438122	neutral	121	sub-09	2.0	2.0	121_neutral	0.0		57.38571490236063	1.2415964376305055
5.0	31.50197880918904	pulse	0.0	t		34.0	male	white	2.651014723438122	neutral	121	sub-09	2.0	2.0	121_neutral	0.0		57.877434572216316	
5.0	32.20195927918303	pulse	0.0	t		34.0	male	white	2.651014723438122	neutral	121	sub-09	2.0	2.0	121_neutral	0.0		58.577415042210305	
5.0	32.25185557696386	fix	1.0		445	34.0	male	white	2.651014723438122	neutral	121	sub-09	2.0	2.0	121_neutral	0.0		58.62731133999114	3.7665717534532632
5.0	32.90194789925681	pulse	1.0	t		34.0	male	white	2.651014723438122	neutral	121	sub-09	2.0	2.0	121_neutral	0.0		59.27740366228409	
5.0	33.60208412633119	pulse	1.0	t		34.0	male	white	2.651014723438122	neutral	121	sub-09	2.0	2.0	121_neutral	0.0		59.97753988935847	
5.0	34.301911857792675	pulse	1.0	t		34.0	male	white	2.651014723438122	neutral	121	sub-09	2.0	2.0	121_neutral	0.0		60.67736762081995	
5.0	35.001898968592286	pulse	1.0	t		34.0	male	white	2.651014723438122	neutral	121	sub-09	2.0	2.0	121_neutral	0.0		61.37735473161956	
5.0	35.701896040600786	pulse	1.0	t		34.0	male	white	2.651014723438122	neutral	121	sub-09	2.0	2.0	121_neutral	0.0		62.07735180362806	
6.0	36.018427330417126	face	0.0		145	40.0	female	west_asian	1.5777954635893354	smiling	038	sub-09	2.0	2.0	038_smiling	0.0		62.3938830934444	1.2333238047835948
6.0	36.40188073656191	pulse	0.0	t		40.0	female	west_asian	1.5777954635893354	smiling	038	sub-09	2.0	2.0	038_smiling	0.0		62.77733649958918	
6.0	37.1018548676052	pulse	0.0	t		40.0	female	west_asian	1.5777954635893354	smiling	038	sub-09	2.0	2.0	038_smiling	0.0		63.47731063063247	
6.0	37.25175113520072	fix	1.0		444	40.0	female	west_asian	1.5777954635893354	smiling	038	sub-09	2.0	2.0	038_smiling	0.0		63.627206898227996	3.7665726590175836
6.0	37.801844695098225	pulse	1.0	t		40.0	female	west_asian	1.5777954635893354	smiling	038	sub-09	2.0	2.0	038_smiling	0.0		64.1773004581255	
6.0	38.50182637251146	pulse	1.0	t		40.0	female	west_asian	1.5777954635893354	smiling	038	sub-09	2.0	2.0	038_smiling	0.0		64.87728213553874	
6.0	39.20181348331107	pulse	1.0	t		40.0	female	west_asian	1.5777954635893354	smiling	038	sub-09	2.0	2.0	038_smiling	0.0		65.57726924633835	
6.0	39.901794557014455	pulse	1.0	t		40.0	female	west_asian	1.5777954635893354	smiling	038	sub-09	2.0	2.0	038_smiling	0.0		66.27725032004173	
6.0	40.60179374200652	pulse	1.0	t		40.0	female	west_asian	1.5777954635893354	smiling	038	sub-09	2.0	2.0	038_smiling	0.0		66.9772495050338	
7.0	41.018323794218304	face	0.0		145	19.0	male	white	3.2522881018702745	smiling	018	sub-09	2.0	2.0	018_smiling	0.0		67.39377955724558	1.2333232010737447
7.0	41.301776023129605	pulse	0.0	t		19.0	male	white	3.2522881018702745	smiling	018	sub-09	2.0	2.0	018_smiling	0.0		67.67723178615688	
7.0	42.00175438013957	pulse	0.0	t		19.0	male	white	3.2522881018702745	smiling	018	sub-09	2.0	2.0	018_smiling	0.0		68.37721014316685	
7.0	42.25164699529205	fix	1.0		444	19.0	male	white	3.2522881018702745	smiling	018	sub-09	2.0	2.0	018_smiling	0.0		68.62710275831932	3.766573564582359
7.0	42.70174571690677	pulse	1.0	t		19.0	male	white	3.2522881018702745	smiling	018	sub-09	2.0	2.0	018_smiling	0.0		69.07720147993405	
7.0	43.40172709246508	pulse	1.0	t		19.0	male	white	3.2522881018702745	smiling	018	sub-09	2.0	2.0	018_smiling	0.0		69.77718285549236	
7.0	44.10170756245907	pulse	1.0	t		19.0	male	white	3.2522881018702745	smiling	018	sub-09	2.0	2.0	018_smiling	0.0		70.47716332548634	
7.0	44.80170010664551	pulse	1.0	t		19.0	male	white	3.2522881018702745	smiling	018	sub-09	2.0	2.0	018_smiling	0.0		71.17715586967279	
7.0	45.50168510446156	pulse	1.0	t		19.0	male	white	3.2522881018702745	smiling	018	sub-09	2.0	2.0	018_smiling	0.0		71.87714086748883	
8.0	46.01822055987441	face	0.0		145	22.0	female	white	4.614007162753682	neutral	009	sub-09	2.0	2.0	009_neutral	0.0		72.39367632290168	1.2333222955089695
8.0	46.20167704493815	pulse	0.0	t		22.0	female	white	4.614007162753682	neutral	009	sub-09	2.0	2.0	009_neutral	0.0		72.57713280796543	
8.0	46.90165510009365	pulse	0.0	t		22.0	female	white	4.614007162753682	neutral	009	sub-09	2.0	2.0	009_neutral	0.0		73.27711086312092	
8.0	47.25154285538338	fix	1.0		444	22.0	female	white	4.614007162753682	neutral	009	sub-09	2.0	2.0	009_neutral	0.0		73.62699861841065	3.7665732627278885
8.0	47.601625910733674	pulse	1.0	t		22.0	female	white	4.614007162753682	neutral	009	sub-09	2.0	2.0	009_neutral	0.0		73.97708167376095	
8.0	48.30162509572574	pulse	1.0	t		22.0	female	white	4.614007162753682	neutral	009	sub-09	2.0	2.0	009_neutral	0.0		74.67708085875302	
8.0	49.00161220652535	pulse	1.0	t		22.0	female	white	4.614007162753682	neutral	009	sub-09	2.0	2.0	009_neutral	0.0		75.37706796955263	
8.0	49.701603241437624	pulse	1.0	t		22.0	female	white	4.614007162753682	neutral	009	sub-09	2.0	2.0	009_neutral	0.0		76.0770590044649	
8.0	50.40158099473865	pulse	1.0	t		22.0	female	white	4.614007162753682	neutral	009	sub-09	2.0	2.0	009_neutral	0.0		76.77703675776593	
9.0	51.018116118111266	face	0.0		145	22.0	male	black	2.767608436132113	smiling	044	sub-09	2.0	2.0	044_smiling	0.0		77.39357188113854	1.233323502928215
9.0	51.10159859287387	pulse	0.0	t		22.0	male	black	2.767608436132113	smiling	044	sub-09	2.0	2.0	044_smiling	0.0		77.47705435590115	
9.0	51.80155099037074	pulse	0.0	t		22.0	male	black	2.767608436132113	smiling	044	sub-09	2.0	2.0	044_smiling	0.0		78.17700675339802	
9.0	52.25143962103948	fix	1.0		444	22.0	male	black	2.767608436132113	smiling	044	sub-09	2.0	2.0	044_smiling	0.0		78.62689538406676	3.7665705460344725
9.0	52.50154806237879	pulse	1.0	t		22.0	male	black	2.767608436132113	smiling	044	sub-09	2.0	2.0	044_smiling	0.0		78.87700382540606	
9.0	53.20152219342208	pulse	1.0	t		22.0	male	black	2.767608436132113	smiling	044	sub-09	2.0	2.0	044_smiling	0.0		79.57697795644935	
9.0	53.901507191238125	pulse	1.0	t		22.0	male	black	2.767608436132113	smiling	044	sub-09	2.0	2.0	044_smiling	0.0		80.2769629542654	
9.0	54.601501848408134	pulse	1.0	t		22.0	male	black	2.767608436132113	smiling	044	sub-09	2.0	2.0	044_smiling	0.0		80.97695761143541	
9.0	55.30148473324061	pulse	1.0	t		22.0	male	black	2.767608436132113	smiling	044	sub-09	2.0	2.0	044_smiling	0.0		81.67694049626789	
10.0	56.01801016707395	face	0.0		146	54.0	female	white	2.286908077994429	neutral	136	sub-09	2.0	2.0	136_neutral	0.0		82.39346593010123	1.2333253140568559
10.0	56.00437266873769	pulse	0.0	t		54.0	female	white	2.286908077994429	neutral	136	sub-09	2.0	2.0	136_neutral	0.0		82.37982843176496	
10.0	56.701457143711195	pulse	0.0	t		54.0	female	white	2.286908077994429	neutral	136	sub-09	2.0	2.0	136_neutral	0.0		83.07691290673847	
10.0	57.25133548113081	fix	1.0		443	54.0	female	white	2.286908077994429	neutral	136	sub-09	2.0	2.0	136_neutral	0.0		83.62679124415808	3.766576281275775
10.0	57.40144516007513	pulse	1.0	t		54.0	female	white	2.286908077994429	neutral	136	sub-09	2.0	2.0	136_neutral	0.0		83.7769009231024	
10.0	58.101423818940475	pulse	1.0	t		54.0	female	white	2.286908077994429	neutral	136	sub-09	2.0	2.0	136_neutral	0.0		84.47687958196775	
10.0	58.80141485385275	pulse	1.0	t		54.0	female	white	2.286908077994429	neutral	136	sub-09	2.0	2.0	136_neutral	0.0		85.17687061688002	
10.0	59.50139502199181	pulse	1.0	t		54.0	female	white	2.286908077994429	neutral	136	sub-09	2.0	2.0	136_neutral	0.0		85.87685078501909	
10.0	60.2013812272271	pulse	1.0	t		54.0	female	white	2.286908077994429	neutral	136	sub-09	2.0	2.0	136_neutral	0.0		86.57683699025438	
10.0	60.90137105472013	pulse	1.0	t		54.0	female	white	2.286908077994429	neutral	136	sub-09	2.0	2.0	136_neutral	0.0		87.2768268177474	
11.0	61.017911762406584	face	0.0		146	21.0	male	black	2.969757262236371	smiling	137	sub-09	2.0	2.0	137_smiling	0.0		87.39336752543386	1.2333253140573106
11.0	61.60135725995542	pulse	0.0	t		21.0	male	black	2.969757262236371	smiling	137	sub-09	2.0	2.0	137_smiling	0.0		87.9768130229827	
11.0	62.251237076463894	fix	1.0		443	21.0	male	black	2.969757262236371	smiling	137	sub-09	2.0	2.0	137_smiling	0.0		88.62669283949117	3.766570847888943
11.0	62.30134678559352	pulse	1.0	t		21.0	male	black	2.969757262236371	smiling	137	sub-09	2.0	2.0	137_smiling	0.0		88.6768025486208	
11.0	63.00134506502127	pulse	1.0	t		21.0	male	black	2.969757262236371	smiling	137	sub-09	2.0	2.0	137_smiling	0.0		89.37680082804854	
11.0	63.70130682001718	pulse	1.0	t		21.0	male	black	2.969757262236371	smiling	137	sub-09	2.0	2.0	137_smiling	0.0		90.07676258304446	
11.0	64.40129936420317	pulse	1.0	t		21.0	male	black	2.969757262236371	smiling	137	sub-09	2.0	2.0	137_smiling	0.0		90.77675512723044	
11.0	65.10128164532625	pulse	1.0	t		21.0	male	black	2.969757262236371	smiling	137	sub-09	2.0	2.0	137_smiling	0.0		91.47673740835353	
11.0	65.80127026540003	pulse	1.0	t		21.0	male	black	2.969757262236371	smiling	137	sub-09	2.0	2.0	137_smiling	0.0		92.17672602842731	
12.0	66.01780792435284	face	0.0		145	19.0	male	white	2.243931555909272	neutral	130	sub-09	2.0	2.0	130_neutral	0.0		92.39326368738011	1.2333222955094243
12.0	66.50126492257004	pulse	0.0	t		19.0	male	white	2.243931555909272	neutral	130	sub-09	2.0	2.0	130_neutral	0.0		92.87672068559732	
12.0	67.20123754433871	pulse	0.0	t		19.0	male	white	2.243931555909272	neutral	130	sub-09	2.0	2.0	130_neutral	0.0		93.57669330736599	
12.0	67.25113021986226	fix	1.0		444	19.0	male	white	2.243931555909272	neutral	130	sub-09	2.0	2.0	130_neutral	0.0		93.62658598288954	3.766573866436829
12.0	67.90122767368666	pulse	1.0	t		19.0	male	white	2.243931555909272	neutral	130	sub-09	2.0	2.0	130_neutral	0.0		94.27668343671394	
12.0	68.60120603069709	pulse	1.0	t		19.0	male	white	2.243931555909272	neutral	130	sub-09	2.0	2.0	130_neutral	0.0		94.97666179372436	
12.0	69.30120431012438	pulse	1.0	t		19.0	male	white	2.243931555909272	neutral	130	sub-09	2.0	2.0	130_neutral	0.0		95.67666007315165	
12.0	70.001174517055	pulse	1.0	t		19.0	male	white	2.243931555909272	neutral	130	sub-09	2.0	2.0	130_neutral	0.0		96.37663028008228	
12.0	70.70116494825788	pulse	1.0	t		19.0	male	white	2.243931555909272	neutral	130	sub-09	2.0	2.0	130_neutral	0.0		97.07662071128516	
13.0	71.01770408629909	face	0.0		145	22.0	male	black	2.767608436132113	neutral	044	sub-09	2.0	2.0	044_neutral	1.0	trustworthiness	97.39315984932637	1.2333232010737447
13.0	71.40115356833167	pulse	0.0	t		22.0	male	black	2.767608436132113	neutral	044	sub-09	2.0	2.0	044_neutral	1.0	trustworthiness	97.77660933135894	
13.0	72.10112920864867	pulse	0.0	t		22.0	male	black	2.767608436132113	neutral	044	sub-09	2.0	2.0	044_neutral	1.0	trustworthiness	98.47658497167595	
13.0	72.25102728737284	fix	1.0		177	22.0	male	black	2.767608436132113	neutral	044	sub-09	2.0	2.0	044_neutral	1.0	trustworthiness	98.62648305040011	1.5083228916723783
13.0	72.80112839364074	pulse	1.0	t		22.0	male	black	2.767608436132113	neutral	044	sub-09	2.0	2.0	044_neutral	1.0	trustworthiness	99.17658415666801	
13.0	73.50110946734412	pulse	1.0	t		22.0	male	black	2.767608436132113	neutral	044	sub-09	2.0	2.0	044_neutral	1.0	trustworthiness	99.8765652303714	
13.0	73.75935017904521	rating	2.0		294	22.0	male	black	2.767608436132113	neutral	044	sub-09	2.0	2.0	044_neutral	1.0	trustworthiness	100.13480594207249	2.491593494546123
13.0	74.2011062374977	pulse	2.0	t		22.0	male	black	2.767608436132113	neutral	044	sub-09	2.0	2.0	044_neutral	1.0	trustworthiness	100.57656200052497	
13.0	74.90108610378184	pulse	2.0	t		22.0	male	black	2.767608436132113	neutral	044	sub-09	2.0	2.0	044_neutral	1.0	trustworthiness	101.27654186680911	
13.0	75.60107261087205	pulse	2.0	t		22.0	male	black	2.767608436132113	neutral	044	sub-09	2.0	2.0	044_neutral	1.0	trustworthiness	101.97652837389933	
13.0	75.85105698988582	response	2.0	w		22.0	male	black	2.767608436132113	neutral	044	sub-09	2.0	2.0	044_neutral	1.0	trustworthiness	102.2265127529131	
13.0	76.25094367359134	fix	3.0		443	22.0	male	black	2.767608436132113	neutral	044	sub-09	2.0	2.0	044_neutral	1.0	trustworthiness	102.62639943661861	3.7665756775659247
13.0	76.30104976046323	pulse	3.0	t		22.0	male	black	2.767608436132113	neutral	044	sub-09	2.0	2.0	044_neutral	1.0	trustworthiness	102.6765055234905	
13.0	77.00103596569852	pulse	3.0	t		22.0	male	black	2.767608436132113	neutral	044	sub-09	2.0	2.0	044_neutral	1.0	trustworthiness	103.3764917287258	
13.0	77.70101854867607	pulse	3.0	t		22.0	male	black	2.767608436132113	neutral	044	sub-09	2.0	2.0	044_neutral	1.0	trustworthiness	104.07647431170335	
13.0	78.40101712995875	pulse	3.0	t		22.0	male	black	2.767608436132113	neutral	044	sub-09	2.0	2.0	044_neutral	1.0	trustworthiness	104.77647289298602	
13.0	79.1009882424537	pulse	3.0	t		22.0	male	black	2.767608436132113	neutral	044	sub-09	2.0	2.0	044_neutral	1.0	trustworthiness	105.47644400548097	
13.0	79.80097384397914	pulse	3.0	t		22.0	male	black	2.767608436132113	neutral	044	sub-09	2.0	2.0	044_neutral	1.0	trustworthiness	106.17642960700641	
14.0	80.01751935115726	face	0.0		145	31.0	female	west_asian	2.364902506963788	smiling	006	sub-09	2.0	2.0	006_smiling	0.0		106.39297511418454	1.23332380478314
14.0	80.50096880300407	pulse	0.0	t		31.0	female	west_asian	2.364902506963788	smiling	006	sub-09	2.0	2.0	006_smiling	0.0		106.87642456603135	
14.0	81.2009504804173	pulse	0.0	t		31.0	female	west_asian	2.364902506963788	smiling	006	sub-09	2.0	2.0	006_smiling	0.0		107.57640624344458	
14.0	81.2508431559404	fix	1.0		444	31.0	female	west_asian	2.364902506963788	smiling	006	sub-09	2.0	2.0	006_smiling	0.0		107.62629891896768	3.7582447867412156
14.0	81.9009291392822	pulse	1.0	t		31.0	female	west_asian	2.364902506963788	smiling	006	sub-09	2.0	2.0	006_smiling	0.0		108.27638490230947	
14.0	82.60092379645221	pulse	1.0	t		31.0	female	west_asian	2.364902506963788	smiling	006	sub-09	2.0	2.0	006_smiling	0.0		108.97637955947948	
14.0	83.3009018516077	pulse	1.0	t		31.0	female	west_asian	2.364902506963788	smiling	006	sub-09	2.0	2.0	006_smiling	0.0		109.67635761463498	
14.0	84.0008856420045	pulse	1.0	t		31.0	female	west_asian	2.364902506963788	smiling	006	sub-09	2.0	2.0	006_smiling	0.0		110.37634140503178	
14.0	84.7008793936102	pulse	1.0	t		31.0	female	west_asian	2.364902506963788	smiling	006	sub-09	2.0	2.0	006_smiling	0.0		111.07633515663747	
15.0	85.00908794268162	face	0.0		146	20.0	male	black	2.609629924393156	neutral	043	sub-09	2.0	2.0	043_neutral	0.0		111.3845437057089	1.2416516770599628
15.0	85.40086831553845	pulse	0.0	t		20.0	male	black	2.609629924393156	neutral	043	sub-09	2.0	2.0	043_neutral	0.0		111.77632407856572	
15.0	86.10084878553243	pulse	0.0	t		20.0	male	black	2.609629924393156	neutral	043	sub-09	2.0	2.0	043_neutral	0.0		112.47630454855971	
15.0	86.25073961974158	fix	1.0		444	20.0	male	black	2.609629924393156	neutral	043	sub-09	2.0	2.0	043_neutral	0.0		112.62619538276886	3.766570847888943
15.0	86.80083680189682	pulse	1.0	t		20.0	male	black	2.609629924393156	neutral	043	sub-09	2.0	2.0	043_neutral	0.0		113.1762925649241	
15.0	87.50082330898704	pulse	1.0	t		20.0	male	black	2.609629924393156	neutral	043	sub-09	2.0	2.0	043_neutral	0.0		113.87627907201431	
15.0	88.20079925115851	pulse	1.0	t		20.0	male	black	2.609629924393156	neutral	043	sub-09	2.0	2.0	043_neutral	0.0		114.57625501418579	
15.0	88.9007878712323	pulse	1.0	t		20.0	male	black	2.609629924393156	neutral	043	sub-09	2.0	2.0	043_neutral	0.0		115.27624363425957	
15.0	89.60077377461312	pulse	1.0	t		20.0	male	black	2.609629924393156	neutral	043	sub-09	2.0	2.0	043_neutral	0.0		115.97622953764039	
16.0	90.01731046763052	face	0.0		145	21.0	male	east_asian/white	3.501790688420215	smiling	036	sub-09	2.0	2.0	036_smiling	0.0		116.3927662306578	1.2333241066380651
16.0	90.30076571508971	pulse	0.0	t		21.0	male	east_asian/white	3.501790688420215	smiling	036	sub-09	2.0	2.0	036_smiling	0.0		116.67622147811699	
16.0	91.00074799621234	pulse	0.0	t		21.0	male	east_asian/white	3.501790688420215	smiling	036	sub-09	2.0	2.0	036_smiling	0.0		117.37620375923962	
16.0	91.25063457426859	fix	1.0		444	21.0	male	east_asian/white	3.501790688420215	smiling	036	sub-09	2.0	2.0	036_smiling	0.0		117.62609033729586	3.7665744701466792
16.0	91.70073691814105	pulse	1.0	t		21.0	male	east_asian/white	3.501790688420215	smiling	036	sub-09	2.0	2.0	036_smiling	0.0		118.07619268116832	
16.0	92.40071497329654	pulse	1.0	t		21.0	male	east_asian/white	3.501790688420215	smiling	036	sub-09	2.0	2.0	036_smiling	0.0		118.77617073632382	
16.0	93.10069725441917	pulse	1.0	t		21.0	male	east_asian/white	3.501790688420215	smiling	036	sub-09	2.0	2.0	036_smiling	0.0		119.47615301744645	
16.0	93.8006870819122	pulse	1.0	t		21.0	male	east_asian/white	3.501790688420215	smiling	036	sub-09	2.0	2.0	036_smiling	0.0		120.17614284493948	
16.0	94.50068777617844	pulse	1.0	t		21.0	male	east_asian/white	3.501790688420215	smiling	036	sub-09	2.0	2.0	036_smiling	0.0		120.87614353920571	
17.0	95.01720904441527	face	0.0		145	28.0	female	white	5.676880222841227	smiling	124	sub-09	2.0	2.0	124_smiling	1.0	attractiveness	121.39266480744254	1.2333228992188197
17.0	95.2006679443175	pulse	0.0	t		28.0	female	white	5.676880222841227	smiling	124	sub-09	2.0	2.0	124_smiling	1.0	attractiveness	121.57612370734478	
17.0	95.900645999473	pulse	0.0	t		28.0	female	white	5.676880222841227	smiling	124	sub-09	2.0	2.0	124_smiling	1.0	attractiveness	122.27610176250028	
17.0	96.25053194363409	fix	1.0		177	28.0	female	white	5.676880222841227	smiling	124	sub-09	2.0	2.0	124_smiling	1.0	attractiveness	122.62598770666136	1.499968758027535
17.0	96.60063371398246	pulse	1.0	t		28.0	female	white	5.676880222841227	smiling	124	sub-09	2.0	2.0	124_smiling	1.0	attractiveness	122.97608947700974	
17.0	97.30062052292715	pulse	1.0	t		28.0	female	white	5.676880222841227	smiling	124	sub-09	2.0	2.0	124_smiling	1.0	attractiveness	123.67607628595442	
17.0	97.75050070166162	rating	2.0		293	28.0	female	white	5.676880222841227	smiling	124	sub-09	2.0	2.0	124_smiling	1.0	attractiveness	124.1259564646889	2.499948835610212
17.0	98.00060974671078	pulse	2.0	t		28.0	female	white	5.676880222841227	smiling	124	sub-09	2.0	2.0	124_smiling	1.0	attractiveness	124.37606550973805	
17.0	98.70058931114045	pulse	2.0	t		28.0	female	white	5.676880222841227	smiling	124	sub-09	2.0	2.0	124_smiling	1.0	attractiveness	125.07604507416772	
17.0	98.75890675433357	response	2.0	g		28.0	female	white	5.676880222841227	smiling	124	sub-09	2.0	2.0	124_smiling	1.0	attractiveness	125.13436251736084	
17.0	98.90054759480608	response	2.0	r		28.0	female	white	5.676880222841227	smiling	124	sub-09	2.0	2.0	124_smiling	1.0	attractiveness	125.27600335783336	
17.0	99.4005586125063	pulse	2.0	t		28.0	female	white	5.676880222841227	smiling	124	sub-09	2.0	2.0	124_smiling	1.0	attractiveness	125.77601437553358	
17.0	100.1005499492735	pulse	2.0	t		28.0	female	white	5.676880222841227	smiling	124	sub-09	2.0	2.0	124_smiling	1.0	attractiveness	126.47600571230078	
17.0	100.25044953727183	fix	3.0		444	28.0	female	white	5.676880222841227	smiling	124	sub-09	2.0	2.0	124_smiling	1.0	attractiveness	126.62590530029911	3.7665726590180384
17.0	100.800547021282	pulse	3.0	t		28.0	female	white	5.676880222841227	smiling	124	sub-09	2.0	2.0	124_smiling	1.0	attractiveness	127.17600278430928	
17.0	101.50052869869478	pulse	3.0	t		28.0	female	white	5.676880222841227	smiling	124	sub-09	2.0	2.0	124_smiling	1.0	attractiveness	127.87598446172206	
17.0	102.2005849342454	pulse	3.0	t		28.0	female	white	5.676880222841227	smiling	124	sub-09	2.0	2.0	124_smiling	1.0	attractiveness	128.57604069727267	
17.0	102.90049356279542	pulse	3.0	t		28.0	female	white	5.676880222841227	smiling	124	sub-09	2.0	2.0	124_smiling	1.0	attractiveness	129.2759493258227	
17.0	103.6004827865786	pulse	3.0	t		28.0	female	white	5.676880222841227	smiling	124	sub-09	2.0	2.0	124_smiling	1.0	attractiveness	129.97593854960587	
18.0	104.01702219628987	face	0.0		145	27.0	male	black	3.5523278949462798	smiling	042	sub-09	2.0	2.0	042_smiling	0.0		130.39247795931715	1.2333241066380651
18.0	104.30047321778147	pulse	0.0	t		27.0	male	black	3.5523278949462798	smiling	042	sub-09	2.0	2.0	042_smiling	0.0		130.67592898080875	
18.0	105.00045278221114	pulse	0.0	t		27.0	male	black	3.5523278949462798	smiling	042	sub-09	2.0	2.0	042_smiling	0.0		131.37590854523842	
18.0	105.25034630292794	fix	1.0		444	27.0	male	black	3.5523278949462798	smiling	042	sub-09	2.0	2.0	042_smiling	0.0		131.6258020659552	3.758240560773629
18.0	105.70045347647692	pulse	1.0	t		27.0	male	black	3.5523278949462798	smiling	042	sub-09	2.0	2.0	042_smiling	0.0		132.0759092395042	
18.0	106.40042609824604	pulse	1.0	t		27.0	male	black	3.5523278949462798	smiling	042	sub-09	2.0	2.0	042_smiling	0.0		132.77588186127332	
18.0	107.10041411460998	pulse	1.0	t		27.0	male	black	3.5523278949462798	smiling	042	sub-09	2.0	2.0	042_smiling	0.0		133.47586987763725	
18.0	107.80039639573306	pulse	1.0	t		27.0	male	black	3.5523278949462798	smiling	042	sub-09	2.0	2.0	042_smiling	0.0		134.17585215876034	
18.0	108.50038260096835	pulse	1.0	t		27.0	male	black	3.5523278949462798	smiling	042	sub-09	2.0	2.0	042_smiling	0.0		134.87583836399563	
19.0	109.00858686370157	face	0.0		146	31.0	male	west_asian	1.9538400318344609	neutral	070	sub-09	2.0	2.0	070_neutral	0.0		135.38404262672884	1.2416543937533788
19.0	109.20037635257358	pulse	0.0	t		31.0	male	west_asian	1.9538400318344609	neutral	070	sub-09	2.0	2.0	070_neutral	0.0		135.57583211560086	
19.0	109.90035501143893	pulse	0.0	t		31.0	male	west_asian	1.9538400318344609	neutral	070	sub-09	2.0	2.0	070_neutral	0.0		136.2758107744662	
19.0	110.25024125745495	fix	1.0		444	31.0	male	west_asian	1.9538400318344609	neutral	070	sub-09	2.0	2.0	070_neutral	0.0		136.62569702048222	3.766573866436829
19.0	110.60034966860894	pulse	1.0	t		31.0	male	west_asian	1.9538400318344609	neutral	070	sub-09	2.0	2.0	070_neutral	0.0		136.97580543163622	
19.0	111.30032198852314	pulse	1.0	t		31.0	male	west_asian	1.9538400318344609	neutral	070	sub-09	2.0	2.0	070_neutral	0.0		137.6757777515504	
19.0	112.00030879746782	pulse	1.0	t		31.0	male	west_asian	1.9538400318344609	neutral	070	sub-09	2.0	2.0	070_neutral	0.0		138.3757645604951	
19.0	112.70029711568668	pulse	1.0	t		31.0	male	west_asian	1.9538400318344609	neutral	070	sub-09	2.0	2.0	070_neutral	0.0		139.07575287871396	
19.0	113.40027818939052	pulse	1.0	t		31.0	male	west_asian	1.9538400318344609	neutral	070	sub-09	2.0	2.0	070_neutral	0.0		139.7757339524178	
20.0	114.01681512389177	face	0.0		145	19.0	female	white	4.298846000795861	smiling	100	sub-09	2.0	2.0	100_smiling	0.0		140.39227088691905	1.2333222955094243
20.0	114.10027194099575	pulse	0.0	t		19.0	female	white	4.298846000795861	smiling	100	sub-09	2.0	2.0	100_smiling	0.0		140.47572770402303	
20.0	114.8002587499409	pulse	0.0	t		19.0	female	white	4.298846000795861	smiling	100	sub-09	2.0	2.0	100_smiling	0.0		141.17571451296817	
20.0	115.2501374194012	fix	1.0		1185	19.0	female	white	4.298846000795861	smiling	100	sub-09	2.0	2.0	100_smiling	0.0		141.62559318242847	10.016445653607661
20.0	115.50024555888558	pulse	1.0	t		19.0	female	white	4.298846000795861	smiling	100	sub-09	2.0	2.0	100_smiling	0.0		141.87570132191286	
20.0	116.20023025484716	pulse	1.0	t		19.0	female	white	4.298846000795861	smiling	100	sub-09	2.0	2.0	100_smiling	0.0		142.57568601787443	
20.0	116.9002101211313	pulse	1.0	t		19.0	female	white	4.298846000795861	smiling	100	sub-09	2.0	2.0	100_smiling	0.0		143.27566588415857	
20.0	117.60019813749568	pulse	1.0	t		19.0	female	white	4.298846000795861	smiling	100	sub-09	2.0	2.0	100_smiling	0.0		143.97565390052296	
20.0	118.30018585200514	pulse	1.0	t		19.0	female	white	4.298846000795861	smiling	100	sub-09	2.0	2.0	100_smiling	0.0		144.67564161503242	
20.0	119.00016752941792	pulse	1.0	t		19.0	female	white	4.298846000795861	smiling	100	sub-09	2.0	2.0	100_smiling	0.0		145.3756232924452	
20.0	119.70016309215225	pulse	1.0	t		19.0	female	white	4.298846000795861	smiling	100	sub-09	2.0	2.0	100_smiling	0.0		146.07561885517953	
20.0	120.40013722319554	pulse	1.0	t		19.0	female	white	4.298846000795861	smiling	100	sub-09	2.0	2.0	100_smiling	0.0		146.77559298622282	
20.0	121.10012584326932	pulse	1.0	t		19.0	female	white	4.298846000795861	smiling	100	sub-09	2.0	2.0	100_smiling	0.0		147.4755816062966	
20.0	121.8001111429403	pulse	1.0	t		19.0	female	white	4.298846000795861	smiling	100	sub-09	2.0	2.0	100_smiling	0.0		148.17556690596757	
20.0	122.50009553704649	pulse	1.0	t		19.0	female	white	4.298846000795861	smiling	100	sub-09	2.0	2.0	100_smiling	0.0		148.87555130007377	
20.0	123.20008536453952	pulse	1.0	t		19.0	female	white	4.298846000795861	smiling	100	sub-09	2.0	2.0	100_smiling	0.0		149.5755411275668	
20.0	123.90006613638843	pulse	1.0	t		19.0	female	white	4.298846000795861	smiling	100	sub-09	2.0	2.0	100_smiling	0.0		150.2755218994157	
20.0	124.60005294533312	pulse	1.0	t		19.0	female	white	4.298846000795861	smiling	100	sub-09	2.0	2.0	100_smiling	0.0		150.9755087083604	
21.0	125.26658307300886	face	0.0		145	26.0	male	white	2.7966573816155993	neutral	117	sub-09	2.0	2.0	117_neutral	0.0		151.64203883603614	1.233323502928215
21.0	125.30004850806745	pulse	0.0	t		26.0	male	white	2.7966573816155993	neutral	117	sub-09	2.0	2.0	117_neutral	0.0		151.67550427109472	
21.0	126.0000253558037	pulse	0.0	t		26.0	male	white	2.7966573816155993	neutral	117	sub-09	2.0	2.0	117_neutral	0.0		152.37548111883098	
21.0	126.49990657593708	fix	1.0		443	26.0	male	white	2.7966573816155993	neutral	117	sub-09	2.0	2.0	117_neutral	0.0		152.87536233896435	3.758322665281412
21.0	126.70001276845824	pulse	1.0	t		26.0	male	white	2.7966573816155993	neutral	117	sub-09	2.0	2.0	117_neutral	0.0		153.0754685314855	
21.0	127.39999323845223	pulse	1.0	t		26.0	male	white	2.7966573816155993	neutral	117	sub-09	2.0	2.0	117_neutral	0.0		153.7754490014795	
21.0	128.09999091417058	pulse	1.0	t		26.0	male	white	2.7966573816155993	neutral	117	sub-09	2.0	2.0	117_neutral	0.0		154.47544667719785	
21.0	128.79995961182703	pulse	1.0	t		26.0	male	white	2.7966573816155993	neutral	117	sub-09	2.0	2.0	117_neutral	0.0		155.1754153748543	
21.0	129.4999506467393	pulse	1.0	t		26.0	male	white	2.7966573816155993	neutral	117	sub-09	2.0	2.0	117_neutral	0.0		155.87540640976658	
21.0	130.19993473899058	pulse	1.0	t		26.0	male	white	2.7966573816155993	neutral	117	sub-09	2.0	2.0	117_neutral	0.0		156.57539050201785	
22.0	130.2582292412185	face	0.0		147	31.0	female	white	2.1822522881018704	neutral	102	sub-09	2.0	2.0	102_neutral	1.0	dominance	156.63368500424576	1.2415722892460508
22.0	130.89992667946763	pulse	0.0	t		31.0	female	white	2.1822522881018704	neutral	102	sub-09	2.0	2.0	102_neutral	1.0	dominance	157.2753824424949	
22.0	131.49980153046454	fix	1.0		177	31.0	female	white	2.1822522881018704	neutral	102	sub-09	2.0	2.0	102_neutral	1.0	dominance	157.8752572934918	1.499961513512062
22.0	131.59991167728367	pulse	1.0	t		31.0	female	white	2.1822522881018704	neutral	102	sub-09	2.0	2.0	102_neutral	1.0	dominance	157.97536744031095	
22.0	132.29989093985841	pulse	1.0	t		31.0	female	white	2.1822522881018704	neutral	102	sub-09	2.0	2.0	102_neutral	1.0	dominance	158.6753467028857	
22.0	132.9997630439766	rating	2.0		294	31.0	female	white	2.1822522881018704	neutral	102	sub-09	2.0	2.0	102_neutral	1.0	dominance	159.37521880700388	2.4999578912543257
22.0	133.007801739348	pulse	2.0	t		31.0	female	white	2.1822522881018704	neutral	102	sub-09	2.0	2.0	102_neutral	1.0	dominance	159.38325750237527	
22.0	133.69987361339236	pulse	2.0	t		31.0	female	white	2.1822522881018704	neutral	102	sub-09	2.0	2.0	102_neutral	1.0	dominance	160.07532937641963	
22.0	134.26130121759206	response	2.0	n		31.0	female	white	2.1822522881018704	neutral	102	sub-09	2.0	2.0	102_neutral	1.0	dominance	160.63675698061934	
22.0	134.39985076298353	pulse	2.0	t		31.0	female	white	2.1822522881018704	neutral	102	sub-09	2.0	2.0	102_neutral	1.0	dominance	160.7753065260108	
22.0	135.09983213854184	pulse	2.0	t		31.0	female	white	2.1822522881018704	neutral	102	sub-09	2.0	2.0	102_neutral	1.0	dominance	161.47528790156912	
22.0	135.49972093523093	fix	3.0		444	31.0	female	white	2.1822522881018704	neutral	102	sub-09	2.0	2.0	102_neutral	1.0	dominance	161.8751766982582	3.7665747720016043
22.0	135.79982528643768	pulse	3.0	t		31.0	female	white	2.1822522881018704	neutral	102	sub-09	2.0	2.0	102_neutral	1.0	dominance	162.17528104946496	
22.0	136.49980575643167	pulse	3.0	t		31.0	female	white	2.1822522881018704	neutral	102	sub-09	2.0	2.0	102_neutral	1.0	dominance	162.87526151945895	
22.0	137.1997961876341	pulse	3.0	t		31.0	female	white	2.1822522881018704	neutral	102	sub-09	2.0	2.0	102_neutral	1.0	dominance	163.57525195066137	
22.0	137.89977333722527	pulse	3.0	t		31.0	female	white	2.1822522881018704	neutral	102	sub-09	2.0	2.0	102_neutral	1.0	dominance	164.27522910025255	
22.0	138.59976044802488	pulse	3.0	t		31.0	female	white	2.1822522881018704	neutral	102	sub-09	2.0	2.0	102_neutral	1.0	dominance	164.97521621105216	
23.0	139.26629570723253	face	0.0		145	22.0	female	white	4.614007162753682	smiling	009	sub-09	2.0	2.0	009_smiling	0.0		165.6417514702598	1.233320786234799
23.0	139.29975238850193	pulse	0.0	t		22.0	female	white	4.614007162753682	smiling	009	sub-09	2.0	2.0	009_smiling	0.0		165.6752081515292	
23.0	139.9997331603504	pulse	0.0	t		22.0	female	white	4.614007162753682	smiling	009	sub-09	2.0	2.0	009_smiling	0.0		166.37518892337766	
23.0	140.49961649346733	fix	1.0		443	22.0	female	white	4.614007162753682	smiling	009	sub-09	2.0	2.0	009_smiling	0.0		166.8750722564946	3.7582399570642337
23.0	140.69972630824623	pulse	1.0	t		22.0	female	white	4.614007162753682	smiling	009	sub-09	2.0	2.0	009_smiling	0.0		167.0751820712735	
23.0	141.39970255227308	pulse	1.0	t		22.0	female	white	4.614007162753682	smiling	009	sub-09	2.0	2.0	009_smiling	0.0		167.77515831530036	
23.0	142.09968845565345	pulse	1.0	t		22.0	female	white	4.614007162753682	smiling	009	sub-09	2.0	2.0	009_smiling	0.0		168.47514421868073	
23.0	142.79967435903427	pulse	1.0	t		22.0	female	white	4.614007162753682	smiling	009	sub-09	2.0	2.0	009_smiling	0.0		169.17513012206155	
23.0	143.49965784757615	pulse	1.0	t		22.0	female	white	4.614007162753682	smiling	009	sub-09	2.0	2.0	009_smiling	0.0		169.87511361060342	
23.0	144.19964073240862	pulse	1.0	t		22.0	female	white	4.614007162753682	smiling	009	sub-09	2.0	2.0	009_smiling	0.0		170.5750964954359	
24.0	144.25785645053156	face	0.0		147	27.0	male	black	3.5523278949462798	neutral	042	sub-09	2.0	2.0	042_neutral	0.0		170.63331221355884	1.2416540918984538
24.0	144.8996381062716	pulse	0.0	t		27.0	male	black	3.5523278949462798	neutral	042	sub-09	2.0	2.0	042_neutral	0.0		171.27509386929887	
24.0	145.49951054243002	fix	1.0		443	27.0	male	black	3.5523278949462798	neutral	042	sub-09	2.0	2.0	042_neutral	0.0		171.8749663054573	3.76657688498517
24.0	145.5996137465886	pulse	1.0	t		27.0	male	black	3.5523278949462798	neutral	042	sub-09	2.0	2.0	042_neutral	0.0		171.97506950961588	
24.0	146.29959904625957	pulse	1.0	t		27.0	male	black	3.5523278949462798	neutral	042	sub-09	2.0	2.0	042_neutral	0.0		172.67505480928685	
24.0	146.9995858552047	pulse	1.0	t		27.0	male	black	3.5523278949462798	neutral	042	sub-09	2.0	2.0	042_neutral	0.0		173.375041618232	
24.0	147.69957145673015	pulse	1.0	t		27.0	male	black	3.5523278949462798	neutral	042	sub-09	2.0	2.0	042_neutral	0.0		174.07502721975743	
24.0	148.39955675640113	pulse	1.0	t		27.0	male	black	3.5523278949462798	neutral	042	sub-09	2.0	2.0	042_neutral	0.0		174.7750125194284	
24.0	149.09954688574908	pulse	1.0	t		27.0	male	black	3.5523278949462798	neutral	042	sub-09	2.0	2.0	042_neutral	0.0		175.47500264877635	
25.0	149.2660874274152	face	0.0		146	25.0	female	black	3.858336649423	smiling	126	sub-09	2.0	2.0	126_smiling	0.0		175.64154319044246	1.2333075046240083
25.0	149.79953550582286	pulse	0.0	t		25.0	female	black	3.858336649423	smiling	126	sub-09	2.0	2.0	126_smiling	0.0		176.17499126885014	
25.0	150.4993949320392	fix	1.0		444	25.0	female	black	3.858336649423	smiling	126	sub-09	2.0	2.0	126_smiling	0.0		176.87485069506647	3.7582339199680064
25.0	150.5069059852076	pulse	1.0	t		25.0	female	black	3.858336649423	smiling	126	sub-09	2.0	2.0	126_smiling	0.0		176.88236174823487	
25.0	151.19950580330988	pulse	1.0	t		25.0	female	black	3.858336649423	smiling	126	sub-09	2.0	2.0	126_smiling	0.0		177.57496156633715	
25.0	151.8994823491912	pulse	1.0	t		25.0	female	black	3.858336649423	smiling	126	sub-09	2.0	2.0	126_smiling	0.0		178.27493811221848	
25.0	152.59946885628142	pulse	1.0	t		25.0	female	black	3.858336649423	smiling	126	sub-09	2.0	2.0	126_smiling	0.0		178.9749246193087	
25.0	153.2994550615167	pulse	1.0	t		25.0	female	black	3.858336649423	smiling	126	sub-09	2.0	2.0	126_smiling	0.0		179.67491082454399	
25.0	153.9994355315107	pulse	1.0	t		25.0	female	black	3.858336649423	smiling	126	sub-09	2.0	2.0	126_smiling	0.0		180.37489129453797	
26.0	154.2576288520072	face	0.0		146	22.0	female	west_asian	3.8205332272184642	neutral	066	sub-09	2.0	2.0	066_neutral	0.0		180.63308461503448	1.241677032863663
26.0	154.69943864061497	pulse	0.0	t		22.0	female	west_asian	3.8205332272184642	neutral	066	sub-09	2.0	2.0	066_neutral	0.0		181.07489440364225	
26.0	155.3994145827869	pulse	0.0	t		22.0	female	west_asian	3.8205332272184642	neutral	066	sub-09	2.0	2.0	066_neutral	0.0		181.77487034581418	
26.0	155.49930588487086	fix	1.0		444	22.0	female	west_asian	3.8205332272184642	neutral	066	sub-09	2.0	2.0	066_neutral	0.0		181.87476164789814	3.7665759794208498
26.0	156.09940742882782	pulse	1.0	t		22.0	female	west_asian	3.8205332272184642	neutral	066	sub-09	2.0	2.0	066_neutral	0.0		182.4748631918551	
26.0	156.79938488027392	pulse	1.0	t		22.0	female	west_asian	3.8205332272184642	neutral	066	sub-09	2.0	2.0	066_neutral	0.0		183.1748406433012	
26.0	157.49937440591202	pulse	1.0	t		22.0	female	west_asian	3.8205332272184642	neutral	066	sub-09	2.0	2.0	066_neutral	0.0		183.8748301689393	
26.0	158.19935427219662	pulse	1.0	t		22.0	female	west_asian	3.8205332272184642	neutral	066	sub-09	2.0	2.0	066_neutral	0.0		184.5748100352239	
26.0	158.8993371570291	pulse	1.0	t		22.0	female	west_asian	3.8205332272184642	neutral	066	sub-09	2.0	2.0	066_neutral	0.0		185.27479292005637	
27.0	159.2658818642917	face	0.0		145	24.0	male	white	3.1153999204138483	neutral	012	sub-09	2.0	2.0	012_neutral	0.0		185.641337627319	1.2333213899446491
27.0	159.5993324179085	pulse	0.0	t		24.0	male	white	3.1153999204138483	neutral	012	sub-09	2.0	2.0	012_neutral	0.0		185.97478818093578	
27.0	160.2993131897574	pulse	0.0	t		24.0	male	white	3.1153999204138483	neutral	012	sub-09	2.0	2.0	012_neutral	0.0		186.6747689527847	
27.0	160.49920325423636	fix	1.0		445	24.0	male	white	3.1153999204138483	neutral	012	sub-09	2.0	2.0	012_neutral	0.0		186.87465901726364	3.774906870245559
27.0	160.99930452652416	pulse	1.0	t		24.0	male	white	3.1153999204138483	neutral	012	sub-09	2.0	2.0	012_neutral	0.0		187.37476028955143	
27.0	161.69928348724397	pulse	1.0	t		24.0	male	white	3.1153999204138483	neutral	012	sub-09	2.0	2.0	012_neutral	0.0		188.07473925027125	
27.0	162.39927029618912	pulse	1.0	t		24.0	male	white	3.1153999204138483	neutral	012	sub-09	2.0	2.0	012_neutral	0.0		188.7747260592164	
27.0	163.09925106803803	pulse	1.0	t		24.0	male	white	3.1153999204138483	neutral	012	sub-09	2.0	2.0	012_neutral	0.0		189.4747068310653	
27.0	163.79923727327332	pulse	1.0	t		24.0	male	white	3.1153999204138483	neutral	012	sub-09	2.0	2.0	012_neutral	0.0		190.1746930363006	
28.0	164.27411012448192	face	0.0		145	28.0	male	east_asian	1.5563072025467568	smiling	005	sub-09	2.0	2.0	005_smiling	0.0		190.6495658875092	1.2333250122023856
28.0	164.4992461176189	pulse	0.0	t		28.0	male	east_asian	1.5563072025467568	smiling	005	sub-09	2.0	2.0	005_smiling	0.0		190.87470188064617	
28.0	165.19921179672747	pulse	0.0	t		28.0	male	east_asian	1.5563072025467568	smiling	005	sub-09	2.0	2.0	005_smiling	0.0		191.57466755975474	
28.0	165.5074351366843	fix	1.0		444	28.0	male	east_asian	1.5563072025467568	smiling	005	sub-09	2.0	2.0	005_smiling	0.0		191.88289089971158	3.766569640470152
28.0	165.89927527679356	pulse	1.0	t		28.0	male	east_asian	1.5563072025467568	smiling	005	sub-09	2.0	2.0	005_smiling	0.0		192.27473103982084	
28.0	166.59918571647222	pulse	1.0	t		28.0	male	east_asian	1.5563072025467568	smiling	005	sub-09	2.0	2.0	005_smiling	0.0		192.9746414794995	
28.0	167.29916648832068	pulse	1.0	t		28.0	male	east_asian	1.5563072025467568	smiling	005	sub-09	2.0	2.0	005_smiling	0.0		193.67462225134796	
28.0	167.9991554102494	pulse	1.0	t		28.0	male	east_asian	1.5563072025467568	smiling	005	sub-09	2.0	2.0	005_smiling	0.0		194.37461117327666	
28.0	168.69914101177528	pulse	1.0	t		28.0	male	east_asian	1.5563072025467568	smiling	005	sub-09	2.0	2.0	005_smiling	0.0		195.07459677480256	
29.0	169.27400477715446	face	0.0		145	37.0	male	white	3.898925586947871	neutral	101	sub-09	2.0	2.0	101_neutral	0.0		195.64946054018174	1.2333244084925354
29.0	169.39912993370353	pulse	0.0	t		37.0	male	white	3.898925586947871	neutral	101	sub-09	2.0	2.0	101_neutral	0.0		195.7745856967308	
29.0	170.09910768700456	pulse	0.0	t		37.0	male	white	3.898925586947871	neutral	101	sub-09	2.0	2.0	101_neutral	0.0		196.47456345003184	
29.0	170.507329185647	fix	1.0		444	37.0	male	white	3.898925586947871	neutral	101	sub-09	2.0	2.0	101_neutral	0.0		196.88278494867427	3.7665765831307
29.0	170.79910174046472	pulse	1.0	t		37.0	male	white	3.898925586947871	neutral	101	sub-09	2.0	2.0	101_neutral	0.0		197.174557503492	
29.0	171.49907979562022	pulse	1.0	t		37.0	male	white	3.898925586947871	neutral	101	sub-09	2.0	2.0	101_neutral	0.0		197.8745355586475	
29.0	172.19906690641983	pulse	1.0	t		37.0	male	white	3.898925586947871	neutral	101	sub-09	2.0	2.0	101_neutral	0.0		198.5745226694471	
29.0	172.8990564320584	pulse	1.0	t		37.0	male	white	3.898925586947871	neutral	101	sub-09	2.0	2.0	101_neutral	0.0		199.27451219508566	
29.0	173.59903690205238	pulse	1.0	t		37.0	male	white	3.898925586947871	neutral	101	sub-09	2.0	2.0	101_neutral	0.0		199.97449266507965	
30.0	174.2739057687777	face	0.0		145	24.0	female	black	3.0955033824114606	neutral	099	sub-09	2.0	2.0	099_neutral	0.0		200.64936153180497	1.2333192769610832
30.0	174.29904272785006	pulse	0.0	t		24.0	female	black	3.0955033824114606	neutral	099	sub-09	2.0	2.0	099_neutral	0.0		200.67449849087734	
30.0	174.99902168856988	pulse	0.0	t		24.0	female	black	3.0955033824114606	neutral	099	sub-09	2.0	2.0	099_neutral	0.0		201.37447745159716	
30.0	175.50722504573878	fix	1.0		443	24.0	female	black	3.0955033824114606	neutral	099	sub-09	2.0	2.0	099_neutral	0.0		201.88268080876605	3.766574168291754
30.0	175.69900125299955	pulse	1.0	t		24.0	female	black	3.0955033824114606	neutral	099	sub-09	2.0	2.0	099_neutral	0.0		202.07445701602683	
30.0	176.398982024848	pulse	1.0	t		24.0	female	black	3.0955033824114606	neutral	099	sub-09	2.0	2.0	099_neutral	0.0		202.77443778787529	
30.0	177.09896279669692	pulse	1.0	t		24.0	female	black	3.0955033824114606	neutral	099	sub-09	2.0	2.0	099_neutral	0.0		203.4744185597242	
30.0	177.79895111491578	pulse	1.0	t		24.0	female	black	3.0955033824114606	neutral	099	sub-09	2.0	2.0	099_neutral	0.0		204.17440687794306	
30.0	178.49894245168298	pulse	1.0	t		24.0	female	black	3.0955033824114606	neutral	099	sub-09	2.0	2.0	099_neutral	0.0		204.87439821471025	
30.0	179.19891869570984	pulse	1.0	t		24.0	female	black	3.0955033824114606	neutral	099	sub-09	2.0	2.0	099_neutral	0.0		205.5743744587371	
31.0	179.27379921403053	face	0.0		146	31.0	female	west_asian	2.364902506963788	neutral	006	sub-09	2.0	2.0	006_neutral	0.0		205.6492549770578	1.2333232010737447
31.0	179.8989160695728	pulse	0.0	t		31.0	female	west_asian	2.364902506963788	neutral	006	sub-09	2.0	2.0	006_neutral	0.0		206.27437183260008	
31.0	180.50712241510428	fix	1.0		443	31.0	female	west_asian	2.364902506963788	neutral	006	sub-09	2.0	2.0	006_neutral	0.0		206.88257817813155	3.758367943502435
31.0	180.59889955811468	pulse	1.0	t		31.0	female	west_asian	2.364902506963788	neutral	006	sub-09	2.0	2.0	006_neutral	0.0		206.97435532114196	
31.0	181.29887489657722	pulse	1.0	t		31.0	female	west_asian	2.364902506963788	neutral	006	sub-09	2.0	2.0	006_neutral	0.0		207.6743306596045	
31.0	181.99886049810266	pulse	1.0	t		31.0	female	west_asian	2.364902506963788	neutral	006	sub-09	2.0	2.0	006_neutral	0.0		208.37431626112993	
31.0	182.69885243857925	pulse	1.0	t		31.0	female	west_asian	2.364902506963788	neutral	006	sub-09	2.0	2.0	006_neutral	0.0		209.07430820160653	
31.0	183.39883864381454	pulse	1.0	t		31.0	female	west_asian	2.364902506963788	neutral	006	sub-09	2.0	2.0	006_neutral	0.0		209.77429440684182	
31.0	184.09880251179447	pulse	1.0	t		31.0	female	west_asian	2.364902506963788	neutral	006	sub-09	2.0	2.0	006_neutral	0.0		210.47425827482175	
32.0	184.2654903586067	face	0.0		147	31.0	male	west_asian	1.9538400318344609	smiling	070	sub-09	2.0	2.0	070_smiling	1.0	trustworthiness	210.640946121634	1.2498621278168685
32.0	184.7988149783978	pulse	0.0	t		31.0	male	west_asian	1.9538400318344609	smiling	070	sub-09	2.0	2.0	070_smiling	1.0	trustworthiness	211.17427074142506	
32.0	185.49879182613404	pulse	0.0	t		31.0	male	west_asian	1.9538400318344609	smiling	070	sub-09	2.0	2.0	070_smiling	1.0	trustworthiness	211.8742475891613	
32.0	185.51535248642358	fix	1.0		176	31.0	male	west_asian	1.9538400318344609	smiling	070	sub-09	2.0	2.0	070_smiling	1.0	trustworthiness	211.89080824945086	1.491637565347446
32.0	186.198781955482	pulse	1.0	t		31.0	male	west_asian	1.9538400318344609	smiling	070	sub-09	2.0	2.0	070_smiling	1.0	trustworthiness	212.57423771850927	
32.0	186.8988463411124	pulse	1.0	t		31.0	male	west_asian	1.9538400318344609	smiling	070	sub-09	2.0	2.0	070_smiling	1.0	trustworthiness	213.27430210413968	
32.0	187.00699005177103	rating	2.0		295	31.0	male	west_asian	1.9538400318344609	smiling	070	sub-09	2.0	2.0	070_smiling	1.0	trustworthiness	213.3824458147983	2.499947326336496
32.0	187.59876191232297	pulse	2.0	t		31.0	male	west_asian	1.9538400318344609	smiling	070	sub-09	2.0	2.0	070_smiling	1.0	trustworthiness	213.97421767535025	
32.0	188.29873966562354	pulse	2.0	t		31.0	male	west_asian	1.9538400318344609	smiling	070	sub-09	2.0	2.0	070_smiling	1.0	trustworthiness	214.67419542865082	
32.0	188.893464873609	response	2.0	e		31.0	male	west_asian	1.9538400318344609	smiling	070	sub-09	2.0	2.0	070_smiling	1.0	trustworthiness	215.26892063663627	
32.0	188.99871621150487	pulse	2.0	t		31.0	male	west_asian	1.9538400318344609	smiling	070	sub-09	2.0	2.0	070_smiling	1.0	trustworthiness	215.37417197453215	
32.0	189.50693737810752	fix	3.0		443	31.0	male	west_asian	1.9538400318344609	smiling	070	sub-09	2.0	2.0	070_smiling	1.0	trustworthiness	215.8823931411348	3.7665720553081883
32.0	189.69871086867488	pulse	3.0	t		31.0	male	west_asian	1.9538400318344609	smiling	070	sub-09	2.0	2.0	070_smiling	1.0	trustworthiness	216.07416663170216	
32.0	190.39868530157264	pulse	3.0	t		31.0	male	west_asian	1.9538400318344609	smiling	070	sub-09	2.0	2.0	070_smiling	1.0	trustworthiness	216.77414106459992	
32.0	191.09868056245205	pulse	3.0	t		31.0	male	west_asian	1.9538400318344609	smiling	070	sub-09	2.0	2.0	070_smiling	1.0	trustworthiness	217.47413632547932	
32.0	191.79867220107417	pulse	3.0	t		31.0	male	west_asian	1.9538400318344609	smiling	070	sub-09	2.0	2.0	070_smiling	1.0	trustworthiness	218.17412796410144	
32.0	192.49864723768133	pulse	3.0	t		31.0	male	west_asian	1.9538400318344609	smiling	070	sub-09	2.0	2.0	070_smiling	1.0	trustworthiness	218.8741030007086	
32.0	193.19863132993305	pulse	3.0	t		31.0	male	west_asian	1.9538400318344609	smiling	070	sub-09	2.0	2.0	070_smiling	1.0	trustworthiness	219.57408709296033	
33.0	193.2735094334157	face	0.0		146	25.0	female	west_asian	2.6756864305610826	smiling	064	sub-09	2.0	2.0	064_smiling	0.0		219.648965196443	1.2333225973638946
33.0	193.89862025186176	pulse	0.0	t		25.0	female	west_asian	2.6756864305610826	smiling	064	sub-09	2.0	2.0	064_smiling	0.0		220.27407601488903	
33.0	194.5068320307796	fix	1.0		443	25.0	female	west_asian	2.6756864305610826	smiling	064	sub-09	2.0	2.0	064_smiling	0.0		220.88228779380688	3.758317533749505
33.0	194.59861400346745	pulse	1.0	t		25.0	female	west_asian	2.6756864305610826	smiling	064	sub-09	2.0	2.0	064_smiling	0.0		220.97406976649472	
33.0	195.29858813451028	pulse	1.0	t		25.0	female	west_asian	2.6756864305610826	smiling	064	sub-09	2.0	2.0	064_smiling	0.0		221.67404389753756	
33.0	195.998577056439	pulse	1.0	t		25.0	female	west_asian	2.6756864305610826	smiling	064	sub-09	2.0	2.0	064_smiling	0.0		222.37403281946627	
33.0	196.6985590357067	pulse	1.0	t		25.0	female	west_asian	2.6756864305610826	smiling	064	sub-09	2.0	2.0	064_smiling	0.0		223.07401479873397	
33.0	197.39856063553725	pulse	1.0	t		25.0	female	west_asian	2.6756864305610826	smiling	064	sub-09	2.0	2.0	064_smiling	0.0		223.77401639856453	
33.0	198.09852631464582	pulse	1.0	t		25.0	female	west_asian	2.6756864305610826	smiling	064	sub-09	2.0	2.0	064_smiling	0.0		224.4739820776731	
34.0	198.2651495645291	face	0.0		147	28.0	male	east_asian	1.5563072025467568	neutral	005	sub-09	2.0	2.0	005_neutral	1.0	dominance	224.6406053275564	1.2499140468439691
34.0	198.79852429221864	pulse	0.0	t		28.0	male	east_asian	1.5563072025467568	neutral	005	sub-09	2.0	2.0	005_neutral	1.0	dominance	225.17398005524592	
34.0	199.4985017436643	pulse	0.0	t		28.0	male	east_asian	1.5563072025467568	neutral	005	sub-09	2.0	2.0	005_neutral	1.0	dominance	225.87395750669157	
34.0	199.51506361137308	fix	1.0		176	28.0	male	east_asian	1.5563072025467568	neutral	005	sub-09	2.0	2.0	005_neutral	1.0	dominance	225.89051937440036	1.4916372634929758
34.0	200.1984912693024	pulse	1.0	t		28.0	male	east_asian	1.5563072025467568	neutral	005	sub-09	2.0	2.0	005_neutral	1.0	dominance	226.57394703232967	
34.0	200.8984768708283	pulse	1.0	t		28.0	male	east_asian	1.5563072025467568	neutral	005	sub-09	2.0	2.0	005_neutral	1.0	dominance	227.27393263385557	
34.0	201.00670087486606	rating	2.0		295	28.0	male	east_asian	1.5563072025467568	neutral	005	sub-09	2.0	2.0	005_neutral	1.0	dominance	227.38215663789333	2.4999449114975505
34.0	201.59846700017624	pulse	2.0	t		28.0	male	east_asian	1.5563072025467568	neutral	005	sub-09	2.0	2.0	005_neutral	1.0	dominance	227.97392276320352	
34.0	202.29845048871812	pulse	2.0	t		28.0	male	east_asian	1.5563072025467568	neutral	005	sub-09	2.0	2.0	005_neutral	1.0	dominance	228.6739062517454	
34.0	202.36510063386504	response	2.0	e		28.0	male	east_asian	1.5563072025467568	neutral	005	sub-09	2.0	2.0	005_neutral	1.0	dominance	228.74055639689232	
34.0	202.9984086214563	pulse	2.0	t		28.0	male	east_asian	1.5563072025467568	neutral	005	sub-09	2.0	2.0	005_neutral	1.0	dominance	229.37386438448357	
34.0	203.5066457863636	fix	3.0		443	28.0	male	east_asian	1.5563072025467568	neutral	005	sub-09	2.0	2.0	005_neutral	1.0	dominance	229.88210154939088	3.7665732627274338
34.0	203.69841837136664	pulse	3.0	t		28.0	male	east_asian	1.5563072025467568	neutral	005	sub-09	2.0	2.0	005_neutral	1.0	dominance	230.07387413439392	
34.0	204.39840246361837	pulse	3.0	t		28.0	male	east_asian	1.5563072025467568	neutral	005	sub-09	2.0	2.0	005_neutral	1.0	dominance	230.77385822664564	
34.0	205.0983874614344	pulse	3.0	t		28.0	male	east_asian	1.5563072025467568	neutral	005	sub-09	2.0	2.0	005_neutral	1.0	dominance	231.4738432244617	
34.0	205.79837487408895	pulse	3.0	t		28.0	male	east_asian	1.5563072025467568	neutral	005	sub-09	2.0	2.0	005_neutral	1.0	dominance	232.17383063711623	
34.0	206.49835655150218	pulse	3.0	t		28.0	male	east_asian	1.5563072025467568	neutral	005	sub-09	2.0	2.0	005_neutral	1.0	dominance	232.87381231452946	
34.0	207.19834094560838	pulse	3.0	t		28.0	male	east_asian	1.5563072025467568	neutral	005	sub-09	2.0	2.0	005_neutral	1.0	dominance	233.57379670863565	
35.0	207.27321904909104	face	0.0		146	20.0	female	white	3.9502586549940313	smiling	091	sub-09	2.0	2.0	091_smiling	0.0		233.64867481211832	1.2333250122023856
35.0	207.89833530092392	pulse	0.0	t		20.0	female	white	3.9502586549940313	smiling	091	sub-09	2.0	2.0	091_smiling	0.0		234.2737910639512	
35.0	208.50654406129343	fix	1.0		443	20.0	female	white	3.9502586549940313	smiling	091	sub-09	2.0	2.0	091_smiling	0.0		234.8819998243207	3.7665720553081883
35.0	208.59831909132072	pulse	1.0	t		20.0	female	white	3.9502586549940313	smiling	091	sub-09	2.0	2.0	091_smiling	0.0		234.973774854348	
35.0	209.29829835389546	pulse	1.0	t		20.0	female	white	3.9502586549940313	smiling	091	sub-09	2.0	2.0	091_smiling	0.0		235.67375411692274	
35.0	209.99828516284015	pulse	1.0	t		20.0	female	white	3.9502586549940313	smiling	091	sub-09	2.0	2.0	091_smiling	0.0		236.37374092586742	
35.0	210.69827166993036	pulse	1.0	t		20.0	female	white	3.9502586549940313	smiling	091	sub-09	2.0	2.0	091_smiling	0.0		237.07372743295764	
35.0	211.39825213992435	pulse	1.0	t		20.0	female	white	3.9502586549940313	smiling	091	sub-09	2.0	2.0	091_smiling	0.0		237.77370790295163	
35.0	212.09823593032115	pulse	1.0	t		20.0	female	white	3.9502586549940313	smiling	091	sub-09	2.0	2.0	091_smiling	0.0		238.47369169334843	
36.0	212.2731161166016	face	0.0		146	31.0	female	east_asian	3.395941106247513	smiling	087	sub-09	2.0	2.0	087_smiling	0.0		238.6485718796289	1.2416607327045313
36.0	212.7982299837813	pulse	0.0	t		31.0	female	east_asian	3.395941106247513	smiling	087	sub-09	2.0	2.0	087_smiling	0.0		239.1736857468086	
36.0	213.49820954821098	pulse	0.0	t		31.0	female	east_asian	3.395941106247513	smiling	087	sub-09	2.0	2.0	087_smiling	0.0		239.87366531123826	
36.0	213.51477684930614	fix	1.0		443	31.0	female	east_asian	3.395941106247513	smiling	087	sub-09	2.0	2.0	087_smiling	0.0		239.89023261233342	3.7582360329515723
36.0	214.19819907384908	pulse	1.0	t		31.0	female	east_asian	3.395941106247513	smiling	087	sub-09	2.0	2.0	087_smiling	0.0		240.57365483687636	
36.0	214.89818678835854	pulse	1.0	t		31.0	female	east_asian	3.395941106247513	smiling	087	sub-09	2.0	2.0	087_smiling	0.0		241.27364255138582	
36.0	215.598174502868	pulse	1.0	t		31.0	female	east_asian	3.395941106247513	smiling	087	sub-09	2.0	2.0	087_smiling	0.0		241.97363026589528	
36.0	216.29815406729722	pulse	1.0	t		31.0	female	east_asian	3.395941106247513	smiling	087	sub-09	2.0	2.0	087_smiling	0.0		242.6736098303245	
36.0	216.9981393669682	pulse	1.0	t		31.0	female	east_asian	3.395941106247513	smiling	087	sub-09	2.0	2.0	087_smiling	0.0		243.37359512999546	
37.0	217.27301288225772	face	0.0		145	20.0	male	black	2.609629924393156	smiling	043	sub-09	2.0	2.0	043_smiling	0.0		243.648468645285	1.2333241066380651
37.0	217.6981316092997	pulse	0.0	t		20.0	male	black	2.609629924393156	smiling	043	sub-09	2.0	2.0	043_smiling	0.0		244.07358737232698	
37.0	218.39808793090924	pulse	0.0	t		20.0	male	black	2.609629924393156	smiling	043	sub-09	2.0	2.0	043_smiling	0.0		244.77354369393652	
37.0	218.50633698889578	fix	1.0		444	20.0	male	black	2.609629924393156	smiling	043	sub-09	2.0	2.0	043_smiling	0.0		244.88179275192306	3.766574168291754
37.0	219.09811066057637	pulse	1.0	t		20.0	male	black	2.609629924393156	smiling	043	sub-09	2.0	2.0	043_smiling	0.0		245.47356642360364	
37.0	219.79808358419996	pulse	1.0	t		20.0	male	black	2.609629924393156	smiling	043	sub-09	2.0	2.0	043_smiling	0.0		246.17353934722723	
37.0	220.49806677088736	pulse	1.0	t		20.0	male	black	2.609629924393156	smiling	043	sub-09	2.0	2.0	043_smiling	0.0		246.87352253391464	
37.0	221.1980541835419	pulse	1.0	t		20.0	male	black	2.609629924393156	smiling	043	sub-09	2.0	2.0	043_smiling	0.0		247.57350994656917	
37.0	221.89804219990583	pulse	1.0	t		20.0	male	black	2.609629924393156	smiling	043	sub-09	2.0	2.0	043_smiling	0.0		248.2734979629331	
38.0	222.27291115718754	face	0.0		145	28.0	male	white	3.9076800636689217	smiling	033	sub-09	2.0	2.0	033_smiling	0.0		248.6483669202148	1.2333180695418378
38.0	222.59803232925378	pulse	0.0	t		28.0	male	white	3.9076800636689217	smiling	033	sub-09	2.0	2.0	033_smiling	0.0		248.97348809228106	
38.0	223.29800917699004	pulse	0.0	t		28.0	male	white	3.9076800636689217	smiling	033	sub-09	2.0	2.0	033_smiling	0.0		249.6734649400173	
38.0	223.50622922672937	fix	1.0		444	28.0	male	white	3.9076800636689217	smiling	033	sub-09	2.0	2.0	033_smiling	0.0		249.88168498975665	3.7582399570642337
38.0	223.9979974952089	pulse	1.0	t		28.0	male	white	3.9076800636689217	smiling	033	sub-09	2.0	2.0	033_smiling	0.0		250.37345325823617	
38.0	224.69798370044418	pulse	1.0	t		28.0	male	white	3.9076800636689217	smiling	033	sub-09	2.0	2.0	033_smiling	0.0		251.07343946347146	
38.0	225.39797805575927	pulse	1.0	t		28.0	male	white	3.9076800636689217	smiling	033	sub-09	2.0	2.0	033_smiling	0.0		251.77343381878654	
38.0	226.09795369607627	pulse	1.0	t		28.0	male	white	3.9076800636689217	smiling	033	sub-09	2.0	2.0	033_smiling	0.0		252.47340945910355	
38.0	226.79793748647307	pulse	1.0	t		28.0	male	white	3.9076800636689217	smiling	033	sub-09	2.0	2.0	033_smiling	0.0		253.17339324950035	
39.0	227.2644691837936	face	0.0		146	25.0	female	black	3.858336649423	neutral	126	sub-09	2.0	2.0	126_neutral	0.0		253.63992494682088	1.2416604308496062
39.0	227.49794421783554	pulse	0.0	t		25.0	female	black	3.858336649423	neutral	126	sub-09	2.0	2.0	126_neutral	0.0		253.8733999808628	
39.0	228.19790657654084	pulse	0.0	t		25.0	female	black	3.858336649423	neutral	126	sub-09	2.0	2.0	126_neutral	0.0		254.57336233956812	
39.0	228.5061296146432	fix	1.0		444	25.0	female	black	3.858336649423	neutral	126	sub-09	2.0	2.0	126_neutral	0.0		254.8815853776705	3.7499211404315247
39.0	228.89789700774372	pulse	1.0	t		25.0	female	black	3.858336649423	neutral	126	sub-09	2.0	2.0	126_neutral	0.0		255.273352770771	
39.0	229.59788170370484	pulse	1.0	t		25.0	female	black	3.858336649423	neutral	126	sub-09	2.0	2.0	126_neutral	0.0		255.97333746673212	
39.0	230.29786338111808	pulse	1.0	t		25.0	female	black	3.858336649423	neutral	126	sub-09	2.0	2.0	126_neutral	0.0		256.67331914414535	
39.0	230.9978532086111	pulse	1.0	t		25.0	female	black	3.858336649423	neutral	126	sub-09	2.0	2.0	126_neutral	0.0		257.3733089716384	
39.0	231.69783518787926	pulse	1.0	t		25.0	female	black	3.858336649423	neutral	126	sub-09	2.0	2.0	126_neutral	0.0		258.07329095090654	
40.0	232.25605075507474	fix	0.0		720													258.631506518102	5.999876843238781
40.0	232.39782803392018	pulse	0.0	t														258.77328379694745	
40.0	233.09780488165643	pulse	0.0	t														259.4732606446837	
40.0	233.7977901813274	pulse	0.0	t														260.1732459443547	
40.0	234.49779208301243	pulse	0.0	t														260.8732478460397	
40.0	235.19773150075298	pulse	0.0	t														261.57318726378026	
40.0	235.89775272114593	pulse	0.0	t														262.2732084841732	
40.0	236.5977353041235	pulse	0.0	t														262.97319106715076	
40.0	237.29772211306818	pulse	0.0	t														263.67317787609545	
40.0	237.99770348862648	pulse	0.0	t														264.37315925165376	
