trial_nr	onset	event_type	phase	response	nr_frames	rating_type	face_id	repetition	session	rating	onset_abs	duration
0.0	0.0060913932393305	cue	0.0		480						1462.2316374528455	4.000429838604759
0.0	4.00652123184409	fix	1.0		120						1466.2320672914502	1.025145259220153
0.0	5.031666491064243	face	0.0		146	attractiveness	172	1.0	1		1467.2572125506704	1.2753596503171138
0.0	6.307026141381357	rating	1.0		583	attractiveness	172	1.0	1		1468.5325722009875	4.866945619054604
0.0	11.173971760435961	fix	2.0		60	attractiveness	172	1.0	1	-2.58	1473.399517820042	0.5167517841910012
1.0	11.690723544626962	face	0.0		147	attractiveness	044	1.0	1		1473.916269604233	1.2334793597110547
1.0	12.924202904338017	rating	1.0		242	attractiveness	044	1.0	1		1475.1497489639441	2.0251820852863602
1.0	14.949384989624377	fix	2.0		60	attractiveness	044	1.0	1	0.6299999999999999	1477.1749310492305	0.5167472563916817
2.0	15.466132246016059	face	0.0		147	attractiveness	036	1.0	1		1477.6916783056222	1.2334440429112874
2.0	16.699576288927346	rating	1.0		250	attractiveness	036	1.0	1		1478.9251223485335	2.0918937079259194
2.0	18.791469996853266	fix	2.0		60	attractiveness	036	1.0	1	0.16999999999999993	1481.0170160564594	0.5167448415304534
3.0	19.30821483838372	face	0.0		147	attractiveness	024	1.0	1		1481.5337608979899	1.2334470615023747
3.0	20.541661899886094	rating	1.0		353	attractiveness	024	1.0	1		1482.7672079594922	2.941986271122005
3.0	23.4836481710081	fix	2.0		60	attractiveness	024	1.0	1	-2.38	1485.7091942306142	0.5167445397237316
4.0	24.00039271073183	face	0.0		147	attractiveness	009	1.0	1		1486.225938770338	1.2334491744404659
4.0	25.233841885172296	rating	1.0		238	attractiveness	009	1.0	1		1487.4593879447784	1.9835556530742906
4.0	27.217397538246587	fix	2.0		60	attractiveness	009	1.0	1	1.5999999999999996	1489.4429435978527	0.516736691526603
5.0	27.73413422977319	face	0.0		147	attractiveness	121	1.0	1		1489.9596802893793	1.2334648708347231
5.0	28.967599100607913	rating	1.0		345	attractiveness	121	1.0	1		1491.193145160214	2.8836293353815563
5.0	31.85122843598947	fix	2.0		60	attractiveness	121	1.0	1	-0.2200000000000002	1494.0767744955956	0.5167427285923623
6.0	32.36797116458183	face	0.0		147	attractiveness	038	1.0	1		1494.593517224188	1.2334488725755364
6.0	33.60142003715737	rating	1.0		430	attractiveness	038	1.0	1		1495.8269660967635	3.5920737631968223
6.0	37.19349380035419	fix	2.0		60	attractiveness	038	1.0	1	-2.67	1499.4190398599603	0.5167327674571425
7.0	37.71022656781133	face	0.0		147	attractiveness	027	1.0	1		1499.9357726274175	1.2334416281082667
7.0	38.9436681959196	rating	1.0		423	attractiveness	027	1.0	1		1501.1692142555257	3.5337201479123905
7.0	42.47738834383199	fix	2.0		60	attractiveness	027	1.0	1	2.2699999999999996	1504.7029344034381	0.5167481619282626
8.0	42.99413650576025	face	0.0		147	attractiveness	011	1.0	1		1505.2196825653664	1.2334422318381257
8.0	44.22757873759838	rating	1.0		191	attractiveness	011	1.0	1		1506.4531247972045	1.5918413363979198
8.0	45.8194200739963	fix	2.0		60	attractiveness	011	1.0	1	0.8099999999999996	1508.0449661336024	0.5167421248625033
9.0	46.3361621988588	face	0.0		147	attractiveness	062	1.0	1		1508.561708258465	1.2334494763053954
9.0	47.5696116751642	rating	1.0		144	attractiveness	062	1.0	1		1509.7951577347703	1.2084702362772077
9.0	48.778081911441404	fix	2.0		60	attractiveness	062	1.0	1	-0.7799999999999998	1511.0036279710475	0.5167511804611422
10.0	49.29483309190255	face	0.0		147	attractiveness	126	1.0	1		1511.5203791515087	1.2334588337107562
10.0	50.5282919256133	rating	1.0		159	attractiveness	126	1.0	1		1512.7538379852194	1.3334539739298634
10.0	51.861745899543166	fix	2.0		60	attractiveness	126	1.0	1	0.41000000000000014	1514.0872919591493	0.5167466526618227
11.0	52.37849255220499	face	0.0		147	attractiveness	124	1.0	1		1514.6040386118111	1.2334461559075862
11.0	53.611938708112575	rating	1.0		378	attractiveness	124	1.0	1		1515.8374847677187	3.1586765678948723
11.0	56.77061527600745	fix	2.0		60	attractiveness	124	1.0	1	2.67	1518.9961613356136	0.5167448415304534
12.0	57.2873601175379	face	0.0		147	attractiveness	100	1.0	1		1519.512906177144	1.2334497781703249
12.0	58.520809895708226	rating	1.0		374	attractiveness	100	1.0	1		1520.7463559553144	3.12533479265403
12.0	61.646144688362256	fix	2.0		60	attractiveness	100	1.0	1	1.25	1523.8716907479684	0.5167481619864702
13.0	62.162892850348726	face	0.0		147	attractiveness	034	1.0	1		1524.3884389099549	1.2334446466411464
13.0	63.39633749698987	rating	1.0		220	attractiveness	034	1.0	1		1525.621883556596	1.8418655600980856
13.0	65.23820305708796	fix	2.0		60	attractiveness	034	1.0	1	0.16999999999999993	1527.463749116694	0.5167445397237316
14.0	65.75494759681169	face	0.0		147	attractiveness	102	1.0	1		1527.9804936564178	1.2334576263092458
14.0	66.98840522312094	rating	1.0		157	attractiveness	102	1.0	1		1529.213951282727	1.3168070836691186
14.0	68.30521230679005	fix	2.0		60	attractiveness	102	1.0	1	-0.6400000000000001	1530.5307583663962	0.5167475581984036
15.0	68.82195986498846	face	0.0		147	attractiveness	136	1.0	1		1531.0475059245946	1.2334431374329142
15.0	70.05540300242137	rating	1.0		199	attractiveness	136	1.0	1		1532.2809490620275	1.666841238271445
15.0	71.72224424069282	fix	2.0		60	attractiveness	136	1.0	1	-1.15	1533.947790300299	0.5167472563916817
16.0	72.2389914970845	face	0.0		147	attractiveness	006	1.0	1		1534.4645375566906	1.233444344776217
16.0	73.47243584186072	rating	1.0		300	attractiveness	006	1.0	1		1535.6979819014668	2.5086126202950254
16.0	75.98104846215574	fix	2.0		60	attractiveness	006	1.0	1	-1.2000000000000002	1538.2065945217619	0.5167394082527608
17.0	76.4977878704085	face	0.0		147	attractiveness	099	1.0	1		1538.7233339300146	1.2334464577725157
17.0	77.73123432818102	rating	1.0		156	attractiveness	099	1.0	1		1539.9567803877871	1.3084822801174596
17.0	79.03971660829848	fix	2.0		60	attractiveness	099	1.0	1	-0.31000000000000005	1541.2652626679046	0.5167403137893416
18.0	79.55645692208782	face	0.0		147	attractiveness	137	1.0	1		1541.782002981694	1.2334446466411464
18.0	80.78990156872896	rating	1.0		186	attractiveness	137	1.0	1		1543.015447628335	1.5585062020109035
18.0	82.34840777073987	fix	2.0		60	attractiveness	137	1.0	1	-0.31999999999999984	1544.573953830346	0.5167436341871507
19.0	82.86515140492702	face	0.0		147	attractiveness	130	1.0	1		1545.0906974645332	1.2334464577725157
19.0	84.09859786269953	rating	1.0		175	attractiveness	130	1.0	1		1546.3241439223057	1.4668234893470071
19.0	85.56542135204654	fix	2.0		60	attractiveness	130	1.0	1	-0.69	1547.7909674116527	0.5167481619282626
20.0	86.0821695139748	face	0.0		147	attractiveness	082	1.0	1		1548.307715573581	1.2334431373747066
20.0	87.31561265134951	rating	1.0		538	attractiveness	082	1.0	1		1549.5411587109556	4.492154388164636
20.0	91.80776703951415	fix	2.0		60	attractiveness	082	1.0	1	0.6399999999999997	1554.0333130991203	0.5167478600633331
21.0	92.32451489957748	face	0.0		147	attractiveness	018	1.0	1		1554.5500609591836	1.233453098568134
21.0	93.55796799814561	rating	1.0		1069	attractiveness	018	1.0	1		1555.7835140577517	8.917631263029762
21.0	102.47559926117538	fix	2.0		60	attractiveness	018	1.0	1	0.41000000000000014	1564.7011453207815	0.5167484637931921
22.0	102.99234772496857	face	0.0		147	attractiveness	030	1.0	1		1565.2178937845747	1.2334718134370632
22.0	104.22581953840563	rating	1.0		753	attractiveness	030	1.0	1		1566.4513655980118	6.284032490220852
22.0	110.50985202862648	fix	2.0		60	attractiveness	030	1.0	1	0.9199999999999999	1572.7353980882326	0.5167019784566946
23.0	111.02655400708318	face	0.0		147	attractiveness	092	1.0	1		1573.2521000666893	1.2334488725755364
23.0	112.26000287965871	rating	1.0		228	attractiveness	092	1.0	1		1574.4855489392648	1.9085394511348568
23.0	114.16854233079357	fix	2.0		60	attractiveness	092	1.0	1	-0.6699999999999999	1576.3940883903997	0.5167520860559307
24.0	114.6852944168495	face	0.0		147	attractiveness	144	1.0	1		1576.9108404764556	1.2334404207067564
24.0	115.91873483755626	rating	1.0		372	attractiveness	144	1.0	1		1578.1442808971624	3.1086694893892854
24.0	119.02740432694554	fix	2.0		60	attractiveness	144	1.0	1	1.0700000000000003	1581.2529503865517	0.5167451433953829
25.0	119.54414947034093	face	0.0		147	attractiveness	061	1.0	1		1581.769695529947	1.2334491744404659
25.0	120.77759864478139	rating	1.0		240	attractiveness	061	1.0	1		1583.0031447043875	2.000216730462853
25.0	122.77781537524424	fix	2.0		60	attractiveness	061	1.0	1	-0.4900000000000002	1585.0033614348504	0.5167548026656732
26.0	123.29457017790992	face	0.0		147	attractiveness	039	1.0	1		1585.520116237516	1.2334437411045656
26.0	124.52801391901448	rating	1.0		255	attractiveness	039	1.0	1		1586.7535599786206	2.133558173547499
26.0	126.66157209256198	fix	2.0		60	attractiveness	039	1.0	1	0.40000000000000036	1588.8871181521681	0.5167469545849599
27.0	127.17831904714694	face	0.0		147	attractiveness	066	1.0	1		1589.403865106753	1.2334449485060759
27.0	128.41176399565302	rating	1.0		346	attractiveness	066	1.0	1		1590.6373100552591	2.891980400076136
27.0	131.30374439572915	fix	2.0		60	attractiveness	066	1.0	1	0.46999999999999975	1593.5292904553353	0.5167436341289431
28.0	131.8204880298581	face	0.0		147	attractiveness	043	1.0	1		1594.0460340894642	1.233448268903885
28.0	133.05393629876198	rating	1.0		252	attractiveness	043	1.0	1		1595.279482358368	2.1085710853221826
28.0	135.16250738408417	fix	2.0		60	attractiveness	043	1.0	1	-0.8399999999999999	1597.3880534436903	0.5167363896616735
29.0	135.67924377374584	face	0.0		147	attractiveness	141	1.0	1		1597.904789833352	1.2334473633090965
29.0	136.91269113705494	rating	1.0		118	attractiveness	141	1.0	1		1599.138237196661	0.9917726950370707
29.0	137.904463832092	fix	2.0		60	attractiveness	141	1.0	1	-0.16000000000000014	1600.1300098916981	0.5167466527200304
30.0	138.42121048481204	face	0.0		147	attractiveness	070	1.0	1		1600.6467565444182	1.2334452503127977
30.0	139.65465573512483	rating	1.0		172	attractiveness	070	1.0	1		1601.880201794731	1.4418240251834504
30.0	141.09647976030828	fix	2.0		61	attractiveness	070	1.0	1	-0.3999999999999999	1603.3220258199144	0.5250805116957054
31.0	141.621560272004	face	0.0		146	attractiveness	005	1.0	1		1603.8471063316101	1.2251129006035626
31.0	142.84667317260755	rating	1.0		367	attractiveness	005	1.0	1		1605.0722192322137	3.0669992885086685
31.0	145.91367246111622	fix	2.0		60	attractiveness	005	1.0	1	-1.7200000000000002	1608.1392185207224	0.5167514823260717
32.0	146.4304239434423	face	0.0		147	attractiveness	064	1.0	1		1608.6559700030484	1.2334473633090965
32.0	147.6638713067514	rating	1.0		331	attractiveness	064	1.0	1		1609.8894173663575	2.766959232685622
32.0	150.430830539437	fix	2.0		60	attractiveness	064	1.0	1	-0.22999999999999998	1612.6563765990431	0.5167436341289431
33.0	150.94757417356595	face	0.0		147	attractiveness	101	1.0	1		1613.173120233172	1.2334485707106069
33.0	152.18102274427656	rating	1.0		332	attractiveness	101	1.0	1		1614.4065688038827	2.7753006380517036
33.0	154.95632338232826	fix	2.0		60	attractiveness	101	1.0	1	0.6799999999999997	1617.1818694419344	0.516749067523051
34.0	155.47307244985132	face	0.0		147	attractiveness	087	1.0	1		1617.6986185094574	1.2334452503127977
34.0	156.7065177001641	rating	1.0		351	attractiveness	087	1.0	1		1618.9320637597702	2.9336521102231927
34.0	159.6401698103873	fix	2.0		60	attractiveness	087	1.0	1	0.5800000000000001	1621.8657158699934	0.5167487656581216
35.0	160.15691857604543	face	0.0		147	attractiveness	117	1.0	1		1622.3824646356516	1.2334431373747066
35.0	161.39036171342013	rating	1.0		335	attractiveness	117	1.0	1		1623.6159077730263	2.8003046300727874
35.0	164.19066634349292	fix	2.0		60	attractiveness	117	1.0	1	0.41999999999999993	1626.416212403099	0.5167439359938726
36.0	164.7074102794868	face	0.0		147	attractiveness	033	1.0	1		1626.932956339093	1.2334534003748558
36.0	165.94086367986165	rating	1.0		250	attractiveness	033	1.0	1		1628.1664097394678	2.091887067130301
36.0	168.03275074699195	fix	2.0		60	attractiveness	033	1.0	1	0.9000000000000004	1630.258296806598	0.5167457471252419
37.0	168.5494964941172	face	0.0		147	attractiveness	012	1.0	1		1630.7750425537233	1.2334467596374452
37.0	169.78294325375464	rating	1.0		193	attractiveness	012	1.0	1		1632.0084893133608	1.6168435172876343
37.0	171.39978677104227	fix	2.0		60	attractiveness	012	1.0	1	0.5700000000000003	1633.6253328306484	0.5167466526618227
38.0	171.9165334237041	face	0.0		147	attractiveness	091	1.0	1		1634.1420794833102	1.2334452503710054
38.0	173.1499786740751	rating	1.0		251	attractiveness	091	1.0	1		1635.3755247336812	2.1002257558284327
38.0	175.25020442990353	fix	2.0		60	attractiveness	091	1.0	1	0.9400000000000004	1637.4757504895097	0.5167478601215407
39.0	175.76695229002507	face	0.0		147	attractiveness	042	1.0	1		1637.9924983496312	1.2334449485060759
39.0	177.00039723853115	rating	1.0		469	attractiveness	042	1.0	1		1639.2259432981373	3.9170933609711938
39.0	180.91749059950234	fix	2.0		60	attractiveness	042	1.0	1	0.75	1643.1430366591085	0.5000538807944395
40.0	181.41754448029678	cue	0.0		480						1643.643090539903	4.000433762732428
40.0	185.4179782430292	fix	1.0		120						1647.6435243026353	1.0168077779235318
40.0	186.43478602095274	face	0.0		147	trustworthiness	030	1.0	1		1648.6603320805589	1.2334479670389555
40.0	187.6682339879917	rating	1.0		470	trustworthiness	030	1.0	1		1649.8937800475978	3.925424503395334
40.0	191.59365849138703	fix	2.0		60	trustworthiness	030	1.0	1	0.16999999999999993	1653.8192045509932	0.5167412193259224
41.0	192.11039971071295	face	0.0		147	trustworthiness	061	1.0	1		1654.335945770319	1.2334461559075862
41.0	193.34384586662054	rating	1.0		104	trustworthiness	061	1.0	1		1655.5693919262267	0.8750959514873102
41.0	194.21894181810785	fix	2.0		60	trustworthiness	061	1.0	1	-0.31999999999999984	1656.444487877714	0.516752689727582
42.0	194.73569450783543	face	0.0		147	trustworthiness	062	1.0	1		1656.9612405674416	1.2334389114985242
42.0	195.96913341933396	rating	1.0		128	trustworthiness	062	1.0	1		1658.19467947894	1.0751133986050263
42.0	197.04424681793898	fix	2.0		60	trustworthiness	062	1.0	1	-0.6800000000000002	1659.2697928775451	0.5167490674648434
43.0	197.56099588540383	face	0.0		147	trustworthiness	064	1.0	1		1659.78654194501	1.2334464577725157
43.0	198.79444234317634	rating	1.0		117	trustworthiness	064	1.0	1		1661.0199884027825	0.9834370248718187
43.0	199.77787936804816	fix	2.0		60	trustworthiness	064	1.0	1	0.3099999999999996	1662.0034254276543	0.5167493693879806
44.0	200.29462873743614	face	0.0		147	trustworthiness	005	1.0	1		1662.5201747970423	1.2334446466411464
44.0	201.5280733840773	rating	1.0		220	trustworthiness	005	1.0	1		1663.7536194436834	1.8418885009014048
44.0	203.3699618849787	fix	2.0		60	trustworthiness	005	1.0	1	-0.06000000000000005	1665.5955079445848	0.5167252211249433
45.0	203.88668710610364	face	0.0		147	trustworthiness	070	1.0	1		1666.1122331657098	1.2334422318381257
45.0	205.12012933794176	rating	1.0		140	trustworthiness	070	1.0	1		1667.345675397548	1.1751278573647141
45.0	206.29525719530648	fix	2.0		60	trustworthiness	070	1.0	1	-0.8399999999999999	1668.5208032549126	0.5167439359938726
46.0	206.81200113130035	face	0.0		147	trustworthiness	082	1.0	1		1669.0375471909065	1.2334389114985242
46.0	208.04544004279887	rating	1.0		218	trustworthiness	082	1.0	1		1670.270986102405	1.825207199435681
46.0	209.87064724223455	fix	2.0		60	trustworthiness	082	1.0	1	0.5999999999999996	1672.0961933018407	0.5167460489319637
47.0	210.38739329116652	face	0.0		147	trustworthiness	137	1.0	1		1672.6129393507726	1.233490830170922
47.0	211.62088412133744	rating	1.0		395	trustworthiness	137	1.0	1		1673.8464301809436	3.3003144402755424
47.0	214.92119856161298	fix	2.0		60	trustworthiness	137	1.0	1	-0.18999999999999995	1677.146744621219	0.5167454452603124
48.0	215.4379440068733	face	0.0		147	trustworthiness	011	1.0	1		1677.6634900664794	1.2334461559075862
48.0	216.67139016278088	rating	1.0		332	trustworthiness	011	1.0	1		1678.896936222387	2.7753033547196537
48.0	219.44669351750053	fix	2.0		60	trustworthiness	011	1.0	1	0.41000000000000014	1681.6722395771067	0.5167439359938726
49.0	219.9634374534944	face	0.0		147	trustworthiness	124	1.0	1		1682.1889835131005	1.233447665174026
49.0	221.19688511866843	rating	1.0		790	trustworthiness	124	1.0	1		1683.4224311782746	6.592381955124438
49.0	227.78926707379287	fix	2.0		60	trustworthiness	124	1.0	1	0.6600000000000001	1690.014813133399	0.5167502748663537
50.0	228.30601734865922	face	0.0		147	trustworthiness	066	1.0	1		1690.5315634082654	1.2334449485060759
50.0	229.5394622971653	rating	1.0		219	trustworthiness	066	1.0	1		1691.7650083567714	1.8335295881261118
50.0	231.3729918852914	fix	2.0		60	trustworthiness	066	1.0	1	-0.18000000000000016	1693.5985379448975	0.5167457471252419
51.0	231.88973763241665	face	0.0		147	trustworthiness	034	1.0	1		1694.1152836920228	1.2334473633090965
51.0	233.12318499572575	rating	1.0		146	trustworthiness	034	1.0	1		1695.3487310553319	1.2251322191441432
51.0	234.3483172148699	fix	2.0		60	trustworthiness	034	1.0	1	0.6500000000000004	1696.573863274476	0.5167478600633331
52.0	234.86506507493323	face	0.0		147	trustworthiness	033	1.0	1		1697.0906111345394	1.2334431374329142
52.0	236.09850821236614	rating	1.0		133	trustworthiness	033	1.0	1		1698.3240542719723	1.116788730956614
52.0	237.21529694332276	fix	2.0		60	trustworthiness	033	1.0	1	-0.52	1699.440843002929	0.5167499730596319
53.0	237.7320469163824	face	0.0		147	trustworthiness	039	1.0	1		1699.9575929759885	1.2334419299731962
53.0	238.96548884635558	rating	1.0		164	trustworthiness	039	1.0	1		1701.1910349059617	1.375147417478729
53.0	240.3406362638343	fix	2.0		60	trustworthiness	039	1.0	1	0.9400000000000004	1702.5661823234404	0.5167481619282626
54.0	240.85738442576258	face	0.0		147	trustworthiness	036	1.0	1		1703.0829304853687	1.233447061444167
54.0	242.09083148720674	rating	1.0		253	trustworthiness	036	1.0	1		1704.3163775468129	2.116905548144132
54.0	244.20773703535087	fix	2.0		60	trustworthiness	036	1.0	1	0.8799999999999999	1706.433283094957	0.5167348803952336
55.0	244.7244719157461	face	0.0		147	trustworthiness	091	1.0	1		1706.9500179753522	1.2334461559075862
55.0	245.9579180716537	rating	1.0		326	trustworthiness	091	1.0	1		1708.1834641312598	2.725295974407345
55.0	248.68321404606104	fix	2.0		60	trustworthiness	091	1.0	1	0.7800000000000002	1710.9087601056672	0.5167457471252419
56.0	249.19995979318628	face	0.0		147	trustworthiness	087	1.0	1		1711.4255058527924	1.2334452503127977
56.0	250.43340504349908	rating	1.0		530	trustworthiness	087	1.0	1		1712.6589511031052	4.425488345324993
56.0	254.85889338882407	fix	2.0		60	trustworthiness	087	1.0	1	0.5700000000000003	1717.0844394484302	0.5167397100594826
57.0	255.37563309888355	face	0.0		147	trustworthiness	006	1.0	1		1717.6011791584897	1.2334446466411464
57.0	256.6090777455247	rating	1.0		191	trustworthiness	006	1.0	1		1718.8346238051308	1.6001748936250806
57.0	258.2092526391498	fix	2.0		60	trustworthiness	006	1.0	1	-0.6800000000000002	1720.434798698756	0.5167554063955322
58.0	258.7260080455453	face	0.0		147	trustworthiness	121	1.0	1		1720.9515541051514	1.233437100367155
58.0	259.95944514591247	rating	1.0		691	trustworthiness	121	1.0	1		1722.1849912055186	5.767293685756158
58.0	265.7267388316686	fix	2.0		60	trustworthiness	121	1.0	1	-0.18000000000000016	1727.9522848912748	0.5167424267274328
59.0	266.24348125839606	face	0.0		147	trustworthiness	038	1.0	1		1728.4690273180022	1.2334500799770467
59.0	267.4769313383731	rating	1.0		258	trustworthiness	038	1.0	1		1729.7024773979792	2.158620423229877
59.0	269.635551761603	fix	2.0		60	trustworthiness	038	1.0	1	0.5800000000000001	1731.8610978212091	0.516692922799848
60.0	270.15224468440283	face	0.0		147	trustworthiness	018	1.0	1		1732.377790744009	1.2334455522359349
60.0	271.38569023663877	rating	1.0		244	trustworthiness	018	1.0	1		1733.611236296245	2.0418878368800506
60.0	273.4275780735188	fix	2.0		60	trustworthiness	018	1.0	1	0.7400000000000002	1735.653124133125	0.5167478600633331
61.0	273.94432593358215	face	0.0		147	trustworthiness	024	1.0	1		1736.1698719931883	1.2334455522359349
61.0	275.1777714858181	rating	1.0		267	trustworthiness	024	1.0	1		1737.4033175454242	2.2335741415736265
61.0	277.4113456273917	fix	2.0		60	trustworthiness	024	1.0	1	0.11000000000000032	1739.6368916869978	0.5167463507968932
62.0	277.9280919781886	face	0.0		147	trustworthiness	117	1.0	1		1740.1536380377947	1.2334461559657939
62.0	279.1615381341544	rating	1.0		130	trustworthiness	117	1.0	1		1741.3870841937605	1.0917859463370405
62.0	280.25332408049144	fix	2.0		60	trustworthiness	117	1.0	1	0.2400000000000002	1742.4788701400976	0.5167457471252419
63.0	280.7700698276167	face	0.0		147	trustworthiness	009	1.0	1		1742.9956158872228	1.2334458541008644
63.0	282.00351568171754	rating	1.0		217	trustworthiness	009	1.0	1		1744.2290617413237	1.8168694162741303
63.0	283.8203850979917	fix	2.0		60	trustworthiness	009	1.0	1	0.7999999999999998	1746.0459311575978	0.5167357859900221
64.0	284.3371208839817	face	0.0		147	trustworthiness	099	1.0	1		1746.5626669435878	1.2334500799770467
64.0	285.57057096395874	rating	1.0		163	trustworthiness	099	1.0	1		1747.7961170235649	1.366814765788149
64.0	286.9373857297469	fix	2.0		60	trustworthiness	099	1.0	1	0.2599999999999998	1749.162931789353	0.5167448415886611
65.0	287.45413057133555	face	0.0		147	trustworthiness	144	1.0	1		1749.6796766309417	1.2334455521777272
65.0	288.6875761235133	rating	1.0		198	trustworthiness	144	1.0	1		1750.9131221831194	1.6585143218981102
65.0	290.3460904454114	fix	2.0		60	trustworthiness	144	1.0	1	0.8200000000000003	1752.5716365050175	0.5167442378588021
66.0	290.8628346832702	face	0.0		147	trustworthiness	141	1.0	1		1753.0883807428763	1.2334488725755364
66.0	292.09628355584573	rating	1.0		469	trustworthiness	141	1.0	1		1754.3218296154519	3.9170885313651524
66.0	296.0133720872109	fix	2.0		60	trustworthiness	141	1.0	1	0.34999999999999964	1758.238918146817	0.5167484637931921
67.0	296.5301205510041	face	0.0		147	trustworthiness	130	1.0	1		1758.7556666106102	1.2334452503710054
67.0	297.7635658013751	rating	1.0		383	trustworthiness	130	1.0	1		1759.9891118609812	3.2003488816553727
67.0	300.96391468303045	fix	2.0		60	trustworthiness	130	1.0	1	0.40000000000000036	1763.1894607426366	0.5167442378588021
68.0	301.48065892088925	face	0.0		147	trustworthiness	101	1.0	1		1763.7062049804954	1.2334491744404659
68.0	302.7141080953297	rating	1.0		188	trustworthiness	101	1.0	1		1764.9396541549359	1.5751675812643953
68.0	304.2892756765941	fix	2.0		60	trustworthiness	101	1.0	1	-0.3799999999999999	1766.5148217362002	0.5167448415304534
69.0	304.80602051812457	face	0.0		147	trustworthiness	102	1.0	1		1767.0315665777307	1.2334624559734948
69.0	306.03948297409806	rating	1.0		242	trustworthiness	102	1.0	1		1768.2650290337042	2.0252047242829576
69.0	308.064687698381	fix	2.0		60	trustworthiness	102	1.0	1	0.5099999999999998	1770.2902337579872	0.5167466526618227
70.0	308.58143435104284	face	0.0		147	trustworthiness	012	1.0	1		1770.806980410649	1.2334458540426567
70.0	309.8148802050855	rating	1.0		248	trustworthiness	012	1.0	1		1772.0404262646916	2.075225687935017
70.0	311.8901058930205	fix	2.0		60	trustworthiness	012	1.0	1	0.1900000000000004	1774.1156519526266	0.5167448415886611
71.0	312.4068507346092	face	0.0		147	trustworthiness	042	1.0	1		1774.6323967942153	1.2334534003748558
71.0	313.64030413498404	rating	1.0		178	trustworthiness	042	1.0	1		1775.8658501945902	1.491823255433701
71.0	315.13212739041774	fix	2.0		60	trustworthiness	042	1.0	1	-0.3500000000000001	1777.3576734500239	0.5167412193259224
72.0	315.64886860974366	face	0.0		147	trustworthiness	126	1.0	1		1777.8744146693498	1.2334488725755364
72.0	316.8823174823192	rating	1.0		184	trustworthiness	126	1.0	1		1779.1078635419253	1.54183184314752
72.0	318.4241493254667	fix	2.0		60	trustworthiness	126	1.0	1	0.5099999999999998	1780.6496953850728	0.5167460489319637
73.0	318.9408953743987	face	0.0		147	trustworthiness	092	1.0	1		1781.1664414340048	1.2334464577725157
73.0	320.1743418321712	rating	1.0		262	trustworthiness	092	1.0	1		1782.3998878917773	2.1919051481527276
73.0	322.3662469803239	fix	2.0		60	trustworthiness	092	1.0	1	0.1900000000000004	1784.59179303993	0.5167472563916817
74.0	322.8829942367156	face	0.0		147	trustworthiness	043	1.0	1		1785.1085402963217	1.2334461559075862
74.0	324.1164403926232	rating	1.0		152	trustworthiness	043	1.0	1		1786.3419864522293	1.275134467985481
74.0	325.39157486060867	fix	2.0		60	trustworthiness	043	1.0	1	0.15000000000000036	1787.6171209202148	0.5167466526618227
75.0	325.9083215132705	face	0.0		147	trustworthiness	027	1.0	1		1788.1338675728766	1.2334473633090965
75.0	327.1417688765796	rating	1.0		133	trustworthiness	027	1.0	1		1789.3673149361857	1.1167863161535934
75.0	328.2585551927332	fix	2.0		60	trustworthiness	027	1.0	1	0.6699999999999999	1790.4841012523393	0.5167708009248599
76.0	328.77532599365804	face	0.0		147	trustworthiness	172	1.0	1		1791.0008720532642	1.2334211021079682
76.0	330.008747095766	rating	1.0		169	trustworthiness	172	1.0	1		1792.2342931553721	1.4168221461004578
76.0	331.42556924186647	fix	2.0		60	trustworthiness	172	1.0	1	0.3799999999999999	1793.6511153014726	0.516792232519947
77.0	331.9423614743864	face	0.0		147	trustworthiness	100	1.0	1		1794.1679075339925	1.23339755757479
77.0	333.1757590319612	rating	1.0		411	trustworthiness	100	1.0	1		1795.4013050915673	3.4337075002258644
77.0	336.60946653218707	fix	2.0		60	trustworthiness	100	1.0	1	0.41999999999999993	1798.8350125917932	0.5167424267274328
78.0	337.1262089589145	face	0.0		147	trustworthiness	136	1.0	1		1799.3517550185206	1.2334564189077355
78.0	338.35966537782224	rating	1.0		293	trustworthiness	136	1.0	1		1800.5852114374284	2.4502584012807347
78.0	340.809923779103	fix	2.0		60	trustworthiness	136	1.0	1	0.41999999999999993	1803.035469838709	0.5167460489319637
79.0	341.32666982803494	face	0.0		147	trustworthiness	044	1.0	1		1803.552215887641	1.2334458541008644
79.0	342.5601156821358	rating	1.0		385	trustworthiness	044	1.0	1		1804.785661741742	3.217016297916416
79.0	345.7771319800522	fix	2.0		60	trustworthiness	044	1.0	1	0.75	1808.0026780396583	0.5000575029989704
80.0	346.2771894830512	cue	0.0		480						1808.5027355426573	4.000434064597357
80.0	350.27762354764855	fix	1.0		120						1812.5031696072547	1.0167987223248929
80.0	351.29442226997344	face	0.0		147	dominance	012	1.0	1		1813.5199683295796	1.2334464577725157
80.0	352.52786872774595	rating	1.0		384	dominance	012	1.0	1		1814.753414787352	3.2086797222145833
80.0	355.73654844996054	fix	2.0		60	dominance	012	1.0	1	1.37	1817.9620945095667	0.5167493693297729
81.0	356.2532978192903	face	0.0		147	dominance	082	1.0	1		1818.4788438788964	1.2334428355679847
81.0	357.4867406548583	rating	1.0		151	dominance	082	1.0	1		1819.7122867144644	1.2668114755651914
81.0	358.7535521304235	fix	2.0		60	dominance	082	1.0	1	0.7199999999999998	1820.9790981900296	0.5167451434535906
82.0	359.2702972738771	face	0.0		147	dominance	136	1.0	1		1821.4958433334832	1.2334473633090965
82.0	360.5037446371862	rating	1.0		272	dominance	136	1.0	1		1822.7292906967923	2.2752386072534136
82.0	362.7789832444396	fix	2.0		60	dominance	136	1.0	1	-0.2200000000000002	1825.0045293040457	0.5167469545267522
83.0	363.29573019896634	face	0.0		147	dominance	062	1.0	1		1825.5212762585725	1.2334479670389555
83.0	364.5291781660053	rating	1.0		162	dominance	062	1.0	1		1826.7547242256114	1.3584784918930382
83.0	365.88765665789833	fix	2.0		60	dominance	062	1.0	1	0.5899999999999999	1828.1132027175045	0.5167732157278806
84.0	366.4044298736262	face	0.0		147	dominance	172	1.0	1		1828.6299759332323	1.233419592899736
84.0	367.63784946652595	rating	1.0		394	dominance	172	1.0	1		1829.863395526132	3.2920306887826882
84.0	370.92988015530864	fix	2.0		60	dominance	172	1.0	1	-1.44	1833.1554262149148	0.5167433322640136
85.0	371.44662348757265	face	0.0		147	dominance	070	1.0	1		1833.6721695471788	1.233439213305246
85.0	372.6800627008779	rating	1.0		171	dominance	070	1.0	1		1834.905608760484	1.4334907698212191
85.0	374.1135534706991	fix	2.0		60	dominance	070	1.0	1	1.38	1836.3390995303052	0.5167686879285611
86.0	374.6303221586277	face	0.0		147	dominance	006	1.0	1		1836.8558682182338	1.2334223095094785
86.0	375.86374446813716	rating	1.0		210	dominance	006	1.0	1		1838.0892905277433	1.758524554723408
86.0	377.62226902286056	fix	2.0		60	dominance	006	1.0	1	-1.88	1839.8478150824667	0.5167457470670342
87.0	378.1390147699276	face	0.0		147	dominance	030	1.0	1		1840.3645608295337	1.2334470615023747
87.0	379.37246183143	rating	1.0		204	dominance	030	1.0	1		1841.598007891036	1.7085177780827507
87.0	381.0809796095127	fix	2.0		60	dominance	030	1.0	1	0.9000000000000004	1843.3065256691189	0.5167469545267522
88.0	381.5977265640395	face	0.0		147	dominance	066	1.0	1		1843.8232726236456	1.233444042969495
88.0	382.83117060700897	rating	1.0		256	dominance	066	1.0	1		1845.056716666615	2.1418968622456305
88.0	384.9730674692546	fix	2.0		60	dominance	066	1.0	1	1.54	1847.1986135288607	0.5167475582566112
89.0	385.4898150275112	face	0.0		147	dominance	009	1.0	1		1847.7153610871173	1.2334458540426567
89.0	386.72326088155387	rating	1.0		238	dominance	009	1.0	1		1848.94880694116	1.9918834751006216
89.0	388.7151443566545	fix	2.0		60	dominance	009	1.0	1	-0.33000000000000007	1850.9406904162606	0.5167466526618227
90.0	389.2318910093163	face	0.0		147	dominance	024	1.0	1		1851.4574370689224	1.2334452503710054
90.0	390.4653362596873	rating	1.0		472	dominance	024	1.0	1		1852.6908823192935	3.9420937307877466
90.0	394.40742999047507	fix	2.0		60	dominance	024	1.0	1	-0.18000000000000016	1856.6329760500812	0.5167448415304534
91.0	394.9241748320055	face	0.0		147	dominance	044	1.0	1		1857.1497208916117	1.233447665174026
91.0	396.15762249717955	rating	1.0		688	dominance	044	1.0	1		1858.3831685567857	5.742289693793282
91.0	401.8999121909728	fix	2.0		60	dominance	044	1.0	1	0.3700000000000001	1864.125458250579	0.5167454452603124
92.0	402.41665763623314	face	0.0		147	dominance	039	1.0	1		1864.6422036958393	1.2334893209044822
92.0	403.6501469571376	rating	1.0		250	dominance	039	1.0	1		1865.8756930167438	2.091851750330534
92.0	405.74199870746816	fix	2.0		60	dominance	039	1.0	1	-1.02	1867.9675447670743	0.5167487655999139
93.0	406.25874747306807	face	0.0		147	dominance	092	1.0	1		1868.4842935326742	1.2334506837651134
93.0	407.4921981568332	rating	1.0		242	dominance	092	1.0	1		1869.7177442164393	2.0252098556957208
93.0	409.5174080125289	fix	2.0		60	dominance	092	1.0	1	-2.25	1871.742954072135	0.5167472563916817
94.0	410.0341552689206	face	0.0		147	dominance	011	1.0	1		1872.2597013285267	1.233447665174026
94.0	411.2676029340946	rating	1.0		275	dominance	011	1.0	1		1873.4931489937007	2.300248032610398
94.0	413.567850966705	fix	2.0		60	dominance	011	1.0	1	0.4299999999999997	1875.7933970263111	0.516753293457441
95.0	414.08460426016245	face	0.0		147	dominance	018	1.0	1		1876.3101503197686	1.2334404207067564
95.0	415.3180446808692	rating	1.0		240	dominance	018	1.0	1		1877.5435907404753	2.008548174693715
95.0	417.3265928555629	fix	2.0		60	dominance	018	1.0	1	-2.49	1879.552138915169	0.5167460489319637
96.0	417.8433389044949	face	0.0		147	dominance	121	1.0	1		1880.068884964101	1.233448268903885
96.0	419.07678717339877	rating	1.0		226	dominance	121	1.0	1		1881.302333233005	1.8918747515417635
96.0	420.96866192494053	fix	2.0		60	dominance	121	1.0	1	0.5599999999999996	1883.1942079845467	0.5167400119244121
97.0	421.48540193686495	face	0.0		147	dominance	043	1.0	1		1883.710947996471	1.2334461559075862
97.0	422.71884809277253	rating	1.0		200	dominance	043	1.0	1		1884.9443941523787	1.6751995474332944
97.0	424.3940476402058	fix	2.0		60	dominance	043	1.0	1	-0.22999999999999998	1886.619593699812	0.5167291452526115
98.0	424.91077678545844	face	0.0		147	dominance	027	1.0	1		1887.1363228450646	1.2334461559075862
98.0	426.144222941366	rating	1.0		328	dominance	027	1.0	1		1888.3697690009722	2.741963088803459
98.0	428.8861860301695	fix	2.0		60	dominance	027	1.0	1	0.28000000000000025	1891.1117320897756	0.5167442378588021
99.0	429.4029302680283	face	0.0		147	dominance	101	1.0	1		1891.6284763276344	1.2334473633090965
99.0	430.6363776313374	rating	1.0		445	dominance	101	1.0	1		1892.8619236909435	3.717070480575785
99.0	434.35344811191317	fix	2.0		60	dominance	101	1.0	1	1.6799999999999997	1896.5789941715193	0.5167448415304534
100.0	434.8701929534436	face	0.0		147	dominance	034	1.0	1		1897.0957390130498	1.233448268903885
100.0	436.1036412223475	rating	1.0		215	dominance	034	1.0	1		1898.3291872819536	1.8001944536808878
100.0	437.9038356760284	fix	2.0		60	dominance	034	1.0	1	0.8600000000000003	1900.1293817356345	0.5167469545267522
101.0	438.42058263055515	face	0.0		147	dominance	124	1.0	1		1900.6461286901613	1.233444042969495
101.0	439.65402667352464	rating	1.0		283	dominance	124	1.0	1		1901.8795727331308	2.36693248845404
101.0	442.0209591619787	fix	2.0		60	dominance	124	1.0	1	1.3200000000000003	1904.2465052215848	0.5167375971213914
102.0	442.5376967591001	face	0.0		147	dominance	130	1.0	1		1904.7632428187062	1.233443439239636
102.0	443.7711401983397	rating	1.0		230	dominance	130	1.0	1		1905.9966862579458	1.9252107914653607
102.0	445.69635098980507	fix	2.0		60	dominance	130	1.0	1	-1.6800000000000002	1907.9218970494112	0.5167430304572918
103.0	446.21309402026236	face	0.0		147	dominance	117	1.0	1		1908.4386400798685	1.2334467595792376
103.0	447.4465407798416	rating	1.0		117	dominance	117	1.0	1		1909.6720868394477	0.9834406471345574
103.0	448.42998142697616	fix	2.0		60	dominance	117	1.0	1	0.46999999999999975	1910.6555274865823	0.5167475582566112
104.0	448.94672898523277	face	0.0		147	dominance	137	1.0	1		1911.172275044839	1.2334479669807479
104.0	450.1801769522135	rating	1.0		497	dominance	137	1.0	1		1912.4057230118196	4.1504483573371544
104.0	454.33062530955067	fix	2.0		60	dominance	137	1.0	1	0.5999999999999996	1916.5561713691568	0.5167424267274328
105.0	454.8473677362781	face	0.0		147	dominance	033	1.0	1		1917.0729137958842	1.233448268903885
105.0	456.080816005182	rating	1.0		450	dominance	033	1.0	1		1918.3063620647881	3.7587403795914724
105.0	459.83955638477346	fix	2.0		60	dominance	033	1.0	1	2.5599999999999996	1922.0651024443796	0.5167457471252419
106.0	460.3563021318987	face	0.0		147	dominance	091	1.0	1		1922.5818481915048	1.2334491744404659
106.0	461.58975130633917	rating	1.0		305	dominance	091	1.0	1		1923.8152973659453	2.5502764822449535
106.0	464.1400277885841	fix	2.0		60	dominance	091	1.0	1	-0.3700000000000001	1926.3655738481903	0.5167427285923623
107.0	464.6567705171765	face	0.0		147	dominance	036	1.0	1		1926.8823165767826	1.2334494763053954
107.0	465.8902199934819	rating	1.0		806	dominance	036	1.0	1		1928.115766053088	6.7257306426763535
107.0	472.61595063615823	fix	2.0		60	dominance	036	1.0	1	0.5199999999999996	1934.8414966957644	0.5167430304572918
108.0	473.1326936666155	face	0.0		147	dominance	005	1.0	1		1935.3582397262217	1.2334482688456774
108.0	474.3661419354612	rating	1.0		211	dominance	005	1.0	1		1936.5916879950673	1.7668563008191995
108.0	476.1329982362804	fix	2.0		60	dominance	005	1.0	1	-2.46	1938.3585442958865	0.5167445396655239
109.0	476.6497427759459	face	0.0		147	dominance	141	1.0	1		1938.875288835552	1.2334479670389555
109.0	477.8831907429849	rating	1.0		246	dominance	141	1.0	1		1940.108736802591	2.058555253141094
109.0	479.941745996126	fix	2.0		60	dominance	141	1.0	1	-0.8500000000000001	1942.167292055732	0.5167478601215407
110.0	480.4584938562475	face	0.0		147	dominance	038	1.0	1		1942.6840399158536	1.233446457714308
110.0	481.6919403139618	rating	1.0		349	dominance	038	1.0	1		1943.917486373568	2.9586594226420857
110.0	484.6505997366039	fix	2.0		60	dominance	038	1.0	1	-0.8700000000000001	1946.87614579621	0.5167982695274986
111.0	485.1673980061314	face	0.0		147	dominance	042	1.0	1		1947.3929440657375	1.2333866908447817
111.0	486.4007846969762	rating	1.0		308	dominance	042	1.0	1		1948.6263307565823	2.5752804742660373
111.0	488.9760651712422	fix	2.0		60	dominance	042	1.0	1	0.9900000000000002	1951.2016112308484	0.5167463508551009
112.0	489.4928115220973	face	0.0		147	dominance	061	1.0	1		1951.7183575817035	1.2334452503127977
112.0	490.7262567724101	rating	1.0		439	dominance	061	1.0	1		1952.9518028320163	3.667064005858265
112.0	494.3933207782684	fix	2.0		60	dominance	061	1.0	1	0.5599999999999996	1956.6188668378745	0.5167424267274328
113.0	494.9100632049958	face	0.0		147	dominance	102	1.0	1		1957.135609264602	1.2334585318458267
113.0	496.14352173684165	rating	1.0		343	dominance	102	1.0	1		1958.3690677964478	2.86696795624448
113.0	499.01048969308613	fix	2.0		60	dominance	102	1.0	1	-1.0299999999999998	1961.2360357526923	0.5167460489319637
114.0	499.5272357420181	face	0.0		147	dominance	064	1.0	1		1961.7527818016242	1.2334467596374452
114.0	500.76068250165554	rating	1.0		609	dominance	064	1.0	1		1962.9862285612617	5.083883737097494
114.0	505.84456623875303	fix	2.0		60	dominance	064	1.0	1	0.6900000000000004	1968.0701122983592	0.5167436341289431
115.0	506.361309872882	face	0.0		147	dominance	099	1.0	1		1968.586855932488	1.233457324502524
115.0	507.5947671973845	rating	1.0		326	dominance	099	1.0	1		1969.8203132569906	2.7252881262102164
115.0	510.3200553235947	fix	2.0		60	dominance	099	1.0	1	1.2199999999999998	1972.5456013832008	0.5167460489901714
116.0	510.8368013725849	face	0.0		147	dominance	144	1.0	1		1973.062347432191	1.233444344776217
116.0	512.0702457173611	rating	1.0		328	dominance	144	1.0	1		1974.2957917769672	2.741963692533318
116.0	514.8122094098944	fix	2.0		60	dominance	144	1.0	1	0.3799999999999999	1977.0377554695006	0.5167457471252419
117.0	515.3289551570197	face	0.0		147	dominance	126	1.0	1		1977.5545012166258	1.2334473633090965
117.0	516.5624025203288	rating	1.0		255	dominance	126	1.0	1		1978.787948579935	2.133562399481889
117.0	518.6959649198106	fix	2.0		60	dominance	126	1.0	1	1.04	1980.9215109794168	0.5167554064537399
118.0	519.2127203262644	face	0.0		147	dominance	100	1.0	1		1981.4382663858705	1.2334841893753037
118.0	520.4462045156397	rating	1.0		292	dominance	100	1.0	1		1982.6717505752458	2.4418868105858564
118.0	522.8880913262255	fix	2.0		60	dominance	100	1.0	1	0.3099999999999996	1985.1136373858317	0.5167472563916817
119.0	523.4048385826172	face	0.0		147	dominance	087	1.0	1		1985.6303846422234	1.2334449485060759
119.0	524.6382835311233	rating	1.0		366	dominance	087	1.0	1		1986.8638295907294	3.058663920208346
119.0	527.6969474513317	fix	2.0		60	dominance	087	1.0	1	1.1100000000000003	1989.9224935109378	0.5000650492729619
120.0	528.1970125006046	cue	0.0		3600						1990.4225585602107	30.003255786316004
120.0	558.2002682869206	fix	1.0		120						2020.4258143465267	1.0001195337972604
120.0	559.2003878207179	cue	0.0		480						2021.425933880324	4.000425914535299
120.0	563.2008137352532	fix	1.0		120						2025.4263597948593	1.0168008353211917
120.0	564.2176145705744	face	0.0		147	dominance	102	2.0	1		2026.4431606301805	1.2334449485060759
120.0	565.4510595190804	rating	1.0		306	dominance	102	2.0	1		2027.6766055786866	2.558610341278836
120.0	568.0096698603593	fix	2.0		60	dominance	102	2.0	1	-1.65	2030.2352159199654	0.5167418229975738
121.0	568.5264116833569	face	0.0		147	dominance	066	2.0	1		2030.751957742963	1.2334518911666237
121.0	569.7598635745235	rating	1.0		333	dominance	066	2.0	1		2031.9854096341296	2.7836598527501337
121.0	572.5435234272736	fix	2.0		60	dominance	066	2.0	1	1.7400000000000002	2034.7690694868797	0.5167523878626525
122.0	573.0602758151363	face	0.0		147	dominance	101	2.0	1		2035.2858218747424	1.233414159505628
122.0	574.2936899746419	rating	1.0		208	dominance	101	2.0	1		2036.519236034248	1.7418514032033272
122.0	576.0355413778452	fix	2.0		60	dominance	101	2.0	1	1.6900000000000004	2038.2610874374514	0.5167475582566112
123.0	576.5522889361018	face	0.0		147	dominance	137	2.0	1		2038.777834995708	1.233447665174026
123.0	577.7857366012759	rating	1.0		98	dominance	137	2.0	1		2040.011282660882	0.8250849489704706
123.0	578.6108215502463	fix	2.0		60	dominance	137	2.0	1	0.45999999999999996	2040.8363676098525	0.5167484637931921
124.0	579.1275700140395	face	0.0		147	dominance	130	2.0	1		2041.3531160736457	1.2334461559075862
124.0	580.3610161699471	rating	1.0		351	dominance	130	2.0	1		2042.5865622295532	2.933656939829234
124.0	583.2946731097763	fix	2.0		60	dominance	130	2.0	1	-2.3	2045.5202191693825	0.5167412193259224
125.0	583.8114143291023	face	0.0		147	dominance	009	2.0	1		2046.0369603887084	1.233444646699354
125.0	585.0448589758016	rating	1.0		215	dominance	009	2.0	1		2047.2704050354077	1.8001938499510288
125.0	586.8450528257526	fix	2.0		60	dominance	009	2.0	1	0.6200000000000001	2049.070598885359	0.5167466526618227
126.0	587.3617994784145	face	0.0		147	dominance	100	2.0	1		2049.5873455380206	1.233448268903885
126.0	588.5952477473184	rating	1.0		300	dominance	100	2.0	1		2050.8207938069245	2.508602357294876
126.0	591.1038501046132	fix	2.0		60	dominance	100	2.0	1	0.3799999999999999	2053.3293961642194	0.5167475582566112
127.0	591.6205976628698	face	0.0		147	dominance	070	2.0	1		2053.846143722476	1.2334446466411464
127.0	592.854042309511	rating	1.0		145	dominance	070	2.0	1		2055.079588369117	1.2167929267161526
127.0	594.0708352362271	fix	2.0		60	dominance	070	2.0	1	1.1799999999999997	2056.2963812958333	0.5167526897857897
128.0	594.5875879260129	face	0.0		147	dominance	024	2.0	1		2056.813133985619	1.233440118841827
128.0	595.8210280448548	rating	1.0		304	dominance	024	2.0	1		2058.046574104461	2.541953791747801
128.0	598.3629818366026	fix	2.0		61	dominance	024	2.0	1	0.23000000000000043	2060.5885278962087	0.5250720598269254
129.0	598.8880538964295	face	0.0		146	dominance	036	2.0	1		2061.1135999560356	1.225113504275214
129.0	600.1131674007047	rating	1.0		249	dominance	036	2.0	1		2062.338713460311	2.0835649803630076
129.0	602.1967323810677	fix	2.0		60	dominance	036	2.0	1	-0.18000000000000016	2064.422278440674	0.5167457471252419
130.0	602.713478128193	face	0.0		147	dominance	141	2.0	1		2064.939024187799	1.2334383077104576
130.0	603.9469164359034	rating	1.0		251	dominance	141	2.0	1		2066.1724624955095	2.1002260576933622
130.0	606.0471424935968	fix	2.0		60	dominance	141	2.0	1	-2.2199999999999998	2068.272688553203	0.5167463508551009
131.0	606.5638888444519	face	0.0		147	dominance	030	2.0	1		2068.789434904058	1.2334479670389555
131.0	607.7973368114908	rating	1.0		173	dominance	030	2.0	1		2070.022882871097	1.4501560730859637
131.0	609.2474928845768	fix	2.0		60	dominance	030	2.0	1	0.9400000000000004	2071.473038944183	0.5167481619282626
132.0	609.764241046505	face	0.0		147	dominance	044	2.0	1		2071.989787106111	1.233443439239636
132.0	610.9976844857447	rating	1.0		104	dominance	044	2.0	1		2073.223230545351	0.8750950459507294
132.0	611.8727795316954	fix	2.0		60	dominance	044	2.0	1	0.29000000000000004	2074.0983255913015	0.5167433323222212
133.0	612.3895228640176	face	0.0		147	dominance	027	2.0	1		2074.6150689236238	1.233447061444167
133.0	613.6229699254618	rating	1.0		623	dominance	027	2.0	1		2075.848515985068	5.200615417852532
133.0	618.8235853433143	fix	2.0		60	dominance	027	2.0	1	0.1200000000000001	2081.0491314029205	0.5166938283946365
134.0	619.340279171709	face	0.0		147	dominance	034	2.0	1		2081.565825231315	1.2334467596374452
134.0	620.5737259313464	rating	1.0		220	dominance	034	2.0	1		2082.7992719909525	1.8418649564264342
134.0	622.4155908877729	fix	2.0		60	dominance	034	2.0	1	0.5700000000000003	2084.641136947379	0.5167475582566112
135.0	622.9323384460295	face	0.0		147	dominance	136	2.0	1		2085.1578845056356	1.2334458540426567
135.0	624.1657843000721	rating	1.0		145	dominance	136	2.0	1		2086.3913303596782	1.216797454515472
135.0	625.3825817545876	fix	2.0		60	dominance	136	2.0	1	-0.8900000000000001	2087.6081278141937	0.5167451434535906
136.0	625.8993268980412	face	0.0		147	dominance	091	2.0	1		2088.1248729576473	1.233447061444167
136.0	627.1327739594853	rating	1.0		330	dominance	091	2.0	1		2089.3583200190915	2.7586317125242203
136.0	629.8914056720096	fix	2.0		60	dominance	091	2.0	1	-0.5299999999999998	2092.1169517316157	0.5167442378005944
137.0	630.4081499098102	face	0.0		147	dominance	117	2.0	1		2092.6336959694163	1.233448872633744
137.0	631.6415987824439	rating	1.0		256	dominance	117	2.0	1		2093.86714484205	2.1418974659754895
137.0	633.7834962484194	fix	2.0		60	dominance	117	2.0	1	0.8899999999999997	2096.0090423080255	0.5167436341289431
138.0	634.3002398825483	face	0.0		147	dominance	061	2.0	1		2096.5257859421545	1.2334543059696443
138.0	635.533694188518	rating	1.0		281	dominance	061	2.0	1		2097.759240248124	2.3502472628606483
138.0	637.8839414513786	fix	2.0		60	dominance	061	2.0	1	0.2400000000000002	2100.1094875109848	0.5167463507968932
139.0	638.4006878021755	face	0.0		147	dominance	172	2.0	1		2100.6262338617817	1.2334534004330635
139.0	639.6341412026086	rating	1.0		427	dominance	172	2.0	1		2101.8596872622147	3.567045622912701
139.0	643.2011868255213	fix	2.0		60	dominance	172	2.0	1	-1.7999999999999998	2105.4267328851274	0.5167469545849599
140.0	643.7179337801063	face	0.0		147	dominance	042	2.0	1		2105.9434798397124	1.2334458540426567
140.0	644.9513796341489	rating	1.0		392	dominance	042	2.0	1		2107.176925693755	3.2753530095214956
140.0	648.2267326436704	fix	2.0		60	dominance	042	2.0	1	1.0999999999999996	2110.4522787032765	0.5167445397237316
141.0	648.7434771833941	face	0.0		147	dominance	038	2.0	1		2110.9690232430003	1.2334491744404659
141.0	649.9769263578346	rating	1.0		166	dominance	038	2.0	1		2112.2024724174407	1.3918154374114238
141.0	651.368741795246	fix	2.0		60	dominance	038	2.0	1	-0.9300000000000002	2113.594287854852	0.5167460489901714
142.0	651.8854878442362	face	0.0		147	dominance	144	2.0	1		2114.1110339038423	1.2334485707106069
142.0	653.1189364149468	rating	1.0		183	dominance	144	2.0	1		2115.344482474553	1.5335037193144672
142.0	654.6524401342613	fix	2.0		60	dominance	144	2.0	1	-0.2799999999999998	2116.8779861938674	0.5167415211326443
143.0	655.1691816553939	face	0.0		147	dominance	006	2.0	1		2117.394727715	1.2334636634332128
143.0	656.4026453188271	rating	1.0		180	dominance	006	2.0	1		2118.6281913784333	1.5084761827019975
143.0	657.9111215015291	fix	2.0		60	dominance	006	2.0	1	-1.08	2120.1366675611353	0.5167451434535906
144.0	658.4278666449827	face	0.0		147	dominance	011	2.0	1		2120.653412704589	1.2334461559075862
144.0	659.6613128008903	rating	1.0		197	dominance	011	2.0	1		2121.8868588604964	1.6501783498097211
144.0	661.3114911507	fix	2.0		60	dominance	011	2.0	1	1.1799999999999997	2123.537037210306	0.5167463508551009
145.0	661.8282375015551	face	0.0		147	dominance	005	2.0	1		2124.0537835611613	1.2334464577725157
145.0	663.0616839593276	rating	1.0		410	dominance	005	2.0	1		2125.2872300189338	3.425370018929243
145.0	666.4870539782569	fix	2.0		60	dominance	005	2.0	1	-2.7199999999999998	2128.712600037863	0.5167831768631004
146.0	667.00383715512	face	0.0		147	dominance	012	2.0	1		2129.229383214726	1.2334096317063086
146.0	668.2372467868263	rating	1.0		170	dominance	012	2.0	1		2130.4627928464324	1.42515057179844
146.0	669.6623973586247	fix	2.0		60	dominance	012	2.0	1	0.3700000000000001	2131.887943418231	0.5167460489901714
147.0	670.1791434076149	face	0.0		147	dominance	064	2.0	1		2132.404689467221	1.2334540041047148
147.0	671.4125974117196	rating	1.0		177	dominance	064	2.0	1		2133.6381434713257	1.4834903019363992
147.0	672.896087713656	fix	2.0		60	dominance	064	2.0	1	-0.18999999999999995	2135.121633773262	0.5167451433953829
148.0	673.4128328570514	face	0.0		147	dominance	039	2.0	1		2135.6383789166575	1.2334422318381257
148.0	674.6462750888895	rating	1.0		213	dominance	039	2.0	1		2136.8718211484957	1.7835771450190805
148.0	676.4298522339086	fix	2.0		60	dominance	039	2.0	1	-0.9199999999999999	2138.6553982935147	0.5166953376610763
149.0	676.9465475715697	face	0.0		147	dominance	121	2.0	1		2139.172093631176	1.233447061444167
149.0	678.1799946330138	rating	1.0		123	dominance	121	2.0	1		2140.40554069262	1.033442594052758
149.0	679.2134372270666	fix	2.0		60	dominance	121	2.0	1	0.6399999999999997	2141.4389832866727	0.5167460489901714
150.0	679.7301832760568	face	0.0		147	dominance	062	2.0	1		2141.955729335663	1.2334458540426567
150.0	680.9636291300994	rating	1.0		505	dominance	062	2.0	1		2143.1891751897056	4.2171273798448965
150.0	685.1807565099443	fix	2.0		60	dominance	062	2.0	1	0.6399999999999997	2147.4063025695505	0.5167418230557814
151.0	685.6974983330001	face	0.0		147	dominance	092	2.0	1		2147.9230443926062	1.2334467596374452
151.0	686.9309450926376	rating	1.0		188	dominance	092	2.0	1		2149.1564911522437	1.5751709016039968
151.0	688.5061159942416	fix	2.0		60	dominance	092	2.0	1	-0.3500000000000001	2150.7316620538477	0.5167463507968932
152.0	689.0228623450384	face	0.0		147	dominance	033	2.0	1		2151.2484084046446	1.2334515893016942
152.0	690.2563139343401	rating	1.0		221	dominance	033	2.0	1		2152.4818599939463	1.850193080259487
152.0	692.1065070145996	fix	2.0		60	dominance	033	2.0	1	2.5700000000000003	2154.3320530742058	0.5167445397237316
153.0	692.6232515543234	face	0.0		147	dominance	124	2.0	1		2154.8487976139295	1.2334461559075862
153.0	693.856697710231	rating	1.0		187	dominance	124	2.0	1		2156.082243769837	1.5668364388402551
153.0	695.4235341490712	fix	2.0		60	dominance	124	2.0	1	1.5199999999999996	2157.6490802086773	0.5167451433953829
154.0	695.9402792924666	face	0.0		147	dominance	087	2.0	1		2158.1658253520727	1.2334787560394034
154.0	697.173758048506	rating	1.0		226	dominance	087	2.0	1		2159.399304108112	1.8918466792092659
154.0	699.0656047277153	fix	2.0		60	dominance	087	2.0	1	0.8899999999999997	2161.2911507873214	0.5167378989281133
155.0	699.5823426266434	face	0.0		147	dominance	126	2.0	1		2161.8078886862495	1.233448268903885
155.0	700.8157908955473	rating	1.0		158	dominance	126	2.0	1		2163.0413369551534	1.325142451969441
155.0	702.1409333475167	fix	2.0		60	dominance	126	2.0	1	0.9699999999999998	2164.366479407123	0.5167430304572918
156.0	702.657676377974	face	0.0		147	dominance	099	2.0	1		2164.88322243758	1.2334479670389555
156.0	703.8911243450129	rating	1.0		170	dominance	099	2.0	1		2166.116670404619	1.4251517791999504
156.0	705.3162761242129	fix	2.0		60	dominance	099	2.0	1	0.20000000000000018	2167.541822183819	0.5167472563916817
157.0	705.8330233806046	face	0.0		147	dominance	018	2.0	1		2168.0585694402107	1.2334449485060759
157.0	707.0664683291106	rating	1.0		139	dominance	018	2.0	1		2169.292014388717	1.166793696465902
157.0	708.2332620255766	fix	2.0		60	dominance	018	2.0	1	-1.2799999999999998	2170.4588080851827	0.516752689727582
158.0	708.7500147153041	face	0.0		147	dominance	043	2.0	1		2170.9755607749103	1.2334383077686653
158.0	709.9834530230728	rating	1.0		158	dominance	043	2.0	1		2172.208999082679	1.3251427538343705
158.0	711.3085957769072	fix	2.0		61	dominance	043	2.0	1	-0.43000000000000016	2173.5341418365133	0.5250790024292655
159.0	711.8336747793364	face	0.0		146	dominance	082	2.0	1		2174.0592208389426	1.225113504275214
159.0	713.0587882836116	rating	1.0		294	dominance	082	2.0	1		2175.284334343218	2.4585989011102356
159.0	715.5173871847219	fix	2.0		60	dominance	082	2.0	1	0.08999999999999986	2177.742933244328	0.5000538807362318
160.0	716.0174410654581	cue	0.0		480						2178.2429871250642	4.000435271998867
160.0	720.017876337457	fix	1.0		120						2182.243422397063	1.0168074760586023
160.0	721.0346838135156	face	0.0		147	attractiveness	009	2.0	1		2183.2602298731217	1.2334452503710054
160.0	722.2681290638866	rating	1.0		218	attractiveness	009	2.0	1		2184.4936751234927	1.8251908993697725
160.0	724.0933199632564	fix	2.0		60	attractiveness	009	2.0	1	2.29	2186.3188660228625	0.5167795546585694
161.0	724.6100995179149	face	0.0		147	attractiveness	024	2.0	1		2186.835645577521	1.2334150650422089
161.0	725.8435145829571	rating	1.0		116	attractiveness	024	2.0	1		2188.0690606425633	0.9751025621080771
161.0	726.8186171450652	fix	2.0		60	attractiveness	024	2.0	1	-1.85	2189.0441632046713	0.5167445396655239
162.0	727.3353616847307	face	0.0		147	attractiveness	039	2.0	1		2189.560907744337	1.233448872633744
162.0	728.5688105573645	rating	1.0		82	attractiveness	039	2.0	1		2190.7943566169706	0.6917380724917166
162.0	729.2605486298562	fix	2.0		60	attractiveness	039	2.0	1	0.7400000000000002	2191.4860946894623	0.5167454452603124
163.0	729.7772940751165	face	0.0		147	attractiveness	130	2.0	1		2192.0028401347226	1.2334446466411464
163.0	731.0107387217577	rating	1.0		137	attractiveness	130	2.0	1		2193.236284781364	1.1501271857996471
163.0	732.1608659075573	fix	2.0		60	attractiveness	130	2.0	1	-0.6000000000000001	2194.3864119671634	0.5167430303990841
164.0	732.6776089379564	face	0.0		147	attractiveness	126	2.0	1		2194.9031549975625	1.2334449485060759
164.0	733.9110538864625	rating	1.0		223	attractiveness	126	2.0	1		2196.1365999460686	1.8668695521191694
164.0	735.7779234385816	fix	2.0		60	attractiveness	126	2.0	1	1.42	2198.0034694981878	0.516749067523051
165.0	736.2946725061047	face	0.0		147	attractiveness	011	2.0	1		2198.520218565711	1.2334491744404659
165.0	737.5281216805452	rating	1.0		134	attractiveness	011	2.0	1		2199.7536677401513	1.1251135344500653
165.0	738.6532352149952	fix	2.0		60	attractiveness	011	2.0	1	-0.2599999999999998	2200.8787812746014	0.5167481619282626
166.0	739.1699833769235	face	0.0		147	attractiveness	005	2.0	1		2201.3955294365296	1.2334464577725157
166.0	740.403429834696	rating	1.0		260	attractiveness	005	2.0	1		2202.628975894302	2.1752395430230536
166.0	742.578669377719	fix	2.0		60	attractiveness	005	2.0	1	-2.9299999999999997	2204.804215437325	0.5167478600633331
167.0	743.0954172377824	face	0.0		147	attractiveness	092	2.0	1		2205.3209632973885	1.233436496637296
167.0	744.3288537344197	rating	1.0		97	attractiveness	092	2.0	1		2206.554399794026	0.8167568250792101
167.0	745.1456105594989	fix	2.0		60	attractiveness	092	2.0	1	-0.3999999999999999	2207.371156619105	0.5167442378588021
168.0	745.6623547973577	face	0.0		147	attractiveness	066	2.0	1		2207.887900856964	1.2334458541008644
168.0	746.8958006514586	rating	1.0		104	attractiveness	066	2.0	1		2209.1213467110647	0.8750929329544306
168.0	747.770893584413	fix	2.0		60	attractiveness	066	2.0	1	0.6600000000000001	2209.996439644019	0.5167520860559307
169.0	748.2876456704689	face	0.0		147	attractiveness	018	2.0	1		2210.513191730075	1.2334416281082667
169.0	749.5210872985772	rating	1.0		219	attractiveness	018	2.0	1		2211.7466333581833	1.8335289843962528
169.0	751.3546162829734	fix	2.0		60	attractiveness	018	2.0	1	0.28000000000000025	2213.5801623425796	0.5167496711947024
170.0	751.8713659541681	face	0.0		147	attractiveness	042	2.0	1		2214.0969120137743	1.233443439239636
170.0	753.1048093934078	rating	1.0		181	attractiveness	042	2.0	1		2215.330355453014	1.516829964122735
170.0	754.6216393575305	fix	2.0		60	attractiveness	042	2.0	1	1.1600000000000001	2216.8471854171366	0.5167454452603124
171.0	755.1383848027908	face	0.0		147	attractiveness	124	2.0	1		2217.363930862397	1.2334500799770467
171.0	756.3718348827679	rating	1.0		332	attractiveness	124	2.0	1		2218.597380942374	2.7752967139240354
171.0	759.1471315966919	fix	2.0		60	attractiveness	124	2.0	1	2.84	2221.372677656298	0.5167439360520802
172.0	759.663875532744	face	0.0		147	attractiveness	136	2.0	1		2221.88942159235	1.2334458540426567
172.0	760.8973213867866	rating	1.0		122	attractiveness	136	2.0	1		2223.122867446393	1.0251093386905268
172.0	761.9224307254772	fix	2.0		60	attractiveness	136	2.0	1	-1.23	2224.1479767850833	0.516749067523051
173.0	762.4391797930002	face	0.0		147	attractiveness	070	2.0	1		2224.6647258526064	1.233447061444167
173.0	763.6726268544444	rating	1.0		296	attractiveness	070	2.0	1		2225.8981729140505	2.475296502641868
173.0	766.1479233570863	fix	2.0		60	attractiveness	070	2.0	1	-1.2000000000000002	2228.3734694166924	0.5167155618546531
174.0	766.6646389189409	face	0.0		147	attractiveness	101	2.0	1		2228.890184978547	1.2334479670389555
174.0	767.8980868859799	rating	1.0		242	attractiveness	101	2.0	1		2230.123632945586	2.0252155908965506
174.0	769.9233024768764	fix	2.0		60	attractiveness	101	2.0	1	1.7000000000000002	2232.1488485364825	0.5167605379247107
175.0	770.4400630148011	face	0.0		147	attractiveness	036	2.0	1		2232.6656090744073	1.233431666973047
175.0	771.6734946817742	rating	1.0		166	attractiveness	036	2.0	1		2233.8990407413803	1.391817852272652
175.0	773.0653125340468	fix	2.0		60	attractiveness	036	2.0	1	1.2599999999999998	2235.290858593653	0.5167635564575903
176.0	773.5820760905044	face	0.0		147	attractiveness	064	2.0	1		2235.8076221501105	1.2334286484401673
176.0	774.8155047389446	rating	1.0		214	attractiveness	064	2.0	1		2237.0410507985507	1.7918578779208474
176.0	776.6073626168654	fix	2.0		60	attractiveness	064	2.0	1	0.1200000000000001	2238.8329086764716	0.5167472563916817
177.0	777.1241098732571	face	0.0		147	attractiveness	121	2.0	1		2239.3496559328632	1.2334458540426567
177.0	778.3575557272998	rating	1.0		252	attractiveness	121	2.0	1		2240.583101786906	2.108561727916822
177.0	780.4661174552166	fix	2.0		60	attractiveness	121	2.0	1	0.4299999999999997	2242.6916635148227	0.5167514823260717
178.0	780.9828689375427	face	0.0		147	attractiveness	038	2.0	1		2243.208414997149	1.2334687949041836
178.0	782.2163377324468	rating	1.0		290	attractiveness	038	2.0	1		2244.441883792053	2.425232373934705
178.0	784.6415701063816	fix	2.0		60	attractiveness	038	2.0	1	-1.92	2246.8671161659877	0.5167454452603124
179.0	785.1583155516419	face	0.0		147	attractiveness	100	2.0	1		2247.383861611248	1.2334491744404659
179.0	786.3917647260823	rating	1.0		253	attractiveness	100	2.0	1		2248.6173107856885	2.1168934740126133
179.0	788.5086582000949	fix	2.0		60	attractiveness	100	2.0	1	2.01	2250.734204259701	0.5167644619941711
180.0	789.0254226620891	face	0.0		147	attractiveness	012	2.0	1		2251.2509687216952	1.2334301577066071
180.0	790.2588528197957	rating	1.0		200	attractiveness	012	2.0	1		2252.484398879402	1.6751874733599834
180.0	791.9340402931557	fix	2.0		60	attractiveness	012	2.0	1	1.25	2254.159586352762	0.5167517841327935
181.0	792.4507920772885	face	0.0		147	attractiveness	082	2.0	1		2254.6763381368946	1.2334292521700263
181.0	793.6842213294585	rating	1.0		267	attractiveness	082	2.0	1		2255.9097673890647	2.233586819435004
181.0	795.9178081488935	fix	2.0		60	attractiveness	082	2.0	1	0.8499999999999996	2258.1433542084997	0.5167493693297729
182.0	796.4345575182233	face	0.0		147	attractiveness	044	2.0	1		2258.6601035778294	1.2334431373747066
182.0	797.668000655598	rating	1.0		240	attractiveness	044	2.0	1		2259.893546715204	2.008544552430976
182.0	799.676545208029	fix	2.0		60	attractiveness	044	2.0	1	0.5899999999999999	2261.902091267635	0.5167523879208602
183.0	800.1932975959498	face	0.0		147	attractiveness	091	2.0	1		2262.418843655556	1.2334703041706234
183.0	801.4267679001205	rating	1.0		375	attractiveness	091	2.0	1		2263.6523139597266	3.133641786815133
183.0	804.5604096869356	fix	2.0		60	attractiveness	091	2.0	1	0.45999999999999996	2266.7859557465417	0.5167433322640136
184.0	805.0771530191996	face	0.0		147	attractiveness	137	2.0	1		2267.3026990788057	1.233452494838275
184.0	806.3106055140379	rating	1.0		128	attractiveness	137	2.0	1		2268.536151573644	1.075112191203516
184.0	807.3857177052414	fix	2.0		60	attractiveness	137	2.0	1	-0.4700000000000002	2269.6112637648475	0.5167584249866195
185.0	807.902476130228	face	0.0		147	attractiveness	006	2.0	1		2270.128022189834	1.2334461559075862
185.0	809.1359222861356	rating	1.0		196	attractiveness	006	2.0	1		2271.3614683457417	1.6418327185092494
185.0	810.7777550046449	fix	2.0		61	attractiveness	006	2.0	1	-1.63	2273.003301064251	0.5250940950936638
186.0	811.3028490997385	face	0.0		146	attractiveness	062	2.0	1		2273.5283951593447	1.225096600537654
186.0	812.5279457002762	rating	1.0		342	attractiveness	062	2.0	1		2274.7534917598823	2.8586407378898
186.0	815.386586438166	fix	2.0		60	attractiveness	062	2.0	1	-1.4	2277.612132497772	0.5167517841910012
187.0	815.903338222357	face	0.0		147	attractiveness	141	2.0	1		2278.128884281963	1.2334425336448476
187.0	817.1367807560018	rating	1.0		142	attractiveness	141	2.0	1		2279.362326815608	1.1918001032900065
187.0	818.3285808592918	fix	2.0		60	attractiveness	141	2.0	1	-0.5299999999999998	2280.554126918898	0.5167442378588021
188.0	818.8453250971506	face	0.0		147	attractiveness	043	2.0	1		2281.0708711567568	1.2334558152360842
188.0	820.0787809123867	rating	1.0		238	attractiveness	043	2.0	1		2282.304326971993	1.9918650620384142
188.0	822.0706459744251	fix	2.0		60	attractiveness	043	2.0	1	-0.2599999999999998	2284.2961920340313	0.516753293457441
189.0	822.5873992678826	face	0.0		147	attractiveness	033	2.0	1		2284.8129453274887	1.233439213305246
189.0	823.8208384811878	rating	1.0		228	attractiveness	033	2.0	1		2286.046384540794	1.9085400548065081
189.0	825.7293785359943	fix	2.0		60	attractiveness	033	2.0	1	1.42	2287.9549245956005	0.5167517841910012
190.0	826.2461303201853	face	0.0		147	attractiveness	117	2.0	1		2288.4716763797915	1.2334537022397853
190.0	827.4795840224251	rating	1.0		291	attractiveness	117	2.0	1		2289.7051300820312	2.433592796092853
190.0	829.913176818518	fix	2.0		60	attractiveness	117	2.0	1	0.7300000000000004	2292.138722878124	0.5167469545267522
191.0	830.4299237730447	face	0.0		147	attractiveness	087	2.0	1		2292.655469832651	1.2334367985022254
191.0	831.663360571547	rating	1.0		163	attractiveness	087	2.0	1		2293.888906631153	1.3668244250584394
191.0	833.0301849966054	fix	2.0		60	attractiveness	087	2.0	1	1.2000000000000002	2295.2557310562115	0.5167375971213914
192.0	833.5469225937268	face	0.0		147	attractiveness	061	2.0	1		2295.772468653333	1.2334449485060759
192.0	834.7803675422329	rating	1.0		162	attractiveness	061	2.0	1		2297.005913601839	1.3584733604220673
192.0	836.1388409026549	fix	2.0		60	attractiveness	061	2.0	1	-0.5299999999999998	2298.364386962261	0.5167626508628018
193.0	836.6556035535177	face	0.0		147	attractiveness	034	2.0	1		2298.881149613124	1.2334449485060759
193.0	837.8890485020238	rating	1.0		190	attractiveness	034	2.0	1		2300.11459456163	1.5918286585947499
193.0	839.4808771606185	fix	2.0		60	attractiveness	034	2.0	1	-0.1499999999999999	2301.7064232202247	0.5167487656581216
194.0	839.9976259262767	face	0.0		147	attractiveness	144	2.0	1		2302.223171985883	1.233439213305246
194.0	841.2310651395819	rating	1.0		148	attractiveness	144	2.0	1		2303.456611199188	1.2418005409417674
194.0	842.4728656805237	fix	2.0		60	attractiveness	144	2.0	1	0.4500000000000002	2304.69841174013	0.5168055139947683
195.0	842.9896711945185	face	0.0		147	attractiveness	099	2.0	1		2305.2152172541246	1.233393935370259
195.0	844.2230651298887	rating	1.0		261	attractiveness	099	2.0	1		2306.448611189495	2.1835580075276084
195.0	846.4066231374163	fix	2.0		60	attractiveness	099	2.0	1	-0.5499999999999998	2308.6321691970224	0.5167563119903207
196.0	846.9233794494066	face	0.0		147	attractiveness	102	2.0	1		2309.1489255090128	1.2334437411045656
196.0	848.1568231905112	rating	1.0		185	attractiveness	102	2.0	1		2310.3823692501173	1.5501678151777014
196.0	849.7069910056889	fix	2.0		60	attractiveness	102	2.0	1	-1.35	2311.932537065295	0.5167333711287938
197.0	850.2237243768177	face	0.0		147	attractiveness	027	2.0	1		2312.449270436424	1.2334452503710054
197.0	851.4571696271887	rating	1.0		186	attractiveness	027	2.0	1		2313.682715686795	1.558501674211584
197.0	853.0156713014003	fix	2.0		60	attractiveness	027	2.0	1	1.92	2315.2412173610064	0.5167680842569098
198.0	853.5324393856572	face	0.0		147	attractiveness	030	2.0	1		2315.7579854452633	1.233422007644549
198.0	854.7658613933017	rating	1.0		170	attractiveness	030	2.0	1		2316.991407452908	1.425168682995718
198.0	856.1910300762975	fix	2.0		60	attractiveness	030	2.0	1	1.62	2318.4165761359036	0.516795854724478
199.0	856.707825931022	face	0.0		147	attractiveness	172	2.0	1		2318.933371990628	1.2333921242388897
199.0	857.9412180552608	rating	1.0		161	attractiveness	172	2.0	1		2320.166764114867	1.3501440291292965
199.0	859.2913620843901	fix	2.0		60	attractiveness	172	2.0	1	-1.98	2321.5169081439963	0.5000593141303398
200.0	859.7914213985205	cue	0.0		480						2322.0169674581266	4.000434064597357
200.0	863.7918554631178	fix	1.0		120						2326.017401522724	1.0167984204599634
200.0	864.8086538835778	face	0.0		147	trustworthiness	121	2.0	1		2327.034199943184	1.2334464577725157
200.0	866.0421003413503	rating	1.0		228	trustworthiness	121	2.0	1		2328.2676464009564	1.9085370363318361
200.0	867.9506373776821	fix	2.0		60	trustworthiness	121	2.0	1	-1.58	2330.1761834372883	0.5167448415304534
201.0	868.4673822192126	face	0.0		147	trustworthiness	039	2.0	1		2330.6929282788187	1.2334464577725157
201.0	869.7008286769851	rating	1.0		157	trustworthiness	039	2.0	1		2331.9263747365912	1.3168058762094006
201.0	871.0176345531945	fix	2.0		60	trustworthiness	039	2.0	1	0.9699999999999998	2333.2431806128006	0.5167487656581216
202.0	871.5343833188526	face	0.0		147	trustworthiness	141	2.0	1		2333.7599293784588	1.2334458541008644
202.0	872.7678291729535	rating	1.0		138	trustworthiness	141	2.0	1		2334.9933752325596	1.15849455044372
202.0	873.9263237233972	fix	2.0		60	trustworthiness	141	2.0	1	1.33	2336.1518697830033	0.5167152599897236
203.0	874.4430389833869	face	0.0		147	trustworthiness	144	2.0	1		2336.668585042993	1.233440722571686
203.0	875.6764797059586	rating	1.0		95	trustworthiness	144	2.0	1		2337.9020257655648	0.8000927292159759
203.0	876.4765724351746	fix	2.0		60	trustworthiness	144	2.0	1	0.4900000000000002	2338.7021184947807	0.5167421249207109
204.0	876.9933145600953	face	0.0		147	trustworthiness	034	2.0	1		2339.2188606197014	1.2334485707106069
204.0	878.2267631308059	rating	1.0		150	trustworthiness	034	2.0	1		2340.452309190412	1.25845437386306
204.0	879.485217504669	fix	2.0		60	trustworthiness	034	2.0	1	-0.25	2341.710763564275	0.5167753287241794
205.0	880.0019928333932	face	0.0		147	trustworthiness	061	2.0	1		2342.2275388929993	1.2334217058378272
205.0	881.235414539231	rating	1.0		116	trustworthiness	061	2.0	1		2343.460960598837	0.9751055806409568
205.0	882.210520119872	fix	2.0		60	trustworthiness	061	2.0	1	-0.4500000000000002	2344.436066179478	0.5167496711947024
206.0	882.7272697910666	face	0.0		147	trustworthiness	124	2.0	1		2344.952815850673	1.233442835509777
206.0	883.9607126265764	rating	1.0		422	trustworthiness	124	2.0	1		2346.1862586861826	3.5253838740172796
206.0	887.4860965005937	fix	2.0		60	trustworthiness	124	2.0	1	0.6900000000000004	2349.7116425602	0.5167584249284118
207.0	888.0028549255221	face	0.0		147	trustworthiness	030	2.0	1		2350.2284009851282	1.2334343836409971
207.0	889.2362893091631	rating	1.0		104	trustworthiness	030	2.0	1		2351.4618353687692	0.8750841792789288
207.0	890.111373488442	fix	2.0		60	trustworthiness	030	2.0	1	0.23000000000000043	2352.336919548048	0.5167596323299222
208.0	890.628133120772	face	0.0		147	trustworthiness	070	2.0	1		2352.853679180378	1.2334383077686653
208.0	891.8615714285406	rating	1.0		259	trustworthiness	070	2.0	1		2354.0871174881468	2.166894213471096
208.0	894.0284656420117	fix	2.0		60	trustworthiness	070	2.0	1	-1.9900000000000002	2356.254011701618	0.5167454452603124
209.0	894.545211087272	face	0.0		147	trustworthiness	006	2.0	1		2356.770757146878	1.2334428355679847
209.0	895.77865392284	rating	1.0		107	trustworthiness	006	2.0	1		2358.004199982446	0.9001029620412737
209.0	896.6787568848813	fix	2.0		60	trustworthiness	006	2.0	1	-0.3999999999999999	2358.9043029444874	0.5167750268592499
210.0	897.1955319117405	face	0.0		147	trustworthiness	066	2.0	1		2359.4210779713467	1.2334289503050968
210.0	898.4289608620456	rating	1.0		122	trustworthiness	066	2.0	1		2360.654506921652	1.0251048108912073
210.0	899.4540656729368	fix	2.0		60	trustworthiness	066	2.0	1	-0.8700000000000001	2361.679611732543	0.5167457471252419
211.0	899.9708114200621	face	0.0		147	trustworthiness	087	2.0	1		2362.196357479668	1.2334461559075862
211.0	901.2042575759697	rating	1.0		173	trustworthiness	087	2.0	1		2363.429803635576	1.4501593934837729
211.0	902.6544169694535	fix	2.0		60	trustworthiness	087	2.0	1	0.7300000000000004	2364.8799630290596	0.5167382007930428
212.0	903.1711551702465	face	0.0		147	trustworthiness	036	2.0	1		2365.3967012298526	1.233447665174026
212.0	904.4046028354205	rating	1.0		219	trustworthiness	036	2.0	1		2366.6301488950267	1.8335277769365348
212.0	906.238130612357	fix	2.0		60	trustworthiness	036	2.0	1	1.4400000000000004	2368.463676671963	0.5167593305232003
213.0	906.7548899428803	face	0.0		147	trustworthiness	011	2.0	1		2368.9804360024864	1.2334419299731962
213.0	907.9883318728535	rating	1.0		139	trustworthiness	011	2.0	1		2370.2138779324596	1.1667885649367236
213.0	909.1551204377902	fix	2.0		60	trustworthiness	011	2.0	1	0.8300000000000001	2371.3806664973963	0.5167427285923623
214.0	909.6718631663825	face	0.0		147	trustworthiness	027	2.0	1		2371.8974092259887	1.2334358929656446
214.0	910.9052990593482	rating	1.0		189	trustworthiness	027	2.0	1		2373.1308451189543	1.5835132125066593
214.0	912.4888122718548	fix	2.0		60	trustworthiness	027	2.0	1	1.62	2374.714358331461	0.5167460489901714
215.0	913.005558320845	face	0.0		147	trustworthiness	117	2.0	1		2375.231104380451	1.233444042969495
215.0	914.2390023638145	rating	1.0		145	trustworthiness	117	2.0	1		2376.4645484234206	1.2168043971178122
215.0	915.4558067609323	fix	2.0		60	trustworthiness	117	2.0	1	-0.5299999999999998	2377.6813528205385	0.5167496711947024
216.0	915.972556432127	face	0.0		147	trustworthiness	101	2.0	1		2378.198102491733	1.2334358929656446
216.0	917.2059923250927	rating	1.0		121	trustworthiness	101	2.0	1		2379.431538384699	1.016826492792461
216.0	918.2228188178851	fix	2.0		60	trustworthiness	101	2.0	1	-0.9700000000000002	2380.4483648774913	0.5166989598656073
217.0	918.7395177777507	face	0.0		147	trustworthiness	172	2.0	1		2380.965063837357	1.233448872633744
217.0	919.9729666503845	rating	1.0		194	trustworthiness	172	2.0	1		2382.1985127099906	1.625181602255907
217.0	921.5981482526404	fix	2.0		60	trustworthiness	172	2.0	1	1.0599999999999996	2383.8236943122465	0.516737295256462
218.0	922.1148855478968	face	0.0		147	trustworthiness	018	2.0	1		2384.340431607503	1.2334485707688145
218.0	923.3483341186657	rating	1.0		142	trustworthiness	018	2.0	1		2385.573880178272	1.191815799626056
218.0	924.5401499182917	fix	2.0		60	trustworthiness	018	2.0	1	1.2400000000000002	2386.765695977898	0.516722806263715
219.0	925.0568727245554	face	0.0		147	trustworthiness	064	2.0	1		2387.2824187841616	1.2334340818342753
219.0	926.2903068063897	rating	1.0		175	trustworthiness	064	2.0	1		2388.515852865996	1.4668259041500278
219.0	927.7571327105397	fix	2.0		60	trustworthiness	064	2.0	1	1.5599999999999996	2389.982678770146	0.5167496711947024
220.0	928.2738823817344	face	0.0		147	trustworthiness	099	2.0	1		2390.4994284413406	1.2334470615023747
220.0	929.5073294432368	rating	1.0		202	trustworthiness	099	2.0	1		2391.732875502843	1.6918446266208775
220.0	931.1991740698577	fix	2.0		60	trustworthiness	099	2.0	1	0.16999999999999993	2393.424720129464	0.5167442378588021
221.0	931.7159183077165	face	0.0		147	trustworthiness	100	2.0	1		2393.9414643673226	1.2334452503127977
221.0	932.9493635580293	rating	1.0		280	trustworthiness	100	2.0	1		2395.1749096176354	2.341926383494865
221.0	935.2912899415242	fix	2.0		60	trustworthiness	100	2.0	1	1.17	2397.5168360011303	0.5167454452603124
222.0	935.8080353867845	face	0.0		147	trustworthiness	062	2.0	1		2398.0335814463906	1.233439817035105
222.0	937.0414752038196	rating	1.0		159	trustworthiness	062	2.0	1		2399.2670212634257	1.333486574003473
222.0	938.374961777823	fix	2.0		60	trustworthiness	062	2.0	1	-0.7000000000000002	2400.600507837429	0.5167360878549516
223.0	938.891697865678	face	0.0		147	trustworthiness	005	2.0	1		2401.117243925284	1.233447061444167
223.0	940.1251449271222	rating	1.0		182	trustworthiness	005	2.0	1		2402.3506909867283	1.525164125021547
223.0	941.6503090521437	fix	2.0		60	trustworthiness	005	2.0	1	0.6399999999999997	2403.87585511175	0.5167466527200304
224.0	942.1670557048637	face	0.0		147	trustworthiness	130	2.0	1		2404.39260176447	1.2334452503127977
224.0	943.4005009551765	rating	1.0		150	trustworthiness	130	2.0	1		2405.6260470147827	1.2584685609908774
224.0	944.6589695161674	fix	2.0		60	trustworthiness	130	2.0	1	1.33	2406.8845155757735	0.5167475581984036
225.0	945.1757170743658	face	0.0		147	trustworthiness	136	2.0	1		2407.401263133972	1.2334512874367647
225.0	946.4091683618026	rating	1.0		133	trustworthiness	136	2.0	1		2408.6347144214087	1.116778166149743
225.0	947.5259465279523	fix	2.0		60	trustworthiness	136	2.0	1	0.8200000000000003	2409.7514925875585	0.5167472563916817
226.0	948.042693784344	face	0.0		147	trustworthiness	092	2.0	1		2410.26823984395	1.2334458540426567
226.0	949.2761396383867	rating	1.0		127	trustworthiness	092	2.0	1		2411.501685697993	1.0667825581040233
226.0	950.3429221964907	fix	2.0		60	trustworthiness	092	2.0	1	-0.2799999999999998	2412.568468256097	0.5167460489319637
227.0	950.8596682454227	face	0.0		147	trustworthiness	033	2.0	1		2413.085214305029	1.2334443448344246
227.0	952.0931125902571	rating	1.0		200	trustworthiness	033	2.0	1		2414.318658649863	1.6751808325643651
227.0	953.7682934228214	fix	2.0		60	trustworthiness	033	2.0	1	-0.6499999999999999	2415.9938394824276	0.5167439359938726
228.0	954.2850373588153	face	0.0		147	trustworthiness	102	2.0	1		2416.5105834184214	1.2334485707688145
228.0	955.5184859295841	rating	1.0		186	trustworthiness	102	2.0	1		2417.7440319891903	1.5585004668100737
228.0	957.0769863963942	fix	2.0		60	trustworthiness	102	2.0	1	1.4400000000000004	2419.3025324560003	0.5167475581984036
229.0	957.5937339545926	face	0.0		147	trustworthiness	024	2.0	1		2419.8192800141987	1.233444042969495
229.0	958.8271779975621	rating	1.0		431	trustworthiness	024	2.0	1		2421.0527240571682	3.6003901148214936
229.0	962.4275681123836	fix	2.0		60	trustworthiness	024	2.0	1	-0.3999999999999999	2424.6531141719897	0.5167445396655239
230.0	962.9443126520491	face	0.0		147	trustworthiness	044	2.0	1		2425.1698587116553	1.2334500800352544
230.0	964.1777627320844	rating	1.0		174	trustworthiness	044	2.0	1		2426.4033087916905	1.4585315878503025
230.0	965.6362943199347	fix	2.0		60	trustworthiness	044	2.0	1	1.0300000000000002	2427.861840379541	0.5167013747268356
231.0	966.1529956946615	face	0.0		147	trustworthiness	009	2.0	1		2428.3785417542676	1.2334467596374452
231.0	967.386442454299	rating	1.0		169	trustworthiness	009	2.0	1		2429.611988513905	1.4168194294325076
231.0	968.8032618837315	fix	2.0		60	trustworthiness	009	2.0	1	1.5099999999999998	2431.0288079433376	0.5167472563334741
232.0	969.3200091400649	face	0.0		147	trustworthiness	126	2.0	1		2431.545555199671	1.233444646699354
232.0	970.5534537867643	rating	1.0		102	trustworthiness	126	2.0	1		2432.7789998463704	0.8584255166933872
232.0	971.4118793034577	fix	2.0		60	trustworthiness	126	2.0	1	0.33000000000000007	2433.637425363064	0.5167451433953829
233.0	971.9286244468531	face	0.0		147	trustworthiness	012	2.0	1		2434.154170506459	1.2334485707688145
233.0	973.1620730176219	rating	1.0		184	trustworthiness	012	2.0	1		2435.387619077228	1.5418297301512212
233.0	974.7039027477731	fix	2.0		60	trustworthiness	012	2.0	1	1.7999999999999998	2436.9294488073792	0.5167463508551009
234.0	975.2206490986282	face	0.0		147	trustworthiness	043	2.0	1		2437.4461951582343	1.2334449485060759
234.0	976.4540940471343	rating	1.0		123	trustworthiness	043	2.0	1		2438.6796401067404	1.0334459143923596
234.0	977.4875399615266	fix	2.0		60	trustworthiness	043	2.0	1	0.20000000000000018	2439.7130860211328	0.5167499730596319
235.0	978.0042899345863	face	0.0		147	trustworthiness	137	2.0	1		2440.2298359941924	1.233448872633744
235.0	979.23773880722	rating	1.0		149	trustworthiness	137	2.0	1		2441.463284866826	1.2501283629680984
235.0	980.4878671701881	fix	2.0		60	trustworthiness	137	2.0	1	-0.75	2442.7134132297942	0.5167487656581216
236.0	981.0046159358462	face	0.0		147	trustworthiness	091	2.0	1		2443.2301619954524	1.2334422318381257
236.0	982.2380581676844	rating	1.0		129	trustworthiness	091	2.0	1		2444.4636042272905	1.0834487669053487
236.0	983.3215069345897	fix	2.0		60	trustworthiness	091	2.0	1	0.8700000000000001	2445.547052994196	0.5167460489901714
237.0	983.8382529835799	face	0.0		147	trustworthiness	082	2.0	1		2446.063799043186	1.233447061444167
237.0	985.071700045024	rating	1.0		461	trustworthiness	082	2.0	1		2447.29724610463	3.850417960784398
237.0	988.9221180058084	fix	2.0		60	trustworthiness	082	2.0	1	0.5099999999999998	2451.1476640654146	0.5167466526618227
238.0	989.4388646584703	face	0.0		147	trustworthiness	042	2.0	1		2451.6644107180764	1.2334337799111381
238.0	990.6722984383814	rating	1.0		101	trustworthiness	042	2.0	1		2452.8978444979875	0.8501013169880025
238.0	991.5223997553694	fix	2.0		61	trustworthiness	042	2.0	1	-0.3999999999999999	2453.7479458149755	0.5250811154255643
239.0	992.047480870795	face	0.0		146	trustworthiness	038	2.0	1		2454.273026930401	1.2251104857423343
239.0	993.2725913565373	rating	1.0		110	trustworthiness	038	2.0	1		2455.4981374161434	0.9250991058652289
239.0	994.1976904624025	fix	2.0		60	trustworthiness	038	2.0	1	1.29	2456.4232365220087	0.5000520696630701
