trial_nr	onset	event_type	phase	response	nr_frames	face_age	face_sex	face_eth	attractiveness	expression	face_id	sub_id	ses	run	trial_type	catch	rating_type	onset_abs	duration
-1.0	0.06112125514027866	fix	0.0		713													24.766470229027163	5.957942140899377
-1.0	0.7026174814909609	pulse	0.0	t														25.407966455377846	
-1.0	1.4025964421471144	pulse	0.0	t														26.107945416034	
-1.0	2.102575100947888	pulse	0.0	t														26.807924074834773	
-1.0	2.802564626554613	pulse	0.0	t														27.507913600441498	
-1.0	3.5025559632954355	pulse	0.0	t														28.20790493718232	
-1.0	4.202546092613375	pulse	0.0	t														28.90789506650026	
-1.0	4.902523543991265	pulse	0.0	t														29.60787251787815	
-1.0	5.602514578876253	pulse	0.0	t														30.307863552763138	
0.0	6.019063396039655	face	0.0		144	22.0	female	white	4.614007162753682	smiling	009	sub-13	2.0	5.0	009_smiling	0.0		30.72441236992654	1.2333205849604383
0.0	6.302515575000143	pulse	0.0	t		22.0	female	white	4.614007162753682	smiling	009	sub-13	2.0	5.0	009_smiling	0.0		31.007864548887028	
0.0	7.002469783487868	pulse	0.0	t		22.0	female	white	4.614007162753682	smiling	009	sub-13	2.0	5.0	009_smiling	0.0		31.707818757374753	
0.0	7.252383981000094	fix	1.0		444	22.0	female	white	4.614007162753682	smiling	009	sub-13	2.0	5.0	009_smiling	0.0		31.95773295488698	3.7582503959588394
0.0	7.702483457551807	pulse	1.0	t		22.0	female	white	4.614007162753682	smiling	009	sub-13	2.0	5.0	009_smiling	0.0		32.40783243143869	
0.0	8.402474190581415	pulse	1.0	t		22.0	female	white	4.614007162753682	smiling	009	sub-13	2.0	5.0	009_smiling	0.0		33.1078231644683	
0.0	9.102457377217888	pulse	1.0	t		22.0	female	white	4.614007162753682	smiling	009	sub-13	2.0	5.0	009_smiling	0.0		33.80780635110477	
0.0	9.802436639729876	pulse	1.0	t		22.0	female	white	4.614007162753682	smiling	009	sub-13	2.0	5.0	009_smiling	0.0		34.50778561361676	
0.0	10.502424354202049	pulse	1.0	t		22.0	female	white	4.614007162753682	smiling	009	sub-13	2.0	5.0	009_smiling	0.0		35.20777332808893	
1.0	11.010634376958933	face	0.0		146	26.0	male	white	2.7966573816155993	neutral	117	sub-13	2.0	5.0	117_neutral	0.0		35.71598335084582	1.241659349181191
1.0	11.202427765171706	pulse	0.0	t		26.0	male	white	2.7966573816155993	neutral	117	sub-13	2.0	5.0	117_neutral	0.0		35.90777673905859	
1.0	11.902399481291013	pulse	0.0	t		26.0	male	white	2.7966573816155993	neutral	117	sub-13	2.0	5.0	117_neutral	0.0		36.6077484551779	
1.0	12.252293726140124	fix	1.0		445	26.0	male	white	2.7966573816155993	neutral	117	sub-13	2.0	5.0	117_neutral	0.0		36.95764270002701	3.7582516033821776
1.0	12.602395949579204	pulse	1.0	t		26.0	male	white	2.7966573816155993	neutral	117	sub-13	2.0	5.0	117_neutral	0.0		37.30774492346609	
1.0	13.302388795598745	pulse	1.0	t		26.0	male	white	2.7966573816155993	neutral	117	sub-13	2.0	5.0	117_neutral	0.0		38.00773776948563	
1.0	14.00237409522515	pulse	1.0	t		26.0	male	white	2.7966573816155993	neutral	117	sub-13	2.0	5.0	117_neutral	0.0		38.707723069112035	
1.0	14.702368752378788	pulse	1.0	t		26.0	male	white	2.7966573816155993	neutral	117	sub-13	2.0	5.0	117_neutral	0.0		39.40771772626567	
1.0	15.40234167592098	pulse	1.0	t		26.0	male	white	2.7966573816155993	neutral	117	sub-13	2.0	5.0	117_neutral	0.0		40.107690649807864	
2.0	16.0105453295223	face	0.0		146	40.0	male	white	1.868682849184242	neutral	172	sub-13	2.0	5.0	172_neutral	0.0		40.715894303409186	1.2416599528924053
2.0	16.102337842353336	pulse	0.0	t		40.0	male	white	1.868682849184242	neutral	172	sub-13	2.0	5.0	172_neutral	0.0		40.80768681624022	
2.0	16.802318614144042	pulse	0.0	t		40.0	male	white	1.868682849184242	neutral	172	sub-13	2.0	5.0	172_neutral	0.0		41.50766758803093	
2.0	17.252205282414707	fix	1.0		444	40.0	male	white	1.868682849184242	neutral	172	sub-13	2.0	5.0	172_neutral	0.0		41.95755425630159	3.7582485848247416
2.0	17.502317497278	pulse	1.0	t		40.0	male	white	1.868682849184242	neutral	172	sub-13	2.0	5.0	172_neutral	0.0		42.207666471164885	
2.0	18.202296759789988	pulse	1.0	t		40.0	male	white	1.868682849184242	neutral	172	sub-13	2.0	5.0	172_neutral	0.0		42.90764573367687	
2.0	18.902283870550946	pulse	1.0	t		40.0	male	white	1.868682849184242	neutral	172	sub-13	2.0	5.0	172_neutral	0.0		43.60763284443783	
2.0	19.60226615162037	pulse	1.0	t		40.0	male	white	1.868682849184242	neutral	172	sub-13	2.0	5.0	172_neutral	0.0		44.307615125507255	
2.0	20.30227077001291	pulse	1.0	t		40.0	male	white	1.868682849184242	neutral	172	sub-13	2.0	5.0	172_neutral	0.0		45.007619743899795	
3.0	21.01045386723945	face	0.0		147	22.0	female	white	4.614007162753682	neutral	009	sub-13	2.0	5.0	009_neutral	0.0		45.71580284112633	1.2416614621711233
3.0	21.003765650086734	pulse	0.0	t		22.0	female	white	4.614007162753682	neutral	009	sub-13	2.0	5.0	009_neutral	0.0		45.70911462397362	
3.0	21.702237445141236	pulse	0.0	t		22.0	female	white	4.614007162753682	neutral	009	sub-13	2.0	5.0	009_neutral	0.0		46.40758641902812	
3.0	22.25211532941057	fix	1.0		444	22.0	female	white	4.614007162753682	neutral	009	sub-13	2.0	5.0	009_neutral	0.0		46.957464303297456	3.758258244207809
3.0	22.402225159613863	pulse	1.0	t		22.0	female	white	4.614007162753682	neutral	009	sub-13	2.0	5.0	009_neutral	0.0		47.10757413350075	
3.0	23.102213779653084	pulse	1.0	t		22.0	female	white	4.614007162753682	neutral	009	sub-13	2.0	5.0	009_neutral	0.0		47.80756275353997	
3.0	23.802184590204888	pulse	1.0	t		22.0	female	white	4.614007162753682	neutral	009	sub-13	2.0	5.0	009_neutral	0.0		48.50753356409177	
3.0	24.502174719523282	pulse	1.0	t		22.0	female	white	4.614007162753682	neutral	009	sub-13	2.0	5.0	009_neutral	0.0		49.20752369341017	
3.0	25.202167263686988	pulse	1.0	t		22.0	female	white	4.614007162753682	neutral	009	sub-13	2.0	5.0	009_neutral	0.0		49.90751623757387	
3.0	25.902154676303326	pulse	1.0	t		22.0	female	white	4.614007162753682	neutral	009	sub-13	2.0	5.0	009_neutral	0.0		50.60750365019021	
4.0	26.01037357361838	face	0.0		147	28.0	male	white	3.9076800636689217	neutral	033	sub-13	2.0	5.0	033_neutral	0.0		50.715722547505266	1.2416575380466384
4.0	26.60215537057138	pulse	0.0	t		28.0	male	white	3.9076800636689217	neutral	033	sub-13	2.0	5.0	033_neutral	0.0		51.307504344458266	
4.0	27.25203111166502	fix	1.0		443	28.0	male	white	3.9076800636689217	neutral	033	sub-13	2.0	5.0	033_neutral	0.0		51.957380085551904	3.7582485848251963
4.0	27.302134934939204	pulse	1.0	t		28.0	male	white	3.9076800636689217	neutral	033	sub-13	2.0	5.0	033_neutral	0.0		52.00748390882609	
4.0	28.00212355497888	pulse	1.0	t		28.0	male	white	3.9076800636689217	neutral	033	sub-13	2.0	5.0	033_neutral	0.0		52.707472528865765	
4.0	28.702115193575537	pulse	1.0	t		28.0	male	white	3.9076800636689217	neutral	033	sub-13	2.0	5.0	033_neutral	0.0		53.40746416746242	
4.0	29.402090833818875	pulse	1.0	t		28.0	male	white	3.9076800636689217	neutral	033	sub-13	2.0	5.0	033_neutral	0.0		54.10743980770576	
4.0	30.102077642723998	pulse	1.0	t		28.0	male	white	3.9076800636689217	neutral	033	sub-13	2.0	5.0	033_neutral	0.0		54.80742661661088	
4.0	30.802066564619054	pulse	1.0	t		28.0	male	white	3.9076800636689217	neutral	033	sub-13	2.0	5.0	033_neutral	0.0		55.50741553850594	
5.0	31.010279696490215	face	0.0		146	21.0	male	east_asian/white	3.501790688420215	smiling	036	sub-13	2.0	5.0	036_smiling	0.0		55.7156286703771	1.2416599528924053
5.0	31.50206333476308	pulse	0.0	t		21.0	male	east_asian/white	3.501790688420215	smiling	036	sub-13	2.0	5.0	036_smiling	0.0		56.207412308649964	
5.0	32.202043502842116	pulse	0.0	t		21.0	male	east_asian/white	3.501790688420215	smiling	036	sub-13	2.0	5.0	036_smiling	0.0		56.907392476729	
5.0	32.25193964938262	fix	1.0		445	21.0	male	east_asian/white	3.501790688420215	smiling	036	sub-13	2.0	5.0	036_smiling	0.0		56.957288623269505	3.766585236055562
5.0	32.902038461852044	pulse	1.0	t		21.0	male	east_asian/white	3.501790688420215	smiling	036	sub-13	2.0	5.0	036_smiling	0.0		57.60738743573893	
5.0	33.60202406333383	pulse	1.0	t		21.0	male	east_asian/white	3.501790688420215	smiling	036	sub-13	2.0	5.0	036_smiling	0.0		58.307373037220714	
5.0	34.30200694811492	pulse	1.0	t		21.0	male	east_asian/white	3.501790688420215	smiling	036	sub-13	2.0	5.0	036_smiling	0.0		59.00735592200181	
5.0	35.00199043660723	pulse	1.0	t		21.0	male	east_asian/white	3.501790688420215	smiling	036	sub-13	2.0	5.0	036_smiling	0.0		59.707339410494114	
5.0	35.70198479190503	pulse	1.0	t		21.0	male	east_asian/white	3.501790688420215	smiling	036	sub-13	2.0	5.0	036_smiling	0.0		60.40733376579192	
6.0	36.01852488543818	face	0.0		145	26.0	female	white	4.854755272582572	smiling	027	sub-13	2.0	5.0	027_smiling	0.0		60.72387385932507	1.2333245090844684
6.0	36.401976732357525	pulse	0.0	t		26.0	female	white	4.854755272582572	smiling	027	sub-13	2.0	5.0	027_smiling	0.0		61.10732570624441	
6.0	37.10195840971528	pulse	0.0	t		26.0	female	white	4.854755272582572	smiling	027	sub-13	2.0	5.0	027_smiling	0.0		61.807307383602165	
6.0	37.25184939452265	fix	1.0		445	26.0	female	white	4.854755272582572	smiling	027	sub-13	2.0	5.0	027_smiling	0.0		61.957198368409536	3.7665864434784453
6.0	37.80195276501354	pulse	1.0	t		26.0	female	white	4.854755272582572	smiling	027	sub-13	2.0	5.0	027_smiling	0.0		62.50730173890042	
6.0	38.501932933092576	pulse	1.0	t		26.0	female	white	4.854755272582572	smiling	027	sub-13	2.0	5.0	027_smiling	0.0		63.20728190697946	
6.0	39.20191823271898	pulse	1.0	t		26.0	female	white	4.854755272582572	smiling	027	sub-13	2.0	5.0	027_smiling	0.0		63.907267206605866	
6.0	39.90188843955957	pulse	1.0	t		26.0	female	white	4.854755272582572	smiling	027	sub-13	2.0	5.0	027_smiling	0.0		64.60723741344646	
6.0	40.60189577465371	pulse	1.0	t		26.0	female	white	4.854755272582572	smiling	027	sub-13	2.0	5.0	027_smiling	0.0		65.3072447485406	
7.0	41.018435838001096	face	0.0		145	54.0	female	white	2.286908077994429	neutral	136	sub-13	2.0	5.0	136_neutral	0.0		65.72378481188798	1.2333278294972843
7.0	41.30189284665312	pulse	0.0	t		54.0	female	white	2.286908077994429	neutral	136	sub-13	2.0	5.0	136_neutral	0.0		66.00724182054	
7.0	42.00186486462826	pulse	0.0	t		54.0	female	white	2.286908077994429	neutral	136	sub-13	2.0	5.0	136_neutral	0.0		66.70721383851514	
7.0	42.25176366749838	fix	1.0		445	54.0	female	white	2.286908077994429	neutral	136	sub-13	2.0	5.0	136_neutral	0.0		66.95711264138527	3.766584934200182
7.0	42.7018740108565	pulse	1.0	t		54.0	female	white	2.286908077994429	neutral	136	sub-13	2.0	5.0	136_neutral	0.0		67.40722298474338	
7.0	43.40185025481151	pulse	1.0	t		54.0	female	white	2.286908077994429	neutral	136	sub-13	2.0	5.0	136_neutral	0.0		68.10719922869839	
7.0	44.10184642124386	pulse	1.0	t		54.0	female	white	2.286908077994429	neutral	136	sub-13	2.0	5.0	136_neutral	0.0		68.80719539513075	
7.0	44.80181904293022	pulse	1.0	t		54.0	female	white	2.286908077994429	neutral	136	sub-13	2.0	5.0	136_neutral	0.0		69.5071680168171	
7.0	45.50180283327791	pulse	1.0	t		54.0	female	white	2.286908077994429	neutral	136	sub-13	2.0	5.0	136_neutral	0.0		70.20715180716479	
8.0	46.01834860169856	face	0.0		145	24.0	female	black	3.0955033824114606	neutral	099	sub-13	2.0	5.0	099_neutral	1.0	trustworthiness	70.72369757558545	1.233324810940303
8.0	46.20180564053635	pulse	0.0	t		24.0	female	black	3.0955033824114606	neutral	099	sub-13	2.0	5.0	099_neutral	1.0	trustworthiness	70.90715461442323	
8.0	46.901783695625454	pulse	0.0	t		24.0	female	black	3.0955033824114606	neutral	099	sub-13	2.0	5.0	099_neutral	1.0	trustworthiness	71.60713266951234	
8.0	47.251673412638866	fix	1.0		177	24.0	female	black	3.0955033824114606	neutral	099	sub-13	2.0	5.0	099_neutral	1.0	trustworthiness	71.95702238652575	1.5083346891683505
8.0	47.60177835277909	pulse	1.0	t		24.0	female	black	3.0955033824114606	neutral	099	sub-13	2.0	5.0	099_neutral	1.0	trustworthiness	72.30712732666598	
8.0	48.301764557973	pulse	1.0	t		24.0	female	black	3.0955033824114606	neutral	099	sub-13	2.0	5.0	099_neutral	1.0	trustworthiness	73.00711353185989	
8.0	48.760008101807216	rating	2.0		293	24.0	female	black	3.0955033824114606	neutral	099	sub-13	2.0	5.0	099_neutral	1.0	trustworthiness	73.4653570756941	2.491592865459097
8.0	49.00175529100261	pulse	2.0	t		24.0	female	black	3.0955033824114606	neutral	099	sub-13	2.0	5.0	099_neutral	1.0	trustworthiness	73.7071042648895	
8.0	49.70173817578325	pulse	2.0	t		24.0	female	black	3.0955033824114606	neutral	099	sub-13	2.0	5.0	099_neutral	1.0	trustworthiness	74.40708714967013	
8.0	49.71266625835642	response	2.0	b		24.0	female	black	3.0955033824114606	neutral	099	sub-13	2.0	5.0	099_neutral	1.0	trustworthiness	74.4180152322433	
8.0	50.40171955128517	pulse	2.0	t		24.0	female	black	3.0955033824114606	neutral	099	sub-13	2.0	5.0	099_neutral	1.0	trustworthiness	75.10706852517205	
8.0	51.101715717717525	pulse	2.0	t		24.0	female	black	3.0955033824114606	neutral	099	sub-13	2.0	5.0	099_neutral	1.0	trustworthiness	75.80706469160441	
8.0	51.25160096726631	fix	3.0		444	24.0	female	black	3.0955033824114606	neutral	099	sub-13	2.0	5.0	099_neutral	1.0	trustworthiness	75.9569499411532	3.7665870471901144
8.0	51.8017016210556	pulse	3.0	t		24.0	female	black	3.0955033824114606	neutral	099	sub-13	2.0	5.0	099_neutral	1.0	trustworthiness	76.50705059494248	
8.0	52.50168148727926	pulse	3.0	t		24.0	female	black	3.0955033824114606	neutral	099	sub-13	2.0	5.0	099_neutral	1.0	trustworthiness	77.20703046116614	
8.0	53.2016770500004	pulse	3.0	t		24.0	female	black	3.0955033824114606	neutral	099	sub-13	2.0	5.0	099_neutral	1.0	trustworthiness	77.90702602388728	
8.0	53.90165842550232	pulse	3.0	t		24.0	female	black	3.0955033824114606	neutral	099	sub-13	2.0	5.0	099_neutral	1.0	trustworthiness	78.6070073993892	
8.0	54.60164885667609	pulse	3.0	t		24.0	female	black	3.0955033824114606	neutral	099	sub-13	2.0	5.0	099_neutral	1.0	trustworthiness	79.30699783056298	
9.0	55.01818801445643	face	0.0		145	19.0	female	white	4.298846000795861	smiling	100	sub-13	2.0	5.0	100_smiling	0.0		79.72353698834331	1.233325716507352
9.0	55.30163989156108	pulse	0.0	t		19.0	female	white	4.298846000795861	smiling	100	sub-13	2.0	5.0	100_smiling	0.0		80.00698886544797	
9.0	56.001625794899155	pulse	0.0	t		19.0	female	white	4.298846000795861	smiling	100	sub-13	2.0	5.0	100_smiling	0.0		80.70697476878604	
9.0	56.25151373096378	fix	1.0		444	19.0	female	white	4.298846000795861	smiling	100	sub-13	2.0	5.0	100_smiling	0.0		80.95686270485066	3.7665891601800467
9.0	56.70161381122716	pulse	1.0	t		19.0	female	white	4.298846000795861	smiling	100	sub-13	2.0	5.0	100_smiling	0.0		81.40696278511405	
9.0	57.40160031827645	pulse	1.0	t		19.0	female	white	4.298846000795861	smiling	100	sub-13	2.0	5.0	100_smiling	0.0		82.10694929216334	
9.0	58.10158833460446	pulse	1.0	t		19.0	female	white	4.298846000795861	smiling	100	sub-13	2.0	5.0	100_smiling	0.0		82.80693730849134	
9.0	58.80158751959425	pulse	1.0	t		19.0	female	white	4.298846000795861	smiling	100	sub-13	2.0	5.0	100_smiling	0.0		83.50693649348113	
9.0	59.50155953756894	pulse	1.0	t		19.0	female	white	4.298846000795861	smiling	100	sub-13	2.0	5.0	100_smiling	0.0		84.20690851145582	
10.0	60.018102891143826	face	0.0		145	27.0	male	black	3.5523278949462798	smiling	042	sub-13	2.0	5.0	042_smiling	1.0	attractiveness	84.72345186503071	1.233323301661585
10.0	60.20155268544431	pulse	0.0	t		27.0	male	black	3.5523278949462798	smiling	042	sub-13	2.0	5.0	042_smiling	1.0	attractiveness	84.9069016593312	
10.0	60.901536777647834	pulse	0.0	t		27.0	male	black	3.5523278949462798	smiling	042	sub-13	2.0	5.0	042_smiling	1.0	attractiveness	85.60688575153472	
10.0	61.25142619280541	fix	1.0		177	27.0	male	black	3.5523278949462798	smiling	042	sub-13	2.0	5.0	042_smiling	1.0	attractiveness	85.9567751666923	1.499972983913267
10.0	61.60152992552321	pulse	1.0	t		27.0	male	black	3.5523278949462798	smiling	042	sub-13	2.0	5.0	042_smiling	1.0	attractiveness	86.3068788994101	
10.0	62.30150828246815	pulse	1.0	t		27.0	male	black	3.5523278949462798	smiling	042	sub-13	2.0	5.0	042_smiling	1.0	attractiveness	87.00685725635503	
10.0	62.75139917671868	rating	2.0		294	27.0	male	black	3.5523278949462798	smiling	042	sub-13	2.0	5.0	042_smiling	1.0	attractiveness	87.45674815060556	2.499954872570015
10.0	63.001508976736204	pulse	2.0	t		27.0	male	black	3.5523278949462798	smiling	042	sub-13	2.0	5.0	042_smiling	1.0	attractiveness	87.70685795062309	
10.0	63.70148944667153	pulse	2.0	t		27.0	male	black	3.5523278949462798	smiling	042	sub-13	2.0	5.0	042_smiling	1.0	attractiveness	88.40683842055842	
10.0	63.85981397839487	response	2.0	d		27.0	male	black	3.5523278949462798	smiling	042	sub-13	2.0	5.0	042_smiling	1.0	attractiveness	88.56516295228175	
10.0	64.40146297392448	pulse	2.0	t		27.0	male	black	3.5523278949462798	smiling	042	sub-13	2.0	5.0	042_smiling	1.0	attractiveness	89.10681194781137	
10.0	65.10145823479024	pulse	2.0	t		27.0	male	black	3.5523278949462798	smiling	042	sub-13	2.0	5.0	042_smiling	1.0	attractiveness	89.80680720867713	
10.0	65.2513540492887	fix	3.0		444	27.0	male	black	3.5523278949462798	smiling	042	sub-13	2.0	5.0	042_smiling	1.0	attractiveness	89.95670302317558	3.7665517300711144
10.0	65.80146375874983	pulse	3.0	t		27.0	male	black	3.5523278949462798	smiling	042	sub-13	2.0	5.0	042_smiling	1.0	attractiveness	90.50681273263672	
10.0	66.50143638043619	pulse	3.0	t		27.0	male	black	3.5523278949462798	smiling	042	sub-13	2.0	5.0	042_smiling	1.0	attractiveness	91.20678535432307	
10.0	67.20144190439578	pulse	3.0	t		27.0	male	black	3.5523278949462798	smiling	042	sub-13	2.0	5.0	042_smiling	1.0	attractiveness	91.90679087828266	
10.0	67.9014087908231	pulse	3.0	t		27.0	male	black	3.5523278949462798	smiling	042	sub-13	2.0	5.0	042_smiling	1.0	attractiveness	92.60675776470998	
10.0	68.60139801457399	pulse	3.0	t		27.0	male	black	3.5523278949462798	smiling	042	sub-13	2.0	5.0	042_smiling	1.0	attractiveness	93.30674698846087	
11.0	69.01790577935981	face	0.0		145	32.0	male	white	2.389176283326701	smiling	092	sub-13	2.0	5.0	092_smiling	1.0	attractiveness	93.72325475324669	1.2333613354821864
11.0	69.30139116244891	pulse	0.0	t		32.0	male	white	2.389176283326701	smiling	092	sub-13	2.0	5.0	092_smiling	1.0	attractiveness	94.0067401363358	
11.0	70.00137736764327	pulse	0.0	t		32.0	male	white	2.389176283326701	smiling	092	sub-13	2.0	5.0	092_smiling	1.0	attractiveness	94.70672634153016	
11.0	70.251267114842	fix	1.0		177	32.0	male	white	2.389176283326701	smiling	092	sub-13	2.0	5.0	092_smiling	1.0	attractiveness	94.95661608872888	1.499972380201143
11.0	70.70136749696076	pulse	1.0	t		32.0	male	white	2.389176283326701	smiling	092	sub-13	2.0	5.0	092_smiling	1.0	attractiveness	95.40671647084764	
11.0	71.40135007988602	pulse	1.0	t		32.0	male	white	2.389176283326701	smiling	092	sub-13	2.0	5.0	092_smiling	1.0	attractiveness	96.1066990537729	
11.0	71.75123949504314	rating	2.0		294	32.0	male	white	2.389176283326701	smiling	092	sub-13	2.0	5.0	092_smiling	1.0	attractiveness	96.45658846893002	2.4999536651475864
11.0	72.10134413332844	pulse	2.0	t		32.0	male	white	2.389176283326701	smiling	092	sub-13	2.0	5.0	092_smiling	1.0	attractiveness	96.80669310721532	
11.0	72.80132913109946	pulse	2.0	t		32.0	male	white	2.389176283326701	smiling	092	sub-13	2.0	5.0	092_smiling	1.0	attractiveness	97.50667810498635	
11.0	72.95130342808488	response	2.0	n		32.0	male	white	2.389176283326701	smiling	092	sub-13	2.0	5.0	092_smiling	1.0	attractiveness	97.65665240197177	
11.0	73.50130839361145	pulse	2.0	t		32.0	male	white	2.389176283326701	smiling	092	sub-13	2.0	5.0	092_smiling	1.0	attractiveness	98.20665736749834	
11.0	74.20130788045617	pulse	2.0	t		32.0	male	white	2.389176283326701	smiling	092	sub-13	2.0	5.0	092_smiling	1.0	attractiveness	98.90665685434305	
11.0	74.25119316019072	fix	3.0		444	32.0	male	white	2.389176283326701	smiling	092	sub-13	2.0	5.0	092_smiling	1.0	attractiveness	98.95654213407761	3.7665870471901144
11.0	74.90126812605877	pulse	3.0	t		32.0	male	white	2.389176283326701	smiling	092	sub-13	2.0	5.0	092_smiling	1.0	attractiveness	99.60661709994565	
11.0	75.60127636671996	pulse	3.0	t		32.0	male	white	2.389176283326701	smiling	092	sub-13	2.0	5.0	092_smiling	1.0	attractiveness	100.30662534060684	
11.0	76.30126559047085	pulse	3.0	t		32.0	male	white	2.389176283326701	smiling	092	sub-13	2.0	5.0	092_smiling	1.0	attractiveness	101.00661456435773	
11.0	77.00124575854943	pulse	3.0	t		32.0	male	white	2.389176283326701	smiling	092	sub-13	2.0	5.0	092_smiling	1.0	attractiveness	101.70659473243632	
11.0	77.70124403797172	pulse	3.0	t		32.0	male	white	2.389176283326701	smiling	092	sub-13	2.0	5.0	092_smiling	1.0	attractiveness	102.4065930118586	
12.0	78.01778020738084	face	0.0		145	24.0	female	black	3.0955033824114606	smiling	099	sub-13	2.0	5.0	099_smiling	0.0		102.72312918126772	1.233323301661585
12.0	78.40123114873268	pulse	0.0	t		24.0	female	black	3.0955033824114606	smiling	099	sub-13	2.0	5.0	099_smiling	0.0		103.10658012261956	
12.0	79.10121644835954	pulse	0.0	t		24.0	female	black	3.0955033824114606	smiling	099	sub-13	2.0	5.0	099_smiling	0.0		103.80656542224642	
12.0	79.25110350904242	fix	1.0		444	24.0	female	black	3.0955033824114606	smiling	099	sub-13	2.0	5.0	099_smiling	0.0		103.95645248292931	3.7665870471901144
12.0	79.80119691829486	pulse	1.0	t		24.0	female	black	3.0955033824114606	smiling	099	sub-13	2.0	5.0	099_smiling	0.0		104.50654589218175	
12.0	80.50118221792081	pulse	1.0	t		24.0	female	black	3.0955033824114606	smiling	099	sub-13	2.0	5.0	099_smiling	0.0		105.2065311918077	
12.0	81.20117808249734	pulse	1.0	t		24.0	female	black	3.0955033824114606	smiling	099	sub-13	2.0	5.0	099_smiling	0.0		105.90652705638422	
12.0	81.90115734501023	pulse	1.0	t		24.0	female	black	3.0955033824114606	smiling	099	sub-13	2.0	5.0	099_smiling	0.0		106.60650631889712	
12.0	82.60115351144259	pulse	1.0	t		24.0	female	black	3.0955033824114606	smiling	099	sub-13	2.0	5.0	099_smiling	0.0		107.30650248532947	
13.0	83.01769055623254	face	0.0		145	23.0	male	white	2.6275368085953046	smiling	141	sub-13	2.0	5.0	141_smiling	0.0		107.72303953011942	1.2333248109398482
13.0	83.30114152777014	pulse	0.0	t		23.0	male	white	2.6275368085953046	smiling	141	sub-13	2.0	5.0	141_smiling	0.0		108.00649050165703	
13.0	84.0011241106954	pulse	0.0	t		23.0	male	white	2.6275368085953046	smiling	141	sub-13	2.0	5.0	141_smiling	0.0		108.70647308458229	
13.0	84.25101536717239	fix	1.0		444	23.0	male	white	2.6275368085953046	smiling	141	sub-13	2.0	5.0	141_smiling	0.0		108.95636434105927	3.7665864434784453
13.0	84.70111876784858	pulse	1.0	t		23.0	male	white	2.6275368085953046	smiling	141	sub-13	2.0	5.0	141_smiling	0.0		109.40646774173547	
13.0	85.40110527489878	pulse	1.0	t		23.0	male	white	2.6275368085953046	smiling	141	sub-13	2.0	5.0	141_smiling	0.0		110.10645424878567	
13.0	86.1010884615348	pulse	1.0	t		23.0	male	white	2.6275368085953046	smiling	141	sub-13	2.0	5.0	141_smiling	0.0		110.80643743542169	
13.0	86.80107647786326	pulse	1.0	t		23.0	male	white	2.6275368085953046	smiling	141	sub-13	2.0	5.0	141_smiling	0.0		111.50642545175015	
13.0	87.50105815522102	pulse	1.0	t		23.0	male	white	2.6275368085953046	smiling	141	sub-13	2.0	5.0	141_smiling	0.0		112.2064071291079	
14.0	88.01760181065083	face	0.0		145	20.0	male	black	3.1070433744528456	neutral	082	sub-13	2.0	5.0	082_neutral	0.0		112.72295078453772	1.2333251127965923
14.0	88.20105854763324	pulse	0.0	t		20.0	male	black	3.1070433744528456	neutral	082	sub-13	2.0	5.0	082_neutral	0.0		112.90640752152012	
14.0	88.9010384138569	pulse	0.0	t		20.0	male	black	3.1070433744528456	neutral	082	sub-13	2.0	5.0	082_neutral	0.0		113.60638738774378	
14.0	89.25092692344742	fix	1.0		444	20.0	male	black	3.1070433744528456	neutral	082	sub-13	2.0	5.0	082_neutral	0.0		113.95627589733431	3.7582540182274897
14.0	89.60103276915515	pulse	1.0	t		20.0	male	black	3.1070433744528456	neutral	082	sub-13	2.0	5.0	082_neutral	0.0		114.30638174304204	
14.0	90.30101022053304	pulse	1.0	t		20.0	male	black	3.1070433744528456	neutral	082	sub-13	2.0	5.0	082_neutral	0.0		115.00635919441993	
14.0	91.00098133294023	pulse	1.0	t		20.0	male	black	3.1070433744528456	neutral	082	sub-13	2.0	5.0	082_neutral	0.0		115.70633030682711	
14.0	91.70099198844719	pulse	1.0	t		20.0	male	black	3.1070433744528456	neutral	082	sub-13	2.0	5.0	082_neutral	0.0		116.40634096233407	
14.0	92.40097457137244	pulse	1.0	t		20.0	male	black	3.1070433744528456	neutral	082	sub-13	2.0	5.0	082_neutral	0.0		117.10632354525933	
15.0	93.00918094167491	face	0.0		146	36.0	female	white	2.7548746518105847	neutral	011	sub-13	2.0	5.0	011_neutral	0.0		117.7145299155618	1.241657839902473
15.0	93.10097103966064	pulse	0.0	t		36.0	female	white	2.7548746518105847	neutral	011	sub-13	2.0	5.0	011_neutral	0.0		117.80632001354752	
15.0	93.80095543371999	pulse	0.0	t		36.0	female	white	2.7548746518105847	neutral	011	sub-13	2.0	5.0	011_neutral	0.0		118.50630440760688	
15.0	94.25083878157739	fix	1.0		444	36.0	female	white	2.7548746518105847	neutral	011	sub-13	2.0	5.0	011_neutral	0.0		118.95618775546427	3.766581915642746
15.0	94.50103310119584	pulse	1.0	t		36.0	female	white	2.7548746518105847	neutral	011	sub-13	2.0	5.0	011_neutral	0.0		119.20638207508273	
15.0	95.2009287496744	pulse	1.0	t		36.0	female	white	2.7548746518105847	neutral	011	sub-13	2.0	5.0	011_neutral	0.0		119.90627772356129	
15.0	95.9009161622912	pulse	1.0	t		36.0	female	white	2.7548746518105847	neutral	011	sub-13	2.0	5.0	011_neutral	0.0		120.60626513617808	
15.0	96.60090176377298	pulse	1.0	t		36.0	female	white	2.7548746518105847	neutral	011	sub-13	2.0	5.0	011_neutral	0.0		121.30625073765987	
15.0	97.30089159123554	pulse	1.0	t		36.0	female	white	2.7548746518105847	neutral	011	sub-13	2.0	5.0	011_neutral	0.0		122.00624056512243	
16.0	98.01742069722013	face	0.0		146	22.0	female	west_asian	3.8205332272184642	neutral	066	sub-13	2.0	5.0	066_neutral	0.0		122.72276967110702	1.2333290369206225
16.0	98.0035652178899	pulse	0.0	t		22.0	female	west_asian	3.8205332272184642	neutral	066	sub-13	2.0	5.0	066_neutral	0.0		122.70891419177678	
16.0	98.70086822760231	pulse	0.0	t		22.0	female	west_asian	3.8205332272184642	neutral	066	sub-13	2.0	5.0	066_neutral	0.0		123.4062172014892	
16.0	99.25074973414075	fix	1.0		443	22.0	female	west_asian	3.8205332272184642	neutral	066	sub-13	2.0	5.0	066_neutral	0.0		123.95609870802764	3.7665565597617388
16.0	99.40085654578661	pulse	1.0	t		22.0	female	west_asian	3.8205332272184642	neutral	066	sub-13	2.0	5.0	066_neutral	0.0		124.1062055196735	
16.0	100.10083460087526	pulse	1.0	t		22.0	female	west_asian	3.8205332272184642	neutral	066	sub-13	2.0	5.0	066_neutral	0.0		124.80618357476214	
16.0	100.80083167287512	pulse	1.0	t		22.0	female	west_asian	3.8205332272184642	neutral	066	sub-13	2.0	5.0	066_neutral	0.0		125.506180646762	
16.0	101.50081365208871	pulse	1.0	t		22.0	female	west_asian	3.8205332272184642	neutral	066	sub-13	2.0	5.0	066_neutral	0.0		126.2061626259756	
16.0	102.20080619625287	pulse	1.0	t		22.0	female	west_asian	3.8205332272184642	neutral	066	sub-13	2.0	5.0	066_neutral	0.0		126.90615517013975	
16.0	102.90078636433145	pulse	1.0	t		22.0	female	west_asian	3.8205332272184642	neutral	066	sub-13	2.0	5.0	066_neutral	0.0		127.60613533821834	
17.0	103.0173062939025	face	0.0		146	20.0	female	white	3.9502586549940313	smiling	091	sub-13	2.0	5.0	091_smiling	0.0		127.72265526778938	1.2333552983682239
17.0	103.60078253076472	pulse	0.0	t		20.0	female	white	3.9502586549940313	smiling	091	sub-13	2.0	5.0	091_smiling	0.0		128.3061315046516	
17.0	104.25066159227072	fix	1.0		443	20.0	female	white	3.9502586549940313	smiling	091	sub-13	2.0	5.0	091_smiling	0.0		128.9560105661576	3.7665635024441144
17.0	104.3007989215298	pulse	1.0	t		20.0	female	white	3.9502586549940313	smiling	091	sub-13	2.0	5.0	091_smiling	0.0		129.0061478954167	
17.0	105.00074588548023	pulse	1.0	t		20.0	female	white	3.9502586549940313	smiling	091	sub-13	2.0	5.0	091_smiling	0.0		129.7060948593671	
17.0	105.70074416490252	pulse	1.0	t		20.0	female	white	3.9502586549940313	smiling	091	sub-13	2.0	5.0	091_smiling	0.0		130.4060931387894	
17.0	106.40072855896187	pulse	1.0	t		20.0	female	white	3.9502586549940313	smiling	091	sub-13	2.0	5.0	091_smiling	0.0		131.10607753284876	
17.0	107.1007180845686	pulse	1.0	t		20.0	female	white	3.9502586549940313	smiling	091	sub-13	2.0	5.0	091_smiling	0.0		131.80606705845548	
17.0	107.80069855450301	pulse	1.0	t		20.0	female	white	3.9502586549940313	smiling	091	sub-13	2.0	5.0	091_smiling	0.0		132.5060475283899	
18.0	108.01722509471483	face	0.0		145	28.0	male	east_asian	1.5563072025467568	neutral	005	sub-13	2.0	5.0	005_neutral	0.0		132.72257406860172	1.2333371870245173
18.0	108.50069773949281	pulse	0.0	t		28.0	male	east_asian	1.5563072025467568	neutral	005	sub-13	2.0	5.0	005_neutral	0.0		133.2060467133797	
18.0	109.20067307788077	pulse	0.0	t		28.0	male	east_asian	1.5563072025467568	neutral	005	sub-13	2.0	5.0	005_neutral	0.0		133.90602205176765	
18.0	109.25056228173935	fix	1.0		444	28.0	male	east_asian	1.5563072025467568	neutral	005	sub-13	2.0	5.0	005_neutral	0.0		133.95591125562623	3.766596102861513
18.0	109.90066773503486	pulse	1.0	t		28.0	male	east_asian	1.5563072025467568	neutral	005	sub-13	2.0	5.0	005_neutral	0.0		134.60601670892174	
18.0	110.60065424208415	pulse	1.0	t		28.0	male	east_asian	1.5563072025467568	neutral	005	sub-13	2.0	5.0	005_neutral	0.0		135.30600321597103	
18.0	111.3006422584117	pulse	1.0	t		28.0	male	east_asian	1.5563072025467568	neutral	005	sub-13	2.0	5.0	005_neutral	0.0		136.00599123229858	
18.0	112.00062242649119	pulse	1.0	t		28.0	male	east_asian	1.5563072025467568	neutral	005	sub-13	2.0	5.0	005_neutral	0.0		136.70597140037808	
18.0	112.70060742426222	pulse	1.0	t		28.0	male	east_asian	1.5563072025467568	neutral	005	sub-13	2.0	5.0	005_neutral	0.0		137.4059563981491	
19.0	113.01715838460086	face	0.0		145	37.0	male	white	3.898925586947871	neutral	101	sub-13	2.0	5.0	101_neutral	0.0		137.72250735848775	1.2333229998057504
19.0	113.40061143894263	pulse	0.0	t		37.0	male	white	3.898925586947871	neutral	101	sub-13	2.0	5.0	101_neutral	0.0		138.10596041282952	
19.0	114.10058949403219	pulse	0.0	t		37.0	male	white	3.898925586947871	neutral	101	sub-13	2.0	5.0	101_neutral	0.0		138.80593846791908	
19.0	114.25048138440661	fix	1.0		444	37.0	male	white	3.898925586947871	neutral	101	sub-13	2.0	5.0	101_neutral	0.0		138.9558303582935	3.766587349045949
19.0	114.80058596232038	pulse	1.0	t		37.0	male	white	3.898925586947871	neutral	101	sub-13	2.0	5.0	101_neutral	0.0		139.50593493620727	
19.0	115.50056160256418	pulse	1.0	t		37.0	male	white	3.898925586947871	neutral	101	sub-13	2.0	5.0	101_neutral	0.0		140.20591057645106	
19.0	116.2005565615732	pulse	1.0	t		37.0	male	white	3.898925586947871	neutral	101	sub-13	2.0	5.0	101_neutral	0.0		140.90590553546008	
19.0	116.90054820016985	pulse	1.0	t		37.0	male	white	3.898925586947871	neutral	101	sub-13	2.0	5.0	101_neutral	0.0		141.60589717405674	
19.0	117.60053319794088	pulse	1.0	t		37.0	male	white	3.898925586947871	neutral	101	sub-13	2.0	5.0	101_neutral	0.0		142.30588217182776	
20.0	118.01706873345256	face	0.0		145	31.0	female	west_asian	2.364902506963788	smiling	006	sub-13	2.0	5.0	006_smiling	0.0		142.72241770733945	1.2333272257856152
20.0	118.30052483653753	pulse	0.0	t		31.0	female	west_asian	2.364902506963788	smiling	006	sub-13	2.0	5.0	006_smiling	0.0		143.00587381042442	
20.0	119.00050409904952	pulse	0.0	t		31.0	female	west_asian	2.364902506963788	smiling	006	sub-13	2.0	5.0	006_smiling	0.0		143.7058530729364	
20.0	119.25039595923818	fix	1.0		1185	31.0	female	west_asian	2.364902506963788	smiling	006	sub-13	2.0	5.0	006_smiling	0.0		143.95574493312506	10.01647437954307
20.0	119.70050992486495	pulse	1.0	t		31.0	female	west_asian	2.364902506963788	smiling	006	sub-13	2.0	5.0	006_smiling	0.0		144.40585889875183	
20.0	120.4004734908799	pulse	1.0	t		31.0	female	west_asian	2.364902506963788	smiling	006	sub-13	2.0	5.0	006_smiling	0.0		145.1058224647668	
20.0	121.10046301648663	pulse	1.0	t		31.0	female	west_asian	2.364902506963788	smiling	006	sub-13	2.0	5.0	006_smiling	0.0		145.8058119903735	
20.0	121.80044952353592	pulse	1.0	t		31.0	female	west_asian	2.364902506963788	smiling	006	sub-13	2.0	5.0	006_smiling	0.0		146.5057984974228	
20.0	122.50043935099848	pulse	1.0	t		31.0	female	west_asian	2.364902506963788	smiling	006	sub-13	2.0	5.0	006_smiling	0.0		147.20578832488536	
20.0	123.200435215575	pulse	1.0	t		31.0	female	west_asian	2.364902506963788	smiling	006	sub-13	2.0	5.0	006_smiling	0.0		147.90578418946188	
20.0	123.90041659107692	pulse	1.0	t		31.0	female	west_asian	2.364902506963788	smiling	006	sub-13	2.0	5.0	006_smiling	0.0		148.6057655649638	
20.0	124.6004003814246	pulse	1.0	t		31.0	female	west_asian	2.364902506963788	smiling	006	sub-13	2.0	5.0	006_smiling	0.0		149.3057493553115	
20.0	125.3003932274446	pulse	1.0	t		31.0	female	west_asian	2.364902506963788	smiling	006	sub-13	2.0	5.0	006_smiling	0.0		150.0057422013315	
20.0	126.00035498232455	pulse	1.0	t		31.0	female	west_asian	2.364902506963788	smiling	006	sub-13	2.0	5.0	006_smiling	0.0		150.70570395621144	
20.0	126.70037378793631	pulse	1.0	t		31.0	female	west_asian	2.364902506963788	smiling	006	sub-13	2.0	5.0	006_smiling	0.0		151.4057227618232	
20.0	127.40035063560254	pulse	1.0	t		31.0	female	west_asian	2.364902506963788	smiling	006	sub-13	2.0	5.0	006_smiling	0.0		152.10569960948942	
20.0	128.1003468020349	pulse	1.0	t		31.0	female	west_asian	2.364902506963788	smiling	006	sub-13	2.0	5.0	006_smiling	0.0		152.80569577592178	
20.0	128.8003354220741	pulse	1.0	t		31.0	female	west_asian	2.364902506963788	smiling	006	sub-13	2.0	5.0	006_smiling	0.0		153.505684395961	
21.0	129.26687033878125	face	0.0		145	40.0	male	black	2.408674890569041	neutral	061	sub-13	2.0	5.0	061_neutral	0.0		153.97221931266813	1.2333260183631864
21.0	129.50032494768084	pulse	0.0	t		40.0	male	black	2.408674890569041	neutral	061	sub-13	2.0	5.0	061_neutral	0.0		154.20567392156772	
21.0	130.2003057194711	pulse	0.0	t		40.0	male	black	2.408674890569041	neutral	061	sub-13	2.0	5.0	061_neutral	0.0		154.90565469335797	
21.0	130.50019635714443	fix	1.0		444	40.0	male	black	2.408674890569041	neutral	061	sub-13	2.0	5.0	061_neutral	0.0		155.20554533103132	3.766584330488513
21.0	130.90030037662518	pulse	1.0	t		40.0	male	black	2.408674890569041	neutral	061	sub-13	2.0	5.0	061_neutral	0.0		155.60564935051207	
21.0	131.6002772242914	pulse	1.0	t		40.0	male	black	2.408674890569041	neutral	061	sub-13	2.0	5.0	061_neutral	0.0		156.3056261981783	
21.0	132.30026493876403	pulse	1.0	t		40.0	male	black	2.408674890569041	neutral	061	sub-13	2.0	5.0	061_neutral	0.0		157.00561391265092	
21.0	133.00024782354512	pulse	1.0	t		40.0	male	black	2.408674890569041	neutral	061	sub-13	2.0	5.0	061_neutral	0.0		157.705596797432	
21.0	133.7002424806983	pulse	1.0	t		40.0	male	black	2.408674890569041	neutral	061	sub-13	2.0	5.0	061_neutral	0.0		158.4055914545852	
22.0	134.26678068763295	face	0.0		145	28.0	male	east_asian	1.5563072025467568	smiling	005	sub-13	2.0	5.0	005_smiling	0.0		158.97212966151983	1.2333248109407577
22.0	134.40023593042906	pulse	0.0	t		28.0	male	east_asian	1.5563072025467568	smiling	005	sub-13	2.0	5.0	005_smiling	0.0		159.10558490431595	
22.0	135.1002209282001	pulse	0.0	t		28.0	male	east_asian	1.5563072025467568	smiling	005	sub-13	2.0	5.0	005_smiling	0.0		159.80556990208697	
22.0	135.5001054985737	fix	1.0		444	28.0	male	east_asian	1.5563072025467568	smiling	005	sub-13	2.0	5.0	005_smiling	0.0		160.2054544724606	3.7583201246297904
22.0	135.8002131705084	pulse	1.0	t		28.0	male	east_asian	1.5563072025467568	smiling	005	sub-13	2.0	5.0	005_smiling	0.0		160.5055621443953	
22.0	136.50019303673207	pulse	1.0	t		28.0	male	east_asian	1.5563072025467568	smiling	005	sub-13	2.0	5.0	005_smiling	0.0		161.20554201061896	
22.0	137.20018135491546	pulse	1.0	t		28.0	male	east_asian	1.5563072025467568	smiling	005	sub-13	2.0	5.0	005_smiling	0.0		161.90553032880234	
22.0	137.90016725825308	pulse	1.0	t		28.0	male	east_asian	1.5563072025467568	smiling	005	sub-13	2.0	5.0	005_smiling	0.0		162.60551623213996	
22.0	138.60015618014904	pulse	1.0	t		28.0	male	east_asian	1.5563072025467568	smiling	005	sub-13	2.0	5.0	005_smiling	0.0		163.30550515403593	
23.0	139.2584256232035	face	0.0		146	28.0	female	white	5.676880222841227	smiling	124	sub-13	2.0	5.0	124_smiling	0.0		163.96377459709038	1.2415899223660745
23.0	139.3001514410139	pulse	0.0	t		28.0	female	white	5.676880222841227	smiling	124	sub-13	2.0	5.0	124_smiling	0.0		164.00550041490078	
23.0	140.00013492950575	pulse	0.0	t		28.0	female	white	5.676880222841227	smiling	124	sub-13	2.0	5.0	124_smiling	0.0		164.70548390339263	
23.0	140.50001554556957	fix	1.0		443	28.0	female	white	5.676880222841227	smiling	124	sub-13	2.0	5.0	124_smiling	0.0		165.20536451945645	3.7665743692496108
23.0	140.70012324769004	pulse	1.0	t		28.0	female	white	5.676880222841227	smiling	124	sub-13	2.0	5.0	124_smiling	0.0		165.40547222157693	
23.0	141.400108547316	pulse	1.0	t		28.0	female	white	5.676880222841227	smiling	124	sub-13	2.0	5.0	124_smiling	0.0		166.10545752120288	
23.0	142.10009475250945	pulse	1.0	t		28.0	female	white	5.676880222841227	smiling	124	sub-13	2.0	5.0	124_smiling	0.0		166.80544372639633	
23.0	142.80008699481778	pulse	1.0	t		28.0	female	white	5.676880222841227	smiling	124	sub-13	2.0	5.0	124_smiling	0.0		167.50543596870466	
23.0	143.50006263506157	pulse	1.0	t		28.0	female	white	5.676880222841227	smiling	124	sub-13	2.0	5.0	124_smiling	0.0		168.20541160894845	
23.0	144.20006453675205	pulse	1.0	t		28.0	female	white	5.676880222841227	smiling	124	sub-13	2.0	5.0	124_smiling	0.0		168.90541351063894	
24.0	144.26658991481918	face	0.0		146	31.0	male	west_asian	1.9538400318344609	neutral	070	sub-13	2.0	5.0	070_neutral	1.0	dominance	168.97193888870606	1.2333402055819533
24.0	144.90005406235878	pulse	0.0	t		31.0	male	west_asian	1.9538400318344609	neutral	070	sub-13	2.0	5.0	070_neutral	1.0	dominance	169.60540303624566	
24.0	145.49993012040113	fix	1.0		177	31.0	male	west_asian	1.9538400318344609	neutral	070	sub-13	2.0	5.0	070_neutral	1.0	dominance	170.20527909428802	1.499974493191985
24.0	145.60004328610967	pulse	1.0	t		31.0	male	west_asian	1.9538400318344609	neutral	070	sub-13	2.0	5.0	070_neutral	1.0	dominance	170.30539225999655	
24.0	146.3000192282093	pulse	1.0	t		31.0	male	west_asian	1.9538400318344609	neutral	070	sub-13	2.0	5.0	070_neutral	1.0	dominance	171.00536820209618	
24.0	146.99990461359312	rating	2.0		294	31.0	male	west_asian	1.9538400318344609	neutral	070	sub-13	2.0	5.0	070_neutral	1.0	dominance	171.70525358748	2.49995125030091
24.0	147.00773505278403	pulse	2.0	t		31.0	male	west_asian	1.9538400318344609	neutral	070	sub-13	2.0	5.0	070_neutral	1.0	dominance	171.7130840266709	
24.0	147.69999677014357	pulse	2.0	t		31.0	male	west_asian	1.9538400318344609	neutral	070	sub-13	2.0	5.0	070_neutral	1.0	dominance	172.40534574403046	
24.0	148.2083254221975	response	2.0	d		31.0	male	west_asian	1.9538400318344609	neutral	070	sub-13	2.0	5.0	070_neutral	1.0	dominance	172.9136743960844	
24.0	148.39997663636723	pulse	2.0	t		31.0	male	west_asian	1.9538400318344609	neutral	070	sub-13	2.0	5.0	070_neutral	1.0	dominance	173.1053256102541	
24.0	149.09997038795382	pulse	2.0	t		31.0	male	west_asian	1.9538400318344609	neutral	070	sub-13	2.0	5.0	070_neutral	1.0	dominance	173.8053193618407	
24.0	149.49985586389403	fix	3.0		444	31.0	male	west_asian	1.9538400318344609	neutral	070	sub-13	2.0	5.0	070_neutral	1.0	dominance	174.2052048377809	3.76658674533428
24.0	149.79996353582874	pulse	3.0	t		31.0	male	west_asian	1.9538400318344609	neutral	070	sub-13	2.0	5.0	070_neutral	1.0	dominance	174.50531250971562	
24.0	150.4999406853508	pulse	3.0	t		31.0	male	west_asian	1.9538400318344609	neutral	070	sub-13	2.0	5.0	070_neutral	1.0	dominance	175.20528965923768	
24.0	151.1999407759081	pulse	3.0	t		31.0	male	west_asian	1.9538400318344609	neutral	070	sub-13	2.0	5.0	070_neutral	1.0	dominance	175.90528974979497	
24.0	151.89991249202694	pulse	3.0	t		31.0	male	west_asian	1.9538400318344609	neutral	070	sub-13	2.0	5.0	070_neutral	1.0	dominance	176.60526146591383	
24.0	152.59990443247943	pulse	3.0	t		31.0	male	west_asian	1.9538400318344609	neutral	070	sub-13	2.0	5.0	070_neutral	1.0	dominance	177.30525340636632	
25.0	153.2664426092283	face	0.0		145	22.0	male	black	2.767608436132113	smiling	044	sub-13	2.0	5.0	044_smiling	0.0		177.9717915831152	1.233326320219021
25.0	153.29990180633513	pulse	0.0	t		22.0	male	black	2.767608436132113	smiling	044	sub-13	2.0	5.0	044_smiling	0.0		178.005250780222	
25.0	153.99989767091165	pulse	0.0	t		22.0	male	black	2.767608436132113	smiling	044	sub-13	2.0	5.0	044_smiling	0.0		178.70524664479854	
25.0	154.49976892944733	fix	1.0		443	22.0	male	black	2.767608436132113	smiling	044	sub-13	2.0	5.0	044_smiling	0.0		179.2051179033342	3.7665861416226107
25.0	154.69987693342364	pulse	1.0	t		22.0	male	black	2.767608436132113	smiling	044	sub-13	2.0	5.0	044_smiling	0.0		179.40522590731052	
25.0	155.3998567996473	pulse	1.0	t		22.0	male	black	2.767608436132113	smiling	044	sub-13	2.0	5.0	044_smiling	0.0		180.10520577353418	
25.0	156.0998559846371	pulse	1.0	t		22.0	male	black	2.767608436132113	smiling	044	sub-13	2.0	5.0	044_smiling	0.0		180.80520495852397	
25.0	156.79983434158157	pulse	1.0	t		22.0	male	black	2.767608436132113	smiling	044	sub-13	2.0	5.0	044_smiling	0.0		181.50518331546846	
25.0	157.4998220560542	pulse	1.0	t		22.0	male	black	2.767608436132113	smiling	044	sub-13	2.0	5.0	044_smiling	0.0		182.20517102994108	
25.0	158.1998130909392	pulse	1.0	t		22.0	male	black	2.767608436132113	smiling	044	sub-13	2.0	5.0	044_smiling	0.0		182.90516206482607	
26.0	158.26635507106994	face	0.0		146	19.0	female	white	4.298846000795861	neutral	100	sub-13	2.0	5.0	100_neutral	0.0		182.97170404495682	1.2333242072290886
26.0	158.8998017109784	pulse	0.0	t		19.0	female	white	4.298846000795861	neutral	100	sub-13	2.0	5.0	100_neutral	0.0		183.6051506848653	
26.0	159.49967927829903	fix	1.0		443	19.0	female	white	4.298846000795861	neutral	100	sub-13	2.0	5.0	100_neutral	0.0		184.2050282521859	3.7665870471901144
26.0	159.59979304771923	pulse	1.0	t		19.0	female	white	4.298846000795861	neutral	100	sub-13	2.0	5.0	100_neutral	0.0		184.30514202160612	
26.0	160.29977049909712	pulse	1.0	t		19.0	female	white	4.298846000795861	neutral	100	sub-13	2.0	5.0	100_neutral	0.0		185.005119472984	
26.0	160.99975821356975	pulse	1.0	t		19.0	female	white	4.298846000795861	neutral	100	sub-13	2.0	5.0	100_neutral	0.0		185.70510718745663	
26.0	161.6997462298973	pulse	1.0	t		19.0	female	white	4.298846000795861	neutral	100	sub-13	2.0	5.0	100_neutral	0.0		186.40509520378419	
26.0	162.39973152952416	pulse	1.0	t		19.0	female	white	4.298846000795861	neutral	100	sub-13	2.0	5.0	100_neutral	0.0		187.10508050341105	
26.0	163.09972588482242	pulse	1.0	t		19.0	female	white	4.298846000795861	neutral	100	sub-13	2.0	5.0	100_neutral	0.0		187.8050748587093	
27.0	163.26626632548914	face	0.0		146	27.0	female	white	3.504576203740549	neutral	144	sub-13	2.0	5.0	144_neutral	0.0		187.97161529937603	1.2333236035174195
27.0	163.79971209001587	pulse	0.0	t		27.0	female	white	3.504576203740549	neutral	144	sub-13	2.0	5.0	144_neutral	0.0		188.50506106390276	
27.0	164.49958992900656	fix	1.0		444	27.0	female	white	3.504576203740549	neutral	144	sub-13	2.0	5.0	144_neutral	0.0		189.20493890289345	3.766587349045949
27.0	164.50703459658916	pulse	1.0	t		27.0	female	white	3.504576203740549	neutral	144	sub-13	2.0	5.0	144_neutral	0.0		189.21238357047605	
27.0	165.19968540597029	pulse	1.0	t		27.0	female	white	3.504576203740549	neutral	144	sub-13	2.0	5.0	144_neutral	0.0		189.90503437985717	
27.0	165.89967281858708	pulse	1.0	t		27.0	female	white	3.504576203740549	neutral	144	sub-13	2.0	5.0	144_neutral	0.0		190.60502179247396	
27.0	166.59965630707893	pulse	1.0	t		27.0	female	white	3.504576203740549	neutral	144	sub-13	2.0	5.0	144_neutral	0.0		191.30500528096582	
27.0	167.29965036052135	pulse	1.0	t		27.0	female	white	3.504576203740549	neutral	144	sub-13	2.0	5.0	144_neutral	0.0		192.00499933440824	
27.0	167.99963626385897	pulse	1.0	t		27.0	female	white	3.504576203740549	neutral	144	sub-13	2.0	5.0	144_neutral	0.0		192.70498523774586	
28.0	168.2661772780525	face	0.0		145	24.0	female	east_asian	2.9076800636689217	neutral	034	sub-13	2.0	5.0	034_neutral	0.0		192.9715262519394	1.2333242072281791
28.0	168.6996294117348	pulse	0.0	t		24.0	female	east_asian	2.9076800636689217	neutral	034	sub-13	2.0	5.0	034_neutral	0.0		193.4049783856217	
28.0	169.39960897610263	pulse	0.0	t		24.0	female	east_asian	2.9076800636689217	neutral	034	sub-13	2.0	5.0	034_neutral	0.0		194.1049579499895	
28.0	169.4995014852807	fix	1.0		444	24.0	female	east_asian	2.9076800636689217	neutral	034	sub-13	2.0	5.0	034_neutral	0.0		194.20485045916757	3.766587952757618
28.0	170.0996018221217	pulse	1.0	t		24.0	female	east_asian	2.9076800636689217	neutral	034	sub-13	2.0	5.0	034_neutral	0.0		194.8049507960086	
28.0	170.79958440504697	pulse	1.0	t		24.0	female	east_asian	2.9076800636689217	neutral	034	sub-13	2.0	5.0	034_neutral	0.0		195.50493337893386	
28.0	171.49957181766376	pulse	1.0	t		24.0	female	east_asian	2.9076800636689217	neutral	034	sub-13	2.0	5.0	034_neutral	0.0		196.20492079155065	
28.0	172.19955923027965	pulse	1.0	t		24.0	female	east_asian	2.9076800636689217	neutral	034	sub-13	2.0	5.0	034_neutral	0.0		196.90490820416653	
28.0	172.89954845403054	pulse	1.0	t		24.0	female	east_asian	2.9076800636689217	neutral	034	sub-13	2.0	5.0	034_neutral	0.0		197.60489742791742	
29.0	173.2660894380383	face	0.0		145	27.0	male	black	3.5523278949462798	neutral	042	sub-13	2.0	5.0	042_neutral	0.0		197.9714384119252	1.2333220942382468
29.0	173.5995391870606	pulse	0.0	t		27.0	male	black	3.5523278949462798	neutral	042	sub-13	2.0	5.0	042_neutral	0.0		198.30488816094748	
29.0	174.29952599596572	pulse	0.0	t		27.0	male	black	3.5523278949462798	neutral	042	sub-13	2.0	5.0	042_neutral	0.0		199.0048749698526	
29.0	174.49941153227655	fix	1.0		444	27.0	male	black	3.5523278949462798	neutral	042	sub-13	2.0	5.0	042_neutral	0.0		199.20476050616344	3.766590367603385
29.0	174.9995161252832	pulse	1.0	t		27.0	male	black	3.5523278949462798	neutral	042	sub-13	2.0	5.0	042_neutral	0.0		199.7048650991701	
29.0	175.69950202862083	pulse	1.0	t		27.0	male	black	3.5523278949462798	neutral	042	sub-13	2.0	5.0	042_neutral	0.0		200.4048510025077	
29.0	176.39949789319826	pulse	1.0	t		27.0	male	black	3.5523278949462798	neutral	042	sub-13	2.0	5.0	042_neutral	0.0		201.10484686708514	
29.0	177.09945210168507	pulse	1.0	t		27.0	male	black	3.5523278949462798	neutral	042	sub-13	2.0	5.0	042_neutral	0.0		201.80480107557196	
29.0	177.79947754812247	pulse	1.0	t		27.0	male	black	3.5523278949462798	neutral	042	sub-13	2.0	5.0	042_neutral	0.0		202.50482652200935	
30.0	178.26600189987994	face	0.0		145	31.0	female	east_asian	3.395941106247513	smiling	087	sub-13	2.0	5.0	087_smiling	0.0		202.97135087376682	1.2333223960940813
30.0	178.4994426234157	pulse	0.0	t		31.0	female	east_asian	3.395941106247513	smiling	087	sub-13	2.0	5.0	087_smiling	0.0		203.20479159730257	
30.0	179.19943939355971	pulse	0.0	t		31.0	female	east_asian	3.395941106247513	smiling	087	sub-13	2.0	5.0	087_smiling	0.0		203.9047883674466	
30.0	179.49932429597402	fix	1.0		444	31.0	female	east_asian	3.395941106247513	smiling	087	sub-13	2.0	5.0	087_smiling	0.0		204.2046732698609	3.766587349045949
30.0	179.89942801359894	pulse	1.0	t		31.0	female	east_asian	3.395941106247513	smiling	087	sub-13	2.0	5.0	087_smiling	0.0		204.60477698748582	
30.0	180.5994341412702	pulse	1.0	t		31.0	female	east_asian	3.395941106247513	smiling	087	sub-13	2.0	5.0	087_smiling	0.0		205.30478311515708	
30.0	181.29939982027508	pulse	1.0	t		31.0	female	east_asian	3.395941106247513	smiling	087	sub-13	2.0	5.0	087_smiling	0.0		206.00474879416197	
30.0	181.99937998835458	pulse	1.0	t		31.0	female	east_asian	3.395941106247513	smiling	087	sub-13	2.0	5.0	087_smiling	0.0		206.70472896224146	
30.0	182.69939547355307	pulse	1.0	t		31.0	female	east_asian	3.395941106247513	smiling	087	sub-13	2.0	5.0	087_smiling	0.0		207.40474444743995	
31.0	183.26591164501997	face	0.0		145	47.0	male	east_asian	2.171110226820533	smiling	024	sub-13	2.0	5.0	024_smiling	0.0		207.97126061890685	1.2333248109398482
31.0	183.3993668878161	pulse	0.0	t		47.0	male	east_asian	2.171110226820533	smiling	024	sub-13	2.0	5.0	024_smiling	0.0		208.10471586170297	
31.0	184.09935128187544	pulse	0.0	t		47.0	male	east_asian	2.171110226820533	smiling	024	sub-13	2.0	5.0	024_smiling	0.0		208.80470025576233	
31.0	184.49923645595982	fix	1.0		444	47.0	male	east_asian	2.171110226820533	smiling	024	sub-13	2.0	5.0	024_smiling	0.0		209.2045854298467	3.7665622950216857
31.0	184.79934442975036	pulse	1.0	t		47.0	male	east_asian	2.171110226820533	smiling	024	sub-13	2.0	5.0	024_smiling	0.0		209.50469340363725	
31.0	185.49932278669576	pulse	1.0	t		47.0	male	east_asian	2.171110226820533	smiling	024	sub-13	2.0	5.0	024_smiling	0.0		210.20467176058264	
31.0	186.1993189531281	pulse	1.0	t		47.0	male	east_asian	2.171110226820533	smiling	024	sub-13	2.0	5.0	024_smiling	0.0		210.904667927015	
31.0	186.89929881935177	pulse	1.0	t		47.0	male	east_asian	2.171110226820533	smiling	024	sub-13	2.0	5.0	024_smiling	0.0		211.60464779323866	
31.0	187.59928230784362	pulse	1.0	t		47.0	male	east_asian	2.171110226820533	smiling	024	sub-13	2.0	5.0	024_smiling	0.0		212.3046312817305	
32.0	188.2657987509815	face	0.0		145	19.0	male	white	3.2522881018702745	smiling	018	sub-13	2.0	5.0	018_smiling	0.0		212.9711477248684	1.2333483556858482
32.0	188.29928209654508	pulse	0.0	t		19.0	male	white	3.2522881018702745	smiling	018	sub-13	2.0	5.0	018_smiling	0.0		213.00463107043197	
32.0	188.99926920730604	pulse	0.0	t		19.0	male	white	3.2522881018702745	smiling	018	sub-13	2.0	5.0	018_smiling	0.0		213.70461818119293	
32.0	189.49914710666735	fix	1.0		444	19.0	male	white	3.2522881018702745	smiling	018	sub-13	2.0	5.0	018_smiling	0.0		214.20449608055424	3.774915850171965
32.0	189.6992572236336	pulse	1.0	t		19.0	male	white	3.2522881018702745	smiling	018	sub-13	2.0	5.0	018_smiling	0.0		214.40460619752048	
32.0	190.3992373917131	pulse	1.0	t		19.0	male	white	3.2522881018702745	smiling	018	sub-13	2.0	5.0	018_smiling	0.0		215.10458636559997	
32.0	191.0992287284539	pulse	1.0	t		19.0	male	white	3.2522881018702745	smiling	018	sub-13	2.0	5.0	018_smiling	0.0		215.8045777023408	
32.0	191.79920768911006	pulse	1.0	t		19.0	male	white	3.2522881018702745	smiling	018	sub-13	2.0	5.0	018_smiling	0.0		216.50455666299695	
32.0	192.49919661100512	pulse	1.0	t		19.0	male	white	3.2522881018702745	smiling	018	sub-13	2.0	5.0	018_smiling	0.0		217.204545584892	
32.0	193.19919368300498	pulse	1.0	t		19.0	male	white	3.2522881018702745	smiling	018	sub-13	2.0	5.0	018_smiling	0.0		217.90454265689186	
33.0	193.27406295683932	face	0.0		146	24.0	male	white	3.1153999204138483	smiling	012	sub-13	2.0	5.0	012_smiling	0.0		217.9794119307262	1.2333296406322916
33.0	193.89917445479523	pulse	0.0	t		24.0	male	white	3.1153999204138483	smiling	012	sub-13	2.0	5.0	012_smiling	0.0		218.6045234286821	
33.0	194.5073925974716	fix	1.0		443	24.0	male	white	3.1153999204138483	smiling	012	sub-13	2.0	5.0	012_smiling	0.0		219.2127415713585	3.766585839766776
33.0	194.59925363155025	pulse	1.0	t		24.0	male	white	3.1153999204138483	smiling	012	sub-13	2.0	5.0	012_smiling	0.0		219.30460260543714	
33.0	195.2991483744613	pulse	1.0	t		24.0	male	white	3.1153999204138483	smiling	012	sub-13	2.0	5.0	012_smiling	0.0		220.0044973483482	
33.0	195.99913699450053	pulse	1.0	t		24.0	male	white	3.1153999204138483	smiling	012	sub-13	2.0	5.0	012_smiling	0.0		220.70448596838742	
33.0	196.69912893495302	pulse	1.0	t		24.0	male	white	3.1153999204138483	smiling	012	sub-13	2.0	5.0	012_smiling	0.0		221.4044779088399	
33.0	197.39911423457988	pulse	1.0	t		24.0	male	white	3.1153999204138483	smiling	012	sub-13	2.0	5.0	012_smiling	0.0		222.10446320846677	
33.0	198.09910315647494	pulse	1.0	t		24.0	male	white	3.1153999204138483	smiling	012	sub-13	2.0	5.0	012_smiling	0.0		222.80445213036182	
34.0	198.27397843723838	face	0.0		146	22.0	male	black	2.767608436132113	neutral	044	sub-13	2.0	5.0	044_neutral	0.0		222.97932741112527	1.2416581417583075
34.0	198.79909902105146	pulse	0.0	t		22.0	male	black	2.767608436132113	neutral	044	sub-13	2.0	5.0	044_neutral	0.0		223.50444799493835	
34.0	199.4990704353154	pulse	0.0	t		22.0	male	black	2.767608436132113	neutral	044	sub-13	2.0	5.0	044_neutral	0.0		224.20441940920227	
34.0	199.5156365789967	fix	1.0		443	22.0	male	black	2.767608436132113	neutral	044	sub-13	2.0	5.0	044_neutral	0.0		224.22098555288358	3.75003056289097
34.0	200.19906931844935	pulse	1.0	t		22.0	male	black	2.767608436132113	neutral	044	sub-13	2.0	5.0	044_neutral	0.0		224.90441829233623	
34.0	200.8990537125087	pulse	1.0	t		22.0	male	black	2.767608436132113	neutral	044	sub-13	2.0	5.0	044_neutral	0.0		225.6044026863956	
34.0	201.5990365972889	pulse	1.0	t		22.0	male	black	2.767608436132113	neutral	044	sub-13	2.0	5.0	044_neutral	0.0		226.30438557117577	
34.0	202.2990243117615	pulse	1.0	t		22.0	male	black	2.767608436132113	neutral	044	sub-13	2.0	5.0	044_neutral	0.0		227.0043732856484	
34.0	202.9990171577806	pulse	1.0	t		22.0	male	black	2.767608436132113	neutral	044	sub-13	2.0	5.0	044_neutral	0.0		227.70436613166748	
35.0	203.26566714188766	face	0.0		146	26.0	female	white	4.854755272582572	neutral	027	sub-13	2.0	5.0	027_neutral	0.0		227.97101611577455	1.2415476625656083
35.0	203.69900849452142	pulse	0.0	t		26.0	female	white	4.854755272582572	neutral	027	sub-13	2.0	5.0	027_neutral	0.0		228.4043574684083	
35.0	204.39899107744668	pulse	0.0	t		26.0	female	white	4.854755272582572	neutral	027	sub-13	2.0	5.0	027_neutral	0.0		229.10434005133357	
35.0	204.50721480445327	fix	1.0		444	26.0	female	white	4.854755272582572	neutral	027	sub-13	2.0	5.0	027_neutral	0.0		229.21256377834015	3.766585839766776
35.0	205.09898181047583	pulse	1.0	t		26.0	female	white	4.854755272582572	neutral	027	sub-13	2.0	5.0	027_neutral	0.0		229.80433078436272	
35.0	205.79896228041116	pulse	1.0	t		26.0	female	white	4.854755272582572	neutral	027	sub-13	2.0	5.0	027_neutral	0.0		230.50431125429805	
35.0	206.49895120230622	pulse	1.0	t		26.0	female	white	4.854755272582572	neutral	027	sub-13	2.0	5.0	027_neutral	0.0		231.2043001761931	
35.0	207.1989558206992	pulse	1.0	t		26.0	female	white	4.854755272582572	neutral	027	sub-13	2.0	5.0	027_neutral	0.0		231.9043047945861	
35.0	207.8989233108382	pulse	1.0	t		26.0	female	white	4.854755272582572	neutral	027	sub-13	2.0	5.0	027_neutral	0.0		232.60427228472508	
36.0	208.27380064422005	face	0.0		145	25.0	female	black	3.858336649423	neutral	126	sub-13	2.0	5.0	126_neutral	1.0	trustworthiness	232.97914961810693	1.23332299980666
36.0	208.59891857170305	pulse	0.0	t		25.0	female	black	3.858336649423	neutral	126	sub-13	2.0	5.0	126_neutral	1.0	trustworthiness	233.30426754558994	
36.0	209.29890417318575	pulse	0.0	t		25.0	female	black	3.858336649423	neutral	126	sub-13	2.0	5.0	126_neutral	1.0	trustworthiness	234.00425314707263	
36.0	209.5071236440267	fix	1.0		177	25.0	female	black	3.858336649423	neutral	126	sub-13	2.0	5.0	126_neutral	1.0	trustworthiness	234.2124726179136	1.4999766061810078
36.0	209.9988930950808	pulse	1.0	t		25.0	female	black	3.858336649423	neutral	126	sub-13	2.0	5.0	126_neutral	1.0	trustworthiness	234.7042420689677	
36.0	210.69886028336396	pulse	1.0	t		25.0	female	black	3.858336649423	neutral	126	sub-13	2.0	5.0	126_neutral	1.0	trustworthiness	235.40420925725084	
36.0	211.0071002502077	rating	2.0		295	25.0	female	black	3.858336649423	neutral	126	sub-13	2.0	5.0	126_neutral	1.0	trustworthiness	235.7124492240946	2.5082888071001435
36.0	211.3988564497963	pulse	2.0	t		25.0	female	black	3.858336649423	neutral	126	sub-13	2.0	5.0	126_neutral	1.0	trustworthiness	236.1042054236832	
36.0	211.9988632113641	response	2.0	n		25.0	female	black	3.858336649423	neutral	126	sub-13	2.0	5.0	126_neutral	1.0	trustworthiness	236.70421218525098	
36.0	212.09884899396047	pulse	2.0	t		25.0	female	black	3.858336649423	neutral	126	sub-13	2.0	5.0	126_neutral	1.0	trustworthiness	236.80419796784736	
36.0	212.79882795461663	pulse	2.0	t		25.0	female	black	3.858336649423	neutral	126	sub-13	2.0	5.0	126_neutral	1.0	trustworthiness	237.5041769285035	
36.0	213.49883468599864	pulse	2.0	t		25.0	female	black	3.858336649423	neutral	126	sub-13	2.0	5.0	126_neutral	1.0	trustworthiness	238.20418365988553	
36.0	213.51538905730786	fix	3.0		443	25.0	female	black	3.858336649423	neutral	126	sub-13	2.0	5.0	126_neutral	1.0	trustworthiness	238.22073803119474	3.7582519052375574
36.0	214.19882390974954	pulse	3.0	t		25.0	female	black	3.858336649423	neutral	126	sub-13	2.0	5.0	126_neutral	1.0	trustworthiness	238.90417288363642	
36.0	214.89880045556083	pulse	3.0	t		25.0	female	black	3.858336649423	neutral	126	sub-13	2.0	5.0	126_neutral	1.0	trustworthiness	239.60414942944772	
36.0	215.59877609580371	pulse	3.0	t		25.0	female	black	3.858336649423	neutral	126	sub-13	2.0	5.0	126_neutral	1.0	trustworthiness	240.3041250696906	
36.0	216.29877588450518	pulse	3.0	t		25.0	female	black	3.858336649423	neutral	126	sub-13	2.0	5.0	126_neutral	1.0	trustworthiness	241.00412485839206	
36.0	216.99876148598696	pulse	3.0	t		25.0	female	black	3.858336649423	neutral	126	sub-13	2.0	5.0	126_neutral	1.0	trustworthiness	241.70411045987385	
37.0	217.27364096254541	face	0.0		145	54.0	female	white	2.286908077994429	smiling	136	sub-13	2.0	5.0	136_smiling	0.0		241.9789899364323	1.2333251127956828
37.0	217.6987573505644	pulse	0.0	t		54.0	female	white	2.286908077994429	smiling	136	sub-13	2.0	5.0	136_smiling	0.0		242.40410632445128	
37.0	218.3987414427679	pulse	0.0	t		54.0	female	white	2.286908077994429	smiling	136	sub-13	2.0	5.0	136_smiling	0.0		243.1040904166548	
37.0	218.5069660753411	fix	1.0		444	54.0	female	white	2.286908077994429	smiling	136	sub-13	2.0	5.0	136_smiling	0.0		243.21231504922798	3.7665852360560166
37.0	219.09873217579707	pulse	1.0	t		54.0	female	white	2.286908077994429	smiling	136	sub-13	2.0	5.0	136_smiling	0.0		243.80408114968395	
37.0	219.7987081178967	pulse	1.0	t		54.0	female	white	2.286908077994429	smiling	136	sub-13	2.0	5.0	136_smiling	0.0		244.50405709178358	
37.0	220.49870579360731	pulse	1.0	t		54.0	female	white	2.286908077994429	smiling	136	sub-13	2.0	5.0	136_smiling	0.0		245.2040547674942	
37.0	221.19869260251244	pulse	1.0	t		54.0	female	white	2.286908077994429	smiling	136	sub-13	2.0	5.0	136_smiling	0.0		245.90404157639932	
37.0	221.89867820399422	pulse	1.0	t		54.0	female	white	2.286908077994429	smiling	136	sub-13	2.0	5.0	136_smiling	0.0		246.6040271778811	
38.0	222.2735513113971	face	0.0		145	40.0	male	black	2.408674890569041	smiling	061	sub-13	2.0	5.0	061_smiling	0.0		246.978900285284	1.2333269239297806
38.0	222.59866954073505	pulse	0.0	t		40.0	male	black	2.408674890569041	smiling	061	sub-13	2.0	5.0	061_smiling	0.0		247.30401851462193	
38.0	223.2986557459294	pulse	0.0	t		40.0	male	black	2.408674890569041	smiling	061	sub-13	2.0	5.0	061_smiling	0.0		248.0040047198163	
38.0	223.5068782353269	fix	1.0		444	40.0	male	black	2.408674890569041	smiling	061	sub-13	2.0	5.0	061_smiling	0.0		248.21222720921378	3.766584028633588
38.0	223.99864255483453	pulse	1.0	t		40.0	male	black	2.408674890569041	smiling	061	sub-13	2.0	5.0	061_smiling	0.0		248.70399152872142	
38.0	224.69863358971952	pulse	1.0	t		40.0	male	black	2.408674890569041	smiling	061	sub-13	2.0	5.0	061_smiling	0.0		249.4039825636064	
38.0	225.39861617264478	pulse	1.0	t		40.0	male	black	2.408674890569041	smiling	061	sub-13	2.0	5.0	061_smiling	0.0		250.10396514653166	
38.0	226.09860086855997	pulse	1.0	t		40.0	male	black	2.408674890569041	smiling	061	sub-13	2.0	5.0	061_smiling	0.0		250.80394984244685	
38.0	226.79859099787745	pulse	1.0	t		40.0	male	black	2.408674890569041	smiling	061	sub-13	2.0	5.0	061_smiling	0.0		251.50393997176434	
39.0	227.27346226396048	face	0.0		145	22.0	female	west_asian	3.8205332272184642	smiling	066	sub-13	2.0	5.0	066_smiling	0.0		251.97881123784737	1.2333248109398482
39.0	227.49857780678258	pulse	0.0	t		22.0	female	west_asian	3.8205332272184642	smiling	066	sub-13	2.0	5.0	066_smiling	0.0		252.20392678066946	
39.0	228.19854590063323	pulse	0.0	t		22.0	female	west_asian	3.8205332272184642	smiling	066	sub-13	2.0	5.0	066_smiling	0.0		252.90389487452012	
39.0	228.50678707490033	fix	1.0		444	22.0	female	west_asian	3.8205332272184642	smiling	066	sub-13	2.0	5.0	066_smiling	0.0		253.21213604878722	3.7499315542154363
39.0	228.89855444315026	pulse	1.0	t		22.0	female	west_asian	3.8205332272184642	smiling	066	sub-13	2.0	5.0	066_smiling	0.0		253.60390341703715	
39.0	229.5985379316421	pulse	1.0	t		22.0	female	west_asian	3.8205332272184642	smiling	066	sub-13	2.0	5.0	066_smiling	0.0		254.303886905529	
39.0	230.2985407389001	pulse	1.0	t		22.0	female	west_asian	3.8205332272184642	smiling	066	sub-13	2.0	5.0	066_smiling	0.0		255.003889712787	
39.0	230.9985218125471	pulse	1.0	t		22.0	female	west_asian	3.8205332272184642	smiling	066	sub-13	2.0	5.0	066_smiling	0.0		255.70387078643398	
39.0	231.69850409361652	pulse	1.0	t		22.0	female	west_asian	3.8205332272184642	smiling	066	sub-13	2.0	5.0	066_smiling	0.0		256.4038530675034	
40.0	232.25671862911577	fix	0.0		720													256.96206760300265	5.999896765344602
40.0	232.3984969396356	pulse	0.0	t														257.1038459135225	
40.0	233.0984816355508	pulse	0.0	t														257.8038306094377	
40.0	233.7984618036303	pulse	0.0	t														258.5038107775172	
40.0	234.49845102738118	pulse	0.0	t														259.20380000126806	
40.0	235.19844538267944	pulse	0.0	t														259.9037943565663	
40.0	235.89842524890219	pulse	0.0	t														260.60377422278907	
40.0	236.59841326523065	pulse	0.0	t														261.30376223911753	
40.0	237.29840279083737	pulse	0.0	t														262.00375176472426	
40.0	237.9983877886075	pulse	0.0	t														262.7037367624944	
