trial_nr	onset	event_type	phase	response	nr_frames	face_age	face_sex	face_eth	attractiveness	expression	face_id	sub_id	ses	run	trial_type	catch	rating_type	onset_abs	duration
-1.0	0.060069184517487884	fix	0.0		713													28.476234273504815	5.95785449518371
-1.0	0.7015331071452238	pulse	0.0	t														29.11769819613255	
-1.0	1.4015237497296766	pulse	0.0	t														29.817688838717004	
-1.0	2.10148873487924	pulse	0.0	t														30.517653823866567	
-1.0	2.8014685107846162	pulse	0.0	t														31.217633599771943	
-1.0	3.5014428533504542	pulse	0.0	t														31.91760794233778	
-1.0	4.201428062591731	pulse	0.0	t														32.61759315157906	
-1.0	4.901406329237943	pulse	0.0	t														33.31757141822527	
-1.0	5.601375842168636	pulse	0.0	t														34.01754093115596	
0.0	6.017923679701198	face	0.0		144	25.0	female	black	3.858336649423	smiling	126	sub-10	1.0	5.0	126_smiling	0.0		34.434088768688525	1.2333072734290909
0.0	6.301387614403211	pulse	0.0	t		25.0	female	black	3.858336649423	smiling	126	sub-10	1.0	5.0	126_smiling	0.0		34.71755270339054	
0.0	7.001346562508843	pulse	0.0	t		25.0	female	black	3.858336649423	smiling	126	sub-10	1.0	5.0	126_smiling	0.0		35.41751165149617	
0.0	7.251230953130289	fix	1.0		445	25.0	female	black	3.858336649423	smiling	126	sub-10	1.0	5.0	126_smiling	0.0		35.667396042117616	3.7582082659173466
0.0	7.701399688488891	pulse	1.0	t		25.0	female	black	3.858336649423	smiling	126	sub-10	1.0	5.0	126_smiling	0.0		36.11756477747622	
0.0	8.401298568012862	pulse	1.0	t		25.0	female	black	3.858336649423	smiling	126	sub-10	1.0	5.0	126_smiling	0.0		36.81746365700019	
0.0	9.101286493929365	pulse	1.0	t		25.0	female	black	3.858336649423	smiling	126	sub-10	1.0	5.0	126_smiling	0.0		37.51745158291669	
0.0	9.801259025382024	pulse	1.0	t		25.0	female	black	3.858336649423	smiling	126	sub-10	1.0	5.0	126_smiling	0.0		38.21742411436935	
0.0	10.50123004757188	pulse	1.0	t		25.0	female	black	3.858336649423	smiling	126	sub-10	1.0	5.0	126_smiling	0.0		38.91739513655921	
1.0	11.009439219047636	face	0.0		146	37.0	male	white	3.898925586947871	smiling	101	sub-10	1.0	5.0	101_smiling	0.0		39.42560430803496	1.2416438265208853
1.0	11.201225519791478	pulse	0.0	t		37.0	male	white	3.898925586947871	smiling	101	sub-10	1.0	5.0	101_smiling	0.0		39.617390608778805	
1.0	11.901202579025266	pulse	0.0	t		37.0	male	white	3.898925586947871	smiling	101	sub-10	1.0	5.0	101_smiling	0.0		40.317367668012594	
1.0	12.251083045568521	fix	1.0		445	37.0	male	white	3.898925586947871	smiling	101	sub-10	1.0	5.0	101_smiling	0.0		40.66724813455585	3.7582076622165914
1.0	12.60117994011307	pulse	1.0	t		37.0	male	white	3.898925586947871	smiling	101	sub-10	1.0	5.0	101_smiling	0.0		41.0173450291004	
1.0	13.301164243799576	pulse	1.0	t		37.0	male	white	3.898925586947871	smiling	101	sub-10	1.0	5.0	101_smiling	0.0		41.7173293327869	
1.0	14.001140699332609	pulse	1.0	t		37.0	male	white	3.898925586947871	smiling	101	sub-10	1.0	5.0	101_smiling	0.0		42.417305788319936	
1.0	14.701120475237985	pulse	1.0	t		37.0	male	white	3.898925586947871	smiling	101	sub-10	1.0	5.0	101_smiling	0.0		43.11728556422531	
1.0	15.401095723358594	pulse	1.0	t		37.0	male	white	3.898925586947871	smiling	101	sub-10	1.0	5.0	101_smiling	0.0		43.81726081234592	
2.0	16.009290707785112	face	0.0		146	19.0	male	white	2.243931555909272	smiling	130	sub-10	1.0	5.0	130_smiling	1.0	dominance	44.42545579677244	1.241661032090633
2.0	16.101082441862673	pulse	0.0	t		19.0	male	white	2.243931555909272	smiling	130	sub-10	1.0	5.0	130_smiling	1.0	dominance	44.51724753085	
2.0	16.80105678442851	pulse	0.0	t		19.0	male	white	2.243931555909272	smiling	130	sub-10	1.0	5.0	130_smiling	1.0	dominance	45.21722187341584	
2.0	17.250951739875745	fix	1.0		177	19.0	male	white	2.243931555909272	smiling	130	sub-10	1.0	5.0	130_smiling	1.0	dominance	45.66711682886307	1.5082900678571605
2.0	17.50100788438067	pulse	1.0	t		19.0	male	white	2.243931555909272	smiling	130	sub-10	1.0	5.0	130_smiling	1.0	dominance	45.917172973368	
2.0	18.20099550843952	pulse	1.0	t		19.0	male	white	2.243931555909272	smiling	130	sub-10	1.0	5.0	130_smiling	1.0	dominance	46.617160597426846	
2.0	18.759241807732906	rating	2.0		293	19.0	male	white	2.243931555909272	smiling	130	sub-10	1.0	5.0	130_smiling	1.0	dominance	47.17540689672023	2.4915725894097704
2.0	18.901000941779785	pulse	2.0	t		19.0	male	white	2.243931555909272	smiling	130	sub-10	1.0	5.0	130_smiling	1.0	dominance	47.31716603076711	
2.0	19.600971360268886	pulse	2.0	t		19.0	male	white	2.243931555909272	smiling	130	sub-10	1.0	5.0	130_smiling	1.0	dominance	48.01713644925621	
2.0	19.83429433000856	response	2.0	w		19.0	male	white	2.243931555909272	smiling	130	sub-10	1.0	5.0	130_smiling	1.0	dominance	48.25045941899589	
2.0	20.300939665790793	pulse	2.0	t		19.0	male	white	2.243931555909272	smiling	130	sub-10	1.0	5.0	130_smiling	1.0	dominance	48.71710475477812	
2.0	21.000931213930016	pulse	2.0	t		19.0	male	white	2.243931555909272	smiling	130	sub-10	1.0	5.0	130_smiling	1.0	dominance	49.417096302917344	
2.0	21.250814397142676	fix	3.0		444	19.0	male	white	2.243931555909272	smiling	130	sub-10	1.0	5.0	130_smiling	1.0	dominance	49.66697948613	3.7582082659173466
2.0	21.700904349087068	pulse	3.0	t		19.0	male	white	2.243931555909272	smiling	130	sub-10	1.0	5.0	130_smiling	1.0	dominance	50.117069438074395	
2.0	22.40088352128805	pulse	3.0	t		19.0	male	white	2.243931555909272	smiling	130	sub-10	1.0	5.0	130_smiling	1.0	dominance	50.81704861027538	
2.0	23.10086058052184	pulse	3.0	t		19.0	male	white	2.243931555909272	smiling	130	sub-10	1.0	5.0	130_smiling	1.0	dominance	51.51702566950917	
2.0	23.80084790273031	pulse	3.0	t		19.0	male	white	2.243931555909272	smiling	130	sub-10	1.0	5.0	130_smiling	1.0	dominance	52.21701299171764	
2.0	24.500818321219413	pulse	3.0	t		19.0	male	white	2.243931555909272	smiling	130	sub-10	1.0	5.0	130_smiling	1.0	dominance	52.91698341020674	
3.0	25.009022663060023	face	0.0		146	20.0	male	black	2.609629924393156	neutral	043	sub-10	1.0	5.0	043_neutral	0.0		53.42518775204735	1.2416664654338092
3.0	25.200811076767422	pulse	0.0	t		20.0	male	black	2.609629924393156	neutral	043	sub-10	1.0	5.0	043_neutral	0.0		53.61697616575475	
3.0	25.900785721187276	pulse	0.0	t		20.0	male	black	2.609629924393156	neutral	043	sub-10	1.0	5.0	043_neutral	0.0		54.3169508101746	
3.0	26.250689128493832	fix	1.0		445	20.0	male	black	2.609629924393156	neutral	043	sub-10	1.0	5.0	043_neutral	0.0		54.66685421748116	3.7665206708370533
3.0	26.60076942116939	pulse	1.0	t		20.0	male	black	2.609629924393156	neutral	043	sub-10	1.0	5.0	043_neutral	0.0		55.016934510156716	
3.0	27.300744669289998	pulse	1.0	t		20.0	male	black	2.609629924393156	neutral	043	sub-10	1.0	5.0	043_neutral	0.0		55.716909758277325	
3.0	28.000718710005458	pulse	1.0	t		20.0	male	black	2.609629924393156	neutral	043	sub-10	1.0	5.0	043_neutral	0.0		56.416883798992785	
3.0	28.700686109972594	pulse	1.0	t		20.0	male	black	2.609629924393156	neutral	043	sub-10	1.0	5.0	043_neutral	0.0		57.11685119895992	
3.0	29.400678563666588	pulse	1.0	t		20.0	male	black	2.609629924393156	neutral	043	sub-10	1.0	5.0	043_neutral	0.0		57.816843652653915	
4.0	30.017209799330885	face	0.0		145	27.0	female	white	4.181058495821727	neutral	039	sub-10	1.0	5.0	039_neutral	0.0		58.43337488831821	1.2333118012102204
4.0	30.10066739513786	pulse	0.0	t		27.0	female	white	4.181058495821727	neutral	039	sub-10	1.0	5.0	039_neutral	0.0		58.51683248412519	
4.0	30.800644756225665	pulse	0.0	t		27.0	female	white	4.181058495821727	neutral	039	sub-10	1.0	5.0	039_neutral	0.0		59.21680984521299	
4.0	31.250521600541106	fix	1.0		445	27.0	female	white	4.181058495821727	neutral	039	sub-10	1.0	5.0	039_neutral	0.0		59.66668668952843	3.7665333486293093
4.0	31.500624230277026	pulse	1.0	t		27.0	female	white	4.181058495821727	neutral	039	sub-10	1.0	5.0	039_neutral	0.0		59.91678931926435	
4.0	32.20059163024416	pulse	1.0	t		27.0	female	white	4.181058495821727	neutral	039	sub-10	1.0	5.0	039_neutral	0.0		60.61675671923149	
4.0	32.90057472652188	pulse	1.0	t		27.0	female	white	4.181058495821727	neutral	039	sub-10	1.0	5.0	039_neutral	0.0		61.31673981550921	
4.0	33.60054967279211	pulse	1.0	t		27.0	female	white	4.181058495821727	neutral	039	sub-10	1.0	5.0	039_neutral	0.0		62.01671476177944	
4.0	34.30053548574142	pulse	1.0	t		27.0	female	white	4.181058495821727	neutral	039	sub-10	1.0	5.0	039_neutral	0.0		62.71670057472875	
5.0	35.017054949170415	face	0.0		146	28.0	male	white	3.9076800636689217	smiling	033	sub-10	1.0	5.0	033_smiling	0.0		63.43322003815774	1.2333169326993811
5.0	35.003293508973	pulse	0.0	t		28.0	male	white	3.9076800636689217	smiling	033	sub-10	1.0	5.0	033_smiling	0.0		63.41945859796033	
5.0	35.70055299316664	pulse	0.0	t		28.0	male	white	3.9076800636689217	smiling	033	sub-10	1.0	5.0	033_smiling	0.0		64.11671808215397	
5.0	36.250371881869796	fix	1.0		443	28.0	male	white	3.9076800636689217	smiling	033	sub-10	1.0	5.0	033_smiling	0.0		64.66653697085712	3.766544215304748
5.0	36.400479643092694	pulse	1.0	t		28.0	male	white	3.9076800636689217	smiling	033	sub-10	1.0	5.0	033_smiling	0.0		64.81664473208002	
5.0	37.10045187269134	pulse	1.0	t		28.0	male	white	3.9076800636689217	smiling	033	sub-10	1.0	5.0	033_smiling	0.0		65.51661696167866	
5.0	37.80043104489232	pulse	1.0	t		28.0	male	white	3.9076800636689217	smiling	033	sub-10	1.0	5.0	033_smiling	0.0		66.21659613387965	
5.0	38.500405689312174	pulse	1.0	t		28.0	male	white	3.9076800636689217	smiling	033	sub-10	1.0	5.0	033_smiling	0.0		66.9165707782995	
5.0	39.20038999299868	pulse	1.0	t		28.0	male	white	3.9076800636689217	smiling	033	sub-10	1.0	5.0	033_smiling	0.0		67.61655508198601	
5.0	39.90036856149527	pulse	1.0	t		28.0	male	white	3.9076800636689217	smiling	033	sub-10	1.0	5.0	033_smiling	0.0		68.3165336504826	
6.0	40.016916097174544	face	0.0		146	19.0	male	white	3.2522881018702745	smiling	018	sub-10	1.0	5.0	018_smiling	0.0		68.43308118616187	1.2333081789838616
6.0	40.600369768901146	pulse	0.0	t		19.0	male	white	3.2522881018702745	smiling	018	sub-10	1.0	5.0	018_smiling	0.0		69.01653485788847	
6.0	41.250224276158406	fix	1.0		443	19.0	male	white	3.2522881018702745	smiling	018	sub-10	1.0	5.0	018_smiling	0.0		69.66638936514573	3.7582070585121983
6.0	41.3003374707223	pulse	1.0	t		19.0	male	white	3.2522881018702745	smiling	018	sub-10	1.0	5.0	018_smiling	0.0		69.71650255970962	
6.0	42.00031151143412	pulse	1.0	t		19.0	male	white	3.2522881018702745	smiling	018	sub-10	1.0	5.0	018_smiling	0.0		70.41647660042145	
6.0	42.70027408176611	pulse	1.0	t		19.0	male	white	3.2522881018702745	smiling	018	sub-10	1.0	5.0	018_smiling	0.0		71.11643917075344	
6.0	43.400262007678975	pulse	1.0	t		19.0	male	white	3.2522881018702745	smiling	018	sub-10	1.0	5.0	018_smiling	0.0		71.8164270966663	
6.0	44.1002466132195	pulse	1.0	t		19.0	male	white	3.2522881018702745	smiling	018	sub-10	1.0	5.0	018_smiling	0.0		72.51641170220682	
6.0	44.800224578011694	pulse	1.0	t		19.0	male	white	3.2522881018702745	smiling	018	sub-10	1.0	5.0	018_smiling	0.0		73.21638966699902	
7.0	45.008431334670604	face	0.0		146	22.0	male	black	2.767608436132113	smiling	044	sub-10	1.0	5.0	044_smiling	0.0		73.42459642365793	1.2416432228164922
7.0	45.50020616503025	pulse	0.0	t		22.0	male	black	2.767608436132113	smiling	044	sub-10	1.0	5.0	044_smiling	0.0		73.91637125401758	
7.0	46.20018201685525	pulse	0.0	t		22.0	male	black	2.767608436132113	smiling	044	sub-10	1.0	5.0	044_smiling	0.0		74.61634710584258	
7.0	46.250074557487096	fix	1.0		445	22.0	male	black	2.767608436132113	smiling	044	sub-10	1.0	5.0	044_smiling	0.0		74.66623964647442	3.76654149863316
7.0	46.90016390572782	pulse	1.0	t		22.0	male	black	2.767608436132113	smiling	044	sub-10	1.0	5.0	044_smiling	0.0		75.31632899471515	
7.0	47.60014247422441	pulse	1.0	t		22.0	male	black	2.767608436132113	smiling	044	sub-10	1.0	5.0	044_smiling	0.0		76.01630756321174	
7.0	48.300113798268285	pulse	1.0	t		22.0	male	black	2.767608436132113	smiling	044	sub-10	1.0	5.0	044_smiling	0.0		76.71627888725561	
7.0	49.00010715752069	pulse	1.0	t		22.0	male	black	2.767608436132113	smiling	044	sub-10	1.0	5.0	044_smiling	0.0		77.41627224650802	
7.0	49.70007757600615	pulse	1.0	t		22.0	male	black	2.767608436132113	smiling	044	sub-10	1.0	5.0	044_smiling	0.0		78.11624266499348	
8.0	50.016616056120256	face	0.0		145	31.0	male	west_asian	1.9538400318344609	neutral	070	sub-10	1.0	5.0	070_neutral	0.0		78.43278114510758	1.233326893820049
8.0	50.400061879696295	pulse	0.0	t		31.0	male	west_asian	1.9538400318344609	neutral	070	sub-10	1.0	5.0	070_neutral	0.0		78.81622696868362	
8.0	51.100038637079706	pulse	0.0	t		31.0	male	west_asian	1.9538400318344609	neutral	070	sub-10	1.0	5.0	070_neutral	0.0		79.51620372606703	
8.0	51.249942949940305	fix	1.0		445	31.0	male	west_asian	1.9538400318344609	neutral	070	sub-10	1.0	5.0	070_neutral	0.0		79.66610803892763	3.766525802326214
8.0	51.80001931853985	pulse	1.0	t		31.0	male	west_asian	1.9538400318344609	neutral	070	sub-10	1.0	5.0	070_neutral	0.0		80.21618440752718	
8.0	52.499987925915775	pulse	1.0	t		31.0	male	west_asian	1.9538400318344609	neutral	070	sub-10	1.0	5.0	070_neutral	0.0		80.9161530149031	
8.0	53.19996951293069	pulse	1.0	t		31.0	male	west_asian	1.9538400318344609	neutral	070	sub-10	1.0	5.0	070_neutral	0.0		81.61613460191802	
8.0	53.899951401803264	pulse	1.0	t		31.0	male	west_asian	1.9538400318344609	neutral	070	sub-10	1.0	5.0	070_neutral	0.0		82.31611649079059	
8.0	54.59993510178538	pulse	1.0	t		31.0	male	west_asian	1.9538400318344609	neutral	070	sub-10	1.0	5.0	070_neutral	0.0		83.0161001907727	
9.0	55.01646875226652	face	0.0		145	47.0	male	east_asian	2.171110226820533	smiling	024	sub-10	1.0	5.0	024_smiling	1.0	attractiveness	83.43263384125385	1.2333087826882547
9.0	55.299903105456906	pulse	0.0	t		47.0	male	east_asian	2.171110226820533	smiling	024	sub-10	1.0	5.0	024_smiling	1.0	attractiveness	83.71606819444423	
9.0	55.9998955591509	pulse	0.0	t		47.0	male	east_asian	2.171110226820533	smiling	024	sub-10	1.0	5.0	024_smiling	1.0	attractiveness	84.41606064813823	
9.0	56.249777534954774	fix	1.0		177	47.0	male	east_asian	2.171110226820533	smiling	024	sub-10	1.0	5.0	024_smiling	1.0	attractiveness	84.6659426239421	1.4999592499589198
9.0	56.69986114800486	pulse	1.0	t		47.0	male	east_asian	2.171110226820533	smiling	024	sub-10	1.0	5.0	024_smiling	1.0	attractiveness	85.11602623699218	
9.0	57.39985179058931	pulse	1.0	t		47.0	male	east_asian	2.171110226820533	smiling	024	sub-10	1.0	5.0	024_smiling	1.0	attractiveness	85.81601687957664	
9.0	57.749736784913694	rating	2.0		294	47.0	male	east_asian	2.171110226820533	smiling	024	sub-10	1.0	5.0	024_smiling	1.0	attractiveness	86.16590187390102	2.499935101783194
9.0	58.0998373016846	pulse	2.0	t		47.0	male	east_asian	2.171110226820533	smiling	024	sub-10	1.0	5.0	024_smiling	1.0	attractiveness	86.51600239067193	
9.0	58.799813153509604	pulse	2.0	t		47.0	male	east_asian	2.171110226820533	smiling	024	sub-10	1.0	5.0	024_smiling	1.0	attractiveness	87.21597824249693	
9.0	59.08312857694909	response	2.0	n		47.0	male	east_asian	2.171110226820533	smiling	024	sub-10	1.0	5.0	024_smiling	1.0	attractiveness	87.49929366593642	
9.0	59.49976455531214	pulse	2.0	t		47.0	male	east_asian	2.171110226820533	smiling	024	sub-10	1.0	5.0	024_smiling	1.0	attractiveness	87.91592964429947	
9.0	60.199772705320356	pulse	2.0	t		47.0	male	east_asian	2.171110226820533	smiling	024	sub-10	1.0	5.0	024_smiling	1.0	attractiveness	88.61593779430768	
9.0	60.24967188669689	fix	3.0		444	47.0	male	east_asian	2.171110226820533	smiling	024	sub-10	1.0	5.0	024_smiling	1.0	attractiveness	88.66583697568421	3.7665276134357555
9.0	60.899750368262175	pulse	3.0	t		47.0	male	east_asian	2.171110226820533	smiling	024	sub-10	1.0	5.0	024_smiling	1.0	attractiveness	89.3159154572495	
9.0	61.59973467194868	pulse	3.0	t		47.0	male	east_asian	2.171110226820533	smiling	024	sub-10	1.0	5.0	024_smiling	1.0	attractiveness	90.01589976093601	
9.0	62.29970086450703	pulse	3.0	t		47.0	male	east_asian	2.171110226820533	smiling	024	sub-10	1.0	5.0	024_smiling	1.0	attractiveness	90.71586595349436	
9.0	62.99967882929923	pulse	3.0	t		47.0	male	east_asian	2.171110226820533	smiling	024	sub-10	1.0	5.0	024_smiling	1.0	attractiveness	91.41584391828655	
9.0	63.69964954963871	pulse	3.0	t		47.0	male	east_asian	2.171110226820533	smiling	024	sub-10	1.0	5.0	024_smiling	1.0	attractiveness	92.11581463862603	
10.0	64.01619950013264	face	0.0		145	36.0	female	white	2.7548746518105847	neutral	011	sub-10	1.0	5.0	011_neutral	0.0		92.43236458911997	1.2333124049182516
10.0	64.39964441815027	pulse	0.0	t		36.0	female	white	2.7548746518105847	neutral	011	sub-10	1.0	5.0	011_neutral	0.0		92.8158095071376	
10.0	65.09962570331481	pulse	0.0	t		36.0	female	white	2.7548746518105847	neutral	011	sub-10	1.0	5.0	011_neutral	0.0		93.51579079230214	
10.0	65.2495119050509	fix	1.0		445	36.0	female	white	2.7548746518105847	neutral	011	sub-10	1.0	5.0	011_neutral	0.0		93.66567699403822	3.766539989373996
10.0	65.79961151626412	pulse	1.0	t		36.0	female	white	2.7548746518105847	neutral	011	sub-10	1.0	5.0	011_neutral	0.0		94.21577660525145	
10.0	66.49957046436975	pulse	1.0	t		36.0	female	white	2.7548746518105847	neutral	011	sub-10	1.0	5.0	011_neutral	0.0		94.91573555335708	
10.0	67.19955808843224	pulse	1.0	t		36.0	female	white	2.7548746518105847	neutral	011	sub-10	1.0	5.0	011_neutral	0.0		95.61572317741957	
10.0	67.89954178841435	pulse	1.0	t		36.0	female	white	2.7548746518105847	neutral	011	sub-10	1.0	5.0	011_neutral	0.0		96.31570687740168	
10.0	68.59948745502334	pulse	1.0	t		36.0	female	white	2.7548746518105847	neutral	011	sub-10	1.0	5.0	011_neutral	0.0		97.01565254401066	
11.0	69.01605189442489	face	0.0		145	24.0	female	east_asian	2.9076800636689217	neutral	034	sub-10	1.0	5.0	034_neutral	0.0		97.43221698341222	1.2333105938050721
11.0	69.29949651058996	pulse	0.0	t		24.0	female	east_asian	2.9076800636689217	neutral	034	sub-10	1.0	5.0	034_neutral	0.0		97.71566159957729	
11.0	69.99947598464132	pulse	0.0	t		24.0	female	east_asian	2.9076800636689217	neutral	034	sub-10	1.0	5.0	034_neutral	0.0		98.41564107362865	
11.0	70.24936248822996	fix	1.0		444	24.0	female	east_asian	2.9076800636689217	neutral	034	sub-10	1.0	5.0	034_neutral	0.0		98.66552757721729	3.766541196782782
11.0	70.69945213832034	pulse	1.0	t		24.0	female	east_asian	2.9076800636689217	neutral	034	sub-10	1.0	5.0	034_neutral	0.0		99.11561722730767	
11.0	71.39943402719291	pulse	1.0	t		24.0	female	east_asian	2.9076800636689217	neutral	034	sub-10	1.0	5.0	034_neutral	0.0		99.81559911618024	
11.0	72.09941350124427	pulse	1.0	t		24.0	female	east_asian	2.9076800636689217	neutral	034	sub-10	1.0	5.0	034_neutral	0.0		100.5155785902316	
11.0	72.79939418270442	pulse	1.0	t		24.0	female	east_asian	2.9076800636689217	neutral	034	sub-10	1.0	5.0	034_neutral	0.0		101.21555927169175	
11.0	73.4993658086023	pulse	1.0	t		24.0	female	east_asian	2.9076800636689217	neutral	034	sub-10	1.0	5.0	034_neutral	0.0		101.91553089758963	
12.0	74.01590368501274	face	0.0		145	34.0	male	white	2.651014723438122	smiling	121	sub-10	1.0	5.0	121_smiling	0.0		102.43206877400007	1.2333136123233999
12.0	74.19935584748237	pulse	0.0	t		34.0	male	white	2.651014723438122	smiling	121	sub-10	1.0	5.0	121_smiling	0.0		102.6155209364697	
12.0	74.89933230301176	pulse	0.0	t		34.0	male	white	2.651014723438122	smiling	121	sub-10	1.0	5.0	121_smiling	0.0		103.31549739199909	
12.0	75.24921729733614	fix	1.0		446	34.0	male	white	2.651014723438122	smiling	121	sub-10	1.0	5.0	121_smiling	0.0		103.66538238632347	3.7748708072758745
12.0	75.59932536041379	pulse	1.0	t		34.0	male	white	2.651014723438122	smiling	121	sub-10	1.0	5.0	121_smiling	0.0		104.01549044940111	
12.0	76.29931962522096	pulse	1.0	t		34.0	male	white	2.651014723438122	smiling	121	sub-10	1.0	5.0	121_smiling	0.0		104.71548471420829	
12.0	76.99927223443228	pulse	1.0	t		34.0	male	white	2.651014723438122	smiling	121	sub-10	1.0	5.0	121_smiling	0.0		105.41543732341961	
12.0	77.69923721958185	pulse	1.0	t		34.0	male	white	2.651014723438122	smiling	121	sub-10	1.0	5.0	121_smiling	0.0		106.11540230856917	
12.0	78.39922061770994	pulse	1.0	t		34.0	male	white	2.651014723438122	smiling	121	sub-10	1.0	5.0	121_smiling	0.0		106.81538570669727	
13.0	79.02408810461202	face	0.0		145	40.0	male	black	2.408674890569041	neutral	061	sub-10	1.0	5.0	061_neutral	0.0		107.44025319359935	1.2333108956554497
13.0	79.09921488252076	pulse	0.0	t		40.0	male	black	2.408674890569041	neutral	061	sub-10	1.0	5.0	061_neutral	0.0		107.51537997150808	
13.0	79.79918771582379	pulse	0.0	t		40.0	male	black	2.408674890569041	neutral	061	sub-10	1.0	5.0	061_neutral	0.0		108.21535280481112	
13.0	80.25739900026747	fix	1.0		444	40.0	male	black	2.408674890569041	neutral	061	sub-10	1.0	5.0	061_neutral	0.0		108.6735640892548	3.766542706041946
13.0	80.49917413247749	pulse	1.0	t		40.0	male	black	2.408674890569041	neutral	061	sub-10	1.0	5.0	061_neutral	0.0		108.91533922146482	
13.0	81.19914334355781	pulse	1.0	t		40.0	male	black	2.408674890569041	neutral	061	sub-10	1.0	5.0	061_neutral	0.0		109.61530843254513	
13.0	81.89913247687946	pulse	1.0	t		40.0	male	black	2.408674890569041	neutral	061	sub-10	1.0	5.0	061_neutral	0.0		110.31529756586679	
13.0	82.59909051942668	pulse	1.0	t		40.0	male	black	2.408674890569041	neutral	061	sub-10	1.0	5.0	061_neutral	0.0		111.01525560841401	
13.0	83.2990820675659	pulse	1.0	t		40.0	male	black	2.408674890569041	neutral	061	sub-10	1.0	5.0	061_neutral	0.0		111.71524715655323	
13.0	83.99906365458446	pulse	1.0	t		40.0	male	black	2.408674890569041	neutral	061	sub-10	1.0	5.0	061_neutral	0.0		112.41522874357179	
14.0	84.02394170630942	face	0.0		146	32.0	male	white	2.389176283326701	neutral	092	sub-10	1.0	5.0	092_neutral	0.0		112.44010679529674	1.2333130086226447
14.0	84.69905912680406	pulse	0.0	t		32.0	male	white	2.389176283326701	neutral	092	sub-10	1.0	5.0	092_neutral	0.0		113.11522421579139	
14.0	85.25725471493206	fix	1.0		443	32.0	male	white	2.389176283326701	neutral	092	sub-10	1.0	5.0	092_neutral	0.0		113.67341980391939	3.7665375745564234
14.0	85.39903045084793	pulse	1.0	t		32.0	male	white	2.389176283326701	neutral	092	sub-10	1.0	5.0	092_neutral	0.0		113.81519553983526	
14.0	86.09900298230059	pulse	1.0	t		32.0	male	white	2.389176283326701	neutral	092	sub-10	1.0	5.0	092_neutral	0.0		114.51516807128792	
14.0	86.79897732486643	pulse	1.0	t		32.0	male	white	2.389176283326701	neutral	092	sub-10	1.0	5.0	092_neutral	0.0		115.21514241385375	
14.0	87.49896132670256	pulse	1.0	t		32.0	male	white	2.389176283326701	neutral	092	sub-10	1.0	5.0	092_neutral	0.0		115.91512641568988	
14.0	88.19893536741438	pulse	1.0	t		32.0	male	white	2.389176283326701	neutral	092	sub-10	1.0	5.0	092_neutral	0.0		116.6151004564017	
14.0	88.89891574702415	pulse	1.0	t		32.0	male	white	2.389176283326701	neutral	092	sub-10	1.0	5.0	092_neutral	0.0		117.31508083601148	
15.0	89.02379228948848	face	0.0		146	24.0	female	black	3.0955033824114606	smiling	099	sub-10	1.0	5.0	099_smiling	0.0		117.43995737847581	1.2333118012138584
15.0	89.59890095626906	pulse	0.0	t		24.0	female	black	3.0955033824114606	smiling	099	sub-10	1.0	5.0	099_smiling	0.0		118.01506604525639	
15.0	90.25710409070234	fix	1.0		443	24.0	female	black	3.0955033824114606	smiling	099	sub-10	1.0	5.0	099_smiling	0.0		118.67326917968967	3.758319347514771
15.0	90.29888012847005	pulse	1.0	t		24.0	female	black	3.0955033824114606	smiling	099	sub-10	1.0	5.0	099_smiling	0.0		118.71504521745737	
15.0	90.99885990437542	pulse	1.0	t		24.0	female	black	3.0955033824114606	smiling	099	sub-10	1.0	5.0	099_smiling	0.0		119.41502499336275	
15.0	91.69881341914152	pulse	1.0	t		24.0	female	black	3.0955033824114606	smiling	099	sub-10	1.0	5.0	099_smiling	0.0		120.11497850812884	
15.0	92.3988079858027	pulse	1.0	t		24.0	female	black	3.0955033824114606	smiling	099	sub-10	1.0	5.0	099_smiling	0.0		120.81497307479003	
15.0	93.09880074135071	pulse	1.0	t		24.0	female	black	3.0955033824114606	smiling	099	sub-10	1.0	5.0	099_smiling	0.0		121.51496583033804	
15.0	93.79877387650777	pulse	1.0	t		24.0	female	black	3.0955033824114606	smiling	099	sub-10	1.0	5.0	099_smiling	0.0		122.2149389654951	
16.0	94.01542343821711	face	0.0		146	22.0	female	west_asian	3.8205332272184642	smiling	066	sub-10	1.0	5.0	066_smiling	1.0	trustworthiness	122.43158852720444	1.241532744923461
16.0	94.49877629132607	pulse	0.0	t		22.0	female	west_asian	3.8205332272184642	smiling	066	sub-10	1.0	5.0	066_smiling	1.0	trustworthiness	122.9149413803134	
16.0	95.19872980609216	pulse	0.0	t		22.0	female	west_asian	3.8205332272184642	smiling	066	sub-10	1.0	5.0	066_smiling	1.0	trustworthiness	123.61489489507949	
16.0	95.25695618314057	fix	1.0		177	22.0	female	west_asian	3.8205332272184642	smiling	066	sub-10	1.0	5.0	066_smiling	1.0	trustworthiness	123.6731212721279	1.4999568351413473
16.0	95.89871441162904	pulse	1.0	t		22.0	female	west_asian	3.8205332272184642	smiling	066	sub-10	1.0	5.0	066_smiling	1.0	trustworthiness	124.31487950061637	
16.0	96.59868271715459	pulse	1.0	t		22.0	female	west_asian	3.8205332272184642	smiling	066	sub-10	1.0	5.0	066_smiling	1.0	trustworthiness	125.01484780614192	
16.0	96.75691301828192	rating	2.0		295	22.0	female	west_asian	3.8205332272184642	smiling	066	sub-10	1.0	5.0	066_smiling	1.0	trustworthiness	125.17307810726925	2.49992393325374
16.0	97.29871833570724	pulse	2.0	t		22.0	female	west_asian	3.8205332272184642	smiling	066	sub-10	1.0	5.0	066_smiling	1.0	trustworthiness	125.71488342469456	
16.0	97.88198395353902	response	2.0	w		22.0	female	west_asian	3.8205332272184642	smiling	066	sub-10	1.0	5.0	066_smiling	1.0	trustworthiness	126.29814904252635	
16.0	97.99864408007488	pulse	2.0	t		22.0	female	west_asian	3.8205332272184642	smiling	066	sub-10	1.0	5.0	066_smiling	1.0	trustworthiness	126.41480916906221	
16.0	98.6986132911552	pulse	2.0	t		22.0	female	west_asian	3.8205332272184642	smiling	066	sub-10	1.0	5.0	066_smiling	1.0	trustworthiness	127.11477838014252	
16.0	99.25683695153566	fix	3.0		443	22.0	female	west_asian	3.8205332272184642	smiling	066	sub-10	1.0	5.0	066_smiling	1.0	trustworthiness	127.67300204052299	3.766542706045584
16.0	99.39861298930191	pulse	3.0	t		22.0	female	west_asian	3.8205332272184642	smiling	066	sub-10	1.0	5.0	066_smiling	1.0	trustworthiness	127.81477807828924	
16.0	100.09858280408662	pulse	3.0	t		22.0	female	west_asian	3.8205332272184642	smiling	066	sub-10	1.0	5.0	066_smiling	1.0	trustworthiness	128.51474789307395	
16.0	100.79856529665994	pulse	3.0	t		22.0	female	west_asian	3.8205332272184642	smiling	066	sub-10	1.0	5.0	066_smiling	1.0	trustworthiness	129.21473038564727	
16.0	101.49853058366352	pulse	3.0	t		22.0	female	west_asian	3.8205332272184642	smiling	066	sub-10	1.0	5.0	066_smiling	1.0	trustworthiness	129.91469567265085	
16.0	102.19851398179162	pulse	3.0	t		22.0	female	west_asian	3.8205332272184642	smiling	066	sub-10	1.0	5.0	066_smiling	1.0	trustworthiness	130.61467907077895	
16.0	102.89848409843034	pulse	3.0	t		22.0	female	west_asian	3.8205332272184642	smiling	066	sub-10	1.0	5.0	066_smiling	1.0	trustworthiness	131.31464918741767	
17.0	103.02337965758124	face	0.0		146	19.0	male	white	2.243931555909272	neutral	130	sub-10	1.0	5.0	130_neutral	0.0		131.43954474656857	1.2333087826882547
17.0	103.59848349472304	pulse	0.0	t		19.0	male	white	2.243931555909272	neutral	130	sub-10	1.0	5.0	130_neutral	0.0		132.01464858371037	
17.0	104.2566884402695	fix	1.0		443	19.0	male	white	2.243931555909272	neutral	130	sub-10	1.0	5.0	130_neutral	0.0		132.67285352925683	3.7665396875236183
17.0	104.29847081693515	pulse	1.0	t		19.0	male	white	2.243931555909272	neutral	130	sub-10	1.0	5.0	130_neutral	0.0		132.71463590592248	
17.0	104.99843580208108	pulse	1.0	t		19.0	male	white	2.243931555909272	neutral	130	sub-10	1.0	5.0	130_neutral	0.0		133.4146008910684	
17.0	105.69853511144538	pulse	1.0	t		19.0	male	white	2.243931555909272	neutral	130	sub-10	1.0	5.0	130_neutral	0.0		134.1147002004327	
17.0	106.39839807056342	pulse	1.0	t		19.0	male	white	2.243931555909272	neutral	130	sub-10	1.0	5.0	130_neutral	0.0		134.81456315955074	
17.0	107.09837603535561	pulse	1.0	t		19.0	male	white	2.243931555909272	neutral	130	sub-10	1.0	5.0	130_neutral	0.0		135.51454112434294	
17.0	107.79835279273539	pulse	1.0	t		19.0	male	white	2.243931555909272	neutral	130	sub-10	1.0	5.0	130_neutral	0.0		136.2145178817227	
18.0	108.02322812779312	face	0.0		145	25.0	female	black	3.858336649423	neutral	126	sub-10	1.0	5.0	126_neutral	0.0		136.43939321678045	1.2333127067686291
18.0	108.4983546038493	pulse	0.0	t		25.0	female	black	3.858336649423	neutral	126	sub-10	1.0	5.0	126_neutral	0.0		136.91451969283662	
18.0	109.19831204269576	pulse	0.0	t		25.0	female	black	3.858336649423	neutral	126	sub-10	1.0	5.0	126_neutral	0.0		137.6144771316831	
18.0	109.25654083456175	fix	1.0		445	25.0	female	black	3.858336649423	neutral	126	sub-10	1.0	5.0	126_neutral	0.0		137.67270592354907	3.7582088696253777
18.0	109.8983023834262	pulse	1.0	t		25.0	female	black	3.858336649423	neutral	126	sub-10	1.0	5.0	126_neutral	0.0		138.31446747241353	
18.0	110.59827853710522	pulse	1.0	t		25.0	female	black	3.858336649423	neutral	126	sub-10	1.0	5.0	126_neutral	0.0		139.01444362609254	
18.0	111.29825438893022	pulse	1.0	t		25.0	female	black	3.858336649423	neutral	126	sub-10	1.0	5.0	126_neutral	0.0		139.71441947791755	
18.0	111.99823205187204	pulse	1.0	t		25.0	female	black	3.858336649423	neutral	126	sub-10	1.0	5.0	126_neutral	0.0		140.41439714085936	
18.0	112.6981955277588	pulse	1.0	t		25.0	female	black	3.858336649423	neutral	126	sub-10	1.0	5.0	126_neutral	0.0		141.11436061674613	
19.0	113.01474970418712	face	0.0		146	25.0	female	west_asian	2.6756864305610826	neutral	064	sub-10	1.0	5.0	064_neutral	0.0		141.43091479317445	1.2416423172580835
19.0	113.39819250923756	pulse	0.0	t		25.0	female	west_asian	2.6756864305610826	neutral	064	sub-10	1.0	5.0	064_neutral	0.0		141.8143575982249	
19.0	114.09817077588013	pulse	0.0	t		25.0	female	west_asian	2.6756864305610826	neutral	064	sub-10	1.0	5.0	064_neutral	0.0		142.51433586486746	
19.0	114.25639202144521	fix	1.0		445	25.0	female	west_asian	2.6756864305610826	neutral	064	sub-10	1.0	5.0	064_neutral	0.0		142.67255711043254	3.7582091714757553
19.0	114.79822812779457	pulse	1.0	t		25.0	female	west_asian	2.6756864305610826	neutral	064	sub-10	1.0	5.0	064_neutral	0.0		143.2143932167819	
19.0	115.4981306295449	pulse	1.0	t		25.0	female	west_asian	2.6756864305610826	neutral	064	sub-10	1.0	5.0	064_neutral	0.0		143.91429571853223	
19.0	116.19810949989187	pulse	1.0	t		25.0	female	west_asian	2.6756864305610826	neutral	064	sub-10	1.0	5.0	064_neutral	0.0		144.6142745888792	
19.0	116.89808625727528	pulse	1.0	t		25.0	female	west_asian	2.6756864305610826	neutral	064	sub-10	1.0	5.0	064_neutral	0.0		145.3142513462626	
19.0	117.59806573132664	pulse	1.0	t		25.0	female	west_asian	2.6756864305610826	neutral	064	sub-10	1.0	5.0	064_neutral	0.0		146.01423082031397	
20.0	118.01460119292096	face	0.0		146	24.0	female	black	3.0955033824114606	neutral	099	sub-10	1.0	5.0	099_neutral	0.0		146.4307662819083	1.2416465431888355
20.0	118.29805124242557	pulse	0.0	t		24.0	female	black	3.0955033824114606	neutral	099	sub-10	1.0	5.0	099_neutral	0.0		146.7142163314129	
20.0	118.99802950906815	pulse	0.0	t		24.0	female	black	3.0955033824114606	neutral	099	sub-10	1.0	5.0	099_neutral	0.0		147.41419459805547	
20.0	119.2562477361098	fix	1.0		1185	24.0	female	black	3.0955033824114606	neutral	099	sub-10	1.0	5.0	099_neutral	0.0		147.67241282509713	10.008019608318136
20.0	119.69802045350298	pulse	1.0	t		24.0	female	black	3.0955033824114606	neutral	099	sub-10	1.0	5.0	099_neutral	0.0		148.1141855424903	
20.0	120.39798302383497	pulse	1.0	t		24.0	female	black	3.0955033824114606	neutral	099	sub-10	1.0	5.0	099_neutral	0.0		148.8141481128223	
20.0	121.0979655164083	pulse	1.0	t		24.0	female	black	3.0955033824114606	neutral	099	sub-10	1.0	5.0	099_neutral	0.0		149.51413060539562	
20.0	121.79794468860928	pulse	1.0	t		24.0	female	black	3.0955033824114606	neutral	099	sub-10	1.0	5.0	099_neutral	0.0		150.2141097775966	
20.0	122.49791088116763	pulse	1.0	t		24.0	female	black	3.0955033824114606	neutral	099	sub-10	1.0	5.0	099_neutral	0.0		150.91407597015495	
20.0	123.19789941078488	pulse	1.0	t		24.0	female	black	3.0955033824114606	neutral	099	sub-10	1.0	5.0	099_neutral	0.0		151.6140644997722	
20.0	123.89788552558457	pulse	1.0	t		24.0	female	black	3.0955033824114606	neutral	099	sub-10	1.0	5.0	099_neutral	0.0		152.3140506145719	
20.0	124.59785473666489	pulse	1.0	t		24.0	female	black	3.0955033824114606	neutral	099	sub-10	1.0	5.0	099_neutral	0.0		153.0140198256522	
20.0	125.29785775518758	pulse	1.0	t		24.0	female	black	3.0955033824114606	neutral	099	sub-10	1.0	5.0	099_neutral	0.0		153.7140228441749	
20.0	125.99781881625677	pulse	1.0	t		24.0	female	black	3.0955033824114606	neutral	099	sub-10	1.0	5.0	099_neutral	0.0		154.4139839052441	
20.0	126.69778048103399	pulse	1.0	t		24.0	female	black	3.0955033824114606	neutral	099	sub-10	1.0	5.0	099_neutral	0.0		155.11394557002131	
20.0	127.39777595324995	pulse	1.0	t		24.0	female	black	3.0955033824114606	neutral	099	sub-10	1.0	5.0	099_neutral	0.0		155.81394104223727	
20.0	128.09775210692897	pulse	1.0	t		24.0	female	black	3.0955033824114606	neutral	099	sub-10	1.0	5.0	099_neutral	0.0		156.5139171959163	
20.0	128.7977355050607	pulse	1.0	t		24.0	female	black	3.0955033824114606	neutral	099	sub-10	1.0	5.0	099_neutral	0.0		157.21390059404803	
21.0	129.26426734442794	face	0.0		146	24.0	female	east_asian	4.409868682849185	neutral	030	sub-10	1.0	5.0	030_neutral	0.0		157.68043243341526	1.2416450339260336
21.0	129.49772011060122	pulse	0.0	t		24.0	female	east_asian	4.409868682849185	neutral	030	sub-10	1.0	5.0	030_neutral	0.0		157.91388519958855	
21.0	130.19769384946267	pulse	0.0	t		24.0	female	east_asian	4.409868682849185	neutral	030	sub-10	1.0	5.0	030_neutral	0.0		158.61385893845	
21.0	130.50591237835397	fix	1.0		444	24.0	female	east_asian	4.409868682849185	neutral	030	sub-10	1.0	5.0	030_neutral	0.0		158.9220774673413	3.7581856270080607
21.0	130.89767543647758	pulse	1.0	t		24.0	female	east_asian	4.409868682849185	neutral	030	sub-10	1.0	5.0	030_neutral	0.0		159.3138405254649	
21.0	131.59763891236798	pulse	1.0	t		24.0	female	east_asian	4.409868682849185	neutral	030	sub-10	1.0	5.0	030_neutral	0.0		160.0138040013553	
21.0	132.29762744198524	pulse	1.0	t		24.0	female	east_asian	4.409868682849185	neutral	030	sub-10	1.0	5.0	030_neutral	0.0		160.71379253097257	
21.0	132.99760570862782	pulse	1.0	t		24.0	female	east_asian	4.409868682849185	neutral	030	sub-10	1.0	5.0	030_neutral	0.0		161.41377079761514	
21.0	133.6975857863872	pulse	1.0	t		24.0	female	east_asian	4.409868682849185	neutral	030	sub-10	1.0	5.0	030_neutral	0.0		162.11375087537454	
22.0	134.26409800536203	face	0.0		146	31.0	female	west_asian	2.364902506963788	neutral	006	sub-10	1.0	5.0	006_neutral	0.0		162.68026309434936	1.2416643524666142
22.0	134.39757371230007	pulse	0.0	t		31.0	female	west_asian	2.364902506963788	neutral	006	sub-10	1.0	5.0	006_neutral	0.0		162.8137388012874	
22.0	135.09755167709227	pulse	0.0	t		31.0	female	west_asian	2.364902506963788	neutral	006	sub-10	1.0	5.0	006_neutral	0.0		163.5137167660796	
22.0	135.50576235782864	fix	1.0		444	31.0	female	west_asian	2.364902506963788	neutral	006	sub-10	1.0	5.0	006_neutral	0.0		163.92192744681597	3.7665414986367978
22.0	135.79754745116225	pulse	1.0	t		31.0	female	west_asian	2.364902506963788	neutral	006	sub-10	1.0	5.0	006_neutral	0.0		164.21371254014957	
22.0	136.49746715848596	pulse	1.0	t		31.0	female	west_asian	2.364902506963788	neutral	006	sub-10	1.0	5.0	006_neutral	0.0		164.9136322474733	
22.0	137.1974882881368	pulse	1.0	t		31.0	female	west_asian	2.364902506963788	neutral	006	sub-10	1.0	5.0	006_neutral	0.0		165.61365337712414	
22.0	137.897465951075	pulse	1.0	t		31.0	female	west_asian	2.364902506963788	neutral	006	sub-10	1.0	5.0	006_neutral	0.0		166.31363104006232	
22.0	138.59743878438167	pulse	1.0	t		31.0	female	west_asian	2.364902506963788	neutral	006	sub-10	1.0	5.0	006_neutral	0.0		167.013603873369	
23.0	139.27230385646544	face	0.0		145	24.0	male	white	3.1153999204138483	smiling	012	sub-10	1.0	5.0	012_smiling	0.0		167.68846894545277	1.2333108956554497
23.0	139.29743486030202	pulse	0.0	t		24.0	male	white	3.1153999204138483	smiling	012	sub-10	1.0	5.0	012_smiling	0.0		167.71359994928935	
23.0	139.9974076936087	pulse	0.0	t		24.0	male	white	3.1153999204138483	smiling	012	sub-10	1.0	5.0	012_smiling	0.0		168.41357278259602	
23.0	140.5056147521209	fix	1.0		443	24.0	male	white	3.1153999204138483	smiling	012	sub-10	1.0	5.0	012_smiling	0.0		168.92177984110822	3.7582118881437054
23.0	140.6973838472877	pulse	1.0	t		24.0	male	white	3.1153999204138483	smiling	012	sub-10	1.0	5.0	012_smiling	0.0		169.11354893627504	
23.0	141.39735939726233	pulse	1.0	t		24.0	male	white	3.1153999204138483	smiling	012	sub-10	1.0	5.0	012_smiling	0.0		169.81352448624966	
23.0	142.0973403805765	pulse	1.0	t		24.0	male	white	3.1153999204138483	smiling	012	sub-10	1.0	5.0	012_smiling	0.0		170.51350546956382	
23.0	142.79731804351468	pulse	1.0	t		24.0	male	white	3.1153999204138483	smiling	012	sub-10	1.0	5.0	012_smiling	0.0		171.213483132502	
23.0	143.49730627128156	pulse	1.0	t		24.0	male	white	3.1153999204138483	smiling	012	sub-10	1.0	5.0	012_smiling	0.0		171.9134713602689	
23.0	144.19727518050786	pulse	1.0	t		24.0	male	white	3.1153999204138483	smiling	012	sub-10	1.0	5.0	012_smiling	0.0		172.6134402694952	
24.0	144.2638266402646	face	0.0		147	28.0	female	white	5.676880222841227	neutral	124	sub-10	1.0	5.0	124_neutral	0.0		172.67999172925192	1.2416411098492972
24.0	144.89726129530754	pulse	0.0	t		28.0	female	white	5.676880222841227	neutral	124	sub-10	1.0	5.0	124_neutral	0.0		173.31342638429487	
24.0	145.5054677501139	fix	1.0		443	28.0	female	white	5.676880222841227	neutral	124	sub-10	1.0	5.0	124_neutral	0.0		173.92163283910122	3.7665402912280115
24.0	145.5972416749173	pulse	1.0	t		28.0	female	white	5.676880222841227	neutral	124	sub-10	1.0	5.0	124_neutral	0.0		174.01340676390464	
24.0	146.297197906355	pulse	1.0	t		28.0	female	white	5.676880222841227	neutral	124	sub-10	1.0	5.0	124_neutral	0.0		174.71336299534232	
24.0	146.99719337857096	pulse	1.0	t		28.0	female	white	5.676880222841227	neutral	124	sub-10	1.0	5.0	124_neutral	0.0		175.41335846755828	
24.0	147.6971589674249	pulse	1.0	t		28.0	female	white	5.676880222841227	neutral	124	sub-10	1.0	5.0	124_neutral	0.0		176.11332405641224	
24.0	148.3971471951918	pulse	1.0	t		28.0	female	white	5.676880222841227	neutral	124	sub-10	1.0	5.0	124_neutral	0.0		176.81331228417912	
24.0	149.09713300813746	pulse	1.0	t		28.0	female	white	5.676880222841227	neutral	124	sub-10	1.0	5.0	124_neutral	0.0		177.5132980971248	
25.0	149.2720080413419	face	0.0		146	24.0	female	east_asian	4.409868682849185	smiling	030	sub-10	1.0	5.0	030_smiling	0.0		177.68817313032923	1.2416435246668698
25.0	149.79711308589685	pulse	0.0	t		24.0	female	east_asian	4.409868682849185	smiling	030	sub-10	1.0	5.0	030_smiling	0.0		178.21327817488418	
25.0	150.49709346550662	pulse	0.0	t		24.0	female	east_asian	4.409868682849185	smiling	030	sub-10	1.0	5.0	030_smiling	0.0		178.91325855449395	
25.0	150.51365156600878	fix	1.0		443	24.0	female	east_asian	4.409868682849185	smiling	030	sub-10	1.0	5.0	030_smiling	0.0		178.9298166549961	3.7582082659209846
25.0	151.1970726377076	pulse	1.0	t		24.0	female	east_asian	4.409868682849185	smiling	030	sub-10	1.0	5.0	030_smiling	0.0		179.61323772669493	
25.0	151.89704516916026	pulse	1.0	t		24.0	female	east_asian	4.409868682849185	smiling	030	sub-10	1.0	5.0	030_smiling	0.0		180.3132102581476	
25.0	152.5970180024633	pulse	1.0	t		24.0	female	east_asian	4.409868682849185	smiling	030	sub-10	1.0	5.0	030_smiling	0.0		181.01318309145063	
25.0	153.29702011542759	pulse	1.0	t		24.0	female	east_asian	4.409868682849185	smiling	030	sub-10	1.0	5.0	030_smiling	0.0		181.7131852044149	
25.0	153.99699325058828	pulse	1.0	t		24.0	female	east_asian	4.409868682849185	smiling	030	sub-10	1.0	5.0	030_smiling	0.0		182.4131583395756	
26.0	154.27185983192976	face	0.0		145	31.0	male	west_asian	1.9538400318344609	smiling	070	sub-10	1.0	5.0	070_smiling	0.0		182.6880249209171	1.2333090845422703
26.0	154.6969591412926	pulse	0.0	t		31.0	male	west_asian	1.9538400318344609	smiling	070	sub-10	1.0	5.0	070_smiling	0.0		183.11312423027994	
26.0	155.3969383134936	pulse	0.0	t		31.0	male	west_asian	1.9538400318344609	smiling	070	sub-10	1.0	5.0	070_smiling	0.0		183.81310340248092	
26.0	155.50516891647203	fix	1.0		444	31.0	male	west_asian	1.9538400318344609	smiling	070	sub-10	1.0	5.0	070_smiling	0.0		183.92133400545936	3.7582070585121983
26.0	156.09693288015478	pulse	1.0	t		31.0	male	west_asian	1.9538400318344609	smiling	070	sub-10	1.0	5.0	070_smiling	0.0		184.5130979691421	
26.0	156.796907524571	pulse	1.0	t		31.0	male	west_asian	1.9538400318344609	smiling	070	sub-10	1.0	5.0	070_smiling	0.0		185.21307261355832	
26.0	157.49688367825001	pulse	1.0	t		31.0	male	west_asian	1.9538400318344609	smiling	070	sub-10	1.0	5.0	070_smiling	0.0		185.91304876723734	
26.0	158.196862850451	pulse	1.0	t		31.0	male	west_asian	1.9538400318344609	smiling	070	sub-10	1.0	5.0	070_smiling	0.0		186.61302793943833	
26.0	158.89684051339282	pulse	1.0	t		31.0	male	west_asian	1.9538400318344609	smiling	070	sub-10	1.0	5.0	070_smiling	0.0		187.31300560238014	
27.0	159.26337597498423	face	0.0		146	24.0	male	white	3.1153999204138483	neutral	012	sub-10	1.0	5.0	012_neutral	0.0		187.67954106397156	1.2416474487436062
27.0	159.5968260244881	pulse	0.0	t		24.0	male	white	3.1153999204138483	neutral	012	sub-10	1.0	5.0	012_neutral	0.0		188.01299111347544	
27.0	160.2968018763131	pulse	0.0	t		24.0	male	white	3.1153999204138483	neutral	012	sub-10	1.0	5.0	012_neutral	0.0		188.71296696530044	
27.0	160.50502342372783	fix	1.0		444	24.0	male	white	3.1153999204138483	neutral	012	sub-10	1.0	5.0	012_neutral	0.0		188.92118851271516	3.7582843326672446
27.0	160.9967873874084	pulse	1.0	t		24.0	male	white	3.1153999204138483	neutral	012	sub-10	1.0	5.0	012_neutral	0.0		189.41295247639573	
27.0	161.69674965589002	pulse	1.0	t		24.0	male	white	3.1153999204138483	neutral	012	sub-10	1.0	5.0	012_neutral	0.0		190.11291474487734	
27.0	162.39673486513493	pulse	1.0	t		24.0	male	white	3.1153999204138483	neutral	012	sub-10	1.0	5.0	012_neutral	0.0		190.81289995412226	
27.0	163.09672731882893	pulse	1.0	t		24.0	male	white	3.1153999204138483	neutral	012	sub-10	1.0	5.0	012_neutral	0.0		191.51289240781625	
27.0	163.7966989447268	pulse	1.0	t		24.0	male	white	3.1153999204138483	neutral	012	sub-10	1.0	5.0	012_neutral	0.0		192.21286403371414	
28.0	164.26330775639508	face	0.0		146	40.0	female	west_asian	1.5777954635893354	smiling	038	sub-10	1.0	5.0	038_smiling	0.0		192.6794728453824	1.2415647412526596
28.0	164.4966838521177	pulse	0.0	t		40.0	female	west_asian	1.5777954635893354	smiling	038	sub-10	1.0	5.0	038_smiling	0.0		192.91284894110504	
28.0	165.1966533650484	pulse	0.0	t		40.0	female	west_asian	1.5777954635893354	smiling	038	sub-10	1.0	5.0	038_smiling	0.0		193.61281845403573	
28.0	165.50487249764774	fix	1.0		444	40.0	female	west_asian	1.5777954635893354	smiling	038	sub-10	1.0	5.0	038_smiling	0.0		193.92103758663507	3.758288256740343
28.0	165.89664008355248	pulse	1.0	t		40.0	female	west_asian	1.5777954635893354	smiling	038	sub-10	1.0	5.0	038_smiling	0.0		194.3128051725398	
28.0	166.59660597426046	pulse	1.0	t		40.0	female	west_asian	1.5777954635893354	smiling	038	sub-10	1.0	5.0	038_smiling	0.0		195.01277106324778	
28.0	167.29662227427616	pulse	1.0	t		40.0	female	west_asian	1.5777954635893354	smiling	038	sub-10	1.0	5.0	038_smiling	0.0		195.7127873632635	
28.0	167.99656824273916	pulse	1.0	t		40.0	female	west_asian	1.5777954635893354	smiling	038	sub-10	1.0	5.0	038_smiling	0.0		196.41273333172649	
28.0	168.6965398686334	pulse	1.0	t		40.0	female	west_asian	1.5777954635893354	smiling	038	sub-10	1.0	5.0	038_smiling	0.0		197.11270495762074	
29.0	169.26316075438808	face	0.0		146	20.0	male	black	3.1070433744528456	smiling	082	sub-10	1.0	5.0	082_smiling	0.0		197.6793258433754	1.2415632319934957
29.0	169.39654047233853	pulse	0.0	t		20.0	male	black	3.1070433744528456	smiling	082	sub-10	1.0	5.0	082_smiling	0.0		197.81270556132586	
29.0	170.09650847601006	pulse	0.0	t		20.0	male	black	3.1070433744528456	smiling	082	sub-10	1.0	5.0	082_smiling	0.0		198.51267356499739	
29.0	170.50472398638158	fix	1.0		444	20.0	male	black	3.1070433744528456	smiling	082	sub-10	1.0	5.0	082_smiling	0.0		198.9208890753689	3.7665430078959616
29.0	170.7964816111671	pulse	1.0	t		20.0	male	black	3.1070433744528456	smiling	082	sub-10	1.0	5.0	082_smiling	0.0		199.21264670015444	
29.0	171.49646319818567	pulse	1.0	t		20.0	male	black	3.1070433744528456	smiling	082	sub-10	1.0	5.0	082_smiling	0.0		199.912628287173	
29.0	172.19644146482824	pulse	1.0	t		20.0	male	black	3.1070433744528456	smiling	082	sub-10	1.0	5.0	082_smiling	0.0		200.61260655381557	
29.0	172.89642154258763	pulse	1.0	t		20.0	male	black	3.1070433744528456	smiling	082	sub-10	1.0	5.0	082_smiling	0.0		201.31258663157496	
29.0	173.59639860182142	pulse	1.0	t		20.0	male	black	3.1070433744528456	smiling	082	sub-10	1.0	5.0	082_smiling	0.0		202.01256369080875	
30.0	174.27126699427754	face	0.0		145	31.0	female	east_asian	3.395941106247513	smiling	087	sub-10	1.0	5.0	087_smiling	0.0		202.68743208326487	1.2333102919510566
30.0	174.29642003332629	pulse	0.0	t		31.0	female	east_asian	3.395941106247513	smiling	087	sub-10	1.0	5.0	087_smiling	0.0		202.7125851223136	
30.0	174.99636569993527	pulse	0.0	t		31.0	female	east_asian	3.395941106247513	smiling	087	sub-10	1.0	5.0	087_smiling	0.0		203.4125307889226	
30.0	175.5045772862286	fix	1.0		443	31.0	female	east_asian	3.395941106247513	smiling	087	sub-10	1.0	5.0	087_smiling	0.0		203.92074237521592	3.7665408949324046
30.0	175.69634094805951	pulse	1.0	t		31.0	female	east_asian	3.395941106247513	smiling	087	sub-10	1.0	5.0	087_smiling	0.0		204.11250603704684	
30.0	176.3963255535964	pulse	1.0	t		31.0	female	east_asian	3.395941106247513	smiling	087	sub-10	1.0	5.0	087_smiling	0.0		204.81249064258373	
30.0	177.09630200912943	pulse	1.0	t		31.0	female	east_asian	3.395941106247513	smiling	087	sub-10	1.0	5.0	087_smiling	0.0		205.51246709811676	
30.0	177.79628329429397	pulse	1.0	t		31.0	female	east_asian	3.395941106247513	smiling	087	sub-10	1.0	5.0	087_smiling	0.0		206.2124483832813	
30.0	178.49626488131253	pulse	1.0	t		31.0	female	east_asian	3.395941106247513	smiling	087	sub-10	1.0	5.0	087_smiling	0.0		206.91242997029985	
30.0	179.19624163869594	pulse	1.0	t		31.0	female	east_asian	3.395941106247513	smiling	087	sub-10	1.0	5.0	087_smiling	0.0		207.61240672768326	
31.0	179.271118181161	face	0.0		146	28.0	male	east_asian	1.5563072025467568	neutral	005	sub-10	1.0	5.0	005_neutral	0.0		207.68728327014833	1.2333265919660334
31.0	179.89623379053955	pulse	0.0	t		28.0	male	east_asian	1.5563072025467568	neutral	005	sub-10	1.0	5.0	005_neutral	0.0		208.31239887952688	
31.0	180.50444477312703	fix	1.0		443	28.0	male	east_asian	1.5563072025467568	neutral	005	sub-10	1.0	5.0	005_neutral	0.0		208.92060986211436	3.766525802326214
31.0	180.59626669242425	pulse	1.0	t		28.0	male	east_asian	1.5563072025467568	neutral	005	sub-10	1.0	5.0	005_neutral	0.0		209.01243178141158	
31.0	181.29629204800585	pulse	1.0	t		28.0	male	east_asian	1.5563072025467568	neutral	005	sub-10	1.0	5.0	005_neutral	0.0		209.71245713699318	
31.0	181.9961544034195	pulse	1.0	t		28.0	male	east_asian	1.5563072025467568	neutral	005	sub-10	1.0	5.0	005_neutral	0.0		210.41231949240682	
31.0	182.6961233126458	pulse	1.0	t		28.0	male	east_asian	1.5563072025467568	neutral	005	sub-10	1.0	5.0	005_neutral	0.0		211.11228840163312	
31.0	183.3961103330039	pulse	1.0	t		28.0	male	east_asian	1.5563072025467568	neutral	005	sub-10	1.0	5.0	005_neutral	0.0		211.81227542199122	
31.0	184.09609795706638	pulse	1.0	t		28.0	male	east_asian	1.5563072025467568	neutral	005	sub-10	1.0	5.0	005_neutral	0.0		212.5122630460537	
32.0	184.27097057545325	face	0.0		146	31.0	female	east_asian	3.395941106247513	neutral	087	sub-10	1.0	5.0	087_neutral	0.0		212.68713566444058	1.2416456376304268
32.0	184.79607863852652	pulse	0.0	t		31.0	female	east_asian	3.395941106247513	neutral	087	sub-10	1.0	5.0	087_neutral	0.0		213.21224372751385	
32.0	185.4960436236761	pulse	0.0	t		31.0	female	east_asian	3.395941106247513	neutral	087	sub-10	1.0	5.0	087_neutral	0.0		213.9122087126634	
32.0	185.51261621308367	fix	1.0		443	31.0	female	east_asian	3.395941106247513	neutral	087	sub-10	1.0	5.0	087_neutral	0.0		213.928781302071	3.7582055492493964
32.0	186.19603668107447	pulse	1.0	t		31.0	female	east_asian	3.395941106247513	neutral	087	sub-10	1.0	5.0	087_neutral	0.0		214.6122017700618	
32.0	186.89601645697985	pulse	1.0	t		31.0	female	east_asian	3.395941106247513	neutral	087	sub-10	1.0	5.0	087_neutral	0.0		215.31218154596718	
32.0	187.59597872546146	pulse	1.0	t		31.0	female	east_asian	3.395941106247513	neutral	087	sub-10	1.0	5.0	087_neutral	0.0		216.0121438144488	
32.0	188.2960016662255	pulse	1.0	t		31.0	female	east_asian	3.395941106247513	neutral	087	sub-10	1.0	5.0	087_neutral	0.0		216.71216675521282	
32.0	188.995952766174	pulse	1.0	t		31.0	female	east_asian	3.395941106247513	neutral	087	sub-10	1.0	5.0	087_neutral	0.0		217.41211785516134	
33.0	189.27082176233307	face	0.0		145	31.0	female	white	2.1822522881018704	smiling	102	sub-10	1.0	5.0	102_smiling	0.0		217.6869868513204	1.2333114993598429
33.0	189.6959234865135	pulse	0.0	t		31.0	female	white	2.1822522881018704	smiling	102	sub-10	1.0	5.0	102_smiling	0.0		218.11208857550082	
33.0	190.39591231798477	pulse	0.0	t		31.0	female	white	2.1822522881018704	smiling	102	sub-10	1.0	5.0	102_smiling	0.0		218.8120774069721	
33.0	190.5041332616929	fix	1.0		444	31.0	female	white	2.1822522881018704	smiling	102	sub-10	1.0	5.0	102_smiling	0.0		218.92029835068024	3.7582870493351948
33.0	191.09589450870772	pulse	1.0	t		31.0	female	white	2.1822522881018704	smiling	102	sub-10	1.0	5.0	102_smiling	0.0		219.51205959769504	
33.0	191.79587186979552	pulse	1.0	t		31.0	female	white	2.1822522881018704	smiling	102	sub-10	1.0	5.0	102_smiling	0.0		220.21203695878285	
33.0	192.49583715679546	pulse	1.0	t		31.0	female	white	2.1822522881018704	smiling	102	sub-10	1.0	5.0	102_smiling	0.0		220.9120022457828	
33.0	193.19581874381402	pulse	1.0	t		31.0	female	white	2.1822522881018704	smiling	102	sub-10	1.0	5.0	102_smiling	0.0		221.61198383280134	
33.0	193.8958033493509	pulse	1.0	t		31.0	female	white	2.1822522881018704	smiling	102	sub-10	1.0	5.0	102_smiling	0.0		222.31196843833823	
34.0	194.2624203110281	face	0.0		146	28.0	female	white	5.676880222841227	smiling	124	sub-10	1.0	5.0	124_smiling	0.0		222.67858540001544	1.2415668542198546
34.0	194.5957912752674	pulse	0.0	t		28.0	female	white	5.676880222841227	smiling	124	sub-10	1.0	5.0	124_smiling	0.0		223.01195636425473	
34.0	195.2957900678557	pulse	0.0	t		28.0	female	white	5.676880222841227	smiling	124	sub-10	1.0	5.0	124_smiling	0.0		223.71195515684303	
34.0	195.50398716524796	fix	1.0		444	28.0	female	white	5.676880222841227	smiling	124	sub-10	1.0	5.0	124_smiling	0.0		223.9201522542353	3.7665396875199804
34.0	195.99574871411096	pulse	1.0	t		28.0	female	white	5.676880222841227	smiling	124	sub-10	1.0	5.0	124_smiling	0.0		224.4119138030983	
34.0	196.6957076622166	pulse	1.0	t		28.0	female	white	5.676880222841227	smiling	124	sub-10	1.0	5.0	124_smiling	0.0		225.11187275120392	
34.0	197.39570313443255	pulse	1.0	t		28.0	female	white	5.676880222841227	smiling	124	sub-10	1.0	5.0	124_smiling	0.0		225.81186822341988	
34.0	198.09567536403483	pulse	1.0	t		28.0	female	white	5.676880222841227	smiling	124	sub-10	1.0	5.0	124_smiling	0.0		226.51184045302216	
34.0	198.79565936587096	pulse	1.0	t		28.0	female	white	5.676880222841227	smiling	124	sub-10	1.0	5.0	124_smiling	0.0		227.2118244548583	
35.0	199.27052685276794	face	0.0		145	19.0	male	white	3.2522881018702745	neutral	018	sub-10	1.0	5.0	018_neutral	1.0	dominance	227.68669194175527	1.2333087826918927
35.0	199.49564366955747	pulse	0.0	t		19.0	male	white	3.2522881018702745	neutral	018	sub-10	1.0	5.0	018_neutral	1.0	dominance	227.9118087585448	
35.0	200.19561771027293	pulse	0.0	t		19.0	male	white	3.2522881018702745	neutral	018	sub-10	1.0	5.0	018_neutral	1.0	dominance	228.61178279926025	
35.0	200.50383563545984	fix	1.0		177	19.0	male	white	3.2522881018702745	neutral	018	sub-10	1.0	5.0	018_neutral	1.0	dominance	228.92000072444716	1.4999574388457404
35.0	200.89560473062738	pulse	1.0	t		19.0	male	white	3.2522881018702745	neutral	018	sub-10	1.0	5.0	018_neutral	1.0	dominance	229.3117698196147	
35.0	201.59559265654025	pulse	1.0	t		19.0	male	white	3.2522881018702745	neutral	018	sub-10	1.0	5.0	018_neutral	1.0	dominance	230.01175774552758	
35.0	202.00379307430558	rating	2.0		294	19.0	male	white	3.2522881018702745	neutral	018	sub-10	1.0	5.0	018_neutral	1.0	dominance	230.4199581632929	2.4999251406625262
35.0	202.29556488614253	pulse	2.0	t		19.0	male	white	3.2522881018702745	neutral	018	sub-10	1.0	5.0	018_neutral	1.0	dominance	230.71172997512986	
35.0	202.99553983241276	pulse	2.0	t		19.0	male	white	3.2522881018702745	neutral	018	sub-10	1.0	5.0	018_neutral	1.0	dominance	231.4117049214001	
35.0	203.36526556953686	response	2.0	e		19.0	male	white	3.2522881018702745	neutral	018	sub-10	1.0	5.0	018_neutral	1.0	dominance	231.7814306585242	
35.0	203.6954975731096	pulse	2.0	t		19.0	male	white	3.2522881018702745	neutral	018	sub-10	1.0	5.0	018_neutral	1.0	dominance	232.11166266209693	
35.0	204.39549696940594	pulse	2.0	t		19.0	male	white	3.2522881018702745	neutral	018	sub-10	1.0	5.0	018_neutral	1.0	dominance	232.81166205839327	
35.0	204.5037182149681	fix	3.0		444	19.0	male	white	3.2522881018702745	neutral	018	sub-10	1.0	5.0	018_neutral	1.0	dominance	232.91988330395543	3.766539989373996
35.0	205.09546467122345	pulse	3.0	t		19.0	male	white	3.2522881018702745	neutral	018	sub-10	1.0	5.0	018_neutral	1.0	dominance	233.51162976021078	
35.0	205.79545682306707	pulse	3.0	t		19.0	male	white	3.2522881018702745	neutral	018	sub-10	1.0	5.0	018_neutral	1.0	dominance	234.2116219120544	
35.0	206.49542241192103	pulse	3.0	t		19.0	male	white	3.2522881018702745	neutral	018	sub-10	1.0	5.0	018_neutral	1.0	dominance	234.91158750090835	
35.0	207.19541124338866	pulse	3.0	t		19.0	male	white	3.2522881018702745	neutral	018	sub-10	1.0	5.0	018_neutral	1.0	dominance	235.611576332376	
35.0	207.89538951003487	pulse	3.0	t		19.0	male	white	3.2522881018702745	neutral	018	sub-10	1.0	5.0	018_neutral	1.0	dominance	236.3115545990222	
36.0	208.2702582043421	face	0.0		145	47.0	male	east_asian	2.171110226820533	neutral	024	sub-10	1.0	5.0	024_neutral	0.0		236.68642329332943	1.2333127067686291
36.0	208.59537803965213	pulse	0.0	t		47.0	male	east_asian	2.171110226820533	neutral	024	sub-10	1.0	5.0	024_neutral	0.0		237.01154312863946	
36.0	209.29536928594098	pulse	0.0	t		47.0	male	east_asian	2.171110226820533	neutral	024	sub-10	1.0	5.0	024_neutral	0.0		237.7115343749283	
36.0	209.50357091111073	fix	1.0		444	47.0	male	east_asian	2.171110226820533	neutral	024	sub-10	1.0	5.0	024_neutral	0.0		237.91973600009806	3.7581907584935834
36.0	209.99533245997372	pulse	1.0	t		47.0	male	east_asian	2.171110226820533	neutral	024	sub-10	1.0	5.0	024_neutral	0.0		238.41149754896105	
36.0	210.69529321919254	pulse	1.0	t		47.0	male	east_asian	2.171110226820533	neutral	024	sub-10	1.0	5.0	024_neutral	0.0		239.11145830817986	
36.0	211.39528537103615	pulse	1.0	t		47.0	male	east_asian	2.171110226820533	neutral	024	sub-10	1.0	5.0	024_neutral	0.0		239.81145046002348	
36.0	212.09526544879554	pulse	1.0	t		47.0	male	east_asian	2.171110226820533	neutral	024	sub-10	1.0	5.0	024_neutral	0.0		240.51143053778287	
36.0	212.79524190432494	pulse	1.0	t		47.0	male	east_asian	2.171110226820533	neutral	024	sub-10	1.0	5.0	024_neutral	0.0		241.21140699331227	
37.0	213.2617616696043	face	0.0		146	54.0	female	white	2.286908077994429	smiling	136	sub-10	1.0	5.0	136_smiling	0.0		241.67792675859164	1.2416607302402554
37.0	213.4952627321254	pulse	0.0	t		54.0	female	white	2.286908077994429	smiling	136	sub-10	1.0	5.0	136_smiling	0.0		241.91142782111274	
37.0	214.1952105117016	pulse	0.0	t		54.0	female	white	2.286908077994429	smiling	136	sub-10	1.0	5.0	136_smiling	0.0		242.61137560068892	
37.0	214.50342239984457	fix	1.0		444	54.0	female	white	2.286908077994429	smiling	136	sub-10	1.0	5.0	136_smiling	0.0		242.9195874888319	3.7665430078995996
37.0	214.89519058945734	pulse	1.0	t		54.0	female	white	2.286908077994429	smiling	136	sub-10	1.0	5.0	136_smiling	0.0		243.31135567844467	
37.0	215.59515195238055	pulse	1.0	t		54.0	female	white	2.286908077994429	smiling	136	sub-10	1.0	5.0	136_smiling	0.0		244.01131704136787	
37.0	216.295155876458	pulse	1.0	t		54.0	female	white	2.286908077994429	smiling	136	sub-10	1.0	5.0	136_smiling	0.0		244.71132096544534	
37.0	216.99512357827552	pulse	1.0	t		54.0	female	white	2.286908077994429	smiling	136	sub-10	1.0	5.0	136_smiling	0.0		245.41128866726285	
37.0	217.6950882615747	pulse	1.0	t		54.0	female	white	2.286908077994429	smiling	136	sub-10	1.0	5.0	136_smiling	0.0		246.11125335056204	
38.0	218.26996540774417	face	0.0		145	27.0	male	black	3.5523278949462798	neutral	042	sub-10	1.0	5.0	042_neutral	1.0	trustworthiness	246.6861304967315	1.2333072734290909
38.0	218.39508645046226	pulse	0.0	t		27.0	male	black	3.5523278949462798	neutral	042	sub-10	1.0	5.0	042_neutral	1.0	trustworthiness	246.8112515394496	
38.0	219.09506381155006	pulse	0.0	t		27.0	male	black	3.5523278949462798	neutral	042	sub-10	1.0	5.0	042_neutral	1.0	trustworthiness	247.5112289005374	
38.0	219.50327268117326	fix	1.0		177	27.0	male	black	3.5523278949462798	neutral	042	sub-10	1.0	5.0	042_neutral	1.0	trustworthiness	247.91943777016058	1.499957740696118
38.0	219.7950447948606	pulse	1.0	t		27.0	male	black	3.5523278949462798	neutral	042	sub-10	1.0	5.0	042_neutral	1.0	trustworthiness	248.2112098838479	
38.0	220.4950146096453	pulse	1.0	t		27.0	male	black	3.5523278949462798	neutral	042	sub-10	1.0	5.0	042_neutral	1.0	trustworthiness	248.91117969863262	
38.0	221.00323042186938	rating	2.0		294	27.0	male	black	3.5523278949462798	neutral	042	sub-10	1.0	5.0	042_neutral	1.0	trustworthiness	249.4193955108567	2.4999242351077555
38.0	221.19500978001088	pulse	2.0	t		27.0	male	black	3.5523278949462798	neutral	042	sub-10	1.0	5.0	042_neutral	1.0	trustworthiness	249.6111748689982	
38.0	221.89499046147102	pulse	2.0	t		27.0	male	black	3.5523278949462798	neutral	042	sub-10	1.0	5.0	042_neutral	1.0	trustworthiness	250.31115555045835	
38.0	222.59495393736142	pulse	2.0	t		27.0	male	black	3.5523278949462798	neutral	042	sub-10	1.0	5.0	042_neutral	1.0	trustworthiness	251.01111902634875	
38.0	222.70327932191867	response	2.0	e		27.0	male	black	3.5523278949462798	neutral	042	sub-10	1.0	5.0	042_neutral	1.0	trustworthiness	251.119444410906	
38.0	223.29492858177764	pulse	2.0	t		27.0	male	black	3.5523278949462798	neutral	042	sub-10	1.0	5.0	042_neutral	1.0	trustworthiness	251.71109367076497	
38.0	223.50315465697713	fix	3.0		444	27.0	male	black	3.5523278949462798	neutral	042	sub-10	1.0	5.0	042_neutral	1.0	trustworthiness	251.91931974596446	3.766542706041946
38.0	223.99493220400473	pulse	3.0	t		27.0	male	black	3.5523278949462798	neutral	042	sub-10	1.0	5.0	042_neutral	1.0	trustworthiness	252.41109729299205	
38.0	224.6948790780225	pulse	3.0	t		27.0	male	black	3.5523278949462798	neutral	042	sub-10	1.0	5.0	042_neutral	1.0	trustworthiness	253.11104416700982	
38.0	225.39487213542452	pulse	3.0	t		27.0	male	black	3.5523278949462798	neutral	042	sub-10	1.0	5.0	042_neutral	1.0	trustworthiness	253.81103722441185	
38.0	226.0948513076255	pulse	3.0	t		27.0	male	black	3.5523278949462798	neutral	042	sub-10	1.0	5.0	042_neutral	1.0	trustworthiness	254.51101639661283	
38.0	226.79483802612958	pulse	3.0	t		27.0	male	black	3.5523278949462798	neutral	042	sub-10	1.0	5.0	042_neutral	1.0	trustworthiness	255.2110031151169	
39.0	227.26969736301908	face	0.0		145	22.0	female	white	4.614007162753682	smiling	009	sub-10	1.0	5.0	009_smiling	0.0		255.6858624520064	1.2333124049182516
39.0	227.49481508536337	pulse	0.0	t		22.0	female	white	4.614007162753682	smiling	009	sub-10	1.0	5.0	009_smiling	0.0		255.9109801743507	
39.0	228.1947824853305	pulse	0.0	t		22.0	female	white	4.614007162753682	smiling	009	sub-10	1.0	5.0	009_smiling	0.0		256.61094757431783	
39.0	228.50300976793733	fix	1.0		444	22.0	female	white	4.614007162753682	smiling	009	sub-10	1.0	5.0	009_smiling	0.0		256.91917485692466	3.7498868054390186
39.0	228.89477282606094	pulse	1.0	t		22.0	female	white	4.614007162753682	smiling	009	sub-10	1.0	5.0	009_smiling	0.0		257.31093791504827	
39.0	229.59474354640042	pulse	1.0	t		22.0	female	white	4.614007162753682	smiling	009	sub-10	1.0	5.0	009_smiling	0.0		258.01090863538775	
39.0	230.29472724638617	pulse	1.0	t		22.0	female	white	4.614007162753682	smiling	009	sub-10	1.0	5.0	009_smiling	0.0		258.7108923353735	
39.0	230.9947082296967	pulse	1.0	t		22.0	female	white	4.614007162753682	smiling	009	sub-10	1.0	5.0	009_smiling	0.0		259.410873318684	
39.0	231.69467261114187	pulse	1.0	t		22.0	female	white	4.614007162753682	smiling	009	sub-10	1.0	5.0	009_smiling	0.0		260.1108377001292	
40.0	232.25289657337635	fix	0.0		720													260.6690616623637	5.999821001663804
40.0	232.39467381855138	pulse	0.0	t														260.8108389075387	
40.0	233.0946409166645	pulse	0.0	t														261.51080600565183	
40.0	233.79462220183268	pulse	0.0	t														262.21078729082	
40.0	234.49459503513572	pulse	0.0	t														262.91076012412304	
40.0	235.19458537586615	pulse	0.0	t														263.6107504648535	
40.0	235.89456364251237	pulse	0.0	t														264.3107287314997	
40.0	236.594539192487	pulse	0.0	t														265.0107042814743	
40.0	237.29456152954663	pulse	0.0	t														265.71072661853395	
40.0	237.99450478133804	pulse	0.0	t														266.41066987032536	
