trial_nr	onset	event_type	phase	response	nr_frames	face_age	face_sex	face_eth	attractiveness	expression	face_id	sub_id	ses	run	trial_type	catch	rating_type	onset_abs	duration
-1.0	0.061330607768468326	fix	0.0		708													328.01851648378033	5.966273568959878
-1.0	-288.4761611817321	response	0.0	n														39.48102469427977	
-1.0	-260.89772889177766	response	0.0	n														67.0594569842342	
-1.0	-243.15409806473872	response	0.0	n														84.80308781127314	
-1.0	-225.32645452591714	response	0.0	n														102.63073135009472	
-1.0	-216.95961733043077	response	0.0	n														110.99756854558109	
-1.0	-202.65192922550887	response	0.0	n														125.305256650503	
-1.0	-198.5730082298178	response	0.0	n														129.38417764619408	
-1.0	-196.39506380039893	response	0.0	n														131.56212207561293	
-1.0	-186.0602795433042	response	0.0	n														141.89690633270766	
-1.0	-176.33347178486656	response	0.0	n														151.6237140911453	
-1.0	-172.79554230338363	response	0.0	n														155.16164357262824	
-1.0	-166.57967412775542	response	0.0	n														161.37751174825644	
-1.0	-162.358758307093	response	0.0	n														165.59842756891885	
-1.0	-160.21385569808626	response	0.0	n														167.7433301779256	
-1.0	-159.64085078869175	response	0.0	n														168.3163350873201	
-1.0	-158.67988023540056	response	0.0	n														169.2773056406113	
-1.0	-158.1999917291323	response	0.0	n														169.75719414687956	
-1.0	-150.07101295809844	response	0.0	n														177.88617291791343	
-1.0	-108.66590759809151	response	0.0	b														219.29127827792036	
-1.0	-103.89496358402721	response	0.0	b														224.06222229198465	
-1.0	-102.27300750536233	response	0.0	y														225.68417837064953	
-1.0	-101.72707127919602	response	0.0	g														226.23011459681584	
-1.0	-101.30510059067456	response	0.0	r														226.6520852853373	
-1.0	-98.60405628779336	response	0.0	e														229.3531295882185	
-1.0	-97.9221119573831	response	0.0	w														230.03507391862877	
-1.0	-80.44146398006342	response	0.0	n														247.51572189594845	
-1.0	-67.07771688996036	response	0.0	n														260.8794689860515	
-1.0	-13.530781820509219	response	0.0	n														314.42640405550264	
-1.0	0.702833708439357	pulse	0.0	t														328.6600195844512	
-1.0	1.4028260412833333	pulse	0.0	t														329.3600119172952	
-1.0	2.1027924144655117	pulse	0.0	t														330.0599782904774	
-1.0	2.802794708575675	pulse	0.0	t														330.75998058458754	
-1.0	3.5027849284233525	pulse	0.0	t														331.4599708044352	
-1.0	4.2027682055704645	pulse	0.0	t														332.1599540815823	
-1.0	4.902765066262873	pulse	0.0	t														332.85995094227474	
-1.0	5.602754984254716	pulse	0.0	t														333.5599408602666	
0.0	6.027604176728346	face	0.0		141	22.0	male	black	2.767608436132113	neutral	044	sub-08	1.0	1.0	044_neutral	0.0		333.9847900527402	1.225012919459914
0.0	6.302745807815882	pulse	0.0	t		22.0	male	black	2.767608436132113	neutral	044	sub-08	1.0	1.0	044_neutral	0.0		334.25993168382774	
0.0	7.002729990532316	pulse	0.0	t		22.0	male	black	2.767608436132113	neutral	044	sub-08	1.0	1.0	044_neutral	0.0		334.9599158665442	
0.0	7.25261709618826	fix	1.0		443	22.0	male	black	2.767608436132113	neutral	044	sub-08	1.0	1.0	044_neutral	0.0		335.2098029722001	3.7665951669132482
0.0	7.702723832659103	pulse	1.0	t		22.0	male	black	2.767608436132113	neutral	044	sub-08	1.0	1.0	044_neutral	0.0		335.65990970867097	
0.0	8.402712241368135	pulse	1.0	t		22.0	male	black	2.767608436132113	neutral	044	sub-08	1.0	1.0	044_neutral	0.0		336.35989811738	
0.0	9.102688877672335	pulse	1.0	t		22.0	male	black	2.767608436132113	neutral	044	sub-08	1.0	1.0	044_neutral	0.0		337.0598747536842	
0.0	9.136020178504623	response	1.0	b		22.0	male	black	2.767608436132113	neutral	044	sub-08	1.0	1.0	044_neutral	0.0		337.0932060545165	
0.0	9.802682719799122	pulse	1.0	t		22.0	male	black	2.767608436132113	neutral	044	sub-08	1.0	1.0	044_neutral	0.0		337.759868595811	
0.0	10.502679882347365	pulse	1.0	t		22.0	male	black	2.767608436132113	neutral	044	sub-08	1.0	1.0	044_neutral	0.0		338.45986575835923	
1.0	11.019212263101508	face	0.0		145	24.0	female	black	3.0955033824114606	smiling	099	sub-08	1.0	1.0	099_smiling	0.0		338.97639813911337	1.233334198655939
1.0	11.202673724474153	pulse	0.0	t		24.0	female	black	3.0955033824114606	smiling	099	sub-08	1.0	1.0	099_smiling	0.0		339.159859600486	
1.0	11.902660925756209	pulse	0.0	t		24.0	female	black	3.0955033824114606	smiling	099	sub-08	1.0	1.0	099_smiling	0.0		339.8598468017681	
1.0	12.252546461757447	fix	1.0		443	24.0	female	black	3.0955033824114606	smiling	099	sub-08	1.0	1.0	099_smiling	0.0		340.2097323377693	3.7665897334973124
1.0	12.4109963922092	response	1.0	b		24.0	female	black	3.0955033824114606	smiling	099	sub-08	1.0	1.0	099_smiling	0.0		340.36818226822106	
1.0	12.60261160239861	pulse	1.0	t		24.0	female	black	3.0955033824114606	smiling	099	sub-08	1.0	1.0	099_smiling	0.0		340.5597974784105	
1.0	13.302628385621574	pulse	1.0	t		24.0	female	black	3.0955033824114606	smiling	099	sub-08	1.0	1.0	099_smiling	0.0		341.25981426163344	
1.0	14.002627359310281	pulse	1.0	t		24.0	female	black	3.0955033824114606	smiling	099	sub-08	1.0	1.0	099_smiling	0.0		341.95981323532214	
1.0	14.70261546616166	pulse	1.0	t		24.0	female	black	3.0955033824114606	smiling	099	sub-08	1.0	1.0	099_smiling	0.0		342.6598013421735	
1.0	15.402607195293967	pulse	1.0	t		24.0	female	black	3.0955033824114606	smiling	099	sub-08	1.0	1.0	099_smiling	0.0		343.35979307130583	
2.0	16.01913619525476	face	0.0		145	26.0	female	white	4.854755272582572	smiling	027	sub-08	1.0	1.0	027_smiling	0.0		343.9763220712666	1.2333329912289628
2.0	16.102597415141645	pulse	0.0	t		26.0	female	white	4.854755272582572	smiling	027	sub-08	1.0	1.0	027_smiling	0.0		344.0597832911535	
2.0	16.80258823870281	pulse	0.0	t		26.0	female	white	4.854755272582572	smiling	027	sub-08	1.0	1.0	027_smiling	0.0		344.7597741147147	
2.0	17.252469186483722	fix	1.0		444	26.0	female	white	4.854755272582572	smiling	027	sub-08	1.0	1.0	027_smiling	0.0		345.2096550624956	3.7582530596173456
2.0	17.452576828525707	response	1.0	e		26.0	female	white	4.854755272582572	smiling	027	sub-08	1.0	1.0	027_smiling	0.0		345.40976270453757	
2.0	17.502538915343393	pulse	1.0	t		26.0	female	white	4.854755272582572	smiling	027	sub-08	1.0	1.0	027_smiling	0.0		345.45972479135526	
2.0	18.2025544911412	pulse	1.0	t		26.0	female	white	4.854755272582572	smiling	027	sub-08	1.0	1.0	027_smiling	0.0		346.15974036715306	
2.0	18.902548031412152	pulse	1.0	t		26.0	female	white	4.854755272582572	smiling	027	sub-08	1.0	1.0	027_smiling	0.0		346.859733907424	
2.0	19.602526780710832	pulse	1.0	t		26.0	female	white	4.854755272582572	smiling	027	sub-08	1.0	1.0	027_smiling	0.0		347.5597126567227	
2.0	20.302531791528963	pulse	1.0	t		26.0	female	white	4.854755272582572	smiling	027	sub-08	1.0	1.0	027_smiling	0.0		348.2597176675408	
3.0	21.010722246101068	face	0.0		147	31.0	female	west_asian	2.364902506963788	smiling	006	sub-08	1.0	1.0	006_smiling	0.0		348.96790812211293	1.2416642316911748
3.0	21.00466307980605	pulse	0.0	t		31.0	female	west_asian	2.364902506963788	smiling	006	sub-08	1.0	1.0	006_smiling	0.0		348.9618489558179	
3.0	21.70251011822984	pulse	0.0	t		31.0	female	west_asian	2.364902506963788	smiling	006	sub-08	1.0	1.0	006_smiling	0.0		349.6596959942417	
3.0	22.252386477792243	fix	1.0		442	31.0	female	west_asian	2.364902506963788	smiling	006	sub-08	1.0	1.0	006_smiling	0.0		350.2095723538041	3.7582678505877993
3.0	22.402499432508193	pulse	1.0	t		31.0	female	west_asian	2.364902506963788	smiling	006	sub-08	1.0	1.0	006_smiling	0.0		350.35968530852006	
3.0	22.860813950117517	response	1.0	w		31.0	female	west_asian	2.364902506963788	smiling	006	sub-08	1.0	1.0	006_smiling	0.0		350.8179998261294	
3.0	23.10247727623937	pulse	1.0	t		31.0	female	west_asian	2.364902506963788	smiling	006	sub-08	1.0	1.0	006_smiling	0.0		351.05966315225123	
3.0	23.8024750425011	pulse	1.0	t		31.0	female	west_asian	2.364902506963788	smiling	006	sub-08	1.0	1.0	006_smiling	0.0		351.75966091851296	
3.0	24.502462243783157	pulse	1.0	t		31.0	female	west_asian	2.364902506963788	smiling	006	sub-08	1.0	1.0	006_smiling	0.0		352.459648119795	
3.0	25.202453369201976	pulse	1.0	t		31.0	female	west_asian	2.364902506963788	smiling	006	sub-08	1.0	1.0	006_smiling	0.0		353.15963924521384	
3.0	25.902449022467408	pulse	1.0	t		31.0	female	west_asian	2.364902506963788	smiling	006	sub-08	1.0	1.0	006_smiling	0.0		353.85963489847927	
4.0	26.010654328380042	face	0.0		147	54.0	female	white	2.286908077994429	smiling	136	sub-08	1.0	1.0	136_smiling	0.0		353.9678402043919	1.2416624205525295
4.0	26.602438638601598	pulse	0.0	t		54.0	female	white	2.286908077994429	smiling	136	sub-08	1.0	1.0	136_smiling	0.0		354.55962451461346	
4.0	27.25231674893257	fix	1.0		442	54.0	female	white	2.286908077994429	smiling	136	sub-08	1.0	1.0	136_smiling	0.0		355.20950262494443	3.758381650502997
4.0	27.302424632458496	pulse	1.0	t		54.0	female	white	2.286908077994429	smiling	136	sub-08	1.0	1.0	136_smiling	0.0		355.25961050847036	
4.0	27.5607522506416	response	1.0	w		54.0	female	white	2.286908077994429	smiling	136	sub-08	1.0	1.0	136_smiling	0.0		355.51793812665346	
4.0	28.002396740914264	pulse	1.0	t		54.0	female	white	2.286908077994429	smiling	136	sub-08	1.0	1.0	136_smiling	0.0		355.9595826169261	
4.0	28.702410505573425	pulse	1.0	t		54.0	female	white	2.286908077994429	smiling	136	sub-08	1.0	1.0	136_smiling	0.0		356.6595963815853	
4.0	29.402873130902663	pulse	1.0	t		54.0	female	white	2.286908077994429	smiling	136	sub-08	1.0	1.0	136_smiling	0.0		357.3600590069145	
4.0	30.10236709860328	pulse	1.0	t		54.0	female	white	2.286908077994429	smiling	136	sub-08	1.0	1.0	136_smiling	0.0		358.05955297461514	
4.0	30.802377844695002	pulse	1.0	t		54.0	female	white	2.286908077994429	smiling	136	sub-08	1.0	1.0	136_smiling	0.0		358.75956372070686	
5.0	31.01069839943557	face	0.0		145	31.0	female	west_asian	2.364902506963788	neutral	006	sub-08	1.0	1.0	006_neutral	1.0	dominance	358.96788427544743	1.241515114559661
5.0	31.502364744121223	pulse	0.0	t		31.0	female	west_asian	2.364902506963788	neutral	006	sub-08	1.0	1.0	006_neutral	1.0	dominance	359.4595506201331	
5.0	32.2023498324088	pulse	0.0	t		31.0	female	west_asian	2.364902506963788	neutral	006	sub-08	1.0	1.0	006_neutral	1.0	dominance	360.15953570842066	
5.0	32.21021923236549	response	0.0	w		31.0	female	west_asian	2.364902506963788	neutral	006	sub-08	1.0	1.0	006_neutral	1.0	dominance	360.16740510837735	
5.0	32.25221351399523	fix	1.0		177	31.0	female	west_asian	2.364902506963788	neutral	006	sub-08	1.0	1.0	006_neutral	1.0	dominance	360.2093993900071	1.5083623316859303
5.0	32.902331298417266	pulse	1.0	t		31.0	female	west_asian	2.364902506963788	neutral	006	sub-08	1.0	1.0	006_neutral	1.0	dominance	360.85951717442913	
5.0	33.60232272569192	pulse	1.0	t		31.0	female	west_asian	2.364902506963788	neutral	006	sub-08	1.0	1.0	006_neutral	1.0	dominance	361.5595086017038	
5.0	33.76057584568116	rating	2.0		295	31.0	female	west_asian	2.364902506963788	neutral	006	sub-08	1.0	1.0	006_neutral	1.0	dominance	361.717761721693	2.4916038603823836
5.0	34.302317775243864	pulse	2.0	t		31.0	female	west_asian	2.364902506963788	neutral	006	sub-08	1.0	1.0	006_neutral	1.0	dominance	362.2595036512557	
5.0	35.00230708952222	pulse	2.0	t		31.0	female	west_asian	2.364902506963788	neutral	006	sub-08	1.0	1.0	006_neutral	1.0	dominance	362.9594929655341	
5.0	35.70229610194474	pulse	2.0	t		31.0	female	west_asian	2.364902506963788	neutral	006	sub-08	1.0	1.0	006_neutral	1.0	dominance	363.6594819779566	
5.0	36.252179706063544	fix	3.0		443	31.0	female	west_asian	2.364902506963788	neutral	006	sub-08	1.0	1.0	006_neutral	1.0	dominance	364.2093655820754	3.7665963743402244
5.0	36.40229235892366	pulse	3.0	t		31.0	female	west_asian	2.364902506963788	neutral	006	sub-08	1.0	1.0	006_neutral	1.0	dominance	364.3594782349355	
5.0	37.1022750323591	pulse	3.0	t		31.0	female	west_asian	2.364902506963788	neutral	006	sub-08	1.0	1.0	006_neutral	1.0	dominance	365.05946090837097	
5.0	37.80226495034913	pulse	3.0	t		31.0	female	west_asian	2.364902506963788	neutral	006	sub-08	1.0	1.0	006_neutral	1.0	dominance	365.759450826361	
5.0	38.5022572831931	pulse	3.0	t		31.0	female	west_asian	2.364902506963788	neutral	006	sub-08	1.0	1.0	006_neutral	1.0	dominance	366.45944315920497	
5.0	39.20224025848438	pulse	3.0	t		31.0	female	west_asian	2.364902506963788	neutral	006	sub-08	1.0	1.0	006_neutral	1.0	dominance	367.15942613449624	
5.0	39.902245571160165	pulse	3.0	t		31.0	female	west_asian	2.364902506963788	neutral	006	sub-08	1.0	1.0	006_neutral	1.0	dominance	367.859431447172	
6.0	40.01877608040377	face	0.0		146	28.0	female	white	5.676880222841227	neutral	124	sub-08	1.0	1.0	124_neutral	0.0		367.97596195641563	1.2333269540995389
6.0	40.6022246223165	pulse	0.0	t		28.0	female	white	5.676880222841227	neutral	124	sub-08	1.0	1.0	124_neutral	0.0		368.55941049832836	
6.0	41.25210303450331	fix	1.0		443	28.0	female	white	5.676880222841227	neutral	124	sub-08	1.0	1.0	124_neutral	0.0		369.20928891051517	3.7582672468743112
6.0	41.30221152174272	pulse	1.0	t		28.0	female	white	5.676880222841227	neutral	124	sub-08	1.0	1.0	124_neutral	0.0		369.2593973977546	
6.0	42.00219842116894	pulse	1.0	t		28.0	female	white	5.676880222841227	neutral	124	sub-08	1.0	1.0	124_neutral	0.0		369.9593842971808	
6.0	42.70219286700922	pulse	1.0	t		28.0	female	white	5.676880222841227	neutral	124	sub-08	1.0	1.0	124_neutral	0.0		370.6593787430211	
6.0	43.40219304812308	pulse	1.0	t		28.0	female	white	5.676880222841227	neutral	124	sub-08	1.0	1.0	124_neutral	0.0		371.35937892413494	
6.0	44.10216364729604	pulse	1.0	t		28.0	female	white	5.676880222841227	neutral	124	sub-08	1.0	1.0	124_neutral	0.0		372.0593495233079	
6.0	44.80216231912709	pulse	1.0	t		28.0	female	white	5.676880222841227	neutral	124	sub-08	1.0	1.0	124_neutral	0.0		372.75934819513895	
7.0	45.01037028137762	face	0.0		146	23.0	male	white	2.6275368085953046	smiling	141	sub-08	1.0	1.0	141_smiling	1.0	trustworthiness	372.9675561573895	1.241672079961063
7.0	45.50215344454409	pulse	0.0	t		23.0	male	white	2.6275368085953046	smiling	141	sub-08	1.0	1.0	141_smiling	1.0	trustworthiness	373.45933932055596	
7.0	46.202139740256825	pulse	0.0	t		23.0	male	white	2.6275368085953046	smiling	141	sub-08	1.0	1.0	141_smiling	1.0	trustworthiness	374.1593256162687	
7.0	46.25204236133868	fix	1.0		177	23.0	male	white	2.6275368085953046	smiling	141	sub-08	1.0	1.0	141_smiling	1.0	trustworthiness	374.20922823735054	1.499968003206959
7.0	46.902121508122946	pulse	1.0	t		23.0	male	white	2.6275368085953046	smiling	141	sub-08	1.0	1.0	141_smiling	1.0	trustworthiness	374.8593073841348	
7.0	47.602139498772885	pulse	1.0	t		23.0	male	white	2.6275368085953046	smiling	141	sub-08	1.0	1.0	141_smiling	1.0	trustworthiness	375.55932537478475	
7.0	47.75201036454564	rating	2.0		295	23.0	male	white	2.6275368085953046	smiling	141	sub-08	1.0	1.0	141_smiling	1.0	trustworthiness	375.7091962405575	2.499959551223583
7.0	48.302113116511464	pulse	2.0	t		23.0	male	white	2.6275368085953046	smiling	141	sub-08	1.0	1.0	141_smiling	1.0	trustworthiness	376.2592989925233	
7.0	49.00208884724452	pulse	2.0	t		23.0	male	white	2.6275368085953046	smiling	141	sub-08	1.0	1.0	141_smiling	1.0	trustworthiness	376.9592747232564	
7.0	49.7020905376412	pulse	2.0	t		23.0	male	white	2.6275368085953046	smiling	141	sub-08	1.0	1.0	141_smiling	1.0	trustworthiness	377.65927641365306	
7.0	50.235413084634274	response	2.0	g		23.0	male	white	2.6275368085953046	smiling	141	sub-08	1.0	1.0	141_smiling	1.0	trustworthiness	378.19259896064614	
7.0	50.25196991576922	fix	3.0		443	23.0	male	white	2.6275368085953046	smiling	141	sub-08	1.0	1.0	141_smiling	1.0	trustworthiness	378.2091557917811	3.7665930539187684
7.0	50.402075625928774	pulse	3.0	t		23.0	male	white	2.6275368085953046	smiling	141	sub-08	1.0	1.0	141_smiling	1.0	trustworthiness	378.35926150194064	
7.0	51.10206554392062	pulse	3.0	t		23.0	male	white	2.6275368085953046	smiling	141	sub-08	1.0	1.0	141_smiling	1.0	trustworthiness	379.0592514199325	
7.0	51.80205063220819	pulse	3.0	t		23.0	male	white	2.6275368085953046	smiling	141	sub-08	1.0	1.0	141_smiling	1.0	trustworthiness	379.75923650822006	
7.0	52.50204688918711	pulse	3.0	t		23.0	male	white	2.6275368085953046	smiling	141	sub-08	1.0	1.0	141_smiling	1.0	trustworthiness	380.459232765199	
7.0	53.202030166334225	pulse	3.0	t		23.0	male	white	2.6275368085953046	smiling	141	sub-08	1.0	1.0	141_smiling	1.0	trustworthiness	381.1592160423461	
7.0	53.90203125301741	pulse	3.0	t		23.0	male	white	2.6275368085953046	smiling	141	sub-08	1.0	1.0	141_smiling	1.0	trustworthiness	381.8592171290293	
8.0	54.01856296968799	face	0.0		146	54.0	female	white	2.286908077994429	neutral	136	sub-08	1.0	1.0	136_neutral	0.0		381.97574884569985	1.2333296708075068
8.0	54.60201694501848	pulse	0.0	t		54.0	female	white	2.286908077994429	neutral	136	sub-08	1.0	1.0	136_neutral	0.0		382.55920282103034	
8.0	55.2518926404955	fix	1.0		443	54.0	female	white	2.286908077994429	neutral	136	sub-08	1.0	1.0	136_neutral	0.0		383.20907851650736	3.758262719027698
8.0	55.30200414630053	pulse	1.0	t		54.0	female	white	2.286908077994429	neutral	136	sub-08	1.0	1.0	136_neutral	0.0		383.2591900223124	
8.0	56.00198802716113	pulse	1.0	t		54.0	female	white	2.286908077994429	neutral	136	sub-08	1.0	1.0	136_neutral	0.0		383.959173903173	
8.0	56.7019809637186	pulse	1.0	t		54.0	female	white	2.286908077994429	neutral	136	sub-08	1.0	1.0	136_neutral	0.0		384.65916683973046	
8.0	57.40195910930561	pulse	1.0	t		54.0	female	white	2.286908077994429	neutral	136	sub-08	1.0	1.0	136_neutral	0.0		385.35914498531747	
8.0	58.10195415885755	pulse	1.0	t		54.0	female	white	2.286908077994429	neutral	136	sub-08	1.0	1.0	136_neutral	0.0		386.0591400348694	
8.0	58.80194800098434	pulse	1.0	t		54.0	female	white	2.286908077994429	neutral	136	sub-08	1.0	1.0	136_neutral	0.0		386.7591338769962	
9.0	59.010155359523196	face	0.0		146	31.0	female	white	2.1822522881018704	smiling	102	sub-08	1.0	1.0	102_smiling	0.0		386.96734123553506	1.2416603075544117
9.0	59.50194425796326	pulse	0.0	t		31.0	female	white	2.1822522881018704	smiling	102	sub-08	1.0	1.0	102_smiling	0.0		387.4591301339751	
9.0	60.201925723971726	pulse	0.0	t		31.0	female	white	2.1822522881018704	smiling	102	sub-08	1.0	1.0	102_smiling	0.0		388.1591115999836	
9.0	60.25181566707761	fix	1.0		445	31.0	female	white	2.1822522881018704	smiling	102	sub-08	1.0	1.0	102_smiling	0.0		388.20900154308947	3.7583001492384938
9.0	60.901921075381324	pulse	1.0	t		31.0	female	white	2.1822522881018704	smiling	102	sub-08	1.0	1.0	102_smiling	0.0		388.8591069513932	
9.0	61.60190888037687	pulse	1.0	t		31.0	female	white	2.1822522881018704	smiling	102	sub-08	1.0	1.0	102_smiling	0.0		389.55909475638873	
9.0	62.301899100224546	pulse	1.0	t		31.0	female	white	2.1822522881018704	smiling	102	sub-08	1.0	1.0	102_smiling	0.0		390.2590849762364	
9.0	63.00188237737348	pulse	1.0	t		31.0	female	white	2.1822522881018704	smiling	102	sub-08	1.0	1.0	102_smiling	0.0		390.95906825338534	
9.0	63.70184905241149	pulse	1.0	t		31.0	female	white	2.1822522881018704	smiling	102	sub-08	1.0	1.0	102_smiling	0.0		391.65903492842335	
10.0	64.0101158163161	face	0.0		146	21.0	male	east_asian/white	3.501790688420215	neutral	036	sub-08	1.0	1.0	036_neutral	0.0		391.96730169232796	1.2416258959092374
10.0	64.40186372263815	pulse	0.0	t		21.0	male	east_asian/white	3.501790688420215	neutral	036	sub-08	1.0	1.0	036_neutral	0.0		392.35904959865	
10.0	65.10185092392203	pulse	0.0	t		21.0	male	east_asian/white	3.501790688420215	neutral	036	sub-08	1.0	1.0	036_neutral	0.0		393.0590367999339	
10.0	65.25174171222534	fix	1.0		444	21.0	male	east_asian/white	3.501790688420215	neutral	036	sub-08	1.0	1.0	036_neutral	0.0		393.2089275882372	3.7665957706285553
10.0	65.80184265305252	pulse	1.0	t		21.0	male	east_asian/white	3.501790688420215	neutral	036	sub-08	1.0	1.0	036_neutral	0.0		393.7590285290644	
10.0	66.50183257104436	pulse	1.0	t		21.0	male	east_asian/white	3.501790688420215	neutral	036	sub-08	1.0	1.0	036_neutral	0.0		394.4590184470562	
10.0	67.20181494262215	pulse	1.0	t		21.0	male	east_asian/white	3.501790688420215	neutral	036	sub-08	1.0	1.0	036_neutral	0.0		395.159000818634	
10.0	67.90181119960107	pulse	1.0	t		21.0	male	east_asian/white	3.501790688420215	neutral	036	sub-08	1.0	1.0	036_neutral	0.0		395.85899707561293	
10.0	68.60181198442842	pulse	1.0	t		21.0	male	east_asian/white	3.501790688420215	neutral	036	sub-08	1.0	1.0	036_neutral	0.0		396.5589978604403	
11.0	69.0183374828539	face	0.0		145	40.0	male	black	2.408674890569041	smiling	061	sub-08	1.0	1.0	061_smiling	0.0		396.97552335886576	1.2333172946891864
11.0	69.30179465786205	pulse	0.0	t		40.0	male	black	2.408674890569041	smiling	061	sub-08	1.0	1.0	061_smiling	0.0		397.2589805338739	
11.0	70.00177733129749	pulse	0.0	t		40.0	male	black	2.408674890569041	smiling	061	sub-08	1.0	1.0	061_smiling	0.0		397.95896320730935	
11.0	70.25165477754308	fix	1.0		444	40.0	male	black	2.408674890569041	smiling	061	sub-08	1.0	1.0	061_smiling	0.0		398.20884065355494	3.766606637462246
11.0	70.70177600312854	pulse	1.0	t		40.0	male	black	2.408674890569041	smiling	061	sub-08	1.0	1.0	061_smiling	0.0		398.6589618791404	
11.0	71.40176471369341	pulse	1.0	t		40.0	male	black	2.408674890569041	smiling	061	sub-08	1.0	1.0	061_smiling	0.0		399.3589505897053	
11.0	72.10174587784604	pulse	1.0	t		40.0	male	black	2.408674890569041	smiling	061	sub-08	1.0	1.0	061_smiling	0.0		400.0589317538579	
11.0	72.80173821069002	pulse	1.0	t		40.0	male	black	2.408674890569041	smiling	061	sub-08	1.0	1.0	061_smiling	0.0		400.7589240867019	
11.0	73.50172420454692	pulse	1.0	t		40.0	male	black	2.408674890569041	smiling	061	sub-08	1.0	1.0	061_smiling	0.0		401.4589100805588	
12.0	74.01826141500533	face	0.0		145	27.0	male	black	3.5523278949462798	neutral	042	sub-08	1.0	1.0	042_neutral	0.0		401.9754472910172	1.2333287652381841
12.0	74.20184090228395	pulse	0.0	t		27.0	male	black	3.5523278949462798	neutral	042	sub-08	1.0	1.0	042_neutral	0.0		402.1590267782958	
12.0	74.90170645538274	pulse	0.0	t		27.0	male	black	3.5523278949462798	neutral	042	sub-08	1.0	1.0	042_neutral	0.0		402.8588923313946	
12.0	75.25159018024351	fix	1.0		444	27.0	male	black	3.5523278949462798	neutral	042	sub-08	1.0	1.0	042_neutral	0.0		403.2087760562554	3.7665969780537125
12.0	75.60169637337458	pulse	1.0	t		27.0	male	black	3.5523278949462798	neutral	042	sub-08	1.0	1.0	042_neutral	0.0		403.55888224938644	
12.0	76.30168448022596	pulse	1.0	t		27.0	male	black	3.5523278949462798	neutral	042	sub-08	1.0	1.0	042_neutral	0.0		404.2588703562378	
12.0	77.00167047408286	pulse	1.0	t		27.0	male	black	3.5523278949462798	neutral	042	sub-08	1.0	1.0	042_neutral	0.0		404.9588563500947	
12.0	77.70166341064032	pulse	1.0	t		27.0	male	black	3.5523278949462798	neutral	042	sub-08	1.0	1.0	042_neutral	0.0		405.6588492866522	
12.0	78.40165664905362	pulse	1.0	t		27.0	male	black	3.5523278949462798	neutral	042	sub-08	1.0	1.0	042_neutral	0.0		406.3588425250655	
13.0	79.01818715829722	face	0.0		145	28.0	male	white	3.9076800636689217	smiling	033	sub-08	1.0	1.0	033_smiling	0.0		406.9753730343091	1.2333296708075068
13.0	79.1016670932895	pulse	0.0	t		28.0	male	white	3.9076800636689217	smiling	033	sub-08	1.0	1.0	033_smiling	0.0		407.05885296930137	
13.0	79.80162954233674	pulse	0.0	t		28.0	male	white	3.9076800636689217	smiling	033	sub-08	1.0	1.0	033_smiling	0.0		407.7588154183486	
13.0	80.25151682910473	fix	1.0		444	28.0	male	white	3.9076800636689217	smiling	033	sub-08	1.0	1.0	033_smiling	0.0		408.2087027051166	3.7665903372108005
13.0	80.5016297234506	pulse	1.0	t		28.0	male	white	3.9076800636689217	smiling	033	sub-08	1.0	1.0	033_smiling	0.0		408.45881559946247	
13.0	81.20159851148492	pulse	1.0	t		28.0	male	white	3.9076800636689217	smiling	033	sub-08	1.0	1.0	033_smiling	0.0		409.1587843874968	
13.0	81.9015995981681	pulse	1.0	t		28.0	male	white	3.9076800636689217	smiling	033	sub-08	1.0	1.0	033_smiling	0.0		409.85878547417997	
13.0	82.60161034425983	pulse	1.0	t		28.0	male	white	3.9076800636689217	smiling	033	sub-08	1.0	1.0	033_smiling	0.0		410.5587962202717	
13.0	83.30157068031076	pulse	1.0	t		28.0	male	white	3.9076800636689217	smiling	033	sub-08	1.0	1.0	033_smiling	0.0		411.2587565563226	
14.0	84.01810716631553	face	0.0		146	22.0	female	white	4.614007162753682	neutral	009	sub-08	1.0	1.0	009_neutral	0.0		411.9752930423274	1.2333172946891864
14.0	84.00440227575564	pulse	0.0	t		22.0	female	white	4.614007162753682	neutral	009	sub-08	1.0	1.0	009_neutral	0.0		411.9615881517675	
14.0	84.70155776085085	pulse	0.0	t		22.0	female	white	4.614007162753682	neutral	009	sub-08	1.0	1.0	009_neutral	0.0		412.6587436368627	
14.0	85.25142446100472	fix	1.0		443	22.0	female	white	4.614007162753682	neutral	009	sub-08	1.0	1.0	009_neutral	0.0		413.2086103370166	3.766614485732134
14.0	85.40155039555248	pulse	1.0	t		22.0	female	white	4.614007162753682	neutral	009	sub-08	1.0	1.0	009_neutral	0.0		413.35873627156434	
14.0	86.10153397455542	pulse	1.0	t		22.0	female	white	4.614007162753682	neutral	009	sub-08	1.0	1.0	009_neutral	0.0		414.0587198505673	
14.0	86.80152751482638	pulse	1.0	t		22.0	female	white	4.614007162753682	neutral	009	sub-08	1.0	1.0	009_neutral	0.0		414.75871339083824	
14.0	87.50151864024338	pulse	1.0	t		22.0	female	white	4.614007162753682	neutral	009	sub-08	1.0	1.0	009_neutral	0.0		415.45870451625524	
14.0	88.20150070996533	pulse	1.0	t		22.0	female	white	4.614007162753682	neutral	009	sub-08	1.0	1.0	009_neutral	0.0		416.1586865859772	
14.0	88.90148911867436	pulse	1.0	t		22.0	female	white	4.614007162753682	neutral	009	sub-08	1.0	1.0	009_neutral	0.0		416.8586749946862	
15.0	89.01803894673685	face	0.0		146	22.0	male	black	2.767608436132113	smiling	044	sub-08	1.0	1.0	044_smiling	0.0		416.9752248227487	1.2333230299645948
15.0	89.60148567751094	pulse	0.0	t		22.0	male	black	2.767608436132113	smiling	044	sub-08	1.0	1.0	044_smiling	0.0		417.5586715535228	
15.0	90.25136197670145	fix	1.0		443	22.0	male	black	2.767608436132113	smiling	044	sub-08	1.0	1.0	044_smiling	0.0		418.2085478527133	3.758320071769049
15.0	90.3014722750795	pulse	1.0	t		22.0	male	black	2.767608436132113	smiling	044	sub-08	1.0	1.0	044_smiling	0.0		418.25865815109137	
15.0	91.00145525037078	pulse	1.0	t		22.0	male	black	2.767608436132113	smiling	044	sub-08	1.0	1.0	044_smiling	0.0		418.95864112638264	
15.0	91.70145180920736	pulse	1.0	t		22.0	male	black	2.767608436132113	smiling	044	sub-08	1.0	1.0	044_smiling	0.0		419.6586376852192	
15.0	92.40144444390717	pulse	1.0	t		22.0	male	black	2.767608436132113	smiling	044	sub-08	1.0	1.0	044_smiling	0.0		420.35863031991903	
15.0	93.1014213820672	pulse	1.0	t		22.0	male	black	2.767608436132113	smiling	044	sub-08	1.0	1.0	044_smiling	0.0		421.05860725807906	
15.0	93.80142005389825	pulse	1.0	t		22.0	male	black	2.767608436132113	smiling	044	sub-08	1.0	1.0	044_smiling	0.0		421.7586059299101	
16.0	94.0096820484705	face	0.0		146	20.0	male	black	3.1070433744528456	smiling	082	sub-08	1.0	1.0	082_smiling	0.0		421.96686792448236	1.2416065770921705
16.0	94.50142415914706	pulse	0.0	t		20.0	male	black	3.1070433744528456	smiling	082	sub-08	1.0	1.0	082_smiling	0.0		422.4586100351589	
16.0	95.20139506017767	pulse	0.0	t		20.0	male	black	3.1070433744528456	smiling	082	sub-08	1.0	1.0	082_smiling	0.0		423.15858093618954	
16.0	95.25128862556267	fix	1.0		444	20.0	male	black	3.1070433744528456	smiling	082	sub-08	1.0	1.0	082_smiling	0.0		423.2084745015745	3.7665957706267363
16.0	95.90139041158727	pulse	1.0	t		20.0	male	black	3.1070433744528456	smiling	082	sub-08	1.0	1.0	082_smiling	0.0		423.85857628759913	
16.0	96.60137942400797	pulse	1.0	t		20.0	male	black	3.1070433744528456	smiling	082	sub-08	1.0	1.0	082_smiling	0.0		424.55856530001984	
16.0	97.30136541786487	pulse	1.0	t		20.0	male	black	3.1070433744528456	smiling	082	sub-08	1.0	1.0	082_smiling	0.0		425.25855129387674	
16.0	98.0013486950138	pulse	1.0	t		20.0	male	black	3.1070433744528456	smiling	082	sub-08	1.0	1.0	082_smiling	0.0		425.95853457102567	
16.0	98.70134495199272	pulse	1.0	t		20.0	male	black	3.1070433744528456	smiling	082	sub-08	1.0	1.0	082_smiling	0.0		426.6585308280046	
17.0	99.0178843961894	face	0.0		145	31.0	female	east_asian	3.395941106247513	smiling	087	sub-08	1.0	1.0	087_smiling	0.0		426.97507027220126	1.2333251429590746
17.0	99.4013424163968	pulse	0.0	t		31.0	female	east_asian	3.395941106247513	smiling	087	sub-08	1.0	1.0	087_smiling	0.0		427.35852829240866	
17.0	100.10132418426292	pulse	0.0	t		31.0	female	east_asian	3.395941106247513	smiling	087	sub-08	1.0	1.0	087_smiling	0.0		428.0585100602748	
17.0	100.25120953914848	fix	1.0		444	31.0	female	east_asian	3.395941106247513	smiling	087	sub-08	1.0	1.0	087_smiling	0.0		428.20839541516034	3.766596676197878
17.0	100.80132044124184	pulse	1.0	t		31.0	female	east_asian	3.395941106247513	smiling	087	sub-08	1.0	1.0	087_smiling	0.0		428.7585063172537	
17.0	101.50130281281963	pulse	1.0	t		31.0	female	east_asian	3.395941106247513	smiling	087	sub-08	1.0	1.0	087_smiling	0.0		429.4584886888315	
17.0	102.20128820296304	pulse	1.0	t		31.0	female	east_asian	3.395941106247513	smiling	087	sub-08	1.0	1.0	087_smiling	0.0		430.1584740789749	
17.0	102.90129140264253	pulse	1.0	t		31.0	female	east_asian	3.395941106247513	smiling	087	sub-08	1.0	1.0	087_smiling	0.0		430.8584772786544	
17.0	103.6012743779338	pulse	1.0	t		31.0	female	east_asian	3.395941106247513	smiling	087	sub-08	1.0	1.0	087_smiling	0.0		431.55846025394567	
18.0	104.01780621534635	face	0.0		145	19.0	male	white	3.2522881018702745	smiling	018	sub-08	1.0	1.0	018_smiling	0.0		431.9749920913582	1.2333290670940187
18.0	104.301263994068	pulse	0.0	t		19.0	male	white	3.2522881018702745	smiling	018	sub-08	1.0	1.0	018_smiling	0.0		432.25844987007986	
18.0	105.0012514972077	pulse	0.0	t		19.0	male	white	3.2522881018702745	smiling	018	sub-08	1.0	1.0	018_smiling	0.0		432.95843737321957	
18.0	105.25113528244037	fix	1.0		444	19.0	male	white	3.2522881018702745	smiling	018	sub-08	1.0	1.0	018_smiling	0.0		433.20832115845224	3.758308601220051
18.0	105.70124413190752	pulse	1.0	t		19.0	male	white	3.2522881018702745	smiling	018	sub-08	1.0	1.0	018_smiling	0.0		433.6584300079194	
18.0	106.40123133319139	pulse	1.0	t		19.0	male	white	3.2522881018702745	smiling	018	sub-08	1.0	1.0	018_smiling	0.0		434.35841720920325	
18.0	107.10121430848267	pulse	1.0	t		19.0	male	white	3.2522881018702745	smiling	018	sub-08	1.0	1.0	018_smiling	0.0		435.05840018449453	
18.0	107.80120905617878	pulse	1.0	t		19.0	male	white	3.2522881018702745	smiling	018	sub-08	1.0	1.0	018_smiling	0.0		435.75839493219064	
18.0	108.50119233332589	pulse	1.0	t		19.0	male	white	3.2522881018702745	smiling	018	sub-08	1.0	1.0	018_smiling	0.0		436.45837820933775	
19.0	109.00944388366042	face	0.0		146	26.0	male	white	2.7966573816155993	smiling	117	sub-08	1.0	1.0	117_smiling	0.0		436.9666297596723	1.2416165383583575
19.0	109.20119009958762	pulse	0.0	t		26.0	male	white	2.7966573816155993	smiling	117	sub-08	1.0	1.0	117_smiling	0.0		437.1583759755995	
19.0	109.90117579158687	pulse	0.0	t		26.0	male	white	2.7966573816155993	smiling	117	sub-08	1.0	1.0	117_smiling	0.0		437.85836166759873	
19.0	110.25106042201878	fix	1.0		444	26.0	male	white	2.7966573816155993	smiling	117	sub-08	1.0	1.0	117_smiling	0.0		438.20824629803064	3.75838255607232
19.0	110.60116510586704	pulse	1.0	t		26.0	male	white	2.7966573816155993	smiling	117	sub-08	1.0	1.0	117_smiling	0.0		438.5583509818789	
19.0	111.30115502385706	pulse	1.0	t		26.0	male	white	2.7966573816155993	smiling	117	sub-08	1.0	1.0	117_smiling	0.0		439.2583408998689	
19.0	112.00114162142745	pulse	1.0	t		26.0	male	white	2.7966573816155993	smiling	117	sub-08	1.0	1.0	117_smiling	0.0		439.9583274974393	
19.0	112.70113214313278	pulse	1.0	t		26.0	male	white	2.7966573816155993	smiling	117	sub-08	1.0	1.0	117_smiling	0.0		440.65831801914464	
19.0	113.40110938314865	pulse	1.0	t		26.0	male	white	2.7966573816155993	smiling	117	sub-08	1.0	1.0	117_smiling	0.0		441.3582952591605	
20.0	114.0094429780911	face	0.0		146	40.0	male	white	1.868682849184242	smiling	172	sub-08	1.0	1.0	172_smiling	0.0		441.96662885410296	1.2415329240975552
20.0	114.10111409211095	pulse	0.0	t		40.0	male	white	1.868682849184242	smiling	172	sub-08	1.0	1.0	172_smiling	0.0		442.0582999681228	
20.0	114.80110491567211	pulse	0.0	t		40.0	male	white	1.868682849184242	smiling	172	sub-08	1.0	1.0	172_smiling	0.0		442.758290791684	
20.0	115.25097590218866	fix	1.0		1185	40.0	male	white	1.868682849184242	smiling	172	sub-08	1.0	1.0	172_smiling	0.0		443.2081617782005	10.016510345227289
20.0	115.50108366497261	pulse	1.0	t		40.0	male	white	1.868682849184242	smiling	172	sub-08	1.0	1.0	172_smiling	0.0		443.4582695409845	
20.0	116.20108143123434	pulse	1.0	t		40.0	male	white	1.868682849184242	smiling	172	sub-08	1.0	1.0	172_smiling	0.0		444.1582673072462	
20.0	116.90106802880291	pulse	1.0	t		40.0	male	white	1.868682849184242	smiling	172	sub-08	1.0	1.0	172_smiling	0.0		444.8582539048148	
20.0	117.60105915422173	pulse	1.0	t		40.0	male	white	1.868682849184242	smiling	172	sub-08	1.0	1.0	172_smiling	0.0		445.5582450302336	
20.0	118.30104665736144	pulse	1.0	t		40.0	male	white	1.868682849184242	smiling	172	sub-08	1.0	1.0	172_smiling	0.0		446.2582325333733	
20.0	119.00103144379136	pulse	1.0	t		40.0	male	white	1.868682849184242	smiling	172	sub-08	1.0	1.0	172_smiling	0.0		446.9582173198032	
20.0	119.70102528591815	pulse	1.0	t		40.0	male	white	1.868682849184242	smiling	172	sub-08	1.0	1.0	172_smiling	0.0		447.65821116193	
20.0	120.40101490205234	pulse	1.0	t		40.0	male	white	1.868682849184242	smiling	172	sub-08	1.0	1.0	172_smiling	0.0		448.3582007780642	
20.0	121.1010042163307	pulse	1.0	t		40.0	male	white	1.868682849184242	smiling	172	sub-08	1.0	1.0	172_smiling	0.0		449.05819009234256	
20.0	121.80100469930221	pulse	1.0	t		40.0	male	white	1.868682849184242	smiling	172	sub-08	1.0	1.0	172_smiling	0.0		449.7581905753141	
20.0	122.50099793771551	pulse	1.0	t		40.0	male	white	1.868682849184242	smiling	172	sub-08	1.0	1.0	172_smiling	0.0		450.4581838137274	
20.0	123.20096702760566	pulse	1.0	t		40.0	male	white	1.868682849184242	smiling	172	sub-08	1.0	1.0	172_smiling	0.0		451.1581529036175	
20.0	123.90096328458458	pulse	1.0	t		40.0	male	white	1.868682849184242	smiling	172	sub-08	1.0	1.0	172_smiling	0.0		451.85814916059644	
20.0	124.6009480710145	pulse	1.0	t		40.0	male	white	1.868682849184242	smiling	172	sub-08	1.0	1.0	172_smiling	0.0		452.55813394702636	
21.0	125.26748624741595	face	0.0		145	27.0	female	white	3.504576203740549	neutral	144	sub-08	1.0	1.0	144_neutral	0.0		453.2246721234278	1.2333302745191759
21.0	125.30094221499894	pulse	0.0	t		27.0	female	white	3.504576203740549	neutral	144	sub-08	1.0	1.0	144_neutral	0.0		453.2581280910108	
21.0	126.00093122741964	pulse	0.0	t		27.0	female	white	3.504576203740549	neutral	144	sub-08	1.0	1.0	144_neutral	0.0		453.9581171034315	
21.0	126.50081652193512	fix	1.0		443	27.0	female	white	3.504576203740549	neutral	144	sub-08	1.0	1.0	144_neutral	0.0		454.458002397947	3.7583369757358014
21.0	126.70092235283846	pulse	1.0	t		27.0	female	white	3.504576203740549	neutral	144	sub-08	1.0	1.0	144_neutral	0.0		454.6581082288503	
21.0	127.4009180061039	pulse	1.0	t		27.0	female	white	3.504576203740549	neutral	144	sub-08	1.0	1.0	144_neutral	0.0		455.35810388211576	
21.0	128.10089735911606	pulse	1.0	t		27.0	female	white	3.504576203740549	neutral	144	sub-08	1.0	1.0	144_neutral	0.0		456.0580832351279	
21.0	128.80088818267723	pulse	1.0	t		27.0	female	white	3.504576203740549	neutral	144	sub-08	1.0	1.0	144_neutral	0.0		456.7580740586891	
21.0	129.5008790062384	pulse	1.0	t		27.0	female	white	3.504576203740549	neutral	144	sub-08	1.0	1.0	144_neutral	0.0		457.45806488225026	
21.0	130.20086952794372	pulse	1.0	t		27.0	female	white	3.504576203740549	neutral	144	sub-08	1.0	1.0	144_neutral	0.0		458.1580554039556	
22.0	130.25915349767092	face	0.0		146	20.0	male	black	2.609629924393156	neutral	043	sub-08	1.0	1.0	043_neutral	0.0		458.2163393736828	1.2415519410587876
22.0	130.85087441801988	response	0.0	g		20.0	male	black	2.609629924393156	neutral	043	sub-08	1.0	1.0	043_neutral	0.0		458.80806029403175	
22.0	130.90084857910006	pulse	0.0	t		20.0	male	black	2.609629924393156	neutral	043	sub-08	1.0	1.0	043_neutral	0.0		458.8580344551119	
22.0	131.5007054387297	fix	1.0		443	20.0	male	black	2.609629924393156	neutral	043	sub-08	1.0	1.0	043_neutral	0.0		459.4578913147416	3.7584278345530038
22.0	131.60082098941166	pulse	1.0	t		20.0	male	black	2.609629924393156	neutral	043	sub-08	1.0	1.0	043_neutral	0.0		459.5580068654235	
22.0	132.30083294293217	pulse	1.0	t		20.0	male	black	2.609629924393156	neutral	043	sub-08	1.0	1.0	043_neutral	0.0		460.25801881894404	
22.0	133.0008228609222	pulse	1.0	t		20.0	male	black	2.609629924393156	neutral	043	sub-08	1.0	1.0	043_neutral	0.0		460.95800873693406	
22.0	133.70082455131887	pulse	1.0	t		20.0	male	black	2.609629924393156	neutral	043	sub-08	1.0	1.0	043_neutral	0.0		461.65801042733074	
22.0	134.40080511175802	pulse	1.0	t		20.0	male	black	2.609629924393156	neutral	043	sub-08	1.0	1.0	043_neutral	0.0		462.3579909877699	
22.0	135.10079653903267	pulse	1.0	t		20.0	male	black	2.609629924393156	neutral	043	sub-08	1.0	1.0	043_neutral	0.0		463.05798241504453	
23.0	135.2591332732827	face	0.0		146	24.0	male	white	3.1153999204138483	neutral	012	sub-08	1.0	1.0	012_neutral	1.0	attractiveness	463.2163191492946	1.2415289999626111
23.0	135.71745443173677	response	0.0	y		24.0	male	white	3.1153999204138483	neutral	012	sub-08	1.0	1.0	012_neutral	1.0	attractiveness	463.67464030774863	
23.0	135.80077528833317	pulse	0.0	t		24.0	male	white	3.1153999204138483	neutral	012	sub-08	1.0	1.0	012_neutral	1.0	attractiveness	463.75796116434503	
23.0	136.50066227324533	fix	1.0		177	24.0	male	white	3.1153999204138483	neutral	012	sub-08	1.0	1.0	012_neutral	1.0	attractiveness	464.4578481492572	1.499977360759658
23.0	136.50856155699876	pulse	1.0	t		24.0	male	white	3.1153999204138483	neutral	012	sub-08	1.0	1.0	012_neutral	1.0	attractiveness	464.4657474330106	
23.0	137.20076327444258	pulse	1.0	t		24.0	male	white	3.1153999204138483	neutral	012	sub-08	1.0	1.0	012_neutral	1.0	attractiveness	465.15794915045444	
23.0	137.90075319243442	pulse	1.0	t		24.0	male	white	3.1153999204138483	neutral	012	sub-08	1.0	1.0	012_neutral	1.0	attractiveness	465.8579390684463	
23.0	138.00063963400498	rating	2.0		296	24.0	male	white	3.1153999204138483	neutral	012	sub-08	1.0	1.0	012_neutral	1.0	attractiveness	465.95782551001685	2.499961362362228
23.0	138.60074250671278	pulse	2.0	t		24.0	male	white	3.1153999204138483	neutral	012	sub-08	1.0	1.0	012_neutral	1.0	attractiveness	466.55792838272464	
23.0	139.30072125601146	pulse	2.0	t		24.0	male	white	3.1153999204138483	neutral	012	sub-08	1.0	1.0	012_neutral	1.0	attractiveness	467.2579071320233	
23.0	140.00071932413084	pulse	2.0	t		24.0	male	white	3.1153999204138483	neutral	012	sub-08	1.0	1.0	012_neutral	1.0	attractiveness	467.9579052001427	
23.0	140.5006009963672	fix	3.0		443	24.0	male	white	3.1153999204138483	neutral	012	sub-08	1.0	1.0	012_neutral	1.0	attractiveness	468.4577868723791	3.7665963743402244
23.0	140.70071648667908	pulse	3.0	t		24.0	male	white	3.1153999204138483	neutral	012	sub-08	1.0	1.0	012_neutral	1.0	attractiveness	468.65790236269095	
23.0	141.40070097125317	pulse	3.0	t		24.0	male	white	3.1153999204138483	neutral	012	sub-08	1.0	1.0	012_neutral	1.0	attractiveness	469.35788684726504	
23.0	142.10069753008793	pulse	3.0	t		24.0	male	white	3.1153999204138483	neutral	012	sub-08	1.0	1.0	012_neutral	1.0	attractiveness	470.0578834060998	
23.0	142.80067778867124	pulse	3.0	t		24.0	male	white	3.1153999204138483	neutral	012	sub-08	1.0	1.0	012_neutral	1.0	attractiveness	470.7578636646831	
23.0	143.5006686122324	pulse	3.0	t		24.0	male	white	3.1153999204138483	neutral	012	sub-08	1.0	1.0	012_neutral	1.0	attractiveness	471.45785448824427	
23.0	144.20064947452738	pulse	3.0	t		24.0	male	white	3.1153999204138483	neutral	012	sub-08	1.0	1.0	012_neutral	1.0	attractiveness	472.15783535053924	
24.0	144.26719737070744	face	0.0		146	31.0	male	west_asian	1.9538400318344609	neutral	070	sub-08	1.0	1.0	070_neutral	0.0		472.2243832467193	1.233328161524696
24.0	144.90065025935473	pulse	0.0	t		31.0	male	west_asian	1.9538400318344609	neutral	070	sub-08	1.0	1.0	070_neutral	0.0		472.8578361353666	
24.0	145.50052553223213	fix	1.0		443	31.0	male	west_asian	1.9538400318344609	neutral	070	sub-08	1.0	1.0	070_neutral	0.0		473.457711408244	3.7582575874657778
24.0	145.6006431959122	pulse	1.0	t		31.0	male	west_asian	1.9538400318344609	neutral	070	sub-08	1.0	1.0	070_neutral	0.0		473.55782907192406	
24.0	146.30062677491514	pulse	1.0	t		31.0	male	west_asian	1.9538400318344609	neutral	070	sub-08	1.0	1.0	070_neutral	0.0		474.257812650927	
24.0	147.00061397619902	pulse	1.0	t		31.0	male	west_asian	1.9538400318344609	neutral	070	sub-08	1.0	1.0	070_neutral	0.0		474.9577998522109	
24.0	147.7006026867639	pulse	1.0	t		31.0	male	west_asian	1.9538400318344609	neutral	070	sub-08	1.0	1.0	070_neutral	0.0		475.65778856277575	
24.0	148.40059592517719	pulse	1.0	t		31.0	male	west_asian	1.9538400318344609	neutral	070	sub-08	1.0	1.0	070_neutral	0.0		476.35778180118905	
24.0	149.10056380764217	pulse	1.0	t		31.0	male	west_asian	1.9538400318344609	neutral	070	sub-08	1.0	1.0	070_neutral	0.0		477.05774968365404	
25.0	149.2587831196979	face	0.0		147	24.0	female	east_asian	2.9076800636689217	smiling	034	sub-08	1.0	1.0	034_smiling	0.0		477.2159689957098	1.2416672502567963
25.0	149.80058662799638	pulse	0.0	t		24.0	female	east_asian	2.9076800636689217	smiling	034	sub-08	1.0	1.0	034_smiling	0.0		477.75777250400824	
25.0	150.5004503699547	fix	1.0		444	24.0	female	east_asian	2.9076800636689217	smiling	034	sub-08	1.0	1.0	034_smiling	0.0		478.45763624596657	3.7583747078024317
25.0	150.5080770772547	pulse	1.0	t		24.0	female	east_asian	2.9076800636689217	smiling	034	sub-08	1.0	1.0	034_smiling	0.0		478.4652629532666	
25.0	151.20054774887467	pulse	1.0	t		24.0	female	east_asian	2.9076800636689217	smiling	034	sub-08	1.0	1.0	034_smiling	0.0		479.15773362488653	
25.0	151.90053706315302	pulse	1.0	t		24.0	female	east_asian	2.9076800636689217	smiling	034	sub-08	1.0	1.0	034_smiling	0.0		479.8577229391649	
25.0	152.60053181084913	pulse	1.0	t		24.0	female	east_asian	2.9076800636689217	smiling	034	sub-08	1.0	1.0	034_smiling	0.0		480.557717686861	
25.0	153.30051297499995	pulse	1.0	t		24.0	female	east_asian	2.9076800636689217	smiling	034	sub-08	1.0	1.0	034_smiling	0.0		481.2576988510118	
25.0	154.0005050059881	pulse	1.0	t		24.0	female	east_asian	2.9076800636689217	smiling	034	sub-08	1.0	1.0	034_smiling	0.0		481.95769088199995	
26.0	154.25882507775714	face	0.0		146	32.0	male	white	2.389176283326701	smiling	092	sub-08	1.0	1.0	092_smiling	0.0		482.216010953769	1.2415486206373316
26.0	154.7005003573977	pulse	0.0	t		32.0	male	white	2.389176283326701	smiling	092	sub-08	1.0	1.0	092_smiling	0.0		482.65768623340955	
26.0	155.4004893698202	pulse	0.0	t		32.0	male	white	2.389176283326701	smiling	092	sub-08	1.0	1.0	092_smiling	0.0		483.35767524583207	
26.0	155.50037369839447	fix	1.0		444	32.0	male	white	2.389176283326701	smiling	092	sub-08	1.0	1.0	092_smiling	0.0		483.45755957440633	3.766596676196059
26.0	156.10047596738877	pulse	1.0	t		32.0	male	white	2.389176283326701	smiling	092	sub-08	1.0	1.0	092_smiling	0.0		484.05766184340064	
26.0	156.80046467795364	pulse	1.0	t		32.0	male	white	2.389176283326701	smiling	092	sub-08	1.0	1.0	092_smiling	0.0		484.7576505539655	
26.0	157.50045882193808	pulse	1.0	t		32.0	male	white	2.389176283326701	smiling	092	sub-08	1.0	1.0	092_smiling	0.0		485.45764469794995	
26.0	158.2004414953717	pulse	1.0	t		32.0	male	white	2.389176283326701	smiling	092	sub-08	1.0	1.0	092_smiling	0.0		486.15762737138357	
26.0	158.90043382821568	pulse	1.0	t		32.0	male	white	2.389176283326701	smiling	092	sub-08	1.0	1.0	092_smiling	0.0		486.85761970422755	
27.0	159.26697037459053	face	0.0		145	40.0	male	black	2.408674890569041	neutral	061	sub-08	1.0	1.0	061_neutral	0.0		487.2241562506024	1.233327557811208
27.0	159.600424349921	pulse	0.0	t		40.0	male	black	2.408674890569041	neutral	061	sub-08	1.0	1.0	061_neutral	0.0		487.5576102259329	
27.0	160.30040611778531	pulse	0.0	t		40.0	male	black	2.408674890569041	neutral	061	sub-08	1.0	1.0	061_neutral	0.0		488.2575919937972	
27.0	160.50029793240174	fix	1.0		444	40.0	male	black	2.408674890569041	neutral	061	sub-08	1.0	1.0	061_neutral	0.0		488.4574838084136	3.766597279911366
27.0	161.00043074927999	pulse	1.0	t		40.0	male	black	2.408674890569041	neutral	061	sub-08	1.0	1.0	061_neutral	0.0		488.95761662529185	
27.0	161.70039229275608	pulse	1.0	t		40.0	male	black	2.408674890569041	neutral	061	sub-08	1.0	1.0	061_neutral	0.0		489.65757816876794	
27.0	162.4003849274577	pulse	1.0	t		40.0	male	black	2.408674890569041	neutral	061	sub-08	1.0	1.0	061_neutral	0.0		490.35757080346957	
27.0	163.10036820460482	pulse	1.0	t		40.0	male	black	2.408674890569041	neutral	061	sub-08	1.0	1.0	061_neutral	0.0		491.0575540806167	
27.0	163.80036868757452	pulse	1.0	t		40.0	male	black	2.408674890569041	neutral	061	sub-08	1.0	1.0	061_neutral	0.0		491.7575545635864	
28.0	164.2668952123131	face	0.0		145	32.0	male	white	2.389176283326701	neutral	092	sub-08	1.0	1.0	092_neutral	0.0		492.22408108832497	1.2333254448149091
28.0	164.50035256843694	pulse	0.0	t		32.0	male	white	2.389176283326701	neutral	092	sub-08	1.0	1.0	092_neutral	0.0		492.4575384444488	
28.0	165.20033131773562	pulse	0.0	t		32.0	male	white	2.389176283326701	neutral	092	sub-08	1.0	1.0	092_neutral	0.0		493.1575171937475	
28.0	165.500220657128	fix	1.0		444	32.0	male	white	2.389176283326701	neutral	092	sub-08	1.0	1.0	092_neutral	0.0		493.4574065331399	3.7665981854806887
28.0	165.9003236505796	pulse	1.0	t		32.0	male	white	2.389176283326701	neutral	092	sub-08	1.0	1.0	092_neutral	0.0		493.85750952659146	
28.0	166.60030813515368	pulse	1.0	t		32.0	male	white	2.389176283326701	neutral	092	sub-08	1.0	1.0	092_neutral	0.0		494.55749401116555	
28.0	167.30030922183687	pulse	1.0	t		32.0	male	white	2.389176283326701	neutral	092	sub-08	1.0	1.0	092_neutral	0.0		495.25749509784873	
28.0	168.00029853611522	pulse	1.0	t		32.0	male	white	2.389176283326701	neutral	092	sub-08	1.0	1.0	092_neutral	0.0		495.9574844121271	
28.0	168.70028996338988	pulse	1.0	t		32.0	male	white	2.389176283326701	neutral	092	sub-08	1.0	1.0	092_neutral	0.0		496.65747583940174	
29.0	169.2668188426087	face	0.0		145	30.0	female	black	2.7345801830481498	neutral	062	sub-08	1.0	1.0	062_neutral	0.0		497.22400471862056	1.2333332930866163
29.0	169.40030101133925	pulse	0.0	t		30.0	female	black	2.7345801830481498	neutral	062	sub-08	1.0	1.0	062_neutral	0.0		497.3574868873511	
29.0	170.10030149430895	pulse	0.0	t		30.0	female	black	2.7345801830481498	neutral	062	sub-08	1.0	1.0	062_neutral	0.0		498.0574873703208	
29.0	170.50015213569532	fix	1.0		444	30.0	female	black	2.7345801830481498	neutral	062	sub-08	1.0	1.0	062_neutral	0.0		498.4573380117072	3.766593355774603
29.0	170.80025337837833	pulse	1.0	t		30.0	female	black	2.7345801830481498	neutral	062	sub-08	1.0	1.0	062_neutral	0.0		498.7574392543902	
29.0	171.50024299451252	pulse	1.0	t		30.0	female	black	2.7345801830481498	neutral	062	sub-08	1.0	1.0	062_neutral	0.0		499.4574288705244	
29.0	172.20023200693504	pulse	1.0	t		30.0	female	black	2.7345801830481498	neutral	062	sub-08	1.0	1.0	062_neutral	0.0		500.1574178829469	
29.0	172.9002343010452	pulse	1.0	t		30.0	female	black	2.7345801830481498	neutral	062	sub-08	1.0	1.0	062_neutral	0.0		500.85742017705707	
29.0	173.60020972992243	pulse	1.0	t		30.0	female	black	2.7345801830481498	neutral	062	sub-08	1.0	1.0	062_neutral	0.0		501.5573956059343	
30.0	174.26674549146992	face	0.0		145	24.0	female	east_asian	2.9076800636689217	neutral	034	sub-08	1.0	1.0	034_neutral	1.0	dominance	502.2239313674818	1.2333239355339174
30.0	174.30020387390505	pulse	0.0	t		24.0	female	east_asian	2.9076800636689217	neutral	034	sub-08	1.0	1.0	034_neutral	1.0	dominance	502.2573897499169	
30.0	175.0002061680152	pulse	0.0	t		24.0	female	east_asian	2.9076800636689217	neutral	034	sub-08	1.0	1.0	034_neutral	1.0	dominance	502.9573920440271	
30.0	175.50006942700384	fix	1.0		177	24.0	female	east_asian	2.9076800636689217	neutral	034	sub-08	1.0	1.0	034_neutral	1.0	dominance	503.4572553030157	1.4999791718983033
30.0	175.70017465419187	pulse	1.0	t		24.0	female	east_asian	2.9076800636689217	neutral	034	sub-08	1.0	1.0	034_neutral	1.0	dominance	503.65736053020373	
30.0	176.40015762948315	pulse	1.0	t		24.0	female	east_asian	2.9076800636689217	neutral	034	sub-08	1.0	1.0	034_neutral	1.0	dominance	504.357343505495	
30.0	177.00004859890214	rating	2.0		295	24.0	female	east_asian	2.9076800636689217	neutral	034	sub-08	1.0	1.0	034_neutral	1.0	dominance	504.957234474914	2.499960758650559
30.0	177.10017048857299	pulse	2.0	t		24.0	female	east_asian	2.9076800636689217	neutral	034	sub-08	1.0	1.0	034_neutral	1.0	dominance	505.05735636458485	
30.0	177.80015557685874	pulse	2.0	t		24.0	female	east_asian	2.9076800636689217	neutral	034	sub-08	1.0	1.0	034_neutral	1.0	dominance	505.7573414528706	
30.0	178.50014277814262	pulse	2.0	t		24.0	female	east_asian	2.9076800636689217	neutral	034	sub-08	1.0	1.0	034_neutral	1.0	dominance	506.4573286541545	
30.0	179.20012635714556	pulse	2.0	t		24.0	female	east_asian	2.9076800636689217	neutral	034	sub-08	1.0	1.0	034_neutral	1.0	dominance	507.1573122331574	
30.0	179.5000093575527	fix	3.0		443	24.0	female	east_asian	2.9076800636689217	neutral	034	sub-08	1.0	1.0	034_neutral	1.0	dominance	507.45719523356456	3.7665957706267363
30.0	179.7501297983108	response	3.0	y		24.0	female	east_asian	2.9076800636689217	neutral	034	sub-08	1.0	1.0	034_neutral	1.0	dominance	507.7073156743227	
30.0	179.900097560032	pulse	3.0	t		24.0	female	east_asian	2.9076800636689217	neutral	034	sub-08	1.0	1.0	034_neutral	1.0	dominance	507.8572834360439	
30.0	180.60010257085014	pulse	3.0	t		24.0	female	east_asian	2.9076800636689217	neutral	034	sub-08	1.0	1.0	034_neutral	1.0	dominance	508.557288446862	
30.0	181.30010577052963	pulse	3.0	t		24.0	female	east_asian	2.9076800636689217	neutral	034	sub-08	1.0	1.0	034_neutral	1.0	dominance	509.2572916465415	
30.0	182.00007969012586	pulse	3.0	t		24.0	female	east_asian	2.9076800636689217	neutral	034	sub-08	1.0	1.0	034_neutral	1.0	dominance	509.9572655661377	
30.0	182.7000545152896	pulse	3.0	t		24.0	female	east_asian	2.9076800636689217	neutral	034	sub-08	1.0	1.0	034_neutral	1.0	dominance	510.65724039130146	
31.0	183.26660512817944	face	0.0		145	31.0	female	white	2.1822522881018704	neutral	102	sub-08	1.0	1.0	102_neutral	0.0		511.2237910041913	1.2333305763768294
31.0	183.40006737437943	pulse	0.0	t		31.0	female	white	2.1822522881018704	neutral	102	sub-08	1.0	1.0	102_neutral	0.0		511.3572532503913	
31.0	184.1000440106818	pulse	0.0	t		31.0	female	white	2.1822522881018704	neutral	102	sub-08	1.0	1.0	102_neutral	0.0		512.0572298866937	
31.0	184.49993570455626	fix	1.0		443	31.0	female	white	2.1822522881018704	neutral	102	sub-08	1.0	1.0	102_neutral	0.0		512.4571215805681	3.7582437020646466
31.0	184.80004509736682	pulse	1.0	t		31.0	female	white	2.1822522881018704	neutral	102	sub-08	1.0	1.0	102_neutral	0.0		512.7572309733787	
31.0	185.5000310912219	pulse	1.0	t		31.0	female	white	2.1822522881018704	neutral	102	sub-08	1.0	1.0	102_neutral	0.0		513.4572169672338	
31.0	185.7083582868072	response	1.0	y		31.0	female	white	2.1822522881018704	neutral	102	sub-08	1.0	1.0	102_neutral	0.0		513.6655441628191	
31.0	186.2000062182433	pulse	1.0	t		31.0	female	white	2.1822522881018704	neutral	102	sub-08	1.0	1.0	102_neutral	0.0		514.1571920942552	
31.0	186.9000103234921	pulse	1.0	t		31.0	female	white	2.1822522881018704	neutral	102	sub-08	1.0	1.0	102_neutral	0.0		514.857196199504	
31.0	187.59999963777045	pulse	1.0	t		31.0	female	white	2.1822522881018704	neutral	102	sub-08	1.0	1.0	102_neutral	0.0		515.5571855137823	
32.0	188.2581794066209	face	0.0		146	24.0	male	white	3.1153999204138483	smiling	012	sub-08	1.0	1.0	012_smiling	0.0		516.2153652826328	1.2416808338002738
32.0	188.3000269859731	pulse	0.0	t		24.0	male	white	3.1153999204138483	smiling	012	sub-08	1.0	1.0	012_smiling	0.0		516.257212861985	
32.0	188.99997102177076	pulse	0.0	t		24.0	male	white	3.1153999204138483	smiling	012	sub-08	1.0	1.0	012_smiling	0.0		516.9571568977826	
32.0	189.49986024042119	fix	1.0		442	24.0	male	white	3.1153999204138483	smiling	012	sub-08	1.0	1.0	012_smiling	0.0		517.457046116433	3.758260606031399
32.0	189.69997059917296	pulse	1.0	t		24.0	male	white	3.1153999204138483	smiling	012	sub-08	1.0	1.0	012_smiling	0.0		517.6571564751848	
32.0	189.71667352887198	response	1.0	w		24.0	male	white	3.1153999204138483	smiling	012	sub-08	1.0	1.0	012_smiling	0.0		517.6738594048838	
32.0	190.39994995218512	pulse	1.0	t		24.0	male	white	3.1153999204138483	smiling	012	sub-08	1.0	1.0	012_smiling	0.0		518.357135828197	
32.0	191.09994319059842	pulse	1.0	t		24.0	male	white	3.1153999204138483	smiling	012	sub-08	1.0	1.0	012_smiling	0.0		519.0571290666103	
32.0	191.79994789956072	pulse	1.0	t		24.0	male	white	3.1153999204138483	smiling	012	sub-08	1.0	1.0	012_smiling	0.0		519.7571337755726	
32.0	192.49992030987232	pulse	1.0	t		24.0	male	white	3.1153999204138483	smiling	012	sub-08	1.0	1.0	012_smiling	0.0		520.4571061858842	
32.0	193.1998924183281	pulse	1.0	t		24.0	male	white	3.1153999204138483	smiling	012	sub-08	1.0	1.0	012_smiling	0.0		521.15707829434	
33.0	193.25812084645258	face	0.0		146	34.0	male	white	2.651014723438122	neutral	121	sub-08	1.0	1.0	121_neutral	0.0		521.2153067224644	1.2416609112697188
33.0	193.89992369066567	pulse	0.0	t		34.0	male	white	2.651014723438122	neutral	121	sub-08	1.0	1.0	121_neutral	0.0		521.8571095666775	
33.0	194.34157331250026	response	0.0	w		34.0	male	white	2.651014723438122	neutral	121	sub-08	1.0	1.0	121_neutral	0.0		522.2987591885121	
33.0	194.4997817577223	fix	1.0		443	34.0	male	white	2.651014723438122	neutral	121	sub-08	1.0	1.0	121_neutral	0.0		522.4569676337342	3.7665975817672006
33.0	194.59986712275168	pulse	1.0	t		34.0	male	white	2.651014723438122	neutral	121	sub-08	1.0	1.0	121_neutral	0.0		522.5570529987635	
33.0	195.2998836041188	pulse	1.0	t		34.0	male	white	2.651014723438122	neutral	121	sub-08	1.0	1.0	121_neutral	0.0		523.2570694801307	
33.0	195.99988167223637	pulse	1.0	t		34.0	male	white	2.651014723438122	neutral	121	sub-08	1.0	1.0	121_neutral	0.0		523.9570675482482	
33.0	196.69985076212652	pulse	1.0	t		34.0	male	white	2.651014723438122	neutral	121	sub-08	1.0	1.0	121_neutral	0.0		524.6570366381384	
33.0	197.39985305623668	pulse	1.0	t		34.0	male	white	2.651014723438122	neutral	121	sub-08	1.0	1.0	121_neutral	0.0		525.3570389322485	
33.0	198.09980916629502	pulse	1.0	t		34.0	male	white	2.651014723438122	neutral	121	sub-08	1.0	1.0	121_neutral	0.0		526.0569950423069	
34.0	198.2663793394895	face	0.0		145	25.0	female	black	3.858336649423	neutral	126	sub-08	1.0	1.0	126_neutral	0.0		526.2235652155014	1.2332952591605135
34.0	198.7998295717971	pulse	0.0	t		25.0	female	black	3.858336649423	neutral	126	sub-08	1.0	1.0	126_neutral	0.0		526.757015447809	
34.0	199.38312899658013	response	0.0	y		25.0	female	black	3.858336649423	neutral	126	sub-08	1.0	1.0	126_neutral	0.0		527.340314872592	
34.0	199.49967459865002	fix	1.0		444	25.0	female	black	3.858336649423	neutral	126	sub-08	1.0	1.0	126_neutral	0.0		527.4568604746619	3.766629276704407
34.0	199.50705589658537	pulse	1.0	t		25.0	female	black	3.858336649423	neutral	126	sub-08	1.0	1.0	126_neutral	0.0		527.4642417725972	
34.0	200.19979642794897	pulse	1.0	t		25.0	female	black	3.858336649423	neutral	126	sub-08	1.0	1.0	126_neutral	0.0		528.1569823039608	
34.0	200.8997957034935	pulse	1.0	t		25.0	female	black	3.858336649423	neutral	126	sub-08	1.0	1.0	126_neutral	0.0		528.8569815795054	
34.0	201.59978652705468	pulse	1.0	t		25.0	female	black	3.858336649423	neutral	126	sub-08	1.0	1.0	126_neutral	0.0		529.5569724030665	
34.0	202.29978218032193	pulse	1.0	t		25.0	female	black	3.858336649423	neutral	126	sub-08	1.0	1.0	126_neutral	0.0		530.2569680563338	
34.0	202.99976455189972	pulse	1.0	t		25.0	female	black	3.858336649423	neutral	126	sub-08	1.0	1.0	126_neutral	0.0		530.9569504279116	
35.0	203.26630387535442	face	0.0		144	36.0	female	white	2.7548746518105847	smiling	011	sub-08	1.0	1.0	011_smiling	1.0	attractiveness	531.2234897513663	1.2333263503860508
35.0	203.69975869588234	pulse	0.0	t		36.0	female	white	2.7548746518105847	smiling	011	sub-08	1.0	1.0	011_smiling	1.0	attractiveness	531.6569445718942	
35.0	203.86639557937087	response	0.0	w		36.0	female	white	2.7548746518105847	smiling	011	sub-08	1.0	1.0	011_smiling	1.0	attractiveness	531.8235814553827	
35.0	204.39973895446383	pulse	0.0	t		36.0	female	white	2.7548746518105847	smiling	011	sub-08	1.0	1.0	011_smiling	1.0	attractiveness	532.3569248304757	
35.0	204.49963022574047	fix	1.0		177	36.0	female	white	2.7548746518105847	smiling	011	sub-08	1.0	1.0	011_smiling	1.0	attractiveness	532.4568161017523	1.4999782663289807
35.0	205.09973158916546	pulse	1.0	t		36.0	female	white	2.7548746518105847	smiling	011	sub-08	1.0	1.0	011_smiling	1.0	attractiveness	533.0569174651773	
35.0	205.79972060158798	pulse	1.0	t		36.0	female	white	2.7548746518105847	smiling	011	sub-08	1.0	1.0	011_smiling	1.0	attractiveness	533.7569064775998	
35.0	205.99960849206946	rating	2.0		296	36.0	female	white	2.7548746518105847	smiling	011	sub-08	1.0	1.0	011_smiling	1.0	attractiveness	533.9567943680813	2.499961362362228
35.0	206.4997132362878	pulse	2.0	t		36.0	female	white	2.7548746518105847	smiling	011	sub-08	1.0	1.0	011_smiling	1.0	attractiveness	534.4568991122997	
35.0	207.19970315427963	pulse	2.0	t		36.0	female	white	2.7548746518105847	smiling	011	sub-08	1.0	1.0	011_smiling	1.0	attractiveness	535.1568890302915	
35.0	207.8996933741273	pulse	2.0	t		36.0	female	white	2.7548746518105847	smiling	011	sub-08	1.0	1.0	011_smiling	1.0	attractiveness	535.8568792501392	
35.0	208.49956985443168	fix	3.0		443	36.0	female	white	2.7548746518105847	smiling	011	sub-08	1.0	1.0	011_smiling	1.0	attractiveness	536.4567557304435	3.766595468770902
35.0	208.59967363271062	pulse	3.0	t		36.0	female	white	2.7548746518105847	smiling	011	sub-08	1.0	1.0	011_smiling	1.0	attractiveness	536.5568595087225	
35.0	209.2996768323883	pulse	3.0	t		36.0	female	white	2.7548746518105847	smiling	011	sub-08	1.0	1.0	011_smiling	1.0	attractiveness	537.2568627084001	
35.0	209.99966161882003	pulse	3.0	t		36.0	female	white	2.7548746518105847	smiling	011	sub-08	1.0	1.0	011_smiling	1.0	attractiveness	537.9568474948319	
35.0	210.69964610339412	pulse	3.0	t		36.0	female	white	2.7548746518105847	smiling	011	sub-08	1.0	1.0	011_smiling	1.0	attractiveness	538.656831979406	
35.0	211.39964054923257	pulse	3.0	t		36.0	female	white	2.7548746518105847	smiling	011	sub-08	1.0	1.0	011_smiling	1.0	attractiveness	539.3568264252444	
35.0	212.09962201524104	pulse	3.0	t		36.0	female	white	2.7548746518105847	smiling	011	sub-08	1.0	1.0	011_smiling	1.0	attractiveness	540.0568078912529	
36.0	212.26616532320259	face	0.0		146	26.0	male	white	2.7966573816155993	neutral	117	sub-08	1.0	1.0	117_neutral	0.0		540.2233511992144	1.2333287652381841
36.0	212.79962129078558	pulse	0.0	t		26.0	male	white	2.7966573816155993	neutral	117	sub-08	1.0	1.0	117_neutral	0.0		540.7568071667974	
36.0	213.49949408844077	fix	1.0		444	26.0	male	white	2.7966573816155993	neutral	117	sub-08	1.0	1.0	117_neutral	0.0		541.4566799644526	3.766582790796747
36.0	213.50698737515086	pulse	1.0	t		26.0	male	white	2.7966573816155993	neutral	117	sub-08	1.0	1.0	117_neutral	0.0		541.4641732511627	
36.0	214.19959599520735	pulse	1.0	t		26.0	male	white	2.7966573816155993	neutral	117	sub-08	1.0	1.0	117_neutral	0.0		542.1567818712192	
36.0	214.89958047978143	pulse	1.0	t		26.0	male	white	2.7966573816155993	neutral	117	sub-08	1.0	1.0	117_neutral	0.0		542.8567663557933	
36.0	215.5995402121207	pulse	1.0	t		26.0	male	white	2.7966573816155993	neutral	117	sub-08	1.0	1.0	117_neutral	0.0		543.5567260881326	
36.0	216.2995802382975	pulse	1.0	t		26.0	male	white	2.7966573816155993	neutral	117	sub-08	1.0	1.0	117_neutral	0.0		544.2567661143094	
36.0	216.99953695206932	pulse	1.0	t		26.0	male	white	2.7966573816155993	neutral	117	sub-08	1.0	1.0	117_neutral	0.0		544.9567228280812	
37.0	217.26607687923752	face	0.0		145	30.0	female	black	2.7345801830481498	smiling	062	sub-08	1.0	1.0	062_smiling	0.0		545.2232627552494	1.2333417450681736
37.0	217.6995452833089	pulse	0.0	t		30.0	female	black	2.7345801830481498	smiling	062	sub-08	1.0	1.0	062_smiling	0.0		545.6567311593208	
37.0	218.39952946602716	pulse	0.0	t		30.0	female	black	2.7345801830481498	smiling	062	sub-08	1.0	1.0	062_smiling	0.0		546.356715342039	
37.0	218.4994186243057	fix	1.0		444	30.0	female	black	2.7345801830481498	smiling	062	sub-08	1.0	1.0	062_smiling	0.0		546.4566045003176	3.758233438942625
37.0	219.09952542115025	pulse	1.0	t		30.0	female	black	2.7345801830481498	smiling	062	sub-08	1.0	1.0	062_smiling	0.0		547.0567112971621	
37.0	219.79970037719977	pulse	1.0	t		30.0	female	black	2.7345801830481498	smiling	062	sub-08	1.0	1.0	062_smiling	0.0		547.7568862532116	
37.0	220.49950072928368	pulse	1.0	t		30.0	female	black	2.7345801830481498	smiling	062	sub-08	1.0	1.0	062_smiling	0.0		548.4566866052955	
37.0	221.19948702499823	pulse	1.0	t		30.0	female	black	2.7345801830481498	smiling	062	sub-08	1.0	1.0	062_smiling	0.0		549.1566729010101	
37.0	221.89947603741894	pulse	1.0	t		30.0	female	black	2.7345801830481498	smiling	062	sub-08	1.0	1.0	062_smiling	0.0		549.8566619134308	
38.0	222.25765206324832	face	0.0		146	20.0	female	white	3.9502586549940313	neutral	091	sub-08	1.0	1.0	091_neutral	0.0		550.2148379392602	1.241691398779949
38.0	222.59948104823889	pulse	0.0	t		20.0	female	white	3.9502586549940313	neutral	091	sub-08	1.0	1.0	091_neutral	0.0		550.5566669242507	
38.0	223.29944681770758	pulse	0.0	t		20.0	female	white	3.9502586549940313	neutral	091	sub-08	1.0	1.0	091_neutral	0.0		551.2566326937194	
38.0	223.49934346202826	fix	1.0		444	20.0	female	white	3.9502586549940313	neutral	091	sub-08	1.0	1.0	091_neutral	0.0		551.4565293380401	3.7582452113474574
38.0	223.99942858557188	pulse	1.0	t		20.0	female	white	3.9502586549940313	neutral	091	sub-08	1.0	1.0	091_neutral	0.0		551.9566144615837	
38.0	224.6994357093863	pulse	1.0	t		20.0	female	white	3.9502586549940313	neutral	091	sub-08	1.0	1.0	091_neutral	0.0		552.6566215853982	
38.0	225.39942411809534	pulse	1.0	t		20.0	female	white	3.9502586549940313	neutral	091	sub-08	1.0	1.0	091_neutral	0.0		553.3566099941072	
38.0	226.09941584722583	pulse	1.0	t		20.0	female	white	3.9502586549940313	neutral	091	sub-08	1.0	1.0	091_neutral	0.0		554.0566017232377	
38.0	226.79939580395148	pulse	1.0	t		20.0	female	white	3.9502586549940313	neutral	091	sub-08	1.0	1.0	091_neutral	0.0		554.7565816799633	
39.0	227.25758867337572	face	0.0		146	20.0	female	white	3.9502586549940313	smiling	091	sub-08	1.0	1.0	091_smiling	0.0		555.2147745493876	1.2416778152346524
39.0	227.49940836118367	pulse	0.0	t		20.0	female	white	3.9502586549940313	smiling	091	sub-08	1.0	1.0	091_smiling	0.0		555.4565942371955	
39.0	228.199375941791	pulse	0.0	t		20.0	female	white	3.9502586549940313	smiling	091	sub-08	1.0	1.0	091_smiling	0.0		556.1565618178029	
39.0	228.49926648861037	fix	1.0		444	20.0	female	white	3.9502586549940313	smiling	091	sub-08	1.0	1.0	091_smiling	0.0		556.4564523646222	3.7499332897059503
39.0	228.89937038763128	pulse	1.0	t		20.0	female	white	3.9502586549940313	smiling	091	sub-08	1.0	1.0	091_smiling	0.0		556.8565562636431	
39.0	229.59936272047526	pulse	1.0	t		20.0	female	white	3.9502586549940313	smiling	091	sub-08	1.0	1.0	091_smiling	0.0		557.5565485964871	
39.0	230.29936018488115	pulse	1.0	t		20.0	female	white	3.9502586549940313	smiling	091	sub-08	1.0	1.0	091_smiling	0.0		558.256546060893	
39.0	230.9993380286105	pulse	1.0	t		20.0	female	white	3.9502586549940313	smiling	091	sub-08	1.0	1.0	091_smiling	0.0		558.9565239046224	
39.0	231.69936567866898	pulse	1.0	t		20.0	female	white	3.9502586549940313	smiling	091	sub-08	1.0	1.0	091_smiling	0.0		559.6565515546808	
40.0	232.24919977831632	fix	0.0		720													560.2063856543282	5.999906122615357
40.0	232.39933084442418	pulse	0.0	t														560.356516720436	
40.0	233.09929359532725	pulse	0.0	t														561.0564794713391	
40.0	233.79928804116753	pulse	0.0	t														561.7564739171794	
40.0	234.49930029654388	pulse	0.0	t														562.4564861725557	
40.0	235.19927331056897	pulse	0.0	t														563.1564591865808	
40.0	235.89926443598597	pulse	0.0	t														563.8564503119978	
40.0	236.59925375026432	pulse	0.0	t														564.5564396262762	
40.0	237.2992454793948	pulse	0.0	t														565.2564313554067	
40.0	237.99923690666947	pulse	0.0	t														565.9564227826813	
