trial_nr	onset	event_type	phase	response	nr_frames	rating_type	face_id	repetition	session	rating	onset_abs	duration
0.0	0.004985088503190127	cue	0.0		480						27.285011228900657	4.000419272656927
0.0	4.005404361160117	fix	1.0		120						31.285430501557585	1.025144285334818
0.0	5.030548646494935	face	0.0		146	trustworthiness	062	1.0	2		32.3105747868924	1.2753235855207095
0.0	6.305872232015645	rating	1.0		367	trustworthiness	062	1.0	2		33.58589837241311	3.066768491463563
0.0	9.372640723479208	fix	2.0		60	trustworthiness	062	1.0	2	-0.8799999999999999	36.652666863876675	0.5167087247350537
1.0	9.889349448214261	face	0.0		147	trustworthiness	005	1.0	2		37.16937558861173	1.2334820458331706
1.0	11.122831494047432	rating	1.0		196	trustworthiness	005	1.0	2		38.4028576344449	1.6418361063485918
1.0	12.764667600396024	fix	2.0		60	trustworthiness	005	1.0	2	0.3200000000000003	40.04469374079349	0.5167533988553714
2.0	13.281420999251395	face	0.0		147	trustworthiness	011	1.0	2		40.56144713964886	1.2334422013475432
2.0	14.514863200598938	rating	1.0		94	trustworthiness	011	1.0	2		41.794889340996406	0.7917476636641823
2.0	15.30661086426312	fix	2.0		60	trustworthiness	011	1.0	2	0.6699999999999999	42.58663700466059	0.5167461544035632
3.0	15.823357018666684	face	0.0		147	trustworthiness	066	1.0	2		43.10338315906415	1.2334551809904042
3.0	17.056812199657088	rating	1.0		108	trustworthiness	066	1.0	2		44.336838340054555	0.9084159402091245
3.0	17.965228139866213	fix	2.0		60	trustworthiness	066	1.0	2	-2.26	45.24525428026368	0.5167416266210694
4.0	18.481969766487282	face	0.0		147	trustworthiness	101	1.0	2		45.76199590688475	1.2334418994951193
4.0	19.7154116659824	rating	1.0		122	trustworthiness	101	1.0	2		46.99543780637987	1.0251276834658256
4.0	20.740539349448227	fix	2.0		60	trustworthiness	101	1.0	2	-2.67	48.020565489845694	0.5167410229166762
5.0	21.257280372364903	face	0.0		147	trustworthiness	024	1.0	2		48.53730651276237	1.2334385791214117
5.0	22.490718951486315	rating	1.0		317	trustworthiness	024	1.0	2		49.77074509188378	2.6502689502790417
5.0	25.140987901765357	fix	2.0		60	trustworthiness	024	1.0	2	0.4400000000000004	52.421014042162824	0.5167564173768824
6.0	25.65774431914224	face	0.0		147	trustworthiness	102	1.0	2		52.937770459539706	1.2334470309822336
6.0	26.891191350124473	rating	1.0		103	trustworthiness	102	1.0	2		54.17121749052194	0.8667419284729476
6.0	27.75793327859742	fix	2.0		60	trustworthiness	102	1.0	2	0.9900000000000002	55.03795941899489	0.5167959600107679
7.0	28.274729238608188	face	0.0		147	trustworthiness	100	1.0	2		55.554755379005655	1.233400847600933
7.0	29.50813008620912	rating	1.0		59	trustworthiness	100	1.0	2		56.78815622660659	0.5000467870854663
7.0	30.008176873294587	fix	2.0		60	trustworthiness	100	1.0	2	-1.23	57.288203013692055	0.5167497766294673
8.0	30.524926649924055	face	0.0		147	trustworthiness	039	1.0	2		57.80495279032152	1.2334458235734473
8.0	31.758372473497502	rating	1.0		85	trustworthiness	039	1.0	2		59.03839861389497	0.7167377025427868
8.0	32.47511017604029	fix	2.0		60	trustworthiness	039	1.0	2	2.9000000000000004	59.755136316437756	0.516741626620842
9.0	32.99185180266113	face	0.0		147	trustworthiness	070	1.0	2		60.2718779430586	1.2334422013475432
9.0	34.225294004008674	rating	1.0		129	trustworthiness	070	1.0	2		61.50532014440614	1.0834524643209988
9.0	35.30874646832967	fix	2.0		60	trustworthiness	070	1.0	2	-1.62	62.58877260872714	0.5167518895946159
10.0	35.82549835792429	face	0.0		147	trustworthiness	141	1.0	2		63.105524498321756	1.2334301272608172
10.0	37.058928485185106	rating	1.0		62	trustworthiness	141	1.0	2		64.33895462558257	0.5250537296853963
10.0	37.5839822148705	fix	2.0		60	trustworthiness	141	1.0	2	-1.0099999999999998	64.86400835526797	0.5167434377340214
11.0	38.100725652604524	face	0.0		147	trustworthiness	082	1.0	2		65.38075179300199	1.2334515587645
11.0	39.334177211369024	rating	1.0		94	trustworthiness	082	1.0	2		66.61420335176649	0.7917422303253261
11.0	40.12591944169435	fix	2.0		60	trustworthiness	082	1.0	2	1.29	67.40594558209182	0.5167549081161269
12.0	40.64267434981048	face	0.0		147	trustworthiness	117	1.0	2		67.92270049020794	1.233448540242989
12.0	41.876122890053466	rating	1.0		80	trustworthiness	117	1.0	2		69.15614903045093	0.6750528241288976
12.0	42.551175714182364	fix	2.0		60	trustworthiness	117	1.0	2	1.7000000000000002	69.83120185457983	0.5167455506989427
13.0	43.067921264881306	face	0.0		147	trustworthiness	027	1.0	2		70.34794740527877	1.233444918017085
13.0	44.30136618289839	rating	1.0		67	trustworthiness	027	1.0	2		71.58139232329586	0.5667226099344589
13.0	44.86808879283285	fix	2.0		60	trustworthiness	027	1.0	2	0.9900000000000002	72.14811493323032	0.5167473618121221
14.0	45.38483615464497	face	0.0		147	trustworthiness	030	1.0	2		72.66486229504244	1.2334434087561021
14.0	46.618279563401074	rating	1.0		199	trustworthiness	030	1.0	2		73.89830570379854	1.6668518026610855
14.0	48.28513136606216	fix	2.0		60	trustworthiness	030	1.0	2	0.45999999999999996	75.56515750645963	0.5167380043949379
15.0	48.8018693704571	face	0.0		147	trustworthiness	036	1.0	2		76.08189551085457	1.2334400883823946
15.0	50.03530945883949	rating	1.0		300	trustworthiness	036	1.0	2		77.31533559923696	2.5086432348891776
15.0	52.54395269372867	fix	2.0		60	trustworthiness	036	1.0	2	2.33	79.82397883412614	0.5167005747266558
16.0	53.060653268455326	face	0.0		147	trustworthiness	092	1.0	2		80.3406794088528	1.2334521624688932
16.0	54.29410543092422	rating	1.0		94	trustworthiness	092	1.0	2		81.57413157132169	0.7917482673685754
16.0	55.085853698292794	fix	2.0		60	trustworthiness	092	1.0	2	-0.3999999999999999	82.36587983869026	0.5167479655162879
17.0	55.60260166380908	face	0.0		147	trustworthiness	099	1.0	2		82.88262780420655	1.2334491439473823
17.0	56.836050807756465	rating	1.0		387	trustworthiness	099	1.0	2		84.11607694815393	3.2336616478712585
17.0	60.06971245562772	fix	2.0		60	trustworthiness	099	1.0	2	1.1399999999999997	87.34973859602519	0.5167470599599255
18.0	60.58645951558765	face	0.0		147	trustworthiness	087	1.0	2		87.86648565598512	1.2334506532081377
18.0	61.819910168795786	rating	1.0		109	trustworthiness	087	1.0	2		89.09993630919325	0.9167763396199007
18.0	62.73668650841569	fix	2.0		60	trustworthiness	087	1.0	2	0.2400000000000002	90.01671264881315	0.5167277414213913
19.0	63.25341424983708	face	0.0		147	trustworthiness	172	1.0	2		90.53344039023455	1.2334364661562631
19.0	64.48685071599334	rating	1.0		63	trustworthiness	172	1.0	2		91.76687685639081	0.5333878679577992
19.0	65.02023858395114	fix	2.0		60	trustworthiness	172	1.0	2	0.9400000000000004	92.30026472434861	0.516746758107729
20.0	65.53698534205887	face	0.0		147	trustworthiness	121	1.0	2		92.81701148245634	1.233446125425644
20.0	66.77043146748451	rating	1.0		72	trustworthiness	121	1.0	2		94.05045760788198	0.6084117142788728
20.0	67.37884318176339	fix	2.0		60	trustworthiness	121	1.0	2	-1.15	94.65886932216085	0.5167268358648016
21.0	67.89557001762819	face	0.0		147	trustworthiness	009	1.0	2		95.17559615802566	1.2334494457993515
21.0	69.12901946342754	rating	1.0		64	trustworthiness	009	1.0	2		96.409045603825	0.5417156673347563
21.0	69.6707351307623	fix	2.0		60	trustworthiness	009	1.0	2	1.8899999999999997	96.95076127115976	0.51674555069917
22.0	70.18748068146147	face	0.0		147	trustworthiness	038	1.0	2		97.46750682185893	1.2334609161816843
22.0	71.42094159764315	rating	1.0		60	trustworthiness	038	1.0	2		98.70096773804062	0.508366738306222
22.0	71.92930833594937	fix	2.0		60	trustworthiness	038	1.0	2	-1.4700000000000002	99.20933447634684	0.5167509840380262
23.0	72.4460593199874	face	0.0		147	trustworthiness	042	1.0	2		99.72608546038487	1.2334446161648884
23.0	73.67950393615229	rating	1.0		182	trustworthiness	042	1.0	2		100.95953007654975	1.5251648112819112
23.0	75.2046687474342	fix	2.0		60	trustworthiness	042	1.0	2	0.3200000000000003	102.48469488783167	0.5167410229166762
24.0	75.72140977035087	face	0.0		147	trustworthiness	064	1.0	2		103.00143591074834	1.2334422013475432
24.0	76.95485197169842	rating	1.0		72	trustworthiness	064	1.0	2		104.23487811209588	0.6083954142618495
24.0	77.56324738596027	fix	2.0		60	trustworthiness	064	1.0	2	1.3499999999999996	104.84327352635773	0.516746758107729
25.0	78.079994144068	face	0.0		147	trustworthiness	144	1.0	2		105.36002028446546	1.233439786530198
25.0	79.3134339305982	rating	1.0		82	trustworthiness	144	1.0	2		106.59346007099566	0.6918113544709286
25.0	80.00524528506912	fix	2.0		60	trustworthiness	144	1.0	2	1.2599999999999998	107.28527142546659	0.5166785395185798
26.0	80.5219238245877	face	0.0		147	trustworthiness	136	1.0	2		107.80194996498517	1.2334412957909535
26.0	81.75536512037866	rating	1.0		86	trustworthiness	136	1.0	2		109.03539126077612	0.7250706334066308
26.0	82.48043575378529	fix	2.0		60	trustworthiness	136	1.0	2	-2.54	109.76046189418275	0.5167428340296283
27.0	82.99717858781491	face	0.0		147	trustworthiness	061	1.0	2		110.27720472821238	1.2334440124604953
27.0	84.23062260027541	rating	1.0		252	trustworthiness	061	1.0	2		111.51064874067288	2.1085635459176046
27.0	86.33918614619301	fix	2.0		60	trustworthiness	061	1.0	2	0.46999999999999975	113.61921228659048	0.5167476636643187
28.0	86.85593380985733	face	0.0		147	trustworthiness	012	1.0	2		114.1359599502548	1.2334313346696035
28.0	88.08936514452694	rating	1.0		61	trustworthiness	012	1.0	2		115.3693912849244	0.5167253266040461
28.0	88.60609047113098	fix	2.0		60	trustworthiness	012	1.0	2	-0.8799999999999999	115.88611661152845	0.5167446451425803
29.0	89.12283511627356	face	0.0		147	trustworthiness	091	1.0	2		116.40286125667103	1.233444616164661
29.0	90.35627973243822	rating	1.0		91	trustworthiness	091	1.0	2		117.63630587283569	0.7667413247688728
29.0	91.1230210572071	fix	2.0		60	trustworthiness	091	1.0	2	1.75	118.40304719760456	0.5167518895946159
30.0	91.63977294680171	face	0.0		147	trustworthiness	006	1.0	2		118.91979908719918	1.2334373717126255
30.0	92.87321031851434	rating	1.0		239	trustworthiness	006	1.0	2		120.1532364589118	2.000244802105726
30.0	94.87345512062006	fix	2.0		60	trustworthiness	006	1.0	2	1.6900000000000004	122.15348126101753	0.5167180821522379
31.0	95.3901732027723	face	0.0		147	trustworthiness	124	1.0	2		122.67019934316977	1.2334376735650494
31.0	96.62361087633735	rating	1.0		145	trustworthiness	124	1.0	2		123.90363701673482	1.2168131655839716
31.0	97.84042404192132	fix	2.0		60	trustworthiness	124	1.0	2	0.5599999999999996	125.12045018231879	0.5167455506989427
32.0	98.35716959262027	face	0.0		147	trustworthiness	137	1.0	2		125.63719573301773	1.2334234865134022
32.0	99.59059307913367	rating	1.0		346	trustworthiness	137	1.0	2		126.87061921953114	2.891976467605218
32.0	102.48256954673889	fix	2.0		60	trustworthiness	137	1.0	2	-0.33000000000000007	129.76259568713635	0.51675551182052
33.0	102.9993250585594	face	0.0		147	trustworthiness	130	1.0	2		130.27935119895687	1.2334352587477042
33.0	104.23276031730711	rating	1.0		90	trustworthiness	130	1.0	2		131.51278645770458	0.758408695756998
33.0	104.99116901306411	fix	2.0		61	trustworthiness	130	1.0	2	-2.02	132.27119515346158	0.5250763685978654
34.0	105.51624538166197	face	0.0		146	trustworthiness	018	1.0	2		132.79627152205944	1.2251104778922581
34.0	106.74135585955423	rating	1.0		142	trustworthiness	018	1.0	2		134.0213819999517	1.1918092415060073
34.0	107.93316510106024	fix	2.0		60	trustworthiness	018	1.0	2	2.5999999999999996	135.2131912414577	0.5167268358648016
35.0	108.44989193692504	face	0.0		147	trustworthiness	034	1.0	2		135.7299180773225	1.2334403902343638
35.0	109.6833323271594	rating	1.0		111	trustworthiness	034	1.0	2		136.96335846755687	0.9334397865302435
35.0	110.61677211368965	fix	2.0		60	trustworthiness	034	1.0	2	-0.9100000000000001	137.89679825408712	0.5167585303422584
36.0	111.13353064403191	face	0.0		147	trustworthiness	126	1.0	2		138.41355678442937	1.233422580956585
36.0	112.36695322498849	rating	1.0		74	trustworthiness	126	1.0	2		139.64697936538596	0.6250618796939307
36.0	112.99201510468242	fix	2.0		60	trustworthiness	126	1.0	2	1.4000000000000004	140.2720412450799	0.516753700707568
37.0	113.50876880538999	face	0.0		147	trustworthiness	043	1.0	2		140.78879494578746	1.233434051338918
37.0	114.74220285672891	rating	1.0		71	trustworthiness	043	1.0	2		142.02222899712638	0.6000700297022377
37.0	115.34227288643115	fix	2.0		60	trustworthiness	043	1.0	2	0.3799999999999999	142.6222990268286	0.5167355895775927
38.0	115.85900847600874	face	0.0		147	trustworthiness	044	1.0	2		143.1390346164062	1.2334476346866268
38.0	117.09245611069537	rating	1.0		303	trustworthiness	044	1.0	2		144.37248225109283	2.533597655212361
38.0	119.62605376590773	fix	2.0		60	trustworthiness	044	1.0	2	0.2400000000000002	146.9060799063052	0.516753700707568
39.0	120.1428074666153	face	0.0		147	trustworthiness	033	1.0	2		147.42283360701276	1.2334431069039056
39.0	121.3762505735192	rating	1.0		95	trustworthiness	033	1.0	2		148.65627671391667	0.8000775760062879
39.0	122.17632814952549	fix	2.0		60	trustworthiness	033	1.0	2	-1.5099999999999998	149.45635428992296	0.5000582574677992
40.0	122.67638640699329	cue	0.0		480						149.95641254739076	4.0004256115526005
40.0	126.67681201854589	fix	1.0		120						153.95683815894336	1.016788715558505
40.0	127.6936007341044	face	0.0		147	dominance	012	1.0	2		154.97362687450186	1.2334488420951857
40.0	128.92704957619958	rating	1.0		177	dominance	012	1.0	2		156.20707571659705	1.483495629180652
40.0	130.41054520538023	fix	2.0		60	dominance	012	1.0	2	1.5300000000000002	157.6905713457777	0.516743739586218
41.0	130.92728894496645	face	0.0		147	dominance	126	1.0	2		158.20731508536392	1.2334352587474768
41.0	132.16072420371393	rating	1.0		56	dominance	126	1.0	2		159.4407503441114	0.47505040931173426
41.0	132.63577461302566	fix	2.0		60	dominance	126	1.0	2	-1.0899999999999999	159.91580075342313	0.5167506821858296
42.0	133.1525252952115	face	0.0		147	dominance	064	1.0	2		160.43255143560896	1.2334376735650494
42.0	134.38596296877654	rating	1.0		72	dominance	064	1.0	2		161.665989109174	0.6083936031488975
42.0	134.99435657192544	fix	2.0		60	dominance	064	1.0	2	-0.5899999999999999	162.2743827123229	0.5167579266378652
43.0	135.5111144985633	face	0.0		147	dominance	144	1.0	2		162.79114063896077	1.2334325420781624
43.0	136.74454704064146	rating	1.0		100	dominance	144	1.0	2		164.02457318103893	0.841789017410747
43.0	137.5863360580522	fix	2.0		60	dominance	144	1.0	2	-2.1100000000000003	164.86636219844968	0.5167192895607968
44.0	138.103055347613	face	0.0		147	dominance	099	1.0	2		165.38308148801048	1.2334352587477042
44.0	139.3364906063607	rating	1.0		62	dominance	099	1.0	2		166.61651674675818	0.52505252227661
44.0	139.86154312863732	fix	2.0		60	dominance	099	1.0	2	-1.25	167.1415692690348	0.5167546062641577
45.0	140.37829773490148	face	0.0		147	dominance	087	1.0	2		167.65832387529895	1.2334349568955076
45.0	141.611732691797	rating	1.0		73	dominance	087	1.0	2		168.89175883219445	0.6167337784645497
45.0	142.22846647026154	fix	2.0		60	dominance	087	1.0	2	0.9000000000000004	169.508492610659	0.5167527951509783
46.0	142.74521926541252	face	0.0		147	dominance	137	1.0	2		170.02524540580998	1.233436164304294
46.0	143.9786554297168	rating	1.0		69	dominance	137	1.0	2		171.25868157011428	0.5833878679577538
46.0	144.56204329767456	fix	2.0		61	dominance	137	1.0	2	0.2599999999999998	171.84206943807203	0.5250851223104291
47.0	145.087128419985	face	0.0		146	dominance	018	1.0	2		172.36715456038246	1.2251044408492362
47.0	146.31223286083423	rating	1.0		96	dominance	018	1.0	2		173.5922590012317	0.8084231846610237
47.0	147.12065604549525	fix	2.0		60	dominance	018	1.0	2	-2.2199999999999998	174.40068218589272	0.5167540025597646
48.0	147.63741004805502	face	0.0		147	dominance	092	1.0	2		174.91743618845248	1.2334322402259659
48.0	148.87084228828098	rating	1.0		40	dominance	092	1.0	2		176.15086842867845	0.3417026876916225
48.0	149.2125449759726	fix	2.0		60	dominance	092	1.0	2	0.0	176.49257111637007	0.5167364951341824
49.0	149.7292814711068	face	0.0		147	dominance	024	1.0	2		177.00930761150425	1.2334506532081377
49.0	150.96273212431493	rating	1.0		139	dominance	024	1.0	2		178.2427582647124	1.1667872062978404
49.0	152.12951933061277	fix	2.0		60	dominance	024	1.0	2	0.41999999999999993	179.40954547101023	0.5167582284898344
50.0	152.6462775591026	face	0.0		147	dominance	043	1.0	2		179.92630369950007	1.2334255994785508
50.0	153.87970315858115	rating	1.0		49	dominance	043	1.0	2		181.15972929897862	0.4167105358478693
50.0	154.29641369442902	fix	2.0		60	dominance	043	1.0	2	0.0	181.5764398348265	0.5167494747772707
51.0	154.8131631692063	face	0.0		147	dominance	172	1.0	2		182.09318930960376	1.2334382772692152
51.0	156.0466014464755	rating	1.0		532	dominance	172	1.0	2		183.32662758687297	4.442141278887448
51.0	160.48874272536295	fix	2.0		60	dominance	172	1.0	2	0.9199999999999999	187.76876886576042	0.5167549081161269
52.0	161.00549763347908	face	0.0		147	dominance	030	1.0	2		188.28552377387655	1.2334382772692152
52.0	162.2389359107483	rating	1.0		41	dominance	030	1.0	2		189.51896205114576	0.3500335055903179
52.0	162.5889694163386	fix	2.0		60	dominance	030	1.0	2	0.0	189.86899555673608	0.5167452488469735
53.0	163.1057146651856	face	0.0		147	dominance	070	1.0	2		190.38574080558305	1.2334509550603343
53.0	164.33916562024592	rating	1.0		123	dominance	070	1.0	2		191.6191917606434	1.0334259013304745
53.0	165.3725915215764	fix	2.0		60	dominance	070	1.0	2	2.8600000000000003	192.65261766197386	0.5167506821858296
54.0	165.88934220376223	face	0.0		147	dominance	038	1.0	2		193.1693683441597	1.233446125425644
54.0	167.12278832918787	rating	1.0		86	dominance	038	1.0	2		194.40281446958534	0.7250760667457143
54.0	167.84786439593358	fix	2.0		60	dominance	038	1.0	2	1.2400000000000002	195.12789053633105	0.5167407210642523
55.0	168.36460511699784	face	0.0		147	dominance	124	1.0	2		195.6446312573953	1.2334473328344302
55.0	169.59805244983227	rating	1.0		115	dominance	124	1.0	2		196.87807859022973	0.9667576247857141
55.0	170.56481007461798	fix	2.0		60	dominance	124	1.0	2	1.7199999999999998	197.84483621501545	0.5167443432903838
56.0	171.08155441790836	face	0.0		147	dominance	141	1.0	2		198.36158055830583	1.2334606143294877
56.0	172.31501503223785	rating	1.0		62	dominance	141	1.0	2		199.59504117263532	0.5250549370939552
56.0	172.8400699693318	fix	2.0		60	dominance	141	1.0	2	0.7400000000000002	200.12009610972927	0.5167392118037242
57.0	173.35680918113553	face	0.0		147	dominance	101	1.0	2		200.636835321533	1.2334412957909535
57.0	174.59025047692649	rating	1.0		103	dominance	101	1.0	2		201.87027661732395	0.8667576247855777
57.0	175.45700810171206	fix	2.0		59	dominance	101	1.0	2	3.12	202.73703424210953	0.5167518895946159
58.0	175.97375999130668	face	0.0		147	dominance	042	1.0	2		203.25378613170415	1.2334286180000618
58.0	177.20718860930674	rating	1.0		110	dominance	042	1.0	2		204.4872147497042	0.925100214918757
58.0	178.1322888242255	fix	2.0		60	dominance	042	1.0	2	1.5	205.41231496462296	0.5167515877424194
59.0	178.64904041196792	face	0.0		147	dominance	027	1.0	2		205.92906655236538	1.2334337494867214
59.0	179.88247416145464	rating	1.0		75	dominance	027	1.0	2		207.1625003018521	0.6334129216875226
59.0	180.51588708314216	fix	2.0		60	dominance	027	1.0	2	-1.35	207.79591322353963	0.5167322692038852
60.0	181.03261935234605	face	0.0		147	dominance	009	1.0	2		208.3126454927435	1.2334814421290048
60.0	182.26610079447505	rating	1.0		70	dominance	009	1.0	2		209.54612693487252	0.5916888024919444
60.0	182.857789596967	fix	2.0		60	dominance	009	1.0	2	-2.56	210.13781573736446	0.516748569220681
61.0	183.37453816618768	face	0.0		147	dominance	062	1.0	2		210.65456430658514	1.2334437106082987
61.0	184.60798187679598	rating	1.0		67	dominance	062	1.0	2		211.88800801719344	0.5667177802999959
61.0	185.17469965709597	fix	2.0		60	dominance	062	1.0	2	2.01	212.45472579749344	0.5167509840380262
62.0	185.691450641134	face	0.0		147	dominance	121	1.0	2		212.97147678153146	1.2334425031997398
62.0	186.92489314433374	rating	1.0		131	dominance	121	1.0	2		214.2049192847312	1.1001125908574068
62.0	188.02500573519114	fix	2.0		60	dominance	121	1.0	2	3.42	215.3050318755886	0.5167440414381872
63.0	188.54174977662933	face	0.0		147	dominance	091	1.0	2		215.8217759170268	1.2334428050519364
63.0	189.77519258168127	rating	1.0		99	dominance	091	1.0	2		217.05521872207873	0.833424090217477
63.0	190.60861667189874	fix	2.0		60	dominance	091	1.0	2	-0.6299999999999999	217.8886428122962	0.5167377025429687
64.0	191.1253543744417	face	0.0		147	dominance	100	1.0	2		218.40538051483918	1.2334569921033562
64.0	192.35881136654507	rating	1.0		61	dominance	100	1.0	2		219.63883750694254	0.5167153654826961
64.0	192.87552673202777	fix	2.0		61	dominance	100	1.0	2	0.41999999999999993	220.15555287242523	0.5250808963801319
65.0	193.4006076284079	face	0.0		146	dominance	006	1.0	2		220.68063376880536	1.2251044408490088
65.0	194.6257120692569	rating	1.0		78	dominance	006	1.0	2		221.90573820965437	0.6584002438967218
65.0	195.28411231315363	fix	2.0		60	dominance	006	1.0	2	-1.33	222.5641384535511	0.5167461544033358
66.0	195.80085846755696	face	0.0		147	dominance	082	1.0	2		223.08088460795443	1.2334437106082987
66.0	197.03430217816526	rating	1.0		105	dominance	082	1.0	2		224.31432831856273	0.8834268068869733
66.0	197.91772898505224	fix	2.0		60	dominance	082	1.0	2	-1.5499999999999998	225.1977551254497	0.5167461544035632
67.0	198.4344751394558	face	0.0		147	dominance	066	1.0	2		225.71450127985327	1.23343586245187
67.0	199.66791100190767	rating	1.0		111	dominance	066	1.0	2		226.94793714230514	0.9334379754172915
67.0	200.60134897732496	fix	2.0		60	dominance	066	1.0	2	3.0300000000000002	227.88137511772243	0.5167440414381872
68.0	201.11809301876315	face	0.0		147	dominance	044	1.0	2		228.39811915916061	1.2334388809736083
68.0	202.35153189973676	rating	1.0		1261	dominance	044	1.0	2		229.63155804013422	10.517787242520171
68.0	212.86931914225693	fix	2.0		60	dominance	044	1.0	2	-0.6499999999999999	240.1493452826544	0.5167576247856687
69.0	213.3860767670426	face	0.0		147	dominance	034	1.0	2		240.66610290744006	1.2334313346696035
69.0	214.6195081017122	rating	1.0		75	dominance	034	1.0	2		241.89953424210967	0.6333972253748925
69.0	215.2529053270871	fix	2.0		60	dominance	034	1.0	2	0.0	242.53293146748456	0.5167422303252351
70.0	215.76964755741233	face	0.0		147	dominance	039	1.0	2		243.0496736978098	1.233446729130037
70.0	217.00309428654236	rating	1.0		84	dominance	039	1.0	2		244.28312042693983	0.7084053753833359
70.0	217.7114996619257	fix	2.0		60	dominance	039	1.0	2	-2.15	244.99152580232317	0.5167678877592152
71.0	218.22826754968492	face	0.0		147	dominance	061	1.0	2		245.50829369008238	1.2334180531743186
71.0	219.46168560285923	rating	1.0		84	dominance	061	1.0	2		246.7417117432567	0.7084077902006811
71.0	220.17009339305991	fix	2.0		60	dominance	061	1.0	2	-0.94	247.45011953345738	0.516801393349624
72.0	220.68689478640954	face	0.0		147	dominance	033	1.0	2		247.966920926807	1.2333860568446653
72.0	221.9202808432542	rating	1.0		72	dominance	033	1.0	2		249.20030698365167	0.6084014513053262
72.0	222.52868229455953	fix	2.0		60	dominance	033	1.0	2	1.7000000000000002	249.808708434957	0.5167464562555324
73.0	223.04542875081506	face	0.0		147	dominance	036	1.0	2		250.32545489121253	1.2334431069039056
73.0	224.27887185771897	rating	1.0		273	dominance	036	1.0	2		251.55889799811644	2.2836148607857467
73.0	226.56248671850472	fix	2.0		60	dominance	036	1.0	2	-2.6	253.84251285890218	0.5166969525005243
74.0	227.07918367100524	face	0.0		147	dominance	130	1.0	2		254.3592098114027	1.233454879138435
74.0	228.31263855014367	rating	1.0		45	dominance	130	1.0	2		255.59266469054114	0.38336643645402546
74.0	228.6960049865977	fix	2.0		60	dominance	130	1.0	2	1.2199999999999998	255.97603112699517	0.5167515877424194
75.0	229.21275657434012	face	0.0		147	dominance	005	1.0	2		256.4927827147376	1.2334609161816843
75.0	230.4462174905218	rating	1.0		52	dominance	005	1.0	2		257.72624363091927	0.4416954432397233
75.0	230.88791293376153	fix	2.0		60	dominance	005	1.0	2	-0.6299999999999999	258.167939074159	0.5167331747604749
76.0	231.404646108522	face	0.0		147	dominance	136	1.0	2		258.68467224891947	1.2334452198690542
76.0	232.63809132839106	rating	1.0		178	dominance	136	1.0	2		259.9181174687885	1.491830371157448
76.0	234.1299216995485	fix	2.0		60	dominance	136	1.0	2	2.38	261.40994783994597	0.5167413247686454
77.0	234.64666302431715	face	0.0		147	dominance	011	1.0	2		261.9266891647146	1.2334488420951857
77.0	235.88011186641234	rating	1.0		59	dominance	011	1.0	2		263.1601380068098	0.5000495037550081
77.0	236.38016137016734	fix	2.0		60	dominance	011	1.0	2	-1.5099999999999998	263.6601875105648	0.5167476636643187
78.0	236.89690903383166	face	0.0		147	dominance	117	1.0	2		264.17693517422913	1.2334382772692152
78.0	238.13034731110088	rating	1.0		237	dominance	117	1.0	2		265.41037345149834	1.9835469440488396
78.0	240.11389425514972	fix	2.0		60	dominance	117	1.0	2	-0.2599999999999998	267.3939203955472	0.5167443432903838
79.0	240.6306385984401	face	0.0		147	dominance	102	1.0	2		267.91066473883757	1.2334331457825556
79.0	241.86407174422266	rating	1.0		69	dominance	102	1.0	2		269.1440978846201	0.583397225374938
79.0	242.4474689695976	fix	2.0		60	dominance	102	1.0	2	-1.06	269.72749510999506	0.5000516167201567
80.0	242.94752058631775	cue	0.0		480						270.2275467267152	4.000476020863971
80.0	246.94799660718172	fix	1.0		120						274.2280227475792	1.0167434377340214
80.0	247.96474004491574	face	0.0		147	attractiveness	087	1.0	2		275.2447661853132	1.2334521624688932
80.0	249.19819220738464	rating	1.0		258	attractiveness	087	1.0	2		276.4782183477821	2.1585538866484058
80.0	251.35674609403304	fix	2.0		60	attractiveness	087	1.0	2	1.9000000000000004	278.6367722344305	0.5167443432903838
81.0	251.87349043732343	face	0.0		147	attractiveness	036	1.0	2		279.1535165777209	1.2334509550603343
81.0	253.10694139238376	rating	1.0		118	attractiveness	036	1.0	2		280.3869675327812	1.03344310690386
81.0	254.14038449928762	fix	2.0		60	attractiveness	036	1.0	2	2.12	281.4204106396851	0.5167461544035632
82.0	254.65713065369118	face	0.0		147	attractiveness	121	1.0	2		281.93715679408865	1.233447936538596
82.0	255.89057859022978	rating	1.0		136	attractiveness	121	1.0	2		283.17060473062725	1.141772415541709
82.0	257.0323510057715	fix	2.0		60	attractiveness	121	1.0	2	1.1900000000000004	284.31237714616896	0.5167458525511393
83.0	257.5490968583226	face	0.0		147	attractiveness	126	1.0	2		284.8291229987201	1.2334521624688932
83.0	258.7825490207915	rating	1.0		105	attractiveness	126	1.0	2		286.062575161189	0.8834144309485055
83.0	259.66596345174	fix	2.0		60	attractiveness	126	1.0	2	1.7999999999999998	286.9459895921375	0.5167521914465851
84.0	260.1827156431866	face	0.0		147	attractiveness	136	1.0	2		287.4627417835841	1.2334509550603343
84.0	261.41616659824695	rating	1.0		235	attractiveness	136	1.0	2		288.6961927386444	1.9668596508172413
84.0	263.3830262490642	fix	2.0		60	attractiveness	136	1.0	2	-3.62	290.66305238946165	0.5167479655165153
85.0	263.8997742145807	face	0.0		147	attractiveness	066	1.0	2		291.17980035497817	1.2334425031997398
85.0	265.13321671778044	rating	1.0		125	attractiveness	066	1.0	2		292.4132428581779	1.0501092704835173
85.0	266.18332598826396	fix	2.0		60	attractiveness	066	1.0	2	2.09	293.4633521286614	0.5167458525513666
86.0	266.7000718408153	face	0.0		147	attractiveness	117	1.0	2		293.9800979812128	1.2334482383907925
86.0	267.9335200792061	rating	1.0		105	attractiveness	117	1.0	2		295.2135462196036	0.8834186568785753
86.0	268.8169387360847	fix	2.0		60	attractiveness	117	1.0	2	1.0899999999999999	296.09696487648216	0.5167521914465851
87.0	269.3336909275313	face	0.0		147	attractiveness	018	1.0	2		296.61371706792875	1.2334370698606563
87.0	270.56712799739194	rating	1.0		82	attractiveness	018	1.0	2		297.8471541377894	0.6917461544035177
87.0	271.25887415179545	fix	2.0		60	attractiveness	018	1.0	2	1.7400000000000002	298.5389002921929	0.5167377025427413
88.0	271.7756118543382	face	0.0		147	attractiveness	005	1.0	2		299.05563799473566	1.2334494457995788
88.0	273.0090613001378	rating	1.0		160	attractiveness	005	1.0	2		300.28908744053524	1.3417992803842935
88.0	274.35086058052207	fix	2.0		60	attractiveness	005	1.0	2	-3.51	301.63088672091953	0.5167576247856687
89.0	274.86761820530774	face	0.0		147	attractiveness	030	1.0	2		302.1476443457052	1.2334319383739967
89.0	276.10105014368173	rating	1.0		65	attractiveness	030	1.0	2		303.3810762840792	0.5500546352418496
89.0	276.6511047789236	fix	2.0		60	attractiveness	030	1.0	2	1.0300000000000002	303.93113091932105	0.5167552099683235
90.0	277.1678599888919	face	0.0		147	attractiveness	043	1.0	2		304.4478861292894	1.233434655043311
90.0	278.4012946439352	rating	1.0		52	attractiveness	043	1.0	2		305.6813207843327	0.44171174325674656
90.0	278.84300638719196	fix	2.0		60	attractiveness	043	1.0	2	0.34999999999999964	306.12303252758943	0.5167549081161269
91.0	279.3597612953081	face	0.0		147	attractiveness	130	1.0	2		306.63978743570556	1.2334331457825556
91.0	280.59319444109065	rating	1.0		109	attractiveness	130	1.0	2		307.8732205814881	0.916768491463472
91.0	281.5099629325541	fix	2.0		60	attractiveness	130	1.0	2	-2.49	308.7899890729516	0.5167440414384146
92.0	282.02670697399253	face	0.0		147	attractiveness	124	1.0	2		309.30673311439	1.2334485402427617
92.0	283.2601555142353	rating	1.0		96	attractiveness	124	1.0	2		310.54018165463276	0.8084126198355079
92.0	284.0685681340708	fix	2.0		60	attractiveness	124	1.0	2	2.9400000000000004	311.34859427446827	0.516748569220681
93.0	284.5853167032915	face	0.0		147	attractiveness	011	1.0	2		311.86534284368895	1.2334370698606563
93.0	285.81875377315214	rating	1.0		202	attractiveness	011	1.0	2		313.0987799135496	1.6918445582091408
93.0	287.5105983313613	fix	2.0		60	attractiveness	011	1.0	2	0.2400000000000002	314.79062447175875	0.5167464562555324
94.0	288.0273447876168	face	0.0		147	attractiveness	027	1.0	2		315.3073709280143	1.233446125425644
94.0	289.26079091304246	rating	1.0		100	attractiveness	027	1.0	2		316.5408170534399	0.8417473618121676
94.0	290.1025382748546	fix	2.0		60	attractiveness	027	1.0	2	1.6799999999999997	317.3825644152521	0.5167497766292399
95.0	290.61928805148386	face	0.0		147	attractiveness	061	1.0	2		317.89931419188133	1.2334388809738357
95.0	291.8527269324577	rating	1.0		82	attractiveness	061	1.0	2		319.13275307285517	0.6917461544032903
95.0	292.544473086861	fix	2.0		60	attractiveness	061	1.0	2	1.0	319.82449922725846	0.5167422303252351
96.0	293.0612153171862	face	0.0		147	attractiveness	062	1.0	2		320.3412414575837	1.2334443143126919
96.0	294.2946596314989	rating	1.0		89	attractiveness	062	1.0	2		321.5746857718964	0.7500775760063334
96.0	295.04473720750525	fix	2.0		60	attractiveness	062	1.0	2	-2.81	322.3247633479027	0.5167389099515276
97.0	295.5614761174568	face	0.0		147	attractiveness	101	1.0	2		322.84150225785424	1.2334464272778405
97.0	296.7949225447346	rating	1.0		120	attractiveness	101	1.0	2		324.0749486851321	1.008439484677865
97.0	297.8033620294125	fix	2.0		61	attractiveness	101	1.0	2	2.6100000000000003	325.08338816980995	0.5250851223104291
98.0	298.3284471517229	face	0.0		146	attractiveness	024	1.0	2		325.6084732921204	1.2250996112145458
98.0	299.55354676293746	rating	1.0		62	attractiveness	024	1.0	2		326.8335729033349	0.5250618796937943
98.0	300.07860864263125	fix	2.0		60	attractiveness	024	1.0	2	0.28000000000000025	327.3586347830287	0.5167473618121221
99.0	300.5953560044434	face	0.0		147	attractiveness	070	1.0	2		327.87538214484084	1.233432843930359
99.0	301.82878884837373	rating	1.0		85	attractiveness	070	1.0	2		329.1088149887712	0.7167464562555779
99.0	302.5455353046293	fix	2.0		60	attractiveness	070	1.0	2	-0.18999999999999995	329.8255614450268	0.5167389099513002
100.0	303.0622742145806	face	0.0		147	attractiveness	034	1.0	2		330.3423003549781	1.2334494457995788
100.0	304.2957236603802	rating	1.0		714	attractiveness	034	1.0	2		331.57574980077766	5.958964405592724
100.0	310.2546880659729	fix	2.0		60	attractiveness	034	1.0	2	-0.3599999999999999	337.5347142063704	0.5167413247686454
101.0	310.77142939074156	face	0.0		147	attractiveness	009	1.0	2		338.051455531139	1.2334470309822336
101.0	312.0048764217238	rating	1.0		55	attractiveness	009	1.0	2		339.28490256212126	0.46671415807395533
101.0	312.47159057979775	fix	2.0		60	attractiveness	009	1.0	2	0.6900000000000004	339.7516167201952	0.5167407210644797
102.0	312.9883313008622	face	0.0		147	attractiveness	033	1.0	2		340.2683574412597	1.2334500495037446
102.0	314.221781350366	rating	1.0		74	attractiveness	033	1.0	2		341.50180749076344	0.6250652000676382
102.0	314.8468465504336	fix	2.0		60	attractiveness	033	1.0	2	1.4100000000000001	342.1268726908311	0.5167449469945495
103.0	315.36359149742816	face	0.0		147	attractiveness	039	1.0	2		342.6436176378256	1.2334358624520974
103.0	316.59702735988026	rating	1.0		109	attractiveness	039	1.0	2		343.8770535002777	0.9167727173939966
103.0	317.51380007727425	fix	2.0		60	attractiveness	039	1.0	2	3.79	344.7938262176717	0.5167422303252351
104.0	318.0305423075995	face	0.0		147	attractiveness	064	1.0	2		345.31056844799696	1.2334431069039056
104.0	319.2639854145034	rating	1.0		140	attractiveness	064	1.0	2		346.54401155490086	1.1751147038226009
104.0	320.439100118326	fix	2.0		60	attractiveness	064	1.0	2	0.2400000000000002	347.71912625872346	0.5167452488469735
105.0	320.95584536717297	face	0.0		147	attractiveness	042	1.0	2		348.23587150757044	1.233444918017085
105.0	322.18929028519005	rating	1.0		70	attractiveness	042	1.0	2		349.4693164255875	0.591726232160454
105.0	322.7810165173505	fix	2.0		60	attractiveness	042	1.0	2	1.7800000000000002	350.061042657748	0.5167452488469735
106.0	323.2977617661975	face	0.0		147	attractiveness	092	1.0	2		350.57778790659495	1.2334763106421178
106.0	324.5312380768396	rating	1.0		111	attractiveness	092	1.0	2		351.81126421723707	0.9333993383399957
106.0	325.4646374151796	fix	2.0		60	attractiveness	092	1.0	2	0.3099999999999996	352.74466355557706	0.5167488710728776
107.0	325.9813862862525	face	0.0		147	attractiveness	012	1.0	2		353.26141242664994	1.2334452198690542
107.0	327.2148315061215	rating	1.0		85	attractiveness	012	1.0	2		354.494857646519	0.7167340803168827
107.0	327.9315655864384	fix	2.0		60	attractiveness	012	1.0	2	1.2400000000000002	355.2115917268359	0.5167512858902228
108.0	328.44831687232863	face	0.0		147	attractiveness	044	1.0	2		355.7283430127261	1.233442805051709
108.0	329.68175967738034	rating	1.0		62	attractiveness	044	1.0	2		356.9617858177778	0.5250479944943436
108.0	330.2068076718747	fix	2.0		60	attractiveness	044	1.0	2	0.9199999999999999	357.48683381227215	0.5167497766294673
109.0	330.72355744850415	face	0.0		147	attractiveness	099	1.0	2		358.0035835889016	1.2334452198690542
109.0	331.9570026683732	rating	1.0		71	attractiveness	099	1.0	2		359.2370288087707	0.6000546352418041
109.0	332.557057303615	fix	2.0		60	attractiveness	099	1.0	2	1.4000000000000004	359.8370834440125	0.5167564173771098
110.0	333.0738137209921	face	0.0		147	attractiveness	082	1.0	2		360.3538398613896	1.2334331457825556
110.0	334.3072468667747	rating	1.0		59	attractiveness	082	1.0	2		361.58727300717214	0.5000513148679602
110.0	334.80729818164264	fix	2.0		60	attractiveness	082	1.0	2	0.5800000000000001	362.0873243220401	0.5167482673684844
111.0	335.3240464490111	face	0.0		147	attractiveness	172	1.0	2		362.6040725894086	1.2334512569125309
111.0	336.55749770592365	rating	1.0		206	attractiveness	172	1.0	2		363.8375238463211	1.7251844316726874
111.0	338.28268213759634	fix	2.0		60	attractiveness	172	1.0	2	-1.4900000000000002	365.5627082779938	0.5167377025427413
112.0	338.7994198401391	face	0.0		147	attractiveness	100	1.0	2		366.07944598053655	1.233436164304294
112.0	340.0328560044434	rating	1.0		120	attractiveness	100	1.0	2		367.31288214484084	1.008437673564913
112.0	341.0412936780083	fix	2.0		60	attractiveness	100	1.0	2	0.3899999999999997	368.32131981840575	0.5167506821858296
113.0	341.5580443601941	face	0.0		147	attractiveness	137	1.0	2		368.8380705005916	1.2334409939389843
113.0	342.7914853541331	rating	1.0		178	attractiveness	137	1.0	2		370.07151149453057	1.491823428557609
113.0	344.2833087826907	fix	2.0		60	attractiveness	137	1.0	2	-1.19	371.5633349230882	0.5167440414381872
114.0	344.8000528241289	face	0.0		147	attractiveness	038	1.0	2		372.08007896452636	1.233442805051709
114.0	346.0334956291806	rating	1.0		177	attractiveness	038	1.0	2		373.3135217695781	1.4834880828766472
114.0	347.51698371205725	fix	2.0		60	attractiveness	038	1.0	2	-3.6	374.7970098524547	0.516777547028596
115.0	348.03376125908585	face	0.0		147	attractiveness	006	1.0	2		375.3137873994833	1.2334192605828775
115.0	349.2671805196687	rating	1.0		85	attractiveness	006	1.0	2		376.5472066600662	0.7167497766292854
115.0	349.983930296298	fix	2.0		61	attractiveness	006	1.0	2	0.8399999999999999	377.2639564366955	0.525071538963175
116.0	350.5090018352612	face	0.0		146	attractiveness	102	1.0	2		377.78902797565866	1.2251011204753013
116.0	351.7341029557365	rating	1.0		91	attractiveness	102	1.0	2		379.01412909613396	0.7667482673684844
116.0	352.500851223105	fix	2.0		60	attractiveness	102	1.0	2	-1.7000000000000002	379.78087736350244	0.51674555069917
117.0	353.01759677380414	face	0.0		147	attractiveness	144	1.0	2		380.2976229142016	1.2334382772692152
117.0	354.25103505107336	rating	1.0		51	attractiveness	144	1.0	2		381.5310611914708	0.43338575499274157
117.0	354.6844208060661	fix	2.0		60	attractiveness	144	1.0	2	1.1900000000000004	381.96444694646357	0.5167428340296283
118.0	355.20116364009573	face	0.0		147	attractiveness	141	1.0	2		382.4811897804932	1.2334467291298097
118.0	356.43461036922554	rating	1.0		58	attractiveness	141	1.0	2		383.714636509623	0.4917150636304086
118.0	356.92632543285595	fix	2.0		60	attractiveness	141	1.0	2	-0.71	384.2063515732534	0.5167395136559207
119.0	357.44306494651187	face	0.0		147	attractiveness	091	1.0	2		384.72309108690933	1.233448540242989
119.0	358.67651348675486	rating	1.0		52	attractiveness	091	1.0	2		385.9565396271523	0.44171204510871576
119.0	359.1182255318636	fix	2.0		60	attractiveness	091	1.0	2	0.5899999999999999	386.39825167226104	0.5000531259809122
120.0	359.6182786578445	cue	0.0		3600						386.89830479824195	30.00318635145254
120.0	389.621465009297	fix	1.0		120						416.9014911496945	1.0001171186399915
120.0	390.621582127937	cue	0.0		480						417.9016082683345	4.000423196735255
120.0	394.6220053246723	fix	1.0		120						421.90203146506974	1.0167905266716843
120.0	395.63879585134396	face	0.0		147	attractiveness	034	2.0	2		422.9188219917414	1.2334494457993515
120.0	396.8722452971433	rating	1.0		248	attractiveness	034	2.0	2		424.1522714375408	2.0752064668806725
120.0	398.947451764024	fix	2.0		60	attractiveness	034	2.0	2	-0.3799999999999999	426.22747790442145	0.5167666803506563
121.0	399.46421844437464	face	0.0		147	attractiveness	033	2.0	2		426.7442445847721	1.233439786530198
121.0	400.69765823090484	rating	1.0		71	attractiveness	033	2.0	2		427.9776843713023	0.6000546352418041
121.0	401.29771286614664	fix	2.0		60	attractiveness	033	2.0	2	0.7599999999999998	428.5777390065441	0.5167401173600865
122.0	401.8144529835067	face	0.0		147	attractiveness	009	2.0	2		429.0944791239042	1.2334521624691206
122.0	403.04790514597585	rating	1.0		71	attractiveness	009	2.0	2		430.3279312863733	0.6000564463547562
122.0	403.6479615923306	fix	2.0		60	attractiveness	009	2.0	2	1.4100000000000001	430.92798773272807	0.5167380043949379
123.0	404.16469959672554	face	0.0		147	attractiveness	092	2.0	2		431.444725737123	1.2334458235734473
123.0	405.398145420299	rating	1.0		53	attractiveness	092	2.0	2		432.67817156069646	0.450049201902857
123.0	405.84819462220185	fix	2.0		60	attractiveness	092	2.0	2	0.34999999999999964	433.1282207625993	0.5167458525513666
124.0	406.3649404747532	face	0.0		147	attractiveness	126	2.0	2		433.6449666151507	1.2334406920865604
124.0	407.5983811668398	rating	1.0		252	attractiveness	126	2.0	2		434.87840730723724	2.1085563014657964
124.0	409.70693746830557	fix	2.0		60	attractiveness	126	2.0	2	1.5199999999999996	436.98696360870304	0.5167597377508173
125.0	410.2236972060564	face	0.0		147	attractiveness	102	2.0	2		437.50372334645385	1.233429221704455
125.0	411.45712642776084	rating	1.0		86	attractiveness	102	2.0	2		438.7371525681583	0.7250842167538849
125.0	412.1822106445147	fix	2.0		60	attractiveness	102	2.0	2	-1.67	439.4622367849122	0.5167452488469735
126.0	412.6989558933617	face	0.0		147	attractiveness	082	2.0	2		439.97898203375917	1.2334337494869487
126.0	413.93238964284865	rating	1.0		92	attractiveness	082	2.0	2		441.2124157832461	0.7750763685976381
126.0	414.7074660114463	fix	2.0		60	attractiveness	082	2.0	2	1.17	441.98749215184375	0.5167564173771098
127.0	415.2242224288234	face	0.0		147	attractiveness	064	2.0	2		442.50424856922086	1.2334406920865604
127.0	416.45766312090996	rating	1.0		77	attractiveness	064	2.0	2		443.7376892613074	0.6500642945111395
127.0	417.1077274154211	fix	2.0		61	attractiveness	064	2.0	2	0.5300000000000002	444.38775355581856	0.5250787834149833
128.0	417.6328061988361	face	0.0		146	attractiveness	066	2.0	2		444.91283233923355	1.2251125908576341
128.0	418.8579187896937	rating	1.0		77	attractiveness	066	2.0	2		446.1379449300912	0.650069425997799
128.0	419.5079882156915	fix	2.0		60	attractiveness	066	2.0	2	2.17	446.788014356089	0.5167377025427413
129.0	420.02472591823425	face	0.0		147	attractiveness	099	2.0	2		447.3047520586317	1.2334473328344302
129.0	421.2581732510687	rating	1.0		315	attractiveness	099	2.0	2		448.53819939146615	2.6336048996643058
129.0	423.891778150733	fix	2.0		60	attractiveness	099	2.0	2	1.1900000000000004	451.17180429113046	0.516753700707568
130.0	424.40853185144056	face	0.0		147	attractiveness	042	2.0	2		451.688557991838	1.233474801381135
130.0	425.6420066528217	rating	1.0		79	attractiveness	042	2.0	2		452.92203279321916	0.6666972543528118
130.0	426.3087039071745	fix	2.0		60	attractiveness	042	2.0	2	1.46	453.58873004757197	0.5167458525511393
131.0	426.82544975972564	face	0.0		147	attractiveness	136	2.0	2		454.1054759001231	1.2334491439473823
131.0	428.058898903673	rating	1.0		123	attractiveness	136	2.0	2		455.3389250440705	1.0334418994953012
131.0	429.0923408031683	fix	2.0		60	attractiveness	136	2.0	2	-3.62	456.3723669435658	0.5167361932819858
132.0	429.6090769964503	face	0.0		147	attractiveness	061	2.0	2		456.8891031368478	1.233444616164661
132.0	430.842521612615	rating	1.0		55	attractiveness	061	2.0	2		458.12254775301244	0.46671657289130053
132.0	431.3092381855063	fix	2.0		60	attractiveness	061	2.0	2	1.13	458.58926432590374	0.5167473618121221
133.0	431.8259855473184	face	0.0		147	attractiveness	172	2.0	2		459.10601168771586	1.2334431069039056
133.0	433.0594286542223	rating	1.0		77	attractiveness	172	2.0	2		460.33945479461977	0.6500694259980264
133.0	433.7094980802203	fix	2.0		60	attractiveness	172	2.0	2	-1.29	460.9895242206178	0.5167509840380262
134.0	434.22624906425835	face	0.0		147	attractiveness	091	2.0	2		461.5062752046558	1.2334304291130138
134.0	435.45967949337137	rating	1.0		104	attractiveness	091	2.0	2		462.73970563376884	0.8750959889885053
134.0	436.3347754823599	fix	2.0		60	attractiveness	091	2.0	2	1.46	463.61480162275734	0.516738608099331
135.0	436.8515140904592	face	0.0		147	attractiveness	124	2.0	2		464.1315402308567	1.233444616164661
135.0	438.08495870662387	rating	1.0		88	attractiveness	124	2.0	2		465.36498484702133	0.7417491729249832
135.0	438.82670787954885	fix	2.0		60	attractiveness	124	2.0	2	2.92	466.1067340199463	0.5167443432906111
136.0	439.34345222283946	face	0.0		147	attractiveness	070	2.0	2		466.6234783632369	1.2334464272776131
136.0	440.5768986501171	rating	1.0		63	attractiveness	070	2.0	2		467.85692479051454	0.5333860568448472
136.0	441.1102847069619	fix	2.0		60	attractiveness	070	2.0	2	-0.5699999999999998	468.3903108473594	0.5167564173771098
137.0	441.62704112433903	face	0.0		147	attractiveness	121	2.0	2		468.9070672647365	1.2334612180338809
137.0	442.8605023423729	rating	1.0		76	attractiveness	121	2.0	2		470.1405284827704	0.6417023858393804
137.0	443.5022047282123	fix	2.0		60	attractiveness	121	2.0	2	0.9000000000000004	470.78223086860976	0.5167458525513666
138.0	444.01895058076366	face	0.0		147	attractiveness	024	2.0	2		471.2989767211611	1.2334458235734473
138.0	445.2523964043371	rating	1.0		144	attractiveness	024	2.0	2		472.5324225447346	1.2084615198859865
138.0	446.4608579242231	fix	2.0		60	attractiveness	024	2.0	2	0.5099999999999998	473.74088406462056	0.5167404192122831
139.0	446.9775983434354	face	0.0		147	attractiveness	101	2.0	2		474.25762448383284	1.2334373717128528
139.0	448.2110357151482	rating	1.0		98	attractiveness	101	2.0	2		475.4910618555457	0.8250842167540213
139.0	449.03611993190225	fix	2.0		60	attractiveness	101	2.0	2	2.3600000000000003	476.3161460722997	0.5168050155755282
140.0	449.5529249474778	face	0.0		147	attractiveness	087	2.0	2		476.83295108787524	1.2333830383231543
140.0	450.78630798580093	rating	1.0		68	attractiveness	087	2.0	2		478.0663341261984	0.5750673130328323
140.0	451.36137529883376	fix	2.0		60	attractiveness	087	2.0	2	2.04	478.64140143923123	0.5167709062809536
141.0	451.8781462051147	face	0.0		147	attractiveness	030	2.0	2		479.1581723455122	1.2334168457655323
141.0	453.11156305088025	rating	1.0		74	attractiveness	030	2.0	2		480.3915891912777	0.6250974982492608
141.0	453.7366605491295	fix	2.0		61	attractiveness	030	2.0	2	0.9000000000000004	481.016686689527	0.5250513148680511
142.0	454.26171186399756	face	0.0		146	attractiveness	027	2.0	2		481.54173800439503	1.2250978001013664
142.0	455.4868096640989	rating	1.0		121	attractiveness	027	2.0	2		482.7668358044964	1.016779358141548
142.0	456.5035890222405	fix	2.0		60	attractiveness	027	2.0	2	1.5899999999999999	483.78361516263794	0.516746758107729
143.0	457.0203357803482	face	0.0		147	attractiveness	039	2.0	2		484.3003619207457	1.2334428050519364
143.0	458.25377858540014	rating	1.0		126	attractiveness	039	2.0	2		485.5338047257976	1.058444918016903
143.0	459.31222350341704	fix	2.0		60	attractiveness	039	2.0	2	3.4000000000000004	486.5922496438145	0.5167512858902228
144.0	459.82897478930727	face	0.0		147	attractiveness	137	2.0	2		487.10900092970473	1.2334319383737693
144.0	461.06240672768104	rating	1.0		85	attractiveness	137	2.0	2		488.3424328680785	0.7167380043949834
144.0	461.779144732076	fix	2.0		60	attractiveness	137	2.0	2	-0.9199999999999999	489.0591708724735	0.516753700707568
145.0	462.2958984327836	face	0.0		147	attractiveness	012	2.0	2		489.57592457318106	1.233432843930359
145.0	463.52933127671395	rating	1.0		118	attractiveness	012	2.0	2		490.8093574171114	0.9917703025766968
145.0	464.52110157929064	fix	2.0		60	attractiveness	012	2.0	2	0.8399999999999999	491.8011277196881	0.5167521914465851
146.0	465.03785377073723	face	0.0		147	attractiveness	036	2.0	2		492.3178799111347	1.2334437106082987
146.0	466.2712974813455	rating	1.0		123	attractiveness	036	2.0	2		493.551323621743	1.0334406920867423
146.0	467.30473817343227	fix	2.0		60	attractiveness	036	2.0	2	1.8099999999999996	494.58476431382974	0.516738608099331
147.0	467.8214767815316	face	0.0		147	attractiveness	117	2.0	2		495.10150292192907	1.2334422013473159
147.0	469.0549189828789	rating	1.0		79	attractiveness	117	2.0	2		496.3349451232764	0.6667543044120521
147.0	469.72167328729097	fix	2.0		60	attractiveness	117	2.0	2	1.0300000000000002	497.00169942768844	0.5167446451425803
148.0	470.23841793243355	face	0.0		147	attractiveness	130	2.0	2		497.518444072831	1.2334551809904042
148.0	471.47187311342395	rating	1.0		77	attractiveness	130	2.0	2		498.7518992538214	0.6500609741374319
148.0	472.1219340875614	fix	2.0		61	attractiveness	130	2.0	2	-2.08	499.40196022795885	0.5250757648932449
149.0	472.64700985245463	face	0.0		146	attractiveness	043	2.0	2		499.9270359928521	1.2250938760232657
149.0	473.8721037284779	rating	1.0		465	attractiveness	043	2.0	2		501.15212986887536	3.883772427615895
149.0	477.7558761560938	fix	2.0		60	attractiveness	043	2.0	2	0.29000000000000004	505.03590229649126	0.5167150636304996
150.0	478.2725912197243	face	0.0		147	attractiveness	144	2.0	2		505.55261736012176	1.23344159764315
150.0	479.50603281736744	rating	1.0		61	attractiveness	144	2.0	2		506.7860589577649	0.5167295525343434
150.0	480.0227623699018	fix	2.0		60	attractiveness	144	2.0	2	1.29	507.30278851029925	0.5167358914297893
151.0	480.5394982613316	face	0.0		147	attractiveness	100	2.0	2		507.81952440172904	1.233463029146833
151.0	481.7729612904784	rating	1.0		48	attractiveness	100	2.0	2		509.0529874308759	0.4083594938542774
151.0	482.1813207843327	fix	2.0		61	attractiveness	100	2.0	2	-0.4500000000000002	509.46134692473015	0.5250691241458298
152.0	482.7063899084785	face	0.0		146	attractiveness	044	2.0	2		509.986416048876	1.225116816787704
152.0	483.9315067252662	rating	1.0		121	attractiveness	044	2.0	2		511.2115328656637	1.016776339620037
152.0	484.94828306488625	fix	2.0		60	attractiveness	044	2.0	2	1.0999999999999996	512.2283092052837	0.5167407210644797
153.0	485.46502378595073	face	0.0		147	attractiveness	006	2.0	2		512.7450499263482	1.2334403902343638
153.0	486.6984641761851	rating	1.0		69	attractiveness	006	2.0	2		513.9784903165826	0.5833917920358545
153.0	487.28185596822095	fix	2.0		60	attractiveness	006	2.0	2	1.13	514.5618821086184	0.5167449469947769
154.0	487.79860091521573	face	0.0		147	attractiveness	141	2.0	2		515.0786270556132	1.2334515587647275
154.0	489.03205247398046	rating	1.0		72	attractiveness	141	2.0	2		516.3120786143779	0.6083945087052598
154.0	489.6404469826857	fix	2.0		60	attractiveness	141	2.0	2	-0.77	516.9204731230832	0.516750682186057
155.0	490.1571976648718	face	0.0		147	attractiveness	062	2.0	2		517.4372238052692	1.2334382772692152
155.0	491.390635942141	rating	1.0		105	attractiveness	062	2.0	2		518.6706620825385	0.8834192605829685
155.0	492.27405520272396	fix	2.0		61	attractiveness	062	2.0	2	-2.56	519.5540813431214	0.5250950834320065
156.0	492.79915028615596	face	0.0		146	attractiveness	011	2.0	2		520.0791764265534	1.225098101953563
156.0	494.0242483881095	rating	1.0		106	attractiveness	011	2.0	2		521.304274528507	0.8917570210812755
156.0	494.9160054091908	fix	2.0		60	attractiveness	011	2.0	2	-0.8399999999999999	522.1960315495883	0.5167494747772707
157.0	495.4327548839681	face	0.0		147	attractiveness	018	2.0	2		522.7127810243655	1.2334412957909535
157.0	496.666196179759	rating	1.0		114	attractiveness	018	2.0	2		523.9462223201565	0.9584440124604043
157.0	497.62464019221943	fix	2.0		60	attractiveness	018	2.0	2	2.08	524.9046663326169	0.5167721136897399
158.0	498.14141230590917	face	0.0		147	attractiveness	005	2.0	2		525.4214384463066	1.2334059790875926
158.0	499.37481828499676	rating	1.0		90	attractiveness	005	2.0	2		526.6548444253942	0.7584141290960815
158.0	500.13323241409284	fix	2.0		60	attractiveness	005	2.0	2	-2.38	527.4132585544903	0.5167458525513666
159.0	500.6499782666442	face	0.0		147	attractiveness	038	2.0	2		527.9300044070417	1.233440993938757
159.0	501.88341926058297	rating	1.0		131	attractiveness	038	2.0	2		529.1634454009804	1.1001162130835382
159.0	502.9835354736665	fix	2.0		60	attractiveness	038	2.0	2	-3.26	530.263561614064	0.5000482963462218
160.0	503.48358377001273	cue	0.0		480						530.7636099104102	4.000422894883059
160.0	507.4840066648958	fix	1.0		120						534.7640328052933	1.0167956581585713
160.0	508.50080232305436	face	0.0		147	dominance	070	2.0	2		535.7808284634518	1.2334491439471549
160.0	509.7342514670015	rating	1.0		176	dominance	070	2.0	2		537.014277607399	1.4751518316390957
160.0	511.2094032986406	fix	2.0		60	dominance	070	2.0	2	2.05	538.4894294390381	0.5167530970031748
161.0	511.7261563956438	face	0.0		147	dominance	092	2.0	2		539.0061825360413	1.2334337494867214
161.0	512.9595901451305	rating	1.0		97	dominance	092	2.0	2		540.239616285528	0.8167527951511602
161.0	513.7763429402817	fix	2.0		60	dominance	092	2.0	2	1.3099999999999996	541.0563690806791	0.5167419284730386
162.0	514.2930848687547	face	0.0		147	dominance	102	2.0	2		541.5731110091522	1.2334557846947973
162.0	515.5265406534495	rating	1.0		65	dominance	102	2.0	2		542.806566793847	0.5500473907900414
162.0	516.0765880442395	fix	2.0		60	dominance	102	2.0	2	-1.46	543.356614184637	0.5167630581245248
163.0	516.5933511023641	face	0.0		147	dominance	100	2.0	2		543.8733772427615	1.2334252976263542
163.0	517.8267763999904	rating	1.0		103	dominance	100	2.0	2		545.1068025403879	0.8667591340465606
163.0	518.693535534037	fix	2.0		61	dominance	100	2.0	2	0.7999999999999998	545.9735616744344	0.5250802926757387
164.0	519.2186158267127	face	0.0		146	dominance	044	2.0	2		546.4986419671102	1.2251144019705862
164.0	520.4437302286833	rating	1.0		50	dominance	044	2.0	2		547.7237563690808	0.4250365241118743
164.0	520.8687667527952	fix	2.0		61	dominance	044	2.0	2	-1.0	548.1487928931926	0.5250793871193764
165.0	521.3938461399146	face	0.0		146	dominance	117	2.0	2		548.673872280312	1.2251153075269485
165.0	522.6189614474415	rating	1.0		57	dominance	117	2.0	2		549.898987587839	0.4833715679408215
165.0	523.1023330153823	fix	2.0		61	dominance	117	2.0	2	0.79	550.3823591557798	0.5250821037889182
166.0	523.6274151191712	face	0.0		146	dominance	039	2.0	2		550.9074412595687	1.2251195334572458
166.0	524.8525346526285	rating	1.0		262	dominance	039	2.0	2		552.132560793026	2.191885911955751
166.0	527.0444205645842	fix	2.0		60	dominance	039	2.0	2	-2.77	554.3244467049817	0.516743739586218
167.0	527.5611643041705	face	0.0		147	dominance	006	2.0	2		554.8411904445679	1.233453068025483
167.0	528.794617372196	rating	1.0		65	dominance	006	2.0	2		556.0746435125934	0.5500739537803838
167.0	529.3446913259763	fix	2.0		61	dominance	006	2.0	2	-1.69	556.6247174663738	0.5250790852671798
168.0	529.8697704112435	face	0.0		146	dominance	012	2.0	2		557.149796551641	1.225091159353724
168.0	531.0948615705972	rating	1.0		65	dominance	012	2.0	2		558.3748877109947	0.5500561445026051
168.0	531.6449177150998	fix	2.0		60	dominance	012	2.0	2	1.8099999999999996	558.9249438554973	0.5167431358818249
169.0	532.1616608509817	face	0.0		147	dominance	024	2.0	2		559.4416869913791	1.2334669532249336
169.0	533.3951278042066	rating	1.0		67	dominance	024	2.0	2		560.6751539446041	0.5667017821351692
169.0	533.9618295863418	fix	2.0		60	dominance	024	2.0	2	0.7599999999999998	561.2418557267392	0.5167500784816639
170.0	534.4785796648234	face	0.0		147	dominance	144	2.0	2		561.7586058052209	1.2334319383737693
170.0	535.7120116031972	rating	1.0		64	dominance	144	2.0	2		562.9920377435947	0.5417238173433816
170.0	536.2537354205406	fix	2.0		60	dominance	144	2.0	2	-1.7799999999999998	563.533761560938	0.5167497766292399
171.0	536.7704851971698	face	0.0		147	dominance	061	2.0	2		564.0505113375673	1.2334370698606563
171.0	538.0039222670305	rating	1.0		88	dominance	061	2.0	2		565.2839484074279	0.7417482673686209
171.0	538.7456705343991	fix	2.0		60	dominance	061	2.0	2	-0.8300000000000001	566.0256966747966	0.5167407210644797
172.0	539.2624112554636	face	0.0		147	dominance	018	2.0	2		566.542437395861	1.2334431069039056
172.0	540.4958543623675	rating	1.0		89	dominance	018	2.0	2		567.775880502765	0.7500769723021676
172.0	541.2459313346696	fix	2.0		60	dominance	018	2.0	2	-2.63	568.5259574750671	0.5167500784814365
173.0	541.7626814131511	face	0.0		147	dominance	126	2.0	2		569.0427075535486	1.2334355605999008
173.0	542.996116973751	rating	1.0		104	dominance	126	2.0	2		570.2761431141485	0.8750926686145704
173.0	543.8712096423656	fix	2.0		60	dominance	126	2.0	2	-1.4900000000000002	571.151235782763	0.516748569220681
174.0	544.3879582115862	face	0.0		147	dominance	121	2.0	2		571.6679843519837	1.2334464272778405
174.0	545.6214046388641	rating	1.0		82	dominance	121	2.0	2		572.9014307792615	0.6917316654994465
174.0	546.3131363043635	fix	2.0		60	dominance	121	2.0	2	1.6100000000000003	573.593162444761	0.5167473618121221
175.0	546.8298836661756	face	0.0		147	dominance	087	2.0	2		574.1099098065731	1.233453671729876
175.0	548.0633373379055	rating	1.0		67	dominance	087	2.0	2		575.343363478303	0.5667180821519651
175.0	548.6300554200575	fix	2.0		60	dominance	087	2.0	2	1.0300000000000002	575.910081560455	0.5167413247688728
176.0	549.1467967448264	face	0.0		147	dominance	030	2.0	2		576.4268228852238	1.2334473328342028
176.0	550.3802440776606	rating	1.0		345	dominance	030	2.0	2		577.660270218058	2.8836326700634345
176.0	553.263876747724	fix	2.0		61	dominance	030	2.0	2	0.8099999999999996	580.5439028881215	0.5250836130496737
177.0	553.7889603607737	face	0.0		146	dominance	130	2.0	2		581.0689865011711	1.225103837144843
177.0	555.0140641979185	rating	1.0		80	dominance	130	2.0	2		582.294090338316	0.6750784815628776
177.0	555.6891426794814	fix	2.0		60	dominance	130	2.0	2	2.17	582.9691688198789	0.5167452488469735
178.0	556.2058879283284	face	0.0		147	dominance	124	2.0	2		583.4859140687258	1.2334331457823282
178.0	557.4393210741107	rating	1.0		78	dominance	124	2.0	2		584.7193472145082	0.6584325420783443
178.0	558.097753616189	fix	2.0		60	dominance	124	2.0	2	1.1500000000000004	585.3777797565865	0.5167280432733605
179.0	558.6144816594624	face	0.0		147	dominance	066	2.0	2		585.8945077998599	1.2334409939389843
179.0	559.8479226534014	rating	1.0		121	dominance	066	2.0	2		587.1279487937989	1.016780565550107
179.0	560.8647032189515	fix	2.0		61	dominance	066	2.0	2	3.16	588.144729359349	0.5250679167370436
180.0	561.3897711356885	face	0.0		146	dominance	033	2.0	2		588.669797276086	1.2251074593707472
180.0	562.6148785950593	rating	1.0		87	dominance	033	2.0	2		589.8949047354567	0.7334062809397892
180.0	563.3482848759991	fix	2.0		60	dominance	033	2.0	2	1.7199999999999998	590.6283110163965	0.5167446451428077
181.0	563.8650295211419	face	0.0		147	dominance	137	2.0	2		591.1450556615393	1.2334412957909535
181.0	565.0984708169328	rating	1.0		56	dominance	137	2.0	2		592.3784969573303	0.4750525222766555
181.0	565.5735233392095	fix	2.0		60	dominance	137	2.0	2	-0.8500000000000001	592.853549479607	0.5167497766292399
182.0	566.0902731158387	face	0.0		147	dominance	091	2.0	2		593.3702992562362	1.233437975417246
182.0	567.323711091256	rating	1.0		54	dominance	091	2.0	2		594.6037372316534	0.4583812272101113
182.0	567.7820923184661	fix	2.0		60	dominance	091	2.0	2	-1.2400000000000002	595.0621184588636	0.5167452488469735
183.0	568.2988375673131	face	0.0		147	dominance	042	2.0	2		595.5788637077105	1.233446125425644
183.0	569.5322836927387	rating	1.0		61	dominance	042	2.0	2		596.8123098331362	0.5167126488131544
183.0	570.0489963415519	fix	2.0		61	dominance	042	2.0	2	0.9699999999999998	597.3290224819493	0.5250784815627867
184.0	570.5740748231146	face	0.0		146	dominance	062	2.0	2		597.8541009635121	1.2251095723358958
184.0	571.7991843954505	rating	1.0		96	dominance	062	2.0	2		599.079210535848	0.808458199512188
184.0	572.6076425949627	fix	2.0		60	dominance	062	2.0	2	1.8399999999999999	599.8876687353602	0.5167120451087612
185.0	573.1243546400715	face	0.0		147	dominance	038	2.0	2		600.404380780469	1.2334355605999008
185.0	574.3577902006714	rating	1.0		89	dominance	038	2.0	2		601.6378163410689	0.7500833111973861
185.0	575.1078735118688	fix	2.0		60	dominance	038	2.0	2	2.49	602.3878996522662	0.5167407210644797
186.0	575.6246142329333	face	0.0		147	dominance	136	2.0	2		602.9046403733307	1.2334400883823946
186.0	576.8580543213156	rating	1.0		114	dominance	136	2.0	2		604.1380804617131	0.9584346550432201
186.0	577.8164889763589	fix	2.0		60	dominance	136	2.0	2	3.45	605.0965151167563	0.5167491729250742
187.0	578.3332381492839	face	0.0		147	dominance	099	2.0	2		605.6132642896814	1.2334422013475432
187.0	579.5666803506315	rating	1.0		73	dominance	099	2.0	2		606.846706491029	0.6167292506822832
187.0	580.1834096013138	fix	2.0		60	dominance	099	2.0	2	-1.19	607.4634357417112	0.5167419284730386
188.0	580.7001515297868	face	0.0		147	dominance	082	2.0	2		607.9801776701843	1.2334449180168576
188.0	581.9335964478037	rating	1.0		420	dominance	082	2.0	2		609.2136225882011	3.5087150757046857
188.0	585.4423115235084	fix	2.0		60	dominance	082	2.0	2	-0.7999999999999998	612.7223376639058	0.516741626620842
189.0	585.9590531501292	face	0.0		147	dominance	141	2.0	2		613.2390792905267	1.2334425031997398
189.0	587.1924956533289	rating	1.0		58	dominance	141	2.0	2		614.4725217937264	0.49171385622162234
189.0	587.6842095095506	fix	2.0		60	dominance	141	2.0	2	1.4800000000000004	614.964235649948	0.5167370988385755
190.0	588.2009466083891	face	0.0		147	dominance	043	2.0	2		615.4809727487866	1.2334443143126919
190.0	589.4343909227018	rating	1.0		226	dominance	043	2.0	2		616.7144170630993	1.8918678008258212
190.0	591.3262587235276	fix	2.0		60	dominance	043	2.0	2	-0.5	618.6062848639251	0.5167503803336331
191.0	591.8430091038613	face	0.0		147	dominance	011	2.0	2		619.1230352442587	1.2334434087561021
191.0	593.0764525126174	rating	1.0		238	dominance	011	2.0	2		620.3564786530148	1.9918783656517007
191.0	595.0683308782691	fix	2.0		60	dominance	011	2.0	2	-0.5	622.3483570186665	0.5167464562555324
192.0	595.5850773345246	face	0.0		147	dominance	101	2.0	2		622.8651034749221	1.2334394846780015
192.0	596.8185168192026	rating	1.0		103	dominance	101	2.0	2		624.0985429596001	0.8667540025596736
192.0	597.6852708217623	fix	2.0		60	dominance	101	2.0	2	2.6500000000000004	624.9652969621598	0.516746758107729
193.0	598.20201757987	face	0.0		147	dominance	005	2.0	2		625.4820437202675	1.233446729130037
193.0	599.435464309	rating	1.0		81	dominance	005	2.0	2		626.7154904493975	0.6833951124096984
193.0	600.1188594214098	fix	2.0		60	dominance	005	2.0	2	-2.2	627.3988855618072	0.5167530970031748
194.0	600.6356125184129	face	0.0		147	dominance	009	2.0	2		627.9156386588104	1.2334364661564905
194.0	601.8690489845694	rating	1.0		350	dominance	009	2.0	2		629.1490751249669	2.925326905894508
194.0	604.7943758904639	fix	2.0		61	dominance	009	2.0	2	-1.4	632.0744020308614	0.5250630871023532
195.0	605.3194389775663	face	0.0		146	dominance	036	2.0	2		632.5994651179637	1.2251104778924855
195.0	606.5445494554588	rating	1.0		96	dominance	036	2.0	2		633.8245755958562	0.8084129216874771
195.0	607.3529623771462	fix	2.0		60	dominance	036	2.0	2	-2.05	634.6329885175437	0.5167479655162879
196.0	607.8697103426625	face	0.0		147	dominance	064	2.0	2		635.14973648306	1.2334482383907925
196.0	609.1031585810533	rating	1.0		125	dominance	064	2.0	2		636.3831847214508	1.0501180241965358
196.0	610.1532766052499	fix	2.0		61	dominance	064	2.0	2	-1.21	637.4333027456473	0.525072746371734
197.0	610.6783493516216	face	0.0		146	dominance	172	2.0	2		637.9583754920191	1.2251044408490088
197.0	611.9034537924706	rating	1.0		43	dominance	172	2.0	2		639.1834799328681	0.3667066117698141
197.0	612.2701604042404	fix	2.0		60	dominance	172	2.0	2	0.71	639.5501865446379	0.5167419284732659
198.0	612.7869023327137	face	0.0		147	dominance	034	2.0	2		640.0669284731111	1.2334476346863994
198.0	614.0203499674001	rating	1.0		175	dominance	034	2.0	2		641.3003761077975	1.4668122600273819
198.0	615.4871622274275	fix	2.0		60	dominance	034	2.0	2	-1.0099999999999998	642.7671883678249	0.5167473618121221
199.0	616.0039095892396	face	0.0		147	dominance	027	2.0	2		643.283935729637	1.233436164304294
199.0	617.2373457535439	rating	1.0		548	dominance	027	2.0	2		644.5173718939413	4.575496848663306
199.0	621.8128426022072	fix	2.0		60	dominance	027	2.0	2	0.05999999999999961	649.0928687426047	0.5000507111637944
200.0	622.312893313371	cue	0.0		480						649.5929194537684	4.000428931926308
200.0	626.3133222452973	fix	1.0		120						653.5933483856948	1.016794450749785
200.0	627.3301166960471	face	0.0		147	trustworthiness	066	2.0	2		654.6101428364445	1.2334388809736083
200.0	628.5635555770207	rating	1.0		113	trustworthiness	066	2.0	2		655.8435817174181	0.9500996112144549
200.0	629.5136551882351	fix	2.0		60	trustworthiness	066	2.0	2	-2.09	656.7936813286326	0.5167621525681625
201.0	630.0304173408033	face	0.0		147	trustworthiness	036	2.0	2		657.3104434812008	1.2334237883653714
201.0	631.2638411291687	rating	1.0		76	trustworthiness	036	2.0	2		658.5438672695661	0.6417410229166762
201.0	631.9055821520853	fix	2.0		60	trustworthiness	036	2.0	2	2.0999999999999996	659.1856082924828	0.5167464562555324
202.0	632.4223286083409	face	0.0		147	trustworthiness	124	2.0	2		659.7023547487383	1.2334376735650494
202.0	633.6557662819059	rating	1.0		342	trustworthiness	124	2.0	2		660.9357924223034	2.858637499698034
202.0	636.514403781604	fix	2.0		60	trustworthiness	124	2.0	2	0.16999999999999993	663.7944299220014	0.5167488710728776
203.0	637.0311526526768	face	0.0		147	trustworthiness	011	2.0	2		664.3111787930743	1.233437975417246
203.0	638.2645906280941	rating	1.0		46	trustworthiness	011	2.0	2		665.5446167684916	0.39169966917006604
203.0	638.6562902972641	fix	2.0		60	trustworthiness	011	2.0	2	0.3600000000000003	665.9363164376616	0.5167549081161269
204.0	639.1730452053803	face	0.0		147	trustworthiness	012	2.0	2		666.4530713457777	1.2334748013813623
204.0	640.4065200067616	rating	1.0		59	trustworthiness	012	2.0	2		667.6865461471591	0.5000181111297479
204.0	640.9065381178914	fix	2.0		60	trustworthiness	012	2.0	2	-1.9	668.1865642582889	0.5167476636643187
205.0	641.4232857815557	face	0.0		147	trustworthiness	009	2.0	2		668.7033119219532	1.2334425031995124
205.0	642.6567282847552	rating	1.0		86	trustworthiness	009	2.0	2		669.9367544251527	0.7250694259980719
205.0	643.3817977107533	fix	2.0		60	trustworthiness	009	2.0	2	2.12	670.6618238511508	0.5167401173600865
206.0	643.8985378281134	face	0.0		147	trustworthiness	099	2.0	2		671.1785639685108	1.233448540242989
206.0	645.1319863683564	rating	1.0		66	trustworthiness	099	2.0	2		672.4120125087538	0.5584005457485546
206.0	645.6903869141049	fix	2.0		60	trustworthiness	099	2.0	2	1.4100000000000001	672.9704130545024	0.5167398155081173
207.0	646.207126729613	face	0.0		147	trustworthiness	034	2.0	2		673.4871528700105	1.2334370698606563
207.0	647.4405637994737	rating	1.0		55	trustworthiness	034	2.0	2		674.7205899398712	0.46671778029985944
207.0	647.9072815797736	fix	2.0		60	trustworthiness	034	2.0	2	-0.1200000000000001	675.187307720171	0.5167446451425803
208.0	648.4240262249161	face	0.0		147	trustworthiness	030	2.0	2		675.7040523653136	1.2334431069039056
208.0	649.65746933182	rating	1.0		36	trustworthiness	030	2.0	2		676.9374954722175	0.30835919200217177
208.0	649.9658285238222	fix	2.0		60	trustworthiness	030	2.0	2	0.009999999999999787	677.2458546642197	0.51674555069917
209.0	650.4825740745214	face	0.0		147	trustworthiness	024	2.0	2		677.7626002149188	1.233447936538596
209.0	651.71602201106	rating	1.0		114	trustworthiness	024	2.0	2		678.9960481514574	0.9584352587476133
209.0	652.6744572698076	fix	2.0		60	trustworthiness	024	2.0	2	1.0599999999999996	679.9544834102051	0.5167476636643187
210.0	653.1912049334719	face	0.0		147	trustworthiness	027	2.0	2		680.4712310738694	1.2334370698606563
210.0	654.4246420033326	rating	1.0		62	trustworthiness	027	2.0	2		681.70466814373	0.5250555407983484
210.0	654.9496975441309	fix	2.0		60	trustworthiness	027	2.0	2	1.9400000000000004	682.2297236845284	0.5167500784814365
211.0	655.4664476226123	face	0.0		147	trustworthiness	018	2.0	2		682.7464737630098	1.233440993938757
211.0	656.6998886165511	rating	1.0		94	trustworthiness	018	2.0	2		683.9799147569486	0.7917437395860816
211.0	657.4916323561372	fix	2.0		60	trustworthiness	018	2.0	2	3.01	684.7716584965347	0.5167555118207474
212.0	658.0083878679579	face	0.0		147	trustworthiness	101	2.0	2		685.2884140083554	1.2334379754170186
212.0	659.241825843375	rating	1.0		78	trustworthiness	101	2.0	2		686.5218519837724	0.658400545748691
212.0	659.9002263891236	fix	2.0		60	trustworthiness	101	2.0	2	-2.84	687.1802525295211	0.5167440414384146
213.0	660.4169704305621	face	0.0		147	trustworthiness	038	2.0	2		687.6969965709595	1.2334388809736083
213.0	661.6504093115357	rating	1.0		77	trustworthiness	038	2.0	2		688.9304354519331	0.6500712371109785
213.0	662.3004805486466	fix	2.0		60	trustworthiness	038	2.0	2	-2.95	689.5805066890441	0.5167455506989427
214.0	662.8172260993456	face	0.0		147	trustworthiness	091	2.0	2		690.097252239743	1.2334364661562631
214.0	664.0506625655019	rating	1.0		45	trustworthiness	091	2.0	2		691.3306887058993	0.38337609572340625
214.0	664.4340386612253	fix	2.0		60	trustworthiness	091	2.0	2	1.62	691.7140648016227	0.5167428340296283
215.0	664.9507814952549	face	0.0		147	trustworthiness	042	2.0	2		692.2308076356524	1.2334446161648884
215.0	666.1842261114198	rating	1.0		538	trustworthiness	042	2.0	2		693.4642522518172	4.492144901113079
215.0	670.6763710125329	fix	2.0		60	trustworthiness	042	2.0	2	0.8300000000000001	697.9563971529303	0.5167413247688728
216.0	671.1931123373017	face	0.0		147	trustworthiness	137	2.0	2		698.4731384776992	1.2334455217212508
216.0	672.426557859023	rating	1.0		99	trustworthiness	137	2.0	2		699.7065839994204	0.8334225809567215
216.0	673.2599804399797	fix	2.0		60	trustworthiness	137	2.0	2	0.05999999999999961	700.5400065803772	0.516746758107729
217.0	673.7767271980874	face	0.0		147	trustworthiness	087	2.0	2		701.0567533384849	1.2334319383739967
217.0	675.0101591364614	rating	1.0		303	trustworthiness	087	2.0	2		702.2901852768589	2.5336100311510563
217.0	677.5437691676125	fix	2.0		60	trustworthiness	087	2.0	2	0.41999999999999993	704.82379530801	0.5167419284730386
218.0	678.0605110960855	face	0.0		147	trustworthiness	121	2.0	2		705.340537236483	1.233446125425644
218.0	679.2939572215112	rating	1.0		250	trustworthiness	121	2.0	2		706.5739833619086	2.091887119364401
218.0	681.3858443408756	fix	2.0		60	trustworthiness	121	2.0	2	-1.9	708.665870481273	0.5167422303254625
219.0	681.902586571201	face	0.0		147	trustworthiness	039	2.0	2		709.1826127115985	1.2334455217212508
219.0	683.1360320929223	rating	1.0		85	trustworthiness	039	2.0	2		710.4160582333197	0.7167383062469526
219.0	683.8527703991692	fix	2.0		60	trustworthiness	039	2.0	2	2.5300000000000002	711.1327965395667	0.5167494747772707
220.0	684.3695198739465	face	0.0		147	trustworthiness	092	2.0	2		711.649546014344	1.2334422013475432
220.0	685.602962075294	rating	1.0		163	trustworthiness	092	2.0	2		712.8829882156915	1.3668095433581584
220.0	686.9697716186522	fix	2.0		60	trustworthiness	092	2.0	2	-0.31000000000000005	714.2497977590497	0.5167340803166098
221.0	687.4865056989688	face	0.0		147	trustworthiness	044	2.0	2		714.7665318393663	1.2334554828428281
221.0	688.7199611818116	rating	1.0		60	trustworthiness	044	2.0	2		715.9999873222091	0.5083851512883939
221.0	689.2283463331	fix	2.0		60	trustworthiness	044	2.0	2	1.67	716.5083724734975	0.5167440414381872
222.0	689.7450903745382	face	0.0		147	trustworthiness	043	2.0	2		717.0251165149357	1.2334449180168576
222.0	690.9785352925551	rating	1.0		63	trustworthiness	043	2.0	2		718.2585614329525	0.5333791142450082
222.0	691.5119144068001	fix	2.0		60	trustworthiness	043	2.0	2	-0.31000000000000005	718.7919405471976	0.5167552099685508
223.0	692.0286696167686	face	0.0		147	trustworthiness	144	2.0	2		719.3086957571661	1.2334400883821672
223.0	693.2621097051508	rating	1.0		97	trustworthiness	144	2.0	2		720.5421358455483	0.8167823766632409
223.0	694.078892081814	fix	2.0		61	trustworthiness	144	2.0	2	1.67	721.3589182222115	0.525047692642147
224.0	694.6039397744562	face	0.0		146	trustworthiness	064	2.0	2		721.8839659148537	1.2251095723356684
224.0	695.8290493467919	rating	1.0		200	trustworthiness	064	2.0	2		723.1090754871893	1.6751741686991863
224.0	697.504223515491	fix	2.0		61	trustworthiness	064	2.0	2	1.37	724.7842496558885	0.525089650092923
225.0	698.029313165584	face	0.0		146	trustworthiness	102	2.0	2		725.3093393059814	1.2251192316052766
225.0	699.2544323971892	rating	1.0		40	trustworthiness	102	2.0	2		726.5344585375867	0.34171657289130053
225.0	699.5961489700805	fix	2.0		60	trustworthiness	102	2.0	2	1.0099999999999998	726.876175110478	0.5167211006737489
226.0	700.1128700707543	face	0.0		147	trustworthiness	126	2.0	2		727.3928962111518	1.2334337494867214
226.0	701.346303820241	rating	1.0		81	trustworthiness	126	2.0	2		728.6263299606385	0.683402356861734
226.0	702.0297061771028	fix	2.0		60	trustworthiness	126	2.0	2	1.92	729.3097323175002	0.516738608099331
227.0	702.5464447852021	face	0.0		147	trustworthiness	061	2.0	2		729.8264709255996	1.233442805051709
227.0	703.7798875902538	rating	1.0		83	trustworthiness	061	2.0	2		731.0599137306513	0.7000796889715275
227.0	704.4799672792253	fix	2.0		60	trustworthiness	061	2.0	2	0.9800000000000004	731.7599934196228	0.5167470599599255
228.0	704.9967143391852	face	0.0		147	trustworthiness	100	2.0	2		732.2767404795827	1.2334422013475432
228.0	706.2301565405328	rating	1.0		49	trustworthiness	100	2.0	2		733.5101826809303	0.41675249329887265
228.0	706.6469090338317	fix	2.0		60	trustworthiness	100	2.0	2	-0.9500000000000002	733.9269351742291	0.5166954432397688
229.0	707.1636044770714	face	0.0		147	trustworthiness	062	2.0	2		734.4436306174689	1.2334418994951193
229.0	708.3970463765665	rating	1.0		78	trustworthiness	062	2.0	2		735.677072516964	0.6584053753833814
229.0	709.0554517519499	fix	2.0		59	trustworthiness	062	2.0	2	-2.6100000000000003	736.3354778923474	0.5167497766294673
230.0	709.5722015285794	face	0.0		147	trustworthiness	136	2.0	2		736.8522276689769	1.2334358624520974
230.0	710.8056373910315	rating	1.0		241	trustworthiness	136	2.0	2		738.085663531429	2.0168756489820225
230.0	712.8225130400135	fix	2.0		60	trustworthiness	136	2.0	2	-3.93	740.102539180411	0.5167549081163543
231.0	713.3392679481299	face	0.0		147	trustworthiness	141	2.0	2		740.6192940885273	1.2334343531911145
231.0	714.572702301321	rating	1.0		78	trustworthiness	141	2.0	2		741.8527284417185	0.6584277124434266
231.0	715.2311300137644	fix	2.0		60	trustworthiness	141	2.0	2	-0.7200000000000002	742.5111561541619	0.5167256284562427
232.0	715.7478556422207	face	0.0		147	trustworthiness	006	2.0	2		743.0278817826181	1.2334434087561021
232.0	716.9812990509768	rating	1.0		161	trustworthiness	006	2.0	2		744.2613251913742	1.3501406631089594
232.0	718.3314397140857	fix	2.0		60	trustworthiness	006	2.0	2	1.3899999999999997	745.6114658544832	0.5167392118034968
233.0	718.8481789258892	face	0.0		147	trustworthiness	130	2.0	2		746.1282050662867	1.2334452198692816
233.0	720.0816241457585	rating	1.0		66	trustworthiness	130	2.0	2		747.361650286156	0.5583978290792402
233.0	720.6400219748377	fix	2.0		60	trustworthiness	130	2.0	2	-2.94	747.9200481152352	0.5167419284730386
234.0	721.1567639033108	face	0.0		147	trustworthiness	172	2.0	2		748.4367900437082	1.2334443143126919
234.0	722.3902082176235	rating	1.0		50	trustworthiness	172	2.0	2		749.6702343580209	0.4250416555987613
234.0	722.8152498732222	fix	2.0		60	trustworthiness	172	2.0	2	1.4299999999999997	750.0952760136197	0.5167334766124441
235.0	723.3319833498347	face	0.0		147	trustworthiness	005	2.0	2		750.6120094902321	1.2334482383907925
235.0	724.5654315882255	rating	1.0		231	trustworthiness	005	2.0	2		751.8454577286229	1.933539699596622
235.0	726.4989712878221	fix	2.0		61	trustworthiness	005	2.0	2	0.7300000000000004	753.7789974282196	0.5250827074933113
236.0	727.0240539953154	face	0.0		146	trustworthiness	117	2.0	2		754.3040801357129	1.225111685300817
236.0	728.2491656806162	rating	1.0		146	trustworthiness	117	2.0	2		755.5291918210137	1.225125268648526
236.0	729.4742909492647	fix	2.0		60	trustworthiness	117	2.0	2	-0.96	756.7543170896622	0.5167440414381872
237.0	729.9910349907029	face	0.0		147	trustworthiness	070	2.0	2		757.2710611311004	1.233439182825805
237.0	731.2244741735287	rating	1.0		86	trustworthiness	070	2.0	2		758.5045003139262	0.7250808963801774
237.0	731.9495550699089	fix	2.0		61	trustworthiness	070	2.0	2	-2.38	759.2295812103064	0.5250959889885962
238.0	732.4746510588975	face	0.0		146	trustworthiness	082	2.0	2		759.754677199295	1.2250908575015274
238.0	733.699741916399	rating	1.0		44	trustworthiness	082	2.0	2		760.9797680567965	0.3750310907730636
238.0	734.0747730071721	fix	2.0		60	trustworthiness	082	2.0	2	1.5099999999999998	761.3547991475696	0.5167515877424194
239.0	734.5915245949145	face	0.0		147	trustworthiness	033	2.0	2		761.871550735312	1.2334370698606563
239.0	735.8249616647752	rating	1.0		46	trustworthiness	033	2.0	2		763.1049878051726	0.39170570621331535
239.0	736.2166673709885	fix	2.0		60	trustworthiness	033	2.0	2	-1.2400000000000002	763.496693511386	0.5000537296853054
