trial_nr	onset	event_type	phase	response	nr_frames	face_age	face_sex	face_eth	attractiveness	expression	face_id	sub_id	ses	run	trial_type	catch	rating_type	onset_abs	duration
-1.0	0.055999519444412726	fix	0.0		714													15.494539415219606	5.964762475126918
-1.0	0.7043013349302782	pulse	0.0	t														16.14284123070547	
-1.0	1.4043108735968417	pulse	0.0	t														16.842850769372035	
-1.0	2.1042718133608105	pulse	0.0	t														17.542811709136004	
-1.0	2.804265051774564	pulse	0.0	t														18.242804947549757	
-1.0	3.5042757978671943	pulse	0.0	t														18.942815693642387	
-1.0	4.204248208179706	pulse	0.0	t														19.6427881039549	
-1.0	4.904236918745028	pulse	0.0	t														20.34277681452022	
-1.0	5.604210536483606	pulse	0.0	t														21.0427504322588	
0.0	6.02076199457133	face	0.0		144	19.0	male	white	2.243931555909272	smiling	130	sub-15	1.0	3.0	130_smiling	0.0		21.459301890346524	1.2333287652377294
0.0	6.3042276215637685	pulse	0.0	t		19.0	male	white	2.243931555909272	smiling	130	sub-15	1.0	3.0	130_smiling	0.0		21.74276751733896	
0.0	7.00420184301538	pulse	0.0	t		19.0	male	white	2.243931555909272	smiling	130	sub-15	1.0	3.0	130_smiling	0.0		22.442741738790573	
0.0	7.25409075980906	fix	1.0		444	19.0	male	white	2.243931555909272	smiling	130	sub-15	1.0	3.0	130_smiling	0.0		22.692630655584253	3.7582609078881433
0.0	7.704206250120933	pulse	1.0	t		19.0	male	white	2.243931555909272	smiling	130	sub-15	1.0	3.0	130_smiling	0.0		23.142746145896126	
0.0	8.404181377141867	pulse	1.0	t		19.0	male	white	2.243931555909272	smiling	130	sub-15	1.0	3.0	130_smiling	0.0		23.84272127291706	
0.0	9.104174615555621	pulse	1.0	t		19.0	male	white	2.243931555909272	smiling	130	sub-15	1.0	3.0	130_smiling	0.0		24.542714511330814	
0.0	9.804149742576556	pulse	1.0	t		19.0	male	white	2.243931555909272	smiling	130	sub-15	1.0	3.0	130_smiling	0.0		25.24268963835175	
0.0	10.504155658964919	pulse	1.0	t		19.0	male	white	2.243931555909272	smiling	130	sub-15	1.0	3.0	130_smiling	0.0		25.942695554740112	
1.0	11.012351667697203	face	0.0		146	25.0	female	black	3.858336649423	smiling	126	sub-15	1.0	3.0	126_smiling	0.0		26.450891563472396	1.2416630242641986
1.0	11.204160971639794	pulse	0.0	t		25.0	female	black	3.858336649423	smiling	126	sub-15	1.0	3.0	126_smiling	0.0		26.642700867414987	
1.0	11.904139720939838	pulse	0.0	t		25.0	female	black	3.858336649423	smiling	126	sub-15	1.0	3.0	126_smiling	0.0		27.34267961671503	
1.0	12.254014691961402	fix	1.0		444	25.0	female	black	3.858336649423	smiling	126	sub-15	1.0	3.0	126_smiling	0.0		27.692554587736595	3.7582760007148863
1.0	12.604124507370216	pulse	1.0	t		25.0	female	black	3.858336649423	smiling	126	sub-15	1.0	3.0	126_smiling	0.0		28.04266440314541	
1.0	13.304157892703188	pulse	1.0	t		25.0	female	black	3.858336649423	smiling	126	sub-15	1.0	3.0	126_smiling	0.0		28.74269778847838	
1.0	14.004114002762435	pulse	1.0	t		25.0	female	black	3.858336649423	smiling	126	sub-15	1.0	3.0	126_smiling	0.0		29.44265389853763	
1.0	14.704093959488546	pulse	1.0	t		25.0	female	black	3.858336649423	smiling	126	sub-15	1.0	3.0	126_smiling	0.0		30.14263385526374	
1.0	15.404082971910611	pulse	1.0	t		25.0	female	black	3.858336649423	smiling	126	sub-15	1.0	3.0	126_smiling	0.0		30.842622867685805	
2.0	16.012290692676288	face	0.0		146	54.0	female	white	2.286908077994429	smiling	136	sub-15	1.0	3.0	136_smiling	0.0		31.45083058845148	1.2416455165853222
2.0	16.104078927032788	pulse	0.0	t		54.0	female	white	2.286908077994429	smiling	136	sub-15	1.0	3.0	136_smiling	0.0		31.54261882280798	
2.0	16.804060694898	pulse	0.0	t		54.0	female	white	2.286908077994429	smiling	136	sub-15	1.0	3.0	136_smiling	0.0		32.24260059067319	
2.0	17.25393620926161	fix	1.0		444	54.0	female	white	2.286908077994429	smiling	136	sub-15	1.0	3.0	136_smiling	0.0		32.6924761050368	3.7582796229930864
2.0	17.504043368332532	pulse	1.0	t		54.0	female	white	2.286908077994429	smiling	136	sub-15	1.0	3.0	136_smiling	0.0		32.942583264107725	
2.0	18.204036003033252	pulse	1.0	t		54.0	female	white	2.286908077994429	smiling	136	sub-15	1.0	3.0	136_smiling	0.0		33.642575898808445	
2.0	18.90402592102464	pulse	1.0	t		54.0	female	white	2.286908077994429	smiling	136	sub-15	1.0	3.0	136_smiling	0.0		34.342565816799834	
2.0	19.604018253868617	pulse	1.0	t		54.0	female	white	2.286908077994429	smiling	136	sub-15	1.0	3.0	136_smiling	0.0		35.04255814964381	
2.0	20.30400756814697	pulse	1.0	t		54.0	female	white	2.286908077994429	smiling	136	sub-15	1.0	3.0	136_smiling	0.0		35.742547463922165	
3.0	21.012215832254697	face	0.0		147	26.0	male	white	2.7966573816155993	neutral	117	sub-15	1.0	3.0	117_neutral	0.0		36.45075572802989	1.2416548741380211
3.0	21.005270717017993	pulse	0.0	t		26.0	male	white	2.7966573816155993	neutral	117	sub-15	1.0	3.0	117_neutral	0.0		36.443810612793186	
3.0	21.703987404130203	pulse	0.0	t		26.0	male	white	2.7966573816155993	neutral	117	sub-15	1.0	3.0	117_neutral	0.0		37.142527299905396	
3.0	22.253870706392718	fix	1.0		443	26.0	male	white	2.7966573816155993	neutral	117	sub-15	1.0	3.0	117_neutral	0.0		37.69241060216791	3.7582566818960004
3.0	22.40398124625699	pulse	1.0	t		26.0	male	white	2.7966573816155993	neutral	117	sub-15	1.0	3.0	117_neutral	0.0		37.84252114203218	
3.0	23.103970258679055	pulse	1.0	t		26.0	male	white	2.7966573816155993	neutral	117	sub-15	1.0	3.0	117_neutral	0.0		38.54251015445425	
3.0	23.803971345362697	pulse	1.0	t		26.0	male	white	2.7966573816155993	neutral	117	sub-15	1.0	3.0	117_neutral	0.0		39.24251124113789	
3.0	24.503954924367008	pulse	1.0	t		26.0	male	white	2.7966573816155993	neutral	117	sub-15	1.0	3.0	117_neutral	0.0		39.9424948201422	
3.0	25.203938805227608	pulse	1.0	t		26.0	male	white	2.7966573816155993	neutral	117	sub-15	1.0	3.0	117_neutral	0.0		40.6424787010028	
3.0	25.90391634710113	pulse	1.0	t		26.0	male	white	2.7966573816155993	neutral	117	sub-15	1.0	3.0	117_neutral	0.0		41.342456242876324	
4.0	26.012127388288718	face	0.0		147	28.0	female	white	5.676880222841227	neutral	124	sub-15	1.0	3.0	124_neutral	0.0		41.45066728406391	1.2416630242646534
4.0	26.603938261886015	pulse	0.0	t		28.0	female	white	5.676880222841227	neutral	124	sub-15	1.0	3.0	124_neutral	0.0		42.04247815766121	
4.0	27.25379041255337	fix	1.0		443	28.0	female	white	5.676880222841227	neutral	124	sub-15	1.0	3.0	124_neutral	0.0		42.692330308328565	3.7582630208835326
4.0	27.30390372949796	pulse	1.0	t		28.0	female	white	5.676880222841227	neutral	124	sub-15	1.0	3.0	124_neutral	0.0		42.742443625273154	
4.0	28.00392021086509	pulse	1.0	t		28.0	female	white	5.676880222841227	neutral	124	sub-15	1.0	3.0	124_neutral	0.0		43.44246010664028	
4.0	28.703909525143445	pulse	1.0	t		28.0	female	white	5.676880222841227	neutral	124	sub-15	1.0	3.0	124_neutral	0.0		44.14244942091864	
4.0	29.40389008558259	pulse	1.0	t		28.0	female	white	5.676880222841227	neutral	124	sub-15	1.0	3.0	124_neutral	0.0		44.84242998135778	
4.0	30.103863401464423	pulse	1.0	t		28.0	female	white	5.676880222841227	neutral	124	sub-15	1.0	3.0	124_neutral	0.0		45.542403297239616	
4.0	30.8038557343084	pulse	1.0	t		28.0	female	white	5.676880222841227	neutral	124	sub-15	1.0	3.0	124_neutral	0.0		46.24239563008359	
5.0	31.012053433436904	face	0.0		146	37.0	male	white	3.898925586947871	neutral	101	sub-15	1.0	3.0	101_neutral	0.0		46.4505933292121	1.2416687595386975
5.0	31.503871008249007	pulse	0.0	t		37.0	male	white	3.898925586947871	neutral	101	sub-15	1.0	3.0	101_neutral	0.0		46.9424109040242	
5.0	32.20384160742242	pulse	0.0	t		37.0	male	white	3.898925586947871	neutral	101	sub-15	1.0	3.0	101_neutral	0.0		47.64238150319761	
5.0	32.2537221929756	fix	1.0		445	37.0	male	white	3.898925586947871	neutral	101	sub-15	1.0	3.0	101_neutral	0.0		47.692262088750795	3.7665915446364124
5.0	32.90383333655336	pulse	1.0	t		37.0	male	white	3.898925586947871	neutral	101	sub-15	1.0	3.0	101_neutral	0.0		48.342373232328555	
5.0	33.60380967100036	pulse	1.0	t		37.0	male	white	3.898925586947871	neutral	101	sub-15	1.0	3.0	101_neutral	0.0		49.042349566775556	
5.0	34.30379868342243	pulse	1.0	t		37.0	male	white	3.898925586947871	neutral	101	sub-15	1.0	3.0	101_neutral	0.0		49.74233857919762	
5.0	35.003792827405505	pulse	1.0	t		37.0	male	white	3.898925586947871	neutral	101	sub-15	1.0	3.0	101_neutral	0.0		50.4423327231807	
5.0	35.70378848067139	pulse	1.0	t		37.0	male	white	3.898925586947871	neutral	101	sub-15	1.0	3.0	101_neutral	0.0		51.142328376446585	
6.0	36.020313737612014	face	0.0		145	24.0	female	east_asian	2.9076800636689217	neutral	034	sub-15	1.0	3.0	034_neutral	1.0	attractiveness	51.45885363338721	1.2333351042248069
6.0	36.40378745435919	pulse	0.0	t		24.0	female	east_asian	2.9076800636689217	neutral	034	sub-15	1.0	3.0	034_neutral	1.0	attractiveness	51.84232735013438	
6.0	37.103772844503055	pulse	0.0	t		24.0	female	east_asian	2.9076800636689217	neutral	034	sub-15	1.0	3.0	034_neutral	1.0	attractiveness	52.54231274027825	
6.0	37.25364884183682	fix	1.0		177	24.0	female	east_asian	2.9076800636689217	neutral	034	sub-15	1.0	3.0	034_neutral	1.0	attractiveness	52.692188737612014	1.508347540714567
6.0	37.803753103085455	pulse	1.0	t		24.0	female	east_asian	2.9076800636689217	neutral	034	sub-15	1.0	3.0	034_neutral	1.0	attractiveness	53.24229299886065	
6.0	38.50373788951583	pulse	1.0	t		24.0	female	east_asian	2.9076800636689217	neutral	034	sub-15	1.0	3.0	034_neutral	1.0	attractiveness	53.942277785291026	
6.0	38.76199638255139	rating	2.0		294	24.0	female	east_asian	2.9076800636689217	neutral	034	sub-15	1.0	3.0	034_neutral	1.0	attractiveness	54.20053627832658	2.4915839378513738
6.0	39.20373444835104	pulse	2.0	t		24.0	female	east_asian	2.9076800636689217	neutral	034	sub-15	1.0	3.0	034_neutral	1.0	attractiveness	54.642274344126236	
6.0	39.83196552073878	response	2.0	b		24.0	female	east_asian	2.9076800636689217	neutral	034	sub-15	1.0	3.0	034_neutral	1.0	attractiveness	55.27050541651397	
6.0	39.903711688368276	pulse	2.0	t		24.0	female	east_asian	2.9076800636689217	neutral	034	sub-15	1.0	3.0	034_neutral	1.0	attractiveness	55.34225158414347	
6.0	40.60371820846922	pulse	2.0	t		24.0	female	east_asian	2.9076800636689217	neutral	034	sub-15	1.0	3.0	034_neutral	1.0	attractiveness	56.04225810424441	
6.0	41.25358032040276	fix	3.0		443	24.0	female	east_asian	2.9076800636689217	neutral	034	sub-15	1.0	3.0	034_neutral	1.0	attractiveness	56.692120216177955	3.7665990910495566
6.0	41.30370933388713	pulse	3.0	t		24.0	female	east_asian	2.9076800636689217	neutral	034	sub-15	1.0	3.0	034_neutral	1.0	attractiveness	56.74224922966232	
6.0	42.00368506462155	pulse	3.0	t		24.0	female	east_asian	2.9076800636689217	neutral	034	sub-15	1.0	3.0	034_neutral	1.0	attractiveness	57.44222496039674	
6.0	42.70367317147384	pulse	3.0	t		24.0	female	east_asian	2.9076800636689217	neutral	034	sub-15	1.0	3.0	034_neutral	1.0	attractiveness	58.14221306724903	
6.0	43.403670334022536	pulse	3.0	t		24.0	female	east_asian	2.9076800636689217	neutral	034	sub-15	1.0	3.0	034_neutral	1.0	attractiveness	58.84221022979773	
6.0	44.10364666846999	pulse	3.0	t		24.0	female	east_asian	2.9076800636689217	neutral	034	sub-15	1.0	3.0	034_neutral	1.0	attractiveness	59.542186564245185	
6.0	44.803647151440146	pulse	3.0	t		24.0	female	east_asian	2.9076800636689217	neutral	034	sub-15	1.0	3.0	034_neutral	1.0	attractiveness	60.24218704721534	
7.0	45.02017941145232	face	0.0		145	31.0	male	west_asian	1.9538400318344609	neutral	070	sub-15	1.0	3.0	070_neutral	0.0		60.45871930722751	1.2333444617775058
7.0	45.5036591049593	pulse	0.0	t		31.0	male	west_asian	1.9538400318344609	neutral	070	sub-15	1.0	3.0	070_neutral	0.0		60.94219900073449	
7.0	46.2036411746808	pulse	0.0	t		31.0	male	west_asian	1.9538400318344609	neutral	070	sub-15	1.0	3.0	070_neutral	0.0		61.64218107045599	
7.0	46.253523873229824	fix	1.0		444	31.0	male	west_asian	1.9538400318344609	neutral	070	sub-15	1.0	3.0	070_neutral	0.0		61.69206376900502	3.758267548731965
7.0	46.90362626296792	pulse	1.0	t		31.0	male	west_asian	1.9538400318344609	neutral	070	sub-15	1.0	3.0	070_neutral	0.0		62.34216615874311	
7.0	47.60360229555863	pulse	1.0	t		31.0	male	west_asian	1.9538400318344609	neutral	070	sub-15	1.0	3.0	070_neutral	0.0		63.042142191333824	
7.0	48.30359402468957	pulse	1.0	t		31.0	male	west_asian	1.9538400318344609	neutral	070	sub-15	1.0	3.0	070_neutral	0.0		63.74213392046477	
7.0	49.003598733651415	pulse	1.0	t		31.0	male	west_asian	1.9538400318344609	neutral	070	sub-15	1.0	3.0	070_neutral	0.0		64.44213862942661	
7.0	49.703594990630336	pulse	1.0	t		31.0	male	west_asian	1.9538400318344609	neutral	070	sub-15	1.0	3.0	070_neutral	0.0		65.14213488640553	
8.0	50.01179142196179	face	0.0		146	20.0	female	white	3.9502586549940313	smiling	091	sub-15	1.0	3.0	091_smiling	0.0		65.45033131773698	1.2416470258676782
8.0	50.40356649537307	pulse	0.0	t		20.0	female	white	3.9502586549940313	smiling	091	sub-15	1.0	3.0	091_smiling	0.0		65.84210639114826	
8.0	51.103566676486935	pulse	0.0	t		20.0	female	white	3.9502586549940313	smiling	091	sub-15	1.0	3.0	091_smiling	0.0		66.54210657226213	
8.0	51.25343844782947	fix	1.0		444	20.0	female	white	3.9502586549940313	smiling	091	sub-15	1.0	3.0	091_smiling	0.0		66.69197834360466	3.766579168518092
8.0	51.80354542578698	pulse	1.0	t		20.0	female	white	3.9502586549940313	smiling	091	sub-15	1.0	3.0	091_smiling	0.0		67.24208532156217	
8.0	52.50354681432691	pulse	1.0	t		20.0	female	white	3.9502586549940313	smiling	091	sub-15	1.0	3.0	091_smiling	0.0		67.9420867101021	
8.0	53.20351741349987	pulse	1.0	t		20.0	female	white	3.9502586549940313	smiling	091	sub-15	1.0	3.0	091_smiling	0.0		68.64205730927506	
8.0	53.90350914263081	pulse	1.0	t		20.0	female	white	3.9502586549940313	smiling	091	sub-15	1.0	3.0	091_smiling	0.0		69.342049038406	
8.0	54.603502381044564	pulse	1.0	t		20.0	female	white	3.9502586549940313	smiling	091	sub-15	1.0	3.0	091_smiling	0.0		70.04204227681976	
9.0	55.02001761634756	face	0.0		145	26.0	female	white	4.854755272582572	neutral	027	sub-15	1.0	3.0	027_neutral	1.0	dominance	70.45855751212275	1.2333459710603165
9.0	55.30349531760157	pulse	0.0	t		26.0	female	white	4.854755272582572	neutral	027	sub-15	1.0	3.0	027_neutral	1.0	dominance	70.74203521337677	
9.0	56.00347768917936	pulse	0.0	t		26.0	female	white	4.854755272582572	neutral	027	sub-15	1.0	3.0	027_neutral	1.0	dominance	71.44201758495456	
9.0	56.253363587407875	fix	1.0		177	26.0	female	white	4.854755272582572	neutral	027	sub-15	1.0	3.0	027_neutral	1.0	dominance	71.69190348318307	1.499979171898758
9.0	56.70347998328907	pulse	1.0	t		26.0	female	white	4.854755272582572	neutral	027	sub-15	1.0	3.0	027_neutral	1.0	dominance	72.14201987906426	
9.0	57.40346144929799	pulse	1.0	t		26.0	female	white	4.854755272582572	neutral	027	sub-15	1.0	3.0	027_neutral	1.0	dominance	72.84200134507319	
9.0	57.75334275930663	rating	2.0		294	26.0	female	white	4.854755272582572	neutral	027	sub-15	1.0	3.0	027_neutral	1.0	dominance	73.19188265508183	2.4999649846417924
9.0	58.1034504617196	pulse	2.0	t		26.0	female	white	4.854755272582572	neutral	027	sub-15	1.0	3.0	027_neutral	1.0	dominance	73.5419903574948	
9.0	58.72012374910673	response	2.0	w		26.0	female	white	4.854755272582572	neutral	027	sub-15	1.0	3.0	027_neutral	1.0	dominance	74.15866364488193	
9.0	58.8034382667156	pulse	2.0	t		26.0	female	white	4.854755272582572	neutral	027	sub-15	1.0	3.0	027_neutral	1.0	dominance	74.2419781624908	
9.0	59.50343210884239	pulse	2.0	t		26.0	female	white	4.854755272582572	neutral	027	sub-15	1.0	3.0	027_neutral	1.0	dominance	74.94197200461758	
9.0	60.203413574850856	pulse	2.0	t		26.0	female	white	4.854755272582572	neutral	027	sub-15	1.0	3.0	027_neutral	1.0	dominance	75.64195347062605	
9.0	60.253307743948426	fix	3.0		444	26.0	female	white	4.854755272582572	neutral	027	sub-15	1.0	3.0	027_neutral	1.0	dominance	75.69184763972362	3.7665897334968577
9.0	60.90342130237832	pulse	3.0	t		26.0	female	white	4.854755272582572	neutral	027	sub-15	1.0	3.0	027_neutral	1.0	dominance	76.34196119815351	
9.0	61.6034097110869	pulse	3.0	t		26.0	female	white	4.854755272582572	neutral	027	sub-15	1.0	3.0	027_neutral	1.0	dominance	77.04194960686209	
9.0	62.30339117709582	pulse	3.0	t		26.0	female	white	4.854755272582572	neutral	027	sub-15	1.0	3.0	027_neutral	1.0	dominance	77.74193107287101	
9.0	63.00337807652204	pulse	3.0	t		26.0	female	white	4.854755272582572	neutral	027	sub-15	1.0	3.0	027_neutral	1.0	dominance	78.44191797229723	
9.0	63.70338731333186	pulse	3.0	t		26.0	female	white	4.854755272582572	neutral	027	sub-15	1.0	3.0	027_neutral	1.0	dominance	79.14192720910705	
10.0	64.01989747744528	face	0.0		145	27.0	female	white	3.504576203740549	smiling	144	sub-15	1.0	3.0	144_smiling	0.0		79.45843737322048	1.233328161524696
10.0	64.40336636448819	pulse	0.0	t		27.0	female	white	3.504576203740549	smiling	144	sub-15	1.0	3.0	144_smiling	0.0		79.84190626026339	
10.0	65.10335145277531	pulse	0.0	t		27.0	female	white	3.504576203740549	smiling	144	sub-15	1.0	3.0	144_smiling	0.0		80.54189134855051	
10.0	65.25322563896998	fix	1.0		444	27.0	female	white	3.504576203740549	smiling	144	sub-15	1.0	3.0	144_smiling	0.0		80.69176553474517	3.766599996619334
10.0	65.80334046519738	pulse	1.0	t		27.0	female	white	3.504576203740549	smiling	144	sub-15	1.0	3.0	144_smiling	0.0		81.24188036097257	
10.0	66.50332494977101	pulse	1.0	t		27.0	female	white	3.504576203740549	smiling	144	sub-15	1.0	3.0	144_smiling	0.0		81.9418648455462	
10.0	67.20331275476701	pulse	1.0	t		27.0	female	white	3.504576203740549	smiling	144	sub-15	1.0	3.0	144_smiling	0.0		82.6418526505422	
10.0	67.90329965419323	pulse	1.0	t		27.0	female	white	3.504576203740549	smiling	144	sub-15	1.0	3.0	144_smiling	0.0		83.34183954996843	
10.0	68.60329379817631	pulse	1.0	t		27.0	female	white	3.504576203740549	smiling	144	sub-15	1.0	3.0	144_smiling	0.0		84.0418336939515	
11.0	69.01982563558931	face	0.0		145	22.0	male	black	2.767608436132113	smiling	044	sub-15	1.0	3.0	044_smiling	0.0		84.4583655313645	1.233335406081551
11.0	69.30328462173748	pulse	0.0	t		22.0	male	black	2.767608436132113	smiling	044	sub-15	1.0	3.0	044_smiling	0.0		84.74182451751267	
11.0	70.00327001188089	pulse	0.0	t		22.0	male	black	2.767608436132113	smiling	044	sub-15	1.0	3.0	044_smiling	0.0		85.44180990765608	
11.0	70.25316104167086	fix	1.0		444	22.0	male	black	2.767608436132113	smiling	044	sub-15	1.0	3.0	044_smiling	0.0		85.69170093744606	3.766590035353147
11.0	70.70326807999936	pulse	1.0	t		22.0	male	black	2.767608436132113	smiling	044	sub-15	1.0	3.0	044_smiling	0.0		86.14180797577455	
11.0	71.40325105529064	pulse	1.0	t		22.0	male	black	2.767608436132113	smiling	044	sub-15	1.0	3.0	044_smiling	0.0		86.84179095106583	
11.0	72.10324489741697	pulse	1.0	t		22.0	male	black	2.767608436132113	smiling	044	sub-15	1.0	3.0	044_smiling	0.0		87.54178479319216	
11.0	72.80323240055623	pulse	1.0	t		22.0	male	black	2.767608436132113	smiling	044	sub-15	1.0	3.0	044_smiling	0.0		88.24177229633142	
11.0	73.50322926124818	pulse	1.0	t		22.0	male	black	2.767608436132113	smiling	044	sub-15	1.0	3.0	044_smiling	0.0		88.94176915702337	
12.0	74.01975107702401	face	0.0		145	19.0	male	white	2.243931555909272	neutral	130	sub-15	1.0	3.0	130_neutral	0.0		89.4582909727992	1.233329972663796
12.0	74.2032125383962	pulse	0.0	t		19.0	male	white	2.243931555909272	neutral	130	sub-15	1.0	3.0	130_neutral	0.0		89.6417524341714	
12.0	74.90320155081827	pulse	0.0	t		19.0	male	white	2.243931555909272	neutral	130	sub-15	1.0	3.0	130_neutral	0.0		90.34174144659346	
12.0	75.25308104968781	fix	1.0		444	19.0	male	white	2.243931555909272	neutral	130	sub-15	1.0	3.0	130_neutral	0.0		90.691620945463	3.7584036860307606
12.0	75.60319297809247	pulse	1.0	t		19.0	male	white	2.243931555909272	neutral	130	sub-15	1.0	3.0	130_neutral	0.0		91.04173287386766	
12.0	76.30317444410093	pulse	1.0	t		19.0	male	white	2.243931555909272	neutral	130	sub-15	1.0	3.0	130_neutral	0.0		91.74171433987613	
12.0	77.00317643635435	pulse	1.0	t		19.0	male	white	2.243931555909272	neutral	130	sub-15	1.0	3.0	130_neutral	0.0		92.44171633212954	
12.0	77.70318084345945	pulse	1.0	t		19.0	male	white	2.243931555909272	neutral	130	sub-15	1.0	3.0	130_neutral	0.0		93.14172073923464	
12.0	78.40314510364533	pulse	1.0	t		19.0	male	white	2.243931555909272	neutral	130	sub-15	1.0	3.0	130_neutral	0.0		93.84168499942052	
13.0	79.01148473571857	face	0.0		146	20.0	male	black	3.1070433744528456	smiling	082	sub-15	1.0	3.0	082_smiling	0.0		94.45002463149376	1.2415317166701243
13.0	79.10316098129942	pulse	0.0	t		20.0	male	black	3.1070433744528456	smiling	082	sub-15	1.0	3.0	082_smiling	0.0		94.54170087707462	
13.0	79.80311739321542	pulse	0.0	t		20.0	male	black	3.1070433744528456	smiling	082	sub-15	1.0	3.0	082_smiling	0.0		95.24165728899061	
13.0	80.25301645238869	fix	1.0		444	20.0	male	black	3.1070433744528456	smiling	082	sub-15	1.0	3.0	082_smiling	0.0		95.69155634816389	3.7665861112186576
13.0	80.50313689314771	pulse	1.0	t		20.0	male	black	3.1070433744528456	smiling	082	sub-15	1.0	3.0	082_smiling	0.0		95.9416767889229	
13.0	81.20310839789045	pulse	1.0	t		20.0	male	black	3.1070433744528456	smiling	082	sub-15	1.0	3.0	082_smiling	0.0		96.64164829366564	
13.0	81.9031034474433	pulse	1.0	t		20.0	male	black	3.1070433744528456	smiling	082	sub-15	1.0	3.0	082_smiling	0.0		97.3416433432185	
13.0	82.60310725083536	pulse	1.0	t		20.0	male	black	3.1070433744528456	smiling	082	sub-15	1.0	3.0	082_smiling	0.0		98.04164714661056	
13.0	83.30307392587383	pulse	1.0	t		20.0	male	black	3.1070433744528456	smiling	082	sub-15	1.0	3.0	082_smiling	0.0		98.74161382164903	
14.0	84.01960256360735	face	0.0		145	21.0	male	east_asian/white	3.501790688420215	smiling	036	sub-15	1.0	3.0	036_smiling	1.0	trustworthiness	99.45814245938254	1.2333326893726735
14.0	84.00655753144156	pulse	0.0	t		21.0	male	east_asian/white	3.501790688420215	smiling	036	sub-15	1.0	3.0	036_smiling	1.0	trustworthiness	99.44509742721675	
14.0	84.70306764725774	pulse	0.0	t		21.0	male	east_asian/white	3.501790688420215	smiling	036	sub-15	1.0	3.0	036_smiling	1.0	trustworthiness	100.14160754303293	
14.0	85.25293525298002	fix	1.0		177	21.0	male	east_asian/white	3.501790688420215	smiling	036	sub-15	1.0	3.0	036_smiling	1.0	trustworthiness	100.69147514875522	1.4999894350212344
14.0	85.4030473021271	pulse	1.0	t		21.0	male	east_asian/white	3.501790688420215	smiling	036	sub-15	1.0	3.0	036_smiling	1.0	trustworthiness	100.8415871979023	
14.0	86.10303148484445	pulse	1.0	t		21.0	male	east_asian/white	3.501790688420215	smiling	036	sub-15	1.0	3.0	036_smiling	1.0	trustworthiness	101.54157138061964	
14.0	86.75292468800126	rating	2.0		294	21.0	male	east_asian/white	3.501790688420215	smiling	036	sub-15	1.0	3.0	036_smiling	1.0	trustworthiness	102.19146458377645	2.499948382531784
14.0	86.80303287338438	pulse	2.0	t		21.0	male	east_asian/white	3.501790688420215	smiling	036	sub-15	1.0	3.0	036_smiling	1.0	trustworthiness	102.24157276915957	
14.0	87.50301947095431	pulse	2.0	t		21.0	male	east_asian/white	3.501790688420215	smiling	036	sub-15	1.0	3.0	036_smiling	1.0	trustworthiness	102.9415593667295	
14.0	87.82800274810188	response	2.0	y		21.0	male	east_asian/white	3.501790688420215	smiling	036	sub-15	1.0	3.0	036_smiling	1.0	trustworthiness	103.26654264387707	
14.0	88.20299791839716	pulse	2.0	t		21.0	male	east_asian/white	3.501790688420215	smiling	036	sub-15	1.0	3.0	036_smiling	1.0	trustworthiness	103.64153781417235	
14.0	88.9030008162199	pulse	2.0	t		21.0	male	east_asian/white	3.501790688420215	smiling	036	sub-15	1.0	3.0	036_smiling	1.0	trustworthiness	104.3415407119951	
14.0	89.25287307053304	fix	3.0		444	21.0	male	east_asian/white	3.501790688420215	smiling	036	sub-15	1.0	3.0	036_smiling	1.0	trustworthiness	104.69141296630823	3.7665948650578684
14.0	89.60299737505557	pulse	3.0	t		21.0	male	east_asian/white	3.501790688420215	smiling	036	sub-15	1.0	3.0	036_smiling	1.0	trustworthiness	105.04153727083076	
14.0	90.30298065220313	pulse	3.0	t		21.0	male	east_asian/white	3.501790688420215	smiling	036	sub-15	1.0	3.0	036_smiling	1.0	trustworthiness	105.74152054797833	
14.0	91.00297811660857	pulse	3.0	t		21.0	male	east_asian/white	3.501790688420215	smiling	036	sub-15	1.0	3.0	036_smiling	1.0	trustworthiness	106.44151801238377	
14.0	91.70296773274367	pulse	3.0	t		21.0	male	east_asian/white	3.501790688420215	smiling	036	sub-15	1.0	3.0	036_smiling	1.0	trustworthiness	107.14150762851887	
14.0	92.40294497276045	pulse	3.0	t		21.0	male	east_asian/white	3.501790688420215	smiling	036	sub-15	1.0	3.0	036_smiling	1.0	trustworthiness	107.84148486853564	
15.0	93.01946793559091	face	0.0		145	20.0	male	black	3.1070433744528456	neutral	082	sub-15	1.0	3.0	082_neutral	0.0		108.4580078313661	1.2333532156176261
15.0	93.10294213530915	pulse	0.0	t		20.0	male	black	3.1070433744528456	neutral	082	sub-15	1.0	3.0	082_neutral	0.0		108.54148203108434	
15.0	93.80294865541009	pulse	0.0	t		20.0	male	black	3.1070433744528456	neutral	082	sub-15	1.0	3.0	082_neutral	0.0		109.24148855118528	
15.0	94.25282115120854	fix	1.0		444	20.0	male	black	3.1070433744528456	neutral	082	sub-15	1.0	3.0	082_neutral	0.0		109.69136104698373	3.7665761499524706
15.0	94.502913519309	pulse	1.0	t		20.0	male	black	3.1070433744528456	neutral	082	sub-15	1.0	3.0	082_neutral	0.0		109.9414534150842	
15.0	95.20288170362983	pulse	1.0	t		20.0	male	black	3.1070433744528456	neutral	082	sub-15	1.0	3.0	082_neutral	0.0		110.64142159940502	
15.0	95.90291448525022	pulse	1.0	t		20.0	male	black	3.1070433744528456	neutral	082	sub-15	1.0	3.0	082_neutral	0.0		111.34145438102541	
15.0	96.60288568813621	pulse	1.0	t		20.0	male	black	3.1070433744528456	neutral	082	sub-15	1.0	3.0	082_neutral	0.0		112.0414255839114	
15.0	97.30288254882817	pulse	1.0	t		20.0	male	black	3.1070433744528456	neutral	082	sub-15	1.0	3.0	082_neutral	0.0		112.74142244460336	
16.0	98.019397301161	face	0.0		146	40.0	male	black	2.408674890569041	smiling	061	sub-15	1.0	3.0	061_smiling	0.0		113.4579371969362	1.2333305763768294
16.0	98.00610806705572	pulse	0.0	t		40.0	male	black	2.408674890569041	smiling	061	sub-15	1.0	3.0	061_smiling	0.0		113.44464796283091	
16.0	98.70290434287062	pulse	0.0	t		40.0	male	black	2.408674890569041	smiling	061	sub-15	1.0	3.0	061_smiling	0.0		114.14144423864582	
16.0	99.25272787753784	fix	1.0		443	40.0	male	black	2.408674890569041	smiling	061	sub-15	1.0	3.0	061_smiling	0.0		114.69126777331303	3.766613278306977
16.0	99.40283419141088	pulse	1.0	t		40.0	male	black	2.408674890569041	smiling	061	sub-15	1.0	3.0	061_smiling	0.0		114.84137408718607	
16.0	100.1028286372507	pulse	1.0	t		40.0	male	black	2.408674890569041	smiling	061	sub-15	1.0	3.0	061_smiling	0.0		115.54136853302589	
16.0	100.80281976266815	pulse	1.0	t		40.0	male	black	2.408674890569041	smiling	061	sub-15	1.0	3.0	061_smiling	0.0		116.24135965844334	
16.0	101.50282899947842	pulse	1.0	t		40.0	male	black	2.408674890569041	smiling	061	sub-15	1.0	3.0	061_smiling	0.0		116.94136889525362	
16.0	102.20279627822947	pulse	1.0	t		40.0	male	black	2.408674890569041	smiling	061	sub-15	1.0	3.0	061_smiling	0.0		117.64133617400466	
16.0	102.90276899039873	pulse	1.0	t		40.0	male	black	2.408674890569041	smiling	061	sub-15	1.0	3.0	061_smiling	0.0		118.34130888617392	
17.0	103.01934115584481	face	0.0		146	24.0	female	east_asian	4.409868682849185	smiling	030	sub-15	1.0	3.0	030_smiling	0.0		118.45788105162	1.2333121631281756
17.0	103.60278637733518	pulse	0.0	t		24.0	female	east_asian	4.409868682849185	smiling	030	sub-15	1.0	3.0	030_smiling	0.0		119.04132627311037	
17.0	104.25265331897299	fix	1.0		443	24.0	female	east_asian	4.409868682849185	smiling	030	sub-15	1.0	3.0	030_smiling	0.0		119.69119321474818	3.766594563201579
17.0	104.30276874891342	pulse	1.0	t		24.0	female	east_asian	4.409868682849185	smiling	030	sub-15	1.0	3.0	030_smiling	0.0		119.74130864468862	
17.0	105.00279398411976	pulse	1.0	t		24.0	female	east_asian	4.409868682849185	smiling	030	sub-15	1.0	3.0	030_smiling	0.0		120.44133387989496	
17.0	105.702744962618	pulse	1.0	t		24.0	female	east_asian	4.409868682849185	smiling	030	sub-15	1.0	3.0	030_smiling	0.0		121.14128485839319	
17.0	106.40273156018793	pulse	1.0	t		24.0	female	east_asian	4.409868682849185	smiling	030	sub-15	1.0	3.0	030_smiling	0.0		121.84127145596312	
17.0	107.10272298746213	pulse	1.0	t		24.0	female	east_asian	4.409868682849185	smiling	030	sub-15	1.0	3.0	030_smiling	0.0		122.54126288323732	
17.0	107.80273675212038	pulse	1.0	t		24.0	female	east_asian	4.409868682849185	smiling	030	sub-15	1.0	3.0	030_smiling	0.0		123.24127664789557	
18.0	108.01924788217457	face	0.0		145	20.0	male	black	2.609629924393156	neutral	043	sub-15	1.0	3.0	043_neutral	0.0		123.45778777794976	1.2333314819466068
18.0	108.5027085587194	pulse	0.0	t		20.0	male	black	2.609629924393156	neutral	043	sub-15	1.0	3.0	043_neutral	0.0		123.9412484544946	
18.0	109.20269334515024	pulse	0.0	t		20.0	male	black	2.609629924393156	neutral	043	sub-15	1.0	3.0	043_neutral	0.0		124.64123324092543	
18.0	109.25257936412117	fix	1.0		444	20.0	male	black	2.609629924393156	neutral	043	sub-15	1.0	3.0	043_neutral	0.0		124.69111925989637	3.7665912427796684
18.0	109.90270620423871	pulse	1.0	t		20.0	male	black	2.609629924393156	neutral	043	sub-15	1.0	3.0	043_neutral	0.0		125.3412461000139	
18.0	110.60268344425549	pulse	1.0	t		20.0	male	black	2.609629924393156	neutral	043	sub-15	1.0	3.0	043_neutral	0.0		126.04122334003068	
18.0	111.30268181423025	pulse	1.0	t		20.0	male	black	2.609629924393156	neutral	043	sub-15	1.0	3.0	043_neutral	0.0		126.74122171000545	
18.0	112.00266841179973	pulse	1.0	t		20.0	male	black	2.609629924393156	neutral	043	sub-15	1.0	3.0	043_neutral	0.0		127.44120830757493	
18.0	112.70264384067787	pulse	1.0	t		20.0	male	black	2.609629924393156	neutral	043	sub-15	1.0	3.0	043_neutral	0.0		128.14118373645306	
19.0	113.01917060690084	face	0.0		145	26.0	male	white	2.7966573816155993	smiling	117	sub-15	1.0	3.0	117_smiling	0.0		128.45771050267604	1.2333456692035725
19.0	113.40263919208701	pulse	0.0	t		26.0	male	white	2.7966573816155993	smiling	117	sub-15	1.0	3.0	117_smiling	0.0		128.8411790878622	
19.0	114.10264269362278	pulse	0.0	t		26.0	male	white	2.7966573816155993	smiling	117	sub-15	1.0	3.0	117_smiling	0.0		129.54118258939798	
19.0	114.25251627610442	fix	1.0		444	26.0	male	white	2.7966573816155993	smiling	117	sub-15	1.0	3.0	117_smiling	0.0		129.6910561718796	3.76658339450978
19.0	114.80264166731058	pulse	1.0	t		26.0	male	white	2.7966573816155993	smiling	117	sub-15	1.0	3.0	117_smiling	0.0		130.24118156308577	
19.0	115.50260321078758	pulse	1.0	t		26.0	male	white	2.7966573816155993	smiling	117	sub-15	1.0	3.0	117_smiling	0.0		130.94114310656278	
19.0	116.20258920464448	pulse	1.0	t		26.0	male	white	2.7966573816155993	smiling	117	sub-15	1.0	3.0	117_smiling	0.0		131.64112910041968	
19.0	116.90257942449261	pulse	1.0	t		26.0	male	white	2.7966573816155993	smiling	117	sub-15	1.0	3.0	117_smiling	0.0		132.3411193202678	
19.0	117.60256873877097	pulse	1.0	t		26.0	male	white	2.7966573816155993	smiling	117	sub-15	1.0	3.0	117_smiling	0.0		133.04110863454616	
20.0	118.0190996706142	face	0.0		145	27.0	male	black	3.5523278949462798	neutral	042	sub-15	1.0	3.0	042_neutral	1.0	trustworthiness	133.4576395663894	1.2333335949424509
20.0	118.30259789811271	pulse	0.0	t		27.0	male	black	3.5523278949462798	neutral	042	sub-15	1.0	3.0	042_neutral	1.0	trustworthiness	133.7411377938879	
20.0	119.00255823416319	pulse	0.0	t		27.0	male	black	3.5523278949462798	neutral	042	sub-15	1.0	3.0	042_neutral	1.0	trustworthiness	134.44109812993838	
20.0	119.25243326555665	fix	1.0		177	27.0	male	black	3.5523278949462798	neutral	042	sub-15	1.0	3.0	042_neutral	1.0	trustworthiness	134.69097316133184	1.4999948684385345
20.0	119.7025418131675	pulse	1.0	t		27.0	male	black	3.5523278949462798	neutral	042	sub-15	1.0	3.0	042_neutral	1.0	trustworthiness	135.1410817089427	
20.0	120.40252629774159	pulse	1.0	t		27.0	male	black	3.5523278949462798	neutral	042	sub-15	1.0	3.0	042_neutral	1.0	trustworthiness	135.84106619351678	
20.0	120.75242813399518	rating	2.0		294	27.0	male	black	3.5523278949462798	neutral	042	sub-15	1.0	3.0	042_neutral	1.0	trustworthiness	136.19096802977037	2.4999541178062827
20.0	121.1025301011341	pulse	2.0	t		27.0	male	black	3.5523278949462798	neutral	042	sub-15	1.0	3.0	042_neutral	1.0	trustworthiness	136.5410699969093	
20.0	121.80250673743785	pulse	2.0	t		27.0	male	black	3.5523278949462798	neutral	042	sub-15	1.0	3.0	042_neutral	1.0	trustworthiness	137.24104663321305	
20.0	122.00249484429014	response	2.0	e		27.0	male	black	3.5523278949462798	neutral	042	sub-15	1.0	3.0	042_neutral	1.0	trustworthiness	137.44103474006533	
20.0	122.50251144640015	pulse	2.0	t		27.0	male	black	3.5523278949462798	neutral	042	sub-15	1.0	3.0	042_neutral	1.0	trustworthiness	137.94105134217534	
20.0	123.2024956291175	pulse	2.0	t		27.0	male	black	3.5523278949462798	neutral	042	sub-15	1.0	3.0	042_neutral	1.0	trustworthiness	138.6410355248927	
20.0	123.25238225180146	fix	3.0		1185	27.0	male	black	3.5523278949462798	neutral	042	sub-15	1.0	3.0	042_neutral	1.0	trustworthiness	138.69092214757666	10.016493139404702
20.0	123.90247739698225	pulse	3.0	t		27.0	male	black	3.5523278949462798	neutral	042	sub-15	1.0	3.0	042_neutral	1.0	trustworthiness	139.34101729275744	
20.0	124.60248784121859	pulse	3.0	t		27.0	male	black	3.5523278949462798	neutral	042	sub-15	1.0	3.0	042_neutral	1.0	trustworthiness	140.04102773699378	
20.0	125.30245632739616	pulse	3.0	t		27.0	male	black	3.5523278949462798	neutral	042	sub-15	1.0	3.0	042_neutral	1.0	trustworthiness	140.74099622317135	
20.0	126.00246164007103	pulse	3.0	t		27.0	male	black	3.5523278949462798	neutral	042	sub-15	1.0	3.0	042_neutral	1.0	trustworthiness	141.44100153584623	
20.0	126.70281710633071	pulse	3.0	t		27.0	male	black	3.5523278949462798	neutral	042	sub-15	1.0	3.0	042_neutral	1.0	trustworthiness	142.1413570021059	
20.0	127.4024384574891	pulse	3.0	t		27.0	male	black	3.5523278949462798	neutral	042	sub-15	1.0	3.0	042_neutral	1.0	trustworthiness	142.8409783532643	
20.0	128.1024096603751	pulse	3.0	t		27.0	male	black	3.5523278949462798	neutral	042	sub-15	1.0	3.0	042_neutral	1.0	trustworthiness	143.54094955615028	
20.0	128.8024210101812	pulse	3.0	t		27.0	male	black	3.5523278949462798	neutral	042	sub-15	1.0	3.0	042_neutral	1.0	trustworthiness	144.2409609059564	
20.0	129.50238587408012	pulse	3.0	t		27.0	male	black	3.5523278949462798	neutral	042	sub-15	1.0	3.0	042_neutral	1.0	trustworthiness	144.9409257698553	
20.0	130.20236915122769	pulse	3.0	t		27.0	male	black	3.5523278949462798	neutral	042	sub-15	1.0	3.0	042_neutral	1.0	trustworthiness	145.64090904700288	
20.0	130.9023823121729	pulse	3.0	t		27.0	male	black	3.5523278949462798	neutral	042	sub-15	1.0	3.0	042_neutral	1.0	trustworthiness	146.3409222079481	
20.0	131.602377059869	pulse	3.0	t		27.0	male	black	3.5523278949462798	neutral	042	sub-15	1.0	3.0	042_neutral	1.0	trustworthiness	147.0409169556442	
20.0	132.30236214815613	pulse	3.0	t		27.0	male	black	3.5523278949462798	neutral	042	sub-15	1.0	3.0	042_neutral	1.0	trustworthiness	147.74090204393133	
20.0	133.0023418030255	pulse	3.0	t		27.0	male	black	3.5523278949462798	neutral	042	sub-15	1.0	3.0	042_neutral	1.0	trustworthiness	148.4408816988007	
21.0	133.26887539120617	face	0.0		145	27.0	female	white	4.181058495821727	smiling	039	sub-15	1.0	3.0	039_smiling	0.0		148.70741528698136	1.2333329912289628
21.0	133.7023368525779	pulse	0.0	t		27.0	female	white	4.181058495821727	smiling	039	sub-15	1.0	3.0	039_smiling	0.0		149.1408767483531	
21.0	134.40232405386087	pulse	0.0	t		27.0	female	white	4.181058495821727	smiling	039	sub-15	1.0	3.0	039_smiling	0.0		149.84086394963606	
21.0	134.50220838243513	fix	1.0		444	27.0	female	white	4.181058495821727	smiling	039	sub-15	1.0	3.0	039_smiling	0.0		149.94074827821032	3.7666084486027103
21.0	135.1023124625699	pulse	1.0	t		27.0	female	white	4.181058495821727	smiling	039	sub-15	1.0	3.0	039_smiling	0.0		150.5408523583451	
21.0	135.80232713279747	pulse	1.0	t		27.0	female	white	4.181058495821727	smiling	039	sub-15	1.0	3.0	039_smiling	0.0		151.24086702857267	
21.0	136.50228777070515	pulse	1.0	t		27.0	female	white	4.181058495821727	smiling	039	sub-15	1.0	3.0	039_smiling	0.0		151.94082766648035	
21.0	137.20228764996227	pulse	1.0	t		27.0	female	white	4.181058495821727	smiling	039	sub-15	1.0	3.0	039_smiling	0.0		152.64082754573747	
21.0	137.90228752921985	pulse	1.0	t		27.0	female	white	4.181058495821727	smiling	039	sub-15	1.0	3.0	039_smiling	0.0		153.34082742499504	
22.0	138.26881683103784	face	0.0		145	28.0	male	east_asian	1.5563072025467568	smiling	005	sub-15	1.0	3.0	005_smiling	0.0		153.70735672681303	1.2333218225371638
22.0	138.60227593792843	pulse	0.0	t		28.0	male	east_asian	1.5563072025467568	smiling	005	sub-15	1.0	3.0	005_smiling	0.0		154.04081583370362	
22.0	139.30224683895813	pulse	0.0	t		28.0	male	east_asian	1.5563072025467568	smiling	005	sub-15	1.0	3.0	005_smiling	0.0		154.74078673473332	
22.0	139.502138653575	fix	1.0		444	28.0	male	east_asian	1.5563072025467568	smiling	005	sub-15	1.0	3.0	005_smiling	0.0		154.9406785493502	3.758256681896455
22.0	140.00224943492458	pulse	1.0	t		28.0	male	east_asian	1.5563072025467568	smiling	005	sub-15	1.0	3.0	005_smiling	0.0		155.44078933069977	
22.0	140.70222999536372	pulse	1.0	t		28.0	male	east_asian	1.5563072025467568	smiling	005	sub-15	1.0	3.0	005_smiling	0.0		156.14076989113892	
22.0	141.40221297065455	pulse	1.0	t		28.0	male	east_asian	1.5563072025467568	smiling	005	sub-15	1.0	3.0	005_smiling	0.0		156.84075286642974	
22.0	142.10220530349852	pulse	1.0	t		28.0	male	east_asian	1.5563072025467568	smiling	005	sub-15	1.0	3.0	005_smiling	0.0		157.54074519927372	
22.0	142.8021994474816	pulse	1.0	t		28.0	male	east_asian	1.5563072025467568	smiling	005	sub-15	1.0	3.0	005_smiling	0.0		158.2407393432568	
23.0	143.26039533547146	face	0.0		146	19.0	male	white	3.2522881018702745	neutral	018	sub-15	1.0	3.0	018_neutral	0.0		158.69893523124665	1.2416642316902653
23.0	143.50220053416524	pulse	0.0	t		19.0	male	white	3.2522881018702745	neutral	018	sub-15	1.0	3.0	018_neutral	0.0		158.94074042994043	
23.0	144.20219437629203	pulse	0.0	t		19.0	male	white	3.2522881018702745	neutral	018	sub-15	1.0	3.0	018_neutral	0.0		159.64073427206722	
23.0	144.50205956716172	fix	1.0		444	19.0	male	white	3.2522881018702745	neutral	018	sub-15	1.0	3.0	018_neutral	0.0		159.94059946293692	3.758256983753199
23.0	144.9021664847478	pulse	1.0	t		19.0	male	white	3.2522881018702745	neutral	018	sub-15	1.0	3.0	018_neutral	0.0		160.340706380523	
23.0	145.602157912022	pulse	1.0	t		19.0	male	white	3.2522881018702745	neutral	018	sub-15	1.0	3.0	018_neutral	0.0		161.0406978077972	
23.0	146.30214541516125	pulse	1.0	t		19.0	male	white	3.2522881018702745	neutral	018	sub-15	1.0	3.0	018_neutral	0.0		161.74068531093644	
23.0	147.0021555575413	pulse	1.0	t		19.0	male	white	3.2522881018702745	neutral	018	sub-15	1.0	3.0	018_neutral	0.0		162.4406954533165	
23.0	147.70211981772718	pulse	1.0	t		19.0	male	white	3.2522881018702745	neutral	018	sub-15	1.0	3.0	018_neutral	0.0		163.14065971350237	
24.0	148.26031655091492	face	0.0		146	25.0	female	west_asian	2.6756864305610826	neutral	064	sub-15	1.0	3.0	064_neutral	0.0		163.69885644669012	1.2416687595386975
24.0	148.40212362111924	pulse	0.0	t		25.0	female	west_asian	2.6756864305610826	neutral	064	sub-15	1.0	3.0	064_neutral	0.0		163.84066351689444	
24.0	149.10210961497614	pulse	0.0	t		25.0	female	west_asian	2.6756864305610826	neutral	064	sub-15	1.0	3.0	064_neutral	0.0		164.54064951075134	
24.0	149.50198531045362	fix	1.0		444	25.0	female	west_asian	2.6756864305610826	neutral	064	sub-15	1.0	3.0	064_neutral	0.0		164.9405252062288	3.758318562486693
24.0	149.80209772182843	pulse	1.0	t		25.0	female	west_asian	2.6756864305610826	neutral	064	sub-15	1.0	3.0	064_neutral	0.0		165.24063761760362	
24.0	150.50210363821634	pulse	1.0	t		25.0	female	west_asian	2.6756864305610826	neutral	064	sub-15	1.0	3.0	064_neutral	0.0		165.94064353399153	
24.0	151.20207272810694	pulse	1.0	t		25.0	female	west_asian	2.6756864305610826	neutral	064	sub-15	1.0	3.0	064_neutral	0.0		166.64061262388213	
24.0	151.90204664770226	pulse	1.0	t		25.0	female	west_asian	2.6756864305610826	neutral	064	sub-15	1.0	3.0	064_neutral	0.0		167.34058654347746	
24.0	152.60206222349962	pulse	1.0	t		25.0	female	west_asian	2.6756864305610826	neutral	064	sub-15	1.0	3.0	064_neutral	0.0		168.0406021192748	
25.0	153.2603038729403	face	0.0		146	22.0	female	white	4.614007162753682	smiling	009	sub-15	1.0	3.0	009_smiling	0.0		168.6988437687155	1.2416120105094706
25.0	153.30205606562595	pulse	0.0	t		22.0	female	white	4.614007162753682	smiling	009	sub-15	1.0	3.0	009_smiling	0.0		168.74059596140114	
25.0	154.00203632420835	pulse	0.0	t		22.0	female	white	4.614007162753682	smiling	009	sub-15	1.0	3.0	009_smiling	0.0		169.44057621998354	
25.0	154.50191588344978	fix	1.0		443	22.0	female	white	4.614007162753682	smiling	009	sub-15	1.0	3.0	009_smiling	0.0		169.94045577922498	3.7583137327819713
25.0	154.70202563848716	pulse	1.0	t		22.0	female	white	4.614007162753682	smiling	009	sub-15	1.0	3.0	009_smiling	0.0		170.14056553426235	
25.0	155.40201223605663	pulse	1.0	t		22.0	female	white	4.614007162753682	smiling	009	sub-15	1.0	3.0	009_smiling	0.0		170.84055213183183	
25.0	156.10199853176982	pulse	1.0	t		22.0	female	white	4.614007162753682	smiling	009	sub-15	1.0	3.0	009_smiling	0.0		171.54053842754502	
25.0	156.8019987128837	pulse	1.0	t		22.0	female	white	4.614007162753682	smiling	009	sub-15	1.0	3.0	009_smiling	0.0		172.24053860865888	
25.0	157.50198591416665	pulse	1.0	t		22.0	female	white	4.614007162753682	smiling	009	sub-15	1.0	3.0	009_smiling	0.0		172.94052580994185	
25.0	158.20196617274905	pulse	1.0	t		22.0	female	white	4.614007162753682	smiling	009	sub-15	1.0	3.0	009_smiling	0.0		173.64050606852425	
26.0	158.26022961623175	face	0.0		147	40.0	male	black	2.408674890569041	neutral	061	sub-15	1.0	3.0	061_neutral	0.0		173.69876951200695	1.2416111049396932
26.0	158.90196182601494	pulse	0.0	t		40.0	male	black	2.408674890569041	neutral	061	sub-15	1.0	3.0	061_neutral	0.0		174.34050172179013	
26.0	159.50184072117145	fix	1.0		443	40.0	male	black	2.408674890569041	neutral	061	sub-15	1.0	3.0	061_neutral	0.0		174.94038061694664	3.7665915446364124
26.0	159.60196019598925	pulse	1.0	t		40.0	male	black	2.408674890569041	neutral	061	sub-15	1.0	3.0	061_neutral	0.0		175.04050009176444	
26.0	160.30196188638593	pulse	1.0	t		40.0	male	black	2.408674890569041	neutral	061	sub-15	1.0	3.0	061_neutral	0.0		175.74050178216112	
26.0	161.00192675028484	pulse	1.0	t		40.0	male	black	2.408674890569041	neutral	061	sub-15	1.0	3.0	061_neutral	0.0		176.44046664606003	
26.0	161.70191787570275	pulse	1.0	t		40.0	male	black	2.408674890569041	neutral	061	sub-15	1.0	3.0	061_neutral	0.0		177.14045777147794	
26.0	162.4019259050865	pulse	1.0	t		40.0	male	black	2.408674890569041	neutral	061	sub-15	1.0	3.0	061_neutral	0.0		177.8404658008617	
26.0	163.1019152193653	pulse	1.0	t		40.0	male	black	2.408674890569041	neutral	061	sub-15	1.0	3.0	061_neutral	0.0		178.5404551151405	
27.0	163.26843226580786	face	0.0		146	37.0	male	white	3.898925586947871	smiling	101	sub-15	1.0	3.0	101_smiling	0.0		178.70697216158305	1.2333444617775058
27.0	163.80189849651288	pulse	0.0	t		37.0	male	white	3.898925586947871	smiling	101	sub-15	1.0	3.0	101_smiling	0.0		179.24043839228807	
27.0	164.50177672758537	fix	1.0		444	37.0	male	white	3.898925586947871	smiling	101	sub-15	1.0	3.0	101_smiling	0.0		179.94031662336056	3.7666362194036083
27.0	164.50958937851374	pulse	1.0	t		37.0	male	white	3.898925586947871	smiling	101	sub-15	1.0	3.0	101_smiling	0.0		179.94812927428893	
27.0	165.20189493460566	pulse	1.0	t		37.0	male	white	3.898925586947871	smiling	101	sub-15	1.0	3.0	101_smiling	0.0		180.64043483038085	
27.0	165.90185798736547	pulse	1.0	t		37.0	male	white	3.898925586947871	smiling	101	sub-15	1.0	3.0	101_smiling	0.0		181.34039788314067	
27.0	166.60184699978754	pulse	1.0	t		37.0	male	white	3.898925586947871	smiling	101	sub-15	1.0	3.0	101_smiling	0.0		182.04038689556273	
27.0	167.30183420107005	pulse	1.0	t		37.0	male	white	3.898925586947871	smiling	101	sub-15	1.0	3.0	101_smiling	0.0		182.74037409684524	
27.0	168.00188479222606	pulse	1.0	t		37.0	male	white	3.898925586947871	smiling	101	sub-15	1.0	3.0	101_smiling	0.0		183.44042468800126	
28.0	168.26841294698897	face	0.0		145	40.0	male	white	1.868682849184242	smiling	172	sub-15	1.0	3.0	172_smiling	0.0		183.70695284276417	1.2332831849007562
28.0	168.7018185649017	pulse	0.0	t		40.0	male	white	1.868682849184242	smiling	172	sub-15	1.0	3.0	172_smiling	0.0		184.1403584606769	
28.0	169.40180636989726	pulse	0.0	t		40.0	male	white	1.868682849184242	smiling	172	sub-15	1.0	3.0	172_smiling	0.0		184.84034626567245	
28.0	169.50169613188973	fix	1.0		444	40.0	male	white	1.868682849184242	smiling	172	sub-15	1.0	3.0	172_smiling	0.0		184.94023602766492	3.766588224214047
28.0	170.10179568417607	pulse	1.0	t		40.0	male	white	1.868682849184242	smiling	172	sub-15	1.0	3.0	172_smiling	0.0		185.54033557995126	
28.0	170.8017985819988	pulse	1.0	t		40.0	male	white	1.868682849184242	smiling	172	sub-15	1.0	3.0	172_smiling	0.0		186.240338477774	
28.0	171.50177189788064	pulse	1.0	t		40.0	male	white	1.868682849184242	smiling	172	sub-15	1.0	3.0	172_smiling	0.0		186.94031179365584	
28.0	172.20177056971215	pulse	1.0	t		40.0	male	white	1.868682849184242	smiling	172	sub-15	1.0	3.0	172_smiling	0.0		187.64031046548735	
28.0	172.90178856036164	pulse	1.0	t		40.0	male	white	1.868682849184242	smiling	172	sub-15	1.0	3.0	172_smiling	0.0		188.34032845613683	
29.0	173.26828435610378	face	0.0		145	24.0	female	black	3.0955033824114606	neutral	099	sub-15	1.0	3.0	099_neutral	0.0		188.70682425187897	1.2333302745205401
29.0	173.60174859455583	pulse	0.0	t		24.0	female	black	3.0955033824114606	neutral	099	sub-15	1.0	3.0	099_neutral	0.0		189.04028849033102	
29.0	174.30174364410868	pulse	0.0	t		24.0	female	black	3.0955033824114606	neutral	099	sub-15	1.0	3.0	099_neutral	0.0		189.74028353988388	
29.0	174.50161463062432	fix	1.0		444	24.0	female	black	3.0955033824114606	neutral	099	sub-15	1.0	3.0	099_neutral	0.0		189.9401545263995	3.758410025017838
29.0	175.00172480826086	pulse	1.0	t		24.0	female	black	3.0955033824114606	neutral	099	sub-15	1.0	3.0	099_neutral	0.0		190.44026470403605	
29.0	175.70174008220147	pulse	1.0	t		24.0	female	black	3.0955033824114606	neutral	099	sub-15	1.0	3.0	099_neutral	0.0		191.14027997797666	
29.0	176.4016986071133	pulse	1.0	t		24.0	female	black	3.0955033824114606	neutral	099	sub-15	1.0	3.0	099_neutral	0.0		191.8402385028885	
29.0	177.10168731767862	pulse	1.0	t		24.0	female	black	3.0955033824114606	neutral	099	sub-15	1.0	3.0	099_neutral	0.0		192.54022721345382	
29.0	177.8016829709445	pulse	1.0	t		24.0	female	black	3.0955033824114606	neutral	099	sub-15	1.0	3.0	099_neutral	0.0		193.2402228667197	
30.0	178.26002465564216	face	0.0		146	22.0	female	west_asian	3.8205332272184642	smiling	066	sub-15	1.0	3.0	066_smiling	0.0		193.69856455141735	1.2415108885688824
30.0	178.5016710777968	pulse	0.0	t		22.0	female	west_asian	3.8205332272184642	smiling	066	sub-15	1.0	3.0	066_smiling	0.0		193.940210973572	
30.0	179.20166280692774	pulse	0.0	t		22.0	female	west_asian	3.8205332272184642	smiling	066	sub-15	1.0	3.0	066_smiling	0.0		194.64020270270294	
30.0	179.50153554421104	fix	1.0		444	22.0	female	west_asian	3.8205332272184642	smiling	066	sub-15	1.0	3.0	066_smiling	0.0		194.94007543998623	3.766609052315289
30.0	179.90165091378003	pulse	1.0	t		22.0	female	west_asian	3.8205332272184642	smiling	066	sub-15	1.0	3.0	066_smiling	0.0		195.34019080955522	
30.0	180.60165411345952	pulse	1.0	t		22.0	female	west_asian	3.8205332272184642	smiling	066	sub-15	1.0	3.0	066_smiling	0.0		196.0401940092347	
30.0	181.30163799432012	pulse	1.0	t		22.0	female	west_asian	3.8205332272184642	smiling	066	sub-15	1.0	3.0	066_smiling	0.0		196.7401778900953	
30.0	182.00161342319825	pulse	1.0	t		22.0	female	west_asian	3.8205332272184642	smiling	066	sub-15	1.0	3.0	066_smiling	0.0		197.44015331897344	
30.0	182.7016229618648	pulse	1.0	t		22.0	female	west_asian	3.8205332272184642	smiling	066	sub-15	1.0	3.0	066_smiling	0.0		198.14016285764	
31.0	183.26814459652633	face	0.0		145	27.0	male	black	3.5523278949462798	smiling	042	sub-15	1.0	3.0	042_smiling	0.0		198.70668449230152	1.2333296708075068
31.0	183.40160140930766	pulse	0.0	t		27.0	male	black	3.5523278949462798	smiling	042	sub-15	1.0	3.0	042_smiling	0.0		198.84014130508285	
31.0	184.1016082312658	pulse	0.0	t		27.0	male	black	3.5523278949462798	smiling	042	sub-15	1.0	3.0	042_smiling	0.0		199.540148127041	
31.0	184.50147426733383	fix	1.0		444	27.0	male	black	3.5523278949462798	smiling	042	sub-15	1.0	3.0	042_smiling	0.0		199.94001416310903	3.7665876205010136
31.0	184.8015664543209	pulse	1.0	t		27.0	male	black	3.5523278949462798	smiling	042	sub-15	1.0	3.0	042_smiling	0.0		200.24010635009608	
31.0	185.50156754100408	pulse	1.0	t		27.0	male	black	3.5523278949462798	smiling	042	sub-15	1.0	3.0	042_smiling	0.0		200.94010743677927	
31.0	186.2015544404303	pulse	1.0	t		27.0	male	black	3.5523278949462798	smiling	042	sub-15	1.0	3.0	042_smiling	0.0		201.6400943362055	
31.0	186.90154435842214	pulse	1.0	t		27.0	male	black	3.5523278949462798	smiling	042	sub-15	1.0	3.0	042_smiling	0.0		202.34008425419734	
31.0	187.6015412191141	pulse	1.0	t		27.0	male	black	3.5523278949462798	smiling	042	sub-15	1.0	3.0	042_smiling	0.0		203.0400811148893	
32.0	188.26806188783485	face	0.0		145	36.0	female	white	2.7548746518105847	neutral	011	sub-15	1.0	3.0	011_neutral	0.0		203.70660178361004	1.2333351042252616
32.0	188.3015513614937	pulse	0.0	t		36.0	female	white	2.7548746518105847	neutral	011	sub-15	1.0	3.0	011_neutral	0.0		203.7400912572689	
32.0	189.00151320682744	pulse	0.0	t		36.0	female	white	2.7548746518105847	neutral	011	sub-15	1.0	3.0	011_neutral	0.0		204.44005310260263	
32.0	189.5013969920601	fix	1.0		443	36.0	female	white	2.7548746518105847	neutral	011	sub-15	1.0	3.0	011_neutral	0.0		204.9399368878353	3.758343012866135
32.0	189.70151550093715	pulse	1.0	t		36.0	female	white	2.7548746518105847	neutral	011	sub-15	1.0	3.0	011_neutral	0.0		205.14005539671234	
32.0	190.4015030040764	pulse	1.0	t		36.0	female	white	2.7548746518105847	neutral	011	sub-15	1.0	3.0	011_neutral	0.0		205.8400428998516	
32.0	191.10152190029567	pulse	1.0	t		36.0	female	white	2.7548746518105847	neutral	011	sub-15	1.0	3.0	011_neutral	0.0		206.54006179607086	
32.0	191.801469558372	pulse	1.0	t		36.0	female	white	2.7548746518105847	neutral	011	sub-15	1.0	3.0	011_neutral	0.0		207.24000945414718	
32.0	192.5014609856462	pulse	1.0	t		36.0	female	white	2.7548746518105847	neutral	011	sub-15	1.0	3.0	011_neutral	0.0		207.94000088142138	
32.0	193.2014506017813	pulse	1.0	t		36.0	female	white	2.7548746518105847	neutral	011	sub-15	1.0	3.0	011_neutral	0.0		208.63999049755648	
33.0	193.25974000492624	face	0.0		147	28.0	female	white	5.676880222841227	smiling	124	sub-15	1.0	3.0	124_smiling	0.0		208.69827990070144	1.2415890694123846
33.0	193.90144776432953	pulse	0.0	t		28.0	female	white	5.676880222841227	smiling	124	sub-15	1.0	3.0	124_smiling	0.0		209.33998766010473	
33.0	194.50132907433863	fix	1.0		443	28.0	female	white	5.676880222841227	smiling	124	sub-15	1.0	3.0	124_smiling	0.0		209.93986897011382	3.758353879702099
33.0	194.6014551900007	pulse	1.0	t		28.0	female	white	5.676880222841227	smiling	124	sub-15	1.0	3.0	124_smiling	0.0		210.0399950857759	
33.0	195.30142156318243	pulse	1.0	t		28.0	female	white	5.676880222841227	smiling	124	sub-15	1.0	3.0	124_smiling	0.0		210.73996145895762	
33.0	196.00141268859988	pulse	1.0	t		28.0	female	white	5.676880222841227	smiling	124	sub-15	1.0	3.0	124_smiling	0.0		211.43995258437508	
33.0	196.7014020028787	pulse	1.0	t		28.0	female	white	5.676880222841227	smiling	124	sub-15	1.0	3.0	124_smiling	0.0		212.1399418986539	
33.0	197.40138678930907	pulse	1.0	t		28.0	female	white	5.676880222841227	smiling	124	sub-15	1.0	3.0	124_smiling	0.0		212.83992668508427	
33.0	198.10137399059158	pulse	1.0	t		28.0	female	white	5.676880222841227	smiling	124	sub-15	1.0	3.0	124_smiling	0.0		213.53991388636678	
34.0	198.25968295404073	face	0.0		147	22.0	female	white	4.614007162753682	neutral	009	sub-15	1.0	3.0	009_neutral	0.0		213.69822284981592	1.2415866545602512
34.0	198.80137054942725	pulse	0.0	t		22.0	female	white	4.614007162753682	neutral	009	sub-15	1.0	3.0	009_neutral	0.0		214.23991044520244	
34.0	199.50126960860098	fix	1.0		444	22.0	female	white	4.614007162753682	neutral	009	sub-15	1.0	3.0	009_neutral	0.0		214.93980950437617	3.7665906390661803
34.0	199.5092180949714	pulse	1.0	t		22.0	female	white	4.614007162753682	neutral	009	sub-15	1.0	3.0	009_neutral	0.0		214.9477579907466	
34.0	200.20134978169744	pulse	1.0	t		22.0	female	white	4.614007162753682	neutral	009	sub-15	1.0	3.0	009_neutral	0.0		215.63988967747264	
34.0	200.901354188803	pulse	1.0	t		22.0	female	white	4.614007162753682	neutral	009	sub-15	1.0	3.0	009_neutral	0.0		216.3398940845782	
34.0	201.6013441067944	pulse	1.0	t		22.0	female	white	4.614007162753682	neutral	009	sub-15	1.0	3.0	009_neutral	0.0		217.03988400256958	
34.0	202.30131349854128	pulse	1.0	t		22.0	female	white	4.614007162753682	neutral	009	sub-15	1.0	3.0	009_neutral	0.0		217.73985339431647	
34.0	203.00130854809413	pulse	1.0	t		22.0	female	white	4.614007162753682	neutral	009	sub-15	1.0	3.0	009_neutral	0.0		218.43984844386932	
35.0	203.26786024766716	face	0.0		145	24.0	female	east_asian	4.409868682849185	neutral	030	sub-15	1.0	3.0	030_neutral	0.0		218.70640014344235	1.2333317838033508
35.0	203.7012975605162	pulse	0.0	t		24.0	female	east_asian	4.409868682849185	neutral	030	sub-15	1.0	3.0	030_neutral	0.0		219.1398374562914	
35.0	204.4012871766513	pulse	0.0	t		24.0	female	east_asian	4.409868682849185	neutral	030	sub-15	1.0	3.0	030_neutral	0.0		219.8398270724265	
35.0	204.5011920314705	fix	1.0		444	24.0	female	east_asian	4.409868682849185	neutral	030	sub-15	1.0	3.0	030_neutral	0.0		219.9397319272457	3.758377424511764
35.0	205.10127588721662	pulse	1.0	t		24.0	female	east_asian	4.409868682849185	neutral	030	sub-15	1.0	3.0	030_neutral	0.0		220.5398157829918	
35.0	205.8012739553351	pulse	1.0	t		24.0	female	east_asian	4.409868682849185	neutral	030	sub-15	1.0	3.0	030_neutral	0.0		221.23981385111028	
35.0	206.5012662881786	pulse	1.0	t		24.0	female	east_asian	4.409868682849185	neutral	030	sub-15	1.0	3.0	030_neutral	0.0		221.9398061839538	
35.0	207.20124201891304	pulse	1.0	t		24.0	female	east_asian	4.409868682849185	neutral	030	sub-15	1.0	3.0	030_neutral	0.0		222.63978191468823	
35.0	207.90122831462622	pulse	1.0	t		24.0	female	east_asian	4.409868682849185	neutral	030	sub-15	1.0	3.0	030_neutral	0.0		223.33976821040142	
36.0	208.25956945598227	face	0.0		146	24.0	male	white	3.1153999204138483	neutral	012	sub-15	1.0	3.0	012_neutral	0.0		223.69810935175747	1.2415299055305695
36.0	208.6012281938838	pulse	0.0	t		24.0	male	white	3.1153999204138483	neutral	012	sub-15	1.0	3.0	012_neutral	0.0		224.039768089659	
36.0	209.30122203601013	pulse	0.0	t		24.0	male	white	3.1153999204138483	neutral	012	sub-15	1.0	3.0	012_neutral	0.0		224.73976193178532	
36.0	209.50109936151284	fix	1.0		444	24.0	male	white	3.1153999204138483	neutral	012	sub-15	1.0	3.0	012_neutral	0.0		224.93963925728804	3.7666015059021447
36.0	210.001207426154	pulse	1.0	t		24.0	male	white	3.1153999204138483	neutral	012	sub-15	1.0	3.0	012_neutral	0.0		225.4397473219292	
36.0	210.70120307941988	pulse	1.0	t		24.0	male	white	3.1153999204138483	neutral	012	sub-15	1.0	3.0	012_neutral	0.0		226.13974297519508	
36.0	211.40118937513262	pulse	1.0	t		24.0	male	white	3.1153999204138483	neutral	012	sub-15	1.0	3.0	012_neutral	0.0		226.8397292709078	
36.0	212.1011850283985	pulse	1.0	t		24.0	male	white	3.1153999204138483	neutral	012	sub-15	1.0	3.0	012_neutral	0.0		227.5397249241737	
36.0	212.80115864613708	pulse	1.0	t		24.0	male	white	3.1153999204138483	neutral	012	sub-15	1.0	3.0	012_neutral	0.0		228.23969854191228	
37.0	213.267700867415	face	0.0		145	19.0	female	white	4.298846000795861	neutral	100	sub-15	1.0	3.0	100_neutral	0.0		228.70624076319018	1.2333498951952606
37.0	213.50115550682904	pulse	0.0	t		19.0	female	white	4.298846000795861	neutral	100	sub-15	1.0	3.0	100_neutral	0.0		228.93969540260423	
37.0	214.20115448051683	pulse	0.0	t		19.0	female	white	4.298846000795861	neutral	100	sub-15	1.0	3.0	100_neutral	0.0		229.63969437629203	
37.0	214.50105076261025	fix	1.0		444	19.0	female	white	4.298846000795861	neutral	100	sub-15	1.0	3.0	100_neutral	0.0		229.93959065838544	3.76658520564888
37.0	214.90112175926834	pulse	1.0	t		19.0	female	white	4.298846000795861	neutral	100	sub-15	1.0	3.0	100_neutral	0.0		230.33966165504353	
37.0	215.60113371278703	pulse	1.0	t		19.0	female	white	4.298846000795861	neutral	100	sub-15	1.0	3.0	100_neutral	0.0		231.03967360856223	
37.0	216.30110944352145	pulse	1.0	t		19.0	female	white	4.298846000795861	neutral	100	sub-15	1.0	3.0	100_neutral	0.0		231.73964933929665	
37.0	217.00109664480442	pulse	1.0	t		19.0	female	white	4.298846000795861	neutral	100	sub-15	1.0	3.0	100_neutral	0.0		232.4396365405796	
37.0	217.70109471292244	pulse	1.0	t		19.0	female	white	4.298846000795861	neutral	100	sub-15	1.0	3.0	100_neutral	0.0		233.13963460869763	
38.0	218.26763596825913	face	0.0		145	31.0	female	east_asian	3.395941106247513	neutral	087	sub-15	1.0	3.0	087_neutral	1.0	attractiveness	233.70617586403432	1.2333136724109863
38.0	218.40108795133574	pulse	0.0	t		31.0	female	east_asian	3.395941106247513	neutral	087	sub-15	1.0	3.0	087_neutral	1.0	attractiveness	233.83962784711093	
38.0	219.10107998232343	pulse	0.0	t		31.0	female	east_asian	3.395941106247513	neutral	087	sub-15	1.0	3.0	087_neutral	1.0	attractiveness	234.53961987809862	
38.0	219.50094964067011	fix	1.0		177	31.0	female	east_asian	3.395941106247513	neutral	087	sub-15	1.0	3.0	087_neutral	1.0	attractiveness	234.9394895364453	1.4999830960337022
38.0	219.801063259471	pulse	1.0	t		31.0	female	east_asian	3.395941106247513	neutral	087	sub-15	1.0	3.0	087_neutral	1.0	attractiveness	235.2396031552462	
38.0	220.50104955518418	pulse	1.0	t		31.0	female	east_asian	3.395941106247513	neutral	087	sub-15	1.0	3.0	087_neutral	1.0	attractiveness	235.93958945095937	
38.0	221.00093273670382	rating	2.0		294	31.0	female	east_asian	3.395941106247513	neutral	087	sub-15	1.0	3.0	087_neutral	1.0	attractiveness	236.439472632479	2.4999589475110042
38.0	221.2010509437241	pulse	2.0	t		31.0	female	east_asian	3.395941106247513	neutral	087	sub-15	1.0	3.0	087_neutral	1.0	attractiveness	236.6395908394993	
38.0	221.90102908931112	pulse	2.0	t		31.0	female	east_asian	3.395941106247513	neutral	087	sub-15	1.0	3.0	087_neutral	1.0	attractiveness	237.33956898508632	
38.0	222.09268323899323	response	2.0	b		31.0	female	east_asian	3.395941106247513	neutral	087	sub-15	1.0	3.0	087_neutral	1.0	attractiveness	237.53122313476842	
38.0	222.60102957228128	pulse	2.0	t		31.0	female	east_asian	3.395941106247513	neutral	087	sub-15	1.0	3.0	087_neutral	1.0	attractiveness	238.03956946805647	
38.0	223.30102341440806	pulse	2.0	t		31.0	female	east_asian	3.395941106247513	neutral	087	sub-15	1.0	3.0	087_neutral	1.0	attractiveness	238.73956331018326	
38.0	223.50089168421482	fix	3.0		444	31.0	female	east_asian	3.395941106247513	neutral	087	sub-15	1.0	3.0	087_neutral	1.0	attractiveness	238.93943157999	3.7665927520620244
38.0	224.00101423796923	pulse	3.0	t		31.0	female	east_asian	3.395941106247513	neutral	087	sub-15	1.0	3.0	087_neutral	1.0	attractiveness	239.43955413374442	
38.0	224.70100174110848	pulse	3.0	t		31.0	female	east_asian	3.395941106247513	neutral	087	sub-15	1.0	3.0	087_neutral	1.0	attractiveness	240.13954163688368	
38.0	225.4009699254293	pulse	3.0	t		31.0	female	east_asian	3.395941106247513	neutral	087	sub-15	1.0	3.0	087_neutral	1.0	attractiveness	240.8395098212045	
38.0	226.10096316384306	pulse	3.0	t		31.0	female	east_asian	3.395941106247513	neutral	087	sub-15	1.0	3.0	087_neutral	1.0	attractiveness	241.53950305961826	
38.0	226.80096304310018	pulse	3.0	t		31.0	female	east_asian	3.395941106247513	neutral	087	sub-15	1.0	3.0	087_neutral	1.0	attractiveness	242.23950293887538	
39.0	227.26748443627685	face	0.0		145	25.0	female	west_asian	2.6756864305610826	smiling	064	sub-15	1.0	3.0	064_smiling	0.0		242.70602433205204	1.2333538193306595
39.0	227.50095477223113	pulse	0.0	t		25.0	female	west_asian	2.6756864305610826	smiling	064	sub-15	1.0	3.0	064_smiling	0.0		242.93949466800632	
39.0	228.20093865309218	pulse	0.0	t		25.0	female	west_asian	2.6756864305610826	smiling	064	sub-15	1.0	3.0	064_smiling	0.0		243.63947854886737	
39.0	228.5008382556075	fix	1.0		444	25.0	female	west_asian	2.6756864305610826	smiling	064	sub-15	1.0	3.0	064_smiling	0.0		243.9393781513827	3.749921819156498
39.0	228.90092706180076	pulse	1.0	t		25.0	female	west_asian	2.6756864305610826	smiling	064	sub-15	1.0	3.0	064_smiling	0.0		244.33946695757595	
39.0	229.60091607422282	pulse	1.0	t		25.0	female	west_asian	2.6756864305610826	smiling	064	sub-15	1.0	3.0	064_smiling	0.0		245.03945596999802	
39.0	230.3009032755058	pulse	1.0	t		25.0	female	west_asian	2.6756864305610826	smiling	064	sub-15	1.0	3.0	064_smiling	0.0		245.73944317128098	
39.0	231.00091221045932	pulse	1.0	t		25.0	female	west_asian	2.6756864305610826	smiling	064	sub-15	1.0	3.0	064_smiling	0.0		246.4394521062345	
39.0	231.70088039478014	pulse	1.0	t		25.0	female	west_asian	2.6756864305610826	smiling	064	sub-15	1.0	3.0	064_smiling	0.0		247.13942029055534	
40.0	232.250760074764	fix	0.0		720													247.6892999705392	5.999910952320988
40.0	232.40087634990232	pulse	0.0	t														247.8394162456775	
40.0	233.10086958831607	pulse	0.0	t														248.53940948409127	
40.0	233.80085256360735	pulse	0.0	t														249.23939245938254	
40.0	234.5008476131602	pulse	0.0	t														249.9393875089354	
40.0	235.2008333051599	pulse	0.0	t														250.6393732009351	
40.0	235.9008192990168	pulse	0.0	t														251.339359194792	
40.0	236.60082280055258	pulse	0.0	t														252.03936269632777	
40.0	237.30080245542194	pulse	0.0	t														252.73934235119714	
40.0	238.00081139037547	pulse	0.0	t														253.43935128615067	
