trial_nr	onset	event_type	phase	response	nr_frames	rating_type	face_id	repetition	session	rating	onset_abs	duration
0.0	0.003586055667256005	cue	0.0		480						77.68692617070337	4.000515570965945
0.0	4.004101626633201	fix	1.0		120						81.68744174166932	1.025137405100395
0.0	5.029239031733596	face	0.0		146	dominance	006	1.0	1		82.71257914676971	1.275395492441021
0.0	6.304634524174617	rating	1.0		347	dominance	006	1.0	1		83.98797463921073	2.9000785430689575
0.0	9.204713067243574	fix	2.0		60	dominance	006	1.0	1	1.1600000000000001	86.88805318227969	0.5168704600800993
1.0	9.721583527323673	face	0.0		147	dominance	066	1.0	1		87.40492364235979	1.233344763633795
1.0	10.954928290957469	rating	1.0		415	dominance	066	1.0	1		88.63826840599359	3.4670825444773072
1.0	14.422010835434776	fix	2.0		60	dominance	066	1.0	1	2.2699999999999996	92.10535095047089	0.5167578675900586
2.0	14.938768703024834	face	0.0		147	dominance	024	1.0	1		92.62210881806095	1.2334564505581511
2.0	16.172225153582986	rating	1.0		308	dominance	024	1.0	1		93.8555652686191	2.57530928219785
2.0	18.747534435780835	fix	2.0		60	dominance	024	1.0	1	-0.6099999999999999	96.43087455081695	0.5167512267507846
3.0	19.26428566253162	face	0.0		147	dominance	038	1.0	1		96.94762577756774	1.2334736563789193
3.0	20.49775931891054	rating	1.0		276	dominance	038	1.0	1		98.18109943394666	2.308591561537469
3.0	22.806350880448008	fix	2.0		60	dominance	038	1.0	1	1.3099999999999996	100.48969099548412	0.5167578675900586
4.0	23.323108748038067	face	0.0		147	dominance	033	1.0	1		101.00644886307418	1.2334691285213921
4.0	24.55657787655946	rating	1.0		299	dominance	033	1.0	1		102.23991799159558	2.500294008277706
4.0	27.056871884837165	fix	2.0		60	dominance	033	1.0	1	-1.15	104.74021199987328	0.5167530378821539
5.0	27.57362492271932	face	0.0		147	dominance	036	1.0	1		105.25696503775544	1.2334606765507488
5.0	28.807085599270067	rating	1.0		278	dominance	036	1.0	1		106.49042571430618	2.325280002114596
5.0	31.132365601384663	fix	2.0		60	dominance	036	1.0	1	-1.9	108.81570571642078	0.5167563583090669
6.0	31.64912195969373	face	0.0		147	dominance	136	1.0	1		109.33246207472985	1.2334570542734582
6.0	32.88257901396719	rating	1.0		269	dominance	136	1.0	1		110.5659191290033	2.2502761987270787
6.0	35.13285521269427	fix	2.0		60	dominance	136	1.0	1	2.8499999999999996	112.81619532773038	0.5167539434478385
7.0	35.649609156142105	face	0.0		147	dominance	043	1.0	1		113.33294927117822	1.233459167269757
7.0	36.88306832341186	rating	1.0		300	dominance	043	1.0	1		114.56640843844798	2.5086355118546635
7.0	39.391703835266526	fix	2.0		60	dominance	043	1.0	1	-1.0899999999999999	117.07504395030264	0.5167460951779503
8.0	39.908449930444476	face	0.0		147	dominance	137	1.0	1		117.5917900454806	1.2334627895470476
8.0	41.141912719991524	rating	1.0		273	dominance	137	1.0	1		118.82525283502764	2.2836114236997673
8.0	43.42552414369129	fix	2.0		60	dominance	137	1.0	1	-1.52	121.10886425872741	0.5167479063238716
9.0	43.94227205001516	face	0.0		147	dominance	087	1.0	1		121.62561216505128	1.2334582616895204
9.0	45.17573031170468	rating	1.0		289	dominance	087	1.0	1		122.8590704267408	2.4169583606999367
9.0	47.59268867240462	fix	2.0		60	dominance	087	1.0	1	0.09999999999999964	125.27602878744074	0.5167545471631456
10.0	48.109443219567765	face	0.0		147	dominance	091	1.0	1		125.79278333460388	1.233465808109031
10.0	49.3429090276768	rating	1.0		179	dominance	091	1.0	1		127.02624914271291	1.5001741712185321
10.0	50.84308319889533	fix	2.0		60	dominance	091	1.0	1	-0.4500000000000002	128.52642331393145	0.516773564129835
11.0	51.359856763025164	face	0.0		147	dominance	009	1.0	1		129.04319687806128	1.233435320595163
11.0	52.59329208362033	rating	1.0		167	dominance	009	1.0	1		130.27663219865644	1.4001742316031596
11.0	53.993466315223486	fix	2.0		60	dominance	009	1.0	1	0.8499999999999996	131.6768064302596	0.5167491137399338
12.0	54.51021542896342	face	0.0		147	dominance	100	1.0	1		132.19355554399954	1.2334594691201346
12.0	55.743674898083555	rating	1.0		286	dominance	100	1.0	1		133.42701501311967	2.392005088098813
12.0	58.13567998618237	fix	2.0		60	dominance	100	1.0	1	0.4299999999999997	135.81902010121848	0.5167038352665259
13.0	58.65238382144889	face	0.0		147	dominance	121	1.0	1		136.335723936485	1.2334609784011263
13.0	59.88584479985002	rating	1.0		219	dominance	121	1.0	1		137.56918491488614	1.8335526824230328
13.0	61.71939748227305	fix	2.0		60	dominance	121	1.0	1	1.1900000000000004	139.40273759730917	0.5167515286011621
14.0	62.236149010874215	face	0.0		147	dominance	141	1.0	1		139.91948912591033	1.2334603746858193
14.0	63.469609385560034	rating	1.0		215	dominance	141	1.0	1		141.15294950059615	1.8002147407387383
14.0	65.26982412629877	fix	2.0		60	dominance	141	1.0	1	-2.38	142.9531642413349	0.5167521323164692
15.0	65.78657625861524	face	0.0		147	dominance	099	1.0	1		143.46991637365136	1.2334691285213921
15.0	67.02004538713663	rating	1.0		226	dominance	099	1.0	1		144.70338550217275	1.8918876659008674
15.0	68.9119330530375	fix	2.0		60	dominance	099	1.0	1	1.7699999999999996	146.59527316807362	0.5167533397470834
16.0	69.42868639278458	face	0.0		147	dominance	005	1.0	1		147.1120265078207	1.2334588654048275
16.0	70.66214525818941	rating	1.0		309	dominance	005	1.0	1		148.34548537322553	2.583644446800463
16.0	73.24578970498987	fix	2.0		60	dominance	005	1.0	1	-2.4	150.929129820026	0.5167512267507846
17.0	73.76254093174066	face	0.0		147	dominance	124	1.0	1		151.44588104677678	1.2334694303863216
17.0	74.99601036212698	rating	1.0		216	dominance	124	1.0	1		152.6793504771631	1.8085414533561561
17.0	76.80455181548314	fix	2.0		60	dominance	124	1.0	1	1.0700000000000003	154.48789193051925	0.5167913736659102
18.0	77.32134318914905	face	0.0		147	dominance	061	1.0	1		155.00468330418516	1.23342264261737
18.0	78.55476583176642	rating	1.0		342	dominance	061	1.0	1		156.23810594680253	2.85867801324639
18.0	81.41344384501281	fix	2.0		60	dominance	061	1.0	1	2.5	159.09678396004892	0.5167533397470834
19.0	81.93019718475989	face	0.0		147	dominance	044	1.0	1		159.613537299796	1.2334600728354417
19.0	83.16365725759533	rating	1.0		163	dominance	044	1.0	1		160.84699737263145	1.366831762061338
19.0	84.53048901965667	fix	2.0		60	dominance	044	1.0	1	-1.6600000000000001	162.2138291346928	0.5167497174697928
20.0	85.04723873712646	face	0.0		147	dominance	172	1.0	1		162.73057885216258	1.2334609784011263
20.0	86.28069971552759	rating	1.0		217	dominance	172	1.0	1		163.9640398305637	1.8168859754950972
20.0	88.09758569102269	fix	2.0		60	dominance	172	1.0	1	2.88	165.7809258060588	0.5167518304660916
21.0	88.61433752148878	face	0.0		147	dominance	064	1.0	1		166.2976776365249	1.2334667136747157
21.0	89.8478042351635	rating	1.0		248	dominance	064	1.0	1		167.5311443501996	2.0752434774767607
21.0	91.92304771264025	fix	2.0		60	dominance	064	1.0	1	1.9400000000000004	169.60638782767637	0.516750924900407
22.0	92.43979863754066	face	0.0		147	dominance	070	1.0	1		170.12313875257678	1.2334694303717697
22.0	93.67326806791243	rating	1.0		272	dominance	070	1.0	1		171.35660818294855	2.2752638829988427
22.0	95.94853195091127	fix	2.0		60	dominance	070	1.0	1	2.4699999999999998	173.6318720659474	0.5167563582945149
23.0	96.46528830920579	face	0.0		147	dominance	039	1.0	1		174.1486284242419	1.2334588654048275
23.0	97.69874717461062	rating	1.0		376	dominance	039	1.0	1		175.38208728964673	3.142046140594175
23.0	100.84079331520479	fix	2.0		60	dominance	039	1.0	1	1.2699999999999996	178.5241334302409	0.5167509248858551
24.0	101.35754424009065	face	0.0		147	dominance	117	1.0	1		179.04088435512676	1.2334609784011263
24.0	102.59100521849177	rating	1.0		222	dominance	117	1.0	1		180.2743453335279	1.8585560632054694
24.0	104.44956128169724	fix	2.0		60	dominance	117	1.0	1	2.4299999999999997	182.13290139673336	0.516753641597461
25.0	104.9663149232947	face	0.0		147	dominance	018	1.0	1		182.64965503833082	1.2334579598391429
25.0	106.19977288313385	rating	1.0		262	dominance	018	1.0	1		183.88311299816996	2.1919321595487418
25.0	108.39170504268259	fix	2.0		60	dominance	018	1.0	1	-3.5300000000000002	186.0750451577187	0.5167581694549881
26.0	108.90846321213758	face	0.0		147	dominance	030	1.0	1		186.5918033271737	1.2334522245510016
26.0	110.14191543668858	rating	1.0		192	dominance	030	1.0	1		187.8252555517247	1.6085291979834437
26.0	111.75044463467202	fix	2.0		60	dominance	030	1.0	1	2.55	189.43378474970814	0.5167485100391787
27.0	112.2671931447112	face	0.0		147	dominance	144	1.0	1		189.95053325974732	1.2334633932478027
27.0	113.500656537959	rating	1.0		180	dominance	144	1.0	1		191.18399665299512	1.5085223156493157
27.0	115.00917885360832	fix	2.0		60	dominance	144	1.0	1	1.7199999999999998	192.69251896864444	0.5167421710502822
28.0	115.5259210246586	face	0.0		147	dominance	012	1.0	1		193.20926113969472	1.2334621858317405
28.0	116.75938321049034	rating	1.0		236	dominance	012	1.0	1		194.44272332552646	1.9752365951571846
28.0	118.73461980564753	fix	2.0		60	dominance	012	1.0	1	1.8499999999999996	196.41795992068364	0.5167515286011621
29.0	119.25137133424869	face	0.0		147	dominance	101	1.0	1		196.9347114492848	1.2334670155250933
29.0	120.48483834977378	rating	1.0		293	dominance	101	1.0	1		198.1681784648099	2.450291170825949
29.0	122.93512952059973	fix	2.0		60	dominance	101	1.0	1	2.46	200.61846963563585	0.5167500193201704
30.0	123.4518795399199	face	0.0		147	dominance	034	1.0	1		201.13521965495602	1.2334688266710145
30.0	124.68534836659092	rating	1.0		219	dominance	034	1.0	1		202.36868848162703	1.8335460415692069
30.0	126.51889440816012	fix	2.0		60	dominance	034	1.0	1	2.6900000000000004	204.20223452319624	0.5167515286011621
31.0	127.03564593676128	face	0.0		147	dominance	092	1.0	1		204.7189860517974	1.2334633932623547
31.0	128.26910933002364	rating	1.0		263	dominance	092	1.0	1		205.95244944505976	2.2002627962938277
31.0	130.46937212631747	fix	2.0		60	dominance	092	1.0	1	-1.3900000000000001	208.15271224135358	0.5167539434623905
32.0	130.98612606977986	face	0.0		147	dominance	042	1.0	1		208.66946618481597	1.2334615821018815
32.0	132.21958765188174	rating	1.0		213	dominance	042	1.0	1		209.90292776691786	1.7835528635332594
32.0	134.003140515415	fix	2.0		60	dominance	042	1.0	1	-0.71	211.68648063045111	0.5167626972979633
33.0	134.51990321271296	face	0.0		147	dominance	062	1.0	1		212.20324332774908	1.2334449800109724
33.0	135.75334819272393	rating	1.0		308	dominance	062	1.0	1		213.43668830776005	2.575306565500796
33.0	138.32865475822473	fix	2.0		60	dominance	062	1.0	1	3.13	216.01199487326085	0.5167539434478385
34.0	138.84540870167257	face	0.0		147	dominance	102	1.0	1		216.52874881670868	1.2334600728354417
34.0	140.078868774508	rating	1.0		197	dominance	102	1.0	1		217.76220888954413	1.6501977763982723
34.0	141.72906655090628	fix	2.0		60	dominance	102	1.0	1	1.29	219.4124066659424	0.516750321170548
35.0	142.24581687207683	face	0.0		147	dominance	130	1.0	1		219.92915698711295	1.2334615821164334
35.0	143.47927845419326	rating	1.0		272	dominance	130	1.0	1		221.16261856922938	2.2752735424001003
35.0	145.75455199659336	fix	2.0		60	dominance	130	1.0	1	-1.92	223.43789211162948	0.5167678288562456
36.0	146.2713198254496	face	0.0		147	dominance	011	1.0	1		223.95465994048573	1.233445885576657
36.0	147.50476571102627	rating	1.0		316	dominance	011	1.0	1		225.18810582606238	2.6419860711321235
36.0	150.1467517821584	fix	2.0		60	dominance	011	1.0	1	1.8099999999999996	227.8300918971945	0.5167566601594444
37.0	150.66350844231783	face	0.0		147	dominance	027	1.0	1		228.34684855735395	1.2334546394122299
37.0	151.89696308173006	rating	1.0		242	dominance	027	1.0	1		229.58030319676618	2.025243960451917
37.0	153.92220704218198	fix	2.0		60	dominance	027	1.0	1	2.55	231.6055471572181	0.5167494156048633
38.0	154.43895645778684	face	0.0		147	dominance	082	1.0	1		232.12229657282296	1.233479089802131
38.0	155.67243554758898	rating	1.0		158	dominance	082	1.0	1		233.3557756626251	1.325150807519094
38.0	156.99758635510807	fix	2.0		60	dominance	082	1.0	1	0.79	234.6809264701442	0.516744284046581
39.0	157.51433063915465	face	0.0		147	dominance	126	1.0	1		235.19767075419077	1.2334606765507488
39.0	158.7477913157054	rating	1.0		127	dominance	126	1.0	1		236.43113143074152	1.0667948148184223
39.0	159.81458613052382	fix	2.0		60	dominance	126	1.0	1	1.7199999999999998	237.49792624555994	0.5000618805934209
40.0	160.31464801111724	cue	0.0		480						237.99798812615336	4.0004878001636826
40.0	164.31513581128092	fix	1.0		120						241.99847592631704	1.0168037497933256
40.0	165.33193956107425	face	0.0		147	attractiveness	100	1.0	1		243.01527967611037	1.2334627895324957
40.0	166.56540235060675	rating	1.0		272	attractiveness	100	1.0	1		244.24874246564286	2.275274447965785
40.0	168.84067679857253	fix	2.0		60	attractiveness	100	1.0	1	2.4299999999999997	246.52401691360865	0.5167494156048633
41.0	169.3574262141774	face	0.0		147	attractiveness	012	1.0	1		247.0407663292135	1.2334953900572145
41.0	170.5909216042346	rating	1.0		236	attractiveness	012	1.0	1		248.27426171927073	1.9752042964973953
41.0	172.566125900732	fix	2.0		60	attractiveness	012	1.0	1	3.38	250.24946601576812	0.5167533397470834
42.0	173.0828792404791	face	0.0		147	attractiveness	092	1.0	1		250.7662193555152	1.2334670155250933
42.0	174.31634625600418	rating	1.0		451	attractiveness	092	1.0	1		251.9996863710403	3.7671125490305712
42.0	178.08345880503475	fix	2.0		60	attractiveness	092	1.0	1	2.37	255.76679892007087	0.5167518304515397
43.0	178.6002106354863	face	0.0		147	attractiveness	064	1.0	1		256.2835507505224	1.2334603746858193
43.0	179.8336710101721	rating	1.0		196	attractiveness	064	1.0	1		257.5170111252082	1.6418644229561323
43.0	181.47553543312824	fix	2.0		60	attractiveness	064	1.0	1	-1.29	259.15887554816436	0.516750321170548
44.0	181.9922857542988	face	0.0		147	attractiveness	043	1.0	1		259.6756258693349	1.2334633932478027
44.0	183.2257491475466	rating	1.0		186	attractiveness	043	1.0	1		260.9090892625827	1.5585257568163797
44.0	184.78427490436297	fix	2.0		60	attractiveness	043	1.0	1	0.8099999999999996	262.4676150193991	0.5167479063238716
45.0	185.30102281068685	face	0.0		147	attractiveness	038	1.0	1		262.98436292572296	1.2334594691201346
45.0	186.53448227980698	rating	1.0		390	attractiveness	038	1.0	1		264.2178223948431	3.258725766951102
45.0	189.79320804675808	fix	2.0		60	attractiveness	038	1.0	1	-3.44	267.4765481617942	0.5167539434623905
46.0	190.30996199022047	face	0.0		147	attractiveness	102	1.0	1		267.9933021052566	1.2334573561238358
46.0	191.5434193463443	rating	1.0		273	attractiveness	102	1.0	1		269.2267594613804	2.2836078014224768
46.0	193.82702714776678	fix	2.0		60	attractiveness	102	1.0	1	1.2599999999999998	271.5103672628029	0.516753641597461
47.0	194.34378078936425	face	0.0		147	attractiveness	126	1.0	1		272.02712090440036	1.2334603746858193
47.0	195.57724116405006	rating	1.0		239	attractiveness	126	1.0	1		273.2605812790862	2.0002351462462684
47.0	197.57747631029633	fix	2.0		60	attractiveness	126	1.0	1	2.0199999999999996	275.26081642533245	0.5167590750061208
48.0	198.09423538530245	face	0.0		147	attractiveness	091	1.0	1		275.77757550033857	1.2334664118243381
48.0	199.3277017971268	rating	1.0		225	attractiveness	091	1.0	1		277.0110419121629	1.8835515957325697
48.0	201.21125339285936	fix	2.0		60	attractiveness	091	1.0	1	2.7199999999999998	278.8945935078955	0.5167518304660916
49.0	201.72800522332545	face	0.0		147	attractiveness	144	1.0	1		279.41134533836157	1.2334615821018815
49.0	202.96146680542734	rating	1.0		258	attractiveness	144	1.0	1		280.64480692046345	2.158593010462937
49.0	205.12005981589027	fix	2.0		60	attractiveness	144	1.0	1	2.12	282.8033999309264	0.5167515286011621
50.0	205.63681134449143	face	0.0		147	attractiveness	062	1.0	1		283.32015145952755	1.233461280251504
50.0	206.87027262474294	rating	1.0		450	attractiveness	062	1.0	1		284.55361273977906	3.7587858364131534
50.0	210.6290584611561	fix	2.0		60	attractiveness	062	1.0	1	1.0999999999999996	288.3123985761922	0.5167566601594444
51.0	211.14581512131554	face	0.0		147	attractiveness	137	1.0	1		288.82915523635165	1.2334555449779145
51.0	212.37927066629345	rating	1.0		307	attractiveness	137	1.0	1		290.06261078132957	2.566981060313992
51.0	214.94625172660744	fix	2.0		60	attractiveness	137	1.0	1	2.45	292.62959184164356	0.516750924900407
52.0	215.46300265150785	face	0.0		147	attractiveness	070	1.0	1		293.14634276654397	1.2334588654048275
52.0	216.69646151691268	rating	1.0		331	attractiveness	070	1.0	1		294.3798016319488	2.7669954286830034
52.0	219.46345694559568	fix	2.0		60	attractiveness	070	1.0	1	-2.91	297.1467970606318	0.5167545471631456
53.0	219.98021149275883	face	0.0		147	attractiveness	024	1.0	1		297.66355160779494	1.2334579598391429
53.0	221.21366945259797	rating	1.0		283	attractiveness	024	1.0	1		298.8970095676341	2.3669597492407775
53.0	223.58062920183875	fix	2.0		60	attractiveness	024	1.0	1	0.4900000000000002	301.26396931687486	0.5167509248858551
54.0	224.0973801267246	face	0.0		147	attractiveness	011	1.0	1		301.7807202417607	1.233455846842844
54.0	225.33083597356745	rating	1.0		335	attractiveness	011	1.0	1		303.01417608860356	2.80033457778336
54.0	228.1311705513508	fix	2.0		60	attractiveness	011	1.0	1	-0.56	305.8145106663869	0.5167548490280751
55.0	228.64792540037888	face	0.0		147	attractiveness	030	1.0	1		306.331265515415	1.2334670155250933
55.0	229.88139241590397	rating	1.0		162	attractiveness	030	1.0	1		307.5647325309401	1.358488447353011
55.0	231.23988086325699	fix	2.0		60	attractiveness	030	1.0	1	2.67	308.9232209782931	0.516750321170548
56.0	231.75663118442753	face	0.0		147	attractiveness	130	1.0	1		309.43997129946365	1.2334697322512511
56.0	232.99010091667878	rating	1.0		177	attractiveness	130	1.0	1		310.6734410317149	1.4835047475935426
56.0	234.47360566427233	fix	2.0		60	attractiveness	130	1.0	1	0.7800000000000002	312.15694577930844	0.5167512267507846
57.0	234.9903568910231	face	0.0		147	attractiveness	117	1.0	1		312.67369700605923	1.2334600728208898
57.0	236.223816963844	rating	1.0		165	attractiveness	117	1.0	1		313.9071570788801	1.3834993745549582
57.0	237.60731633839896	fix	2.0		60	attractiveness	117	1.0	1	2.0999999999999996	315.2906564534351	0.5167548490280751
58.0	238.12407118742703	face	0.0		147	attractiveness	141	1.0	1		315.80741130246315	1.2334594691201346
58.0	239.35753065654717	rating	1.0		183	attractiveness	141	1.0	1		317.0408707715833	1.5335148295998806
58.0	240.89104548614705	fix	2.0		60	attractiveness	141	1.0	1	2.42	318.57438560118317	0.5167521323164692
59.0	241.40779761846352	face	0.0		147	attractiveness	034	1.0	1		319.09113773349964	1.2334615821164334
59.0	242.64125920057995	rating	1.0		180	attractiveness	034	1.0	1		320.32459931561607	1.50851416552905
59.0	244.149773366109	fix	2.0		60	attractiveness	034	1.0	1	1.3499999999999996	321.8331134811451	0.5167563582945149
60.0	244.66652972440352	face	0.0		147	attractiveness	009	1.0	1		322.34986983943963	1.2334540357114747
60.0	245.899983760115	rating	1.0		176	attractiveness	009	1.0	1		323.5833238751511	1.4751849776803283
60.0	247.37516873779532	fix	2.0		60	attractiveness	009	1.0	1	2.1900000000000004	325.05850885283144	0.5167445859115105
61.0	247.89191332370683	face	0.0		147	attractiveness	061	1.0	1		325.57525343874295	1.2334615821018815
61.0	249.1253749058087	rating	1.0		214	attractiveness	061	1.0	1		326.80871502084483	1.7918831984279677
61.0	250.91725810423668	fix	2.0		60	attractiveness	061	1.0	1	-1.04	328.6005982192728	0.516750321170548
62.0	251.43400842540723	face	0.0		147	attractiveness	027	1.0	1		329.11734854044334	1.23346248769667
62.0	252.6674709131039	rating	1.0		176	attractiveness	027	1.0	1		330.35081102814	1.4751762238447554
62.0	254.14264713694865	fix	2.0		60	attractiveness	027	1.0	1	2.67	331.82598725198477	0.5167530378821539
63.0	254.6594001748308	face	0.0		147	attractiveness	006	1.0	1		332.3427402898669	1.2334597709705122
63.0	255.89285994580132	rating	1.0		180	attractiveness	006	1.0	1		333.57620006083744	1.5085144673794275
63.0	257.40137441318075	fix	2.0		60	attractiveness	006	1.0	1	-1.25	335.08471452821686	0.5167512267507846
64.0	257.91812563993153	face	0.0		147	attractiveness	101	1.0	1		335.60146575496765	1.233461883966811
64.0	259.15158752389834	rating	1.0		339	attractiveness	101	1.0	1		336.83492763893446	2.833673726898269
64.0	261.9852612507966	fix	2.0		60	attractiveness	101	1.0	1	2.9000000000000004	339.6686013658327	0.5167530378821539
65.0	262.50201428867877	face	0.0		147	attractiveness	124	1.0	1		340.1853544037149	1.2334670155250933
65.0	263.73548130420386	rating	1.0		354	attractiveness	124	1.0	1		341.41882141924	2.9586873104417464
65.0	266.6941686146456	fix	2.0		60	attractiveness	124	1.0	1	3.58	344.3775087296817	0.5167512267362326
66.0	267.21091984138184	face	0.0		147	attractiveness	018	1.0	1		344.89425995641795	1.2334570542734582
66.0	268.4443768956553	rating	1.0		226	attractiveness	018	1.0	1		346.1277170106914	1.8918894770322368
66.0	270.33626637268753	fix	2.0		60	attractiveness	018	1.0	1	2.51	348.01960648772365	0.5167633010132704
67.0	270.8530296737008	face	0.0		147	attractiveness	087	1.0	1		348.5363697887369	1.2334802972181933
67.0	272.086509970919	rating	1.0		133	attractiveness	087	1.0	1		349.7698500859551	1.1167713907634607
67.0	273.20328136168246	fix	2.0		60	attractiveness	087	1.0	1	-1.21	350.8866214767186	0.5167533397325315
68.0	273.720034701415	face	0.0		147	attractiveness	033	1.0	1		351.4033748164511	1.2334588654193794
68.0	274.95349356683437	rating	1.0		145	attractiveness	033	1.0	1		352.6368336818705	1.216812684724573
68.0	276.17030625155894	fix	2.0		60	attractiveness	033	1.0	1	0.9299999999999997	353.85364636659506	0.5167509248858551
69.0	276.6870571764448	face	0.0		147	attractiveness	082	1.0	1		354.3703972914809	1.2334615821164334
69.0	277.92051875856123	rating	1.0		232	attractiveness	082	1.0	1		355.60385887359735	1.9419004646188114
69.0	279.86241922318004	fix	2.0		60	attractiveness	082	1.0	1	2.3499999999999996	357.54575933821616	0.5167551508784527
70.0	280.3791743740585	face	0.0		147	attractiveness	036	1.0	1		358.0625144890946	1.2334567524085287
70.0	281.612631126467	rating	1.0		243	attractiveness	036	1.0	1		359.29597124150314	2.0335779176384676
70.0	283.6462090441055	fix	2.0		60	attractiveness	036	1.0	1	2.67	361.3295491591416	0.5167542452982161
71.0	284.1629632894037	face	0.0		147	attractiveness	039	1.0	1		361.8463034044398	1.2334703359665582
71.0	285.39643362537026	rating	1.0		179	attractiveness	039	1.0	1		363.0797737404064	1.5001699452259345
71.0	286.8966035705962	fix	2.0		60	attractiveness	039	1.0	1	2.76	364.5799436856323	0.5167482081742492
72.0	287.41335177877045	face	0.0		147	attractiveness	136	1.0	1		365.09669189380656	1.233462487682118
72.0	288.64681426645257	rating	1.0		228	attractiveness	136	1.0	1		366.3301543814887	1.9085706730693346
72.0	290.5553849395219	fix	2.0		60	attractiveness	136	1.0	1	-2.0700000000000003	368.238725054558	0.5167530378821539
73.0	291.07213797740405	face	0.0		147	attractiveness	172	1.0	1		368.75547809244017	1.233452526430483
73.0	292.30559050383454	rating	1.0		204	attractiveness	172	1.0	1		369.98893061887065	1.7085427211422939
73.0	294.01413322497683	fix	2.0		60	attractiveness	172	1.0	1	-3.29	371.69747334001295	0.5167460951925023
74.0	294.53087932016933	face	0.0		147	attractiveness	005	1.0	1		372.21421943520545	1.2334633932478027
74.0	295.76434271341714	rating	1.0		221	attractiveness	005	1.0	1		373.44768282845325	1.8502181819058023
74.0	297.61456089532294	fix	2.0		60	attractiveness	005	1.0	1	-3.5	375.29790101035906	0.516753641597461
75.0	298.1313145369204	face	0.0		147	attractiveness	099	1.0	1		375.8146546519565	1.2334603746858193
75.0	299.3647749116062	rating	1.0		324	attractiveness	099	1.0	1		377.04811502664234	2.70865833220887
75.0	302.0734332438151	fix	2.0		60	attractiveness	099	1.0	1	-1.19	379.7567733588512	0.516754245312768
76.0	302.59018748912786	face	0.0		147	attractiveness	042	1.0	1		380.273527604164	1.233459167255205
76.0	303.82364665638306	rating	1.0		167	attractiveness	042	1.0	1		381.5069867714192	1.4001681944646407
76.0	305.2238148508477	fix	2.0		60	attractiveness	042	1.0	1	2.3099999999999996	382.9071549658838	0.5167497174697928
77.0	305.7405645683175	face	0.0		147	attractiveness	121	1.0	1		383.4239046833536	1.2334691285213921
77.0	306.9740336968389	rating	1.0		164	attractiveness	121	1.0	1		384.657373811875	1.375157569113071
77.0	308.34919126595196	fix	2.0		60	attractiveness	121	1.0	1	1.6500000000000004	386.0325313809881	0.5167590750206728
78.0	308.86595034097263	face	0.0		147	attractiveness	044	1.0	1		386.54929045600875	1.2334802972181933
78.0	310.0994306381908	rating	1.0		164	attractiveness	044	1.0	1		387.78277075322694	1.375137646580697
78.0	311.4745682847715	fix	2.0		60	attractiveness	044	1.0	1	2.3499999999999996	389.15790839980764	0.5167506230354775
79.0	311.991318907807	face	0.0		147	attractiveness	066	1.0	1		389.6746590228431	1.2334633932478027
79.0	313.2247823010548	rating	1.0		121	attractiveness	066	1.0	1		390.9081224160909	1.0167889588192338
79.0	314.24157125987404	fix	2.0		60	attractiveness	066	1.0	1	1.3399999999999999	391.92491137491015	0.5000655028707115
80.0	314.74163676274475	cue	0.0		480						392.42497687778086	4.000482064890093
80.0	318.74211882763484	fix	1.0		120						396.42545894267096	1.016809485052363
80.0	319.7589283126872	face	0.0		147	trustworthiness	034	1.0	1		397.4422684277233	1.2334576579742134
80.0	320.9923859706614	rating	1.0		444	trustworthiness	034	1.0	1		398.67572608569753	3.7087808859650977
80.0	324.7011668566265	fix	2.0		60	trustworthiness	034	1.0	1	-0.8500000000000001	402.38450697166263	0.5167497174697928
81.0	325.2179165740963	face	0.0		147	trustworthiness	061	1.0	1		402.9012566891324	1.2334700340870768
81.0	326.4513866081834	rating	1.0		128	trustworthiness	061	1.0	1		404.1347267232195	1.075117603308172
81.0	327.52650421149156	fix	2.0		60	trustworthiness	061	1.0	1	1.6600000000000001	405.2098443265277	0.5167554527433822
82.0	328.04325966423494	face	0.0		147	trustworthiness	027	1.0	1		405.72659977927106	1.2334603746858193
82.0	329.27672003892076	rating	1.0		187	trustworthiness	027	1.0	1		406.9600601539569	1.5668524694337975
82.0	330.84357250835455	fix	2.0		60	trustworthiness	027	1.0	1	2.09	408.5269126233907	0.5167575657251291
83.0	331.3603300740797	face	0.0		147	trustworthiness	101	1.0	1		409.0436701891158	1.2334561486932216
83.0	332.5937862227729	rating	1.0		232	trustworthiness	101	1.0	1		410.277126337809	1.9835756838874659
83.0	334.57736190666037	fix	2.0		60	trustworthiness	101	1.0	1	-1.4	412.2607020216965	0.5167521323164692
84.0	335.09411403897684	face	0.0		147	trustworthiness	102	1.0	1		412.77745415401296	1.2334573561238358
84.0	336.3275713951007	rating	1.0		238	trustworthiness	102	1.0	1		414.0109115101368	1.9919054150668671
84.0	338.31947681016754	fix	2.0		60	trustworthiness	102	1.0	1	2.67	416.00281692520366	0.5167527360317763
85.0	338.8362295461993	face	0.0		147	trustworthiness	124	1.0	1		416.51956966123544	1.233461280251504
85.0	340.0696908264508	rating	1.0		188	trustworthiness	124	1.0	1		417.75303094148694	1.5751849173102528
85.0	341.6448757437611	fix	2.0		60	trustworthiness	124	1.0	1	1.46	419.3282158587972	0.516754245312768
86.0	342.16162998907384	face	0.0		147	trustworthiness	024	1.0	1		419.84497010410996	1.233465204393724
86.0	343.39509519346757	rating	1.0		324	trustworthiness	024	1.0	1		421.0784353085037	2.708660445205169
86.0	346.10375563867274	fix	2.0		60	trustworthiness	024	1.0	1	3.0999999999999996	423.78709575370885	0.5167482081742492
87.0	346.620503846847	face	0.0		147	trustworthiness	043	1.0	1		424.3038439618831	1.2334588654193794
87.0	347.85396271226637	rating	1.0		141	trustworthiness	043	1.0	1		425.5373028273025	1.1834732337738387
87.0	349.0374359460402	fix	2.0		60	trustworthiness	043	1.0	1	-1.0899999999999999	426.7207760610763	0.5167596787214279
88.0	349.55419562476163	face	0.0		147	trustworthiness	044	1.0	1		427.23753573979775	1.2334540356969228
88.0	350.78764966045856	rating	1.0		201	trustworthiness	044	1.0	1		428.4709897754947	1.6835339069511974
88.0	352.47118356740975	fix	2.0		60	trustworthiness	044	1.0	1	-1.1	430.15452368244587	0.5167524341668468
89.0	352.9879360015766	face	0.0		147	trustworthiness	018	1.0	1		430.6712761166127	1.2334633932623547
89.0	354.22139939483895	rating	1.0		144	trustworthiness	018	1.0	1		431.90473950987507	1.2084738978592213
89.0	355.4298732926982	fix	2.0		60	trustworthiness	018	1.0	1	1.83	433.1132134077343	0.5167527360172244
90.0	355.9466260287154	face	0.0		147	trustworthiness	087	1.0	1		433.6299661437515	1.2334612802660558
90.0	357.18008730898146	rating	1.0		174	trustworthiness	087	1.0	1		434.8634274240176	1.4585110262123635
90.0	358.6385983351938	fix	2.0		60	trustworthiness	087	1.0	1	-1.77	436.32193845022994	0.5167488118895562
91.0	359.1553471470834	face	0.0		147	trustworthiness	099	1.0	1		436.8386872621195	1.2334600728354417
91.0	360.3888072199188	rating	1.0		113	trustworthiness	099	1.0	1		438.07214733495493	0.9501127736002672
91.0	361.3389199935191	fix	2.0		60	trustworthiness	099	1.0	1	0.54	439.0222601085552	0.5167959015088854
92.0	361.85571589502797	face	0.0		147	trustworthiness	136	1.0	1		439.5390560100641	1.2334202277706936
92.0	363.08913612279866	rating	1.0		162	trustworthiness	136	1.0	1		440.7724762378348	1.3584932770609157
92.0	364.4476293998596	fix	2.0		60	trustworthiness	136	1.0	1	-1.31	442.1309695148957	0.5167527360172244
93.0	364.9643821358768	face	0.0		147	trustworthiness	011	1.0	1		442.6477222509129	1.2334606765507488
93.0	366.19784281242755	rating	1.0		122	trustworthiness	011	1.0	1		443.88118292746367	1.0251223122759257
93.0	367.2229651247035	fix	2.0		60	trustworthiness	011	1.0	1	-1.7599999999999998	444.9063052397396	0.5167515286011621
94.0	367.73971665330464	face	0.0		147	trustworthiness	126	1.0	1		445.42305676834076	1.2334688266710145
94.0	368.97318547997565	rating	1.0		118	trustworthiness	126	1.0	1		446.6565255950118	0.9917822575953323
94.0	369.964967737571	fix	2.0		60	trustworthiness	126	1.0	1	1.38	447.6483078526071	0.5167454914626433
95.0	370.48171322903363	face	0.0		147	trustworthiness	066	1.0	1		448.16505334406975	1.2334633932623547
95.0	371.715176622296	rating	1.0		137	trustworthiness	066	1.0	1		449.3985167373321	1.1501355939544737
95.0	372.86531221625046	fix	2.0		60	trustworthiness	066	1.0	1	2.04	450.5486523312866	0.5167545471631456
96.0	373.3820667634136	face	0.0		147	trustworthiness	064	1.0	1		451.0654068784497	1.2334594691201346
96.0	374.61552623253374	rating	1.0		362	trustworthiness	064	1.0	1		452.29886634756986	3.025364703076775
96.0	377.6408909356105	fix	2.0		60	trustworthiness	064	1.0	1	-0.9900000000000002	455.32423105064663	0.5167593768710503
97.0	378.15765031248156	face	0.0		147	trustworthiness	100	1.0	1		455.8409904275177	1.2334516208356945
97.0	379.39110193331726	rating	1.0		307	trustworthiness	100	1.0	1		457.0744420483534	2.5669723064784193
97.0	381.9580742397957	fix	2.0		60	trustworthiness	100	1.0	1	-1.7599999999999998	459.6414143548318	0.5167645084293326
98.0	382.474838748225	face	0.0		147	trustworthiness	172	1.0	1		460.1581788632611	1.2334507152845617
98.0	383.7082894635096	rating	1.0		158	trustworthiness	172	1.0	1		461.3916295785457	1.3251577502232976
98.0	385.03344721373287	fix	2.0		60	trustworthiness	172	1.0	1	-2.4699999999999998	462.716787328769	0.5167524341813987
99.0	385.55019964791427	face	0.0		147	trustworthiness	092	1.0	1		463.2335397629504	1.2334603746858193
99.0	386.7836600226001	rating	1.0		241	trustworthiness	092	1.0	1		464.4670001376362	2.016907890283619
99.0	388.8005679128837	fix	2.0		60	trustworthiness	092	1.0	1	2.12	466.4839080279198	0.5167554527433822
100.0	389.3173233656271	face	0.0		147	trustworthiness	141	1.0	1		467.0006634806632	1.2334564505435992
100.0	390.5507798161707	rating	1.0		177	trustworthiness	141	1.0	1		468.2341199312068	1.4835119921626756
100.0	392.03429180833336	fix	2.0		60	trustworthiness	141	1.0	1	2.88	469.7176319233695	0.5167551508784527
101.0	392.5510469592118	face	0.0		147	trustworthiness	042	1.0	1		470.23438707424793	1.2334639969631098
101.0	393.7845109561749	rating	1.0		152	trustworthiness	042	1.0	1		471.46785107121104	1.275147970081889
101.0	395.0596589262568	fix	2.0		60	trustworthiness	042	1.0	1	1.5099999999999998	472.74299904129293	0.5167524341668468
102.0	395.57641136042366	face	0.0		147	trustworthiness	012	1.0	1		473.2597514754598	1.2334582616895204
102.0	396.8098696221132	rating	1.0		226	trustworthiness	012	1.0	1		474.4932097371493	1.891891891893465
102.0	398.70176151400665	fix	2.0		61	trustworthiness	012	1.0	1	2.24	476.38510162904277	0.5251005785976304
103.0	399.2268620926043	face	0.0		146	trustworthiness	006	1.0	1		476.9102022076404	1.2251137395505793
103.0	400.45197583215486	rating	1.0		167	trustworthiness	006	1.0	1		478.135315947191	1.4001663833187195
103.0	401.8521422154736	fix	2.0		60	trustworthiness	006	1.0	1	-1.73	479.5354823305097	0.5167521323164692
104.0	402.36889434779005	face	0.0		147	trustworthiness	130	1.0	1		480.05223446282616	1.2334679211053299
104.0	403.6023622688954	rating	1.0		493	trustworthiness	130	1.0	1		481.2857023839315	4.117163200542564
104.0	407.71952546943794	fix	2.0		61	trustworthiness	130	1.0	1	1.7599999999999998	485.40286558447406	0.5250800523499493
105.0	408.2446055217879	face	0.0		146	trustworthiness	038	1.0	1		485.927945636824	1.2251255119626876
105.0	409.4697310337506	rating	1.0		204	trustworthiness	038	1.0	1		487.1530711487867	1.7085384951496962
105.0	411.1782695289003	fix	2.0		60	trustworthiness	038	1.0	1	1.8200000000000003	488.8616096439364	0.5167506230354775
106.0	411.69502015193575	face	0.0		147	trustworthiness	137	1.0	1		489.37836026697187	1.2334594691201346
106.0	412.9284796210559	rating	1.0		241	trustworthiness	137	1.0	1		490.611819736092	2.0169115125609096
106.0	414.9453911336168	fix	2.0		60	trustworthiness	137	1.0	1	-1.4900000000000002	492.6287312486529	0.516750924900407
107.0	415.4621420585172	face	0.0		147	trustworthiness	009	1.0	1		493.1454821735533	1.2334600728208898
107.0	416.6956021313381	rating	1.0		275	trustworthiness	009	1.0	1		494.3789422463742	2.3002772250474663
107.0	418.99587935638556	fix	2.0		60	trustworthiness	009	1.0	1	-1.94	496.6792194714217	0.5167512267507846
108.0	419.51263058313634	face	0.0		147	trustworthiness	036	1.0	1		497.19597069817246	1.2334597709705122
108.0	420.74609035410685	rating	1.0		117	trustworthiness	036	1.0	1		498.42943046914297	0.983451922700624
108.0	421.7295422768075	fix	2.0		60	trustworthiness	036	1.0	1	2.5599999999999996	499.4128823918436	0.5167584713053657
109.0	422.24630074811284	face	0.0		147	trustworthiness	091	1.0	1		499.92964086314896	1.2334534319961676
109.0	423.479754180109	rating	1.0		172	trustworthiness	091	1.0	1		501.16309429514513	1.4418373765947763
109.0	424.9215915567038	fix	2.0		60	trustworthiness	091	1.0	1	1.96	502.6049316717399	0.516754245312768
110.0	425.43834580201656	face	0.0		147	trustworthiness	082	1.0	1		503.1216859170527	1.2334682229557075
110.0	426.67181402497226	rating	1.0		162	trustworthiness	082	1.0	1		504.3551541400084	1.3584875417727744
110.0	428.03030156674504	fix	2.0		60	trustworthiness	082	1.0	1	1.13	505.71364168178116	0.5167506230354775
111.0	428.5470521897805	face	0.0		147	trustworthiness	144	1.0	1		506.23039230481663	1.2334633932623547
111.0	429.78051558304287	rating	1.0		482	trustworthiness	144	1.0	1		507.463855698079	4.025482728975476
111.0	433.80599831201835	fix	2.0		60	trustworthiness	144	1.0	1	-1.3199999999999998	511.48933842705446	0.5167527360172244
112.0	434.32275104803557	face	0.0		147	trustworthiness	121	1.0	1		512.0060911630717	1.2334612802660558
112.0	435.5562123283016	rating	1.0		116	trustworthiness	121	1.0	1		513.2395524433377	0.9751152488170192
112.0	436.53132757711865	fix	2.0		60	trustworthiness	121	1.0	1	-0.2799999999999998	514.2146676921548	0.516753641597461
113.0	437.0480812187161	face	0.0		147	trustworthiness	062	1.0	1		514.7314213337522	1.2334594691201346
113.0	438.28154068783624	rating	1.0		124	trustworthiness	062	1.0	1		515.9648808028724	1.0417908303206787
113.0	439.3233315181569	fix	2.0		60	trustworthiness	062	1.0	1	-2.41	517.006671633193	0.5167584713053657
114.0	439.8400899894623	face	0.0		147	trustworthiness	033	1.0	1		517.5234301044984	1.2334630913974252
114.0	441.0735530808597	rating	1.0		135	trustworthiness	033	1.0	1		518.7568931958958	1.1334586239245255
114.0	442.20701170478424	fix	2.0		61	trustworthiness	033	1.0	1	-2.26	519.8903518198204	0.5250857876235386
115.0	442.7320974924078	face	0.0		146	trustworthiness	030	1.0	1		520.4154376074439	1.2251264175283723
115.0	443.95722390993615	rating	1.0		394	trustworthiness	030	1.0	1		521.6405640249723	3.292061897489475
115.0	447.2492858074256	fix	2.0		60	trustworthiness	030	1.0	1	2.6399999999999997	524.9326259224617	0.5167512267362326
116.0	447.76603703416185	face	0.0		147	trustworthiness	070	1.0	1		525.449377149198	1.2334636951127322
116.0	448.9995007292746	rating	1.0		111	trustworthiness	070	1.0	1		526.6828408443107	0.9334433499898296
116.0	449.9329440792644	fix	2.0		60	trustworthiness	070	1.0	1	-3.0300000000000002	527.6162841943005	0.5167527360172244
117.0	450.44969681528164	face	0.0		147	trustworthiness	039	1.0	1		528.1330369303178	1.233465204393724
117.0	451.68316201967536	rating	1.0		517	trustworthiness	039	1.0	1		529.3665021347115	4.317182096769102
117.0	456.00034411644447	fix	2.0		60	trustworthiness	039	1.0	1	3.0	533.6836842314806	0.5167509248858551
118.0	456.5170950413303	face	0.0		147	trustworthiness	117	1.0	1		534.2004351563664	1.233465808109031
118.0	457.75056084943935	rating	1.0		107	trustworthiness	117	1.0	1		535.4339009644755	0.9001431403739844
118.0	458.65070398981334	fix	2.0		60	trustworthiness	117	1.0	1	0.9299999999999997	536.3340441048495	0.5167113816860365
119.0	459.1674153714994	face	0.0		147	trustworthiness	005	1.0	1		536.8507554865355	1.2334600728208898
119.0	460.40087544432026	rating	1.0		142	trustworthiness	005	1.0	1		538.0842155593564	1.1918099076574435
119.0	461.5926853519777	fix	2.0		60	trustworthiness	005	1.0	1	-2.08	539.2760254670138	0.5000603713124292
120.0	462.09274572329014	cue	0.0		3600						539.7760858383263	30.00361744876136
120.0	492.0963631720515	fix	1.0		120						569.7797032870876	1.0001285908801947
120.0	493.0964917629317	cue	0.0		480						570.7798318779678	4.000474216620205
120.0	497.0969659795519	fix	1.0		120						574.780306094588	1.0168125036288984
120.0	498.1137784831808	face	0.0		147	dominance	099	2.0	1		575.7971185982169	1.2334661099594086
120.0	499.3472445931402	rating	1.0		211	dominance	099	2.0	1		577.0305847081763	1.7668710637954064
120.0	501.1141156569356	fix	2.0		60	dominance	099	2.0	1	1.5300000000000002	578.7974557719717	0.5167512267362326
121.0	501.63086688367184	face	0.0		147	dominance	024	2.0	1		579.314206998708	1.2334639969631098
121.0	502.86433088063495	rating	1.0		619	dominance	024	2.0	1		580.5476709956711	5.167332059107139
121.0	508.0316629397421	fix	2.0		60	dominance	024	2.0	1	-1.83	585.7150030547782	0.5167086649744306
122.0	508.5483716047165	face	0.0		147	dominance	102	2.0	1		586.2317117197526	1.2334606765361968
122.0	509.7818322812527	rating	1.0		215	dominance	102	2.0	1		587.4651723962888	1.8002198723115725
122.0	511.5820521535643	fix	2.0		60	dominance	102	2.0	1	-1.48	589.2653922686004	0.5167476044589421
123.0	512.0987997580232	face	0.0		147	dominance	087	2.0	1		589.7821398730594	1.2334588654048275
123.0	513.3322586234281	rating	1.0		334	dominance	087	2.0	1		591.0155987384642	2.792002733622212
123.0	516.1242613570503	fix	2.0		60	dominance	087	2.0	1	1.8099999999999996	593.8076014720864	0.5167808086844161
124.0	516.6410421657347	face	0.0		147	dominance	121	2.0	1		594.3243822807708	1.2334304908872582
124.0	517.874472656622	rating	1.0		88	dominance	121	2.0	1		595.5578127716581	0.741753883077763
124.0	518.6162265396997	fix	2.0		60	dominance	121	2.0	1	-0.98	596.2995666547358	0.5167530378821539
125.0	519.1329795775819	face	0.0		147	dominance	091	2.0	1		596.816319692618	1.2334682229702594
125.0	520.3664478005521	rating	1.0		104	dominance	091	2.0	1		598.0497879155882	0.8750971978006419
125.0	521.2415449983528	fix	2.0		60	dominance	091	2.0	1	1.1500000000000004	598.9248851133889	0.5167521323164692
126.0	521.7582971306692	face	0.0		147	dominance	137	2.0	1		599.4416372457054	1.2334603746858193
126.0	522.991757505355	rating	1.0		147	dominance	137	2.0	1		600.6750976203912	1.233478486086824
126.0	524.2252359914419	fix	2.0		60	dominance	137	2.0	1	-1.44	601.908576106478	0.5167605842871126
127.0	524.741996575729	face	0.0		147	dominance	130	2.0	1		602.4253366907651	1.2334549412771594
127.0	525.9754515170061	rating	1.0		158	dominance	130	2.0	1		603.6587916320423	1.3251646929275012
127.0	527.3006162099337	fix	2.0		60	dominance	130	2.0	1	-2.7	604.9839563249698	0.5167454914626433
128.0	527.8173617013963	face	0.0		147	dominance	061	2.0	1		605.5007018164324	1.2334576579887653
128.0	529.0508193593851	rating	1.0		97	dominance	061	2.0	1		606.7341594744212	0.816763723603799
128.0	529.8675830829889	fix	2.0		60	dominance	061	2.0	1	1.2199999999999998	607.550923198025	0.5168055609246949
129.0	530.3843886439136	face	0.0		147	dominance	117	2.0	1		608.0677287589497	1.2334078516432783
129.0	531.6177964955568	rating	1.0		121	dominance	117	2.0	1		609.301136610593	1.0167886569543043
129.0	532.6345851525111	fix	2.0		60	dominance	117	2.0	1	2.1399999999999997	610.3179252675473	0.5167524341813987
130.0	533.1513375866925	face	0.0		147	dominance	033	2.0	1		610.8346777017287	1.2334603746858193
130.0	534.3847979613784	rating	1.0		125	dominance	033	2.0	1		612.0681380764145	1.0501241837773705
130.0	535.4349221451557	fix	2.0		60	dominance	033	2.0	1	-1.7200000000000002	613.1182622601918	0.5167515286011621
131.0	535.9516736737569	face	0.0		147	dominance	018	2.0	1		613.635013788793	1.2334615821164334
131.0	537.1851352558733	rating	1.0		251	dominance	018	2.0	1		614.8684753709094	2.1002519898320315
131.0	539.2853872457054	fix	2.0		60	dominance	018	2.0	1	-3.21	616.9687273607415	0.5167509248858551
132.0	539.8021381705912	face	0.0		147	dominance	092	2.0	1		617.4854782856273	1.2334642988280393
132.0	541.0356024694192	rating	1.0		278	dominance	092	2.0	1		618.7189425844554	2.325275172421243
132.0	543.3608776418405	fix	2.0		60	dominance	092	2.0	1	-1.96	621.0442177568766	0.5167596787359798
133.0	543.8776373205765	face	0.0		147	dominance	012	2.0	1		621.5609774356126	1.2334540356969228
133.0	545.1110913562734	rating	1.0		93	dominance	012	2.0	1		622.7944314713095	0.7834248763538199
133.0	545.8945162326272	fix	2.0		60	dominance	012	2.0	1	1.62	623.5778563476633	0.5167518304660916
134.0	546.4112680630933	face	0.0		147	dominance	144	2.0	1		624.0946081781294	1.233462487682118
134.0	547.6447305507754	rating	1.0		124	dominance	144	2.0	1		625.3280706658115	1.0417920377512928
134.0	548.6865225885267	fix	2.0		60	dominance	144	2.0	1	-1.5	626.3698627035628	0.5167482081742492
135.0	549.203270796701	face	0.0		147	dominance	064	2.0	1		626.8866109117371	1.233462487682118
135.0	550.4367332843831	rating	1.0		123	dominance	064	2.0	1		628.1200733994192	1.0334568731486797
135.0	551.4701901575318	fix	2.0		60	dominance	064	2.0	1	2.41	629.1535302725679	0.5167512267507846
136.0	551.9869413842825	face	0.0		147	dominance	006	2.0	1		629.6702814993187	1.2334615821164334
136.0	553.220402966399	rating	1.0		486	dominance	006	2.0	1		630.9037430814351	4.058827613349422
136.0	557.2792305797484	fix	2.0		60	dominance	006	2.0	1	2.8899999999999997	634.9625706947845	0.5167853365419433
137.0	557.7960159162903	face	0.0		147	dominance	062	2.0	1		635.4793560313265	1.233425963044283
137.0	559.0294418793346	rating	1.0		142	dominance	062	2.0	1		636.7127819943707	1.19180296495324
137.0	560.2212448442879	fix	2.0		60	dominance	062	2.0	1	3.13	637.904584959324	0.5167509248858551
138.0	560.7379957691737	face	0.0		147	dominance	044	2.0	1		638.4213358842098	1.2334600728354417
138.0	561.9714558420092	rating	1.0		91	dominance	044	2.0	1		639.6547959570453	0.7667578675900586
138.0	562.7382137095992	fix	2.0		60	dominance	044	2.0	1	-1.0299999999999998	640.4215538246353	0.5167515286011621
139.0	563.2549652382004	face	0.0		147	dominance	009	2.0	1		640.9383053532365	1.2334688266710145
139.0	564.4884340648714	rating	1.0		89	dominance	009	2.0	1		642.1717741799075	0.7500805956951808
139.0	565.2385146605666	fix	2.0		60	dominance	009	2.0	1	1.79	642.9218547756027	0.5167554527288303
140.0	565.7552701132954	face	0.0		147	dominance	011	2.0	1		643.4386102283315	1.2334582616895204
140.0	566.9887283749849	rating	1.0		144	dominance	011	2.0	1		644.672068490021	1.208478727567126
140.0	568.197207102552	fix	2.0		60	dominance	011	2.0	1	2.41	645.8805472175882	0.5167506230354775
141.0	568.7139577255875	face	0.0		147	dominance	034	2.0	1		646.3972978406237	1.2334673173900228
141.0	569.9474250429776	rating	1.0		132	dominance	034	2.0	1		647.6307651580137	1.1084603746858193
141.0	571.0558854176634	fix	2.0		60	dominance	034	2.0	1	2.0199999999999996	648.7392255326995	0.5167515286011621
142.0	571.5726369462645	face	0.0		147	dominance	027	2.0	1		649.2559770613007	1.2334600728354417
142.0	572.8060970191	rating	1.0		149	dominance	027	2.0	1		650.4894371341361	1.2501506264088675
142.0	574.0562476455088	fix	2.0		60	dominance	027	2.0	1	2.5	651.739587760545	0.516754245312768
143.0	574.5730018908216	face	0.0		147	dominance	126	2.0	1		652.2563420058577	1.2334754675102886
143.0	575.8064773583319	rating	1.0		268	dominance	126	2.0	1		653.489817473368	2.241915376333054
143.0	578.048392734665	fix	2.0		60	dominance	126	2.0	1	1.83	655.7317328497011	0.5167853365419433
144.0	578.5651780712069	face	0.0		147	dominance	030	2.0	1		656.248518186243	1.2334262648946606
144.0	579.7986043361016	rating	1.0		240	dominance	030	2.0	1		657.4819444511377	2.0085757442575414
144.0	581.8071800803591	fix	2.0		60	dominance	030	2.0	1	2.3099999999999996	659.4905201953952	0.5167527360317763
145.0	582.3239328163909	face	0.0		147	dominance	039	2.0	1		660.007272931427	1.233461280251504
145.0	583.5573940966424	rating	1.0		212	dominance	039	2.0	1		661.2407342116785	1.7752116618066793
145.0	585.3326057584491	fix	2.0		60	dominance	039	2.0	1	-1.7599999999999998	663.0159458734852	0.5167515286011621
146.0	585.8493572870502	face	0.0		147	dominance	005	2.0	1		663.5326974020863	1.233468524820637
146.0	587.0828258118709	rating	1.0		118	dominance	005	2.0	1		664.766165926907	0.9917725981795229
146.0	588.0745984100504	fix	2.0		60	dominance	005	2.0	1	-2.62	665.7579385250865	0.5167572638747515
147.0	588.5913556739251	face	0.0		147	dominance	070	2.0	1		666.2746957889613	1.23345856355445
147.0	589.8248142374796	rating	1.0		485	dominance	070	2.0	1		667.5081543525157	4.050486713487771
147.0	593.8753009509674	fix	2.0		61	dominance	070	2.0	1	3.5300000000000002	671.5586410660035	0.5250866931892233
148.0	594.4003876441566	face	0.0		146	dominance	172	2.0	1		672.0837277591927	1.225124606382451
148.0	595.625512250539	rating	1.0		141	dominance	172	2.0	1		673.3088523655751	1.1834777616313659
148.0	596.8089900121704	fix	2.0		60	dominance	172	2.0	1	3.83	674.4923301272065	0.5167521323019173
149.0	597.3257421444723	face	0.0		147	dominance	036	2.0	1		675.0090822595084	1.233459167269757
149.0	598.5592013117421	rating	1.0		99	dominance	036	2.0	1		676.2425414267782	0.8334379769366933
149.0	599.3926392886788	fix	2.0		60	dominance	036	2.0	1	-1.6	677.0759794037149	0.5167527360172244
150.0	599.909392024696	face	0.0		147	dominance	141	2.0	1		677.5927321397321	1.2334546394267818
150.0	601.1428466641228	rating	1.0		102	dominance	141	2.0	1		678.8261867791589	0.8584335094492417
150.0	602.001280173572	fix	2.0		60	dominance	141	2.0	1	-2.8200000000000003	679.6846202886081	0.5167524341668468
151.0	602.5180326077389	face	0.0		147	dominance	100	2.0	1		680.201372722775	1.2334606765507488
151.0	603.7514932842896	rating	1.0		122	dominance	100	2.0	1		681.4348333993257	1.025123519691988
151.0	604.7766168039816	fix	2.0		60	dominance	100	2.0	1	1.2199999999999998	682.4599569190177	0.5167482081888011
152.0	605.2933650121704	face	0.0		147	dominance	042	2.0	1		682.9767051272065	1.2334621858171886
152.0	606.5268271979876	rating	1.0		193	dominance	042	2.0	1		684.2101673130237	1.6168601365934592
152.0	608.143687334581	fix	2.0		60	dominance	042	2.0	1	2.1399999999999997	685.8270274496172	0.5167530378821539
153.0	608.6604403724632	face	0.0		147	dominance	101	2.0	1		686.3437804874993	1.233459167255205
153.0	609.8938995397184	rating	1.0		255	dominance	101	2.0	1		687.5772396547545	2.133590535231633
153.0	612.02749007495	fix	2.0		60	dominance	101	2.0	1	2.76	689.7108301899862	0.5167494156048633
154.0	612.5442394905549	face	0.0		147	dominance	136	2.0	1		690.227579605591	1.2334688266710145
154.0	613.7777083172259	rating	1.0		152	dominance	136	2.0	1		691.461048432262	1.2751491774979513
154.0	615.0528574947239	fix	2.0		60	dominance	136	2.0	1	3.67	692.73619760976	0.5167551508784527
155.0	615.5696126456023	face	0.0		147	dominance	038	2.0	1		693.2529527606384	1.2334531301312381
155.0	616.8030657757336	rating	1.0		90	dominance	038	2.0	1		694.4864058907697	0.7584220992866904
155.0	617.5614878750202	fix	2.0		60	dominance	038	2.0	1	-1.4700000000000002	695.2448279900564	0.5167530378821539
156.0	618.0782409129024	face	0.0		147	dominance	066	2.0	1		695.7615810279385	1.2334848250757204
156.0	619.3117257379781	rating	1.0		108	dominance	066	2.0	1		696.9950658530142	0.9084182355145458
156.0	620.2201439734927	fix	2.0		60	dominance	066	2.0	1	2.5700000000000003	697.9034840885288	0.5167491137399338
157.0	620.7368930872326	face	0.0		147	dominance	082	2.0	1		698.4202332022687	1.233461883981363
157.0	621.970354971214	rating	1.0		113	dominance	082	2.0	1		699.6536950862501	0.9501191125891637
157.0	622.9204740838031	fix	2.0		60	dominance	082	2.0	1	-0.8799999999999999	700.6038141988392	0.5167494156048633
158.0	623.437223499408	face	0.0		147	dominance	043	2.0	1		701.1205636144441	1.2334639969631098
158.0	624.6706874963711	rating	1.0		101	dominance	043	2.0	1		702.3540276114072	0.8500929114379687
158.0	625.5207804078091	fix	2.0		60	dominance	043	2.0	1	-1.7200000000000002	703.2041205228452	0.516753641597461
159.0	626.0375340494065	face	0.0		147	dominance	124	2.0	1		703.7208741644426	1.2334600728354417
159.0	627.270994122242	rating	1.0		85	dominance	124	2.0	1		704.9543342372781	0.7167514078610111
159.0	627.987745530103	fix	2.0		60	dominance	124	2.0	1	1.7999999999999998	705.6710856451391	0.5000603713124292
160.0	628.4878059014154	cue	0.0		480						706.1711460164515	4.0004826686054
160.0	632.4882885700208	fix	1.0		120						710.1716286850569	1.0168143147602677
160.0	633.5051028847811	face	0.0		147	attractiveness	101	2.0	1		711.1884429998172	1.2334642988134874
160.0	634.7385671835946	rating	1.0		310	attractiveness	101	2.0	1		712.4219072986307	2.5919705557171255
160.0	637.3305377393117	fix	2.0		60	attractiveness	101	2.0	1	3.62	715.0138778543478	0.5167506230209256
161.0	637.8472883623326	face	0.0		147	attractiveness	009	2.0	1		715.5306284773687	1.2334621858317405
161.0	639.0807505481644	rating	1.0		312	attractiveness	009	2.0	1		716.7640906632005	2.6086955209320877
161.0	641.6894460690964	fix	2.0		60	attractiveness	009	2.0	1	1.3099999999999996	719.3727861841326	0.5167026278359117
162.0	642.2061486969324	face	0.0		147	attractiveness	036	2.0	1		719.8894888119685	1.2334609784156783
162.0	643.439609675348	rating	1.0		147	attractiveness	036	2.0	1		721.1229497903842	1.2334799953532638
162.0	644.6730896707013	fix	2.0		60	attractiveness	036	2.0	1	3.13	722.3564297857374	0.5167838272609515
163.0	645.1898734979623	face	0.0		147	attractiveness	034	2.0	1		722.8732136129984	1.2334262648946606
163.0	646.4232997628569	rating	1.0		118	attractiveness	034	2.0	1		724.106639877893	0.9917885965842288
163.0	647.4150883594411	fix	2.0		60	attractiveness	034	2.0	1	1.42	725.0984284744773	0.5167479063238716
164.0	647.931836265765	face	0.0		147	attractiveness	070	2.0	1		725.6151763808011	1.2334706378023839
164.0	649.1653069035674	rating	1.0		173	attractiveness	070	2.0	1		726.8486470186035	1.4501652966428082
164.0	650.6154722002102	fix	2.0		60	attractiveness	070	2.0	1	-3.21	728.2988123152463	0.5167482081888011
165.0	651.132220408399	face	0.0		147	attractiveness	066	2.0	1		728.8155605234351	1.2334639969631098
165.0	652.3656844053621	rating	1.0		133	attractiveness	066	2.0	1		730.0490245203982	1.116799161565723
165.0	653.4824835669278	fix	2.0		60	attractiveness	066	2.0	1	-1.12	731.165823681964	0.5167533397325315
166.0	653.9992369066604	face	0.0		147	attractiveness	130	2.0	1		731.6825770216965	1.2334600728354417
166.0	655.2326969794958	rating	1.0		233	attractiveness	130	2.0	1		732.9160370945319	1.9502323087945115
166.0	657.1829292882903	fix	2.0		60	attractiveness	130	2.0	1	-1.5299999999999998	734.8662694033264	0.5167530378821539
167.0	657.6996823261725	face	0.0		147	attractiveness	099	2.0	1		735.3830224412086	1.2334962956228992
167.0	658.9331786217954	rating	1.0		122	attractiveness	099	2.0	1		736.6165187368315	1.0250872969045304
167.0	659.9582659186999	fix	2.0		60	attractiveness	099	2.0	1	-2.44	737.641606033736	0.5167509248858551
168.0	660.4750168435858	face	0.0		147	attractiveness	144	2.0	1		738.1583569586219	1.2334679211053299
168.0	661.7084847646911	rating	1.0		272	attractiveness	144	2.0	1		739.3918248797272	2.275270523823565
168.0	663.9837552885147	fix	2.0		60	attractiveness	144	2.0	1	0.0	741.6670954035508	0.5167463970428798
169.0	664.5005016855575	face	0.0		147	attractiveness	062	2.0	1		742.1838418005937	1.2334603746858193
169.0	665.7339620602434	rating	1.0		80	attractiveness	062	2.0	1		743.4173021752795	0.6750795090192696
169.0	666.4090415692626	fix	2.0		60	attractiveness	062	2.0	1	-1.79	744.0923816842987	0.5167560564441374
170.0	666.9257976257068	face	0.0		147	attractiveness	117	2.0	1		744.6091377407429	1.2334549412771594
170.0	668.1592525669839	rating	1.0		92	attractiveness	117	2.0	1		745.84259268202	0.7750933340430493
170.0	668.934345901027	fix	2.0		60	attractiveness	117	2.0	1	-0.6699999999999999	746.6176860160631	0.5167560564441374
171.0	669.4511019574711	face	0.0		147	attractiveness	024	2.0	1		747.1344420725072	1.2335053513088496
171.0	670.68460730878	rating	1.0		83	attractiveness	024	2.0	1		748.3679474238161	0.7000324797700159
171.0	671.38463978855	fix	2.0		60	attractiveness	024	2.0	1	1.54	749.0679799035861	0.5167545471631456
172.0	671.9013943357131	face	0.0		147	attractiveness	043	2.0	1		749.5847344507492	1.2334603746858193
172.0	673.1348547103989	rating	1.0		201	attractiveness	043	2.0	1		750.8181948254351	1.6835339069511974
172.0	674.8183886173501	fix	2.0		60	attractiveness	043	2.0	1	-1.7799999999999998	752.5017287323863	0.5167524341668468
173.0	675.335141051517	face	0.0		147	attractiveness	042	2.0	1		753.0184811665531	1.2334597709705122
173.0	676.5686008224875	rating	1.0		187	attractiveness	042	2.0	1		754.2519409375236	1.5668539787147893
173.0	678.1354548012023	fix	2.0		60	attractiveness	042	2.0	1	2.3	755.8187949162384	0.5167551508784527
174.0	678.6522099520807	face	0.0		147	attractiveness	006	2.0	1		756.3355500671169	1.2334570542734582
174.0	679.8856670063542	rating	1.0		116	attractiveness	006	2.0	1		757.5690071213903	0.9751149469666416
174.0	680.8607819533208	fix	2.0		60	attractiveness	006	2.0	1	-1.9700000000000002	758.544122068357	0.5167545471631456
175.0	681.377536500484	face	0.0		147	attractiveness	141	2.0	1		759.0608766155201	1.23345856355445
175.0	682.6109950640384	rating	1.0		102	attractiveness	141	2.0	1		760.2943351790746	0.8584356224455405
175.0	683.469430686484	fix	2.0		60	attractiveness	141	2.0	1	1.75	761.1527708015201	0.5167581694549881
176.0	683.986188855939	face	0.0		147	attractiveness	039	2.0	1		761.6695289709751	1.2334528282663086
176.0	685.2196416842053	rating	1.0		155	attractiveness	039	2.0	1		762.9029817992414	1.3001561805722304
176.0	686.5197978647775	fix	2.0		60	attractiveness	039	2.0	1	2.3600000000000003	764.2031379798136	0.5167518304660916
177.0	687.0365496952436	face	0.0		147	attractiveness	087	2.0	1		764.7198898102797	1.2334594691201346
177.0	688.2700091643637	rating	1.0		122	attractiveness	087	2.0	1		765.9533492793998	1.025123519691988
177.0	689.2951326840557	fix	2.0		60	attractiveness	087	2.0	1	0.6500000000000004	766.9784727990918	0.516750321170548
178.0	689.8118830052263	face	0.0		147	attractiveness	091	2.0	1		767.4952231202624	1.2335053513088496
178.0	691.0453883565351	rating	1.0		144	attractiveness	091	2.0	1		768.7287284715712	1.208438882502378
178.0	692.2538272390375	fix	2.0		61	attractiveness	091	2.0	1	1.5300000000000002	769.9371673540736	0.5250875987694599
179.0	692.778914837807	face	0.0		146	attractiveness	102	2.0	1		770.4622549528431	1.225124606382451
179.0	694.0040394441894	rating	1.0		189	attractiveness	102	2.0	1		771.6873795592255	1.58351736520126
179.0	695.5875568093907	fix	2.0		60	attractiveness	102	2.0	1	1.17	773.2708969244268	0.5167494156048633
180.0	696.1043062249955	face	0.0		147	attractiveness	064	2.0	1		773.7876463400316	1.233464600678417
180.0	697.3377708256739	rating	1.0		342	attractiveness	064	2.0	1		775.0211109407101	2.8586731835530372
180.0	700.196444009227	fix	2.0		60	attractiveness	064	2.0	1	-2.5300000000000002	777.8797841242631	0.5167539434478385
181.0	700.7131979526748	face	0.0		147	attractiveness	100	2.0	1		778.3965380677109	1.233459167269757
181.0	701.9466571199446	rating	1.0		236	attractiveness	100	2.0	1		779.6299972349807	1.9752426322811516
181.0	703.9218997522257	fix	2.0		60	attractiveness	100	2.0	1	0.9400000000000004	781.6052398672618	0.5167460951925023
182.0	704.4386458474182	face	0.0		147	attractiveness	126	2.0	1		782.1219859624543	1.2334615821164334
182.0	705.6721074295347	rating	1.0		127	attractiveness	126	2.0	1		783.3554475445708	1.0667911925411317
182.0	706.7388986220758	fix	2.0		60	attractiveness	126	2.0	1	1.5099999999999998	784.4222387371119	0.5167545471631456
183.0	707.2556531692389	face	0.0		147	attractiveness	061	2.0	1		784.938993284275	1.2334573561238358
183.0	708.4891105253628	rating	1.0		187	attractiveness	061	2.0	1		786.1724506403989	1.5668636381305987
183.0	710.0559741634934	fix	2.0		60	attractiveness	061	2.0	1	1.4699999999999998	787.7393142785295	0.5167415673349751
184.0	710.5727157308283	face	0.0		147	attractiveness	121	2.0	1		788.2560558458645	1.2334621858171886
184.0	711.8061779166455	rating	1.0		73	attractiveness	121	2.0	1		789.4895180316817	0.6167393939686008
184.0	712.4229173106141	fix	2.0		60	attractiveness	121	2.0	1	-0.94	790.1062574256503	0.5167521323164692
185.0	712.9396694429306	face	0.0		147	attractiveness	030	2.0	1		790.6230095579667	1.2334594691201346
185.0	714.1731289120507	rating	1.0		161	attractiveness	030	2.0	1		791.8564690270869	1.3501611310202861
185.0	715.523290043071	fix	2.0		60	attractiveness	030	2.0	1	2.9699999999999998	793.2066301581071	0.5167605843016645
186.0	716.0400506273727	face	0.0		147	attractiveness	018	2.0	1		793.7233907424088	1.23345856355445
186.0	717.2735091909271	rating	1.0		255	attractiveness	018	2.0	1		794.9568493059633	2.1335829888121225
186.0	719.4070921797393	fix	2.0		60	attractiveness	018	2.0	1	1.6500000000000004	797.0904322947754	0.5167545471631456
187.0	719.9238467269024	face	0.0		147	attractiveness	172	2.0	1		797.6071868419385	1.2334582616895204
187.0	721.1573049885919	rating	1.0		259	attractiveness	172	2.0	1		798.840645103628	2.1669257602043217
187.0	723.3242307487963	fix	2.0		60	attractiveness	172	2.0	1	-3.73	801.0075708638324	0.5167563582945149
188.0	723.8409871070908	face	0.0		147	attractiveness	082	2.0	1		801.5243272221269	1.2334570542734582
188.0	725.0744441613642	rating	1.0		320	attractiveness	082	2.0	1		802.7577842764003	2.6753191831085132
188.0	727.7497633444727	fix	2.0		60	attractiveness	082	2.0	1	2.4800000000000004	805.4331034595089	0.5167780919728102
189.0	728.2665414364456	face	0.0		147	attractiveness	011	2.0	1		805.9498815514817	1.2334431688650511
189.0	729.4999846053106	rating	1.0		100	attractiveness	011	2.0	1		807.1833247203467	0.8417574449849781
189.0	730.3417420502956	fix	2.0		60	attractiveness	011	2.0	1	-1.2799999999999998	808.0250821653317	0.5167530378821539
190.0	730.8584950881777	face	0.0		147	attractiveness	136	2.0	1		808.5418352032139	1.2334606765507488
190.0	732.0919557647285	rating	1.0		118	attractiveness	136	2.0	1		809.7752958797646	0.9917840687412536
190.0	733.0837398334697	fix	2.0		60	attractiveness	136	2.0	1	-2.51	810.7670799485059	0.5167521323164692
191.0	733.6004919657862	face	0.0		147	attractiveness	124	2.0	1		811.2838320808223	1.2334655062441016
191.0	734.8339574720303	rating	1.0		147	attractiveness	124	2.0	1		812.5172975870664	1.2334748637949815
191.0	736.0674323358253	fix	2.0		60	attractiveness	124	2.0	1	3.7199999999999998	813.7507724508614	0.516750924900407
192.0	736.5841832607257	face	0.0		147	attractiveness	033	2.0	1		814.2675233757618	1.233461280251504
192.0	737.8176445409772	rating	1.0		126	attractiveness	033	2.0	1		815.5009846560133	1.0584647817886434
192.0	738.8761093227658	fix	2.0		60	attractiveness	033	2.0	1	1.2000000000000002	816.559449437802	0.5167512267507846
193.0	739.3928605495166	face	0.0		147	attractiveness	137	2.0	1		817.0762006645527	1.2334537338465452
193.0	740.6263142833632	rating	1.0		111	attractiveness	137	2.0	1		818.3096543983993	0.9334475759678753
193.0	741.559761859331	fix	2.0		60	attractiveness	137	2.0	1	2.7199999999999998	819.2431019743672	0.5167448877618881
194.0	742.0765067470929	face	0.0		147	attractiveness	038	2.0	1		819.759846862129	1.2334736563789193
194.0	743.3099804034719	rating	1.0		119	attractiveness	038	2.0	1		820.993320518508	1.0001201388949994
194.0	744.3101005423669	fix	2.0		60	attractiveness	038	2.0	1	-3.56	821.993440657403	0.5167415673349751
195.0	744.8268421097018	face	0.0		147	attractiveness	044	2.0	1		822.510182224738	1.233461883981363
195.0	746.0603039936832	rating	1.0		201	attractiveness	044	2.0	1		823.7436441087193	1.6835354162176372
195.0	747.7438394099008	fix	2.0		60	attractiveness	044	2.0	1	1.8899999999999997	825.427179524937	0.5167521323164692
196.0	748.2605915422173	face	0.0		147	attractiveness	005	2.0	1		825.9439316572534	1.2334594691201346
196.0	749.4940510113374	rating	1.0		115	attractiveness	005	2.0	1		827.1773911263735	0.9667809897946427
196.0	750.4608320011321	fix	2.0		60	attractiveness	005	2.0	1	-2.67	828.1441721161682	0.5167620935826562
197.0	750.9775940947147	face	0.0		147	attractiveness	027	2.0	1		828.6609342097508	1.2334495078539476
197.0	752.2110436025687	rating	1.0		110	attractiveness	027	2.0	1		829.8943837176048	0.9251106002338929
197.0	753.1361542028026	fix	2.0		60	attractiveness	027	2.0	1	2.71	830.8194943178387	0.5167563583090669
198.0	753.6529105611116	face	0.0		147	attractiveness	092	2.0	1		831.3362506761478	1.233458563539898
198.0	754.8863691246515	rating	1.0		292	attractiveness	092	2.0	1		832.5697092396877	2.4419541950919665
198.0	757.3283233197435	fix	2.0		60	attractiveness	092	2.0	1	2.17	835.0116634347796	0.5167533397325315
199.0	757.845076659476	face	0.0		147	attractiveness	012	2.0	1		835.5284167745122	1.2334603746858193
199.0	759.0785370341619	rating	1.0		152	attractiveness	012	2.0	1		836.761877149198	1.2751537053554785
199.0	760.3536907395173	fix	2.0		60	attractiveness	012	2.0	1	3.74	838.0370308545534	0.5000603713124292
200.0	760.8537511108298	cue	0.0		480						838.5370912258659	4.000482970455778
200.0	764.8542340812855	fix	1.0		120						842.5375741963217	1.0168272945884382
200.0	765.871061375874	face	0.0		147	trustworthiness	012	2.0	1		843.5544014909101	1.2334416595840594
200.0	767.104503035458	rating	1.0		141	trustworthiness	012	2.0	1		844.7878431504942	1.183475648635067
200.0	768.2879786840931	fix	2.0		60	trustworthiness	012	2.0	1	2.29	845.9713187991292	0.5167545471631456
201.0	768.8047332312563	face	0.0		147	trustworthiness	033	2.0	1		846.4880733462924	1.2334649025433464
201.0	770.0381981337996	rating	1.0		110	trustworthiness	033	2.0	1		847.7215382488357	0.9251015445333906
201.0	770.963299678333	fix	2.0		60	trustworthiness	033	2.0	1	-1.58	848.6466397933691	0.5167512267507846
202.0	771.4800509050838	face	0.0		147	trustworthiness	117	2.0	1		849.1633910201199	1.2334615821164334
202.0	772.7135124872002	rating	1.0		132	trustworthiness	117	2.0	1		850.3968526022363	1.1084655062441016
202.0	773.8219779934443	fix	2.0		60	trustworthiness	117	2.0	1	-2.2800000000000002	851.5053181084804	0.5167518304515397
203.0	774.3387298238958	face	0.0		147	trustworthiness	100	2.0	1		852.022069938932	1.2334609784011263
203.0	775.572190802297	rating	1.0		91	trustworthiness	100	2.0	1		853.2555309173331	0.7667572638893034
203.0	776.3389480661863	fix	2.0		60	trustworthiness	100	2.0	1	-0.9100000000000001	854.0222881812224	0.5167729604145279
204.0	776.8557210266008	face	0.0		147	trustworthiness	061	2.0	1		854.5390611416369	1.2334383391571464
204.0	778.089159365758	rating	1.0		74	trustworthiness	061	2.0	1		855.7724994807941	0.6250730492756702
204.0	778.7142324150336	fix	2.0		60	trustworthiness	061	2.0	1	0.9699999999999998	856.3975725300697	0.516793486662209
205.0	779.2310259016958	face	0.0		147	trustworthiness	062	2.0	1		856.914366016732	1.2334235481976066
205.0	780.4644494498934	rating	1.0		127	trustworthiness	062	2.0	1		858.1477895649296	1.0667905888403766
205.0	781.5312400387338	fix	2.0		60	trustworthiness	062	2.0	1	1.13	859.2145801537699	0.5167476044589421
206.0	782.0479876431928	face	0.0		147	trustworthiness	036	2.0	1		859.7313277582289	1.2334633932623547
206.0	783.2814510364551	rating	1.0		153	trustworthiness	036	2.0	1		860.9647911514912	1.283494001501822
206.0	784.5649450379569	fix	2.0		60	trustworthiness	036	2.0	1	3.1900000000000004	862.248285152993	0.516766923276009
207.0	785.0817119612329	face	0.0		147	trustworthiness	043	2.0	1		862.7650520762691	1.2334389428870054
207.0	786.31515090412	rating	1.0		331	trustworthiness	043	2.0	1		863.9984910191561	2.7669975416793022
207.0	789.0821484457992	fix	2.0		60	trustworthiness	043	2.0	1	0.040000000000000036	866.7654885608354	0.5167563582945149
208.0	789.5989048040938	face	0.0		147	trustworthiness	121	2.0	1		867.2822449191299	1.233455243127537
208.0	790.8323600472213	rating	1.0		112	trustworthiness	121	2.0	1		868.5157001622574	0.9418265097774565
208.0	791.7741865569988	fix	2.0		60	trustworthiness	121	2.0	1	-1.21	869.4575266720349	0.5167044389818329
209.0	792.2908909959806	face	0.0		147	trustworthiness	030	2.0	1		869.9742311110167	1.233459167255205
209.0	793.5243501632358	rating	1.0		113	trustworthiness	030	2.0	1		871.2076902782719	0.9501151884614956
209.0	794.4744653516973	fix	2.0		60	trustworthiness	030	2.0	1	2.2	872.1578054667334	0.5167515286011621
210.0	794.9912168802985	face	0.0		147	trustworthiness	070	2.0	1		872.6745569953346	1.2334594691201346
210.0	796.2246763494186	rating	1.0		190	trustworthiness	070	2.0	1		873.9080164644547	1.5918564539315412
210.0	797.8165328033501	fix	2.0		60	trustworthiness	070	2.0	1	-3.67	875.4998729183862	0.5167500193201704
211.0	798.3332828226703	face	0.0		147	trustworthiness	011	2.0	1		876.0166229377064	1.2334600728208898
211.0	799.5667428954912	rating	1.0		211	trustworthiness	011	2.0	1		877.2500830105273	1.7668795157806017
211.0	801.3336224112718	fix	2.0		60	trustworthiness	011	2.0	1	-1.8199999999999998	879.0169625263079	0.5167521323164692
212.0	801.8503745435883	face	0.0		147	trustworthiness	144	2.0	1		879.5337146586244	1.23345856355445
212.0	803.0838331071427	rating	1.0		406	trustworthiness	144	2.0	1		880.7671732221788	3.392080250370782
212.0	806.4759133575135	fix	2.0		60	trustworthiness	144	2.0	1	-0.54	884.1592534725496	0.5167542452982161
213.0	806.9926676028117	face	0.0		147	trustworthiness	130	2.0	1		884.6760077178478	1.233488447353011
213.0	808.2261560501647	rating	1.0		352	trustworthiness	130	2.0	1		885.9094961652008	2.9419846825912828
213.0	811.168140732756	fix	2.0		60	trustworthiness	130	2.0	1	-1.46	888.8514808477921	0.5167515286011621
214.0	811.6848922613572	face	0.0		147	trustworthiness	091	2.0	1		889.3682323763933	1.2334588654048275
214.0	812.918351126762	rating	1.0		104	trustworthiness	091	2.0	1		890.6016912417981	0.8751035367895383
214.0	813.7934546635515	fix	2.0		60	trustworthiness	091	2.0	1	0.9299999999999997	891.4767947785876	0.5167533397470834
215.0	814.3102080032986	face	0.0		147	trustworthiness	039	2.0	1		891.9935481183347	1.2334600728354417
215.0	815.543668076134	rating	1.0		177	trustworthiness	039	2.0	1		893.2270081911702	1.483510482867132
215.0	817.0271785590012	fix	2.0		60	trustworthiness	039	2.0	1	2.6799999999999997	894.7105186740373	0.5167539434623905
216.0	817.5439325024636	face	0.0		147	trustworthiness	087	2.0	1		895.2272726174997	1.2334688266710145
216.0	818.7774013291346	rating	1.0		220	trustworthiness	087	2.0	1		896.4607414441707	1.8418754708836786
216.0	820.6192768000183	fix	2.0		60	trustworthiness	087	2.0	1	1.6500000000000004	898.3026169150544	0.516750924900407
217.0	821.1360277249187	face	0.0		147	trustworthiness	042	2.0	1		898.8193678399548	1.2334606765361968
217.0	822.3694884014549	rating	1.0		235	trustworthiness	042	2.0	1		900.052828516491	1.966901732419501
217.0	824.3363901338744	fix	2.0		60	trustworthiness	042	2.0	1	0.5999999999999996	902.0197302489105	0.5167533397325315
218.0	824.8531434736069	face	0.0		147	trustworthiness	009	2.0	1		902.536483588643	1.2334609784156783
218.0	826.0866044520226	rating	1.0		98	trustworthiness	009	2.0	1		903.7699445670587	0.8251025104691507
218.0	826.9117069624917	fix	2.0		60	trustworthiness	009	2.0	1	-0.8500000000000001	904.5950470775279	0.5167460951925023
219.0	827.4284530576842	face	0.0		147	trustworthiness	038	2.0	1		905.1117931727204	1.2334609784011263
219.0	828.6619140360854	rating	1.0		512	trustworthiness	038	2.0	1		906.3452541511215	4.275510801628116
219.0	832.9374248377135	fix	2.0		61	trustworthiness	038	2.0	1	0.6799999999999997	910.6207649527496	0.525085485773161
220.0	833.4625103234866	face	0.0		146	trustworthiness	099	2.0	1		911.1458504385228	1.2251285305101192
220.0	834.6876388539968	rating	1.0		94	trustworthiness	099	2.0	1		912.3709789690329	0.7917588335403707
220.0	835.4793976875371	fix	2.0		60	trustworthiness	099	2.0	1	-1.4900000000000002	913.1627378025732	0.5167530378821539
221.0	835.9961507254193	face	0.0		147	trustworthiness	124	2.0	1		913.6794908404554	1.2334597709705122
221.0	837.2296104963898	rating	1.0		329	trustworthiness	124	2.0	1		914.9129506114259	2.7503767169546336
221.0	839.9799872133444	fix	2.0		60	trustworthiness	124	2.0	1	1.4400000000000004	917.6633273283805	0.5167032315657707
222.0	840.4966904449102	face	0.0		147	trustworthiness	005	2.0	1		918.1800305599463	1.2334606765361968
222.0	841.7301511214464	rating	1.0		110	trustworthiness	005	2.0	1		919.4134912364825	0.9251102983835153
222.0	842.6552614198299	fix	2.0		60	trustworthiness	005	2.0	1	-2.0700000000000003	920.338601534866	0.5167509248858551
223.0	843.1720123447158	face	0.0		147	trustworthiness	092	2.0	1		920.8553524597519	1.2334615821164334
223.0	844.4054739268322	rating	1.0		106	trustworthiness	092	2.0	1		922.0888140418683	0.8917729604145279
223.0	845.2972468872467	fix	2.0		60	trustworthiness	092	2.0	1	2.46	922.9805870022828	0.5167527360317763
224.0	845.8139996232785	face	0.0		147	trustworthiness	126	2.0	1		923.4973397383146	1.2334579598391429
224.0	847.0474575831176	rating	1.0		126	trustworthiness	126	2.0	1		924.7307976981538	1.0584599520807387
224.0	848.1059175351984	fix	2.0		60	trustworthiness	126	2.0	1	-1.5299999999999998	925.7892576502345	0.5167500193201704
225.0	848.6226675545186	face	0.0		147	trustworthiness	006	2.0	1		926.3060076695547	1.233468524820637
225.0	849.8561360793392	rating	1.0		443	trustworthiness	006	2.0	1		927.5394761943753	3.7004384768079035
225.0	853.5565745561471	fix	2.0		60	trustworthiness	006	2.0	1	-0.7599999999999998	931.2399146711832	0.5167521323164692
226.0	854.0733266884636	face	0.0		147	trustworthiness	024	2.0	1		931.7566668034997	1.2334597709705122
226.0	855.3067864594341	rating	1.0		142	trustworthiness	024	2.0	1		932.9901265744702	1.1918080965115223
226.0	856.4985945559456	fix	2.0		60	trustworthiness	024	2.0	1	2.33	934.1819346709817	0.5167503211850999
227.0	857.0153448771307	face	0.0		147	trustworthiness	172	2.0	1		934.6986849921668	1.2334615821164334
227.0	858.2488064592471	rating	1.0		149	trustworthiness	172	2.0	1		935.9321465742833	1.250147004131577
227.0	859.4989534633787	fix	2.0		60	trustworthiness	172	2.0	1	-2.6100000000000003	937.1822935784148	0.5167533397325315
228.0	860.0157068031112	face	0.0		147	trustworthiness	064	2.0	1		937.6990469181474	1.2334603746858193
228.0	861.2491671777971	rating	1.0		123	trustworthiness	064	2.0	1		938.9325072928332	1.0334707585570868
228.0	862.2826379363541	fix	2.0		60	trustworthiness	064	2.0	1	-1.92	939.9659780513903	0.5167370394919999
229.0	862.7993749758461	face	0.0		147	trustworthiness	027	2.0	1		940.4827150908823	1.2334603746858193
229.0	864.032835350532	rating	1.0		225	trustworthiness	027	2.0	1		941.7161754655681	1.8835612551483791
229.0	865.9163966056803	fix	2.0		60	trustworthiness	027	2.0	1	-0.7799999999999998	943.5997367207165	0.5167515286011621
230.0	866.4331481342815	face	0.0		147	trustworthiness	018	2.0	1		944.1164882493176	1.2334582616895204
230.0	867.666606395971	rating	1.0		136	trustworthiness	018	2.0	1		945.3499465110071	1.141802240497782
230.0	868.8084086364688	fix	2.0		60	trustworthiness	018	2.0	1	1.2800000000000002	946.4917487515049	0.5167515286011621
231.0	869.32516016507	face	0.0		147	trustworthiness	034	2.0	1		947.0085002801061	1.233513803294045
231.0	870.558673968364	rating	1.0		281	trustworthiness	034	2.0	1		948.2420140834001	2.35027704393724
231.0	872.9089510123013	fix	2.0		60	trustworthiness	034	2.0	1	-1.4500000000000002	950.5922911273374	0.5167086649744306
232.0	873.4256596772757	face	0.0		147	trustworthiness	101	2.0	1		951.1089997923118	1.2334549412626075
232.0	874.6591146185383	rating	1.0		144	trustworthiness	101	2.0	1		952.3424547335744	1.2084751052898355
232.0	875.8675897238281	fix	2.0		60	trustworthiness	101	2.0	1	-2.2	953.5509298388642	0.5167626972979633
233.0	876.3843524211261	face	0.0		147	trustworthiness	137	2.0	1		954.0676925361622	1.2334522245655535
233.0	877.6178046456916	rating	1.0		109	trustworthiness	137	2.0	1		955.3011447607278	0.9167763411969645
233.0	878.5345809868886	fix	2.0		60	trustworthiness	137	2.0	1	1.92	956.2179211019247	0.516750924900407
234.0	879.051331911789	face	0.0		147	trustworthiness	141	2.0	1		956.7346720268251	1.233457959824591
234.0	880.2847898716136	rating	1.0		178	trustworthiness	141	2.0	1		957.9681299866497	1.4918450437689899
234.0	881.7766349153826	fix	2.0		60	trustworthiness	141	2.0	1	1.0599999999999996	959.4599750304187	0.5167506230209256
235.0	882.2933855384035	face	0.0		147	trustworthiness	102	2.0	1		959.9767256534396	1.2334697322512511
235.0	883.5268552706548	rating	1.0		221	trustworthiness	102	2.0	1		961.2101953856909	1.8502193893218646
235.0	885.3770746599766	fix	2.0		60	trustworthiness	102	2.0	1	2.4800000000000004	963.0604147750128	0.5167485100391787
236.0	885.8938231700158	face	0.0		147	trustworthiness	066	2.0	1		963.5771632850519	1.2334573561238358
236.0	887.1272805261397	rating	1.0		268	trustworthiness	066	2.0	1		964.8106206411758	2.2419356007158058
236.0	889.3692161268555	fix	2.0		61	trustworthiness	066	2.0	1	-2.74	967.0525562418916	0.5250872969190823
237.0	889.8943034237745	face	0.0		146	trustworthiness	136	2.0	1		967.5776435388107	1.2251249082328286
237.0	891.1194283320074	rating	1.0		213	trustworthiness	136	2.0	1		968.8027684470435	1.78354712825967
237.0	892.902975460267	fix	2.0		60	trustworthiness	136	2.0	1	-2.62	970.5863155753032	0.5167476044589421
238.0	893.419723064726	face	0.0		147	trustworthiness	082	2.0	1		971.1030631797621	1.2334706378169358
238.0	894.6531937025429	rating	1.0		245	trustworthiness	082	2.0	1		972.336533817579	2.0502452282526065
238.0	896.7034389307955	fix	2.0		60	trustworthiness	082	2.0	1	-0.81	974.3867790458316	0.5167454914626433
239.0	897.2201844222582	face	0.0		147	trustworthiness	044	2.0	1		974.9035245372943	1.2334600728354417
239.0	898.4536444950936	rating	1.0		146	trustworthiness	044	2.0	1		976.1369846101297	1.2251517734694062
239.0	899.678796268563	fix	2.0		60	trustworthiness	044	2.0	1	1.12	977.3621363835991	0.500052523042541
