trial_nr	onset	event_type	phase	response	nr_frames	face_age	face_sex	face_eth	attractiveness	expression	face_id	sub_id	ses	run	trial_type	catch	rating_type	onset_abs	duration
-1.0	0.05565780048527813	fix	0.0		714													24.818076635499892	5.9644034700031625
-1.0	0.7036099721954088	pulse	0.0	t														25.466028807210023	
-1.0	1.4035973848494905	pulse	0.0	t														26.166016219864105	
-1.0	2.1035799678284093	pulse	0.0	t														26.865998802843023	
-1.0	2.803554400725261	pulse	0.0	t														27.565973235739875	
-1.0	3.5035390966877458	pulse	0.0	t														28.26595793170236	
-1.0	4.203524094502427	pulse	0.0	t														28.96594292951704	
-1.0	4.903514525705759	pulse	0.0	t														29.665933360720373	
-1.0	5.603497108682859	pulse	0.0	t														30.365915943697473	
0.0	6.020061270488441	face	0.0		144	36.0	female	white	2.7548746518105847	smiling	011	sub-04	2.0	6.0	011_smiling	1.0	dominance	30.782480105503055	1.2332948267212487
0.0	6.3034935769828735	pulse	0.0	t		36.0	female	white	2.7548746518105847	smiling	011	sub-04	2.0	6.0	011_smiling	1.0	dominance	31.065912411997488	
0.0	7.0034773673796735	pulse	0.0	t		36.0	female	white	2.7548746518105847	smiling	011	sub-04	2.0	6.0	011_smiling	1.0	dominance	31.765896202394288	
0.0	7.253356097209689	fix	1.0		177	36.0	female	white	2.7548746518105847	smiling	011	sub-04	2.0	6.0	011_smiling	1.0	dominance	32.0157749322243	1.5083310417521716
0.0	7.7034611577764736	pulse	1.0	t		36.0	female	white	2.7548746518105847	smiling	011	sub-04	2.0	6.0	011_smiling	1.0	dominance	32.46587999279109	
0.0	8.403436194383175	pulse	1.0	t		36.0	female	white	2.7548746518105847	smiling	011	sub-04	2.0	6.0	011_smiling	1.0	dominance	33.16585502939779	
0.0	8.761687138961861	rating	2.0		293	36.0	female	white	2.7548746518105847	smiling	011	sub-04	2.0	6.0	011_smiling	1.0	dominance	33.524105973976475	2.4915865518851206
0.0	9.103437794214187	pulse	2.0	t		36.0	female	white	2.7548746518105847	smiling	011	sub-04	2.0	6.0	011_smiling	1.0	dominance	33.8658566292288	
0.0	9.803421584610987	pulse	2.0	t		36.0	female	white	2.7548746518105847	smiling	011	sub-04	2.0	6.0	011_smiling	1.0	dominance	34.5658404196256	
0.0	9.939842148047319	response	2.0	w		36.0	female	white	2.7548746518105847	smiling	011	sub-04	2.0	6.0	011_smiling	1.0	dominance	34.70226098306193	
0.0	10.503383943316294	pulse	2.0	t		36.0	female	white	2.7548746518105847	smiling	011	sub-04	2.0	6.0	011_smiling	1.0	dominance	35.26580277833091	
0.0	11.203384939437456	pulse	2.0	t		36.0	female	white	2.7548746518105847	smiling	011	sub-04	2.0	6.0	011_smiling	1.0	dominance	35.96580377445207	
0.0	11.253273690846981	fix	3.0		444	36.0	female	white	2.7548746518105847	smiling	011	sub-04	2.0	6.0	011_smiling	1.0	dominance	36.015692525861596	3.7582520312571432
0.0	11.903373257655403	pulse	3.0	t		36.0	female	white	2.7548746518105847	smiling	011	sub-04	2.0	6.0	011_smiling	1.0	dominance	36.66579209267002	
0.0	12.603354633214622	pulse	3.0	t		36.0	female	white	2.7548746518105847	smiling	011	sub-04	2.0	6.0	011_smiling	1.0	dominance	37.365773468229236	
0.0	13.303330877241024	pulse	3.0	t		36.0	female	white	2.7548746518105847	smiling	011	sub-04	2.0	6.0	011_smiling	1.0	dominance	38.06574971225564	
0.0	14.003323119572087	pulse	3.0	t		36.0	female	white	2.7548746518105847	smiling	011	sub-04	2.0	6.0	011_smiling	1.0	dominance	38.7657419545867	
0.0	14.703310532226169	pulse	3.0	t		36.0	female	white	2.7548746518105847	smiling	011	sub-04	2.0	6.0	011_smiling	1.0	dominance	39.46572936724078	
1.0	15.011525722104125	face	0.0		146	28.0	male	white	3.9076800636689217	neutral	033	sub-04	2.0	6.0	033_neutral	0.0		39.77394455711874	1.2416577141557354
1.0	15.403300963429501	pulse	0.0	t		28.0	male	white	3.9076800636689217	neutral	033	sub-04	2.0	6.0	033_neutral	0.0		40.165719798444115	
1.0	16.103350860028513	pulse	0.0	t		28.0	male	white	3.9076800636689217	neutral	033	sub-04	2.0	6.0	033_neutral	0.0		40.86576969504313	
1.0	16.25318343625986	fix	1.0		445	28.0	male	white	3.9076800636689217	neutral	033	sub-04	2.0	6.0	033_neutral	0.0		41.015602271274474	3.7582396552097634
1.0	16.803272770190233	pulse	1.0	t		28.0	male	white	3.9076800636689217	neutral	033	sub-04	2.0	6.0	033_neutral	0.0		41.56569160520485	
1.0	17.50325293832975	pulse	1.0	t		28.0	male	white	3.9076800636689217	neutral	033	sub-04	2.0	6.0	033_neutral	0.0		42.265671773344366	
1.0	18.203250010337797	pulse	1.0	t		28.0	male	white	3.9076800636689217	neutral	033	sub-04	2.0	6.0	033_neutral	0.0		42.96566884535241	
1.0	18.903212670898938	pulse	1.0	t		28.0	male	white	3.9076800636689217	neutral	033	sub-04	2.0	6.0	033_neutral	0.0		43.66563150591355	
1.0	19.603213365164265	pulse	1.0	t		28.0	male	white	3.9076800636689217	neutral	033	sub-04	2.0	6.0	033_neutral	0.0		44.36563220017888	
2.0	20.011423091469624	face	0.0		146	27.0	female	white	4.181058495821727	neutral	039	sub-04	2.0	6.0	039_neutral	0.0		44.77384192648424	1.241638999157658
2.0	20.30320047596433	pulse	0.0	t		27.0	female	white	4.181058495821727	neutral	039	sub-04	2.0	6.0	039_neutral	0.0		45.065619310978946	
2.0	21.003186077490682	pulse	0.0	t		27.0	female	white	4.181058495821727	neutral	039	sub-04	2.0	6.0	039_neutral	0.0		45.765604912505296	
2.0	21.25306209062728	fix	1.0		445	27.0	female	white	4.181058495821727	neutral	039	sub-04	2.0	6.0	039_neutral	0.0		46.015480925641896	3.758256860934125
2.0	21.703170169741497	pulse	1.0	t		27.0	female	white	4.181058495821727	neutral	039	sub-04	2.0	6.0	039_neutral	0.0		46.46558900475611	
2.0	22.403148526751465	pulse	1.0	t		27.0	female	white	4.181058495821727	neutral	039	sub-04	2.0	6.0	039_neutral	0.0		47.16556736176608	
2.0	23.103131713438415	pulse	1.0	t		27.0	female	white	4.181058495821727	neutral	039	sub-04	2.0	6.0	039_neutral	0.0		47.86555054845303	
2.0	23.803124861335164	pulse	1.0	t		27.0	female	white	4.181058495821727	neutral	039	sub-04	2.0	6.0	039_neutral	0.0		48.56554369634978	
2.0	24.503107444312263	pulse	1.0	t		27.0	female	white	4.181058495821727	neutral	039	sub-04	2.0	6.0	039_neutral	0.0		49.26552627932688	
3.0	25.011318951561407	face	0.0		146	27.0	female	white	3.504576203740549	smiling	144	sub-04	2.0	6.0	144_smiling	0.0		49.77373778657602	1.2416402065773582
3.0	25.20309757365976	pulse	0.0	t		27.0	female	white	3.504576203740549	smiling	144	sub-04	2.0	6.0	144_smiling	0.0		49.965516408674375	
3.0	25.903075628815714	pulse	0.0	t		27.0	female	white	3.504576203740549	smiling	144	sub-04	2.0	6.0	144_smiling	0.0		50.66549446383033	
3.0	26.252959158138765	fix	1.0		444	27.0	female	white	3.504576203740549	smiling	144	sub-04	2.0	6.0	144_smiling	0.0		51.01537799315338	3.758230297709815
3.0	26.60306756929276	pulse	1.0	t		27.0	female	white	3.504576203740549	smiling	144	sub-04	2.0	6.0	144_smiling	0.0		51.365486404307376	
3.0	27.30305196339941	pulse	1.0	t		27.0	female	white	3.504576203740549	smiling	144	sub-04	2.0	6.0	144_smiling	0.0		52.065470798414026	
3.0	28.003037263069928	pulse	1.0	t		27.0	female	white	3.504576203740549	smiling	144	sub-04	2.0	6.0	144_smiling	0.0		52.76545609808454	
3.0	28.703006866291616	pulse	1.0	t		27.0	female	white	3.504576203740549	smiling	144	sub-04	2.0	6.0	144_smiling	0.0		53.46542570130623	
3.0	29.403002429025946	pulse	1.0	t		27.0	female	white	3.504576203740549	smiling	144	sub-04	2.0	6.0	144_smiling	0.0		54.16542126404056	
4.0	30.01118945584858	face	0.0		146	47.0	male	east_asian	2.171110226820533	smiling	024	sub-04	2.0	6.0	024_smiling	0.0		54.773608290863194	1.2416625438327173
4.0	30.102997991760276	pulse	0.0	t		47.0	male	east_asian	2.171110226820533	smiling	024	sub-04	2.0	6.0	024_smiling	0.0		54.86541682677489	
4.0	30.802960048609748	pulse	0.0	t		47.0	male	east_asian	2.171110226820533	smiling	024	sub-04	2.0	6.0	024_smiling	0.0		55.56537888362436	
4.0	31.252851999681297	fix	1.0		444	47.0	male	east_asian	2.171110226820533	smiling	024	sub-04	2.0	6.0	024_smiling	0.0		56.01527083469591	3.7665841295020073
4.0	31.502968289247292	pulse	1.0	t		47.0	male	east_asian	2.171110226820533	smiling	024	sub-04	2.0	6.0	024_smiling	0.0		56.265387124261906	
4.0	32.20294724996711	pulse	1.0	t		47.0	male	east_asian	2.171110226820533	smiling	024	sub-04	2.0	6.0	024_smiling	0.0		56.965366084981724	
4.0	32.90293737931461	pulse	1.0	t		47.0	male	east_asian	2.171110226820533	smiling	024	sub-04	2.0	6.0	024_smiling	0.0		57.66535621432922	
4.0	33.602909095518044	pulse	1.0	t		47.0	male	east_asian	2.171110226820533	smiling	024	sub-04	2.0	6.0	024_smiling	0.0		58.36532793053266	
4.0	34.30291039349504	pulse	1.0	t		47.0	male	east_asian	2.171110226820533	smiling	024	sub-04	2.0	6.0	024_smiling	0.0		59.065329228509654	
5.0	35.019436129183305	face	0.0		146	32.0	male	white	2.389176283326701	smiling	092	sub-04	2.0	6.0	092_smiling	1.0	attractiveness	59.78185496419792	1.2333114287357603
5.0	35.00573403391718	pulse	0.0	t		32.0	male	white	2.389176283326701	smiling	092	sub-04	2.0	6.0	092_smiling	1.0	attractiveness	59.76815286893179	
5.0	35.70287223904597	pulse	0.0	t		32.0	male	white	2.389176283326701	smiling	092	sub-04	2.0	6.0	092_smiling	1.0	attractiveness	60.46529107406059	
5.0	36.252747557919065	fix	1.0		177	32.0	male	white	2.389176283326701	smiling	092	sub-04	2.0	6.0	092_smiling	1.0	attractiveness	61.01516639293368	1.4999717765749665
5.0	36.40286689621644	pulse	1.0	t		32.0	male	white	2.389176283326701	smiling	092	sub-04	2.0	6.0	092_smiling	1.0	attractiveness	61.16528573123105	
5.0	37.10284012169541	pulse	1.0	t		32.0	male	white	2.389176283326701	smiling	092	sub-04	2.0	6.0	092_smiling	1.0	attractiveness	61.86525895671002	
5.0	37.75271933449403	rating	2.0		294	32.0	male	white	2.389176283326701	smiling	092	sub-04	2.0	6.0	092_smiling	1.0	attractiveness	62.515138169508646	2.4999446096426254
5.0	37.80283628813959	pulse	2.0	t		32.0	male	white	2.389176283326701	smiling	092	sub-04	2.0	6.0	092_smiling	1.0	attractiveness	62.5652551231542	
5.0	38.50281736184297	pulse	2.0	t		32.0	male	white	2.389176283326701	smiling	092	sub-04	2.0	6.0	092_smiling	1.0	attractiveness	63.265236196857586	
5.0	39.094472102729924	response	2.0	n		32.0	male	white	2.389176283326701	smiling	092	sub-04	2.0	6.0	092_smiling	1.0	attractiveness	63.85689093774454	
5.0	39.20278998361209	pulse	2.0	t		32.0	male	white	2.389176283326701	smiling	092	sub-04	2.0	6.0	092_smiling	1.0	attractiveness	63.96520881862671	
5.0	39.90277890553989	pulse	2.0	t		32.0	male	white	2.389176283326701	smiling	092	sub-04	2.0	6.0	092_smiling	1.0	attractiveness	64.6651977405545	
5.0	40.25266394413666	fix	3.0		444	32.0	male	white	2.389176283326701	smiling	092	sub-04	2.0	6.0	092_smiling	1.0	attractiveness	65.01508277915127	3.766591072160736
5.0	40.60276873303337	pulse	3.0	t		32.0	male	white	2.389176283326701	smiling	092	sub-04	2.0	6.0	092_smiling	1.0	attractiveness	65.36518756804799	
5.0	41.30276701246112	pulse	3.0	t		32.0	male	white	2.389176283326701	smiling	092	sub-04	2.0	6.0	092_smiling	1.0	attractiveness	66.06518584747573	
5.0	42.00275502882505	pulse	3.0	t		32.0	male	white	2.389176283326701	smiling	092	sub-04	2.0	6.0	092_smiling	1.0	attractiveness	66.76517386383966	
5.0	42.70272704688432	pulse	3.0	t		32.0	male	white	2.389176283326701	smiling	092	sub-04	2.0	6.0	092_smiling	1.0	attractiveness	67.46514588189893	
5.0	43.40270842244354	pulse	3.0	t		32.0	male	white	2.389176283326701	smiling	092	sub-04	2.0	6.0	092_smiling	1.0	attractiveness	68.16512725745815	
6.0	44.01925501629739	face	0.0		145	26.0	male	white	2.7966573816155993	smiling	117	sub-04	2.0	6.0	117_smiling	0.0		68.78167385131201	1.2333132398653106
6.0	44.102707909289165	pulse	0.0	t		26.0	male	white	2.7966573816155993	smiling	117	sub-04	2.0	6.0	117_smiling	0.0		68.86512674430378	
6.0	44.80267660694699	pulse	0.0	t		26.0	male	white	2.7966573816155993	smiling	117	sub-04	2.0	6.0	117_smiling	0.0		69.5650954419616	
6.0	45.252568256162704	fix	1.0		444	26.0	male	white	2.7966573816155993	smiling	117	sub-04	2.0	6.0	117_smiling	0.0		70.01498709117732	3.766576281275775
6.0	45.50267156597147	pulse	1.0	t		26.0	male	white	2.7966573816155993	smiling	117	sub-04	2.0	6.0	117_smiling	0.0		70.26509040098608	
6.0	46.20265294152887	pulse	1.0	t		26.0	male	white	2.7966573816155993	smiling	117	sub-04	2.0	6.0	117_smiling	0.0		70.96507177654348	
6.0	46.90262797813739	pulse	1.0	t		26.0	male	white	2.7966573816155993	smiling	117	sub-04	2.0	6.0	117_smiling	0.0		71.665046813152	
6.0	47.602614485227605	pulse	1.0	t		26.0	male	white	2.7966573816155993	smiling	117	sub-04	2.0	6.0	117_smiling	0.0		72.36503332024222	
6.0	48.30260280344555	pulse	1.0	t		26.0	male	white	2.7966573816155993	smiling	117	sub-04	2.0	6.0	117_smiling	0.0		73.06502163846017	
7.0	49.01914453743848	face	0.0		146	54.0	female	white	2.286908077994429	smiling	136	sub-04	2.0	6.0	136_smiling	1.0	dominance	73.78156337245309	1.2333271251864062
7.0	49.00546960910651	pulse	0.0	t		54.0	female	white	2.286908077994429	smiling	136	sub-04	2.0	6.0	136_smiling	1.0	dominance	73.76788844412113	
7.0	49.70258155286683	pulse	0.0	t		54.0	female	white	2.286908077994429	smiling	136	sub-04	2.0	6.0	136_smiling	1.0	dominance	74.46500038788145	
7.0	50.252471662624885	fix	1.0		177	54.0	female	white	2.286908077994429	smiling	136	sub-04	2.0	6.0	136_smiling	1.0	dominance	75.0148904976395	1.4999732858486823
7.0	50.4025635321359	pulse	1.0	t		54.0	female	white	2.286908077994429	smiling	136	sub-04	2.0	6.0	136_smiling	1.0	dominance	75.16498236715051	
7.0	51.10255064293597	pulse	1.0	t		54.0	female	white	2.286908077994429	smiling	136	sub-04	2.0	6.0	136_smiling	1.0	dominance	75.86496947795058	
7.0	51.75244494847357	rating	2.0		294	54.0	female	white	2.286908077994429	smiling	136	sub-04	2.0	6.0	136_smiling	1.0	dominance	76.51486378348818	2.4999268002102326
7.0	51.802557978007826	pulse	2.0	t		54.0	female	white	2.286908077994429	smiling	136	sub-04	2.0	6.0	136_smiling	1.0	dominance	76.56497681302244	
7.0	52.502524562680264	pulse	2.0	t		54.0	female	white	2.286908077994429	smiling	136	sub-04	2.0	6.0	136_smiling	1.0	dominance	77.26494339769488	
7.0	53.202510164204796	pulse	2.0	t		54.0	female	white	2.286908077994429	smiling	136	sub-04	2.0	6.0	136_smiling	1.0	dominance	77.96492899921941	
7.0	53.32748861931941	response	2.0	w		54.0	female	white	2.286908077994429	smiling	136	sub-04	2.0	6.0	136_smiling	1.0	dominance	78.08990745433402	
7.0	53.902482785973916	pulse	2.0	t		54.0	female	white	2.286908077994429	smiling	136	sub-04	2.0	6.0	136_smiling	1.0	dominance	78.66490162098853	
7.0	54.2523717486838	fix	3.0		444	54.0	female	white	2.286908077994429	smiling	136	sub-04	2.0	6.0	136_smiling	1.0	dominance	79.01479058369841	3.758256860934125
7.0	54.60248287653121	pulse	3.0	t		54.0	female	white	2.286908077994429	smiling	136	sub-04	2.0	6.0	136_smiling	1.0	dominance	79.36490171154583	
7.0	55.3024576112839	pulse	3.0	t		54.0	female	white	2.286908077994429	smiling	136	sub-04	2.0	6.0	136_smiling	1.0	dominance	80.06487644629851	
7.0	56.00245196659853	pulse	3.0	t		54.0	female	white	2.286908077994429	smiling	136	sub-04	2.0	6.0	136_smiling	1.0	dominance	80.76487080161314	
7.0	56.702437869978894	pulse	3.0	t		54.0	female	white	2.286908077994429	smiling	136	sub-04	2.0	6.0	136_smiling	1.0	dominance	81.46485670499351	
7.0	57.40241200102173	pulse	3.0	t		54.0	female	white	2.286908077994429	smiling	136	sub-04	2.0	6.0	136_smiling	1.0	dominance	82.16483083603634	
8.0	58.010628609617925	face	0.0		146	27.0	male	black	3.5523278949462798	smiling	042	sub-04	2.0	6.0	042_smiling	0.0		82.77304744463254	1.2416377917379577
8.0	58.10241178972319	pulse	0.0	t		27.0	male	black	3.5523278949462798	smiling	042	sub-04	2.0	6.0	042_smiling	0.0		82.8648306247378	
8.0	58.80237716697775	pulse	0.0	t		27.0	male	black	3.5523278949462798	smiling	042	sub-04	2.0	6.0	042_smiling	0.0		83.56479600199236	
8.0	59.25226640135588	fix	1.0		444	27.0	male	black	3.5523278949462798	smiling	042	sub-04	2.0	6.0	042_smiling	0.0		84.0146852363705	3.7582499182735774
8.0	59.50238087979233	pulse	1.0	t		27.0	male	black	3.5523278949462798	smiling	042	sub-04	2.0	6.0	042_smiling	0.0		84.26479971480694	
8.0	60.202358029382594	pulse	1.0	t		27.0	male	black	3.5523278949462798	smiling	042	sub-04	2.0	6.0	042_smiling	0.0		84.96477686439721	
8.0	60.90233910308598	pulse	1.0	t		27.0	male	black	3.5523278949462798	smiling	042	sub-04	2.0	6.0	042_smiling	0.0		85.66475793810059	
8.0	61.60233496767614	pulse	1.0	t		27.0	male	black	3.5523278949462798	smiling	042	sub-04	2.0	6.0	042_smiling	0.0		86.36475380269076	
8.0	62.30233053041047	pulse	1.0	t		27.0	male	black	3.5523278949462798	smiling	042	sub-04	2.0	6.0	042_smiling	0.0		87.06474936542509	
9.0	63.01051631962946	face	0.0		147	24.0	female	black	3.0955033824114606	smiling	099	sub-04	2.0	6.0	099_smiling	0.0		87.77293515464407	1.241638999157658
9.0	63.0009490315133	pulse	0.0	t		24.0	female	black	3.0955033824114606	smiling	099	sub-04	2.0	6.0	099_smiling	0.0		87.76336786652791	
9.0	63.70229026297784	pulse	0.0	t		24.0	female	black	3.0955033824114606	smiling	099	sub-04	2.0	6.0	099_smiling	0.0		88.46470909799245	
9.0	64.25215531878712	fix	1.0		443	24.0	female	black	3.0955033824114606	smiling	099	sub-04	2.0	6.0	099_smiling	0.0		89.01457415380173	3.7665983166771184
9.0	64.40227405337464	pulse	1.0	t		24.0	female	black	3.0955033824114606	smiling	099	sub-04	2.0	6.0	099_smiling	0.0		89.16469288838925	
9.0	65.10226599385169	pulse	1.0	t		24.0	female	black	3.0955033824114606	smiling	099	sub-04	2.0	6.0	099_smiling	0.0		89.8646848288663	
9.0	65.80222744699313	pulse	1.0	t		24.0	female	black	3.0955033824114606	smiling	099	sub-04	2.0	6.0	099_smiling	0.0		90.56464628200774	
9.0	66.50222633013072	pulse	1.0	t		24.0	female	black	3.0955033824114606	smiling	099	sub-04	2.0	6.0	099_smiling	0.0		91.26464516514534	
9.0	67.2022327596369	pulse	1.0	t		24.0	female	black	3.0955033824114606	smiling	099	sub-04	2.0	6.0	099_smiling	0.0		91.96465159465151	
9.0	67.90218877939151	pulse	1.0	t		24.0	female	black	3.0955033824114606	smiling	099	sub-04	2.0	6.0	099_smiling	0.0		92.66460761440612	
10.0	68.01875363546424	face	0.0		146	40.0	male	white	1.868682849184242	neutral	172	sub-04	2.0	6.0	172_neutral	0.0		92.78117247047885	1.2333044860752125
10.0	68.60219098293237	pulse	0.0	t		40.0	male	white	1.868682849184242	neutral	172	sub-04	2.0	6.0	172_neutral	0.0		93.36460981794698	
10.0	69.25205812153945	fix	1.0		443	40.0	male	white	1.868682849184242	neutral	172	sub-04	2.0	6.0	172_neutral	0.0		94.01447695655406	3.7665907703049015
10.0	69.3021777918766	pulse	1.0	t		40.0	male	white	1.868682849184242	neutral	172	sub-04	2.0	6.0	172_neutral	0.0		94.06459662689122	
10.0	70.0021627896931	pulse	1.0	t		40.0	male	white	1.868682849184242	neutral	172	sub-04	2.0	6.0	172_neutral	0.0		94.76458162470772	
10.0	70.70212786509182	pulse	1.0	t		40.0	male	white	1.868682849184242	neutral	172	sub-04	2.0	6.0	172_neutral	0.0		95.46454670010644	
10.0	71.40213127605239	pulse	1.0	t		40.0	male	white	1.868682849184242	neutral	172	sub-04	2.0	6.0	172_neutral	0.0		96.164550111067	
10.0	72.10210872749667	pulse	1.0	t		40.0	male	white	1.868682849184242	neutral	172	sub-04	2.0	6.0	172_neutral	0.0		96.86452756251128	
10.0	72.80208889563619	pulse	1.0	t		40.0	male	white	1.868682849184242	neutral	172	sub-04	2.0	6.0	172_neutral	0.0		97.5645077306508	
11.0	73.01864889184435	face	0.0		145	20.0	female	white	3.9502586549940313	neutral	091	sub-04	2.0	6.0	091_neutral	0.0		97.78106772685896	1.233304184221197
11.0	73.5020853639362	pulse	0.0	t		20.0	female	white	3.9502586549940313	neutral	091	sub-04	2.0	6.0	091_neutral	0.0		98.26450419895082	
11.0	74.20206100425276	pulse	0.0	t		20.0	female	white	3.9502586549940313	neutral	091	sub-04	2.0	6.0	091_neutral	0.0		98.96447983926737	
11.0	74.25195307606555	fix	1.0		445	20.0	female	white	3.9502586549940313	neutral	091	sub-04	2.0	6.0	091_neutral	0.0		99.01437191108016	3.766591072160736
11.0	74.90205445400352	pulse	1.0	t		20.0	female	white	3.9502586549940313	neutral	091	sub-04	2.0	6.0	091_neutral	0.0		99.66447328901813	
11.0	75.60202888690037	pulse	1.0	t		20.0	female	white	3.9502586549940313	neutral	091	sub-04	2.0	6.0	091_neutral	0.0		100.36444772191498	
11.0	76.30202354407083	pulse	1.0	t		20.0	female	white	3.9502586549940313	neutral	091	sub-04	2.0	6.0	091_neutral	0.0		101.06444237908545	
11.0	77.0020118622906	pulse	1.0	t		20.0	female	white	3.9502586549940313	neutral	091	sub-04	2.0	6.0	091_neutral	0.0		101.76443069730522	
11.0	77.70199686010528	pulse	1.0	t		20.0	female	white	3.9502586549940313	neutral	091	sub-04	2.0	6.0	091_neutral	0.0		102.4644156951199	
12.0	78.01854414822628	face	0.0		145	40.0	female	west_asian	1.5777954635893354	smiling	038	sub-04	2.0	6.0	038_smiling	1.0	trustworthiness	102.7809629832409	1.233304184221197
12.0	78.4019794430842	pulse	0.0	t		40.0	female	west_asian	1.5777954635893354	smiling	038	sub-04	2.0	6.0	038_smiling	1.0	trustworthiness	103.16439827809882	
12.0	79.10196262977115	pulse	0.0	t		40.0	female	west_asian	1.5777954635893354	smiling	038	sub-04	2.0	6.0	038_smiling	1.0	trustworthiness	103.86438146478577	
12.0	79.25184833244748	fix	1.0		177	40.0	female	west_asian	1.5777954635893354	smiling	038	sub-04	2.0	6.0	038_smiling	1.0	trustworthiness	104.0142671674621	1.4999708710111008
12.0	79.80195004242523	pulse	1.0	t		40.0	female	west_asian	1.5777954635893354	smiling	038	sub-04	2.0	6.0	038_smiling	1.0	trustworthiness	104.56436887743985	
12.0	80.50193262540233	pulse	1.0	t		40.0	female	west_asian	1.5777954635893354	smiling	038	sub-04	2.0	6.0	038_smiling	1.0	trustworthiness	105.26435146041695	
12.0	80.75181920345858	rating	2.0		295	40.0	female	west_asian	1.5777954635893354	smiling	038	sub-04	2.0	6.0	038_smiling	1.0	trustworthiness	105.5142380384732	2.499947024482026
12.0	81.20191762321883	pulse	2.0	t		40.0	female	west_asian	1.5777954635893354	smiling	038	sub-04	2.0	6.0	038_smiling	1.0	trustworthiness	105.96433645823345	
12.0	81.9019110729696	pulse	2.0	t		40.0	female	west_asian	1.5777954635893354	smiling	038	sub-04	2.0	6.0	038_smiling	1.0	trustworthiness	106.66432990798421	
12.0	82.60191146538091	pulse	2.0	t		40.0	female	west_asian	1.5777954635893354	smiling	038	sub-04	2.0	6.0	038_smiling	1.0	trustworthiness	107.36433030039552	
12.0	82.62172823347646	response	2.0	e		40.0	female	west_asian	1.5777954635893354	smiling	038	sub-04	2.0	6.0	038_smiling	1.0	trustworthiness	107.38414706849107	
12.0	83.2517662279406	fix	3.0		443	40.0	female	west_asian	1.5777954635893354	smiling	038	sub-04	2.0	6.0	038_smiling	1.0	trustworthiness	108.01418506295522	3.76658835546732
12.0	83.30188076674676	pulse	3.0	t		40.0	female	west_asian	1.5777954635893354	smiling	038	sub-04	2.0	6.0	038_smiling	1.0	trustworthiness	108.06429960176138	
12.0	84.00186817940084	pulse	3.0	t		40.0	female	west_asian	1.5777954635893354	smiling	038	sub-04	2.0	6.0	038_smiling	1.0	trustworthiness	108.76428701441546	
12.0	84.70184472528308	pulse	3.0	t		40.0	female	west_asian	1.5777954635893354	smiling	038	sub-04	2.0	6.0	038_smiling	1.0	trustworthiness	109.4642635602977	
12.0	85.40182972309958	pulse	3.0	t		40.0	female	west_asian	1.5777954635893354	smiling	038	sub-04	2.0	6.0	038_smiling	1.0	trustworthiness	110.1642485581142	
12.0	86.10181864502738	pulse	3.0	t		40.0	female	west_asian	1.5777954635893354	smiling	038	sub-04	2.0	6.0	038_smiling	1.0	trustworthiness	110.864237480042	
12.0	86.80179187050635	pulse	3.0	t		40.0	female	west_asian	1.5777954635893354	smiling	038	sub-04	2.0	6.0	038_smiling	1.0	trustworthiness	111.56421070552096	
13.0	87.01835458340793	face	0.0		145	21.0	male	black	2.969757262236371	neutral	137	sub-04	2.0	6.0	137_neutral	0.0		111.78077341842254	1.2333050897850626
13.0	87.50178864066038	pulse	0.0	t		21.0	male	black	2.969757262236371	neutral	137	sub-04	2.0	6.0	137_neutral	0.0		112.264207475675	
13.0	88.20176880879808	pulse	0.0	t		21.0	male	black	2.969757262236371	neutral	137	sub-04	2.0	6.0	137_neutral	0.0		112.96418764381269	
13.0	88.25165967319299	fix	1.0		445	21.0	male	black	2.969757262236371	neutral	137	sub-04	2.0	6.0	137_neutral	0.0		113.0140785082076	3.7582553516604094
13.0	88.90175924000141	pulse	1.0	t		21.0	male	black	2.969757262236371	neutral	137	sub-04	2.0	6.0	137_neutral	0.0		113.66417807501603	
13.0	89.60174484152776	pulse	1.0	t		21.0	male	black	2.969757262236371	neutral	137	sub-04	2.0	6.0	137_neutral	0.0		114.36416367654238	
13.0	90.30174644135695	pulse	1.0	t		21.0	male	black	2.969757262236371	neutral	137	sub-04	2.0	6.0	137_neutral	0.0		115.06416527637157	
13.0	91.00172208167533	pulse	1.0	t		21.0	male	black	2.969757262236371	neutral	137	sub-04	2.0	6.0	137_neutral	0.0		115.76414091668994	
13.0	91.70169802384589	pulse	1.0	t		21.0	male	black	2.969757262236371	neutral	137	sub-04	2.0	6.0	137_neutral	0.0		116.4641168588605	
14.0	92.0099150248534	face	0.0		146	25.0	female	west_asian	2.6756864305610826	neutral	064	sub-04	2.0	6.0	064_neutral	0.0		116.77233385986801	1.2416405084313737
14.0	92.40169147359666	pulse	0.0	t		25.0	female	west_asian	2.6756864305610826	neutral	064	sub-04	2.0	6.0	064_neutral	0.0		117.16411030861127	
14.0	93.10168099923612	pulse	0.0	t		25.0	female	west_asian	2.6756864305610826	neutral	064	sub-04	2.0	6.0	064_neutral	0.0		117.86409983425074	
14.0	93.25155553328477	fix	1.0		445	25.0	female	west_asian	2.6756864305610826	neutral	064	sub-04	2.0	6.0	064_neutral	0.0		118.01397436829939	3.766590468450886
14.0	93.80165845068223	pulse	1.0	t		25.0	female	west_asian	2.6756864305610826	neutral	064	sub-04	2.0	6.0	064_neutral	0.0		118.56407728569684	
14.0	94.50164495777244	pulse	1.0	t		25.0	female	west_asian	2.6756864305610826	neutral	064	sub-04	2.0	6.0	064_neutral	0.0		119.26406379278706	
14.0	95.20162210736271	pulse	1.0	t		25.0	female	west_asian	2.6756864305610826	neutral	064	sub-04	2.0	6.0	064_neutral	0.0		119.96404094237732	
14.0	95.90160499219564	pulse	1.0	t		25.0	female	west_asian	2.6756864305610826	neutral	064	sub-04	2.0	6.0	064_neutral	0.0		120.66402382721026	
14.0	96.601596027107	pulse	1.0	t		25.0	female	west_asian	2.6756864305610826	neutral	064	sub-04	2.0	6.0	064_neutral	0.0		121.36401486212162	
15.0	97.01814600173566	face	0.0		145	36.0	female	white	2.7548746518105847	neutral	011	sub-04	2.0	6.0	011_neutral	0.0		121.78056483675027	1.2332981471245148
15.0	97.3015873638742	pulse	0.0	t		36.0	female	white	2.7548746518105847	neutral	011	sub-04	2.0	6.0	011_neutral	0.0		122.06400619888882	
15.0	98.00155092999921	pulse	0.0	t		36.0	female	white	2.7548746518105847	neutral	011	sub-04	2.0	6.0	011_neutral	0.0		122.76396976501383	
15.0	98.25144414886017	fix	1.0		445	36.0	female	white	2.7548746518105847	neutral	011	sub-04	2.0	6.0	011_neutral	0.0		123.01386298387479	3.766598014823103
15.0	98.7015549446678	pulse	1.0	t		36.0	female	white	2.7548746518105847	neutral	011	sub-04	2.0	6.0	011_neutral	0.0		123.46397377968242	
15.0	99.4015387350646	pulse	1.0	t		36.0	female	white	2.7548746518105847	neutral	011	sub-04	2.0	6.0	011_neutral	0.0		124.16395757007922	
15.0	100.10152282731724	pulse	1.0	t		36.0	female	white	2.7548746518105847	neutral	011	sub-04	2.0	6.0	011_neutral	0.0		124.86394166233185	
15.0	100.80150571214836	pulse	1.0	t		36.0	female	white	2.7548746518105847	neutral	011	sub-04	2.0	6.0	011_neutral	0.0		125.56392454716297	
15.0	101.50149946375495	pulse	1.0	t		36.0	female	white	2.7548746518105847	neutral	011	sub-04	2.0	6.0	011_neutral	0.0		126.26391829876957	
16.0	102.01804216368328	face	0.0		145	21.0	male	east_asian/white	3.501790688420215	smiling	036	sub-04	2.0	6.0	036_smiling	0.0		126.78046099869789	1.2333026749456621
16.0	102.20149985616627	pulse	0.0	t		21.0	male	east_asian/white	3.501790688420215	smiling	036	sub-04	2.0	6.0	036_smiling	0.0		126.96391869118088	
16.0	102.90145647963072	pulse	0.0	t		21.0	male	east_asian/white	3.501790688420215	smiling	036	sub-04	2.0	6.0	036_smiling	0.0		127.66387531464534	
16.0	103.25134483862894	fix	1.0		444	21.0	male	east_asian/white	3.501790688420215	smiling	036	sub-04	2.0	6.0	036_smiling	0.0		128.01376367364355	3.7582586720618565
16.0	103.60145747575007	pulse	1.0	t		21.0	male	east_asian/white	3.501790688420215	smiling	036	sub-04	2.0	6.0	036_smiling	0.0		128.36387631076468	
16.0	104.30143673832572	pulse	1.0	t		21.0	male	east_asian/white	3.501790688420215	smiling	036	sub-04	2.0	6.0	036_smiling	0.0		129.06385557334033	
16.0	105.0014316973502	pulse	1.0	t		21.0	male	east_asian/white	3.501790688420215	smiling	036	sub-04	2.0	6.0	036_smiling	0.0		129.7638505323648	
16.0	105.70141095992585	pulse	1.0	t		21.0	male	east_asian/white	3.501790688420215	smiling	036	sub-04	2.0	6.0	036_smiling	0.0		130.46382979494047	
16.0	106.40139142991939	pulse	1.0	t		21.0	male	east_asian/white	3.501790688420215	smiling	036	sub-04	2.0	6.0	036_smiling	0.0		131.163810264934	
17.0	107.0096035106908	face	0.0		146	34.0	male	white	2.651014723438122	smiling	121	sub-04	2.0	6.0	121_smiling	0.0		131.7720223457054	1.2416371880299266
17.0	107.10138518152417	pulse	0.0	t		34.0	male	white	2.651014723438122	smiling	121	sub-04	2.0	6.0	121_smiling	0.0		131.86380401653878	
17.0	107.8013478420853	pulse	0.0	t		34.0	male	white	2.651014723438122	smiling	121	sub-04	2.0	6.0	121_smiling	0.0		132.56376667709992	
17.0	108.25124069872072	fix	1.0		444	34.0	male	white	2.651014723438122	smiling	121	sub-04	2.0	6.0	121_smiling	0.0		133.01365953373534	3.766584431356023
17.0	108.50135547901118	pulse	1.0	t		34.0	male	white	2.651014723438122	smiling	121	sub-04	2.0	6.0	121_smiling	0.0		133.2637743140258	
17.0	109.20133262860327	pulse	1.0	t		34.0	male	white	2.651014723438122	smiling	121	sub-04	2.0	6.0	121_smiling	0.0		133.96375146361788	
17.0	109.90131913569348	pulse	1.0	t		34.0	male	white	2.651014723438122	smiling	121	sub-04	2.0	6.0	121_smiling	0.0		134.6637379707081	
17.0	110.6012980964133	pulse	1.0	t		34.0	male	white	2.651014723438122	smiling	121	sub-04	2.0	6.0	121_smiling	0.0		135.36371693142792	
17.0	111.30128913132467	pulse	1.0	t		34.0	male	white	2.651014723438122	smiling	121	sub-04	2.0	6.0	121_smiling	0.0		136.06370796633928	
18.0	112.01782513007674	face	0.0		146	30.0	female	black	2.7345801830481498	neutral	062	sub-04	2.0	6.0	062_neutral	0.0		136.78024396509136	1.2333138435733417
18.0	112.00413329787443	pulse	0.0	t		30.0	female	black	2.7345801830481498	neutral	062	sub-04	2.0	6.0	062_neutral	0.0		136.76655213288905	
18.0	112.70126274921495	pulse	0.0	t		30.0	female	black	2.7345801830481498	neutral	062	sub-04	2.0	6.0	062_neutral	0.0		137.46368158422956	
18.0	113.25113897365009	fix	1.0		443	30.0	female	black	2.7345801830481498	neutral	062	sub-04	2.0	6.0	062_neutral	0.0		138.0135578086647	3.7665895628870203
18.0	113.40125318041646	pulse	1.0	t		30.0	female	black	2.7345801830481498	neutral	062	sub-04	2.0	6.0	062_neutral	0.0		138.16367201543108	
18.0	114.10123455597568	pulse	1.0	t		30.0	female	black	2.7345801830481498	neutral	062	sub-04	2.0	6.0	062_neutral	0.0		138.8636533909903	
18.0	114.8012135166955	pulse	1.0	t		30.0	female	black	2.7345801830481498	neutral	062	sub-04	2.0	6.0	062_neutral	0.0		139.5636323517101	
18.0	115.5012060608824	pulse	1.0	t		30.0	female	black	2.7345801830481498	neutral	062	sub-04	2.0	6.0	062_neutral	0.0		140.263624895897	
18.0	116.2011862290201	pulse	1.0	t		30.0	female	black	2.7345801830481498	neutral	062	sub-04	2.0	6.0	062_neutral	0.0		140.9636050640347	
18.0	116.90116881199901	pulse	1.0	t		30.0	female	black	2.7345801830481498	neutral	062	sub-04	2.0	6.0	062_neutral	0.0		141.66358764701363	
19.0	117.0177285365371	face	0.0		146	22.0	male	black	2.767608436132113	smiling	044	sub-04	2.0	6.0	044_smiling	0.0		141.78014737155172	1.2333207862357085
19.0	117.60121025666376	pulse	0.0	t		22.0	male	black	2.767608436132113	smiling	044	sub-04	2.0	6.0	044_smiling	0.0		142.36362909167838	
19.0	118.25104932277281	fix	1.0		443	22.0	male	black	2.767608436132113	smiling	044	sub-04	2.0	6.0	044_smiling	0.0		143.01346815778743	3.758237844080213
19.0	118.30115450408084	pulse	1.0	t		22.0	male	black	2.767608436132113	smiling	044	sub-04	2.0	6.0	044_smiling	0.0		143.06357333909546	
19.0	119.00114070931522	pulse	1.0	t		22.0	male	black	2.767608436132113	smiling	044	sub-04	2.0	6.0	044_smiling	0.0		143.76355954432984	
19.0	119.70111212366646	pulse	1.0	t		22.0	male	black	2.767608436132113	smiling	044	sub-04	2.0	6.0	044_smiling	0.0		144.46353095868108	
19.0	120.40109651777311	pulse	1.0	t		22.0	male	black	2.767608436132113	smiling	044	sub-04	2.0	6.0	044_smiling	0.0		145.16351535278773	
19.0	121.1010851378469	pulse	1.0	t		22.0	male	black	2.767608436132113	smiling	044	sub-04	2.0	6.0	044_smiling	0.0		145.8635039728615	
19.0	121.8010689282437	pulse	1.0	t		22.0	male	black	2.767608436132113	smiling	044	sub-04	2.0	6.0	044_smiling	0.0		146.5634877632583	
20.0	122.00928716685303	face	0.0		146	40.0	female	west_asian	1.5777954635893354	neutral	038	sub-04	2.0	6.0	038_neutral	0.0		146.77170600186764	1.2416408102872083
20.0	122.50105845388134	pulse	0.0	t		40.0	female	west_asian	1.5777954635893354	neutral	038	sub-04	2.0	6.0	038_neutral	0.0		147.26347728889596	
20.0	123.20104164056829	pulse	0.0	t		40.0	female	west_asian	1.5777954635893354	neutral	038	sub-04	2.0	6.0	038_neutral	0.0		147.9634604755829	
20.0	123.25092797714024	fix	1.0		1186	40.0	female	west_asian	1.5777954635893354	neutral	038	sub-04	2.0	6.0	038_neutral	0.0		148.01334681215485	10.016459840784592
20.0	123.90103509031906	pulse	1.0	t		40.0	female	west_asian	1.5777954635893354	neutral	038	sub-04	2.0	6.0	038_neutral	0.0		148.66345392533367	
20.0	124.60101284361917	pulse	1.0	t		40.0	female	west_asian	1.5777954635893354	neutral	038	sub-04	2.0	6.0	038_neutral	0.0		149.3634316786338	
20.0	125.30099361546854	pulse	1.0	t		40.0	female	west_asian	1.5777954635893354	neutral	038	sub-04	2.0	6.0	038_neutral	0.0		150.06341245048316	
20.0	126.00098797078317	pulse	1.0	t		40.0	female	west_asian	1.5777954635893354	neutral	038	sub-04	2.0	6.0	038_neutral	0.0		150.76340680579779	
20.0	126.70096240368184	pulse	1.0	t		40.0	female	west_asian	1.5777954635893354	neutral	038	sub-04	2.0	6.0	038_neutral	0.0		151.46338123869646	
20.0	127.40094679778849	pulse	1.0	t		40.0	female	west_asian	1.5777954635893354	neutral	038	sub-04	2.0	6.0	038_neutral	0.0		152.1633656328031	
20.0	128.1009345122966	pulse	1.0	t		40.0	female	west_asian	1.5777954635893354	neutral	038	sub-04	2.0	6.0	038_neutral	0.0		152.8633533473112	
20.0	128.80091105817883	pulse	1.0	t		40.0	female	west_asian	1.5777954635893354	neutral	038	sub-04	2.0	6.0	038_neutral	0.0		153.56332989319344	
20.0	129.50090933760657	pulse	1.0	t		40.0	female	west_asian	1.5777954635893354	neutral	038	sub-04	2.0	6.0	038_neutral	0.0		154.2633281726212	
20.0	130.20088890203624	pulse	1.0	t		40.0	female	west_asian	1.5777954635893354	neutral	038	sub-04	2.0	6.0	038_neutral	0.0		154.96330773705085	
20.0	130.90086997573962	pulse	1.0	t		40.0	female	west_asian	1.5777954635893354	neutral	038	sub-04	2.0	6.0	038_neutral	0.0		155.66328881075424	
20.0	131.60086885887722	pulse	1.0	t		40.0	female	west_asian	1.5777954635893354	neutral	038	sub-04	2.0	6.0	038_neutral	0.0		156.36328769389183	
20.0	132.30084540475764	pulse	1.0	t		40.0	female	west_asian	1.5777954635893354	neutral	038	sub-04	2.0	6.0	038_neutral	0.0		157.06326423977225	
20.0	133.00084579716895	pulse	1.0	t		40.0	female	west_asian	1.5777954635893354	neutral	038	sub-04	2.0	6.0	038_neutral	0.0		157.76326463218356	
21.0	133.26738781792483	face	0.0		145	21.0	male	east_asian/white	3.501790688420215	neutral	036	sub-04	2.0	6.0	036_neutral	0.0		158.02980665293944	1.233304184221197
21.0	133.70082294676104	pulse	0.0	t		21.0	male	east_asian/white	3.501790688420215	neutral	036	sub-04	2.0	6.0	036_neutral	0.0		158.46324178177565	
21.0	134.40080703901185	pulse	0.0	t		21.0	male	east_asian/white	3.501790688420215	neutral	036	sub-04	2.0	6.0	036_neutral	0.0		159.16322587402647	
21.0	134.50069200214602	fix	1.0		445	21.0	male	east_asian/white	3.501790688420215	neutral	036	sub-04	2.0	6.0	036_neutral	0.0		159.26311083716064	3.7582559553684405
21.0	135.100807733279	pulse	1.0	t		21.0	male	east_asian/white	3.501790688420215	neutral	036	sub-04	2.0	6.0	036_neutral	0.0		159.8632265682936	
21.0	135.8007676771449	pulse	1.0	t		21.0	male	east_asian/white	3.501790688420215	neutral	036	sub-04	2.0	6.0	036_neutral	0.0		160.56318651215952	
21.0	136.5007653528628	pulse	1.0	t		21.0	male	east_asian/white	3.501790688420215	neutral	036	sub-04	2.0	6.0	036_neutral	0.0		161.2631841878774	
21.0	137.20076031188728	pulse	1.0	t		21.0	male	east_asian/white	3.501790688420215	neutral	036	sub-04	2.0	6.0	036_neutral	0.0		161.9631791469019	
21.0	137.9007262928517	pulse	1.0	t		21.0	male	east_asian/white	3.501790688420215	neutral	036	sub-04	2.0	6.0	036_neutral	0.0		162.6631451278663	
22.0	138.25894795751447	face	0.0		146	22.0	female	white	4.614007162753682	neutral	009	sub-04	2.0	6.0	009_neutral	0.0		163.02136679252908	1.2416405084313737
22.0	138.6007242704236	pulse	0.0	t		22.0	female	white	4.614007162753682	neutral	009	sub-04	2.0	6.0	009_neutral	0.0		163.3631431054382	
22.0	139.3007104756598	pulse	0.0	t		22.0	female	white	4.614007162753682	neutral	009	sub-04	2.0	6.0	009_neutral	0.0		164.0631293106744	
22.0	139.50058846594584	fix	1.0		444	22.0	female	white	4.614007162753682	neutral	009	sub-04	2.0	6.0	009_neutral	0.0		164.26300730096045	3.7665717534546275
22.0	140.00070422726458	pulse	1.0	t		22.0	female	white	4.614007162753682	neutral	009	sub-04	2.0	6.0	009_neutral	0.0		164.7631230622792	
22.0	140.7006641711323	pulse	1.0	t		22.0	female	white	4.614007162753682	neutral	009	sub-04	2.0	6.0	009_neutral	0.0		165.46308300614692	
22.0	141.40066546910748	pulse	1.0	t		22.0	female	white	4.614007162753682	neutral	009	sub-04	2.0	6.0	009_neutral	0.0		166.1630843041221	
22.0	142.1006468446667	pulse	1.0	t		22.0	female	white	4.614007162753682	neutral	009	sub-04	2.0	6.0	009_neutral	0.0		166.8630656796813	
22.0	142.80061705159642	pulse	1.0	t		22.0	female	white	4.614007162753682	neutral	009	sub-04	2.0	6.0	009_neutral	0.0		167.56303588661103	
23.0	143.26716021940047	face	0.0		145	28.0	female	white	5.676880222841227	neutral	124	sub-04	2.0	6.0	124_neutral	0.0		168.02957905441508	1.2333222955076053
23.0	143.5006246885223	pulse	0.0	t		28.0	female	white	5.676880222841227	neutral	124	sub-04	2.0	6.0	124_neutral	0.0		168.2630435235369	
23.0	144.2006172327092	pulse	0.0	t		28.0	female	white	5.676880222841227	neutral	124	sub-04	2.0	6.0	124_neutral	0.0		168.9630360677238	
23.0	144.50048251490807	fix	1.0		444	28.0	female	white	5.676880222841227	neutral	124	sub-04	2.0	6.0	124_neutral	0.0		169.26290134992269	3.7665907703067205
23.0	144.90058894891445	pulse	1.0	t		28.0	female	white	5.676880222841227	neutral	124	sub-04	2.0	6.0	124_neutral	0.0		169.66300778392906	
23.0	145.60056428737698	pulse	1.0	t		28.0	female	white	5.676880222841227	neutral	124	sub-04	2.0	6.0	124_neutral	0.0		170.3629831223916	
23.0	146.30055803898176	pulse	1.0	t		28.0	female	white	5.676880222841227	neutral	124	sub-04	2.0	6.0	124_neutral	0.0		171.06297687399638	
23.0	147.00055299800624	pulse	1.0	t		28.0	female	white	5.676880222841227	neutral	124	sub-04	2.0	6.0	124_neutral	0.0		171.76297183302086	
23.0	147.7005171678411	pulse	1.0	t		28.0	female	white	5.676880222841227	neutral	124	sub-04	2.0	6.0	124_neutral	0.0		172.4629360028557	
24.0	148.2670732852148	face	0.0		145	19.0	male	white	2.243931555909272	neutral	130	sub-04	2.0	6.0	130_neutral	0.0		173.0294921202294	1.233307504624463
24.0	148.40052420105712	pulse	0.0	t		19.0	male	white	2.243931555909272	neutral	130	sub-04	2.0	6.0	130_neutral	0.0		173.16294303607174	
24.0	149.10051221742106	pulse	0.0	t		19.0	male	white	2.243931555909272	neutral	130	sub-04	2.0	6.0	130_neutral	0.0		173.86293105243567	
24.0	149.50038078983926	fix	1.0		444	19.0	male	white	2.243931555909272	neutral	130	sub-04	2.0	6.0	130_neutral	0.0		174.26279962485387	3.76658835546732
24.0	149.800490272577	pulse	1.0	t		19.0	male	white	2.243931555909272	neutral	130	sub-04	2.0	6.0	130_neutral	0.0		174.56290910759162	
24.0	150.50046923329683	pulse	1.0	t		19.0	male	white	2.243931555909272	neutral	130	sub-04	2.0	6.0	130_neutral	0.0		175.26288806831144	
24.0	151.20045453296916	pulse	1.0	t		19.0	male	white	2.243931555909272	neutral	130	sub-04	2.0	6.0	130_neutral	0.0		175.96287336798378	
24.0	151.90043681409043	pulse	1.0	t		19.0	male	white	2.243931555909272	neutral	130	sub-04	2.0	6.0	130_neutral	0.0		176.66285564910504	
24.0	152.6004227174708	pulse	1.0	t		19.0	male	white	2.243931555909272	neutral	130	sub-04	2.0	6.0	130_neutral	0.0		177.3628415524854	
25.0	153.26696914530658	face	0.0		145	31.0	male	west_asian	1.9538400318344609	neutral	070	sub-04	2.0	6.0	070_neutral	0.0		178.0293879803212	1.233304787931047
25.0	153.30044333415572	pulse	0.0	t		31.0	male	west_asian	1.9538400318344609	neutral	070	sub-04	2.0	6.0	070_neutral	0.0		178.06286216917033	
25.0	154.00041323923142	pulse	0.0	t		31.0	male	west_asian	1.9538400318344609	neutral	070	sub-04	2.0	6.0	070_neutral	0.0		178.76283207424603	
25.0	154.50027393323762	fix	1.0		443	31.0	male	west_asian	1.9538400318344609	neutral	070	sub-04	2.0	6.0	070_neutral	0.0		179.26269276825224	3.766593185144302
25.0	154.70038737027426	pulse	1.0	t		31.0	male	west_asian	1.9538400318344609	neutral	070	sub-04	2.0	6.0	070_neutral	0.0		179.46280620528887	
25.0	155.4003630105908	pulse	1.0	t		31.0	male	west_asian	1.9538400318344609	neutral	070	sub-04	2.0	6.0	070_neutral	0.0		180.16278184560542	
25.0	156.10035404550217	pulse	1.0	t		31.0	male	west_asian	1.9538400318344609	neutral	070	sub-04	2.0	6.0	070_neutral	0.0		180.8627728805168	
25.0	156.80033874146466	pulse	1.0	t		31.0	male	west_asian	1.9538400318344609	neutral	070	sub-04	2.0	6.0	070_neutral	0.0		181.56275757647927	
25.0	157.50032102258774	pulse	1.0	t		31.0	male	west_asian	1.9538400318344609	neutral	070	sub-04	2.0	6.0	070_neutral	0.0		182.26273985760236	
25.0	158.200303303709	pulse	1.0	t		31.0	male	west_asian	1.9538400318344609	neutral	070	sub-04	2.0	6.0	070_neutral	0.0		182.96272213872362	
26.0	158.26686711838192	face	0.0		146	31.0	female	white	2.1822522881018704	smiling	102	sub-04	2.0	6.0	102_smiling	0.0		183.02928595339654	1.2333011656719464
26.0	158.9003006775729	pulse	0.0	t		31.0	female	white	2.1822522881018704	smiling	102	sub-04	2.0	6.0	102_smiling	0.0		183.6627195125875	
26.0	159.50016828405387	fix	1.0		443	31.0	female	white	2.1822522881018704	smiling	102	sub-04	2.0	6.0	102_smiling	0.0		184.26258711906848	3.7665928832902864
26.0	159.60029110877622	pulse	1.0	t		31.0	female	white	2.1822522881018704	smiling	102	sub-04	2.0	6.0	102_smiling	0.0		184.36270994379083	
26.0	160.3002619194158	pulse	1.0	t		31.0	female	white	2.1822522881018704	smiling	102	sub-04	2.0	6.0	102_smiling	0.0		185.0626807544304	
26.0	161.00025838771398	pulse	1.0	t		31.0	female	white	2.1822522881018704	smiling	102	sub-04	2.0	6.0	102_smiling	0.0		185.7626772227286	
26.0	161.7002358391601	pulse	1.0	t		31.0	female	white	2.1822522881018704	smiling	102	sub-04	2.0	6.0	102_smiling	0.0		186.4626546741747	
26.0	162.40022294996015	pulse	1.0	t		31.0	female	white	2.1822522881018704	smiling	102	sub-04	2.0	6.0	102_smiling	0.0		187.16264178497477	
26.0	163.1002010051161	pulse	1.0	t		31.0	female	white	2.1822522881018704	smiling	102	sub-04	2.0	6.0	102_smiling	0.0		187.86261984013072	
27.0	163.26676116734416	face	0.0		146	26.0	male	white	2.7966573816155993	neutral	117	sub-04	2.0	6.0	117_neutral	0.0		188.02918000235877	1.2333072027686285
27.0	163.80019475672088	pulse	0.0	t		26.0	male	white	2.7966573816155993	neutral	117	sub-04	2.0	6.0	117_neutral	0.0		188.5626135917355	
27.0	164.50006837011279	fix	1.0		444	26.0	male	white	2.7966573816155993	neutral	117	sub-04	2.0	6.0	117_neutral	0.0		189.2624872051274	3.766587751759289
27.0	164.50762138110076	pulse	1.0	t		26.0	male	white	2.7966573816155993	neutral	117	sub-04	2.0	6.0	117_neutral	0.0		189.27004021611538	
27.0	165.20015630041962	pulse	1.0	t		26.0	male	white	2.7966573816155993	neutral	117	sub-04	2.0	6.0	117_neutral	0.0		189.96257513543424	
27.0	165.90013918525074	pulse	1.0	t		26.0	male	white	2.7966573816155993	neutral	117	sub-04	2.0	6.0	117_neutral	0.0		190.66255802026535	
27.0	166.60013444613105	pulse	1.0	t		26.0	male	white	2.7966573816155993	neutral	117	sub-04	2.0	6.0	117_neutral	0.0		191.36255328114567	
27.0	167.30011340685087	pulse	1.0	t		26.0	male	white	2.7966573816155993	neutral	117	sub-04	2.0	6.0	117_neutral	0.0		192.06253224186548	
27.0	168.00010112136079	pulse	1.0	t		26.0	male	white	2.7966573816155993	neutral	117	sub-04	2.0	6.0	117_neutral	0.0		192.7625199563754	
28.0	168.26665612187207	face	0.0		145	23.0	male	white	2.6275368085953046	neutral	141	sub-04	2.0	6.0	141_neutral	0.0		193.0290749568867	1.233304184221197
28.0	168.70009517481958	pulse	0.0	t		23.0	male	white	2.6275368085953046	neutral	141	sub-04	2.0	6.0	141_neutral	0.0		193.4625140098342	
28.0	169.40007745594266	pulse	0.0	t		23.0	male	white	2.6275368085953046	neutral	141	sub-04	2.0	6.0	141_neutral	0.0		194.16249629095728	
28.0	169.49996030609327	fix	1.0		444	23.0	male	white	2.6275368085953046	neutral	141	sub-04	2.0	6.0	141_neutral	0.0		194.26237914110789	3.7665913740147516
28.0	170.10006637787228	pulse	1.0	t		23.0	male	white	2.6275368085953046	neutral	141	sub-04	2.0	6.0	141_neutral	0.0		194.8624852128869	
28.0	170.8000299439973	pulse	1.0	t		23.0	male	white	2.6275368085953046	neutral	141	sub-04	2.0	6.0	141_neutral	0.0		195.5624487790119	
28.0	171.5000291289889	pulse	1.0	t		23.0	male	white	2.6275368085953046	neutral	141	sub-04	2.0	6.0	141_neutral	0.0		196.2624479640035	
28.0	172.20001593793313	pulse	1.0	t		23.0	male	white	2.6275368085953046	neutral	141	sub-04	2.0	6.0	141_neutral	0.0		196.96243477294774	
28.0	172.89999157824968	pulse	1.0	t		23.0	male	white	2.6275368085953046	neutral	141	sub-04	2.0	6.0	141_neutral	0.0		197.6624104132643	
29.0	173.26655168010802	face	0.0		145	28.0	male	east_asian	1.5563072025467568	smiling	005	sub-04	2.0	6.0	005_smiling	0.0		198.02897051512264	1.233304184221197
29.0	173.59999136695114	pulse	0.0	t		28.0	male	east_asian	1.5563072025467568	smiling	005	sub-04	2.0	6.0	005_smiling	0.0		198.36241020196576	
29.0	174.29997545920378	pulse	0.0	t		28.0	male	east_asian	1.5563072025467568	smiling	005	sub-04	2.0	6.0	005_smiling	0.0		199.0623942942184	
29.0	174.49985586432922	fix	1.0		444	28.0	male	east_asian	1.5563072025467568	smiling	005	sub-04	2.0	6.0	005_smiling	0.0		199.26227469934383	3.7665922795804363
29.0	174.9999722293578	pulse	1.0	t		28.0	male	east_asian	1.5563072025467568	smiling	005	sub-04	2.0	6.0	005_smiling	0.0		199.76239106437242	
29.0	175.69993006024015	pulse	1.0	t		28.0	male	east_asian	1.5563072025467568	smiling	005	sub-04	2.0	6.0	005_smiling	0.0		200.46234889525476	
29.0	176.39993135821715	pulse	1.0	t		28.0	male	east_asian	1.5563072025467568	smiling	005	sub-04	2.0	6.0	005_smiling	0.0		201.16235019323176	
29.0	177.09991273377454	pulse	1.0	t		28.0	male	east_asian	1.5563072025467568	smiling	005	sub-04	2.0	6.0	005_smiling	0.0		201.86233156878916	
29.0	177.79988626110753	pulse	1.0	t		28.0	male	east_asian	1.5563072025467568	smiling	005	sub-04	2.0	6.0	005_smiling	0.0		202.56230509612215	
30.0	178.26644814390966	face	0.0		145	25.0	female	west_asian	2.6756864305610826	smiling	064	sub-04	2.0	6.0	064_smiling	0.0		203.02886697892427	1.2333050897850626
30.0	178.49988906835824	pulse	0.0	t		25.0	female	west_asian	2.6756864305610826	smiling	064	sub-04	2.0	6.0	064_smiling	0.0		203.26230790337286	
30.0	179.19986833093208	pulse	0.0	t		25.0	female	west_asian	2.6756864305610826	smiling	064	sub-04	2.0	6.0	064_smiling	0.0		203.9622871659467	
30.0	179.49975323369472	fix	1.0		444	25.0	female	west_asian	2.6756864305610826	smiling	064	sub-04	2.0	6.0	064_smiling	0.0		204.26217206870933	3.7665865443395887
30.0	179.899861176973	pulse	1.0	t		25.0	female	west_asian	2.6756864305610826	smiling	064	sub-04	2.0	6.0	064_smiling	0.0		204.6622800119876	
30.0	180.5998362135815	pulse	1.0	t		25.0	female	west_asian	2.6756864305610826	smiling	064	sub-04	2.0	6.0	064_smiling	0.0		205.36225504859613	
30.0	181.29983419115342	pulse	1.0	t		25.0	female	west_asian	2.6756864305610826	smiling	064	sub-04	2.0	6.0	064_smiling	0.0		206.06225302616804	
30.0	181.9998101333258	pulse	1.0	t		25.0	female	west_asian	2.6756864305610826	smiling	064	sub-04	2.0	6.0	064_smiling	0.0		206.76222896834042	
30.0	182.6997860754982	pulse	1.0	t		25.0	female	west_asian	2.6756864305610826	smiling	064	sub-04	2.0	6.0	064_smiling	0.0		207.4622049105128	
31.0	183.2663397780343	face	0.0		145	32.0	male	white	2.389176283326701	neutral	092	sub-04	2.0	6.0	092_neutral	0.0		208.02875861304892	1.233306900912794
31.0	183.3997912975865	pulse	0.0	t		32.0	male	white	2.389176283326701	neutral	092	sub-04	2.0	6.0	092_neutral	0.0		208.1622101326011	
31.0	184.0997612026622	pulse	0.0	t		32.0	male	white	2.389176283326701	neutral	092	sub-04	2.0	6.0	092_neutral	0.0		208.8621800376768	
31.0	184.4996466789471	fix	1.0		444	32.0	male	white	2.389176283326701	neutral	092	sub-04	2.0	6.0	092_neutral	0.0		209.26206551396172	3.7583054595579597
31.0	184.79975616168667	pulse	1.0	t		32.0	male	white	2.389176283326701	neutral	092	sub-04	2.0	6.0	092_neutral	0.0		209.5621749967013	
31.0	185.49973240571308	pulse	1.0	t		32.0	male	white	2.389176283326701	neutral	092	sub-04	2.0	6.0	092_neutral	0.0		210.2621512407277	
31.0	186.19973460925212	pulse	1.0	t		32.0	male	white	2.389176283326701	neutral	092	sub-04	2.0	6.0	092_neutral	0.0		210.96215344426673	
31.0	186.8997030050541	pulse	1.0	t		32.0	male	white	2.389176283326701	neutral	092	sub-04	2.0	6.0	092_neutral	0.0		211.66212184006872	
31.0	187.5996892102903	pulse	1.0	t		32.0	male	white	2.389176283326701	neutral	092	sub-04	2.0	6.0	092_neutral	0.0		212.36210804530492	
32.0	188.25795213850506	face	0.0		146	37.0	male	white	3.898925586947871	neutral	101	sub-04	2.0	6.0	101_neutral	0.0		213.02037097351968	1.241588589406092
32.0	188.29969503608845	pulse	0.0	t		37.0	male	white	3.898925586947871	neutral	101	sub-04	2.0	6.0	101_neutral	0.0		213.06211387110307	
32.0	188.99967218567872	pulse	0.0	t		37.0	male	white	3.898925586947871	neutral	101	sub-04	2.0	6.0	101_neutral	0.0		213.76209102069333	
32.0	189.49954072791115	fix	1.0		443	37.0	male	white	3.898925586947871	neutral	101	sub-04	2.0	6.0	101_neutral	0.0		214.26195956292577	3.7665934869983175
32.0	189.69965507051165	pulse	1.0	t		37.0	male	white	3.898925586947871	neutral	101	sub-04	2.0	6.0	101_neutral	0.0		214.46207390552627	
32.0	190.39963342752162	pulse	1.0	t		37.0	male	white	3.898925586947871	neutral	101	sub-04	2.0	6.0	101_neutral	0.0		215.16205226253624	
32.0	191.09961963275782	pulse	1.0	t		37.0	male	white	3.898925586947871	neutral	101	sub-04	2.0	6.0	101_neutral	0.0		215.86203846777244	
32.0	191.79959648049407	pulse	1.0	t		37.0	male	white	3.898925586947871	neutral	101	sub-04	2.0	6.0	101_neutral	0.0		216.5620153155087	
32.0	192.4995869116956	pulse	1.0	t		37.0	male	white	3.898925586947871	neutral	101	sub-04	2.0	6.0	101_neutral	0.0		217.2620057467102	
32.0	193.1995719095121	pulse	1.0	t		37.0	male	white	3.898925586947871	neutral	101	sub-04	2.0	6.0	101_neutral	0.0		217.9619907445267	
33.0	193.26613421490947	face	0.0		146	54.0	female	white	2.286908077994429	neutral	136	sub-04	2.0	6.0	136_neutral	1.0	attractiveness	218.02855304992408	1.233301467527781
33.0	193.89956656668255	pulse	0.0	t		54.0	female	white	2.286908077994429	neutral	136	sub-04	2.0	6.0	136_neutral	1.0	attractiveness	218.66198540169717	
33.0	194.49943568243725	fix	1.0		177	54.0	female	white	2.286908077994429	neutral	136	sub-04	2.0	6.0	136_neutral	1.0	attractiveness	219.26185451745187	1.499971474720951
33.0	194.59955005522352	pulse	1.0	t		54.0	female	white	2.286908077994429	neutral	136	sub-04	2.0	6.0	136_neutral	1.0	attractiveness	219.36196889023813	
33.0	195.2995311289269	pulse	1.0	t		54.0	female	white	2.286908077994429	neutral	136	sub-04	2.0	6.0	136_neutral	1.0	attractiveness	220.06194996394152	
33.0	195.9994071571582	rating	2.0		294	54.0	female	white	2.286908077994429	neutral	136	sub-04	2.0	6.0	136_neutral	1.0	attractiveness	220.76182599217282	2.499945515206491
33.0	196.0072822472248	pulse	2.0	t		54.0	female	white	2.286908077994429	neutral	136	sub-04	2.0	6.0	136_neutral	1.0	attractiveness	220.7697010822394	
33.0	196.69951018020402	pulse	2.0	t		54.0	female	white	2.286908077994429	neutral	136	sub-04	2.0	6.0	136_neutral	1.0	attractiveness	221.46192901521863	
33.0	197.07759570231065	response	2.0	n		54.0	female	white	2.286908077994429	neutral	136	sub-04	2.0	6.0	136_neutral	1.0	attractiveness	221.84001453732526	
33.0	197.3994683129422	pulse	2.0	t		54.0	female	white	2.286908077994429	neutral	136	sub-04	2.0	6.0	136_neutral	1.0	attractiveness	222.1618871479568	
33.0	198.09947021462722	pulse	2.0	t		54.0	female	white	2.286908077994429	neutral	136	sub-04	2.0	6.0	136_neutral	1.0	attractiveness	222.86188904964183	
33.0	198.4993526723647	fix	3.0		444	54.0	female	white	2.286908077994429	neutral	136	sub-04	2.0	6.0	136_neutral	1.0	attractiveness	223.2617715073793	3.7665907703067205
33.0	198.79946547550753	pulse	3.0	t		54.0	female	white	2.286908077994429	neutral	136	sub-04	2.0	6.0	136_neutral	1.0	attractiveness	223.56188431052215	
33.0	199.49944715292077	pulse	3.0	t		54.0	female	white	2.286908077994429	neutral	136	sub-04	2.0	6.0	136_neutral	1.0	attractiveness	224.26186598793538	
33.0	200.19944120637956	pulse	3.0	t		54.0	female	white	2.286908077994429	neutral	136	sub-04	2.0	6.0	136_neutral	1.0	attractiveness	224.96186004139417	
33.0	200.8994035650867	pulse	3.0	t		54.0	female	white	2.286908077994429	neutral	136	sub-04	2.0	6.0	136_neutral	1.0	attractiveness	225.6618224001013	
33.0	201.59939852411117	pulse	3.0	t		54.0	female	white	2.286908077994429	neutral	136	sub-04	2.0	6.0	136_neutral	1.0	attractiveness	226.36181735912578	
34.0	202.26594344267141	face	0.0		145	40.0	male	black	2.408674890569041	smiling	061	sub-04	2.0	6.0	061_smiling	0.0		227.02836227768603	1.2333053916408971
34.0	202.29941038700417	pulse	0.0	t		40.0	male	black	2.408674890569041	smiling	061	sub-04	2.0	6.0	061_smiling	0.0		227.0618292220188	
34.0	202.99936761417848	pulse	0.0	t		40.0	male	black	2.408674890569041	smiling	061	sub-04	2.0	6.0	061_smiling	0.0		227.7617864491931	
34.0	203.4992488343123	fix	1.0		443	40.0	male	black	2.408674890569041	smiling	061	sub-04	2.0	6.0	061_smiling	0.0		228.26166766932693	3.76658835546732
34.0	203.69936378062266	pulse	1.0	t		40.0	male	black	2.408674890569041	smiling	061	sub-04	2.0	6.0	061_smiling	0.0		228.46178261563728	
34.0	204.39934847658333	pulse	1.0	t		40.0	male	black	2.408674890569041	smiling	061	sub-04	2.0	6.0	061_smiling	0.0		229.16176731159794	
34.0	205.09932079649843	pulse	1.0	t		40.0	male	black	2.408674890569041	smiling	061	sub-04	2.0	6.0	061_smiling	0.0		229.86173963151305	
34.0	205.799296738669	pulse	1.0	t		40.0	male	black	2.408674890569041	smiling	061	sub-04	2.0	6.0	061_smiling	0.0		230.5617155736836	
34.0	206.49929743293615	pulse	1.0	t		40.0	male	black	2.408674890569041	smiling	061	sub-04	2.0	6.0	061_smiling	0.0		231.26171626795076	
34.0	207.19928243075265	pulse	1.0	t		40.0	male	black	2.408674890569041	smiling	061	sub-04	2.0	6.0	061_smiling	0.0		231.96170126576726	
35.0	207.26583718977963	face	0.0		146	19.0	female	white	4.298846000795861	smiling	100	sub-04	2.0	6.0	100_smiling	0.0		232.02825602479425	1.233304787931047
35.0	207.8992746730837	pulse	0.0	t		19.0	female	white	4.298846000795861	smiling	100	sub-04	2.0	6.0	100_smiling	0.0		232.66169350809832	
35.0	208.49914197771068	fix	1.0		444	19.0	female	white	4.298846000795861	smiling	100	sub-04	2.0	6.0	100_smiling	0.0		233.2615608127253	3.774927396370913
35.0	208.59925785977066	pulse	1.0	t		19.0	female	white	4.298846000795861	smiling	100	sub-04	2.0	6.0	100_smiling	0.0		233.36167669478527	
35.0	209.2992688170998	pulse	1.0	t		19.0	female	white	4.298846000795861	smiling	100	sub-04	2.0	6.0	100_smiling	0.0		234.06168765211441	
35.0	209.99922302572486	pulse	1.0	t		19.0	female	white	4.298846000795861	smiling	100	sub-04	2.0	6.0	100_smiling	0.0		234.76164186073947	
35.0	210.69919745862353	pulse	1.0	t		19.0	female	white	4.298846000795861	smiling	100	sub-04	2.0	6.0	100_smiling	0.0		235.46161629363814	
35.0	211.399197247325	pulse	1.0	t		19.0	female	white	4.298846000795861	smiling	100	sub-04	2.0	6.0	100_smiling	0.0		236.1616160823396	
35.0	212.09917771731853	pulse	1.0	t		19.0	female	white	4.298846000795861	smiling	100	sub-04	2.0	6.0	100_smiling	0.0		236.86159655233314	
36.0	212.2740693740816	face	0.0		146	31.0	female	east_asian	3.395941106247513	smiling	087	sub-04	2.0	6.0	087_smiling	0.0		237.0364882090962	1.2416399047233426
36.0	212.79917026150542	pulse	0.0	t		31.0	female	east_asian	3.395941106247513	smiling	087	sub-04	2.0	6.0	087_smiling	0.0		237.56158909652004	
36.0	213.4991462036778	pulse	0.0	t		31.0	female	east_asian	3.395941106247513	smiling	087	sub-04	2.0	6.0	087_smiling	0.0		238.26156503869242	
36.0	213.51570927880493	fix	1.0		443	31.0	female	east_asian	3.395941106247513	smiling	087	sub-04	2.0	6.0	087_smiling	0.0		238.27812811381955	3.758255653514425
36.0	214.19913904971872	pulse	1.0	t		31.0	female	east_asian	3.395941106247513	smiling	087	sub-04	2.0	6.0	087_smiling	0.0		238.96155788473334	
36.0	214.89912223640567	pulse	1.0	t		31.0	female	east_asian	3.395941106247513	smiling	087	sub-04	2.0	6.0	087_smiling	0.0		239.6615410714203	
36.0	215.59909938599594	pulse	1.0	t		31.0	female	east_asian	3.395941106247513	smiling	087	sub-04	2.0	6.0	087_smiling	0.0		240.36151822101056	
36.0	216.2990925338927	pulse	1.0	t		31.0	female	east_asian	3.395941106247513	smiling	087	sub-04	2.0	6.0	087_smiling	0.0		241.0615113689073	
36.0	216.9990838706599	pulse	1.0	t		31.0	female	east_asian	3.395941106247513	smiling	087	sub-04	2.0	6.0	087_smiling	0.0		241.7615027056745	
37.0	217.27396493231936	face	0.0		145	24.0	female	east_asian	2.9076800636689217	smiling	034	sub-04	2.0	6.0	034_smiling	0.0		242.03638376733397	1.2333017693817965
37.0	217.69906826476654	pulse	0.0	t		24.0	female	east_asian	2.9076800636689217	smiling	034	sub-04	2.0	6.0	034_smiling	0.0		242.46148709978115	
37.0	218.39904330137324	pulse	0.0	t		24.0	female	east_asian	2.9076800636689217	smiling	034	sub-04	2.0	6.0	034_smiling	0.0		243.16146213638785	
37.0	218.50726670170116	fix	1.0		444	24.0	female	east_asian	2.9076800636689217	smiling	034	sub-04	2.0	6.0	034_smiling	0.0		243.26968553671577	3.75829368722043
37.0	219.09904037338129	pulse	1.0	t		24.0	female	east_asian	2.9076800636689217	smiling	034	sub-04	2.0	6.0	034_smiling	0.0		243.8614592083959	
37.0	219.7990142025701	pulse	1.0	t		24.0	female	east_asian	2.9076800636689217	smiling	034	sub-04	2.0	6.0	034_smiling	0.0		244.56143303758472	
37.0	220.4990016152242	pulse	1.0	t		24.0	female	east_asian	2.9076800636689217	smiling	034	sub-04	2.0	6.0	034_smiling	0.0		245.2614204502388	
37.0	221.19899234828154	pulse	1.0	t		24.0	female	east_asian	2.9076800636689217	smiling	034	sub-04	2.0	6.0	034_smiling	0.0		245.96141118329615	
37.0	221.8989743275506	pulse	1.0	t		24.0	female	east_asian	2.9076800636689217	smiling	034	sub-04	2.0	6.0	034_smiling	0.0		246.66139316256522	
38.0	222.26556038892159	face	0.0		146	21.0	male	black	2.969757262236371	smiling	137	sub-04	2.0	6.0	137_smiling	0.0		247.0279792239362	1.2416057951286348
38.0	222.59896807915538	pulse	0.0	t		21.0	male	black	2.969757262236371	smiling	137	sub-04	2.0	6.0	137_smiling	0.0		247.36138691417	
38.0	223.2989455306015	pulse	0.0	t		21.0	male	black	2.969757262236371	smiling	137	sub-04	2.0	6.0	137_smiling	0.0		248.0613643656161	
38.0	223.50716618405022	fix	1.0		444	21.0	male	black	2.969757262236371	smiling	137	sub-04	2.0	6.0	137_smiling	0.0		248.26958501906483	3.7665892610330047
38.0	223.9989471304325	pulse	1.0	t		21.0	male	black	2.969757262236371	smiling	137	sub-04	2.0	6.0	137_smiling	0.0		248.7613659654471	
38.0	224.6989155262345	pulse	1.0	t		21.0	male	black	2.969757262236371	smiling	137	sub-04	2.0	6.0	137_smiling	0.0		249.4613343612491	
38.0	225.3988993166313	pulse	1.0	t		21.0	male	black	2.969757262236371	smiling	137	sub-04	2.0	6.0	137_smiling	0.0		250.1613181516459	
38.0	226.09890091646048	pulse	1.0	t		21.0	male	black	2.969757262236371	smiling	137	sub-04	2.0	6.0	137_smiling	0.0		250.8613197514751	
38.0	226.7988644825855	pulse	1.0	t		21.0	male	black	2.969757262236371	smiling	137	sub-04	2.0	6.0	137_smiling	0.0		251.5612833176001	
39.0	227.27375544508322	face	0.0		145	24.0	female	black	3.0955033824114606	neutral	099	sub-04	2.0	6.0	099_neutral	0.0		252.03617428009784	1.2333038823653624
39.0	227.49886336572308	pulse	0.0	t		24.0	female	black	3.0955033824114606	neutral	099	sub-04	2.0	6.0	099_neutral	0.0		252.2612822007377	
39.0	228.19883930789547	pulse	0.0	t		24.0	female	black	3.0955033824114606	neutral	099	sub-04	2.0	6.0	099_neutral	0.0		252.96125814291008	
39.0	228.5070593274486	fix	1.0		444	24.0	female	black	3.0955033824114606	neutral	099	sub-04	2.0	6.0	099_neutral	0.0		253.2694781624632	3.7499341201892094
39.0	228.89883275764623	pulse	1.0	t		24.0	female	black	3.0955033824114606	neutral	099	sub-04	2.0	6.0	099_neutral	0.0		253.66125159266085	
39.0	229.59881956659046	pulse	1.0	t		24.0	female	black	3.0955033824114606	neutral	099	sub-04	2.0	6.0	099_neutral	0.0		254.36123840160508	
39.0	230.29879581061687	pulse	1.0	t		24.0	female	black	3.0955033824114606	neutral	099	sub-04	2.0	6.0	099_neutral	0.0		255.06121464563148	
39.0	230.9987925807709	pulse	1.0	t		24.0	female	black	3.0955033824114606	neutral	099	sub-04	2.0	6.0	099_neutral	0.0		255.7612114157855	
39.0	231.69876580624987	pulse	1.0	t		24.0	female	black	3.0955033824114606	neutral	099	sub-04	2.0	6.0	099_neutral	0.0		256.4611846412645	
40.0	232.2569934476378	fix	0.0		720													257.0194122826524	5.9998602412233595
40.0	232.39882023067184	pulse	0.0	t														257.16123906568646	
40.0	233.0988302824353	pulse	0.0	t														257.8612491174499	
40.0	233.7987938485603	pulse	0.0	t														258.5612126835749	
40.0	234.49871636243188	pulse	0.0	t														259.2611351974465	
40.0	235.19869290831411	pulse	0.0	t														259.96111174332873	
40.0	235.89867458572735	pulse	0.0	t														260.66109342074196	
40.0	236.59866833733213	pulse	0.0	t														261.36108717234674	
40.0	237.29864850547165	pulse	0.0	t														262.06106734048626	
40.0	237.99864376635014	pulse	0.0	t														262.76106260136476	
