trial_nr	onset	event_type	phase	response	nr_frames	rating_type	face_id	repetition	session	rating	onset_abs	duration
0.0	0.010050917160924655	cue	0.0		479						36.07990052015907	3.9921604838398252
0.0	4.00221140100075	fix	1.0		120						40.0720610039989	1.0251361976702356
0.0	5.0273475986709855	face	0.0		146	trustworthiness	042	1.0	2		41.09719720166913	1.2753547418039943
0.0	6.30270234047498	rating	1.0		571	trustworthiness	042	1.0	2		42.37255194347313	4.767015653072576
0.0	11.069717993547556	fix	2.0		60	trustworthiness	042	1.0	2	0.5599999999999996	47.1395675965457	0.5167382469137465
1.0	11.586456240461303	face	0.0		147	trustworthiness	062	1.0	2		47.65630584345945	1.2334793916504623
1.0	12.819935632111765	rating	1.0		303	trustworthiness	062	1.0	2		48.88978523510991	2.533633459227758
1.0	15.353569091339523	fix	2.0		60	trustworthiness	062	1.0	2	-0.5800000000000001	51.42341869433767	0.5167548490233003
2.0	15.870323940362823	face	0.0		147	trustworthiness	101	1.0	2		51.94017354336097	1.2334652043930419
2.0	17.103789144755865	rating	1.0		125	trustworthiness	101	1.0	2		53.17363874775401	1.0501522564379684
2.0	18.153941401193833	fix	2.0		60	trustworthiness	101	1.0	2	1.8899999999999997	54.22379100419198	0.5167237578000368
3.0	18.67066515899387	face	0.0		147	trustworthiness	064	1.0	2		54.74051476199202	1.2334573561231537
3.0	19.904122515117024	rating	1.0		87	trustworthiness	064	1.0	2		55.97397211811517	0.7334205296253913
3.0	20.637543044742415	fix	2.0		60	trustworthiness	064	1.0	2	0.9500000000000002	56.70739264774056	0.5167539434537503
4.0	21.154296988196165	face	0.0		147	trustworthiness	136	1.0	2		57.22414659119431	1.2334621858278751
4.0	22.38775917402404	rating	1.0		281	trustworthiness	136	1.0	2		58.45760877702219	2.350282477348628
4.0	24.73804165137267	fix	2.0		60	trustworthiness	136	1.0	2	-0.4700000000000002	60.807891254370816	0.5167596787280218
5.0	25.25480133010069	face	0.0		147	trustworthiness	092	1.0	2		61.32465093309884	1.2334507152793321
5.0	26.488252045380023	rating	1.0		49	trustworthiness	092	1.0	2		62.55810164837817	0.4167144606185502
5.0	26.904966505998573	fix	2.0		60	trustworthiness	092	1.0	2	1.5099999999999998	62.97481610899672	0.5167551508800443
6.0	27.421721656878617	face	0.0		147	trustworthiness	099	1.0	2		63.491571259876764	1.2334615821146144
6.0	28.65518323899323	rating	1.0		2041	trustworthiness	099	1.0	2		64.72503284199138	17.018722048084555
6.0	45.67390528707779	fix	2.0		60	trustworthiness	099	1.0	2	0.0	81.74375489007593	0.5167521323144229
7.0	46.19065741939221	face	0.0		147	trustworthiness	009	1.0	2		82.26050702239036	1.2334676192454026
7.0	47.42412503863761	rating	1.0		76	trustworthiness	009	1.0	2		83.49397464163576	0.6417379450574572
7.0	48.06586298369507	fix	2.0		60	trustworthiness	009	1.0	2	0.0	84.13571258669322	0.5167578675886944
8.0	48.582620851283764	face	0.0		147	trustworthiness	126	1.0	2		84.65247045428191	1.2334630913974252
8.0	49.81608394268119	rating	1.0		334	trustworthiness	126	1.0	2		85.88593354567934	2.791994885342774
8.0	52.60807882802396	fix	2.0		60	trustworthiness	126	1.0	2	0.9699999999999998	88.67792843102211	0.5167539434537503
9.0	53.12483277147771	face	0.0		147	trustworthiness	066	1.0	2		89.19468237447586	1.2334612802580978
9.0	54.35829405173581	rating	1.0		55	trustworthiness	066	1.0	2		90.42814365473396	0.46671669435704644
9.0	54.82501074609286	fix	2.0		60	trustworthiness	066	1.0	2	1.2800000000000002	90.894860349091	0.5167596787280218
10.0	55.34177042482088	face	0.0		147	trustworthiness	036	1.0	2		91.41162002781903	1.2334591672622537
10.0	56.57522959208313	rating	1.0		178	trustworthiness	036	1.0	2		92.64507919508128	1.4918411196222223
10.0	58.067070711705355	fix	2.0		60	trustworthiness	036	1.0	2	0.0	94.1369203147035	0.5167497174622895
11.0	58.583820429167645	face	0.0		147	trustworthiness	102	1.0	2		94.65367003216579	1.2334706378107967
11.0	59.81729106697844	rating	1.0		60	trustworthiness	102	1.0	2		95.88714066997659	0.5084024786042391
11.0	60.32569354558268	fix	2.0		60	trustworthiness	102	1.0	2	1.9699999999999998	96.39554314858083	0.5167681307111707
12.0	60.84246167629385	face	0.0		147	trustworthiness	061	1.0	2		96.912311279292	1.2334347168828117
12.0	62.07589639317666	rating	1.0		276	trustworthiness	061	1.0	2		98.14574599617481	2.308603937658063
12.0	64.38450033083473	fix	2.0		60	trustworthiness	061	1.0	2	0.6900000000000004	100.45434993383287	0.516755452736561
13.0	64.90125578357129	face	0.0		147	trustworthiness	038	1.0	2		100.97110538656943	1.2334658081063026
13.0	66.13472159167759	rating	1.0		94	trustworthiness	038	1.0	2		102.20457119467574	0.7917576261033901
13.0	66.92647921778098	fix	2.0		60	trustworthiness	038	1.0	2	0.8600000000000003	102.99632882077913	0.5167509248885835
14.0	67.44323014266956	face	0.0		147	trustworthiness	100	1.0	2		103.51307974566771	1.2334612802580978
14.0	68.67669142292766	rating	1.0		111	trustworthiness	100	1.0	2		104.74654102592581	0.9334502926801633
14.0	69.61014171560782	fix	2.0		60	trustworthiness	100	1.0	2	1.4699999999999998	105.67999131860597	0.5167482081794788
15.0	70.1268899237873	face	0.0		147	trustworthiness	141	1.0	2		106.19673952678545	1.2334627895406811
15.0	71.36035271332798	rating	1.0		144	trustworthiness	141	1.0	2		107.43020231632613	1.2084751052875617
15.0	72.56882781861555	fix	2.0		60	trustworthiness	141	1.0	2	1.9100000000000001	108.63867742161369	0.5167636028631932
16.0	73.08559142147874	face	0.0		147	trustworthiness	012	1.0	2		109.15544102447689	1.2334537338444989
16.0	74.31904515532324	rating	1.0		66	trustworthiness	012	1.0	2		110.38889475832138	0.5584113531867843
16.0	74.87745650851002	fix	2.0		60	trustworthiness	012	1.0	2	-1.13	110.94730611150817	0.5167406617661072
17.0	75.39419717027613	face	0.0		147	trustworthiness	172	1.0	2		111.46404677327428	1.233456752409893
17.0	76.62765392268602	rating	1.0		45	trustworthiness	172	1.0	2		112.69750352568417	0.3833756133726638
17.0	77.01102953605869	fix	2.0		60	trustworthiness	172	1.0	2	2.3200000000000003	113.08087913905683	0.5167617917236385
18.0	77.52779132778232	face	0.0		147	trustworthiness	044	1.0	2		113.59764093078047	1.2334531301316929
18.0	78.76124445791402	rating	1.0		65	trustworthiness	044	1.0	2		114.83109406091216	0.5417358924328255
18.0	79.30298035034684	fix	2.0		60	trustworthiness	044	1.0	2	-0.7400000000000002	115.37282995334499	0.5167454914706013
19.0	79.81972584181744	face	0.0		147	trustworthiness	121	1.0	2		115.88957544481559	1.2334594691189977
19.0	81.05318531093644	rating	1.0		36	trustworthiness	121	1.0	2		117.12303491393459	0.3083727155496945
19.0	81.36155802648614	fix	2.0		60	trustworthiness	121	1.0	2	0.0	117.43140762948428	0.5167581694454384
20.0	81.87831619593157	face	0.0		147	trustworthiness	018	1.0	2		117.94816579892972	1.2334585635492203
20.0	83.1117747594808	rating	1.0		50	trustworthiness	018	1.0	2		119.18162436247894	0.4250450973668194
20.0	83.53681985684761	fix	2.0		60	trustworthiness	018	1.0	2	2.5300000000000002	119.60666945984576	0.5167684325676873
21.0	84.0535882894153	face	0.0		147	trustworthiness	027	1.0	2		120.12343789241345	1.2334546394142762
21.0	85.28704292882958	rating	1.0		49	trustworthiness	027	1.0	2		121.35689253182773	0.41670963091382873
21.0	85.7037525597434	fix	2.0		60	trustworthiness	027	1.0	2	0.0	121.77360216274155	0.5167497174622895
22.0	86.2205022772057	face	0.0		147	trustworthiness	091	1.0	2		122.29035188020384	1.2334615821146144
22.0	87.45396385932031	rating	1.0		77	trustworthiness	091	1.0	2		123.52381346231846	0.6500779393584253
22.0	88.10404179867874	fix	2.0		60	trustworthiness	091	1.0	2	-0.4700000000000002	124.17389140167688	0.5167605842975718
23.0	88.62080238297631	face	0.0		147	trustworthiness	006	1.0	2		124.69065198597445	1.2334522245619155
23.0	89.85425460753822	rating	1.0		73	trustworthiness	006	1.0	2		125.92410421053637	0.6167472422387164
23.0	90.47100184977694	fix	2.0		60	trustworthiness	006	1.0	2	0.0	126.54085145277509	0.5167394543400405
24.0	90.98774130411698	face	0.0		147	trustworthiness	070	1.0	2		127.05759090711513	1.2334694303845026
24.0	92.22121073450148	rating	1.0		327	trustworthiness	070	1.0	2		128.29106033749963	2.733658090721292
24.0	94.95486882522277	fix	2.0		60	trustworthiness	070	1.0	2	-1.4100000000000001	131.02471842822092	0.5167560564495943
25.0	95.47162488167237	face	0.0		147	trustworthiness	005	1.0	2		131.54147448467052	1.233461883971131
25.0	96.7050867656435	rating	1.0		52	trustworthiness	005	1.0	2		132.77493636864165	0.44171723769864
25.0	97.14680400334214	fix	2.0		60	trustworthiness	005	1.0	2	1.83	133.2166536063403	0.5167515286016169
26.0	97.66355553194376	face	0.0		147	trustworthiness	117	1.0	2		133.7334051349419	1.2334685248149526
26.0	98.89702405675871	rating	1.0		51	trustworthiness	117	1.0	2		134.96687365975686	0.4333745266890219
26.0	99.33039858344773	fix	2.0		60	trustworthiness	117	1.0	2	-0.6000000000000001	135.40024818644588	0.5167530378842002
27.0	99.84715162133193	face	0.0		147	trustworthiness	034	1.0	2		135.91700122433008	1.2334649025365252
27.0	101.08061652386846	rating	1.0		70	trustworthiness	034	1.0	2		137.1504661268666	0.5917332964666002
27.0	101.67234982033506	fix	2.0		60	trustworthiness	034	1.0	2	0.0	137.7421994233332	0.5167626972934158
28.0	102.18911251762847	face	0.0		147	trustworthiness	082	1.0	2		138.25896212062662	1.2334501115660714
28.0	103.42256262919454	rating	1.0		56	trustworthiness	082	1.0	2		139.4924122321927	0.4750515570967764
28.0	103.89761418629132	fix	2.0		60	trustworthiness	082	1.0	2	0.7199999999999998	139.96746378928947	0.5167527360276836
29.0	104.414366922319	face	0.0		147	trustworthiness	011	1.0	2		140.48421652531715	1.2334633932539418
29.0	105.64783031557295	rating	1.0		37	trustworthiness	011	1.0	2		141.7176799185711	0.3167009374456029
29.0	105.96453125301855	fix	2.0		60	trustworthiness	011	1.0	2	-1.58	142.0343808560167	0.5167539434539776
30.0	106.48128519647253	face	0.0		147	trustworthiness	043	1.0	2		142.55113479947067	1.2334630913971978
30.0	107.71474828786972	rating	1.0		97	trustworthiness	043	1.0	2		143.78459789086787	0.816763723605618
30.0	108.53151201147534	fix	2.0		60	trustworthiness	043	1.0	2	0.8899999999999997	144.6013616144735	0.5167892606689293
31.0	109.04830127214427	face	0.0		147	trustworthiness	137	1.0	2		145.11815087514242	1.2334235481907854
31.0	110.28172482033506	rating	1.0		51	trustworthiness	137	1.0	2		146.3515744233332	0.4333947510770031
31.0	110.71511957141206	fix	2.0		60	trustworthiness	137	1.0	2	1.67	146.7849691744102	0.5167503211753228
32.0	111.23186989258738	face	0.0		147	trustworthiness	087	1.0	2		147.30171949558553	1.2334555449838263
32.0	112.46532543757121	rating	1.0		46	trustworthiness	087	1.0	2		148.53517504056936	0.3917092686860997
32.0	112.85703470625731	fix	2.0		60	trustworthiness	087	1.0	2	-1.0	148.92688430925546	0.5167521323146502
33.0	113.37378683857196	face	0.0		147	trustworthiness	144	1.0	2		149.4436364415701	1.2334627895409085
33.0	114.60724962811287	rating	1.0		56	trustworthiness	144	1.0	2		150.67709923111101	0.4750542738054264
33.0	115.0823039019183	fix	2.0		60	trustworthiness	144	1.0	2	1.2400000000000002	151.15215350491644	0.5167539434539776
34.0	115.59905784537227	face	0.0		147	trustworthiness	130	1.0	2		151.66890744837042	1.2334573561231537
34.0	116.83251520149543	rating	1.0		93	trustworthiness	130	1.0	2		152.90236480449357	0.7834242726464709
34.0	117.6159394741419	fix	2.0		60	trustworthiness	130	1.0	2	0.40000000000000036	153.68578907714004	0.5167554527363336
35.0	118.13269492687823	face	0.0		147	trustworthiness	124	1.0	2		154.20254452987638	1.233460072832031
35.0	119.36615499971026	rating	1.0		77	trustworthiness	124	1.0	2		155.4360046027084	0.6500812597801087
35.0	120.01623625949037	fix	2.0		60	trustworthiness	124	1.0	2	-1.4500000000000002	156.08608586248852	0.516757565732405
36.0	120.53299382522277	face	0.0		147	trustworthiness	033	1.0	2		156.60284342822092	1.2334534319879822
36.0	121.76644725721076	rating	1.0		70	trustworthiness	033	1.0	2		157.8362968602089	0.5917586524158196
36.0	122.35820590962658	fix	2.0		60	trustworthiness	033	1.0	2	-1.2999999999999998	158.42805551262472	0.5167370394876798
37.0	122.87494294911426	face	0.0		147	trustworthiness	030	1.0	2		158.9447925521124	1.2334513189923655
37.0	124.10839426810662	rating	1.0		64	trustworthiness	030	1.0	2		160.17824387110477	0.5417304590150707
37.0	124.65012472712169	fix	2.0		60	trustworthiness	030	1.0	2	-0.6600000000000001	160.71997433011984	0.5167557545930777
38.0	125.16688048171477	face	0.0		147	trustworthiness	039	1.0	2		161.23673008471292	1.2334585635492203
38.0	126.40033904526399	rating	1.0		40	trustworthiness	039	1.0	2		162.47018864826214	0.34171186465232495
38.0	126.74205090991632	fix	2.0		60	trustworthiness	039	1.0	2	0.16999999999999993	162.81190051291446	0.5167457933273454
39.0	127.25879670324366	face	0.0		147	trustworthiness	024	1.0	2		163.3286463062418	1.233467317388886
39.0	128.49226402063255	rating	1.0		91	trustworthiness	024	1.0	2		164.5621136236307	0.7667533397407169
39.0	129.25901736037326	fix	2.0		60	trustworthiness	024	1.0	2	2.41	165.3288669633714	0.5000618805904651
40.0	129.75907924096373	cue	0.0		480						165.82892884396188	4.0004817630353955
40.0	133.75956100399912	fix	1.0		120						169.82941060699727	1.016814012904888
40.0	134.776375016904	face	0.0		147	attractiveness	036	1.0	2		170.84622461990216	1.2334591672622537
40.0	136.00983418416627	rating	1.0		46	attractiveness	036	1.0	2		172.0796837871644	0.39171409839082116
40.0	136.4015482825571	fix	2.0		60	attractiveness	036	1.0	2	1.7199999999999998	172.47139788555523	0.5167614898673492
41.0	136.91830977242444	face	0.0		147	attractiveness	136	1.0	2		172.98815937542258	1.2334528282749488
41.0	138.15176260069939	rating	1.0		44	attractiveness	136	1.0	2		174.22161220369753	0.37504105248922315
41.0	138.5268036531886	fix	2.0		60	attractiveness	136	1.0	2	-1.7400000000000002	174.59665325618676	0.5167651121457766
42.0	139.04356876533438	face	0.0		147	attractiveness	070	1.0	2		175.11341836833253	1.2334513189923655
42.0	140.27702008432675	rating	1.0		58	attractiveness	070	1.0	2		176.3468696873249	0.4917206788632029
42.0	140.76874076318995	fix	2.0		60	attractiveness	070	1.0	2	-2.42	176.8385903661881	0.5167575657321777
43.0	141.28549832892213	face	0.0		147	attractiveness	121	1.0	2		177.35534793192028	1.233458261692931
43.0	142.51895659061506	rating	1.0		72	attractiveness	121	1.0	2		178.5888061936132	0.6084181147730305
43.0	143.1273747053881	fix	2.0		60	attractiveness	121	1.0	2	-0.41000000000000014	179.19722430838624	0.5167367376311631
44.0	143.64411144301926	face	0.0		147	attractiveness	011	1.0	2		179.7139610460174	1.2334667136756252
44.0	144.87757815669488	rating	1.0		43	attractiveness	011	1.0	2		180.94742775969303	0.3667052841799432
44.0	145.24428344087482	fix	2.0		60	attractiveness	011	1.0	2	-0.96	181.31413304387297	0.5167575657321777
45.0	145.761041006607	face	0.0		147	attractiveness	033	1.0	2		181.83089060960515	1.2334546394142762
45.0	146.99449564602128	rating	1.0		44	attractiveness	033	1.0	2		183.06434524901942	0.3750443729111339
45.0	147.3695400189324	fix	2.0		60	attractiveness	033	1.0	2	-1.75	183.43938962193056	0.516755452736561
46.0	147.88629547166897	face	0.0		147	attractiveness	039	1.0	2		183.95614507466712	1.2334576579796703
46.0	149.11975312964864	rating	1.0		43	attractiveness	039	1.0	2		185.1896027326468	0.3667092083148873
46.0	149.48646233796353	fix	2.0		60	attractiveness	039	1.0	2	0.0	185.55631194096168	0.5167533397407169
47.0	150.00321567770425	face	0.0		147	attractiveness	137	1.0	2		186.0730652807024	1.2334585635492203
47.0	151.23667424125347	rating	1.0		37	attractiveness	137	1.0	2		187.30652384425161	0.31670335229796365
47.0	151.55337759355143	fix	2.0		60	attractiveness	137	1.0	2	2.0300000000000002	187.62322719654958	0.5167533397407169
48.0	152.07013093329215	face	0.0		147	attractiveness	018	1.0	2		188.1399805362903	1.2334627895409085
48.0	153.30359372283306	rating	1.0		53	attractiveness	018	1.0	2		189.3734433258312	0.45009949191489795
48.0	153.75369321474795	fix	2.0		60	attractiveness	018	1.0	2	2.88	189.8235428177461	0.5167113816819437
49.0	154.2704045964299	face	0.0		147	attractiveness	117	1.0	2		190.34025419942805	1.2334567524101203
49.0	155.50386134884002	rating	1.0		50	attractiveness	117	1.0	2		191.57371095183817	0.42504932335828016
49.0	155.9289106721983	fix	2.0		60	attractiveness	117	1.0	2	0.9699999999999998	191.99876027519645	0.5167506230318395
50.0	156.44566129523014	face	0.0		147	attractiveness	141	1.0	2		192.51551089822829	1.2334658081063026
50.0	157.67912710333644	rating	1.0		73	attractiveness	141	1.0	2		193.7489767063346	0.6167342624073626
50.0	158.2958613657438	fix	2.0		60	attractiveness	141	1.0	2	2.42	194.36571096874195	0.5167741678419588
51.0	158.81263553358576	face	0.0		147	attractiveness	030	1.0	2		194.8824851365839	1.2334507152793321
51.0	160.0460862488651	rating	1.0		66	attractiveness	030	1.0	2		196.11593585186324	0.5583881102331816
51.0	160.60447435909828	fix	2.0		60	attractiveness	030	1.0	2	-2.98	196.67432396209642	0.516757263875661
52.0	161.12123162297394	face	0.0		147	attractiveness	012	1.0	2		197.19108122597208	1.233458865405737
52.0	162.35469048837967	rating	1.0		70	attractiveness	012	1.0	2		198.42454009137782	0.5917339001798609
52.0	162.94642438855954	fix	2.0		60	attractiveness	012	1.0	2	0.7199999999999998	199.01627399155768	0.516757263875661
53.0	163.4631816524352	face	0.0		147	attractiveness	099	1.0	2		199.53303125543334	1.233454941270793
53.0	164.696636593706	rating	1.0		36	attractiveness	099	1.0	2		200.76648619670414	0.308379356393516
53.0	165.0050159500995	fix	2.0		61	attractiveness	099	1.0	2	0.0	201.07486555309765	0.5250888061937076
54.0	165.5301047562932	face	0.0		146	attractiveness	024	1.0	2		201.59995435929136	1.2251149469698248
54.0	166.75521970326304	rating	1.0		53	attractiveness	024	1.0	2		202.82506930626118	0.4500536097211807
54.0	167.20527331298422	fix	2.0		60	attractiveness	024	1.0	2	2.4699999999999998	203.27512291598237	0.5167587731584717
55.0	167.7220320861427	face	0.0		147	attractiveness	009	1.0	2		203.79188168914084	1.2334561486968596
55.0	168.95548823483955	rating	1.0		47	attractiveness	009	1.0	2		205.0253378378377	0.400045036995607
55.0	169.35553327183516	fix	2.0		60	attractiveness	009	1.0	2	0.3099999999999996	205.4253828748333	0.516756358306111
56.0	169.87228963014127	face	0.0		147	attractiveness	042	1.0	2		205.94213923313941	1.2334555449838263
56.0	171.1057451751251	rating	1.0		43	attractiveness	042	1.0	2		207.17559477812324	0.36670951017140396
56.0	171.4724546852965	fix	2.0		60	attractiveness	042	1.0	2	1.13	207.54230428829464	0.5167693381372374
57.0	171.98922402343374	face	0.0		147	attractiveness	061	1.0	2		208.05907362643188	1.2334507152793321
57.0	173.22267473871307	rating	1.0		58	attractiveness	061	1.0	2		209.29252434171121	0.4917197732936529
57.0	173.71439451200672	fix	2.0		61	attractiveness	061	1.0	2	1.4400000000000004	209.78424411500487	0.5250885043369635
58.0	174.23948301634368	face	0.0		146	attractiveness	066	1.0	2		210.30933261934183	1.225123097096457
58.0	175.46460611344014	rating	1.0		51	attractiveness	066	1.0	2		211.5344557164383	0.4333820731023934
58.0	175.89798818654253	fix	2.0		60	attractiveness	066	1.0	2	0.4400000000000004	211.96783778954068	0.5167542453102669
59.0	176.4147424318528	face	0.0		147	attractiveness	091	1.0	2		212.48459203485095	1.2334630913974252
59.0	177.64820552325023	rating	1.0		58	attractiveness	091	1.0	2		213.71805512624837	0.4917206788632029
59.0	178.13992620211343	fix	2.0		60	attractiveness	091	1.0	2	-1.4100000000000001	214.20977580511158	0.5167551508800443
60.0	178.65668135299347	face	0.0		147	attractiveness	144	1.0	2		214.72653095599162	1.2334603746885477
60.0	179.89014172768202	rating	1.0		36	attractiveness	144	1.0	2		215.95999133068017	0.30836818770148966
60.0	180.1985099153835	fix	2.0		60	attractiveness	144	1.0	2	1.33	216.26835951838166	0.5167551508800443
61.0	180.71526506626356	face	0.0		147	attractiveness	102	1.0	2		216.7851146692617	1.2334591672622537
61.0	181.9487242335258	rating	1.0		38	attractiveness	102	1.0	2		218.01857383652396	0.3250361020420769
61.0	182.27376033556789	fix	2.0		60	attractiveness	102	1.0	2	-1.58	218.34360993856603	0.5167488118927395
62.0	182.79050914746063	face	0.0		147	attractiveness	124	1.0	2		218.86035875045877	1.23347124152383
62.0	184.02398038898446	rating	1.0		42	attractiveness	124	1.0	2		220.0938299919826	0.3583722325793133
62.0	184.38235262156377	fix	2.0		60	attractiveness	124	1.0	2	0.5300000000000002	220.45220222456192	0.5167584713017277
63.0	184.8991110928655	face	0.0		147	attractiveness	082	1.0	2		220.96896069586364	1.233456148697087
63.0	186.13256724156258	rating	1.0		38	attractiveness	082	1.0	2		222.20241684456073	0.32503066862432206
63.0	186.4575979101869	fix	2.0		60	attractiveness	082	1.0	2	1.12	222.52744751318505	0.516757263875661
64.0	186.97435517406257	face	0.0		147	attractiveness	038	1.0	2		223.0442047770607	1.2334655062495585
64.0	188.20782068031212	rating	1.0		42	attractiveness	038	1.0	2		224.27767028331027	0.3583680065878525
64.0	188.56618868689998	fix	2.0		60	attractiveness	038	1.0	2	-2.0	224.63603828989812	0.5167533397407169
65.0	189.0829420266407	face	0.0		147	attractiveness	062	1.0	2		225.15279162963884	1.2334697322412467
65.0	190.31641175888194	rating	1.0		49	attractiveness	062	1.0	2		226.3862613618801	0.41670268821349055
65.0	190.73311444709543	fix	2.0		60	attractiveness	062	1.0	2	-0.9199999999999999	226.80296405009358	0.516757263875661
66.0	191.2498717109711	face	0.0		147	attractiveness	126	1.0	2		227.31972131396924	1.2334682229586633
66.0	192.48333993392976	rating	1.0		40	attractiveness	126	1.0	2		228.5531895369279	0.34169556439928783
66.0	192.82503549832904	fix	2.0		60	attractiveness	126	1.0	2	-0.56	228.8948851013272	0.5167560564495943
67.0	193.34179155477864	face	0.0		147	attractiveness	006	1.0	2		229.41164115777678	1.2334633932537145
67.0	194.57525494803235	rating	1.0		39	attractiveness	006	1.0	2		230.6451045510305	0.33340537642720847
67.0	194.90866032445956	fix	2.0		60	attractiveness	006	1.0	2	-1.4	230.9785099274577	0.5167140983908212
68.0	195.42537442285038	face	0.0		147	attractiveness	044	1.0	2		231.49522402584853	1.2334600728318037
68.0	196.65883449568219	rating	1.0		51	attractiveness	044	1.0	2		232.72868409868033	0.4333847898112708
68.0	197.09221928549346	fix	2.0		60	attractiveness	044	1.0	2	-0.8999999999999999	233.1620688884916	0.516753641597461
69.0	197.60897292709092	face	0.0		147	attractiveness	005	1.0	2		233.67882253008906	1.2334603746883204
69.0	198.84243330177924	rating	1.0		44	attractiveness	005	1.0	2		234.91228290477738	0.3750407506327065
69.0	199.21747405241194	fix	2.0		60	attractiveness	005	1.0	2	-2.01	235.2873236554101	0.5167672251416207
70.0	199.73424127755356	face	0.0		147	attractiveness	101	1.0	2		235.8040908805517	1.2334543375577596
70.0	200.96769561511132	rating	1.0		42	attractiveness	101	1.0	2		237.03754521810947	0.3583749492879633
70.0	201.3260705643993	fix	2.0		60	attractiveness	101	1.0	2	1.9100000000000001	237.39592016739743	0.5167614898673492
71.0	201.84283205426664	face	0.0		147	attractiveness	092	1.0	2		237.91268165726478	1.233446489287644
71.0	203.07627854355428	rating	1.0		42	attractiveness	092	1.0	2		239.14612814655243	0.35838038270571815
71.0	203.43465892626	fix	2.0		60	attractiveness	092	1.0	2	0.7599999999999998	239.50450852925815	0.516754547167011
72.0	203.951413473427	face	0.0		147	attractiveness	043	1.0	2		240.02126307642516	1.2334531301314655
72.0	205.18486660355848	rating	1.0		36	attractiveness	043	1.0	2		241.25471620655662	0.30836818770171703
72.0	205.4932347912602	fix	2.0		60	attractiveness	043	1.0	2	-1.15	241.56308439425834	0.5167497174622895
73.0	206.00998450872248	face	0.0		147	attractiveness	034	1.0	2		242.07983411172063	1.2334670155323693
73.0	207.24345152425485	rating	1.0		49	attractiveness	034	1.0	2		243.313301127253	0.4167195921797884
73.0	207.66017111643464	fix	2.0		60	attractiveness	034	1.0	2	-0.7400000000000002	243.7300207194328	0.5167497174622895
74.0	208.17692083389693	face	0.0		147	attractiveness	027	1.0	2		244.24677043689508	1.233460676544837
74.0	209.41038151044177	rating	1.0		54	attractiveness	027	1.0	2		245.4802311134399	0.4583830390433832
74.0	209.86876454948515	fix	2.0		60	attractiveness	027	1.0	2	-0.4900000000000002	245.9386141524833	0.5167533397407169
75.0	210.38551788922587	face	0.0		147	attractiveness	087	1.0	2		246.455367492224	1.2334606765450644
75.0	211.61897856577093	rating	1.0		47	attractiveness	087	1.0	2		247.68882816876908	0.400045036995607
75.0	212.01902360276654	fix	2.0		60	attractiveness	087	1.0	2	-1.88	248.08887320576468	0.5167937885169067
76.0	212.53581739128344	face	0.0		147	attractiveness	064	1.0	2		248.6056669942816	1.2334244537603354
76.0	213.76924184504378	rating	1.0		52	attractiveness	064	1.0	2		249.83909144804193	0.4417181432684174
76.0	214.2109599883122	fix	2.0		60	attractiveness	064	1.0	2	-0.4500000000000002	250.28080959131034	0.5167518304579062
77.0	214.7277118187701	face	0.0		147	attractiveness	100	1.0	2		250.79756142176825	1.2334603746885477
77.0	215.96117219345865	rating	1.0		54	attractiveness	100	1.0	2		252.0310217964568	0.45840145229226437
77.0	216.41957364575092	fix	2.0		60	attractiveness	100	1.0	2	0.40000000000000036	252.48942324874906	0.5167373413441965
78.0	216.9363109870951	face	0.0		147	attractiveness	130	1.0	2		253.00616059009326	1.2334585635492203
78.0	218.16976955064433	rating	1.0		48	attractiveness	130	1.0	2		254.23961915364248	0.40837899416578693
78.0	218.57814854481012	fix	2.0		60	attractiveness	130	1.0	2	-0.8999999999999999	254.64799814780827	0.5167551508798169
79.0	219.09490369568994	face	0.0		147	attractiveness	172	1.0	2		255.16475329868808	1.2334742600892241
79.0	220.32837795577916	rating	1.0		46	attractiveness	172	1.0	2		256.3982275587773	0.39170655197744964
79.0	220.7200845077566	fix	2.0		60	attractiveness	172	1.0	2	0.6500000000000004	256.78993411075476	0.5000612768772044
80.0	221.22014578463381	cue	0.0		480						257.28999538763196	4.000475725904607
80.0	225.22062151053842	fix	1.0		120						261.29047111353657	1.016818238896576
80.0	226.237439749435	face	0.0		147	dominance	092	1.0	2		262.30728935243314	1.2334636951104585
80.0	227.47090344454546	rating	1.0		61	dominance	092	1.0	2		263.5407530475436	0.5167186262387986
80.0	227.98762207078425	fix	2.0		60	dominance	092	1.0	2	-1.56	264.0574716737824	0.5167515286013895
81.0	228.50437359938564	face	0.0		147	dominance	121	1.0	2		264.5742232023838	1.233467317388886
81.0	229.73784091677453	rating	1.0		42	dominance	121	1.0	2		265.8076905197727	0.35836468616594175
81.0	230.09620560294047	fix	2.0		60	dominance	121	1.0	2	-1.69	266.1660552059386	0.5167633010064492
82.0	230.61296890394692	face	0.0		147	dominance	039	1.0	2		266.68281850694507	1.233456752409893
82.0	231.84642565635681	rating	1.0		65	dominance	039	1.0	2		267.91627525935496	0.5500604920503065
82.0	232.39648614840712	fix	2.0		60	dominance	039	1.0	2	0.0	268.46633575140527	0.5167557545930777
83.0	232.9132419030002	face	0.0		147	dominance	100	1.0	2		268.98309150599835	1.2334624876843918
83.0	234.1467043906846	rating	1.0		38	dominance	100	1.0	2		270.21655399368274	0.32503670575488286
83.0	234.47174109643947	fix	2.0		60	dominance	100	1.0	2	1.54	270.5415906994376	0.5167485100362228
84.0	234.9884896064757	face	0.0		147	dominance	044	1.0	2		271.05833920947384	1.2334630913974252
84.0	236.22195269787312	rating	1.0		39	dominance	044	1.0	2		272.29180230087127	0.3333721722078735
84.0	236.555324870081	fix	2.0		60	dominance	044	1.0	2	-1.04	272.62517447307914	0.5167515286013895
85.0	237.07207639868238	face	0.0		147	dominance	030	1.0	2		273.14192600168053	1.2334670155323693
85.0	238.30554341421475	rating	1.0		48	dominance	030	1.0	2		274.3753930172129	0.4083753718873595
85.0	238.7139187861021	fix	2.0		60	dominance	030	1.0	2	0.8200000000000003	274.78376838910026	0.5167539434537503
86.0	239.23067272955586	face	0.0		147	dominance	087	1.0	2		275.300522332554	1.2334676192454026
86.0	240.46414034880127	rating	1.0		49	dominance	087	1.0	2		276.5339899517994	0.41671023462708945
86.0	240.88085058342836	fix	2.0		60	dominance	087	1.0	2	1.1100000000000003	276.9507001864265	0.5167521323146502
87.0	241.397602715743	face	0.0		147	dominance	082	1.0	2		277.46745231874115	1.2334585635492203
87.0	242.63106127929223	rating	1.0		51	dominance	082	1.0	2		278.7009108822904	0.43339686407284717
87.0	243.06445814336507	fix	2.0		60	dominance	082	1.0	2	-0.33000000000000007	279.1343077463632	0.5167424729052073
88.0	243.58120061627028	face	0.0		147	dominance	006	1.0	2		279.6510502192684	1.233460978401581
88.0	244.81466159467186	rating	1.0		57	dominance	006	1.0	2		280.88451119767	0.48338521241043964
88.0	245.2980468070823	fix	2.0		61	dominance	006	1.0	2	-1.08	281.36789641008045	0.525115067712477
89.0	245.82316187479478	face	0.0		146	dominance	066	1.0	2		281.8930114777929	1.2251067968431926
89.0	247.04826867163797	rating	1.0		37	dominance	066	1.0	2		283.1181182746361	0.3166988244499862
89.0	247.36496749608796	fix	2.0		60	dominance	066	1.0	2	1.4500000000000002	283.4348170990861	0.516756358306111
90.0	247.88172385439407	face	0.0		147	dominance	036	1.0	2		283.9515734573922	1.2334567524101203
90.0	249.1151806068042	rating	1.0		59	dominance	036	1.0	2		285.18503020980233	0.5000564471727103
90.0	249.6152370539769	fix	2.0		60	dominance	036	1.0	2	0.5599999999999996	285.68508665697505	0.5167690362807207
91.0	250.13200609025762	face	0.0		147	dominance	034	1.0	2		286.20185569325577	1.2334561486968596
91.0	251.36546223895448	rating	1.0		59	dominance	034	1.0	2		287.4353118419526	0.5000452784806839
91.0	251.86550751743516	fix	2.0		60	dominance	034	1.0	2	0.7400000000000002	287.9353571204333	0.516754547167011
92.0	252.38226206460217	face	0.0		147	dominance	070	1.0	2		288.4521116676003	1.23346943038473
92.0	253.6157314949869	rating	1.0		83	dominance	070	1.0	2		289.68558109798505	0.7000729285396119
92.0	254.31580442352652	fix	2.0		60	dominance	070	1.0	2	-1.31	290.38565402652466	0.5167515286013895
93.0	254.8325559521279	face	0.0		147	dominance	099	1.0	2		290.90240555512605	1.2334630913974252
93.0	256.06601904352533	rating	1.0		69	dominance	099	1.0	2		292.1358686465235	0.5833999430094536
93.0	256.6494189865348	fix	2.0		60	dominance	099	1.0	2	0.0	292.71926858953293	0.5167587731584717
94.0	257.16617775969326	face	0.0		147	dominance	172	1.0	2		293.2360273626914	1.2334561486968596
94.0	258.3996339083901	rating	1.0		49	dominance	172	1.0	2		294.46948351138826	0.4167174791841717
94.0	258.8163513875743	fix	2.0		60	dominance	172	1.0	2	-2.13	294.88620099057243	0.516759075014761
95.0	259.33311046258905	face	0.0		147	dominance	124	1.0	2		295.4029600655872	1.2334582616927037
95.0	260.56656872428175	rating	1.0		45	dominance	124	1.0	2		296.6364183272799	0.3833735003768197
95.0	260.94994222465857	fix	2.0		60	dominance	124	1.0	2	0.40000000000000036	297.0197918276567	0.5167623954368992
96.0	261.46670462009547	face	0.0		147	dominance	012	1.0	2		297.5365542230936	1.2334624876841644
96.0	262.70016710777963	rating	1.0		69	dominance	012	1.0	2		298.7700167107778	0.583387566891588
96.0	263.2835546746712	fix	2.0		60	dominance	012	1.0	2	1.25	299.35340427766937	0.5167569620191443
97.0	263.80031163669037	face	0.0		147	dominance	042	1.0	2		299.8701612396885	1.2334923714815886
97.0	265.03380400817196	rating	1.0		37	dominance	042	1.0	2		301.1036536111701	0.31667165736143943
97.0	265.3504756655334	fix	2.0		60	dominance	042	1.0	2	0.0	301.42032526853154	0.5167575657321777
98.0	265.8672332312656	face	0.0		147	dominance	038	1.0	2		301.9370828342637	1.2334543375577596
98.0	267.10068756882333	rating	1.0		54	dominance	038	1.0	2		303.1705371718215	0.45838605760877726
98.0	267.5590736264321	fix	2.0		60	dominance	038	1.0	2	-1.6	303.62892322943026	0.5167548490233003
99.0	268.0758284754554	face	0.0		147	dominance	102	1.0	2		304.14567807845356	1.2334558468405703
99.0	269.309284322296	rating	1.0		76	dominance	102	1.0	2		305.3791339252941	0.6417500193188062
99.0	269.9510343416148	fix	2.0		60	dominance	102	1.0	2	-1.81	306.02088394461293	0.5167463970403787
100.0	270.46778073865516	face	0.0		147	dominance	027	1.0	2		306.5376303416533	1.233503238316871
100.0	271.70128397697204	rating	1.0		88	dominance	027	1.0	2		307.7711335799702	0.7417049823231991
100.0	272.44298895929523	fix	2.0		60	dominance	027	1.0	2	-0.6699999999999999	308.5128385622934	0.5167663195718433
101.0	272.9597552788671	face	0.0		147	dominance	064	1.0	2		309.0296048818652	1.2334576579796703
101.0	274.19321293684675	rating	1.0		97	dominance	064	1.0	2		310.2630625398449	0.8167631198925847
101.0	275.00997605673933	fix	2.0		60	dominance	064	1.0	2	-1.3599999999999999	311.0798256597375	0.516754547167011
102.0	275.52673060390634	face	0.0		147	dominance	062	1.0	2		311.5965802069045	1.2334600728318037
102.0	276.76019067673815	rating	1.0		47	dominance	062	1.0	2		312.8300402797363	0.4000411128606629
102.0	277.1602317895988	fix	2.0		60	dominance	062	1.0	2	0.03000000000000025	313.23008139259696	0.5167648102892599
103.0	277.67699659988807	face	0.0		147	dominance	137	1.0	2		313.7468462028862	1.2334528282749488
103.0	278.910449428163	rating	1.0		36	dominance	137	1.0	2		314.98029903116117	0.3083712062671111
103.0	279.21882063443013	fix	2.0		60	dominance	137	1.0	2	0.0	315.2886702374283	0.5167557545928503
104.0	279.735576389023	face	0.0		147	dominance	117	1.0	2		315.8054259920211	1.233454035701243
104.0	280.9690304247242	rating	1.0		68	dominance	117	1.0	2		317.03888002772237	0.5750859083709656
104.0	281.5441163330952	fix	2.0		60	dominance	117	1.0	2	-0.6600000000000001	317.61396593609334	0.516734624635319
105.0	282.0608509577305	face	0.0		147	dominance	009	1.0	2		318.13070056072866	1.2334633932537145
105.0	283.2943143509842	rating	1.0		84	dominance	009	1.0	2		319.36416395398237	0.7084219785369896
105.0	284.0027363295212	fix	2.0		60	dominance	009	1.0	2	1.33	320.07258593251936	0.5167463970403787
106.0	284.5194827265616	face	0.0		147	dominance	130	1.0	2		320.58933232955974	1.2334639969667478
106.0	285.75294672352834	rating	1.0		48	dominance	130	1.0	2		321.8227963265265	0.4083738626045488
106.0	286.1613205861329	fix	2.0		60	dominance	130	1.0	2	-1.54	322.23117018913103	0.5167614898673492
107.0	286.67808207600024	face	0.0		147	dominance	024	1.0	2		322.7479316789984	1.233456148697087
107.0	287.9115382246973	rating	1.0		43	dominance	024	1.0	2		323.98138782769547	0.36670981202769326
107.0	288.278248036725	fix	2.0		60	dominance	024	1.0	2	1.4500000000000002	324.34809763972316	0.5167569620193717
108.0	288.7950049987444	face	0.0		147	dominance	141	1.0	2		324.86485460174254	1.2334531301314655
108.0	290.02845812887585	rating	1.0		84	dominance	141	1.0	2		326.098307731874	0.7084222803932789
108.0	290.73688040926913	fix	2.0		60	dominance	141	1.0	2	-1.7799999999999998	326.8067300122673	0.5167533397407169
109.0	291.25363374900985	face	0.0		147	dominance	005	1.0	2		327.323483352008	1.2334567524101203
109.0	292.48709050141997	rating	1.0		59	dominance	005	1.0	2		328.5569401044181	0.5000748604215914
109.0	292.98716536184156	fix	2.0		60	dominance	005	1.0	2	-1.85	329.0570149648397	0.5167364357746465
110.0	293.5039017976162	face	0.0		147	dominance	091	1.0	2		329.57375140061436	1.2334642988232645
110.0	294.7373660964395	rating	1.0		65	dominance	091	1.0	2		330.8072156994376	0.5500598883372732
110.0	295.28742598477675	fix	2.0		60	dominance	091	1.0	2	-0.41999999999999993	331.3572755877749	0.5167636028631932
111.0	295.80418958763994	face	0.0		147	dominance	043	1.0	2		331.8740391906381	1.2334540357010155
111.0	297.03764362334095	rating	1.0		36	dominance	043	1.0	2		333.1074932263391	0.30836516913632295
111.0	297.3460087924773	fix	2.0		60	dominance	043	1.0	2	1.7199999999999998	333.4158583954754	0.5167596787280218
112.0	297.8627684712053	face	0.0		147	dominance	126	1.0	2		333.93261807420345	1.233456148697087
112.0	299.0962246199024	rating	1.0		57	dominance	126	1.0	2		335.16607422290053	0.4833915513975171
112.0	299.5796161712999	fix	2.0		61	dominance	126	1.0	2	-0.7400000000000002	335.64946577429805	0.5250869950543802
113.0	300.1047031663543	face	0.0		146	dominance	011	1.0	2		336.17455276935243	1.2251285305142119
113.0	301.3298316968685	rating	1.0		172	dominance	011	1.0	2		337.39968129986664	1.4418391877402428
113.0	302.77167088460874	fix	2.0		60	dominance	011	1.0	2	0.9400000000000004	338.8415204876069	0.5167497174622895
114.0	303.288420602071	face	0.0		147	dominance	018	1.0	2		339.3582702050692	1.2334606765450644
114.0	304.5218812786161	rating	1.0		48	dominance	018	1.0	2		340.59173088161424	0.40837808859600955
114.0	304.9302593672121	fix	2.0		60	dominance	018	1.0	2	-1.65	341.00010897021025	0.5167587731584717
115.0	305.4470181403706	face	0.0		147	dominance	033	1.0	2		341.5168677433687	1.233454941270793
115.0	306.68047308164137	rating	1.0		121	dominance	033	1.0	2		342.7503226846395	1.0167955996562341
115.0	307.6972686812976	fix	2.0		60	dominance	033	1.0	2	0.8600000000000003	343.76711828429575	0.5167651121455492
116.0	308.21403379344315	face	0.0		147	dominance	144	1.0	2		344.2838833964413	1.2334407540135999
116.0	309.44747454745675	rating	1.0		45	dominance	144	1.0	2		345.5173241504549	0.3833813486467079
116.0	309.83085589610346	fix	2.0		60	dominance	144	1.0	2	0.7199999999999998	345.9007054991016	0.5167512267448728
117.0	310.34760712284833	face	0.0		147	dominance	136	1.0	2		346.4174567258465	1.2334624876843918
117.0	311.5810696105327	rating	1.0		37	dominance	136	1.0	2		347.65091921353087	0.316703956010997
117.0	311.8977735665437	fix	2.0		60	dominance	136	1.0	2	-2.09	347.96762316954187	0.5167611880108325
118.0	312.41453475455455	face	0.0		147	dominance	101	1.0	2		348.4843843575527	1.2334872399203505
118.0	313.6480219944749	rating	1.0		53	dominance	101	1.0	2		349.71787159747305	0.4500110479493742
118.0	314.0980330424243	fix	2.0		60	dominance	101	1.0	2	2.24	350.1678826454224	0.5167629991499325
119.0	314.6147960415742	face	0.0		147	dominance	061	1.0	2		350.68464564457236	1.2334513189923655
119.0	315.8482473605666	rating	1.0		75	dominance	061	1.0	2		351.9180969635647	0.6334085157350273
119.0	316.4816558763016	fix	2.0		60	dominance	061	1.0	2	0.9699999999999998	352.55150547929975	0.5000679177212533
120.0	316.98172379402286	cue	0.0		3600						353.051573397021	30.003620769178724
120.0	346.9853445632016	fix	1.0		120						383.0551941661997	1.0001249686069968
120.0	347.9854695318086	cue	0.0		480						384.0553191348067	4.000485083457306
120.0	351.9859546152659	fix	1.0		120						388.05580421826403	1.0168146166179213
120.0	353.0027692318838	face	0.0		147	trustworthiness	102	2.0	2		389.07261883488195	1.2334627895409085
120.0	354.2362320214247	rating	1.0		356	trustworthiness	102	2.0	2		390.30608162442286	3.017019879064037
120.0	357.25325190048875	fix	2.0		60	trustworthiness	102	2.0	2	1.0999999999999996	393.3231015034869	0.5167614898673492
121.0	357.7700133903561	face	0.0		147	trustworthiness	141	2.0	2		393.83986299335425	1.233467317388886
121.0	359.003480707745	rating	1.0		96	trustworthiness	141	2.0	2		395.07333031074313	0.8084146736084676
121.0	359.81189538135345	fix	2.0		61	trustworthiness	141	2.0	2	1.8499999999999996	395.8817449843516	0.5250903154762909
122.0	360.33698569682974	face	0.0		146	trustworthiness	042	2.0	2		396.4068352998279	1.225123097096457
122.0	361.5621087939262	rating	1.0		52	trustworthiness	042	2.0	2		397.63195839692435	0.44171965255100076
122.0	362.0038284464772	fix	2.0		60	trustworthiness	042	2.0	2	0.7800000000000002	398.07367804947535	0.5167491137492561
123.0	362.52057756022646	face	0.0		147	trustworthiness	144	2.0	2		398.5904271632246	1.2334627895406811
123.0	363.75404034976714	rating	1.0		36	trustworthiness	144	2.0	2		399.8238899527653	0.30837482854553855
123.0	364.0624151783127	fix	2.0		60	trustworthiness	144	2.0	2	-1.48	400.1322647813108	0.5167539434539776
124.0	364.57916912176665	face	0.0		147	trustworthiness	027	2.0	2		400.6490187247648	1.2334561486968596
124.0	365.8126252704635	rating	1.0		36	trustworthiness	027	2.0	2		401.88247487346166	0.3083847898112708
124.0	366.1210100602748	fix	2.0		60	trustworthiness	027	2.0	2	1.2400000000000002	402.19085966327293	0.5167349264918357
125.0	366.6377449867666	face	0.0		147	trustworthiness	009	2.0	2		402.70759458976477	1.2334642988234918
125.0	367.8712092855901	rating	1.0		36	trustworthiness	009	2.0	2		403.94105888858826	0.30836788584520036
125.0	368.1795771714353	fix	2.0		60	trustworthiness	009	2.0	2	-0.8300000000000001	404.24942677443346	0.5167479063229621
126.0	368.6963250777583	face	0.0		147	trustworthiness	092	2.0	2		404.7661746807564	1.2334627895409085
126.0	369.9297878672992	rating	1.0		48	trustworthiness	092	2.0	2		405.99963747029733	0.40838382387028105
126.0	370.33817169116946	fix	2.0		61	trustworthiness	092	2.0	2	2.2199999999999998	406.4080212941676	0.5250918247588743
127.0	370.86326351592834	face	0.0		146	trustworthiness	137	2.0	2		406.9331131189265	1.2251185692484796
127.0	372.0883820851768	rating	1.0		41	trustworthiness	137	2.0	2		408.15823168817496	0.3500455199659882
127.0	372.4384276051428	fix	2.0		61	trustworthiness	137	2.0	2	1.1100000000000003	408.50827720814095	0.5250860894846028
128.0	372.9635136946274	face	0.0		146	trustworthiness	101	2.0	2		409.03336329762556	1.2251273230879178
128.0	374.1886410177153	rating	1.0		65	trustworthiness	101	2.0	2		410.2584906207135	0.5500641143287339
128.0	374.73870513204406	fix	2.0		60	trustworthiness	101	2.0	2	3.0700000000000003	410.8085547350422	0.5167473026101561
129.0	375.2554524346542	face	0.0		147	trustworthiness	172	2.0	2		411.32530203765236	1.2334655062495585
129.0	376.4889179409038	rating	1.0		48	trustworthiness	172	2.0	2		412.5587675439019	0.4083744663175821
129.0	376.89729240722136	fix	2.0		60	trustworthiness	172	2.0	2	2.0700000000000003	412.9671420102195	0.516757565732405
130.0	377.41404997295376	face	0.0		147	trustworthiness	066	2.0	2		413.4838995759519	1.233459770975287
130.0	378.64750974392905	rating	1.0		36	trustworthiness	066	2.0	2		414.7173593469272	0.3083687914147504
130.0	378.9558785353438	fix	2.0		60	trustworthiness	066	2.0	2	-0.94	415.02572813834195	0.5167491137492561
131.0	379.47262764909306	face	0.0		147	trustworthiness	005	2.0	2		415.5424772520912	1.2334646006800085
131.0	380.70609224977306	rating	1.0		56	trustworthiness	005	2.0	2		416.7759418527712	0.4750533682358764
131.0	381.18114561800894	fix	2.0		60	trustworthiness	005	2.0	2	1.08	417.2509952210071	0.5167530378842002
132.0	381.69789865589314	face	0.0		147	trustworthiness	012	2.0	2		417.7677482588913	1.233460072832031
132.0	382.9313587287252	rating	1.0		37	trustworthiness	012	2.0	2		419.0012083317233	0.3167048615807744
132.0	383.24806359030595	fix	2.0		60	trustworthiness	012	2.0	2	-1.5499999999999998	419.3179131933041	0.5167590750149884
133.0	383.76482266532093	face	0.0		147	trustworthiness	033	2.0	2		419.8346722683191	1.233461883971131
133.0	384.99828454929207	rating	1.0		59	trustworthiness	033	2.0	2		421.0681341522902	0.5000513156114721
133.0	385.49833586490354	fix	2.0		60	trustworthiness	033	2.0	2	-1.69	421.5681854679017	0.5167569620191443
134.0	386.0150928269227	face	0.0		147	trustworthiness	034	2.0	2		422.08494242992083	1.2334606765450644
134.0	387.24855350346775	rating	1.0		178	trustworthiness	034	2.0	2		423.3184031064659	1.4918480623225605
134.0	388.7404015657903	fix	2.0		60	trustworthiness	034	2.0	2	0.03000000000000025	424.81025116878845	0.5167451896140847
135.0	389.2571467554044	face	0.0		147	trustworthiness	121	2.0	2		425.32699635840254	1.2334630913974252
135.0	390.4906098468018	rating	1.0		49	trustworthiness	121	2.0	2		426.56045944979996	0.4167138569055169
135.0	390.90732370370733	fix	2.0		60	trustworthiness	121	2.0	2	-0.7400000000000002	426.9771733067055	0.5167557545930777
136.0	391.4240794583004	face	0.0		147	trustworthiness	018	2.0	2		427.49392906129856	1.233458865405737
136.0	392.65753832370615	rating	1.0		55	trustworthiness	018	2.0	2		428.7273879267043	0.4667182036396298
136.0	393.1242565273458	fix	2.0		60	trustworthiness	018	2.0	2	2.58	429.1941061303439	0.5167569620191443
137.0	393.6410134893649	face	0.0		147	trustworthiness	124	2.0	2		429.71086309236307	1.233458261692931
137.0	394.87447175105785	rating	1.0		52	trustworthiness	124	2.0	2		430.944321354056	0.4417232748294282
137.0	395.3161950258873	fix	2.0		61	trustworthiness	124	2.0	2	-0.009999999999999787	431.38604462888543	0.5250815616366253
138.0	395.8412765875239	face	0.0		146	trustworthiness	030	2.0	2		431.91112619052205	1.225129436083762
138.0	397.06640602360767	rating	1.0		160	trustworthiness	030	2.0	2		433.1362556266058	1.3418262682803288
138.0	398.408232291888	fix	2.0		60	trustworthiness	030	2.0	2	-1.02	434.47808189488615	0.5167497174622895
139.0	398.9249820093503	face	0.0		147	trustworthiness	091	2.0	2		434.99483161234843	1.2334636951104585
139.0	400.15844570446075	rating	1.0		36	trustworthiness	091	2.0	2		436.2282953074589	0.30836728213193965
139.0	400.4668129865927	fix	2.0		60	trustworthiness	091	2.0	2	-1.0299999999999998	436.53666258959083	0.5167611880108325
140.0	400.9835741746035	face	0.0		147	trustworthiness	011	2.0	2		437.05342377760167	1.2335005216079935
140.0	402.2170746962115	rating	1.0		125	trustworthiness	011	2.0	2		438.28692429920966	1.0500740755946936
140.0	403.2671487718062	fix	2.0		60	trustworthiness	011	2.0	2	-0.79	439.33699837480435	0.5167584713019551
141.0	403.78390724310816	face	0.0		147	trustworthiness	130	2.0	2		439.8537568461063	1.2334555449838263
141.0	405.017362788092	rating	1.0		105	trustworthiness	130	2.0	2		441.08721239109013	0.8834393051020015
141.0	405.900802093194	fix	2.0		60	trustworthiness	130	2.0	2	-1.79	441.97065169619214	0.5167518304581336
142.0	406.4175539236521	face	0.0		147	trustworthiness	062	2.0	2		442.48740352665027	1.2334642988234918
142.0	407.6510182224756	rating	1.0		47	trustworthiness	062	2.0	2		443.72086782547376	0.40004081100391886
142.0	408.05105903347953	fix	2.0		60	trustworthiness	062	2.0	2	-0.9700000000000002	444.1209086364777	0.516755452736561
143.0	408.5678144862161	face	0.0		147	trustworthiness	006	2.0	2		444.63766408921424	1.2334633932539418
143.0	409.80127787947004	rating	1.0		83	trustworthiness	006	2.0	2		445.8711274824682	0.7000831916618608
143.0	410.5013610711319	fix	2.0		60	trustworthiness	006	2.0	2	-2.42	446.57121067413004	0.5167542453104943
144.0	411.0181153164424	face	0.0		147	trustworthiness	061	2.0	2		447.08796491944054	1.2334573561229263
144.0	412.2515726725653	rating	1.0		47	trustworthiness	061	2.0	2		448.32142227556346	0.400045942565157
144.0	412.6516186151305	fix	2.0		60	trustworthiness	061	2.0	2	1.8200000000000003	448.7214682181286	0.5167639047197099
145.0	413.1683825198502	face	0.0		147	trustworthiness	043	2.0	2		449.23823212284833	1.2334489041400047
145.0	414.4018314239902	rating	1.0		59	trustworthiness	043	2.0	2		450.47168102698834	0.5000757659911415
145.0	414.90190718998133	fix	2.0		60	trustworthiness	043	2.0	2	-0.54	450.9717567929795	0.5167370394876798
146.0	415.418644229469	face	0.0		147	trustworthiness	126	2.0	2		451.48849383246716	1.2334615821146144
146.0	416.6521058115836	rating	1.0		54	trustworthiness	126	2.0	2		452.72195541458177	0.45841805440181815
146.0	417.11052386598544	fix	2.0		60	trustworthiness	126	2.0	2	0.9699999999999998	453.1803734689836	0.5167195318083486
147.0	417.6272433977938	face	0.0		147	trustworthiness	044	2.0	2		453.69709300079194	1.2334630913974252
147.0	418.8607064891912	rating	1.0		38	trustworthiness	044	2.0	2		454.93055609218936	0.325040026177021
147.0	419.18574651536824	fix	2.0		60	trustworthiness	044	2.0	2	0.6200000000000001	455.2555961183664	0.5167491137490288
148.0	419.70249562911727	face	0.0		147	trustworthiness	099	2.0	2		455.7723452321154	1.2334639969669752
148.0	420.93595962608424	rating	1.0		56	trustworthiness	099	2.0	2		457.0058092290824	0.4750503496707097
148.0	421.41100997575495	fix	2.0		60	trustworthiness	099	2.0	2	0.7400000000000002	457.4808595787531	0.5167720548461148
149.0	421.92778203060107	face	0.0		147	trustworthiness	117	2.0	2		457.9976316335992	1.2334413577266332
149.0	423.1612233883277	rating	1.0		237	trustworthiness	117	2.0	2		459.23107299132585	1.9835747783165516
149.0	425.14479816664425	fix	2.0		60	trustworthiness	117	2.0	2	0.019999999999999574	461.2146477696424	0.5167590750149884
150.0	425.66155724165924	face	0.0		147	trustworthiness	087	2.0	2		461.7314068446574	1.233491767768328
150.0	426.89504900942757	rating	1.0		52	trustworthiness	087	2.0	2		462.9648986124257	0.4416767889226776
150.0	427.33672579835024	fix	2.0		60	trustworthiness	087	2.0	2	-0.8700000000000001	463.4065754013484	0.5167551508800443
151.0	427.8534809492303	face	0.0		147	trustworthiness	136	2.0	2		463.92333055222844	1.2334612802580978
151.0	429.0869422294884	rating	1.0		52	trustworthiness	136	2.0	2		465.15679183248653	0.44171512470279595
151.0	429.5286573541912	fix	2.0		60	trustworthiness	136	2.0	2	-0.6400000000000001	465.59850695718933	0.5167602824412825
152.0	430.04541763663246	face	0.0		147	trustworthiness	064	2.0	2		466.1152672396306	1.233467317388886
152.0	431.27888495402135	rating	1.0		37	trustworthiness	064	2.0	2		467.3487345570195	0.3167250859687556
152.0	431.5956100399901	fix	2.0		60	trustworthiness	064	2.0	2	-1.0499999999999998	467.66545964298825	0.5167134946775604
153.0	432.11232353466767	face	0.0		147	trustworthiness	039	2.0	2		468.1821731376658	1.2334667136758526
153.0	433.3457902483435	rating	1.0		36	trustworthiness	039	2.0	2		469.41563985134167	0.30837030069733373
153.0	433.65416054904085	fix	2.0		61	trustworthiness	039	2.0	2	0.0	469.724010152039	0.5250833727759527
154.0	434.1792439218168	face	0.0		146	trustworthiness	070	2.0	2		470.24909352481495	1.2251345676447727
154.0	435.4043784894616	rating	1.0		45	trustworthiness	070	2.0	2		471.4742280924597	0.383371085524459
154.0	435.78774957498604	fix	2.0		60	trustworthiness	070	2.0	2	-1.7400000000000002	471.8575991779842	0.5167506230318395
155.0	436.3045001980179	face	0.0		147	trustworthiness	036	2.0	2		472.374349801016	1.2334736563761908
155.0	437.53797385439407	rating	1.0		49	trustworthiness	036	2.0	2		473.6078234573922	0.4167051030658513
155.0	437.9546789574599	fix	2.0		60	trustworthiness	036	2.0	2	0.7599999999999998	474.02452856045807	0.516755452736561
156.0	438.4714344101965	face	0.0		147	trustworthiness	024	2.0	2		474.5412840131946	1.2334636951104585
156.0	439.70489810530694	rating	1.0		97	trustworthiness	024	2.0	2		475.7747477083051	0.8167552716224691
156.0	440.5216533769294	fix	2.0		60	trustworthiness	024	2.0	2	2.42	476.59150297992755	0.5167512267451002
157.0	441.0384046036745	face	0.0		147	trustworthiness	038	2.0	2		477.10825420667265	1.2334630913971978
157.0	442.2718676950717	rating	1.0		52	trustworthiness	038	2.0	2		478.34171729806985	0.4417163321293174
157.0	442.713584027201	fix	2.0		60	trustworthiness	038	2.0	2	-2.4	478.78343363019917	0.5167636028629659
158.0	443.230347630064	face	0.0		147	trustworthiness	082	2.0	2		479.30019723306214	1.233454941270793
158.0	444.4638025713348	rating	1.0		49	trustworthiness	082	2.0	2		480.53365217433293	0.41670449935281795
158.0	444.8805070706876	fix	2.0		60	trustworthiness	082	2.0	2	1.2800000000000002	480.95035667368575	0.5167596787280218
159.0	445.3972667494156	face	0.0		147	trustworthiness	100	2.0	2		481.46711635241377	1.2334679211019193
159.0	446.63073467051754	rating	1.0		49	trustworthiness	100	2.0	2		482.7005842735157	0.4167126494794502
159.0	447.047447319997	fix	2.0		60	trustworthiness	100	2.0	2	0.0	483.11729692299514	0.5000573527422603
160.0	447.54750467273925	cue	0.0		480						483.6173542757374	4.000483272317979
160.0	451.54798794505723	fix	1.0		120						487.6178375480554	1.0168112961960105
160.0	452.56479924125324	face	0.0		147	dominance	034	2.0	2		488.6346488442514	1.2334712415240574
160.0	453.7982704827773	rating	1.0		36	dominance	034	2.0	2		489.86812008577544	0.3083618487144122
160.0	454.1066323314917	fix	2.0		60	dominance	034	2.0	2	0.0	490.17648193448986	0.5167509248885835
161.0	454.6233832563803	face	0.0		147	dominance	099	2.0	2		490.69323285937844	1.233458563548993
161.0	455.8568418199293	rating	1.0		52	dominance	099	2.0	2		491.92669142292743	0.44175527162269645
161.0	456.298597091552	fix	2.0		60	dominance	099	2.0	2	-0.2599999999999998	492.36844669455013	0.5167219466607094
162.0	456.8153190382127	face	0.0		147	dominance	061	2.0	2		492.88516864121084	1.2334600728318037
162.0	458.0487791110445	rating	1.0		46	dominance	061	2.0	2		494.11862871404264	0.3917092686860997
162.0	458.4404883797306	fix	2.0		60	dominance	061	2.0	2	1.2400000000000002	494.51033798272874	0.5167608861543158
163.0	458.9572492658849	face	0.0		147	dominance	102	2.0	2		495.02709886888306	1.2334531301316929
163.0	460.1907023960166	rating	1.0		51	dominance	102	2.0	2		496.26055199901475	0.43338177124587673
163.0	460.6240841672625	fix	2.0		60	dominance	102	2.0	2	-1.6600000000000001	496.6939337702606	0.5167530378839729
164.0	461.14083720514645	face	0.0		147	dominance	137	2.0	2		497.2106868081446	1.2334606765452918
164.0	462.37429788169175	rating	1.0		98	dominance	137	2.0	2		498.4441474846899	0.8251003974846753
164.0	463.1993982791764	fix	2.0		60	dominance	137	2.0	2	-2.1100000000000003	499.26924788217457	0.516755452736561
165.0	463.716153731913	face	0.0		147	dominance	027	2.0	2		499.78600333491113	1.233458865405737
165.0	464.9496125973187	rating	1.0		52	dominance	027	2.0	2		501.01946220031687	0.44172478411201155
165.0	465.39133738143073	fix	2.0		60	dominance	027	2.0	2	1.2400000000000002	501.4611869844289	0.516745793327118
166.0	465.90808317475785	face	0.0		147	dominance	092	2.0	2		501.977932777756	1.233459167262481
166.0	467.14154234202033	rating	1.0		43	dominance	092	2.0	2		503.2113919450185	0.36671343430634806
166.0	467.5082557763267	fix	2.0		60	dominance	092	2.0	2	-1.5299999999999998	503.5781053793248	0.5167756771247696
167.0	468.02503145345145	face	0.0		147	dominance	036	2.0	2		504.0948810564496	1.2334413577264058
167.0	469.25847281117785	rating	1.0		47	dominance	036	2.0	2		505.328322414176	0.4000510741261678
167.0	469.658523885304	fix	2.0		60	dominance	036	2.0	2	0.8600000000000003	505.72837348830217	0.516742472905662
168.0	470.1752663582097	face	0.0		147	dominance	126	2.0	2		506.24511596120783	1.233462487683937
168.0	471.4087288458936	rating	1.0		58	dominance	126	2.0	2		507.47857844889177	0.4917396958253448
168.0	471.90046854171896	fix	2.0		60	dominance	126	2.0	2	-1.2400000000000002	507.9703181447171	0.5167379450572298
169.0	472.4172064867762	face	0.0		147	dominance	042	2.0	2		508.48705608977434	1.2334543375577596
169.0	473.65066082433395	rating	1.0		39	dominance	042	2.0	2		509.7205104273321	0.333377001912595
169.0	473.98403782624655	fix	2.0		60	dominance	042	2.0	2	1.8099999999999996	510.0538874292447	0.5167629991501599
170.0	474.5008008253967	face	0.0		147	dominance	172	2.0	2		510.57065042839486	1.2334507152791048
170.0	475.7342515406758	rating	1.0		73	dominance	172	2.0	2		511.80410114367396	0.6167843705929954
170.0	476.3510359112688	fix	2.0		60	dominance	172	2.0	2	0.6500000000000004	512.420885514267	0.5167128909642997
171.0	476.8677488022331	face	0.0		147	dominance	082	2.0	2		512.9375984052313	1.2334600728322584
171.0	478.10120887506537	rating	1.0		42	dominance	082	2.0	2		514.1710584780635	0.35836498802200367
171.0	478.45957386308737	fix	2.0		60	dominance	082	2.0	2	1.33	514.5294234660855	0.5167596787282491
172.0	478.9763335418156	face	0.0		147	dominance	124	2.0	2		515.0461831448138	1.2335171237177747
172.0	480.2098506655334	rating	1.0		40	dominance	124	2.0	2		516.2797002685315	0.3416590397582695
172.0	480.55150970529166	fix	2.0		60	dominance	124	2.0	2	0.7300000000000004	516.6213593082898	0.5167578675886944
173.0	481.06826757288036	face	0.0		147	dominance	141	2.0	2		517.1381171758785	1.2334489041400047
173.0	482.30171647702036	rating	1.0		53	dominance	141	2.0	2		518.3715660800185	0.4500677969786011
173.0	482.75178427399896	fix	2.0		60	dominance	141	2.0	2	1.4100000000000001	518.8216338769971	0.5167367376311631
174.0	483.2685210116301	face	0.0		147	dominance	091	2.0	2		519.3383706146283	1.2334775805111349
174.0	484.50199859214126	rating	1.0		53	dominance	091	2.0	2		520.5718481951394	0.45002915934128396
174.0	484.95202775148255	fix	2.0		60	dominance	091	2.0	2	1.0300000000000002	521.0218773544807	0.5167666214288147
175.0	485.46879437291136	face	0.0		147	dominance	011	2.0	2		521.5386439759095	1.2334464892874166
175.0	486.7022408621988	rating	1.0		52	dominance	011	2.0	2		522.7720904651969	0.4417181432686448
175.0	487.1439590054674	fix	2.0		60	dominance	011	2.0	2	-1.15	523.2138086084656	0.5167645084325159
176.0	487.66072351389994	face	0.0		147	dominance	130	2.0	2		523.7305731168981	1.233449507853038
176.0	488.894173021753	rating	1.0		69	dominance	130	2.0	2		524.9640226247511	0.5834047727139478
176.0	489.4775777944669	fix	2.0		60	dominance	130	2.0	2	1.5700000000000003	525.5474273974651	0.5168019386437663
177.0	489.9943797331107	face	0.0		147	dominance	043	2.0	2		526.0642293361088	1.233409360933365
177.0	491.22778909404406	rating	1.0		99	dominance	043	2.0	2		527.2976386970422	0.8334440140642982
177.0	492.06123310810835	fix	2.0		60	dominance	043	2.0	2	-1.2200000000000002	528.1310827111065	0.5167445859010513
178.0	492.5779776940094	face	0.0		147	dominance	038	2.0	2		528.6478272970076	1.2334649025365252
178.0	493.81144259654593	rating	1.0		57	dominance	038	2.0	2		529.8812921995441	0.4833803827054908
178.0	494.2948229792514	fix	2.0		60	dominance	038	2.0	2	-2.2199999999999998	530.3646725822496	0.5167563583063384
179.0	494.81157933755776	face	0.0		147	dominance	121	2.0	2		530.8814289405559	1.2334670155323693
179.0	496.04504635309013	rating	1.0		39	dominance	121	2.0	2		532.1148959560883	0.33336522950730796
179.0	496.37841158259744	fix	2.0		60	dominance	121	2.0	2	0.0	532.4482611855956	0.5167657158590373
180.0	496.8951772984565	face	0.0		147	dominance	070	2.0	2		532.9650269014546	1.2334688266714693
180.0	498.12864612512794	rating	1.0		52	dominance	070	2.0	2		534.1984957281261	0.44170516343729105
180.0	498.57035128856523	fix	2.0		60	dominance	070	2.0	2	-1.75	534.6402008915634	0.5167497174620621
181.0	499.0871010060273	face	0.0		147	dominance	024	2.0	2		535.1569506090254	1.233464600680236
181.0	500.32056560670753	rating	1.0		54	dominance	024	2.0	2		536.3904152097057	0.45838394461316057
181.0	500.7789495513207	fix	2.0		60	dominance	024	2.0	2	2.67	536.8487991543188	0.5167581694449837
182.0	501.2957077207657	face	0.0		147	dominance	033	2.0	2		537.3655573237638	1.2334658081063026
182.0	502.529173528872	rating	1.0		103	dominance	033	2.0	2		538.5990231318701	0.8667584109307427
182.0	503.3959319398027	fix	2.0		60	dominance	033	2.0	2	-2.45	539.4657815428009	0.5167651121455492
183.0	503.91269705194827	face	0.0		147	dominance	044	2.0	2		539.9825466549464	1.2334461874311273
183.0	505.1461432393794	rating	1.0		53	dominance	044	2.0	2		541.2159928423775	0.45005783571286884
183.0	505.59620107509227	fix	2.0		60	dominance	044	2.0	2	0.9400000000000004	541.6660506780904	0.5167545471667836
184.0	506.11295562225905	face	0.0		147	dominance	064	2.0	2		542.1828052252572	1.2334576579796703
184.0	507.3464132802387	rating	1.0		56	dominance	064	2.0	2		543.4162628832369	0.4750476329618323
184.0	507.82146091320055	fix	2.0		60	dominance	064	2.0	2	-0.8700000000000001	543.8913105161987	0.516770545563304
185.0	508.33823145876386	face	0.0		147	dominance	012	2.0	2		544.408081061762	1.2334483004269714
185.0	509.57167975919083	rating	1.0		55	dominance	012	2.0	2		545.641529362189	0.4667897436393105
185.0	510.03846950283014	fix	2.0		60	dominance	012	2.0	2	1.4000000000000004	546.1083191058283	0.5169438112166063
186.0	510.55541331404675	face	0.0		146	dominance	087	2.0	2		546.6252629170449	1.2332185876011863
186.0	511.78863190164793	rating	1.0		45	dominance	087	2.0	2		547.8584815046461	0.3833517667058004
186.0	512.1719836683537	fix	2.0		61	dominance	087	2.0	2	1.7400000000000002	548.2418332713519	0.525106615729328
187.0	512.6970902840831	face	0.0		146	dominance	136	2.0	2		548.7669398870812	1.2251146451135355
187.0	513.9222049291966	rating	1.0		57	dominance	136	2.0	2		549.9920545321947	0.48338128827526816
187.0	514.4055862174719	fix	2.0		60	dominance	136	2.0	2	2.0199999999999996	550.47543582047	0.5167675269981373
188.0	514.92235374447	face	0.0		147	dominance	117	2.0	2		550.9922033474681	1.2334486022837154
188.0	516.1558023467537	rating	1.0		143	dominance	117	2.0	2		552.2256519497519	1.2001420536867045
188.0	517.3559444004404	fix	2.0		60	dominance	117	2.0	2	1.0599999999999996	553.4257940034386	0.5167578675886944
189.0	517.8727022680291	face	0.0		147	dominance	101	2.0	2		553.9425518710273	1.2334691285282133
189.0	519.1061713965573	rating	1.0		53	dominance	101	2.0	2		555.1760209995555	0.4500379131814043
189.0	519.5562093097387	fix	2.0		60	dominance	101	2.0	2	1.96	555.6260589127369	0.5167639047194825
190.0	520.0729732144582	face	0.0		147	dominance	006	2.0	2		556.1428228174564	1.233460978401581
190.0	521.3064341928598	rating	1.0		66	dominance	006	2.0	2		557.376283795858	0.5583902232287983
190.0	521.8648244160886	fix	2.0		60	dominance	006	2.0	2	-1.5099999999999998	557.9346740190867	0.5167711492767921
191.0	522.3815955653654	face	0.0		147	dominance	100	2.0	2		558.4514451683635	1.2334555449838263
191.0	523.6150511103492	rating	1.0		43	dominance	100	2.0	2		559.6849007133474	0.3667101138844373
191.0	523.9817612242337	fix	2.0		60	dominance	100	2.0	2	0.6500000000000004	560.0516108272318	0.5167418691921739
192.0	524.4985030934258	face	0.0		147	dominance	009	2.0	2		560.568352696424	1.2334534319879822
192.0	525.7319565254138	rating	1.0		67	dominance	009	2.0	2		561.801806128412	0.5667341416651652
192.0	526.298690667079	fix	2.0		61	dominance	009	2.0	2	0.0	562.3685402700771	0.525093032184941
193.0	526.8237836992639	face	0.0		146	dominance	039	2.0	2		562.8936333022621	1.2251333602189334
193.0	528.0489170594828	rating	1.0		72	dominance	039	2.0	2		564.118766662481	0.6084135869250531
193.0	528.6573306464079	fix	2.0		60	dominance	039	2.0	2	0.0	564.727180249406	0.516745793327118
194.0	529.174076439735	face	0.0		147	dominance	144	2.0	2		565.2439260427332	1.2334667136756252
194.0	530.4075431534106	rating	1.0		41	dominance	144	2.0	2		566.4773927564088	0.3500283141434011
194.0	530.757571467554	fix	2.0		60	dominance	144	2.0	2	0.6699999999999999	566.8274210705522	0.5167445859010513
195.0	531.2743160534551	face	0.0		147	dominance	066	2.0	2		567.3441656564532	1.233466411819336
195.0	532.5077824652744	rating	1.0		44	dominance	066	2.0	2		568.5776320682726	0.3750383357805731
195.0	532.882820801055	fix	2.0		60	dominance	066	2.0	2	0.03000000000000025	568.9526704040532	0.5167593768715051
196.0	533.3995801779265	face	0.0		147	dominance	062	2.0	2		569.4694297809247	1.2334498097093274
196.0	534.6330299876358	rating	1.0		48	dominance	062	2.0	2		570.702879590634	0.40838654057915846
196.0	535.041416528215	fix	2.0		60	dominance	062	2.0	2	-0.9700000000000002	571.1112661312131	0.5167515286016169
197.0	535.5581680568166	face	0.0		147	dominance	030	2.0	2		571.6280176598148	1.2334600728318037
197.0	536.7916281296484	rating	1.0		44	dominance	030	2.0	2		572.8614777326466	0.3750443729113613
197.0	537.1666725025598	fix	2.0		60	dominance	030	2.0	2	1.1900000000000004	573.2365221055579	0.5167626972934158
198.0	537.6834351998532	face	0.0		147	dominance	018	2.0	2		573.7532848028513	1.233447696713938
198.0	538.9168828965671	rating	1.0		50	dominance	018	2.0	2		574.9867324995653	0.4250490215017635
198.0	539.3419319180689	fix	2.0		60	dominance	018	2.0	2	-1.9900000000000002	575.411781521067	0.5167545471667836
199.0	539.8586864652357	face	0.0		147	dominance	005	2.0	2		575.9285360682338	1.2334670155323693
199.0	541.092153480768	rating	1.0		70	dominance	005	2.0	2		577.1620030837662	0.5917311834709835
199.0	541.683884664239	fix	2.0		60	dominance	005	2.0	2	-2.12	577.7537342672372	0.5000600694511377
200.0	542.1839447336902	cue	0.0		480						578.2537943366883	4.000499270714499
200.0	546.1844440044047	fix	1.0		120						582.2542936074028	1.0167977126520782
200.0	547.2012417170567	face	0.0		147	attractiveness	070	2.0	2		583.2710913200549	1.2334558468401156
200.0	548.4346975638969	rating	1.0		93	attractiveness	070	2.0	2		584.504547166895	0.7834272912118649
200.0	549.2181248551087	fix	2.0		60	attractiveness	070	2.0	2	-2.63	585.2879744581069	0.5167605842980265
201.0	549.7348854394068	face	0.0		147	attractiveness	043	2.0	2		585.8047350424049	1.2334543375573048
201.0	550.9683397769641	rating	1.0		51	attractiveness	043	2.0	2		587.0381893799622	0.43340652348206277
201.0	551.4017463004461	fix	2.0		61	attractiveness	043	2.0	2	-0.7000000000000002	587.4715959034443	0.5250676762361763
202.0	551.9268139766823	face	0.0		146	attractiveness	172	2.0	2		587.9966635796804	1.2251224933834237
202.0	553.1519364700657	rating	1.0		43	attractiveness	172	2.0	2		589.2217860730639	0.3667089064579159
202.0	553.5186453765236	fix	2.0		60	attractiveness	172	2.0	2	-1.58	589.5884949795218	0.5167545471672383
203.0	554.0353999236909	face	0.0		147	attractiveness	091	2.0	2		590.105249526689	1.233460676544837
203.0	555.2688606002357	rating	1.0		48	attractiveness	091	2.0	2		591.3387102032339	0.40837899416555956
203.0	555.6772395944013	fix	2.0		60	attractiveness	091	2.0	2	-0.8399999999999999	591.7470891973994	0.5167533397407169
204.0	556.193992934142	face	0.0		147	attractiveness	018	2.0	2		592.2638425371401	1.2334615821146144
204.0	557.4274545162566	rating	1.0		50	attractiveness	018	2.0	2		593.4973041192547	0.4250499270715409
204.0	557.8525044433281	fix	2.0		60	attractiveness	018	2.0	2	2.1900000000000004	593.9223540463263	0.5167491137494835
205.0	558.3692535570776	face	0.0		147	attractiveness	136	2.0	2		594.4391031600758	1.2334642988234918
205.0	559.6027178559011	rating	1.0		41	attractiveness	136	2.0	2		595.6725674588993	0.3500497459572216
205.0	559.9527676018583	fix	2.0		60	attractiveness	136	2.0	2	-2.38	596.0226172048565	0.5083913099124402
206.0	560.4611589117708	face	0.0		148	attractiveness	144	2.0	2		596.5310085147689	1.2418432326180664
206.0	561.7030021443888	rating	1.0		96	attractiveness	144	2.0	2		597.772851747387	0.8083953547902638
206.0	562.5113974991791	fix	2.0		60	attractiveness	144	2.0	2	-0.41999999999999993	598.5812471021773	0.5167563583058836
207.0	563.028153857485	face	0.0		147	attractiveness	099	2.0	2		599.0980034604831	1.2334582616927037
207.0	564.2616121191777	rating	1.0		71	attractiveness	099	2.0	2		600.3314617221758	0.6000754037636398
207.0	564.8616875229413	fix	2.0		60	attractiveness	099	2.0	2	0.0	600.9315371259395	0.5167466988968954
208.0	565.3784342218382	face	0.0		147	attractiveness	042	2.0	2		601.4482838248364	1.2334594691187704
208.0	566.611893690957	rating	1.0		49	attractiveness	042	2.0	2		602.6817432939552	0.41672140331866103
208.0	567.0286150942757	fix	2.0		60	attractiveness	042	2.0	2	1.0700000000000003	603.0984646972738	0.5167623954371265
209.0	567.5453774897128	face	0.0		147	attractiveness	024	2.0	2		603.6152270927109	1.2334860324940564
209.0	568.7788635222068	rating	1.0		52	attractiveness	024	2.0	2		604.848713125205	0.4416801093448157
209.0	569.2205436315517	fix	2.0		60	attractiveness	024	2.0	2	2.1900000000000004	605.2903932345498	0.5167596787277944
210.0	569.7373033102795	face	0.0		147	attractiveness	036	2.0	2		605.8071529132776	1.2334522245619155
210.0	570.9707555348414	rating	1.0		73	attractiveness	036	2.0	2		607.0406051378395	0.6167415069644449
210.0	571.5874970418058	fix	2.0		60	attractiveness	036	2.0	2	1.7800000000000002	607.657346644804	0.5167515286016169
211.0	572.1042485704074	face	0.0		147	attractiveness	012	2.0	2		608.1740981734056	1.2334612802583251
211.0	573.3377098506658	rating	1.0		93	attractiveness	012	2.0	2		609.4075594536639	0.7834239707899542
211.0	574.1211338214557	fix	2.0		60	attractiveness	012	2.0	2	0.7800000000000002	610.1909834244539	0.5167527360276836
212.0	574.6378865574834	face	0.0		147	attractiveness	039	2.0	2		610.7077361604815	1.2334618839709037
212.0	575.8713484414543	rating	1.0		45	attractiveness	039	2.0	2		611.9411980444524	0.3833768207987305
212.0	576.254725262253	fix	2.0		60	attractiveness	039	2.0	2	2.12	612.3245748652512	0.5167542453104943
213.0	576.7714795075635	face	0.0		147	attractiveness	100	2.0	2		612.8413291105617	1.2334667136756252
213.0	578.0049462212392	rating	1.0		37	attractiveness	100	2.0	2		614.0747958242373	0.31669490031481473
213.0	578.321641121554	fix	2.0		60	attractiveness	100	2.0	2	-0.6699999999999999	614.3914907245521	0.5167581694454384
214.0	578.8383992909994	face	0.0		147	attractiveness	044	2.0	2		614.9082488939976	1.2334585635494477
214.0	580.0718578545489	rating	1.0		75	attractiveness	044	2.0	2		616.141707457547	0.6334082138782833
214.0	580.7052660684271	fix	2.0		60	attractiveness	044	2.0	2	-0.7999999999999998	616.7751156714253	0.5167584713021824
215.0	581.2220245397293	face	0.0		147	attractiveness	141	2.0	2		617.2918741427275	1.2334531301312381
215.0	582.4554776698606	rating	1.0		119	attractiveness	141	2.0	2		618.5253272728587	1.0001213463287968
215.0	583.4555990161894	fix	2.0		60	attractiveness	141	2.0	2	2.3	619.5254486191875	0.5167608861538611
216.0	583.9723599023432	face	0.0		147	attractiveness	092	2.0	2		620.0422095053414	1.2334715433808014
216.0	585.205831445724	rating	1.0		81	attractiveness	092	2.0	2		621.2756810487222	0.683404712342508
216.0	585.8892361580665	fix	2.0		60	attractiveness	092	2.0	2	1.9100000000000001	621.9590857610647	0.516791373664546
217.0	586.4060275317311	face	0.0		147	attractiveness	130	2.0	2		622.4758771347292	1.2334220389084294
217.0	587.6394495706395	rating	1.0		55	attractiveness	130	2.0	2		623.7092991736376	0.4667085442301868
217.0	588.1061581148697	fix	2.0		60	attractiveness	130	2.0	2	-1.06	624.1760077178678	0.5167524341713943
218.0	588.6229105490411	face	0.0		147	attractiveness	034	2.0	2		624.6927601520392	1.2334646006797811
218.0	589.8563751497209	rating	1.0		49	attractiveness	034	2.0	2		625.926224752719	0.4167138569055169
218.0	590.2730890066264	fix	2.0		60	attractiveness	034	2.0	2	0.0	626.3429386096245	0.5167590750152158
219.0	590.7898480816416	face	0.0		147	attractiveness	102	2.0	2		626.8596976846397	1.2334540357010155
219.0	592.0233021173426	rating	1.0		49	attractiveness	102	2.0	2		628.0931517203408	0.41671325319248353
219.0	592.4400153705351	fix	2.0		60	attractiveness	102	2.0	2	-1.04	628.5098649735332	0.5167506230318395
220.0	592.9567659935669	face	0.0		147	attractiveness	101	2.0	2		629.0266155965651	1.2334615821146144
220.0	594.1902275756815	rating	1.0		58	attractiveness	101	2.0	2		630.2600771786797	0.49172731970702444
220.0	594.6819548953886	fix	2.0		60	attractiveness	101	2.0	2	1.5700000000000003	630.7518044983867	0.5167608861543158
221.0	595.1987157815429	face	0.0		147	attractiveness	117	2.0	2		631.268565384541	1.2334649025365252
221.0	596.4321806840794	rating	1.0		36	attractiveness	117	2.0	2		632.5020302870776	0.30837180998014446
221.0	596.7405524940596	fix	2.0		60	attractiveness	117	2.0	2	0.0	632.8104020970577	0.5167539434537503
222.0	597.2573064375133	face	0.0		147	attractiveness	082	2.0	2		633.3271560405115	1.233443772578994
222.0	598.4907502100923	rating	1.0		80	attractiveness	082	2.0	2		634.5605998130904	0.6750936962694141
222.0	599.1658439063617	fix	2.0		60	attractiveness	082	2.0	2	1.4900000000000002	635.2356935093599	0.5167545471667836
223.0	599.6825984535285	face	0.0		147	attractiveness	030	2.0	2		635.7524480565266	1.2334923714815886
223.0	600.9160908250101	rating	1.0		51	attractiveness	030	2.0	2		636.9859404280082	0.43333558719541543
223.0	601.3494264122055	fix	2.0		60	attractiveness	030	2.0	2	1.2599999999999998	637.4192760152036	0.5167657158590373
224.0	601.8661921280645	face	0.0		147	attractiveness	126	2.0	2		637.9360417310627	1.2334615821146144
224.0	603.0996537101792	rating	1.0		43	attractiveness	126	2.0	2		639.1695033131773	0.36669622848376093
224.0	603.4663499386629	fix	2.0		60	attractiveness	126	2.0	2	-0.75	639.5361995416611	0.5167696399935267
225.0	603.9831195786564	face	0.0		146	attractiveness	137	2.0	2		640.0529691816546	1.2334498097097821
225.0	605.2165693883662	rating	1.0		55	attractiveness	137	2.0	2		641.2864189913644	0.46671246836558566
225.0	605.6832818567318	fix	2.0		60	attractiveness	137	2.0	2	2.01	641.75313145973	0.5167708474200481
226.0	606.2000527041519	face	0.0		147	attractiveness	011	2.0	2		642.26990230715	1.2334419614394392
226.0	607.4334946655913	rating	1.0		65	attractiveness	011	2.0	2		643.5033442685894	0.5500834331473925
226.0	607.9835780987387	fix	2.0		60	attractiveness	011	2.0	2	-1.12	644.0534277017368	0.5167494156057728
227.0	608.5003275143445	face	0.0		147	attractiveness	064	2.0	2		644.5701771173426	1.233458563548993
227.0	609.7337860778935	rating	1.0		51	attractiveness	064	2.0	2		645.8036356808916	0.433403203060152
227.0	610.1671892809536	fix	2.0		60	attractiveness	064	2.0	2	-0.54	646.2370388839518	0.5167388506270072
228.0	610.6839281315806	face	0.0		147	attractiveness	038	2.0	2		646.7537777345788	1.2334428670092166
228.0	611.9173709985898	rating	1.0		69	attractiveness	038	2.0	2		647.987220601588	0.5834274119542897
228.0	612.5007984105441	fix	2.0		60	attractiveness	038	2.0	2	-1.85	648.5706480135423	0.5167316060701523
229.0	613.0175300166143	face	0.0		147	attractiveness	009	2.0	2		649.0873796196124	1.2334697322412467
229.0	614.2509997488555	rating	1.0		54	attractiveness	009	2.0	2		650.3208493518537	0.45839028360023804
229.0	614.7093900324558	fix	2.0		60	attractiveness	009	2.0	2	-0.6200000000000001	650.7792396354539	0.5167364357744191
230.0	615.2261264682302	face	0.0		147	attractiveness	006	2.0	2		651.2959760712283	1.2334745619459682
230.0	616.4596010301761	rating	1.0		53	attractiveness	006	2.0	2		652.5294506331743	0.4500575338561248
230.0	616.9096585640323	fix	2.0		61	attractiveness	006	2.0	2	-1.38	652.9795081670304	0.5250879006239302
231.0	617.4347464646562	face	0.0		146	attractiveness	061	2.0	2		653.5045960676543	1.2251267193751119
231.0	618.6598731840313	rating	1.0		47	attractiveness	061	2.0	2		654.7297227870295	0.40003507572964736
231.0	619.059908259761	fix	2.0		60	attractiveness	061	2.0	2	1.1399999999999997	655.1297578627591	0.516747604466218
232.0	619.5766558642272	face	0.0		147	attractiveness	005	2.0	2		655.6465054672253	1.2334661099630466
232.0	620.8101219741902	rating	1.0		48	attractiveness	005	2.0	2		656.8799715771884	0.40839559627511335
232.0	621.2185175704653	fix	2.0		59	attractiveness	005	2.0	2	-1.9900000000000002	657.2883671734635	0.5167382469139739
233.0	621.7352558173793	face	0.0		147	attractiveness	124	2.0	2		657.8051054203775	1.2334531301316929
233.0	622.968708947511	rating	1.0		61	attractiveness	124	2.0	2		659.0385585505092	0.516745793327118
233.0	623.4854547408381	fix	2.0		60	attractiveness	124	2.0	2	0.45999999999999996	659.5553043438363	0.516744284044762
234.0	624.0021990248829	face	0.0		147	attractiveness	033	2.0	2		660.072048627881	1.2334537338442715
234.0	625.2356527587272	rating	1.0		68	attractiveness	033	2.0	2		661.3055023617253	0.5751399406913151
234.0	625.8107926994185	fix	2.0		60	attractiveness	033	2.0	2	-2.58	661.8806423024166	0.5166944777156459
235.0	626.3274871771341	face	0.0		147	attractiveness	121	2.0	2		662.3973367801323	1.233472448950124
235.0	627.5609596260842	rating	1.0		149	attractiveness	121	2.0	2		663.6308092290824	1.2501201389022754
235.0	628.8110797649865	fix	2.0		60	attractiveness	121	2.0	2	0.0	664.8809293679847	0.5167614898673492
236.0	629.3278412548539	face	0.0		147	attractiveness	027	2.0	2		665.397690857852	1.23347214709338
236.0	630.5613134019472	rating	1.0		60	attractiveness	027	2.0	2		666.6311630049454	0.5083795375076079
236.0	631.0696929394549	fix	2.0		60	attractiveness	027	2.0	2	-0.8300000000000001	667.139542542453	0.5167587731584717
237.0	631.5864517126133	face	0.0		147	attractiveness	062	2.0	2		667.6563013156115	1.2334431688659606
237.0	632.8198948814793	rating	1.0		49	attractiveness	062	2.0	2		668.8897444844774	0.41673438315001476
237.0	633.2366292646293	fix	2.0		60	attractiveness	062	2.0	2	-1.12	669.3064788676274	0.5167451896140847
238.0	633.7533744542434	face	0.0		147	attractiveness	087	2.0	2		669.8232240572415	1.233457054266637
238.0	634.98683150851	rating	1.0		51	attractiveness	087	2.0	2		671.0566811115082	0.4333811675328434
238.0	635.4202126760429	fix	2.0		60	attractiveness	087	2.0	2	-0.8900000000000001	671.490062279041	0.5167726585591481
239.0	635.936985334602	face	0.0		147	attractiveness	066	2.0	2		672.0068349376002	1.2334428670092166
239.0	637.1704282016112	rating	1.0		56	attractiveness	066	2.0	2		673.2402778046094	0.4750600090796979
239.0	637.6454882106909	fix	2.0		59	attractiveness	066	2.0	2	-0.81	673.7153378136891	0.5000630880167591
