trial_nr	onset	event_type	phase	response	nr_frames	face_age	face_sex	face_eth	attractiveness	expression	face_id	sub_id	ses	run	trial_type	catch	rating_type	onset_abs	duration
-1.0	0.06297857337631285	fix	0.0		713													22.562577558055636	5.957870902948343
-1.0	0.7044225786885363	pulse	0.0	t														23.20402156336786	
-1.0	1.4044045578993973	pulse	0.0	t														23.90400354257872	
-1.0	2.1043850278365426	pulse	0.0	t														24.603984012515866	
-1.0	2.804380892412155	pulse	0.0	t														25.30397987709148	
-1.0	3.5043544196669245	pulse	0.0	t														26.003953404346248	
-1.0	4.204394053322176	pulse	0.0	t														26.7039930380015	
-1.0	4.904347054387472	pulse	0.0	t														27.403946039066795	
-1.0	5.604335070715024	pulse	0.0	t														28.103934055394348	
0.0	6.020849476324656	face	0.0		144	22.0	female	white	4.614007162753682	neutral	009	sub-10	2.0	4.0	009_neutral	0.0		28.52044846100398	1.2333269239315996
0.0	6.3043119183821545	pulse	0.0	t		22.0	female	white	4.614007162753682	neutral	009	sub-10	2.0	4.0	009_neutral	0.0		28.803910903061478	
0.0	7.004293897593016	pulse	0.0	t		22.0	female	white	4.614007162753682	neutral	009	sub-10	2.0	4.0	009_neutral	0.0		29.50389288227234	
0.0	7.254176400256256	fix	1.0		445	22.0	female	white	4.614007162753682	neutral	009	sub-10	2.0	4.0	009_neutral	0.0		29.75377538493558	3.75826639431034
0.0	7.704296402996988	pulse	1.0	t		22.0	female	white	4.614007162753682	neutral	009	sub-10	2.0	4.0	009_neutral	0.0		30.20389538767631	
0.0	8.404338451498916	pulse	1.0	t		22.0	female	white	4.614007162753682	neutral	009	sub-10	2.0	4.0	009_neutral	0.0		30.90393743617824	
0.0	9.104260361422348	pulse	1.0	t		22.0	female	white	4.614007162753682	neutral	009	sub-10	2.0	4.0	009_neutral	0.0		31.60385934610167	
0.0	9.804241736925178	pulse	1.0	t		22.0	female	white	4.614007162753682	neutral	009	sub-10	2.0	4.0	009_neutral	0.0		32.3038407216045	
0.0	10.504251788723195	pulse	1.0	t		22.0	female	white	4.614007162753682	neutral	009	sub-10	2.0	4.0	009_neutral	0.0		33.00385077340252	
1.0	11.012442794566596	face	0.0		146	27.0	male	black	3.5523278949462798	neutral	042	sub-10	2.0	4.0	042_neutral	0.0		33.51204177924592	1.2416626695958257
1.0	11.20422169370795	pulse	0.0	t		27.0	male	black	3.5523278949462798	neutral	042	sub-10	2.0	4.0	042_neutral	0.0		33.703820678387274	
1.0	11.90420820075451	pulse	0.0	t		27.0	male	black	3.5523278949462798	neutral	042	sub-10	2.0	4.0	042_neutral	0.0		34.403807185433834	
1.0	12.254105464162421	fix	1.0		445	27.0	male	black	3.5523278949462798	neutral	042	sub-10	2.0	4.0	042_neutral	0.0		34.753704448841745	3.7582410384311515
1.0	12.604203159764438	pulse	1.0	t		27.0	male	black	3.5523278949462798	neutral	042	sub-10	2.0	4.0	042_neutral	0.0		35.10380214444376	
1.0	13.304183931555599	pulse	1.0	t		27.0	male	black	3.5523278949462798	neutral	042	sub-10	2.0	4.0	042_neutral	0.0		35.80378291623492	
1.0	14.004174966441497	pulse	1.0	t		27.0	male	black	3.5523278949462798	neutral	042	sub-10	2.0	4.0	042_neutral	0.0		36.50377395112082	
1.0	14.70417022730544	pulse	1.0	t		27.0	male	black	3.5523278949462798	neutral	042	sub-10	2.0	4.0	042_neutral	0.0		37.20376921198476	
1.0	15.404149791673262	pulse	1.0	t		27.0	male	black	3.5523278949462798	neutral	042	sub-10	2.0	4.0	042_neutral	0.0		37.903748776352586	
2.0	16.012346502593573	face	0.0		146	31.0	female	east_asian	3.395941106247513	neutral	087	sub-10	2.0	4.0	087_neutral	0.0		38.5119454872729	1.2416693104205478
2.0	16.1041375061468	pulse	0.0	t		31.0	female	east_asian	3.395941106247513	neutral	087	sub-10	2.0	4.0	087_neutral	0.0		38.60373649082612	
2.0	16.804127635463374	pulse	0.0	t		31.0	female	east_asian	3.395941106247513	neutral	087	sub-10	2.0	4.0	087_neutral	0.0		39.3037266201427	
2.0	17.25401581301412	fix	1.0		444	31.0	female	east_asian	3.395941106247513	neutral	087	sub-10	2.0	4.0	087_neutral	0.0		39.753614797693444	3.7582452644128352
2.0	17.50411142581288	pulse	1.0	t		31.0	female	east_asian	3.395941106247513	neutral	087	sub-10	2.0	4.0	087_neutral	0.0		40.003710410492204	
2.0	18.20409521615875	pulse	1.0	t		31.0	female	east_asian	3.395941106247513	neutral	087	sub-10	2.0	4.0	087_neutral	0.0		40.70369420083807	
2.0	18.904074478672555	pulse	1.0	t		31.0	female	east_asian	3.395941106247513	neutral	087	sub-10	2.0	4.0	087_neutral	0.0		41.40367346335188	
2.0	19.604072758094844	pulse	1.0	t		31.0	female	east_asian	3.395941106247513	neutral	087	sub-10	2.0	4.0	087_neutral	0.0		42.10367174277417	
2.0	20.304068622670457	pulse	1.0	t		31.0	female	east_asian	3.395941106247513	neutral	087	sub-10	2.0	4.0	087_neutral	0.0		42.80366760734978	
3.0	21.012261077426956	face	0.0		147	40.0	male	white	1.868682849184242	neutral	172	sub-10	2.0	4.0	172_neutral	0.0		43.51186006210628	1.2416662918622023
3.0	21.005840304438607	pulse	0.0	t		40.0	male	white	1.868682849184242	neutral	172	sub-10	2.0	4.0	172_neutral	0.0		43.50543928911793	
3.0	21.704038618212508	pulse	0.0	t		40.0	male	white	1.868682849184242	neutral	172	sub-10	2.0	4.0	172_neutral	0.0		44.20363760289183	
3.0	22.25392736928916	fix	1.0		443	40.0	male	white	1.868682849184242	neutral	172	sub-10	2.0	4.0	172_neutral	0.0		44.75352635396848	3.7582470755442046
3.0	22.404021201138676	pulse	1.0	t		40.0	male	white	1.868682849184242	neutral	172	sub-10	2.0	4.0	172_neutral	0.0		44.903620185818	
3.0	23.104009217466228	pulse	1.0	t		40.0	male	white	1.868682849184242	neutral	172	sub-10	2.0	4.0	172_neutral	0.0		45.60360820214555	
3.0	23.804006591322832	pulse	1.0	t		40.0	male	white	1.868682849184242	neutral	172	sub-10	2.0	4.0	172_neutral	0.0		46.303605576002155	
3.0	24.50399370208106	pulse	1.0	t		40.0	male	white	1.868682849184242	neutral	172	sub-10	2.0	4.0	172_neutral	0.0		47.003592686760385	
3.0	25.20398413325529	pulse	1.0	t		40.0	male	white	1.868682849184242	neutral	172	sub-10	2.0	4.0	172_neutral	0.0		47.70358311793461	
3.0	25.903958566075744	pulse	1.0	t		40.0	male	white	1.868682849184242	neutral	172	sub-10	2.0	4.0	172_neutral	0.0		48.40355755075507	
4.0	26.012174444833363	face	0.0		147	40.0	male	black	2.408674890569041	smiling	061	sub-10	2.0	4.0	061_smiling	0.0		48.51177342951269	1.241649086088728
4.0	26.603960165910394	pulse	0.0	t		40.0	male	black	2.408674890569041	smiling	061	sub-10	2.0	4.0	061_smiling	0.0		49.10355915058972	
4.0	27.25382353092209	fix	1.0		443	40.0	male	black	2.408674890569041	smiling	061	sub-10	2.0	4.0	061_smiling	0.0		49.753422515601414	3.758247981113527
4.0	27.30393882471253	pulse	1.0	t		40.0	male	black	2.408674890569041	smiling	061	sub-10	2.0	4.0	061_smiling	0.0		49.803537809391855	
4.0	28.003928954029107	pulse	1.0	t		40.0	male	black	2.408674890569041	smiling	061	sub-10	2.0	4.0	061_smiling	0.0		50.50352793870843	
4.0	28.7039045942729	pulse	1.0	t		40.0	male	black	2.408674890569041	smiling	061	sub-10	2.0	4.0	061_smiling	0.0		51.20350357895222	
4.0	29.403898647717142	pulse	1.0	t		40.0	male	black	2.408674890569041	smiling	061	sub-10	2.0	4.0	061_smiling	0.0		51.903497632396466	
4.0	30.103881230639672	pulse	1.0	t		40.0	male	black	2.408674890569041	smiling	061	sub-10	2.0	4.0	061_smiling	0.0		52.603480215318996	
4.0	30.803881019342953	pulse	1.0	t		40.0	male	black	2.408674890569041	smiling	061	sub-10	2.0	4.0	061_smiling	0.0		53.303480004022276	
5.0	31.012071512035618	face	0.0		146	28.0	male	east_asian	1.5563072025467568	smiling	005	sub-10	2.0	4.0	005_smiling	0.0		53.51167049671494	1.24167595124527
5.0	31.503835227831587	pulse	0.0	t		28.0	male	east_asian	1.5563072025467568	smiling	005	sub-10	2.0	4.0	005_smiling	0.0		54.00343421251091	
5.0	32.20385735385571	pulse	0.0	t		28.0	male	east_asian	1.5563072025467568	smiling	005	sub-10	2.0	4.0	005_smiling	0.0		54.703456338535034	
5.0	32.25374746328089	fix	1.0		445	28.0	male	east_asian	1.5563072025467568	smiling	005	sub-10	2.0	4.0	005_smiling	0.0		54.75334644796021	3.7665668228546565
5.0	32.903835107088526	pulse	1.0	t		28.0	male	east_asian	1.5563072025467568	smiling	005	sub-10	2.0	4.0	005_smiling	0.0		55.40343409176785	
5.0	33.603811954755656	pulse	1.0	t		28.0	male	east_asian	1.5563072025467568	smiling	005	sub-10	2.0	4.0	005_smiling	0.0		56.10341093943498	
5.0	34.303818686137674	pulse	1.0	t		28.0	male	east_asian	1.5563072025467568	smiling	005	sub-10	2.0	4.0	005_smiling	0.0		56.803417670817	
5.0	35.00379794864784	pulse	1.0	t		28.0	male	east_asian	1.5563072025467568	smiling	005	sub-10	2.0	4.0	005_smiling	0.0		57.50339693332717	
5.0	35.70379411508111	pulse	1.0	t		28.0	male	east_asian	1.5563072025467568	smiling	005	sub-10	2.0	4.0	005_smiling	0.0		58.20339309976043	
6.0	36.020314286135545	face	0.0		145	25.0	female	west_asian	2.6756864305610826	smiling	064	sub-10	2.0	4.0	064_smiling	1.0	dominance	58.51991327081487	1.2333317536213144
6.0	36.40377367944893	pulse	0.0	t		25.0	female	west_asian	2.6756864305610826	smiling	064	sub-10	2.0	4.0	064_smiling	1.0	dominance	58.903372664128256	
6.0	37.10376018649913	pulse	0.0	t		25.0	female	west_asian	2.6756864305610826	smiling	064	sub-10	2.0	4.0	064_smiling	1.0	dominance	59.603359171178454	
6.0	37.25364603975686	fix	1.0		177	25.0	female	west_asian	2.6756864305610826	smiling	064	sub-10	2.0	4.0	064_smiling	1.0	dominance	59.75324502443618	1.5083555172132037
6.0	37.80375544736307	pulse	1.0	t		25.0	female	west_asian	2.6756864305610826	smiling	064	sub-10	2.0	4.0	064_smiling	1.0	dominance	60.3033544320424	
6.0	38.50373531358855	pulse	1.0	t		25.0	female	west_asian	2.6756864305610826	smiling	064	sub-10	2.0	4.0	064_smiling	1.0	dominance	61.00333429826787	
6.0	38.76200155697006	rating	2.0		294	25.0	female	west_asian	2.6756864305610826	smiling	064	sub-10	2.0	4.0	064_smiling	1.0	dominance	61.261600541649386	2.491566000302555
6.0	39.2037233299161	pulse	2.0	t		25.0	female	west_asian	2.6756864305610826	smiling	064	sub-10	2.0	4.0	064_smiling	1.0	dominance	61.703322314595425	
6.0	39.90370802583129	pulse	2.0	t		25.0	female	west_asian	2.6756864305610826	smiling	064	sub-10	2.0	4.0	064_smiling	1.0	dominance	62.403307010510616	
6.0	40.21204760506225	response	2.0	e		25.0	female	west_asian	2.6756864305610826	smiling	064	sub-10	2.0	4.0	064_smiling	1.0	dominance	62.71164658974158	
6.0	40.60369181617716	pulse	2.0	t		25.0	female	west_asian	2.6756864305610826	smiling	064	sub-10	2.0	4.0	064_smiling	1.0	dominance	63.103290800856485	
6.0	41.25356755727262	fix	3.0		443	25.0	female	west_asian	2.6756864305610826	smiling	064	sub-10	2.0	4.0	064_smiling	1.0	dominance	63.75316654195194	3.766604252963589
6.0	41.30368647333307	pulse	3.0	t		25.0	female	west_asian	2.6756864305610826	smiling	064	sub-10	2.0	4.0	064_smiling	1.0	dominance	63.8032854580124	
6.0	42.003666037700896	pulse	3.0	t		25.0	female	west_asian	2.6756864305610826	smiling	064	sub-10	2.0	4.0	064_smiling	1.0	dominance	64.50326502238022	
6.0	42.703667637535546	pulse	3.0	t		25.0	female	west_asian	2.6756864305610826	smiling	064	sub-10	2.0	4.0	064_smiling	1.0	dominance	65.20326662221487	
6.0	43.40364357963335	pulse	3.0	t		25.0	female	west_asian	2.6756864305610826	smiling	064	sub-10	2.0	4.0	064_smiling	1.0	dominance	65.90324256431268	
6.0	44.10363733121994	pulse	3.0	t		25.0	female	west_asian	2.6756864305610826	smiling	064	sub-10	2.0	4.0	064_smiling	1.0	dominance	66.60323631589927	
6.0	44.80363742177724	pulse	3.0	t		25.0	female	west_asian	2.6756864305610826	smiling	064	sub-10	2.0	4.0	064_smiling	1.0	dominance	67.30323640645656	
7.0	45.02017181023621	face	0.0		145	20.0	male	black	2.609629924393156	smiling	043	sub-10	2.0	4.0	043_smiling	0.0		67.51977079491553	1.233326018365915
7.0	45.503615175010054	pulse	0.0	t		20.0	male	black	2.609629924393156	smiling	043	sub-10	2.0	4.0	043_smiling	0.0		68.00321415968938	
7.0	46.20360409690693	pulse	0.0	t		20.0	male	black	2.609629924393156	smiling	043	sub-10	2.0	4.0	043_smiling	0.0		68.70320308158625	
7.0	46.25349782860212	fix	1.0		445	20.0	male	black	2.609629924393156	smiling	043	sub-10	2.0	4.0	043_smiling	0.0		68.75309681328145	3.766584632343438
7.0	46.90359905591686	pulse	1.0	t		20.0	male	black	2.609629924393156	smiling	043	sub-10	2.0	4.0	043_smiling	0.0		69.40319804059618	
7.0	47.60358465739773	pulse	1.0	t		20.0	male	black	2.609629924393156	smiling	043	sub-10	2.0	4.0	043_smiling	0.0		70.10318364207706	
7.0	48.30356573104291	pulse	1.0	t		20.0	male	black	2.609629924393156	smiling	043	sub-10	2.0	4.0	043_smiling	0.0		70.80316471572223	
7.0	49.0035446917027	pulse	1.0	t		20.0	male	black	2.609629924393156	smiling	043	sub-10	2.0	4.0	043_smiling	0.0		71.50314367638202	
7.0	49.703551724938734	pulse	1.0	t		20.0	male	black	2.609629924393156	smiling	043	sub-10	2.0	4.0	043_smiling	0.0		72.20315070961806	
8.0	50.02008246094556	face	0.0		145	34.0	male	white	2.651014723438122	neutral	121	sub-10	2.0	4.0	121_neutral	0.0		72.51968144562488	1.2333269239279616
8.0	50.40352193178114	pulse	0.0	t		34.0	male	white	2.651014723438122	neutral	121	sub-10	2.0	4.0	121_neutral	0.0		72.90312091646047	
8.0	51.103514475944394	pulse	0.0	t		34.0	male	white	2.651014723438122	neutral	121	sub-10	2.0	4.0	121_neutral	0.0		73.60311346062372	
8.0	51.25340938487352	fix	1.0		445	34.0	male	white	2.651014723438122	neutral	121	sub-10	2.0	4.0	121_neutral	0.0		73.75300836955284	3.766584028635407
8.0	51.80350098299459	pulse	1.0	t		34.0	male	white	2.651014723438122	neutral	121	sub-10	2.0	4.0	121_neutral	0.0		74.30309996767392	
8.0	52.503480547362415	pulse	1.0	t		34.0	male	white	2.651014723438122	neutral	121	sub-10	2.0	4.0	121_neutral	0.0		75.00307953204174	
8.0	53.20348063791607	pulse	1.0	t		34.0	male	white	2.651014723438122	neutral	121	sub-10	2.0	4.0	121_neutral	0.0		75.7030796225954	
8.0	53.903458994864195	pulse	1.0	t		34.0	male	white	2.651014723438122	neutral	121	sub-10	2.0	4.0	121_neutral	0.0		76.40305797954352	
8.0	54.60345787799815	pulse	1.0	t		34.0	male	white	2.651014723438122	neutral	121	sub-10	2.0	4.0	121_neutral	0.0		77.10305686267748	
9.0	55.01999341350893	face	0.0		145	27.0	female	white	4.181058495821727	smiling	039	sub-10	2.0	4.0	039_smiling	0.0		77.51959239818825	1.2333272257856152
9.0	55.30344619617972	pulse	0.0	t		27.0	female	white	4.181058495821727	smiling	039	sub-10	2.0	4.0	039_smiling	0.0		77.80304518085904	
9.0	56.0034170067338	pulse	0.0	t		27.0	female	white	4.181058495821727	smiling	039	sub-10	2.0	4.0	039_smiling	0.0		78.50301599141312	
9.0	56.25332063929454	fix	1.0		444	27.0	female	white	4.181058495821727	smiling	039	sub-10	2.0	4.0	039_smiling	0.0		78.75291962397387	3.766566521000641
9.0	56.70342585110484	pulse	1.0	t		27.0	female	white	4.181058495821727	smiling	039	sub-10	2.0	4.0	039_smiling	0.0		79.20302483578416	
9.0	57.40340269877197	pulse	1.0	t		27.0	female	white	4.181058495821727	smiling	039	sub-10	2.0	4.0	039_smiling	0.0		79.9030016834513	
9.0	58.10338618726382	pulse	1.0	t		27.0	female	white	4.181058495821727	smiling	039	sub-10	2.0	4.0	039_smiling	0.0		80.60298517194315	
9.0	58.803442121126864	pulse	1.0	t		27.0	female	white	4.181058495821727	smiling	039	sub-10	2.0	4.0	039_smiling	0.0		81.30304110580619	
9.0	59.50336040878392	pulse	1.0	t		27.0	female	white	4.181058495821727	smiling	039	sub-10	2.0	4.0	039_smiling	0.0		82.00295939346324	
10.0	60.019887160295184	face	0.0		145	31.0	male	west_asian	1.9538400318344609	smiling	070	sub-10	2.0	4.0	070_smiling	0.0		82.51948614497451	1.2333100200085028
10.0	60.20335476408218	pulse	0.0	t		31.0	male	west_asian	1.9538400318344609	smiling	070	sub-10	2.0	4.0	070_smiling	0.0		82.7029537487615	
10.0	60.903331913603324	pulse	0.0	t		31.0	male	west_asian	1.9538400318344609	smiling	070	sub-10	2.0	4.0	070_smiling	0.0		83.40293089828265	
10.0	61.25319718030369	fix	1.0		444	31.0	male	west_asian	1.9538400318344609	smiling	070	sub-10	2.0	4.0	070_smiling	0.0		83.75279616498301	3.7582826945217676
10.0	61.60334045612035	pulse	1.0	t		31.0	male	west_asian	1.9538400318344609	smiling	070	sub-10	2.0	4.0	070_smiling	0.0		84.10293944079967	
10.0	62.30331579451013	pulse	1.0	t		31.0	male	west_asian	1.9538400318344609	smiling	070	sub-10	2.0	4.0	070_smiling	0.0		84.80291477918945	
10.0	63.00329535887795	pulse	1.0	t		31.0	male	west_asian	1.9538400318344609	smiling	070	sub-10	2.0	4.0	070_smiling	0.0		85.50289434355727	
10.0	63.703293336442584	pulse	1.0	t		31.0	male	west_asian	1.9538400318344609	smiling	070	sub-10	2.0	4.0	070_smiling	0.0		86.20289232112191	
10.0	64.40328437132848	pulse	1.0	t		31.0	male	west_asian	1.9538400318344609	smiling	070	sub-10	2.0	4.0	070_smiling	0.0		86.9028833560078	
11.0	65.01147987482545	face	0.0		146	21.0	male	black	2.969757262236371	smiling	137	sub-10	2.0	4.0	137_smiling	0.0		87.51107885950478	1.241640332271345
11.0	65.1032609171416	pulse	0.0	t		21.0	male	black	2.969757262236371	smiling	137	sub-10	2.0	4.0	137_smiling	0.0		87.60285990182092	
11.0	65.8032459149108	pulse	0.0	t		21.0	male	black	2.969757262236371	smiling	137	sub-10	2.0	4.0	137_smiling	0.0		88.30284489959013	
11.0	66.2531202070968	fix	1.0		444	21.0	male	black	2.969757262236371	smiling	137	sub-10	2.0	4.0	137_smiling	0.0		88.75271919177612	3.766601536266535
11.0	66.50324872216879	pulse	1.0	t		21.0	male	black	2.969757262236371	smiling	137	sub-10	2.0	4.0	137_smiling	0.0		89.00284770684812	
11.0	67.20323039952564	pulse	1.0	t		21.0	male	black	2.969757262236371	smiling	137	sub-10	2.0	4.0	137_smiling	0.0		89.70282938420496	
11.0	67.90320815276209	pulse	1.0	t		21.0	male	black	2.969757262236371	smiling	137	sub-10	2.0	4.0	137_smiling	0.0		90.40280713744141	
11.0	68.60319828207867	pulse	1.0	t		21.0	male	black	2.969757262236371	smiling	137	sub-10	2.0	4.0	137_smiling	0.0		91.10279726675799	
11.0	69.30318237428219	pulse	1.0	t		21.0	male	black	2.969757262236371	smiling	137	sub-10	2.0	4.0	137_smiling	0.0		91.80278135896151	
12.0	70.01972174336333	face	0.0		146	24.0	male	white	3.1153999204138483	smiling	012	sub-10	2.0	4.0	012_smiling	0.0		92.51932072804266	1.2333208868149086
12.0	70.0057153361704	pulse	0.0	t		24.0	male	white	3.1153999204138483	smiling	012	sub-10	2.0	4.0	012_smiling	0.0		92.50531432084972	
12.0	70.70316233106132	pulse	0.0	t		24.0	male	white	3.1153999204138483	smiling	012	sub-10	2.0	4.0	012_smiling	0.0		93.20276131574064	
12.0	71.25304263017824	fix	1.0		443	24.0	male	white	3.1153999204138483	smiling	012	sub-10	2.0	4.0	012_smiling	0.0		93.75264161485757	3.766581915642746
12.0	71.4031467251225	pulse	1.0	t		24.0	male	white	3.1153999204138483	smiling	012	sub-10	2.0	4.0	012_smiling	0.0		93.90274570980182	
12.0	72.10313202474936	pulse	1.0	t		24.0	male	white	3.1153999204138483	smiling	012	sub-10	2.0	4.0	012_smiling	0.0		94.60273100942868	
12.0	72.80313392643802	pulse	1.0	t		24.0	male	white	3.1153999204138483	smiling	012	sub-10	2.0	4.0	012_smiling	0.0		95.30273291111735	
12.0	73.5031065481271	pulse	1.0	t		24.0	male	white	3.1153999204138483	smiling	012	sub-10	2.0	4.0	012_smiling	0.0		96.00270553280643	
12.0	74.20354704617421	pulse	1.0	t		24.0	male	white	3.1153999204138483	smiling	012	sub-10	2.0	4.0	012_smiling	0.0		96.70314603085353	
12.0	74.90308771232958	pulse	1.0	t		24.0	male	white	3.1153999204138483	smiling	012	sub-10	2.0	4.0	012_smiling	0.0		97.4026866970089	
13.0	75.01962454582099	face	0.0		146	47.0	male	east_asian	2.171110226820533	neutral	024	sub-10	2.0	4.0	024_neutral	0.0		97.51922353050031	1.2333383944460365
13.0	75.60308236948185	pulse	0.0	t		47.0	male	east_asian	2.171110226820533	neutral	024	sub-10	2.0	4.0	024_neutral	0.0		98.10268135416118	
13.0	76.25296294026703	fix	1.0		443	47.0	male	east_asian	2.171110226820533	neutral	024	sub-10	2.0	4.0	024_neutral	0.0		98.75256192494635	3.76656712471231
13.0	76.30307400807942	pulse	1.0	t		47.0	male	east_asian	2.171110226820533	neutral	024	sub-10	2.0	4.0	024_neutral	0.0		98.80267299275874	
13.0	77.00305930770628	pulse	1.0	t		47.0	male	east_asian	2.171110226820533	neutral	024	sub-10	2.0	4.0	024_neutral	0.0		99.5026582923856	
13.0	77.70303857021645	pulse	1.0	t		47.0	male	east_asian	2.171110226820533	neutral	024	sub-10	2.0	4.0	024_neutral	0.0		100.20263755489577	
13.0	78.40302386984331	pulse	1.0	t		47.0	male	east_asian	2.171110226820533	neutral	024	sub-10	2.0	4.0	024_neutral	0.0		100.90262285452263	
13.0	79.10301279174018	pulse	1.0	t		47.0	male	east_asian	2.171110226820533	neutral	024	sub-10	2.0	4.0	024_neutral	0.0		101.60261177641951	
13.0	79.80300020435607	pulse	1.0	t		47.0	male	east_asian	2.171110226820533	neutral	024	sub-10	2.0	4.0	024_neutral	0.0		102.30259918903539	
14.0	80.01953006497934	face	0.0		145	47.0	male	east_asian	2.171110226820533	smiling	024	sub-10	2.0	4.0	024_smiling	0.0		102.51912904965866	1.2333459408400813
14.0	80.50299637078933	pulse	0.0	t		47.0	male	east_asian	2.171110226820533	smiling	024	sub-10	2.0	4.0	024_smiling	0.0		103.00259535546866	
14.0	81.20297533144549	pulse	0.0	t		47.0	male	east_asian	2.171110226820533	smiling	024	sub-10	2.0	4.0	024_smiling	0.0		103.70257431612481	
14.0	81.25287600581942	fix	1.0		445	47.0	male	east_asian	2.171110226820533	smiling	024	sub-10	2.0	4.0	024_smiling	0.0		103.75247499049874	3.7665831230660842
14.0	81.90295821622567	pulse	1.0	t		47.0	male	east_asian	2.171110226820533	smiling	024	sub-10	2.0	4.0	024_smiling	0.0		104.402557200905	
14.0	82.60294623255322	pulse	1.0	t		47.0	male	east_asian	2.171110226820533	smiling	024	sub-10	2.0	4.0	024_smiling	0.0		105.10254521723255	
14.0	83.30293606001578	pulse	1.0	t		47.0	male	east_asian	2.171110226820533	smiling	024	sub-10	2.0	4.0	024_smiling	0.0		105.8025350446951	
14.0	84.00292317077765	pulse	1.0	t		47.0	male	east_asian	2.171110226820533	smiling	024	sub-10	2.0	4.0	024_smiling	0.0		106.50252215545697	
14.0	84.7029111871052	pulse	1.0	t		47.0	male	east_asian	2.171110226820533	smiling	024	sub-10	2.0	4.0	024_smiling	0.0		107.20251017178452	
15.0	85.0194591288855	face	0.0		145	32.0	male	white	2.389176283326701	neutral	092	sub-10	2.0	4.0	092_neutral	0.0		107.51905811356482	1.2333254146542458
15.0	85.40291037209317	pulse	0.0	t		32.0	male	white	2.389176283326701	neutral	092	sub-10	2.0	4.0	092_neutral	0.0		107.9025093567725	
15.0	86.10289506800837	pulse	0.0	t		32.0	male	white	2.389176283326701	neutral	092	sub-10	2.0	4.0	092_neutral	0.0		108.60249405268769	
15.0	86.25278454353975	fix	1.0		444	32.0	male	white	2.389176283326701	neutral	092	sub-10	2.0	4.0	092_neutral	0.0		108.75238352821907	3.766587952755799
15.0	86.8028719156755	pulse	1.0	t		32.0	male	white	2.389176283326701	neutral	092	sub-10	2.0	4.0	092_neutral	0.0		109.30247090035482	
15.0	87.50293841449093	pulse	1.0	t		32.0	male	white	2.389176283326701	neutral	092	sub-10	2.0	4.0	092_neutral	0.0		110.00253739917025	
15.0	88.20285549472464	pulse	1.0	t		32.0	male	white	2.389176283326701	neutral	092	sub-10	2.0	4.0	092_neutral	0.0		110.70245447940397	
15.0	88.90284954816889	pulse	1.0	t		32.0	male	white	2.389176283326701	neutral	092	sub-10	2.0	4.0	092_neutral	0.0		111.40244853284821	
15.0	89.60279470098249	pulse	1.0	t		32.0	male	white	2.389176283326701	neutral	092	sub-10	2.0	4.0	092_neutral	0.0		112.10239368566181	
16.0	90.01937249629555	face	0.0		145	40.0	male	black	2.408674890569041	neutral	061	sub-10	2.0	4.0	061_neutral	0.0		112.51897148097487	1.2333245090849232
16.0	90.30282497711232	pulse	0.0	t		40.0	male	black	2.408674890569041	neutral	061	sub-10	2.0	4.0	061_neutral	0.0		112.80242396179165	
16.0	91.00280242849112	pulse	0.0	t		40.0	male	black	2.408674890569041	neutral	061	sub-10	2.0	4.0	061_neutral	0.0		113.50240141317045	
16.0	91.25269700538047	fix	1.0		444	40.0	male	black	2.408674890569041	neutral	061	sub-10	2.0	4.0	061_neutral	0.0		113.75229599005979	3.7665831230660842
16.0	91.70278470955964	pulse	1.0	t		40.0	male	black	2.408674890569041	neutral	061	sub-10	2.0	4.0	061_neutral	0.0		114.20238369423896	
16.0	92.40277483887621	pulse	1.0	t		40.0	male	black	2.408674890569041	neutral	061	sub-10	2.0	4.0	061_neutral	0.0		114.90237382355554	
16.0	93.10276315706142	pulse	1.0	t		40.0	male	black	2.408674890569041	neutral	061	sub-10	2.0	4.0	061_neutral	0.0		115.60236214174074	
16.0	93.80277803854915	pulse	1.0	t		40.0	male	black	2.408674890569041	neutral	061	sub-10	2.0	4.0	061_neutral	0.0		116.30237702322847	
16.0	94.50275398064696	pulse	1.0	t		40.0	male	black	2.408674890569041	neutral	061	sub-10	2.0	4.0	061_neutral	0.0		117.00235296532628	
17.0	95.01928012844655	face	0.0		145	31.0	female	white	2.1822522881018704	neutral	102	sub-10	2.0	4.0	102_neutral	0.0		117.51887911312588	1.2333133404208638
17.0	95.20271482996031	pulse	0.0	t		31.0	female	white	2.1822522881018704	neutral	102	sub-10	2.0	4.0	102_neutral	0.0		117.70231381463964	
17.0	95.90273303186041	pulse	0.0	t		31.0	female	white	2.1822522881018704	neutral	102	sub-10	2.0	4.0	102_neutral	0.0		118.40233201653973	
17.0	96.25259346886742	fix	1.0		444	31.0	female	white	2.1822522881018704	neutral	102	sub-10	2.0	4.0	102_neutral	0.0		118.75219245354674	3.7665991214198584
17.0	96.60270263498751	pulse	1.0	t		31.0	female	white	2.1822522881018704	neutral	102	sub-10	2.0	4.0	102_neutral	0.0		119.10230161966683	
17.0	97.3026963865741	pulse	1.0	t		31.0	female	white	2.1822522881018704	neutral	102	sub-10	2.0	4.0	102_neutral	0.0		119.80229537125342	
17.0	98.00267323424123	pulse	1.0	t		31.0	female	white	2.1822522881018704	neutral	102	sub-10	2.0	4.0	102_neutral	0.0		120.50227221892055	
17.0	98.7026694006745	pulse	1.0	t		31.0	female	white	2.1822522881018704	neutral	102	sub-10	2.0	4.0	102_neutral	0.0		121.20226838535382	
17.0	99.40265560586704	pulse	1.0	t		31.0	female	white	2.1822522881018704	neutral	102	sub-10	2.0	4.0	102_neutral	0.0		121.90225459054636	
18.0	100.01919259028728	face	0.0		145	31.0	female	west_asian	2.364902506963788	neutral	006	sub-10	2.0	4.0	006_neutral	0.0		122.5187915749666	1.233326622073946
18.0	100.10265147044629	pulse	0.0	t		31.0	female	west_asian	2.364902506963788	neutral	006	sub-10	2.0	4.0	006_neutral	0.0		122.60225045512561	
18.0	100.80263133666813	pulse	0.0	t		31.0	female	west_asian	2.364902506963788	neutral	006	sub-10	2.0	4.0	006_neutral	0.0		123.30223032134745	
18.0	101.25251921236122	fix	1.0		444	31.0	female	west_asian	2.364902506963788	neutral	006	sub-10	2.0	4.0	006_neutral	0.0		123.75211819704055	3.766565917288972
18.0	101.5026214659847	pulse	1.0	t		31.0	female	west_asian	2.364902506963788	neutral	006	sub-10	2.0	4.0	006_neutral	0.0		124.00222045066403	
18.0	102.2026061618999	pulse	1.0	t		31.0	female	west_asian	2.364902506963788	neutral	006	sub-10	2.0	4.0	006_neutral	0.0		124.70220514657922	
18.0	102.90259598936245	pulse	1.0	t		31.0	female	west_asian	2.364902506963788	neutral	006	sub-10	2.0	4.0	006_neutral	0.0		125.40219497404178	
18.0	103.60257736486528	pulse	1.0	t		31.0	female	west_asian	2.364902506963788	neutral	006	sub-10	2.0	4.0	006_neutral	0.0		126.1021763495446	
18.0	104.30257473872189	pulse	1.0	t		31.0	female	west_asian	2.364902506963788	neutral	006	sub-10	2.0	4.0	006_neutral	0.0		126.80217372340121	
19.0	105.0190851296502	face	0.0		146	19.0	male	white	2.243931555909272	neutral	130	sub-10	2.0	4.0	130_neutral	0.0		127.51868411432952	1.2333344703256444
19.0	105.00552365779004	pulse	0.0	t		19.0	male	white	2.243931555909272	neutral	130	sub-10	2.0	4.0	130_neutral	0.0		127.50512264246936	
19.0	105.70254050828225	pulse	0.0	t		19.0	male	white	2.243931555909272	neutral	130	sub-10	2.0	4.0	130_neutral	0.0		128.20213949296158	
19.0	106.25241959997584	fix	1.0		443	19.0	male	white	2.243931555909272	neutral	130	sub-10	2.0	4.0	130_neutral	0.0		128.75201858465516	3.7665770859493932
19.0	106.40252822275579	pulse	1.0	t		19.0	male	white	2.243931555909272	neutral	130	sub-10	2.0	4.0	130_neutral	0.0		128.90212720743511	
19.0	107.10252257805405	pulse	1.0	t		19.0	male	white	2.243931555909272	neutral	130	sub-10	2.0	4.0	130_neutral	0.0		129.60212156273337	
19.0	107.80250455726491	pulse	1.0	t		19.0	male	white	2.243931555909272	neutral	130	sub-10	2.0	4.0	130_neutral	0.0		130.30210354194423	
19.0	108.50247778266566	pulse	1.0	t		19.0	male	white	2.243931555909272	neutral	130	sub-10	2.0	4.0	130_neutral	0.0		131.002076767345	
19.0	109.2024648934239	pulse	1.0	t		19.0	male	white	2.243931555909272	neutral	130	sub-10	2.0	4.0	130_neutral	0.0		131.70206387810322	
19.0	109.90246287099217	pulse	1.0	t		19.0	male	white	2.243931555909272	neutral	130	sub-10	2.0	4.0	130_neutral	0.0		132.4020618556715	
20.0	110.01899668592523	face	0.0		146	24.0	female	east_asian	2.9076800636689217	smiling	034	sub-10	2.0	4.0	034_smiling	1.0	dominance	132.51859567060455	1.2333432241393893
20.0	110.60245300030874	pulse	0.0	t		24.0	female	east_asian	2.9076800636689217	smiling	034	sub-10	2.0	4.0	034_smiling	1.0	dominance	133.10205198498807	
20.0	111.25233991006462	fix	1.0		176	24.0	female	east_asian	2.9076800636689217	smiling	034	sub-10	2.0	4.0	034_smiling	1.0	dominance	133.75193889474394	1.4999373649370682
20.0	111.30244765746465	pulse	1.0	t		24.0	female	east_asian	2.9076800636689217	smiling	034	sub-10	2.0	4.0	034_smiling	1.0	dominance	133.80204664214398	
20.0	112.00242631626315	pulse	1.0	t		24.0	female	east_asian	2.9076800636689217	smiling	034	sub-10	2.0	4.0	034_smiling	1.0	dominance	134.50202530094248	
20.0	112.70242006784974	pulse	1.0	t		24.0	female	east_asian	2.9076800636689217	smiling	034	sub-10	2.0	4.0	034_smiling	1.0	dominance	135.20201905252907	
20.0	112.75227727500169	rating	2.0		295	24.0	female	east_asian	2.9076800636689217	smiling	034	sub-10	2.0	4.0	034_smiling	1.0	dominance	135.251876259681	2.499977209896315
20.0	113.39716002066052	pulse	2.0	t		24.0	female	east_asian	2.9076800636689217	smiling	034	sub-10	2.0	4.0	034_smiling	1.0	dominance	135.89675900533985	
20.0	114.09714682956474	pulse	2.0	t		24.0	female	east_asian	2.9076800636689217	smiling	034	sub-10	2.0	4.0	034_smiling	1.0	dominance	136.59674581424406	
20.0	114.66904991818228	response	2.0	b		24.0	female	east_asian	2.9076800636689217	smiling	034	sub-10	2.0	4.0	034_smiling	1.0	dominance	137.1686489028616	
20.0	114.79713031805659	pulse	2.0	t		24.0	female	east_asian	2.9076800636689217	smiling	034	sub-10	2.0	4.0	034_smiling	1.0	dominance	137.2967293027359	
20.0	115.252254484898	fix	3.0		1185	24.0	female	east_asian	2.9076800636689217	smiling	034	sub-10	2.0	4.0	034_smiling	1.0	dominance	137.75185346957733	10.016476794386108
20.0	115.5023769628533	pulse	3.0	t		24.0	female	east_asian	2.9076800636689217	smiling	034	sub-10	2.0	4.0	034_smiling	1.0	dominance	138.00197594753263	
20.0	116.20235924392546	pulse	3.0	t		24.0	female	east_asian	2.9076800636689217	smiling	034	sub-10	2.0	4.0	034_smiling	1.0	dominance	138.70195822860478	
20.0	116.9023590326251	pulse	3.0	t		24.0	female	east_asian	2.9076800636689217	smiling	034	sub-10	2.0	4.0	034_smiling	1.0	dominance	139.40195801730442	
20.0	117.6023274283325	pulse	3.0	t		24.0	female	east_asian	2.9076800636689217	smiling	034	sub-10	2.0	4.0	034_smiling	1.0	dominance	140.10192641301182	
20.0	118.30232268919644	pulse	3.0	t		24.0	female	east_asian	2.9076800636689217	smiling	034	sub-10	2.0	4.0	034_smiling	1.0	dominance	140.80192167387577	
20.0	119.00230859253497	pulse	3.0	t		24.0	female	east_asian	2.9076800636689217	smiling	034	sub-10	2.0	4.0	034_smiling	1.0	dominance	141.5019075772143	
20.0	119.7022899680378	pulse	3.0	t		24.0	female	east_asian	2.9076800636689217	smiling	034	sub-10	2.0	4.0	034_smiling	1.0	dominance	142.20188895271713	
20.0	120.40228281405507	pulse	3.0	t		24.0	female	east_asian	2.9076800636689217	smiling	034	sub-10	2.0	4.0	034_smiling	1.0	dominance	142.9018817987344	
20.0	121.1022596617222	pulse	3.0	t		24.0	female	east_asian	2.9076800636689217	smiling	034	sub-10	2.0	4.0	034_smiling	1.0	dominance	143.60185864640152	
20.0	121.80225945042184	pulse	3.0	t		24.0	female	east_asian	2.9076800636689217	smiling	034	sub-10	2.0	4.0	034_smiling	1.0	dominance	144.30185843510117	
20.0	122.50223207211093	pulse	3.0	t		24.0	female	east_asian	2.9076800636689217	smiling	034	sub-10	2.0	4.0	034_smiling	1.0	dominance	145.00183105679025	
20.0	123.20222582369752	pulse	3.0	t		24.0	female	east_asian	2.9076800636689217	smiling	034	sub-10	2.0	4.0	034_smiling	1.0	dominance	145.70182480837684	
20.0	123.90222319755048	pulse	3.0	t		24.0	female	east_asian	2.9076800636689217	smiling	034	sub-10	2.0	4.0	034_smiling	1.0	dominance	146.4018221822298	
20.0	124.60220215820664	pulse	3.0	t		24.0	female	east_asian	2.9076800636689217	smiling	034	sub-10	2.0	4.0	034_smiling	1.0	dominance	147.10180114288596	
21.0	125.26873127928411	face	0.0		145	20.0	female	white	3.9502586549940313	smiling	091	sub-10	2.0	4.0	091_smiling	1.0	attractiveness	147.76833026396343	1.2333251127965923
21.0	125.30219470236989	pulse	0.0	t		20.0	female	white	3.9502586549940313	smiling	091	sub-10	2.0	4.0	091_smiling	1.0	attractiveness	147.8017936870492	
21.0	126.00217698344204	pulse	0.0	t		20.0	female	white	3.9502586549940313	smiling	091	sub-10	2.0	4.0	091_smiling	1.0	attractiveness	148.50177596812136	
21.0	126.5020563920807	fix	1.0		177	20.0	female	white	3.9502586549940313	smiling	091	sub-10	2.0	4.0	091_smiling	1.0	attractiveness	149.00165537676003	1.4999760024693387
21.0	126.70217707399934	pulse	1.0	t		20.0	female	white	3.9502586549940313	smiling	091	sub-10	2.0	4.0	091_smiling	1.0	attractiveness	149.20177605867866	
21.0	127.40215482723215	pulse	1.0	t		20.0	female	white	3.9502586549940313	smiling	091	sub-10	2.0	4.0	091_smiling	1.0	attractiveness	149.90175381191148	
21.0	128.00203239455004	rating	2.0		294	20.0	female	white	3.9502586549940313	smiling	091	sub-10	2.0	4.0	091_smiling	1.0	attractiveness	150.50163137922937	2.499947628035443
21.0	128.09691228767042	pulse	2.0	t		20.0	female	white	3.9502586549940313	smiling	091	sub-10	2.0	4.0	091_smiling	1.0	attractiveness	150.59651127234974	
21.0	128.79687796667713	pulse	2.0	t		20.0	female	white	3.9502586549940313	smiling	091	sub-10	2.0	4.0	091_smiling	1.0	attractiveness	151.29647695135645	
21.0	129.2021062888307	response	2.0	y		20.0	female	white	3.9502586549940313	smiling	091	sub-10	2.0	4.0	091_smiling	1.0	attractiveness	151.70170527351002	
21.0	129.49703894633058	pulse	2.0	t		20.0	female	white	3.9502586549940313	smiling	091	sub-10	2.0	4.0	091_smiling	1.0	attractiveness	151.9966379310099	
21.0	130.20209964800597	pulse	2.0	t		20.0	female	white	3.9502586549940313	smiling	091	sub-10	2.0	4.0	091_smiling	1.0	attractiveness	152.7016986326853	
21.0	130.50198002258549	fix	3.0		444	20.0	female	white	3.9502586549940313	smiling	091	sub-10	2.0	4.0	091_smiling	1.0	attractiveness	153.0015790072648	3.766603347397904
21.0	130.902106379388	pulse	3.0	t		20.0	female	white	3.9502586549940313	smiling	091	sub-10	2.0	4.0	091_smiling	1.0	attractiveness	153.4017053640673	
21.0	131.6020747750954	pulse	3.0	t		20.0	female	white	3.9502586549940313	smiling	091	sub-10	2.0	4.0	091_smiling	1.0	attractiveness	154.1016737597747	
21.0	132.30206550812363	pulse	3.0	t		20.0	female	white	3.9502586549940313	smiling	091	sub-10	2.0	4.0	091_smiling	1.0	attractiveness	154.80166449280296	
21.0	133.00206197641091	pulse	3.0	t		20.0	female	white	3.9502586549940313	smiling	091	sub-10	2.0	4.0	091_smiling	1.0	attractiveness	155.50166096109024	
21.0	133.70203852222403	pulse	3.0	t		20.0	female	white	3.9502586549940313	smiling	091	sub-10	2.0	4.0	091_smiling	1.0	attractiveness	156.20163750690335	
22.0	134.2685833699834	face	0.0		145	40.0	female	west_asian	1.5777954635893354	smiling	038	sub-10	2.0	4.0	038_smiling	1.0	attractiveness	156.7681823546627	1.2333257165082614
22.0	134.40204132948202	pulse	0.0	t		40.0	female	west_asian	1.5777954635893354	smiling	038	sub-10	2.0	4.0	038_smiling	1.0	attractiveness	156.90164031416134	
22.0	135.10201576230247	pulse	0.0	t		40.0	female	west_asian	1.5777954635893354	smiling	038	sub-10	2.0	4.0	038_smiling	1.0	attractiveness	157.6016147469818	
22.0	135.50190908649165	fix	1.0		177	40.0	female	west_asian	1.5777954635893354	smiling	038	sub-10	2.0	4.0	038_smiling	1.0	attractiveness	158.00150807117097	1.4999726820569776
22.0	135.80201404172476	pulse	1.0	t		40.0	female	west_asian	1.5777954635893354	smiling	038	sub-10	2.0	4.0	038_smiling	1.0	attractiveness	158.30161302640408	
22.0	136.50198334299785	pulse	1.0	t		40.0	female	west_asian	1.5777954635893354	smiling	038	sub-10	2.0	4.0	038_smiling	1.0	attractiveness	159.00158232767717	
22.0	137.00188176854863	rating	2.0		294	40.0	female	west_asian	1.5777954635893354	smiling	038	sub-10	2.0	4.0	038_smiling	1.0	attractiveness	159.50148075322795	2.4999403834954137
22.0	137.1967386904471	pulse	2.0	t		40.0	female	west_asian	1.5777954635893354	smiling	038	sub-10	2.0	4.0	038_smiling	1.0	attractiveness	159.69633767512641	
22.0	137.6936330478893	response	2.0	d		40.0	female	west_asian	1.5777954635893354	smiling	038	sub-10	2.0	4.0	038_smiling	1.0	attractiveness	160.19323203256863	
22.0	137.89671433069088	pulse	2.0	t		40.0	female	west_asian	1.5777954635893354	smiling	038	sub-10	2.0	4.0	038_smiling	1.0	attractiveness	160.3963133153702	
22.0	138.6019489012615	pulse	2.0	t		40.0	female	west_asian	1.5777954635893354	smiling	038	sub-10	2.0	4.0	038_smiling	1.0	attractiveness	161.10154788594082	
22.0	139.30193752130072	pulse	2.0	t		40.0	female	west_asian	1.5777954635893354	smiling	038	sub-10	2.0	4.0	038_smiling	1.0	attractiveness	161.80153650598004	
22.0	139.50182215204404	fix	3.0		444	40.0	female	west_asian	1.5777954635893354	smiling	038	sub-10	2.0	4.0	038_smiling	1.0	attractiveness	162.00142113672337	3.7665903676024755
22.0	140.00193368773034	pulse	3.0	t		40.0	female	west_asian	1.5777954635893354	smiling	038	sub-10	2.0	4.0	038_smiling	1.0	attractiveness	162.50153267240967	
22.0	140.70191506323317	pulse	3.0	t		40.0	female	west_asian	1.5777954635893354	smiling	038	sub-10	2.0	4.0	038_smiling	1.0	attractiveness	163.2015140479125	
22.0	141.4019082111081	pulse	3.0	t		40.0	female	west_asian	1.5777954635893354	smiling	038	sub-10	2.0	4.0	038_smiling	1.0	attractiveness	163.90150719578742	
22.0	142.10189773671664	pulse	3.0	t		40.0	female	west_asian	1.5777954635893354	smiling	038	sub-10	2.0	4.0	038_smiling	1.0	attractiveness	164.60149672139596	
22.0	142.80188726232154	pulse	3.0	t		40.0	female	west_asian	1.5777954635893354	smiling	038	sub-10	2.0	4.0	038_smiling	1.0	attractiveness	165.30148624700087	
23.0	143.26841251964652	face	0.0		145	54.0	female	white	2.286908077994429	neutral	136	sub-10	2.0	4.0	136_neutral	0.0		165.76801150432584	1.2333362814570137
23.0	143.50186682668937	pulse	0.0	t		54.0	female	white	2.286908077994429	neutral	136	sub-10	2.0	4.0	136_neutral	0.0		166.0014658113687	
23.0	144.20185423930525	pulse	0.0	t		54.0	female	white	2.286908077994429	neutral	136	sub-10	2.0	4.0	136_neutral	0.0		166.70145322398457	
23.0	144.50174880110353	fix	1.0		444	54.0	female	white	2.286908077994429	neutral	136	sub-10	2.0	4.0	136_neutral	0.0		167.00134778578285	3.7582470755478425
23.0	144.90184587790282	pulse	1.0	t		54.0	female	white	2.286908077994429	neutral	136	sub-10	2.0	4.0	136_neutral	0.0		167.40144486258214	
23.0	145.60183389423037	pulse	1.0	t		54.0	female	white	2.286908077994429	neutral	136	sub-10	2.0	4.0	136_neutral	0.0		168.1014328789097	
23.0	146.30182734396294	pulse	1.0	t		54.0	female	white	2.286908077994429	neutral	136	sub-10	2.0	4.0	136_neutral	0.0		168.80142632864226	
23.0	147.00180087121407	pulse	1.0	t		54.0	female	white	2.286908077994429	neutral	136	sub-10	2.0	4.0	136_neutral	0.0		169.5013998558934	
23.0	147.70180156548304	pulse	1.0	t		54.0	female	white	2.286908077994429	neutral	136	sub-10	2.0	4.0	136_neutral	0.0		170.20140055016236	
24.0	148.25999587665137	face	0.0		146	22.0	female	west_asian	3.8205332272184642	neutral	066	sub-10	2.0	4.0	066_neutral	0.0		170.7595948613307	1.2416653862965177
24.0	148.40177720572683	pulse	0.0	t		22.0	female	west_asian	3.8205332272184642	neutral	066	sub-10	2.0	4.0	066_neutral	0.0		170.90137619040615	
24.0	149.1017679387587	pulse	0.0	t		22.0	female	west_asian	3.8205332272184642	neutral	066	sub-10	2.0	4.0	066_neutral	0.0		171.60136692343804	
24.0	149.5016612629479	fix	1.0		444	22.0	female	west_asian	3.8205332272184642	neutral	066	sub-10	2.0	4.0	066_neutral	0.0		172.00126024762721	3.766566521000641
24.0	149.80176380333432	pulse	1.0	t		22.0	female	west_asian	3.8205332272184642	neutral	066	sub-10	2.0	4.0	066_neutral	0.0		172.30136278801365	
24.0	150.50173823615478	pulse	1.0	t		22.0	female	west_asian	3.8205332272184642	neutral	066	sub-10	2.0	4.0	066_neutral	0.0		173.0013372208341	
24.0	151.20173983598943	pulse	1.0	t		22.0	female	west_asian	3.8205332272184642	neutral	066	sub-10	2.0	4.0	066_neutral	0.0		173.70133882066875	
24.0	151.90171457066754	pulse	1.0	t		22.0	female	west_asian	3.8205332272184642	neutral	066	sub-10	2.0	4.0	066_neutral	0.0		174.40131355534686	
24.0	152.60169594616673	pulse	1.0	t		22.0	female	west_asian	3.8205332272184642	neutral	066	sub-10	2.0	4.0	066_neutral	0.0		175.10129493084605	
25.0	153.26822778394853	face	0.0		145	24.0	female	east_asian	4.409868682849185	smiling	030	sub-10	2.0	4.0	030_smiling	0.0		175.76782676862786	1.2333332628986682
25.0	153.301693923735	pulse	0.0	t		24.0	female	east_asian	4.409868682849185	smiling	030	sub-10	2.0	4.0	030_smiling	0.0		175.80129290841433	
25.0	154.00167318624517	pulse	0.0	t		24.0	female	east_asian	4.409868682849185	smiling	030	sub-10	2.0	4.0	030_smiling	0.0		176.5012721709245	
25.0	154.5015610468472	fix	1.0		443	24.0	female	east_asian	4.409868682849185	smiling	030	sub-10	2.0	4.0	030_smiling	0.0		177.00116003152652	3.7665810100770614
25.0	154.70167056010177	pulse	1.0	t		24.0	female	east_asian	4.409868682849185	smiling	030	sub-10	2.0	4.0	030_smiling	0.0		177.2012695447811	
25.0	155.40165344488196	pulse	1.0	t		24.0	female	east_asian	4.409868682849185	smiling	030	sub-10	2.0	4.0	030_smiling	0.0		177.90125242956128	
25.0	156.1016505168809	pulse	1.0	t		24.0	female	east_asian	4.409868682849185	smiling	030	sub-10	2.0	4.0	030_smiling	0.0		178.60124950156023	
25.0	156.80162857197138	pulse	1.0	t		24.0	female	east_asian	4.409868682849185	smiling	030	sub-10	2.0	4.0	030_smiling	0.0		179.3012275566507	
25.0	157.50161145675156	pulse	1.0	t		24.0	female	east_asian	4.409868682849185	smiling	030	sub-10	2.0	4.0	030_smiling	0.0		180.00121044143089	
25.0	158.20160158607177	pulse	1.0	t		24.0	female	east_asian	4.409868682849185	smiling	030	sub-10	2.0	4.0	030_smiling	0.0		180.7012005707511	
26.0	158.26814205692426	face	0.0		146	25.0	female	black	3.858336649423	smiling	126	sub-10	2.0	4.0	126_smiling	0.0		180.76774104160359	1.2333251127965923
26.0	158.90159533765836	pulse	0.0	t		25.0	female	black	3.858336649423	smiling	126	sub-10	2.0	4.0	126_smiling	0.0		181.4011943223377	
26.0	159.50146716972085	fix	1.0		443	25.0	female	black	3.858336649423	smiling	126	sub-10	2.0	4.0	126_smiling	0.0		182.00106615440018	3.7665964047155285
26.0	159.60161263398913	pulse	1.0	t		25.0	female	black	3.858336649423	smiling	126	sub-10	2.0	4.0	126_smiling	0.0		182.10121161866846	
26.0	160.30156684247777	pulse	1.0	t		25.0	female	black	3.858336649423	smiling	126	sub-10	2.0	4.0	126_smiling	0.0		182.8011658271571	
26.0	161.001555462517	pulse	1.0	t		25.0	female	black	3.858336649423	smiling	126	sub-10	2.0	4.0	126_smiling	0.0		183.5011544471963	
26.0	161.7015404602862	pulse	1.0	t		25.0	female	black	3.858336649423	smiling	126	sub-10	2.0	4.0	126_smiling	0.0		184.20113944496552	
26.0	162.40152545805904	pulse	1.0	t		25.0	female	black	3.858336649423	smiling	126	sub-10	2.0	4.0	126_smiling	0.0		184.90112444273836	
26.0	163.10152071892298	pulse	1.0	t		25.0	female	black	3.858336649423	smiling	126	sub-10	2.0	4.0	126_smiling	0.0		185.6011197036023	
27.0	163.26806357443638	face	0.0		146	24.0	female	east_asian	4.409868682849185	neutral	030	sub-10	2.0	4.0	030_neutral	0.0		185.7676625591157	1.233319981249224
27.0	163.80151447050957	pulse	0.0	t		24.0	female	east_asian	4.409868682849185	neutral	030	sub-10	2.0	4.0	030_neutral	0.0		186.3011134551889	
27.0	164.5013835556856	fix	1.0		444	24.0	female	east_asian	4.409868682849185	neutral	030	sub-10	2.0	4.0	030_neutral	0.0		187.00098254036493	3.7583385378275125
27.0	164.50894081545266	pulse	1.0	t		24.0	female	east_asian	4.409868682849185	neutral	030	sub-10	2.0	4.0	030_neutral	0.0		187.00853980013198	
27.0	165.20148114563926	pulse	1.0	t		24.0	female	east_asian	4.409868682849185	neutral	030	sub-10	2.0	4.0	030_neutral	0.0		187.7010801303186	
27.0	165.90146614340847	pulse	1.0	t		24.0	female	east_asian	4.409868682849185	neutral	030	sub-10	2.0	4.0	030_neutral	0.0		188.4010651280878	
27.0	166.60147891190718	pulse	1.0	t		24.0	female	east_asian	4.409868682849185	neutral	030	sub-10	2.0	4.0	030_neutral	0.0		189.1010778965865	
27.0	167.30145274101596	pulse	1.0	t		24.0	female	east_asian	4.409868682849185	neutral	030	sub-10	2.0	4.0	030_neutral	0.0		189.8010517256953	
27.0	168.00143049424878	pulse	1.0	t		24.0	female	east_asian	4.409868682849185	neutral	030	sub-10	2.0	4.0	030_neutral	0.0		190.5010294789281	
28.0	168.25972209351312	face	0.0		146	26.0	female	white	4.854755272582572	neutral	027	sub-10	2.0	4.0	027_neutral	0.0		190.75932107819244	1.2415706036008487
28.0	168.7014254532587	pulse	0.0	t		26.0	female	white	4.854755272582572	neutral	027	sub-10	2.0	4.0	027_neutral	0.0		191.20102443793803	
28.0	169.4014119603089	pulse	0.0	t		26.0	female	white	4.854755272582572	neutral	027	sub-10	2.0	4.0	027_neutral	0.0		191.90101094498823	
28.0	169.50129269711397	fix	1.0		444	26.0	female	white	4.854755272582572	neutral	027	sub-10	2.0	4.0	027_neutral	0.0		192.0008916817933	3.7665958010074974
28.0	170.1013921283884	pulse	1.0	t		26.0	female	white	4.854755272582572	neutral	027	sub-10	2.0	4.0	027_neutral	0.0		192.60099111306772	
28.0	170.80137622059192	pulse	1.0	t		26.0	female	white	4.854755272582572	neutral	027	sub-10	2.0	4.0	027_neutral	0.0		193.30097520527124	
28.0	171.50135940722612	pulse	1.0	t		26.0	female	white	4.854755272582572	neutral	027	sub-10	2.0	4.0	027_neutral	0.0		194.00095839190544	
28.0	172.20135104582369	pulse	1.0	t		26.0	female	white	4.854755272582572	neutral	027	sub-10	2.0	4.0	027_neutral	0.0		194.700950030503	
28.0	172.90135083452697	pulse	1.0	t		26.0	female	white	4.854755272582572	neutral	027	sub-10	2.0	4.0	027_neutral	0.0		195.4009498192063	
29.0	173.26788849812147	face	0.0		145	22.0	male	black	2.767608436132113	neutral	044	sub-10	2.0	4.0	044_neutral	0.0		195.7674874828008	1.2333103218625183
29.0	173.60134096384354	pulse	0.0	t		22.0	male	black	2.767608436132113	neutral	044	sub-10	2.0	4.0	044_neutral	0.0		196.10093994852286	
29.0	174.30132415048138	pulse	0.0	t		22.0	male	black	2.767608436132113	neutral	044	sub-10	2.0	4.0	044_neutral	0.0		196.8009231351607	
29.0	174.50119881998398	fix	1.0		444	22.0	male	black	2.767608436132113	neutral	044	sub-10	2.0	4.0	044_neutral	0.0		197.0007978046633	3.766603347401542
29.0	175.00130612969224	pulse	1.0	t		22.0	male	black	2.767608436132113	neutral	044	sub-10	2.0	4.0	044_neutral	0.0		197.50090511437156	
29.0	175.70129233488842	pulse	1.0	t		22.0	male	black	2.767608436132113	neutral	044	sub-10	2.0	4.0	044_neutral	0.0		198.20089131956775	
29.0	176.4012888031757	pulse	1.0	t		22.0	male	black	2.767608436132113	neutral	044	sub-10	2.0	4.0	044_neutral	0.0		198.90088778785503	
29.0	177.1012783287806	pulse	1.0	t		22.0	male	black	2.767608436132113	neutral	044	sub-10	2.0	4.0	044_neutral	0.0		199.60087731345993	
29.0	177.80124581892233	pulse	1.0	t		22.0	male	black	2.767608436132113	neutral	044	sub-10	2.0	4.0	044_neutral	0.0		200.30084480360165	
30.0	178.26780216738553	face	0.0		145	22.0	female	white	4.614007162753682	smiling	009	sub-10	2.0	4.0	009_smiling	0.0		200.76740115206485	1.2333148497018556
30.0	178.50125345587003	pulse	0.0	t		22.0	female	white	4.614007162753682	smiling	009	sub-10	2.0	4.0	009_smiling	0.0		201.00085244054935	
30.0	179.2012387554969	pulse	0.0	t		22.0	female	white	4.614007162753682	smiling	009	sub-10	2.0	4.0	009_smiling	0.0		201.7008377401762	
30.0	179.50111701708738	fix	1.0		444	22.0	female	white	4.614007162753682	smiling	009	sub-10	2.0	4.0	009_smiling	0.0		202.0007160017667	3.7665749729603704
30.0	179.90122013099972	pulse	1.0	t		22.0	female	white	4.614007162753682	smiling	009	sub-10	2.0	4.0	009_smiling	0.0		202.40081911567904	
30.0	180.60121267516297	pulse	1.0	t		22.0	female	white	4.614007162753682	smiling	009	sub-10	2.0	4.0	009_smiling	0.0		203.1008116598423	
30.0	181.3011925413848	pulse	1.0	t		22.0	female	white	4.614007162753682	smiling	009	sub-10	2.0	4.0	009_smiling	0.0		203.80079152606413	
30.0	182.00117844472334	pulse	1.0	t		22.0	female	white	4.614007162753682	smiling	009	sub-10	2.0	4.0	009_smiling	0.0		204.50077742940266	
30.0	182.70116253692686	pulse	1.0	t		22.0	female	white	4.614007162753682	smiling	009	sub-10	2.0	4.0	009_smiling	0.0		205.20076152160618	
31.0	183.26769199004775	face	0.0		145	30.0	female	black	2.7345801830481498	smiling	062	sub-10	2.0	4.0	062_smiling	1.0	trustworthiness	205.76729097472708	1.2333296406322916
31.0	183.4019797509136	pulse	0.0	t		30.0	female	black	2.7345801830481498	smiling	062	sub-10	2.0	4.0	062_smiling	1.0	trustworthiness	205.90157873559292	
31.0	184.10115004010004	pulse	0.0	t		30.0	female	black	2.7345801830481498	smiling	062	sub-10	2.0	4.0	062_smiling	1.0	trustworthiness	206.60074902477936	
31.0	184.50102163068004	fix	1.0		177	30.0	female	black	2.7345801830481498	smiling	062	sub-10	2.0	4.0	062_smiling	1.0	trustworthiness	207.00062061535937	1.4999738894803158
31.0	184.80114530096762	pulse	1.0	t		30.0	female	black	2.7345801830481498	smiling	062	sub-10	2.0	4.0	062_smiling	1.0	trustworthiness	207.30074428564694	
31.0	185.50111580966404	pulse	1.0	t		30.0	female	black	2.7345801830481498	smiling	062	sub-10	2.0	4.0	062_smiling	1.0	trustworthiness	208.00071479434337	
31.0	186.00099552016036	rating	2.0		294	30.0	female	black	2.7345801830481498	smiling	062	sub-10	2.0	4.0	062_smiling	1.0	trustworthiness	208.50059450483968	2.4999708709219703
31.0	186.2011192206337	pulse	2.0	t		30.0	female	black	2.7345801830481498	smiling	062	sub-10	2.0	4.0	062_smiling	1.0	trustworthiness	208.70071820531302	
31.0	186.901072523553	pulse	2.0	t		30.0	female	black	2.7345801830481498	smiling	062	sub-10	2.0	4.0	062_smiling	1.0	trustworthiness	209.40067150823234	
31.0	187.02609089902035	response	2.0	w		30.0	female	black	2.7345801830481498	smiling	062	sub-10	2.0	4.0	062_smiling	1.0	trustworthiness	209.52568988369967	
31.0	187.60107955679268	pulse	2.0	t		30.0	female	black	2.7345801830481498	smiling	062	sub-10	2.0	4.0	062_smiling	1.0	trustworthiness	210.100678541472	
31.0	188.3010648564159	pulse	2.0	t		30.0	female	black	2.7345801830481498	smiling	062	sub-10	2.0	4.0	062_smiling	1.0	trustworthiness	210.80066384109523	
31.0	188.50096639108233	fix	3.0		444	30.0	female	black	2.7345801830481498	smiling	062	sub-10	2.0	4.0	062_smiling	1.0	trustworthiness	211.00056537576165	3.7665964047155285
31.0	189.00106524883086	pulse	3.0	t		30.0	female	black	2.7345801830481498	smiling	062	sub-10	2.0	4.0	062_smiling	1.0	trustworthiness	211.50066423351018	
31.0	189.70104451134102	pulse	3.0	t		30.0	female	black	2.7345801830481498	smiling	062	sub-10	2.0	4.0	062_smiling	1.0	trustworthiness	212.20064349602035	
31.0	190.40103645179624	pulse	3.0	t		30.0	female	black	2.7345801830481498	smiling	062	sub-10	2.0	4.0	062_smiling	1.0	trustworthiness	212.90063543647557	
31.0	191.10101299760572	pulse	3.0	t		30.0	female	black	2.7345801830481498	smiling	062	sub-10	2.0	4.0	062_smiling	1.0	trustworthiness	213.60061198228505	
31.0	191.80100191949896	pulse	3.0	t		30.0	female	black	2.7345801830481498	smiling	062	sub-10	2.0	4.0	062_smiling	1.0	trustworthiness	214.30060090417828	
32.0	192.26756279579786	face	0.0		145	34.0	male	white	2.651014723438122	smiling	121	sub-10	2.0	4.0	121_smiling	0.0		214.76716178047718	1.233297040216712
32.0	192.50100653789195	pulse	0.0	t		34.0	male	white	2.651014723438122	smiling	121	sub-10	2.0	4.0	121_smiling	0.0		215.00060552257128	
32.0	193.20098489483644	pulse	0.0	t		34.0	male	white	2.651014723438122	smiling	121	sub-10	2.0	4.0	121_smiling	0.0		215.70058387951576	
32.0	193.50085983601457	fix	1.0		444	34.0	male	white	2.651014723438122	smiling	121	sub-10	2.0	4.0	121_smiling	0.0		216.0004588206939	3.7666012344088813
32.0	193.9009810612697	pulse	1.0	t		34.0	male	white	2.651014723438122	smiling	121	sub-10	2.0	4.0	121_smiling	0.0		216.40058004594903	
32.0	194.60096636089656	pulse	1.0	t		34.0	male	white	2.651014723438122	smiling	121	sub-10	2.0	4.0	121_smiling	0.0		217.1005653455759	
32.0	195.30094652897606	pulse	1.0	t		34.0	male	white	2.651014723438122	smiling	121	sub-10	2.0	4.0	121_smiling	0.0		217.80054551365538	
32.0	196.0010024628391	pulse	1.0	t		34.0	male	white	2.651014723438122	smiling	121	sub-10	2.0	4.0	121_smiling	0.0		218.50060144751842	
32.0	196.70092678761284	pulse	1.0	t		34.0	male	white	2.651014723438122	smiling	121	sub-10	2.0	4.0	121_smiling	0.0		219.20052577229217	
33.0	197.26746107042345	face	0.0		145	25.0	female	west_asian	2.6756864305610826	neutral	064	sub-10	2.0	4.0	064_neutral	0.0		219.76706005510277	1.233311227431841
33.0	197.40090997424704	pulse	0.0	t		25.0	female	west_asian	2.6756864305610826	neutral	064	sub-10	2.0	4.0	064_neutral	0.0		219.90050895892637	
33.0	198.10090855552698	pulse	0.0	t		25.0	female	west_asian	2.6756864305610826	neutral	064	sub-10	2.0	4.0	064_neutral	0.0		220.6005075402063	
33.0	198.5007722978553	fix	1.0		444	25.0	female	west_asian	2.6756864305610826	neutral	064	sub-10	2.0	4.0	064_neutral	0.0		221.00037128253462	3.7665991214198584
33.0	198.80087151782936	pulse	1.0	t		25.0	female	west_asian	2.6756864305610826	neutral	064	sub-10	2.0	4.0	064_neutral	0.0		221.3004705025087	
33.0	199.50086949539764	pulse	1.0	t		25.0	female	west_asian	2.6756864305610826	neutral	064	sub-10	2.0	4.0	064_neutral	0.0		222.00046848007696	
33.0	200.20085268203184	pulse	1.0	t		25.0	female	west_asian	2.6756864305610826	neutral	064	sub-10	2.0	4.0	064_neutral	0.0		222.70045166671116	
33.0	200.90084220764038	pulse	1.0	t		25.0	female	west_asian	2.6756864305610826	neutral	064	sub-10	2.0	4.0	064_neutral	0.0		223.4004411923197	
33.0	201.60082871469058	pulse	1.0	t		25.0	female	west_asian	2.6756864305610826	neutral	064	sub-10	2.0	4.0	064_neutral	0.0		224.1004276993699	
34.0	202.26737141927515	face	0.0		145	19.0	male	white	3.2522881018702745	smiling	018	sub-10	2.0	4.0	018_smiling	0.0		224.76697040395447	1.2333272257856152
34.0	202.30085899081678	pulse	0.0	t		19.0	male	white	3.2522881018702745	smiling	018	sub-10	2.0	4.0	018_smiling	0.0		224.8004579754961	
34.0	203.00081078445874	pulse	0.0	t		19.0	male	white	3.2522881018702745	smiling	018	sub-10	2.0	4.0	018_smiling	0.0		225.50040976913806	
34.0	203.50069864506077	fix	1.0		443	19.0	male	white	3.2522881018702745	smiling	018	sub-10	2.0	4.0	018_smiling	0.0		226.0002976297401	3.7665674265663256
34.0	203.70079759336295	pulse	1.0	t		19.0	male	white	3.2522881018702745	smiling	018	sub-10	2.0	4.0	018_smiling	0.0		226.20039657804227	
34.0	204.40080824887264	pulse	1.0	t		19.0	male	white	3.2522881018702745	smiling	018	sub-10	2.0	4.0	018_smiling	0.0		226.90040723355196	
34.0	205.10076366478097	pulse	1.0	t		19.0	male	white	3.2522881018702745	smiling	018	sub-10	2.0	4.0	018_smiling	0.0		227.6003626494603	
34.0	205.80076435904994	pulse	1.0	t		19.0	male	white	3.2522881018702745	smiling	018	sub-10	2.0	4.0	018_smiling	0.0		228.30036334372926	
34.0	206.50074181042874	pulse	1.0	t		19.0	male	white	3.2522881018702745	smiling	018	sub-10	2.0	4.0	018_smiling	0.0		229.00034079510806	
34.0	207.20072318593157	pulse	1.0	t		19.0	male	white	3.2522881018702745	smiling	018	sub-10	2.0	4.0	018_smiling	0.0		229.7003221706109	
35.0	207.2672660716271	face	0.0		146	31.0	female	west_asian	2.364902506963788	smiling	006	sub-10	2.0	4.0	006_smiling	0.0		229.76686505630641	1.233326622077584
35.0	207.90071905050718	pulse	0.0	t		31.0	female	west_asian	2.364902506963788	smiling	006	sub-10	2.0	4.0	006_smiling	0.0		230.4003180351865	
35.0	208.50059269370468	fix	1.0		443	31.0	female	west_asian	2.364902506963788	smiling	006	sub-10	2.0	4.0	006_smiling	0.0		231.000191678384	3.766599423273874
35.0	208.6007076705464	pulse	1.0	t		31.0	female	west_asian	2.364902506963788	smiling	006	sub-10	2.0	4.0	006_smiling	0.0		231.10030665522572	
35.0	209.300705044403	pulse	1.0	t		31.0	female	west_asian	2.364902506963788	smiling	006	sub-10	2.0	4.0	006_smiling	0.0		231.80030402908233	
35.0	210.0006791753658	pulse	1.0	t		31.0	female	west_asian	2.364902506963788	smiling	006	sub-10	2.0	4.0	006_smiling	0.0		232.50027816004513	
35.0	210.7006919438645	pulse	1.0	t		31.0	female	west_asian	2.364902506963788	smiling	006	sub-10	2.0	4.0	006_smiling	0.0		233.20029092854384	
35.0	211.40065309503188	pulse	1.0	t		31.0	female	west_asian	2.364902506963788	smiling	006	sub-10	2.0	4.0	006_smiling	0.0		233.9002520797112	
35.0	212.10065439301252	pulse	1.0	t		31.0	female	west_asian	2.364902506963788	smiling	006	sub-10	2.0	4.0	006_smiling	0.0		234.60025337769184	
36.0	212.26719211697855	face	0.0		146	21.0	male	east_asian/white	3.501790688420215	neutral	036	sub-10	2.0	4.0	036_neutral	0.0		234.76679110165787	1.2333290369206225
36.0	212.80063425923436	pulse	0.0	t		21.0	male	east_asian/white	3.501790688420215	neutral	036	sub-10	2.0	4.0	036_neutral	0.0		235.30023324391368	
36.0	213.50052115389917	fix	1.0		444	21.0	male	east_asian/white	3.501790688420215	neutral	036	sub-10	2.0	4.0	036_neutral	0.0		236.0001201385785	3.7665822174967616
36.0	213.50810980665847	pulse	1.0	t		21.0	male	east_asian/white	3.501790688420215	neutral	036	sub-10	2.0	4.0	036_neutral	0.0		236.0077087913378	
36.0	214.20060002879836	pulse	1.0	t		21.0	male	east_asian/white	3.501790688420215	neutral	036	sub-10	2.0	4.0	036_neutral	0.0		236.7001990134777	
36.0	214.90060796760372	pulse	1.0	t		21.0	male	east_asian/white	3.501790688420215	neutral	036	sub-10	2.0	4.0	036_neutral	0.0		237.40020695228304	
36.0	215.60057757073082	pulse	1.0	t		21.0	male	east_asian/white	3.501790688420215	neutral	036	sub-10	2.0	4.0	036_neutral	0.0		238.10017655541014	
36.0	216.30056619077004	pulse	1.0	t		21.0	male	east_asian/white	3.501790688420215	neutral	036	sub-10	2.0	4.0	036_neutral	0.0		238.80016517544937	
36.0	217.0005533015319	pulse	1.0	t		21.0	male	east_asian/white	3.501790688420215	neutral	036	sub-10	2.0	4.0	036_neutral	0.0		239.50015228621123	
37.0	217.26710337139593	face	0.0		145	36.0	female	white	2.7548746518105847	neutral	011	sub-10	2.0	4.0	011_neutral	0.0		239.76670235607526	1.2333151515558711
37.0	217.70055822177892	pulse	0.0	t		36.0	female	white	2.7548746518105847	neutral	011	sub-10	2.0	4.0	011_neutral	0.0		240.20015720645824	
37.0	218.4005248063513	pulse	0.0	t		36.0	female	white	2.7548746518105847	neutral	011	sub-10	2.0	4.0	011_neutral	0.0		240.90012379103064	
37.0	218.5004185229518	fix	1.0		444	36.0	female	white	2.7548746518105847	neutral	011	sub-10	2.0	4.0	011_neutral	0.0		241.00001750763113	3.7665804063653923
37.0	219.10053153773333	pulse	1.0	t		36.0	female	white	2.7548746518105847	neutral	011	sub-10	2.0	4.0	011_neutral	0.0		241.60013052241266	
37.0	219.80051985591854	pulse	1.0	t		36.0	female	white	2.7548746518105847	neutral	011	sub-10	2.0	4.0	011_neutral	0.0		242.30011884059786	
37.0	220.50050394812206	pulse	1.0	t		36.0	female	white	2.7548746518105847	neutral	011	sub-10	2.0	4.0	011_neutral	0.0		243.00010293280138	
37.0	221.20049407743863	pulse	1.0	t		36.0	female	white	2.7548746518105847	neutral	011	sub-10	2.0	4.0	011_neutral	0.0		243.70009306211796	
37.0	221.90047122696342	pulse	1.0	t		36.0	female	white	2.7548746518105847	neutral	011	sub-10	2.0	4.0	011_neutral	0.0		244.40007021164274	
38.0	222.2669989293172	face	0.0		145	24.0	male	white	3.1153999204138483	neutral	012	sub-10	2.0	4.0	012_neutral	0.0		244.76659791399652	1.2333208868149086
38.0	222.60046558226168	pulse	0.0	t		24.0	male	white	3.1153999204138483	neutral	012	sub-10	2.0	4.0	012_neutral	0.0		245.100064566941	
38.0	223.30045390044324	pulse	0.0	t		24.0	male	white	3.1153999204138483	neutral	012	sub-10	2.0	4.0	012_neutral	0.0		245.80005288512257	
38.0	223.5003198161321	fix	1.0		444	24.0	male	white	3.1153999204138483	neutral	012	sub-10	2.0	4.0	012_neutral	0.0		245.99991880081143	3.758256131219241
38.0	224.00043799264677	pulse	1.0	t		24.0	male	white	3.1153999204138483	neutral	012	sub-10	2.0	4.0	012_neutral	0.0		246.5000369773261	
38.0	224.70047038176563	pulse	1.0	t		24.0	male	white	3.1153999204138483	neutral	012	sub-10	2.0	4.0	012_neutral	0.0		247.20006936644495	
38.0	225.40056766986527	pulse	1.0	t		24.0	male	white	3.1153999204138483	neutral	012	sub-10	2.0	4.0	012_neutral	0.0		247.9001666545446	
38.0	226.10040204162942	pulse	1.0	t		24.0	male	white	3.1153999204138483	neutral	012	sub-10	2.0	4.0	012_neutral	0.0		248.60000102630875	
38.0	226.80037768187321	pulse	1.0	t		24.0	male	white	3.1153999204138483	neutral	012	sub-10	2.0	4.0	012_neutral	0.0		249.29997666655254	
39.0	227.25857594735135	face	0.0		146	19.0	male	white	2.243931555909272	smiling	130	sub-10	2.0	4.0	130_smiling	0.0		249.75817493203067	1.241672630832909
39.0	227.50036358521174	pulse	0.0	t		19.0	male	white	2.243931555909272	smiling	130	sub-10	2.0	4.0	130_smiling	0.0		249.99996256989107	
39.0	228.20036458133836	pulse	0.0	t		19.0	male	white	2.243931555909272	smiling	130	sub-10	2.0	4.0	130_smiling	0.0		250.6999635660177	
39.0	228.50024857818426	fix	1.0		444	19.0	male	white	2.243931555909272	smiling	130	sub-10	2.0	4.0	130_smiling	0.0		250.99984756286358	3.749937289474474
39.0	228.90034656054922	pulse	1.0	t		19.0	male	white	2.243931555909272	smiling	130	sub-10	2.0	4.0	130_smiling	0.0		251.39994554522855	
39.0	229.60033457687678	pulse	1.0	t		19.0	male	white	2.243931555909272	smiling	130	sub-10	2.0	4.0	130_smiling	0.0		252.0999335615561	
39.0	230.30032802660935	pulse	1.0	t		19.0	male	white	2.243931555909272	smiling	130	sub-10	2.0	4.0	130_smiling	0.0		252.79992701128867	
39.0	231.00032540046595	pulse	1.0	t		19.0	male	white	2.243931555909272	smiling	130	sub-10	2.0	4.0	130_smiling	0.0		253.49992438514528	
39.0	231.70030134256376	pulse	1.0	t		19.0	male	white	2.243931555909272	smiling	130	sub-10	2.0	4.0	130_smiling	0.0		254.19990032724309	
40.0	232.25018586765873	fix	0.0		720													254.74978485233805	5.999877144720813
40.0	232.40028483105561	pulse	0.0	t														254.89988381573494	
40.0	233.10028190305457	pulse	0.0	t														255.5998808877339	
40.0	233.8002650896924	pulse	0.0	t														256.2998640743717	
40.0	234.5002528041623	pulse	0.0	t														256.9998517888416	
40.0	235.20023236853012	pulse	0.0	t														257.69983135320945	
40.0	235.90022219599268	pulse	0.0	t														258.399821180672	
40.0	236.6002126271669	pulse	0.0	t														259.09981161184623	
40.0	237.30020124720613	pulse	0.0	t														259.79980023188546	
40.0	238.0001910746687	pulse	0.0	t														260.499790059348	
