trial_nr	onset	event_type	phase	response	nr_frames	face_age	face_sex	face_eth	attractiveness	expression	face_id	sub_id	ses	run	trial_type	catch	rating_type	onset_abs	duration
-1.0	0.05893981383542268	fix	0.0		713													23.714075495243378	5.957919882784154
-1.0	0.7004570959752527	pulse	0.0	t														24.355592777383208	
-1.0	1.4004297179089917	pulse	0.0	t														25.055565399316947	
-1.0	2.100417432492577	pulse	0.0	t														25.755553113900532	
-1.0	2.8003945822219976	pulse	0.0	t														26.455530263629953	
-1.0	3.5003699208327816	pulse	0.0	t														27.155505602240737	
-1.0	4.200368200270532	pulse	0.0	t														27.855503881678487	
-1.0	4.900315164701169	pulse	0.0	t														28.555450846109125	
-1.0	5.600313745992025	pulse	0.0	t														29.25544942739998	
0.0	6.016859696619576	face	0.0		144	54.0	female	white	2.286908077994429	neutral	136	sub-14	2.0	6.0	136_neutral	0.0		29.671995378027532	1.2333082091026881
0.0	6.300296932780839	pulse	0.0	t		54.0	female	white	2.286908077994429	neutral	136	sub-14	2.0	6.0	136_neutral	0.0		29.955432614188794	
0.0	7.000270158421699	pulse	0.0	t		54.0	female	white	2.286908077994429	neutral	136	sub-14	2.0	6.0	136_neutral	0.0		30.655405839829655	
0.0	7.2501679057222645	fix	1.0		445	54.0	female	white	2.286908077994429	neutral	136	sub-14	2.0	6.0	136_neutral	0.0		30.90530358713022	3.7582196831690453
0.0	7.700267834153237	pulse	1.0	t		54.0	female	white	2.286908077994429	neutral	136	sub-14	2.0	6.0	136_neutral	0.0		31.355403515561193	
0.0	8.400237437557735	pulse	1.0	t		54.0	female	white	2.286908077994429	neutral	136	sub-14	2.0	6.0	136_neutral	0.0		32.05537311896569	
0.0	9.10022907622988	pulse	1.0	t		54.0	female	white	2.286908077994429	neutral	136	sub-14	2.0	6.0	136_neutral	0.0		32.755364757637835	
0.0	9.800191737015666	pulse	1.0	t		54.0	female	white	2.286908077994429	neutral	136	sub-14	2.0	6.0	136_neutral	0.0		33.45532741842362	
0.0	10.50018820533569	pulse	1.0	t		54.0	female	white	2.286908077994429	neutral	136	sub-14	2.0	6.0	136_neutral	0.0		34.155323886743645	
1.0	11.00838758889131	face	0.0		146	40.0	male	white	1.868682849184242	neutral	172	sub-14	2.0	6.0	172_neutral	0.0		34.663523270299265	1.2416471996648397
1.0	11.200171995830715	pulse	0.0	t		40.0	male	white	1.868682849184242	neutral	172	sub-14	2.0	6.0	172_neutral	0.0		34.85530767723867	
1.0	11.900153673353998	pulse	0.0	t		40.0	male	white	1.868682849184242	neutral	172	sub-14	2.0	6.0	172_neutral	0.0		35.55528935476195	
1.0	12.25003478855615	fix	1.0		445	40.0	male	white	1.868682849184242	neutral	172	sub-14	2.0	6.0	172_neutral	0.0		35.905170469964105	3.7582217961398783
1.0	12.600141387937583	pulse	1.0	t		40.0	male	white	1.868682849184242	neutral	172	sub-14	2.0	6.0	172_neutral	0.0		36.25527706934554	
1.0	13.300077787514056	pulse	1.0	t		40.0	male	white	1.868682849184242	neutral	172	sub-14	2.0	6.0	172_neutral	0.0		36.95521346892201	
1.0	14.000088744777713	pulse	1.0	t		40.0	male	white	1.868682849184242	neutral	172	sub-14	2.0	6.0	172_neutral	0.0		37.65522442618567	
1.0	14.700078270479025	pulse	1.0	t		40.0	male	white	1.868682849184242	neutral	172	sub-14	2.0	6.0	172_neutral	0.0		38.35521395188698	
1.0	15.400052401678295	pulse	1.0	t		40.0	male	white	1.868682849184242	neutral	172	sub-14	2.0	6.0	172_neutral	0.0		39.05518808308625	
2.0	16.008256584696028	face	0.0		146	28.0	male	east_asian	1.5563072025467568	smiling	005	sub-14	2.0	6.0	005_smiling	0.0		39.66339226610398	1.2416290884857517
2.0	16.10004494590885	pulse	0.0	t		28.0	male	east_asian	1.5563072025467568	smiling	005	sub-14	2.0	6.0	005_smiling	0.0		39.755180627316804	
2.0	16.800013040048725	pulse	0.0	t		28.0	male	east_asian	1.5563072025467568	smiling	005	sub-14	2.0	6.0	005_smiling	0.0		40.45514872145668	
2.0	17.24988567318178	fix	1.0		445	28.0	male	east_asian	1.5563072025467568	smiling	005	sub-14	2.0	6.0	005_smiling	0.0		40.905021354589735	3.7582296443179075
2.0	17.50000769725102	pulse	1.0	t		28.0	male	east_asian	1.5563072025467568	smiling	005	sub-14	2.0	6.0	005_smiling	0.0		41.15514337865898	
2.0	18.199986356245063	pulse	1.0	t		28.0	male	east_asian	1.5563072025467568	smiling	005	sub-14	2.0	6.0	005_smiling	0.0		41.85512203765302	
2.0	18.899967128209937	pulse	1.0	t		28.0	male	east_asian	1.5563072025467568	smiling	005	sub-14	2.0	6.0	005_smiling	0.0		42.55510280961789	
2.0	19.599945183497766	pulse	1.0	t		28.0	male	east_asian	1.5563072025467568	smiling	005	sub-14	2.0	6.0	005_smiling	0.0		43.25508086490572	
2.0	20.299927766580367	pulse	1.0	t		28.0	male	east_asian	1.5563072025467568	smiling	005	sub-14	2.0	6.0	005_smiling	0.0		43.95506344798832	
3.0	21.008115317499687	face	0.0		146	20.0	male	black	2.609629924393156	neutral	043	sub-14	2.0	6.0	043_neutral	1.0	trustworthiness	44.66325099890764	1.2416541422826413
3.0	21.00087597736183	pulse	0.0	t		20.0	male	black	2.609629924393156	neutral	043	sub-14	2.0	6.0	043_neutral	1.0	trustworthiness	44.656011658769785	
3.0	21.69989595127572	pulse	0.0	t		20.0	male	black	2.609629924393156	neutral	043	sub-14	2.0	6.0	043_neutral	1.0	trustworthiness	45.355031632683676	
3.0	22.24976945978233	fix	1.0		177	20.0	male	black	2.609629924393156	neutral	043	sub-14	2.0	6.0	043_neutral	1.0	trustworthiness	45.904905141190284	1.508310163601891
3.0	22.399874308416656	pulse	1.0	t		20.0	male	black	2.609629924393156	neutral	043	sub-14	2.0	6.0	043_neutral	1.0	trustworthiness	46.05500998982461	
3.0	23.09984723220441	pulse	1.0	t		20.0	male	black	2.609629924393156	neutral	043	sub-14	2.0	6.0	043_neutral	1.0	trustworthiness	46.754982913612366	
3.0	23.75807962338422	rating	2.0		293	20.0	male	black	2.609629924393156	neutral	043	sub-14	2.0	6.0	043_neutral	1.0	trustworthiness	47.413215304792175	2.4915736229995673
3.0	23.799846115348373	pulse	2.0	t		20.0	male	black	2.609629924393156	neutral	043	sub-14	2.0	6.0	043_neutral	1.0	trustworthiness	47.45498179675633	
3.0	24.499821453959157	pulse	2.0	t		20.0	male	black	2.609629924393156	neutral	043	sub-14	2.0	6.0	043_neutral	1.0	trustworthiness	48.15495713536711	
3.0	25.19979920739388	pulse	2.0	t		20.0	male	black	2.609629924393156	neutral	043	sub-14	2.0	6.0	043_neutral	1.0	trustworthiness	48.854934888801836	
3.0	25.452840149827352	response	2.0	w		20.0	male	black	2.609629924393156	neutral	043	sub-14	2.0	6.0	043_neutral	1.0	trustworthiness	49.10797583123531	
3.0	25.89975854779732	pulse	2.0	t		20.0	male	black	2.609629924393156	neutral	043	sub-14	2.0	6.0	043_neutral	1.0	trustworthiness	49.554894229205274	
3.0	26.249653246383787	fix	3.0		444	20.0	male	black	2.609629924393156	neutral	043	sub-14	2.0	6.0	043_neutral	1.0	trustworthiness	49.90478892779174	3.75821545722647
3.0	26.599755016117342	pulse	3.0	t		20.0	male	black	2.609629924393156	neutral	043	sub-14	2.0	6.0	043_neutral	1.0	trustworthiness	50.2548906975253	
3.0	27.299738202906155	pulse	3.0	t		20.0	male	black	2.609629924393156	neutral	043	sub-14	2.0	6.0	043_neutral	1.0	trustworthiness	50.95487388431411	
3.0	27.999719276724136	pulse	3.0	t		20.0	male	black	2.609629924393156	neutral	043	sub-14	2.0	6.0	043_neutral	1.0	trustworthiness	51.65485495813209	
3.0	28.699705783895297	pulse	3.0	t		20.0	male	black	2.609629924393156	neutral	043	sub-14	2.0	6.0	043_neutral	1.0	trustworthiness	52.35484146530325	
3.0	29.399674481740476	pulse	3.0	t		20.0	male	black	2.609629924393156	neutral	043	sub-14	2.0	6.0	043_neutral	1.0	trustworthiness	53.05481016314843	
4.0	30.007868703610256	face	0.0		146	25.0	female	west_asian	2.6756864305610826	smiling	064	sub-14	2.0	6.0	064_smiling	0.0		53.66300438501821	1.2416580663721106
4.0	30.09966219632406	pulse	0.0	t		25.0	female	west_asian	2.6756864305610826	smiling	064	sub-14	2.0	6.0	064_smiling	0.0		53.75479787773202	
4.0	30.799649005349238	pulse	0.0	t		25.0	female	west_asian	2.6756864305610826	smiling	064	sub-14	2.0	6.0	064_smiling	0.0		54.45478468675719	
4.0	31.249526769982367	fix	1.0		444	25.0	female	west_asian	2.6756864305610826	smiling	064	sub-14	2.0	6.0	064_smiling	0.0		54.90466245139032	3.7665327143740797
4.0	31.499639134756762	pulse	1.0	t		25.0	female	west_asian	2.6756864305610826	smiling	064	sub-14	2.0	6.0	064_smiling	0.0		55.15477481616472	
4.0	32.199608436308154	pulse	1.0	t		25.0	female	west_asian	2.6756864305610826	smiling	064	sub-14	2.0	6.0	064_smiling	0.0		55.85474411771611	
4.0	32.89958920827303	pulse	1.0	t		25.0	female	west_asian	2.6756864305610826	smiling	064	sub-14	2.0	6.0	064_smiling	0.0		56.55472488968098	
4.0	33.59957571544419	pulse	1.0	t		25.0	female	west_asian	2.6756864305610826	smiling	064	sub-14	2.0	6.0	064_smiling	0.0		57.254711396852144	
4.0	34.29956010964452	pulse	1.0	t		25.0	female	west_asian	2.6756864305610826	smiling	064	sub-14	2.0	6.0	064_smiling	0.0		57.95469579105247	
5.0	35.01605948435645	face	0.0		146	26.0	male	white	2.7966573816155993	smiling	117	sub-14	2.0	6.0	117_smiling	0.0		58.6711951657644	1.2333335647535932
5.0	35.002501757538994	pulse	0.0	t		26.0	male	white	2.7966573816155993	smiling	117	sub-14	2.0	6.0	117_smiling	0.0		58.65763743894695	
5.0	35.699513201690934	pulse	0.0	t		26.0	male	white	2.7966573816155993	smiling	117	sub-14	2.0	6.0	117_smiling	0.0		59.35464888309889	
5.0	36.24939304911004	fix	1.0		443	26.0	male	white	2.7966573816155993	smiling	117	sub-14	2.0	6.0	117_smiling	0.0		59.904528730517995	3.7665553533479397
5.0	36.39950302924535	pulse	1.0	t		26.0	male	white	2.7966573816155993	smiling	117	sub-14	2.0	6.0	117_smiling	0.0		60.05463871065331	
5.0	37.09947565118	pulse	1.0	t		26.0	male	white	2.7966573816155993	smiling	117	sub-14	2.0	6.0	117_smiling	0.0		60.754611332587956	
5.0	37.79945763055639	pulse	1.0	t		26.0	male	white	2.7966573816155993	smiling	117	sub-14	2.0	6.0	117_smiling	0.0		61.454593311964345	
5.0	38.499441421051415	pulse	1.0	t		26.0	male	white	2.7966573816155993	smiling	117	sub-14	2.0	6.0	117_smiling	0.0		62.15457710245937	
5.0	39.19941434483826	pulse	1.0	t		26.0	male	white	2.7966573816155993	smiling	117	sub-14	2.0	6.0	117_smiling	0.0		62.854550026246216	
5.0	39.89940719092283	pulse	1.0	t		26.0	male	white	2.7966573816155993	smiling	117	sub-14	2.0	6.0	117_smiling	0.0		63.554542872330785	
6.0	40.01594840245798	face	0.0		146	40.0	male	black	2.408674890569041	smiling	061	sub-14	2.0	6.0	061_smiling	0.0		63.671084083865935	1.2333121331921575
6.0	40.5993813221221	pulse	0.0	t		40.0	male	black	2.408674890569041	smiling	061	sub-14	2.0	6.0	061_smiling	0.0		64.25451700353005	
6.0	41.24926053565014	fix	1.0		444	40.0	male	black	2.408674890569041	smiling	061	sub-14	2.0	6.0	061_smiling	0.0		64.90439621705809	3.76655535334703
6.0	41.29937507376508	pulse	1.0	t		40.0	male	black	2.408674890569041	smiling	061	sub-14	2.0	6.0	061_smiling	0.0		64.95451075517303	
6.0	41.99935192164139	pulse	1.0	t		40.0	male	black	2.408674890569041	smiling	061	sub-14	2.0	6.0	061_smiling	0.0		65.65448760304935	
6.0	42.699322732457404	pulse	1.0	t		40.0	male	black	2.408674890569041	smiling	061	sub-14	2.0	6.0	061_smiling	0.0		66.35445841386536	
6.0	43.3993050136869	pulse	1.0	t		40.0	male	black	2.408674890569041	smiling	061	sub-14	2.0	6.0	061_smiling	0.0		67.05444069509485	
6.0	44.09948410306333	pulse	1.0	t		40.0	male	black	2.408674890569041	smiling	061	sub-14	2.0	6.0	061_smiling	0.0		67.75461978447129	
6.0	44.7994645731751	pulse	1.0	t		40.0	male	black	2.408674890569041	smiling	061	sub-14	2.0	6.0	061_smiling	0.0		68.45460025458306	
7.0	45.01581588899717	face	0.0		145	26.0	male	white	2.7966573816155993	neutral	117	sub-14	2.0	6.0	117_neutral	0.0		68.67095157040512	1.2333148498692026
7.0	45.49939523754438	pulse	0.0	t		26.0	male	white	2.7966573816155993	neutral	117	sub-14	2.0	6.0	117_neutral	0.0		69.15453091895233	
7.0	46.199238364548364	pulse	0.0	t		26.0	male	white	2.7966573816155993	neutral	117	sub-14	2.0	6.0	117_neutral	0.0		69.85437404595632	
7.0	46.24913073886637	fix	1.0		447	26.0	male	white	2.7966573816155993	neutral	117	sub-14	2.0	6.0	117_neutral	0.0		69.90426642027433	3.774870195670701
7.0	46.89941594465927	pulse	1.0	t		26.0	male	white	2.7966573816155993	neutral	117	sub-14	2.0	6.0	117_neutral	0.0		70.55455162606722	
7.0	47.59919387141872	pulse	1.0	t		26.0	male	white	2.7966573816155993	neutral	117	sub-14	2.0	6.0	117_neutral	0.0		71.25432955282668	
7.0	48.29924135289275	pulse	1.0	t		26.0	male	white	2.7966573816155993	neutral	117	sub-14	2.0	6.0	117_neutral	0.0		71.9543770343007	
7.0	48.999162659819376	pulse	1.0	t		26.0	male	white	2.7966573816155993	neutral	117	sub-14	2.0	6.0	117_neutral	0.0		72.65429834122733	
7.0	49.69930763980847	pulse	1.0	t		26.0	male	white	2.7966573816155993	neutral	117	sub-14	2.0	6.0	117_neutral	0.0		73.35444332121642	
8.0	50.02400093453707	face	0.0		145	30.0	female	black	2.7345801830481498	neutral	062	sub-14	2.0	6.0	062_neutral	1.0	dominance	73.67913661594503	1.2333287351057152
8.0	50.39926879132872	pulse	0.0	t		30.0	female	black	2.7345801830481498	neutral	062	sub-14	2.0	6.0	062_neutral	1.0	dominance	74.05440447273668	
8.0	51.09924624291125	pulse	0.0	t		30.0	female	black	2.7345801830481498	neutral	062	sub-14	2.0	6.0	062_neutral	1.0	dominance	74.7543819243192	
8.0	51.257329669642786	fix	1.0		177	30.0	female	black	2.7345801830481498	neutral	062	sub-14	2.0	6.0	062_neutral	1.0	dominance	74.91246535105074	1.4999654378334526
8.0	51.799281650266494	pulse	1.0	t		30.0	female	black	2.7345801830481498	neutral	062	sub-14	2.0	6.0	062_neutral	1.0	dominance	75.45441733167445	
8.0	52.49916854595267	pulse	1.0	t		30.0	female	black	2.7345801830481498	neutral	062	sub-14	2.0	6.0	062_neutral	1.0	dominance	76.15430422736063	
8.0	52.75729510747624	rating	2.0		295	30.0	female	black	2.7345801830481498	neutral	062	sub-14	2.0	6.0	062_neutral	1.0	dominance	76.4124307888842	2.4999255932389133
8.0	53.20212256981904	pulse	2.0	t		30.0	female	black	2.7345801830481498	neutral	062	sub-14	2.0	6.0	062_neutral	1.0	dominance	76.857258251227	
8.0	53.902103945490126	pulse	2.0	t		30.0	female	black	2.7345801830481498	neutral	062	sub-14	2.0	6.0	062_neutral	1.0	dominance	77.55723962689808	
8.0	54.115678213851425	response	2.0	y		30.0	female	black	2.7345801830481498	neutral	062	sub-14	2.0	6.0	062_neutral	1.0	dominance	77.77081389525938	
8.0	54.59920383256667	pulse	2.0	t		30.0	female	black	2.7345801830481498	neutral	062	sub-14	2.0	6.0	062_neutral	1.0	dominance	78.25433951397463	
8.0	55.25722070071515	fix	3.0		443	30.0	female	black	2.7345801830481498	neutral	062	sub-14	2.0	6.0	062_neutral	1.0	dominance	78.91235638212311	3.7665390532865786
8.0	55.29918460453155	pulse	3.0	t		30.0	female	black	2.7345801830481498	neutral	062	sub-14	2.0	6.0	062_neutral	1.0	dominance	78.9543202859395	
8.0	55.99916779132036	pulse	3.0	t		30.0	female	black	2.7345801830481498	neutral	062	sub-14	2.0	6.0	062_neutral	1.0	dominance	79.65430347272832	
8.0	56.69900971091192	pulse	3.0	t		30.0	female	black	2.7345801830481498	neutral	062	sub-14	2.0	6.0	062_neutral	1.0	dominance	80.35414539231988	
8.0	57.39912993895632	pulse	3.0	t		30.0	female	black	2.7345801830481498	neutral	062	sub-14	2.0	6.0	062_neutral	1.0	dominance	81.05426562036428	
8.0	58.09911584242127	pulse	3.0	t		30.0	female	black	2.7345801830481498	neutral	062	sub-14	2.0	6.0	062_neutral	1.0	dominance	81.75425152382923	
8.0	58.79909902921008	pulse	3.0	t		30.0	female	black	2.7345801830481498	neutral	062	sub-14	2.0	6.0	062_neutral	1.0	dominance	82.45423471061804	
9.0	59.02375975400173	face	0.0		145	28.0	female	white	5.676880222841227	smiling	124	sub-14	2.0	6.0	124_smiling	0.0		82.67889543540969	1.2333308480774576
9.0	59.49892132835794	pulse	0.0	t		28.0	female	white	5.676880222841227	smiling	124	sub-14	2.0	6.0	124_smiling	0.0		83.15405700976589	
9.0	60.1989953728953	pulse	0.0	t		28.0	female	white	5.676880222841227	smiling	124	sub-14	2.0	6.0	124_smiling	0.0		83.85413105430325	
9.0	60.25709060207919	fix	1.0		445	28.0	female	white	5.676880222841227	smiling	124	sub-14	2.0	6.0	124_smiling	0.0		83.91222628348714	3.766557466317863
9.0	60.89904345807554	pulse	1.0	t		28.0	female	white	5.676880222841227	smiling	124	sub-14	2.0	6.0	124_smiling	0.0		84.5541791394835	
9.0	61.59902785227678	pulse	1.0	t		28.0	female	white	5.676880222841227	smiling	124	sub-14	2.0	6.0	124_smiling	0.0		85.25416353368473	
9.0	62.29881875871433	pulse	1.0	t		28.0	female	white	5.676880222841227	smiling	124	sub-14	2.0	6.0	124_smiling	0.0		85.95395444012229	
9.0	62.99881130294489	pulse	1.0	t		28.0	female	white	5.676880222841227	smiling	124	sub-14	2.0	6.0	124_smiling	0.0		86.65394698435284	
9.0	63.69879690455764	pulse	1.0	t		28.0	female	white	5.676880222841227	smiling	124	sub-14	2.0	6.0	124_smiling	0.0		87.3539325859656	
10.0	64.02364806839705	face	0.0		145	24.0	female	black	3.0955033824114606	neutral	099	sub-14	2.0	6.0	099_neutral	0.0		87.678783749805	1.2332955312776903
10.0	64.39876620610903	pulse	0.0	t		24.0	female	black	3.0955033824114606	neutral	099	sub-14	2.0	6.0	099_neutral	0.0		88.05390188751699	
10.0	65.09876690037072	pulse	0.0	t		24.0	female	black	3.0955033824114606	neutral	099	sub-14	2.0	6.0	099_neutral	0.0		88.75390258177868	
10.0	65.25694359967474	fix	1.0		444	24.0	female	black	3.0955033824114606	neutral	099	sub-14	2.0	6.0	099_neutral	0.0		88.9120792810827	3.76655142925938
10.0	65.79872563706795	pulse	1.0	t		24.0	female	black	3.0955033824114606	neutral	099	sub-14	2.0	6.0	099_neutral	0.0		89.4538613184759	
10.0	66.49869946641411	pulse	1.0	t		24.0	female	black	3.0955033824114606	neutral	099	sub-14	2.0	6.0	099_neutral	0.0		90.15383514782206	
10.0	67.19868235134982	pulse	1.0	t		24.0	female	black	3.0955033824114606	neutral	099	sub-14	2.0	6.0	099_neutral	0.0		90.85381803275777	
10.0	67.89865648254909	pulse	1.0	t		24.0	female	black	3.0955033824114606	neutral	099	sub-14	2.0	6.0	099_neutral	0.0		91.55379216395704	
10.0	68.59869822881683	pulse	1.0	t		24.0	female	black	3.0955033824114606	neutral	099	sub-14	2.0	6.0	099_neutral	0.0		92.25383391022478	
11.0	69.02349502893412	face	0.0		145	31.0	female	west_asian	2.364902506963788	smiling	006	sub-14	2.0	6.0	006_smiling	0.0		92.67863071034208	1.2333136424567783
11.0	69.29861440424338	pulse	0.0	t		31.0	female	west_asian	2.364902506963788	smiling	006	sub-14	2.0	6.0	006_smiling	0.0		92.95375008565134	
11.0	69.99858823358954	pulse	0.0	t		31.0	female	west_asian	2.364902506963788	smiling	006	sub-14	2.0	6.0	006_smiling	0.0		93.6537239149975	
11.0	70.2568086713909	fix	1.0		444	31.0	female	west_asian	2.364902506963788	smiling	006	sub-14	2.0	6.0	006_smiling	0.0		93.91194435279886	3.7582362850835125
11.0	70.6985738352023	pulse	1.0	t		31.0	female	west_asian	2.364902506963788	smiling	006	sub-14	2.0	6.0	006_smiling	0.0		94.35370951661025	
11.0	71.39856517202134	pulse	1.0	t		31.0	female	west_asian	2.364902506963788	smiling	006	sub-14	2.0	6.0	006_smiling	0.0		95.05370085342929	
11.0	72.09854835881015	pulse	1.0	t		31.0	female	west_asian	2.364902506963788	smiling	006	sub-14	2.0	6.0	006_smiling	0.0		95.7536840402181	
11.0	72.79852399927404	pulse	1.0	t		31.0	female	west_asian	2.364902506963788	smiling	006	sub-14	2.0	6.0	006_smiling	0.0		96.453659680682	
11.0	73.49849843232641	pulse	1.0	t		31.0	female	west_asian	2.364902506963788	smiling	006	sub-14	2.0	6.0	006_smiling	0.0		97.15363411373437	
12.0	74.01504495647441	face	0.0		146	31.0	female	west_asian	2.364902506963788	neutral	006	sub-14	2.0	6.0	006_neutral	0.0		97.67018063788237	1.2416315033087812
12.0	74.19849731547038	pulse	0.0	t		31.0	female	west_asian	2.364902506963788	neutral	006	sub-14	2.0	6.0	006_neutral	0.0		97.85363299687833	
12.0	74.89847144666965	pulse	0.0	t		31.0	female	west_asian	2.364902506963788	neutral	006	sub-14	2.0	6.0	006_neutral	0.0		98.5536071280776	
12.0	75.2566764597832	fix	1.0		444	31.0	female	west_asian	2.364902506963788	neutral	006	sub-14	2.0	6.0	006_neutral	0.0		98.91181214119115	3.7665659182021045
12.0	75.59846217978247	pulse	1.0	t		31.0	female	west_asian	2.364902506963788	neutral	006	sub-14	2.0	6.0	006_neutral	0.0		99.25359786119043	
12.0	76.29844415915977	pulse	1.0	t		31.0	female	west_asian	2.364902506963788	neutral	006	sub-14	2.0	6.0	006_neutral	0.0		99.95357984056773	
12.0	76.99843911821517	pulse	1.0	t		31.0	female	west_asian	2.364902506963788	neutral	006	sub-14	2.0	6.0	006_neutral	0.0		100.65357479962313	
12.0	77.6983860826449	pulse	1.0	t		31.0	female	west_asian	2.364902506963788	neutral	006	sub-14	2.0	6.0	006_neutral	0.0		101.35352176405286	
12.0	78.39838285281803	pulse	1.0	t		31.0	female	west_asian	2.364902506963788	neutral	006	sub-14	2.0	6.0	006_neutral	0.0		102.05351853422599	
13.0	79.0232423779853	face	0.0		145	20.0	male	black	3.1070433744528456	neutral	082	sub-14	2.0	6.0	082_neutral	0.0		102.67837805939325	1.2333154535754147
13.0	79.09837207666715	pulse	0.0	t		20.0	male	black	3.1070433744528456	neutral	082	sub-14	2.0	6.0	082_neutral	0.0		102.7535077580751	
13.0	79.79835375419043	pulse	0.0	t		20.0	male	black	3.1070433744528456	neutral	082	sub-14	2.0	6.0	082_neutral	0.0		103.45348943559839	
13.0	80.25655783156071	fix	1.0		444	20.0	male	black	3.1070433744528456	neutral	082	sub-14	2.0	6.0	082_neutral	0.0		103.91169351296867	3.7665399588449873
13.0	80.4983408650678	pulse	1.0	t		20.0	male	black	3.1070433744528456	neutral	082	sub-14	2.0	6.0	082_neutral	0.0		104.15347654647576	
13.0	81.19830533697223	pulse	1.0	t		20.0	male	black	3.1070433744528456	neutral	082	sub-14	2.0	6.0	082_neutral	0.0		104.85344101838018	
13.0	81.8982740348174	pulse	1.0	t		20.0	male	black	3.1070433744528456	neutral	082	sub-14	2.0	6.0	082_neutral	0.0		105.55340971622536	
13.0	82.59829042543424	pulse	1.0	t		20.0	male	black	3.1070433744528456	neutral	082	sub-14	2.0	6.0	082_neutral	0.0		106.2534261068422	
13.0	83.29824342692427	pulse	1.0	t		20.0	male	black	3.1070433744528456	neutral	082	sub-14	2.0	6.0	082_neutral	0.0		106.95337910833223	
13.0	83.99823174521407	pulse	1.0	t		20.0	male	black	3.1070433744528456	neutral	082	sub-14	2.0	6.0	082_neutral	0.0		107.65336742662203	
14.0	84.0230977904057	face	0.0		146	34.0	male	white	2.651014723438122	neutral	121	sub-14	2.0	6.0	121_neutral	1.0	attractiveness	107.67823347181366	1.2333133406036723
14.0	84.69824632471318	pulse	0.0	t		34.0	male	white	2.651014723438122	neutral	121	sub-14	2.0	6.0	121_neutral	1.0	attractiveness	108.35338200612114	
14.0	85.25641113100937	fix	1.0		177	34.0	male	white	2.651014723438122	neutral	121	sub-14	2.0	6.0	121_neutral	1.0	attractiveness	108.91154681241733	1.4999741915698905
14.0	85.39822075776556	pulse	1.0	t		34.0	male	white	2.651014723438122	neutral	121	sub-14	2.0	6.0	121_neutral	1.0	attractiveness	109.05335643917351	
14.0	86.09815927031286	pulse	1.0	t		34.0	male	white	2.651014723438122	neutral	121	sub-14	2.0	6.0	121_neutral	1.0	attractiveness	109.75329495172082	
14.0	86.75638532257926	rating	2.0		294	34.0	male	white	2.651014723438122	neutral	121	sub-14	2.0	6.0	121_neutral	1.0	attractiveness	110.41152100398722	2.4999340451231546
14.0	86.79818109428288	pulse	2.0	t		34.0	male	white	2.651014723438122	neutral	121	sub-14	2.0	6.0	121_neutral	1.0	attractiveness	110.45331677569084	
14.0	87.49813651059776	pulse	2.0	t		34.0	male	white	2.651014723438122	neutral	121	sub-14	2.0	6.0	121_neutral	1.0	attractiveness	111.15327219200572	
14.0	88.19810973623771	pulse	2.0	t		34.0	male	white	2.651014723438122	neutral	121	sub-14	2.0	6.0	121_neutral	1.0	attractiveness	111.85324541764567	
14.0	88.81796302964995	response	2.0	w		34.0	male	white	2.651014723438122	neutral	121	sub-14	2.0	6.0	121_neutral	1.0	attractiveness	112.4730987110579	
14.0	88.89811405273576	pulse	2.0	t		34.0	male	white	2.651014723438122	neutral	121	sub-14	2.0	6.0	121_neutral	1.0	attractiveness	112.55324973414372	
14.0	89.25631936770242	fix	3.0		444	34.0	male	white	2.651014723438122	neutral	121	sub-14	2.0	6.0	121_neutral	1.0	attractiveness	112.91145504911037	3.7665565607594544
14.0	89.59807158202057	pulse	3.0	t		34.0	male	white	2.651014723438122	neutral	121	sub-14	2.0	6.0	121_neutral	1.0	attractiveness	113.25320726342852	
14.0	90.29807137072294	pulse	3.0	t		34.0	male	white	2.651014723438122	neutral	121	sub-14	2.0	6.0	121_neutral	1.0	attractiveness	113.95320705213089	
14.0	90.99805365195334	pulse	3.0	t		34.0	male	white	2.651014723438122	neutral	121	sub-14	2.0	6.0	121_neutral	1.0	attractiveness	114.6531893333613	
14.0	91.69805374250882	pulse	3.0	t		34.0	male	white	2.651014723438122	neutral	121	sub-14	2.0	6.0	121_neutral	1.0	attractiveness	115.35318942391677	
14.0	92.39800402732271	pulse	3.0	t		34.0	male	white	2.651014723438122	neutral	121	sub-14	2.0	6.0	121_neutral	1.0	attractiveness	116.05313970873067	
15.0	93.02287592846187	face	0.0		145	24.0	female	east_asian	2.9076800636689217	neutral	034	sub-14	2.0	6.0	034_neutral	0.0		116.67801160986983	1.2333100202213245
15.0	93.09801196605622	pulse	0.0	t		24.0	female	east_asian	2.9076800636689217	neutral	034	sub-14	2.0	6.0	034_neutral	0.0		116.75314764746417	
15.0	93.79799153060867	pulse	0.0	t		24.0	female	east_asian	2.9076800636689217	neutral	034	sub-14	2.0	6.0	034_neutral	0.0		117.45312721201662	
15.0	94.2561859486832	fix	1.0		444	24.0	female	east_asian	2.9076800636689217	neutral	034	sub-14	2.0	6.0	034_neutral	0.0		117.91132163009115	3.7665420718158202
15.0	94.49797713222142	pulse	1.0	t		24.0	female	east_asian	2.9076800636689217	neutral	034	sub-14	2.0	6.0	034_neutral	0.0		118.15311281362938	
15.0	95.19792922815304	pulse	1.0	t		24.0	female	east_asian	2.9076800636689217	neutral	034	sub-14	2.0	6.0	034_neutral	0.0		118.853064909561	
15.0	95.8979027556461	pulse	1.0	t		24.0	female	east_asian	2.9076800636689217	neutral	034	sub-14	2.0	6.0	034_neutral	0.0		119.55303843705406	
15.0	96.59789590358287	pulse	1.0	t		24.0	female	east_asian	2.9076800636689217	neutral	034	sub-14	2.0	6.0	034_neutral	0.0		120.25303158499082	
15.0	97.29786943107592	pulse	1.0	t		24.0	female	east_asian	2.9076800636689217	neutral	034	sub-14	2.0	6.0	034_neutral	0.0		120.95300511248388	
15.0	97.9978435622752	pulse	1.0	t		24.0	female	east_asian	2.9076800636689217	neutral	034	sub-14	2.0	6.0	034_neutral	0.0		121.65297924368315	
16.0	98.02272802049902	face	0.0		146	24.0	female	east_asian	4.409868682849185	smiling	030	sub-14	2.0	6.0	030_smiling	0.0		121.67786370190697	1.2333021720442048
16.0	98.6978388231837	pulse	0.0	t		24.0	female	east_asian	4.409868682849185	smiling	030	sub-14	2.0	6.0	030_smiling	0.0		122.35297450459166	
16.0	99.25603019254322	fix	1.0		443	24.0	female	east_asian	4.409868682849185	smiling	030	sub-14	2.0	6.0	030_smiling	0.0		122.91116587395118	3.766559881141802
16.0	99.3978268396204	pulse	1.0	t		24.0	female	east_asian	4.409868682849185	smiling	030	sub-14	2.0	6.0	030_smiling	0.0		123.05296252102835	
16.0	100.09780248008428	pulse	1.0	t		24.0	female	east_asian	4.409868682849185	smiling	030	sub-14	2.0	6.0	030_smiling	0.0		123.75293816149224	
16.0	100.7977856668731	pulse	1.0	t		24.0	female	east_asian	4.409868682849185	smiling	030	sub-14	2.0	6.0	030_smiling	0.0		124.45292134828105	
16.0	101.49776794810259	pulse	1.0	t		24.0	female	east_asian	4.409868682849185	smiling	030	sub-14	2.0	6.0	030_smiling	0.0		125.15290362951055	
16.0	102.19774751265595	pulse	1.0	t		24.0	female	east_asian	4.409868682849185	smiling	030	sub-14	2.0	6.0	030_smiling	0.0		125.8528831940639	
16.0	102.89778805151127	pulse	1.0	t		24.0	female	east_asian	4.409868682849185	smiling	030	sub-14	2.0	6.0	030_smiling	0.0		126.55292373291923	
17.0	103.02259007368502	face	0.0		146	40.0	female	west_asian	1.5777954635893354	smiling	038	sub-14	2.0	6.0	038_smiling	0.0		126.67772575509298	1.2333214906348076
17.0	103.59772082885229	pulse	0.0	t		40.0	female	west_asian	1.5777954635893354	smiling	038	sub-14	2.0	6.0	038_smiling	0.0		127.25285651026024	
17.0	104.25591156431983	fix	1.0		443	40.0	female	west_asian	1.5777954635893354	smiling	038	sub-14	2.0	6.0	038_smiling	0.0		127.91104724572779	3.766544184786653
17.0	104.29770039340474	pulse	1.0	t		40.0	female	west_asian	1.5777954635893354	smiling	038	sub-14	2.0	6.0	038_smiling	0.0		127.9528360748127	
17.0	104.99767180792696	pulse	1.0	t		40.0	female	west_asian	1.5777954635893354	smiling	038	sub-14	2.0	6.0	038_smiling	0.0		128.65280748933492	
17.0	105.69764986321479	pulse	1.0	t		40.0	female	west_asian	1.5777954635893354	smiling	038	sub-14	2.0	6.0	038_smiling	0.0		129.35278554462275	
17.0	106.3976324462983	pulse	1.0	t		40.0	female	west_asian	1.5777954635893354	smiling	038	sub-14	2.0	6.0	038_smiling	0.0		130.05276812770626	
17.0	107.09760718120287	pulse	1.0	t		40.0	female	west_asian	1.5777954635893354	smiling	038	sub-14	2.0	6.0	038_smiling	0.0		130.75274286261083	
17.0	107.79759399022805	pulse	1.0	t		40.0	female	west_asian	1.5777954635893354	smiling	038	sub-14	2.0	6.0	038_smiling	0.0		131.452729671636	
18.0	108.02245574910648	face	0.0		145	19.0	male	white	3.2522881018702745	smiling	018	sub-14	2.0	6.0	018_smiling	0.0		131.67759143051444	1.2333302443712455
18.0	108.49757808257527	pulse	0.0	t		19.0	male	white	3.2522881018702745	smiling	018	sub-14	2.0	6.0	018_smiling	0.0		132.15271376398323	
18.0	109.19756308048181	pulse	0.0	t		19.0	male	white	3.2522881018702745	smiling	018	sub-14	2.0	6.0	018_smiling	0.0		132.85269876188977	
18.0	109.25578599347773	fix	1.0		445	19.0	male	white	3.2522881018702745	smiling	018	sub-14	2.0	6.0	018_smiling	0.0		132.91092167488569	3.7665381477272604
18.0	109.89754505985911	pulse	1.0	t		19.0	male	white	3.2522881018702745	smiling	018	sub-14	2.0	6.0	018_smiling	0.0		133.55268074126707	
18.0	110.59752190773452	pulse	1.0	t		19.0	male	white	3.2522881018702745	smiling	018	sub-14	2.0	6.0	018_smiling	0.0		134.25265758914247	
18.0	111.29750237784629	pulse	1.0	t		19.0	male	white	3.2522881018702745	smiling	018	sub-14	2.0	6.0	018_smiling	0.0		134.95263805925424	
18.0	111.99747530163404	pulse	1.0	t		19.0	male	white	3.2522881018702745	smiling	018	sub-14	2.0	6.0	018_smiling	0.0		135.652610983042	
18.0	112.69746633659997	pulse	1.0	t		19.0	male	white	3.2522881018702745	smiling	018	sub-14	2.0	6.0	018_smiling	0.0		136.35260201800793	
19.0	113.02232414120499	face	0.0		145	31.0	male	west_asian	1.9538400318344609	smiling	070	sub-14	2.0	6.0	070_smiling	0.0		136.67745982261295	1.2333266221357917
19.0	113.39745254191894	pulse	0.0	t		31.0	male	west_asian	1.9538400318344609	smiling	070	sub-14	2.0	6.0	070_smiling	0.0		137.0525882233269	
19.0	114.09743210647139	pulse	0.0	t		31.0	male	west_asian	1.9538400318344609	smiling	070	sub-14	2.0	6.0	070_smiling	0.0		137.75256778787934	
19.0	114.25565076334078	fix	1.0		444	31.0	male	west_asian	1.9538400318344609	smiling	070	sub-14	2.0	6.0	070_smiling	0.0		137.91078644474874	3.7665423736689263
19.0	114.79740623767066	pulse	1.0	t		31.0	male	west_asian	1.9538400318344609	smiling	070	sub-14	2.0	6.0	070_smiling	0.0		138.4525419190786	
19.0	115.49739304669583	pulse	1.0	t		31.0	male	west_asian	1.9538400318344609	smiling	070	sub-14	2.0	6.0	070_smiling	0.0		139.1525287281038	
19.0	116.19735419821609	pulse	1.0	t		31.0	male	west_asian	1.9538400318344609	smiling	070	sub-14	2.0	6.0	070_smiling	0.0		139.85248987962404	
19.0	116.89736424992043	pulse	1.0	t		31.0	male	west_asian	1.9538400318344609	smiling	070	sub-14	2.0	6.0	070_smiling	0.0		140.55249993132838	
19.0	117.59734019223833	pulse	1.0	t		31.0	male	west_asian	1.9538400318344609	smiling	070	sub-14	2.0	6.0	070_smiling	0.0		141.2524758736463	
20.0	118.02219313700971	face	0.0		145	32.0	male	white	2.389176283326701	smiling	092	sub-14	2.0	6.0	092_smiling	0.0		141.67732881841766	1.2333121331921575
20.0	118.29732730311571	pulse	0.0	t		32.0	male	white	2.389176283326701	smiling	092	sub-14	2.0	6.0	092_smiling	0.0		141.95246298452366	
20.0	118.9973029435796	pulse	0.0	t		32.0	male	white	2.389176283326701	smiling	092	sub-14	2.0	6.0	092_smiling	0.0		142.65243862498755	
20.0	119.25550527020187	fix	1.0		1185	32.0	male	white	2.389176283326701	smiling	092	sub-14	2.0	6.0	092_smiling	0.0		142.91064095160982	10.016400880082983
20.0	119.69740355117938	pulse	1.0	t		32.0	male	white	2.389176283326701	smiling	092	sub-14	2.0	6.0	092_smiling	0.0		143.35253923258733	
20.0	120.39726086527389	pulse	1.0	t		32.0	male	white	2.389176283326701	smiling	092	sub-14	2.0	6.0	092_smiling	0.0		144.05239654668185	
20.0	121.09724978726899	pulse	1.0	t		32.0	male	white	2.389176283326701	smiling	092	sub-14	2.0	6.0	092_smiling	0.0		144.75238546867695	
20.0	121.79722452217447	pulse	1.0	t		32.0	male	white	2.389176283326701	smiling	092	sub-14	2.0	6.0	092_smiling	0.0		145.45236020358243	
20.0	122.49720680340397	pulse	1.0	t		32.0	male	white	2.389176283326701	smiling	092	sub-14	2.0	6.0	092_smiling	0.0		146.15234248481192	
20.0	123.19718757536884	pulse	1.0	t		32.0	male	white	2.389176283326701	smiling	092	sub-14	2.0	6.0	092_smiling	0.0		146.8523232567768	
20.0	123.89717046030455	pulse	1.0	t		32.0	male	white	2.389176283326701	smiling	092	sub-14	2.0	6.0	092_smiling	0.0		147.5523061417125	
20.0	124.59714610076844	pulse	1.0	t		32.0	male	white	2.389176283326701	smiling	092	sub-14	2.0	6.0	092_smiling	0.0		148.2522817821764	
20.0	125.29712475976248	pulse	1.0	t		32.0	male	white	2.389176283326701	smiling	092	sub-14	2.0	6.0	092_smiling	0.0		148.95226044117044	
20.0	125.99710764469819	pulse	1.0	t		32.0	male	white	2.389176283326701	smiling	092	sub-14	2.0	6.0	092_smiling	0.0		149.65224332610615	
20.0	126.69709203889943	pulse	1.0	t		32.0	male	white	2.389176283326701	smiling	092	sub-14	2.0	6.0	092_smiling	0.0		150.35222772030738	
20.0	127.39706405712695	pulse	1.0	t		32.0	male	white	2.389176283326701	smiling	092	sub-14	2.0	6.0	092_smiling	0.0		151.0521997385349	
20.0	128.0970611291532	pulse	1.0	t		32.0	male	white	2.389176283326701	smiling	092	sub-14	2.0	6.0	092_smiling	0.0		151.75219681056114	
20.0	128.7970437122358	pulse	1.0	t		32.0	male	white	2.389176283326701	smiling	092	sub-14	2.0	6.0	092_smiling	0.0		152.45217939364375	
21.0	129.27190615028485	face	0.0		145	28.0	female	white	5.676880222841227	neutral	124	sub-14	2.0	6.0	124_neutral	0.0		152.9270418316928	1.2333151517213992
21.0	129.49701693787665	pulse	0.0	t		28.0	female	white	5.676880222841227	neutral	124	sub-14	2.0	6.0	124_neutral	0.0		153.1521526192846	
21.0	130.1969968042822	pulse	0.0	t		28.0	female	white	5.676880222841227	neutral	124	sub-14	2.0	6.0	124_neutral	0.0		153.85213248569016	
21.0	130.50522130200625	fix	1.0		444	28.0	female	white	5.676880222841227	neutral	124	sub-14	2.0	6.0	124_neutral	0.0		154.1603569834142	3.76655142925938
21.0	130.89698814110125	pulse	1.0	t		28.0	female	white	5.676880222841227	neutral	124	sub-14	2.0	6.0	124_neutral	0.0		154.5521238225092	
21.0	131.59696257415362	pulse	1.0	t		28.0	female	white	5.676880222841227	neutral	124	sub-14	2.0	6.0	124_neutral	0.0		155.25209825556158	
21.0	132.29692583864562	pulse	1.0	t		28.0	female	white	5.676880222841227	neutral	124	sub-14	2.0	6.0	124_neutral	0.0		155.95206152005358	
21.0	132.9969250236427	pulse	1.0	t		28.0	female	white	5.676880222841227	neutral	124	sub-14	2.0	6.0	124_neutral	0.0		156.65206070505064	
21.0	133.69690549375446	pulse	1.0	t		28.0	female	white	5.676880222841227	neutral	124	sub-14	2.0	6.0	124_neutral	0.0		157.3520411751624	
22.0	134.27177273126563	face	0.0		145	20.0	male	black	3.1070433744528456	smiling	082	sub-14	2.0	6.0	082_smiling	1.0	attractiveness	157.92690841267358	1.2333118313390514
22.0	134.39690015095675	pulse	0.0	t		20.0	male	black	3.1070433744528456	smiling	082	sub-14	2.0	6.0	082_smiling	1.0	attractiveness	158.0520358323647	
22.0	135.09687488586133	pulse	0.0	t		20.0	male	black	3.1070433744528456	smiling	082	sub-14	2.0	6.0	082_smiling	1.0	attractiveness	158.75201056726928	
22.0	135.50508456260468	fix	1.0		177	20.0	male	black	3.1070433744528456	smiling	082	sub-14	2.0	6.0	082_smiling	1.0	attractiveness	159.16022024401263	1.4999660415387552
22.0	135.7968559596793	pulse	1.0	t		20.0	male	black	3.1070433744528456	smiling	082	sub-14	2.0	6.0	082_smiling	1.0	attractiveness	159.45199164108726	
22.0	136.4968370334973	pulse	1.0	t		20.0	male	black	3.1070433744528456	smiling	082	sub-14	2.0	6.0	082_smiling	1.0	attractiveness	160.15197271490524	
22.0	137.00505060414343	rating	2.0		294	20.0	male	black	3.1070433744528456	smiling	082	sub-14	2.0	6.0	082_smiling	1.0	attractiveness	160.6601862855514	2.4999207635919447
22.0	137.19682263511004	pulse	2.0	t		20.0	male	black	3.1070433744528456	smiling	082	sub-14	2.0	6.0	082_smiling	1.0	attractiveness	160.851958316518	
22.0	137.89679404963226	pulse	2.0	t		20.0	male	black	3.1070433744528456	smiling	082	sub-14	2.0	6.0	082_smiling	1.0	attractiveness	161.55192973104022	
22.0	138.596784782746	pulse	2.0	t		20.0	male	black	3.1070433744528456	smiling	082	sub-14	2.0	6.0	082_smiling	1.0	attractiveness	162.25192046415395	
22.0	139.29676374359224	pulse	2.0	t		20.0	male	black	3.1070433744528456	smiling	082	sub-14	2.0	6.0	082_smiling	1.0	attractiveness	162.9518994250002	
22.0	139.42174053864437	response	2.0	e		20.0	male	black	3.1070433744528456	smiling	082	sub-14	2.0	6.0	082_smiling	1.0	attractiveness	163.07687622005233	
22.0	139.50497136773538	fix	3.0		444	20.0	male	black	3.1070433744528456	smiling	082	sub-14	2.0	6.0	082_smiling	1.0	attractiveness	163.16010704914333	3.766564107083468
22.0	139.99671372655303	pulse	3.0	t		20.0	male	black	3.1070433744528456	smiling	082	sub-14	2.0	6.0	082_smiling	1.0	attractiveness	163.65184940796098	
22.0	140.6967141189616	pulse	3.0	t		20.0	male	black	3.1070433744528456	smiling	082	sub-14	2.0	6.0	082_smiling	1.0	attractiveness	164.35184980036956	
22.0	141.39670062613368	pulse	3.0	t		20.0	male	black	3.1070433744528456	smiling	082	sub-14	2.0	6.0	082_smiling	1.0	attractiveness	165.05183630754163	
22.0	142.09667988883302	pulse	3.0	t		20.0	male	black	3.1070433744528456	smiling	082	sub-14	2.0	6.0	082_smiling	1.0	attractiveness	165.75181557024098	
22.0	142.79665220891457	pulse	3.0	t		20.0	male	black	3.1070433744528456	smiling	082	sub-14	2.0	6.0	082_smiling	1.0	attractiveness	166.45178789032252	
23.0	143.27153547481885	face	0.0		145	36.0	female	white	2.7548746518105847	smiling	011	sub-14	2.0	6.0	011_smiling	0.0		166.9266711562268	1.2333100202213245
23.0	143.49665350688247	pulse	0.0	t		36.0	female	white	2.7548746518105847	smiling	011	sub-14	2.0	6.0	011_smiling	0.0		167.15178918829042	
23.0	144.1966306566119	pulse	0.0	t		36.0	female	white	2.7548746518105847	smiling	011	sub-14	2.0	6.0	011_smiling	0.0		167.85176633801984	
23.0	144.50484549504017	fix	1.0		444	36.0	female	white	2.7548746518105847	smiling	011	sub-14	2.0	6.0	011_smiling	0.0		168.15998117644813	3.7665592774364995
23.0	144.89661203228206	pulse	1.0	t		36.0	female	white	2.7548746518105847	smiling	011	sub-14	2.0	6.0	011_smiling	0.0		168.55174771369002	
23.0	145.59658737089376	pulse	1.0	t		36.0	female	white	2.7548746518105847	smiling	011	sub-14	2.0	6.0	011_smiling	0.0		169.2517230523017	
23.0	146.29656301135765	pulse	1.0	t		36.0	female	white	2.7548746518105847	smiling	011	sub-14	2.0	6.0	011_smiling	0.0		169.9516986927656	
23.0	146.99655827226616	pulse	1.0	t		36.0	female	white	2.7548746518105847	smiling	011	sub-14	2.0	6.0	011_smiling	0.0		170.6516939536741	
23.0	147.69653844052482	pulse	1.0	t		36.0	female	white	2.7548746518105847	smiling	011	sub-14	2.0	6.0	011_smiling	0.0		171.35167412193277	
24.0	148.27140477247667	face	0.0		145	19.0	female	white	4.298846000795861	neutral	100	sub-14	2.0	6.0	100_neutral	0.0		171.92654045388463	1.2333076053973855
24.0	148.3965261551084	pulse	0.0	t		19.0	female	white	4.298846000795861	neutral	100	sub-14	2.0	6.0	100_neutral	0.0		172.05166183651636	
24.0	149.09650421039623	pulse	0.0	t		19.0	female	white	4.298846000795861	neutral	100	sub-14	2.0	6.0	100_neutral	0.0		172.7516398918042	
24.0	149.50471237787406	fix	1.0		444	19.0	female	white	4.298846000795861	neutral	100	sub-14	2.0	6.0	100_neutral	0.0		173.159848059282	3.7665414681105176
24.0	149.7964976601861	pulse	1.0	t		19.0	female	white	4.298846000795861	neutral	100	sub-14	2.0	6.0	100_neutral	0.0		173.45163334159406	
24.0	150.49643738014493	pulse	1.0	t		19.0	female	white	4.298846000795861	neutral	100	sub-14	2.0	6.0	100_neutral	0.0		174.15157306155288	
24.0	151.19644712999707	pulse	1.0	t		19.0	female	white	4.298846000795861	neutral	100	sub-14	2.0	6.0	100_neutral	0.0		174.85158281140502	
24.0	151.89642458157869	pulse	1.0	t		19.0	female	white	4.298846000795861	neutral	100	sub-14	2.0	6.0	100_neutral	0.0		175.55156026298664	
24.0	152.59640625910288	pulse	1.0	t		19.0	female	white	4.298846000795861	neutral	100	sub-14	2.0	6.0	100_neutral	0.0		176.25154194051083	
25.0	153.27125384598457	face	0.0		145	22.0	female	west_asian	3.8205332272184642	smiling	066	sub-14	2.0	6.0	066_smiling	0.0		176.92638952739253	1.2333154535745052
25.0	153.29650173520167	pulse	0.0	t		22.0	female	west_asian	3.8205332272184642	smiling	066	sub-14	2.0	6.0	066_smiling	0.0		176.95163741660963	
25.0	153.99636357709005	pulse	0.0	t		22.0	female	west_asian	3.8205332272184642	smiling	066	sub-14	2.0	6.0	066_smiling	0.0		177.651499258498	
25.0	154.50456929955908	fix	1.0		443	22.0	female	west_asian	3.8205332272184642	smiling	066	sub-14	2.0	6.0	066_smiling	0.0		178.15970498096704	3.7665499199938495
25.0	154.69635763058704	pulse	1.0	t		22.0	female	west_asian	3.8205332272184642	smiling	066	sub-14	2.0	6.0	066_smiling	0.0		178.351493311995	
25.0	155.39630670798851	pulse	1.0	t		22.0	female	west_asian	3.8205332272184642	smiling	066	sub-14	2.0	6.0	066_smiling	0.0		179.05144238939647	
25.0	156.09631555228043	pulse	1.0	t		22.0	female	west_asian	3.8205332272184642	smiling	066	sub-14	2.0	6.0	066_smiling	0.0		179.75145123368839	
25.0	156.7962902871859	pulse	1.0	t		22.0	female	west_asian	3.8205332272184642	smiling	066	sub-14	2.0	6.0	066_smiling	0.0		180.45142596859387	
25.0	157.49627588879866	pulse	1.0	t		22.0	female	west_asian	3.8205332272184642	smiling	066	sub-14	2.0	6.0	066_smiling	0.0		181.15141157020662	
25.0	158.19625666076354	pulse	1.0	t		22.0	female	west_asian	3.8205332272184642	smiling	066	sub-14	2.0	6.0	066_smiling	0.0		181.8513923421715	
26.0	158.27111921955293	face	0.0		146	47.0	male	east_asian	2.171110226820533	neutral	024	sub-14	2.0	6.0	024_neutral	0.0		181.92625490096088	1.2333296406650334
26.0	158.8962425642285	pulse	0.0	t		47.0	male	east_asian	2.171110226820533	neutral	024	sub-14	2.0	6.0	024_neutral	0.0		182.55137824563644	
26.0	159.50444886021796	fix	1.0		443	47.0	male	east_asian	2.171110226820533	neutral	024	sub-14	2.0	6.0	024_neutral	0.0		183.15958454162592	3.7665517311115764
26.0	159.5962254491642	pulse	1.0	t		47.0	male	east_asian	2.171110226820533	neutral	024	sub-14	2.0	6.0	024_neutral	0.0		183.25136113057215	
26.0	160.29618690253847	pulse	1.0	t		47.0	male	east_asian	2.171110226820533	neutral	024	sub-14	2.0	6.0	024_neutral	0.0		183.95132258394642	
26.0	160.99618306900538	pulse	1.0	t		47.0	male	east_asian	2.171110226820533	neutral	024	sub-14	2.0	6.0	024_neutral	0.0		184.65131875041334	
26.0	161.69616565208798	pulse	1.0	t		47.0	male	east_asian	2.171110226820533	neutral	024	sub-14	2.0	6.0	024_neutral	0.0		185.35130133349594	
26.0	162.39614008514036	pulse	1.0	t		47.0	male	east_asian	2.171110226820533	neutral	024	sub-14	2.0	6.0	024_neutral	0.0		186.05127576654832	
26.0	163.09612387563539	pulse	1.0	t		47.0	male	east_asian	2.171110226820533	neutral	024	sub-14	2.0	6.0	024_neutral	0.0		186.75125955704334	
27.0	163.27100059132954	face	0.0		146	19.0	male	white	2.243931555909272	smiling	130	sub-14	2.0	6.0	130_smiling	0.0		186.9261362727375	1.2416490107825666
27.0	163.7961004216586	pulse	0.0	t		19.0	male	white	2.243931555909272	smiling	130	sub-14	2.0	6.0	130_smiling	0.0		187.45123610306655	
27.0	164.49608602327044	pulse	0.0	t		19.0	male	white	2.243931555909272	smiling	130	sub-14	2.0	6.0	130_smiling	0.0		188.1512217046784	
27.0	164.5126496021121	fix	1.0		443	19.0	male	white	2.243931555909272	smiling	130	sub-14	2.0	6.0	130_smiling	0.0		188.16778528352006	3.7582242109638173
27.0	165.19607554897266	pulse	1.0	t		19.0	male	white	2.243931555909272	smiling	130	sub-14	2.0	6.0	130_smiling	0.0		188.8512112303806	
27.0	165.89604968017193	pulse	1.0	t		19.0	male	white	2.243931555909272	smiling	130	sub-14	2.0	6.0	130_smiling	0.0		189.55118536157988	
27.0	166.5960244150765	pulse	1.0	t		19.0	male	white	2.243931555909272	smiling	130	sub-14	2.0	6.0	130_smiling	0.0		190.25116009648445	
27.0	167.2959819443613	pulse	1.0	t		19.0	male	white	2.243931555909272	smiling	130	sub-14	2.0	6.0	130_smiling	0.0		190.95111762576926	
27.0	167.9959953164489	pulse	1.0	t		19.0	male	white	2.243931555909272	smiling	130	sub-14	2.0	6.0	130_smiling	0.0		191.65113099785685	
28.0	168.27087381307592	face	0.0		145	37.0	male	white	3.898925586947871	smiling	101	sub-14	2.0	6.0	101_smiling	0.0		191.92600949448388	1.2332934183068573
28.0	168.6959908792096	pulse	0.0	t		37.0	male	white	3.898925586947871	smiling	101	sub-14	2.0	6.0	101_smiling	0.0		192.35112656061756	
28.0	169.39594357884744	pulse	0.0	t		37.0	male	white	3.898925586947871	smiling	101	sub-14	2.0	6.0	101_smiling	0.0		193.0510792602554	
28.0	169.50416723138278	fix	1.0		444	37.0	male	white	3.898925586947871	smiling	101	sub-14	2.0	6.0	101_smiling	0.0		193.15930291279074	3.7665535422302128
28.0	170.09595936575806	pulse	1.0	t		37.0	male	white	3.898925586947871	smiling	101	sub-14	2.0	6.0	101_smiling	0.0		193.75109504716602	
28.0	170.79591629133756	pulse	1.0	t		37.0	male	white	3.898925586947871	smiling	101	sub-14	2.0	6.0	101_smiling	0.0		194.45105197274552	
28.0	171.4959076281566	pulse	1.0	t		37.0	male	white	3.898925586947871	smiling	101	sub-14	2.0	6.0	101_smiling	0.0		195.15104330956456	
28.0	172.19588447603292	pulse	1.0	t		37.0	male	white	3.898925586947871	smiling	101	sub-14	2.0	6.0	101_smiling	0.0		195.85102015744087	
28.0	172.89585528684893	pulse	1.0	t		37.0	male	white	3.898925586947871	smiling	101	sub-14	2.0	6.0	101_smiling	0.0		196.55099096825688	
29.0	173.270720773613	face	0.0		145	25.0	female	west_asian	2.6756864305610826	neutral	064	sub-14	2.0	6.0	064_neutral	0.0		196.92585645502095	1.2333066998380673
29.0	173.5958602070532	pulse	0.0	t		25.0	female	west_asian	2.6756864305610826	neutral	064	sub-14	2.0	6.0	064_neutral	0.0		197.25099588846115	
29.0	174.29582166042655	pulse	0.0	t		25.0	female	west_asian	2.6756864305610826	neutral	064	sub-14	2.0	6.0	064_neutral	0.0		197.9509573418345	
29.0	174.50402747345106	fix	1.0		444	25.0	female	west_asian	2.6756864305610826	neutral	064	sub-14	2.0	6.0	064_neutral	0.0		198.15916315485902	3.7665583718771813
29.0	174.99579156568416	pulse	1.0	t		25.0	female	west_asian	2.6756864305610826	neutral	064	sub-14	2.0	6.0	064_neutral	0.0		198.6509272470921	
29.0	175.69577807285532	pulse	1.0	t		25.0	female	west_asian	2.6756864305610826	neutral	064	sub-14	2.0	6.0	064_neutral	0.0		199.35091375426327	
29.0	176.3957718244992	pulse	1.0	t		25.0	female	west_asian	2.6756864305610826	neutral	064	sub-14	2.0	6.0	064_neutral	0.0		200.05090750590716	
29.0	177.09574323902143	pulse	1.0	t		25.0	female	west_asian	2.6756864305610826	neutral	064	sub-14	2.0	6.0	064_neutral	0.0		200.7508789204294	
29.0	177.79573517954668	pulse	1.0	t		25.0	female	west_asian	2.6756864305610826	neutral	064	sub-14	2.0	6.0	064_neutral	0.0		201.45087086095464	
30.0	178.27058584532824	face	0.0		145	30.0	female	black	2.7345801830481498	smiling	062	sub-14	2.0	6.0	062_smiling	0.0		201.9257215267362	1.2333175665462477
30.0	178.49572259227716	pulse	0.0	t		30.0	female	black	2.7345801830481498	smiling	062	sub-14	2.0	6.0	062_smiling	0.0		202.15085827368512	
30.0	179.19568978085772	pulse	0.0	t		30.0	female	black	2.7345801830481498	smiling	062	sub-14	2.0	6.0	062_smiling	0.0		202.85082546226568	
30.0	179.5039034118745	fix	1.0		444	30.0	female	black	2.7345801830481498	smiling	062	sub-14	2.0	6.0	062_smiling	0.0		203.15903909328244	3.766566823760513
30.0	179.89568021211835	pulse	1.0	t		30.0	female	black	2.7345801830481498	smiling	062	sub-14	2.0	6.0	062_smiling	0.0		203.5508158935263	
30.0	180.59565524887603	pulse	1.0	t		30.0	female	black	2.7345801830481498	smiling	062	sub-14	2.0	6.0	062_smiling	0.0		204.25079093028398	
30.0	181.2956423597534	pulse	1.0	t		30.0	female	black	2.7345801830481498	smiling	062	sub-14	2.0	6.0	062_smiling	0.0		204.95077804116136	
30.0	181.99562282986517	pulse	1.0	t		30.0	female	black	2.7345801830481498	smiling	062	sub-14	2.0	6.0	062_smiling	0.0		205.65075851127312	
30.0	182.69559967774148	pulse	1.0	t		30.0	female	black	2.7345801830481498	smiling	062	sub-14	2.0	6.0	062_smiling	0.0		206.35073535914944	
31.0	183.270470235635	face	0.0		145	31.0	male	west_asian	1.9538400318344609	neutral	070	sub-14	2.0	6.0	070_neutral	0.0		206.92560591704296	1.2332997572202657
31.0	183.3955946367969	pulse	0.0	t		31.0	male	west_asian	1.9538400318344609	neutral	070	sub-14	2.0	6.0	070_neutral	0.0		207.05073031820484	
31.0	184.09558808658676	pulse	0.0	t		31.0	male	west_asian	1.9538400318344609	neutral	070	sub-14	2.0	6.0	070_neutral	0.0		207.7507237679947	
31.0	184.50376999285527	fix	1.0		444	31.0	male	west_asian	1.9538400318344609	neutral	070	sub-14	2.0	6.0	070_neutral	0.0		208.15890567426322	3.7665517311115764
31.0	184.79554591772467	pulse	1.0	t		31.0	male	west_asian	1.9538400318344609	neutral	070	sub-14	2.0	6.0	070_neutral	0.0		208.45068159913262	
31.0	185.49552910451348	pulse	1.0	t		31.0	male	west_asian	1.9538400318344609	neutral	070	sub-14	2.0	6.0	070_neutral	0.0		209.15066478592144	
31.0	186.19550866906684	pulse	1.0	t		31.0	male	west_asian	1.9538400318344609	neutral	070	sub-14	2.0	6.0	070_neutral	0.0		209.8506443504748	
31.0	186.8955006095921	pulse	1.0	t		31.0	male	west_asian	1.9538400318344609	neutral	070	sub-14	2.0	6.0	070_neutral	0.0		210.55063629100005	
31.0	187.59547594820287	pulse	1.0	t		31.0	male	west_asian	1.9538400318344609	neutral	070	sub-14	2.0	6.0	070_neutral	0.0		211.25061162961083	
32.0	188.27032172396684	face	0.0		145	22.0	female	white	4.614007162753682	smiling	009	sub-14	2.0	6.0	009_smiling	0.0		211.9254574053748	1.2333302443712455
32.0	188.2954654739042	pulse	0.0	t		22.0	female	white	4.614007162753682	smiling	009	sub-14	2.0	6.0	009_smiling	0.0		211.95060115531214	
32.0	188.99544020880967	pulse	0.0	t		22.0	female	white	4.614007162753682	smiling	009	sub-14	2.0	6.0	009_smiling	0.0		212.65057589021762	
32.0	189.5036519683381	fix	1.0		443	22.0	female	white	4.614007162753682	smiling	009	sub-14	2.0	6.0	009_smiling	0.0		213.15878764974605	3.7665511274053642
32.0	189.69541494371515	pulse	1.0	t		22.0	female	white	4.614007162753682	smiling	009	sub-14	2.0	6.0	009_smiling	0.0		213.3505506251231	
32.0	190.39539692309154	pulse	1.0	t		22.0	female	white	4.614007162753682	smiling	009	sub-14	2.0	6.0	009_smiling	0.0		214.0505326044995	
32.0	191.09538554323444	pulse	1.0	t		22.0	female	white	4.614007162753682	smiling	009	sub-14	2.0	6.0	009_smiling	0.0		214.7505212246424	
32.0	191.7953648059338	pulse	1.0	t		22.0	female	white	4.614007162753682	smiling	009	sub-14	2.0	6.0	009_smiling	0.0		215.45050048734174	
32.0	192.49534406863404	pulse	1.0	t		22.0	female	white	4.614007162753682	smiling	009	sub-14	2.0	6.0	009_smiling	0.0		216.150479750042	
32.0	193.19531850168642	pulse	1.0	t		22.0	female	white	4.614007162753682	smiling	009	sub-14	2.0	6.0	009_smiling	0.0		216.85045418309437	
33.0	193.27020309574345	face	0.0		146	21.0	male	east_asian/white	3.501790688420215	neutral	036	sub-14	2.0	6.0	036_neutral	1.0	trustworthiness	216.9253387771514	1.2333109257806427
33.0	193.89530108476902	pulse	0.0	t		21.0	male	east_asian/white	3.501790688420215	neutral	036	sub-14	2.0	6.0	036_neutral	1.0	trustworthiness	217.55043676617697	
33.0	194.5035140215241	fix	1.0		177	21.0	male	east_asian/white	3.501790688420215	neutral	036	sub-14	2.0	6.0	036_neutral	1.0	trustworthiness	218.15864970293205	1.5082965802166655
33.0	194.59530509941396	pulse	1.0	t		21.0	male	east_asian/white	3.501790688420215	neutral	036	sub-14	2.0	6.0	036_neutral	1.0	trustworthiness	218.25044078082192	
33.0	195.29525598793316	pulse	1.0	t		21.0	male	east_asian/white	3.501790688420215	neutral	036	sub-14	2.0	6.0	036_neutral	1.0	trustworthiness	218.95039166934112	
33.0	195.99525034328235	pulse	1.0	t		21.0	male	east_asian/white	3.501790688420215	neutral	036	sub-14	2.0	6.0	036_neutral	1.0	trustworthiness	219.6503860246903	
33.0	196.01181060174076	rating	2.0		293	21.0	male	east_asian/white	3.501790688420215	neutral	036	sub-14	2.0	6.0	036_neutral	1.0	trustworthiness	219.66694628314872	2.4915983749442603
33.0	196.69524983013162	pulse	2.0	t		21.0	male	east_asian/white	3.501790688420215	neutral	036	sub-14	2.0	6.0	036_neutral	1.0	trustworthiness	220.35038551153957	
33.0	197.39521430203604	pulse	2.0	t		21.0	male	east_asian/white	3.501790688420215	neutral	036	sub-14	2.0	6.0	036_neutral	1.0	trustworthiness	221.050349983444	
33.0	198.09520835553212	pulse	2.0	t		21.0	male	east_asian/white	3.501790688420215	neutral	036	sub-14	2.0	6.0	036_neutral	1.0	trustworthiness	221.75034403694008	
33.0	198.17019105180952	response	2.0	e		21.0	male	east_asian/white	3.501790688420215	neutral	036	sub-14	2.0	6.0	036_neutral	1.0	trustworthiness	221.82532673321748	
33.0	198.3732336695266	response	2.0	n		21.0	male	east_asian/white	3.501790688420215	neutral	036	sub-14	2.0	6.0	036_neutral	1.0	trustworthiness	222.02836935093455	
33.0	198.50340897668502	fix	3.0		444	21.0	male	east_asian/white	3.501790688420215	neutral	036	sub-14	2.0	6.0	036_neutral	1.0	trustworthiness	222.15854465809298	3.7665622959666507
33.0	198.79517916634813	pulse	3.0	t		21.0	male	east_asian/white	3.501790688420215	neutral	036	sub-14	2.0	6.0	036_neutral	1.0	trustworthiness	222.4503148477561	
33.0	199.49513639378074	pulse	3.0	t		21.0	male	east_asian/white	3.501790688420215	neutral	036	sub-14	2.0	6.0	036_neutral	1.0	trustworthiness	223.1502720751887	
33.0	200.1951355787769	pulse	3.0	t		21.0	male	east_asian/white	3.501790688420215	neutral	036	sub-14	2.0	6.0	036_neutral	1.0	trustworthiness	223.85027126018485	
33.0	200.89511574703647	pulse	3.0	t		21.0	male	east_asian/white	3.501790688420215	neutral	036	sub-14	2.0	6.0	036_neutral	1.0	trustworthiness	224.55025142844443	
33.0	201.59509500973581	pulse	3.0	t		21.0	male	east_asian/white	3.501790688420215	neutral	036	sub-14	2.0	6.0	036_neutral	1.0	trustworthiness	225.25023069114377	
34.0	202.26997127265167	face	0.0		145	20.0	female	white	3.9502586549940313	neutral	091	sub-14	2.0	6.0	091_neutral	0.0		225.92510695405963	1.2332900979236001
34.0	202.29509147805584	pulse	0.0	t		20.0	female	white	3.9502586549940313	neutral	091	sub-14	2.0	6.0	091_neutral	0.0		225.9502271594638	
34.0	202.99506862778526	pulse	0.0	t		20.0	female	white	3.9502586549940313	neutral	091	sub-14	2.0	6.0	091_neutral	0.0		226.6502043091932	
34.0	203.50326137057527	fix	1.0		443	20.0	female	white	3.9502586549940313	neutral	091	sub-14	2.0	6.0	091_neutral	0.0		227.15839705198323	3.7583081260936524
34.0	203.69502977930642	pulse	1.0	t		20.0	female	white	3.9502586549940313	neutral	091	sub-14	2.0	6.0	091_neutral	0.0		227.35016546071438	
34.0	204.39502262539008	pulse	1.0	t		20.0	female	white	3.9502586549940313	neutral	091	sub-14	2.0	6.0	091_neutral	0.0		228.05015830679804	
34.0	205.09500762329662	pulse	1.0	t		20.0	female	white	3.9502586549940313	neutral	091	sub-14	2.0	6.0	091_neutral	0.0		228.75014330470458	
34.0	205.79497752855423	pulse	1.0	t		20.0	female	white	3.9502586549940313	neutral	091	sub-14	2.0	6.0	091_neutral	0.0		229.45011320996218	
34.0	206.49497278946274	pulse	1.0	t		20.0	female	white	3.9502586549940313	neutral	091	sub-14	2.0	6.0	091_neutral	0.0		230.1501084708707	
34.0	207.19494933548594	pulse	1.0	t		20.0	female	white	3.9502586549940313	neutral	091	sub-14	2.0	6.0	091_neutral	0.0		230.8500850168939	
35.0	207.26156949666893	face	0.0		147	27.0	female	white	3.504576203740549	neutral	144	sub-14	2.0	6.0	144_neutral	0.0		230.91670517807688	1.2415759623600024
35.0	207.8949352389509	pulse	0.0	t		27.0	female	white	3.504576203740549	neutral	144	sub-14	2.0	6.0	144_neutral	0.0		231.55007092035885	
35.0	208.50314545902893	fix	1.0		443	27.0	female	white	3.504576203740549	neutral	144	sub-14	2.0	6.0	144_neutral	0.0		232.15828114043688	3.7665526366708946
35.0	208.59494740362607	pulse	1.0	t		27.0	female	white	3.504576203740549	neutral	144	sub-14	2.0	6.0	144_neutral	0.0		232.25008308503402	
35.0	209.29489285879208	pulse	1.0	t		27.0	female	white	3.504576203740549	neutral	144	sub-14	2.0	6.0	144_neutral	0.0		232.95002854020004	
35.0	209.9948630659028	pulse	1.0	t		27.0	female	white	3.504576203740549	neutral	144	sub-14	2.0	6.0	144_neutral	0.0		233.64999874731075	
35.0	210.6948468563969	pulse	1.0	t		27.0	female	white	3.504576203740549	neutral	144	sub-14	2.0	6.0	144_neutral	0.0		234.34998253780486	
35.0	211.39483758951064	pulse	1.0	t		27.0	female	white	3.504576203740549	neutral	144	sub-14	2.0	6.0	144_neutral	0.0		235.0499732709186	
35.0	212.09482168185787	pulse	1.0	t		27.0	female	white	3.504576203740549	neutral	144	sub-14	2.0	6.0	144_neutral	0.0		235.74995736326582	
36.0	212.26969809569982	face	0.0		146	31.0	female	white	2.1822522881018704	smiling	102	sub-14	2.0	6.0	102_smiling	0.0		235.92483377710778	1.2416360311044627
36.0	212.79479702046956	pulse	0.0	t		31.0	female	white	2.1822522881018704	smiling	102	sub-14	2.0	6.0	102_smiling	0.0		236.44993270187751	
36.0	213.49478081096368	pulse	0.0	t		31.0	female	white	2.1822522881018704	smiling	102	sub-14	2.0	6.0	102_smiling	0.0		237.14991649237163	
36.0	213.5113341268043	fix	1.0		444	31.0	female	white	2.1822522881018704	smiling	102	sub-14	2.0	6.0	102_smiling	0.0		237.16646980821224	3.758234473964876
36.0	214.1947712422243	pulse	1.0	t		31.0	female	white	2.1822522881018704	smiling	102	sub-14	2.0	6.0	102_smiling	0.0		237.84990692363226	
36.0	214.8947354122747	pulse	1.0	t		31.0	female	white	2.1822522881018704	smiling	102	sub-14	2.0	6.0	102_smiling	0.0		238.54987109368267	
36.0	215.59472825835928	pulse	1.0	t		31.0	female	white	2.1822522881018704	smiling	102	sub-14	2.0	6.0	102_smiling	0.0		239.24986393976724	
36.0	216.2947123507074	pulse	1.0	t		31.0	female	white	2.1822522881018704	smiling	102	sub-14	2.0	6.0	102_smiling	0.0		239.94984803211537	
36.0	216.99468436893585	pulse	1.0	t		31.0	female	white	2.1822522881018704	smiling	102	sub-14	2.0	6.0	102_smiling	0.0		240.6498200503438	
37.0	217.26956860076916	face	0.0		145	27.0	male	black	3.5523278949462798	smiling	042	sub-14	2.0	6.0	042_smiling	0.0		240.92470428217712	1.2333082091035976
37.0	217.69466876313618	pulse	0.0	t		27.0	male	black	3.5523278949462798	smiling	042	sub-14	2.0	6.0	042_smiling	0.0		241.34980444454413	
37.0	218.39464168692302	pulse	0.0	t		27.0	male	black	3.5523278949462798	smiling	042	sub-14	2.0	6.0	042_smiling	0.0		242.04977736833098	
37.0	218.50287680987276	fix	1.0		444	27.0	male	black	3.5523278949462798	smiling	042	sub-14	2.0	6.0	042_smiling	0.0		242.15801249128072	3.7665538440824093
37.0	219.09466260533554	pulse	1.0	t		27.0	male	black	3.5523278949462798	smiling	042	sub-14	2.0	6.0	042_smiling	0.0		242.7497982867435	
37.0	219.79461500311936	pulse	1.0	t		27.0	male	black	3.5523278949462798	smiling	042	sub-14	2.0	6.0	042_smiling	0.0		243.44975068452732	
37.0	220.49459728434886	pulse	1.0	t		27.0	male	black	3.5523278949462798	smiling	042	sub-14	2.0	6.0	042_smiling	0.0		244.1497329657568	
37.0	221.19457684890222	pulse	1.0	t		27.0	male	black	3.5523278949462798	smiling	042	sub-14	2.0	6.0	042_smiling	0.0		244.84971253031017	
37.0	221.8945642616327	pulse	1.0	t		27.0	male	black	3.5523278949462798	smiling	042	sub-14	2.0	6.0	042_smiling	0.0		245.54969994304065	
38.0	222.26943065395517	face	0.0		145	19.0	male	white	3.2522881018702745	neutral	018	sub-14	2.0	6.0	018_neutral	0.0		245.92456633536312	1.2333184721046564
38.0	222.5945601262465	pulse	0.0	t		19.0	male	white	3.2522881018702745	neutral	018	sub-14	2.0	6.0	018_neutral	0.0		246.24969580765446	
38.0	223.29453063521032	pulse	0.0	t		19.0	male	white	3.2522881018702745	neutral	018	sub-14	2.0	6.0	018_neutral	0.0		246.94966631661828	
38.0	223.50274912605983	fix	1.0		444	19.0	male	white	3.2522881018702745	neutral	018	sub-14	2.0	6.0	018_neutral	0.0		247.15788480746778	3.7665333180793823
38.0	223.99450718123353	pulse	1.0	t		19.0	male	white	3.2522881018702745	neutral	018	sub-14	2.0	6.0	018_neutral	0.0		247.64964286264149	
38.0	224.69447255869545	pulse	1.0	t		19.0	male	white	3.2522881018702745	neutral	018	sub-14	2.0	6.0	018_neutral	0.0		248.3496082401034	
38.0	225.39446178254457	pulse	1.0	t		19.0	male	white	3.2522881018702745	neutral	018	sub-14	2.0	6.0	018_neutral	0.0		249.04959746395252	
38.0	226.09444979898126	pulse	1.0	t		19.0	male	white	3.2522881018702745	neutral	018	sub-14	2.0	6.0	018_neutral	0.0		249.74958548038921	
38.0	226.79441879867954	pulse	1.0	t		19.0	male	white	3.2522881018702745	neutral	018	sub-14	2.0	6.0	018_neutral	0.0		250.4495544800875	
39.0	227.2692824441392	face	0.0		145	23.0	male	white	2.6275368085953046	neutral	141	sub-14	2.0	6.0	141_neutral	0.0		250.92441812554716	1.2333302443712455
39.0	227.49440892808707	pulse	0.0	t		23.0	male	white	2.6275368085953046	neutral	141	sub-14	2.0	6.0	141_neutral	0.0		251.14954460949502	
39.0	228.19439060561035	pulse	0.0	t		23.0	male	white	2.6275368085953046	neutral	141	sub-14	2.0	6.0	141_neutral	0.0		251.8495262870183	
39.0	228.50261268851045	fix	1.0		444	23.0	male	white	2.6275368085953046	neutral	141	sub-14	2.0	6.0	141_neutral	0.0		252.1577483699184	3.7498972945222704
39.0	228.89435568122008	pulse	1.0	t		23.0	male	white	2.6275368085953046	neutral	141	sub-14	2.0	6.0	141_neutral	0.0		252.54949136262803	
39.0	229.59435003656927	pulse	1.0	t		23.0	male	white	2.6275368085953046	neutral	141	sub-14	2.0	6.0	141_neutral	0.0		253.24948571797722	
39.0	230.29433292150497	pulse	1.0	t		23.0	male	white	2.6275368085953046	neutral	141	sub-14	2.0	6.0	141_neutral	0.0		253.94946860291293	
39.0	230.994316712	pulse	1.0	t		23.0	male	white	2.6275368085953046	neutral	141	sub-14	2.0	6.0	141_neutral	0.0		254.64945239340796	
39.0	231.69428782466912	pulse	1.0	t		23.0	male	white	2.6275368085953046	neutral	141	sub-14	2.0	6.0	141_neutral	0.0		255.34942350607707	
40.0	232.25250998303272	fix	0.0		720													255.90764566444068	5.999840017918359
40.0	232.39428550040157	pulse	0.0	t														256.0494211818095	
40.0	233.09426204642386	pulse	0.0	t														256.7493977278318	
40.0	233.79424523321268	pulse	0.0	t														257.44938091462063	
40.0	234.4942229866483	pulse	0.0	t														258.14935866805627	
40.0	235.19420194749455	pulse	0.0	t														258.8493376289025	
40.0	235.8941694379282	pulse	0.0	t														259.54930511933617	
40.0	236.59418039519187	pulse	0.0	t														260.2493160765998	
40.0	237.29414426338917	pulse	0.0	t														260.9492799447971	
40.0	237.99415099471116	pulse	0.0	t														261.6492866761191	
