trial_nr	onset	event_type	phase	response	nr_frames	face_age	face_sex	face_eth	attractiveness	expression	face_id	sub_id	ses	run	trial_type	catch	onset_abs	duration
-1.0	0.05680722249780956	fix	0.0		714												21.962838879027913	5.966251930725775
-1.0	0.706644478459566	pulse	0.0	t													22.61267613498967	
-1.0	1.4066225337483047	pulse	0.0	t													23.31265419027841	
-1.0	2.1066066260955267	pulse	0.0	t													24.01263828262563	
-1.0	2.806597661063279	pulse	0.0	t													24.712629317593382	
-1.0	3.506560623700352	pulse	0.0	t													25.412592280230456	
-1.0	4.206538377136894	pulse	0.0	t													26.112570033666998	
-1.0	4.906558389988277	pulse	0.0	t													26.81259004651838	
-1.0	5.606508071095959	pulse	0.0	t													27.512539727626063	
0.0	6.023059153223585	face	0.0		144	23.0	male	white	2.6275368085953046	smiling	141	sub-05	1.0	2.0	141_smiling	0.0	27.92909080975369	1.2332907016316312
0.0	6.306491559738788	pulse	0.0	t		23.0	male	white	2.6275368085953046	smiling	141	sub-05	1.0	2.0	141_smiling	0.0	28.21252321626889	
0.0	7.0064810854401	pulse	0.0	t		23.0	male	white	2.6275368085953046	smiling	141	sub-05	1.0	2.0	141_smiling	0.0	28.912512741970204	
0.0	7.256349854855216	fix	1.0		445	23.0	male	white	2.6275368085953046	smiling	141	sub-05	1.0	2.0	141_smiling	0.0	29.16238151138532	3.7582193813159392
0.0	7.7064524999623245	pulse	1.0	t		23.0	male	white	2.6275368085953046	smiling	141	sub-05	1.0	2.0	141_smiling	0.0	29.612484156492428	
0.0	8.406429951544851	pulse	1.0	t		23.0	male	white	2.6275368085953046	smiling	141	sub-05	1.0	2.0	141_smiling	0.0	30.312461608074955	
0.0	9.10642370318783	pulse	1.0	t		23.0	male	white	2.6275368085953046	smiling	141	sub-05	1.0	2.0	141_smiling	0.0	31.012455359717933	
0.0	9.806407493681036	pulse	1.0	t		23.0	male	white	2.6275368085953046	smiling	141	sub-05	1.0	2.0	141_smiling	0.0	31.71243915021114	
0.0	10.506375587821822	pulse	1.0	t		23.0	male	white	2.6275368085953046	smiling	141	sub-05	1.0	2.0	141_smiling	0.0	32.412407244351925	
1.0	11.014569236171155	face	0.0		146	31.0	female	white	2.1822522881018704	smiling	102	sub-05	1.0	2.0	102_smiling	0.0	32.92060089270126	1.2416583682243072
1.0	11.206373565406466	pulse	0.0	t		31.0	female	white	2.1822522881018704	smiling	102	sub-05	1.0	2.0	102_smiling	0.0	33.11240522193657	
1.0	11.906335018780737	pulse	0.0	t		31.0	female	white	2.1822522881018704	smiling	102	sub-05	1.0	2.0	102_smiling	0.0	33.81236667531084	
1.0	12.256227604395463	fix	1.0		444	31.0	female	white	2.1822522881018704	smiling	102	sub-05	1.0	2.0	102_smiling	0.0	34.162259260925566	3.7582172683451063
1.0	12.606322129657201	pulse	1.0	t		31.0	female	white	2.1822522881018704	smiling	102	sub-05	1.0	2.0	102_smiling	0.0	34.512353786187305	
1.0	13.306297166416698	pulse	1.0	t		31.0	female	white	2.1822522881018704	smiling	102	sub-05	1.0	2.0	102_smiling	0.0	35.2123288229468	
1.0	14.006284880999374	pulse	1.0	t		31.0	female	white	2.1822522881018704	smiling	102	sub-05	1.0	2.0	102_smiling	0.0	35.91231653752948	
1.0	14.706259012198643	pulse	1.0	t		31.0	female	white	2.1822522881018704	smiling	102	sub-05	1.0	2.0	102_smiling	0.0	36.61229066872875	
1.0	15.406234048956321	pulse	1.0	t		31.0	female	white	2.1822522881018704	smiling	102	sub-05	1.0	2.0	102_smiling	0.0	37.312265705486425	
2.0	16.01444487274057	face	0.0		146	26.0	female	white	4.854755272582572	neutral	027	sub-05	1.0	2.0	027_neutral	1.0	37.92047652927067	1.2416517274596117
2.0	16.10624108213051	pulse	0.0	t		26.0	female	white	4.854755272582572	neutral	027	sub-05	1.0	2.0	027_neutral	1.0	38.01227273866061	
2.0	16.806219137419248	pulse	0.0	t		26.0	female	white	4.854755272582572	neutral	027	sub-05	1.0	2.0	027_neutral	1.0	38.71225079394935	
2.0	17.25609660020018	fix	1.0		236	26.0	female	white	4.854755272582572	neutral	027	sub-05	1.0	2.0	027_neutral	1.0	39.162128256730284	2.0082997496738244
2.0	17.506204437178894	pulse	1.0	t		26.0	female	white	4.854755272582572	neutral	027	sub-05	1.0	2.0	027_neutral	1.0	39.412236093709	
2.0	18.206179172084376	pulse	1.0	t		26.0	female	white	4.854755272582572	neutral	027	sub-05	1.0	2.0	027_neutral	1.0	40.11221082861448	
2.0	18.906178960787656	pulse	1.0	t		26.0	female	white	4.854755272582572	neutral	027	sub-05	1.0	2.0	027_neutral	1.0	40.81221061731776	
2.0	19.264396349874005	rating	2.0		234	26.0	female	white	4.854755272582572	neutral	027	sub-05	1.0	2.0	027_neutral	1.0	41.17042800640411	1.9915767924558168
2.0	19.60085828877709	pulse	2.0	t		26.0	female	white	4.854755272582572	neutral	027	sub-05	1.0	2.0	027_neutral	1.0	41.506889945307194	
2.0	20.300853549686508	pulse	2.0	t		26.0	female	white	4.854755272582572	neutral	027	sub-05	1.0	2.0	027_neutral	1.0	42.20688520621661	
2.0	21.000824058648504	pulse	2.0	t		26.0	female	white	4.854755272582572	neutral	027	sub-05	1.0	2.0	027_neutral	1.0	42.90685571517861	
2.0	21.01649173783153	response	2.0	b		26.0	female	white	4.854755272582572	neutral	027	sub-05	1.0	2.0	027_neutral	1.0	42.92252339436163	
2.0	21.25597314232982	fix	3.0		444	26.0	female	white	4.854755272582572	neutral	027	sub-05	1.0	2.0	027_neutral	1.0	43.162004798859925	3.758213344255637
2.0	21.706089672674352	pulse	3.0	t		26.0	female	white	4.854755272582572	neutral	027	sub-05	1.0	2.0	027_neutral	1.0	43.612121329204456	
2.0	22.406067727961272	pulse	3.0	t		26.0	female	white	4.854755272582572	neutral	027	sub-05	1.0	2.0	027_neutral	1.0	44.312099384491376	
2.0	23.1060451795438	pulse	3.0	t		26.0	female	white	4.854755272582572	neutral	027	sub-05	1.0	2.0	027_neutral	1.0	45.0120768360739	
2.0	23.806028668186627	pulse	3.0	t		26.0	female	white	4.854755272582572	neutral	027	sub-05	1.0	2.0	027_neutral	1.0	45.71206032471673	
2.0	24.505994951206958	pulse	3.0	t		26.0	female	white	4.854755272582572	neutral	027	sub-05	1.0	2.0	027_neutral	1.0	46.41202660773706	
3.0	25.01418648658546	face	0.0		146	30.0	female	black	2.7345801830481498	neutral	062	sub-05	1.0	2.0	062_neutral	0.0	46.92021814311556	1.241666820109458
3.0	25.20598357134986	pulse	0.0	t		30.0	female	black	2.7345801830481498	neutral	062	sub-05	1.0	2.0	062_neutral	0.0	47.112015227879965	
3.0	25.905973097051174	pulse	0.0	t		30.0	female	black	2.7345801830481498	neutral	062	sub-05	1.0	2.0	062_neutral	0.0	47.81200475358128	
3.0	26.255853306694917	fix	1.0		445	30.0	female	black	2.7345801830481498	neutral	062	sub-05	1.0	2.0	062_neutral	0.0	48.16188496322502	3.758200666430639
3.0	26.605955680133775	pulse	1.0	t		30.0	female	black	2.7345801830481498	neutral	062	sub-05	1.0	2.0	062_neutral	0.0	48.51198733666388	
3.0	27.305927396510015	pulse	1.0	t		30.0	female	black	2.7345801830481498	neutral	062	sub-05	1.0	2.0	062_neutral	0.0	49.21195905304012	
3.0	28.005916318505115	pulse	1.0	t		30.0	female	black	2.7345801830481498	neutral	062	sub-05	1.0	2.0	062_neutral	0.0	49.91194797503522	
3.0	28.70588924229196	pulse	1.0	t		30.0	female	black	2.7345801830481498	neutral	062	sub-05	1.0	2.0	062_neutral	0.0	50.61192089882206	
3.0	29.405884805053574	pulse	1.0	t		30.0	female	black	2.7345801830481498	neutral	062	sub-05	1.0	2.0	062_neutral	0.0	51.31191646158368	
4.0	30.014053973125556	face	0.0		146	26.0	male	white	2.7966573816155993	neutral	117	sub-05	1.0	2.0	117_neutral	0.0	51.92008562965566	1.2416653108430182
4.0	30.10585078622171	pulse	0.0	t		26.0	male	white	2.7966573816155993	neutral	117	sub-05	1.0	2.0	117_neutral	0.0	52.01188244275181	
4.0	30.805840613777036	pulse	0.0	t		26.0	male	white	2.7966573816155993	neutral	117	sub-05	1.0	2.0	117_neutral	0.0	52.71187227030714	
4.0	31.255719283968574	fix	1.0		444	26.0	male	white	2.7966573816155993	neutral	117	sub-05	1.0	2.0	117_neutral	0.0	53.16175094049868	3.7665366384626395
4.0	31.505815650534714	pulse	1.0	t		26.0	male	white	2.7966573816155993	neutral	117	sub-05	1.0	2.0	117_neutral	0.0	53.41184730706482	
4.0	32.20578857432156	pulse	1.0	t		26.0	male	white	2.7966573816155993	neutral	117	sub-05	1.0	2.0	117_neutral	0.0	54.11182023085166	
4.0	32.90578353337696	pulse	1.0	t		26.0	male	white	2.7966573816155993	neutral	117	sub-05	1.0	2.0	117_neutral	0.0	54.811815189907065	
4.0	33.60575313678055	pulse	1.0	t		26.0	male	white	2.7966573816155993	neutral	117	sub-05	1.0	2.0	117_neutral	0.0	55.51178479331065	
4.0	34.30573330504012	pulse	1.0	t		26.0	male	white	2.7966573816155993	neutral	117	sub-05	1.0	2.0	117_neutral	0.0	56.211764961570225	
5.0	35.02225592243121	face	0.0		146	28.0	male	white	3.9076800636689217	smiling	033	sub-05	1.0	2.0	033_smiling	0.0	56.92828757896132	1.233328433252609
5.0	35.00833144423632	pulse	0.0	t		28.0	male	white	3.9076800636689217	smiling	033	sub-05	1.0	2.0	033_smiling	0.0	56.91436310076642	
5.0	35.705710847178125	pulse	0.0	t		28.0	male	white	3.9076800636689217	smiling	033	sub-05	1.0	2.0	033_smiling	0.0	57.61174250370823	
5.0	36.25558435568382	fix	1.0		443	28.0	male	white	3.9076800636689217	smiling	033	sub-05	1.0	2.0	033_smiling	0.0	58.161616012213926	3.7665333180812013
5.0	36.40570218399807	pulse	1.0	t		28.0	male	white	3.9076800636689217	smiling	033	sub-05	1.0	2.0	033_smiling	0.0	58.31173384052818	
5.0	37.105665146636966	pulse	1.0	t		28.0	male	white	3.9076800636689217	smiling	033	sub-05	1.0	2.0	033_smiling	0.0	59.01169680316707	
5.0	37.8056561816029	pulse	1.0	t		28.0	male	white	3.9076800636689217	smiling	033	sub-05	1.0	2.0	033_smiling	0.0	59.711687838133	
5.0	38.50562759612512	pulse	1.0	t		28.0	male	white	3.9076800636689217	smiling	033	sub-05	1.0	2.0	033_smiling	0.0	60.41165925265523	
5.0	39.205617121826435	pulse	1.0	t		28.0	male	white	3.9076800636689217	smiling	033	sub-05	1.0	2.0	033_smiling	0.0	61.11164877835654	
5.0	39.90558159372995	pulse	1.0	t		28.0	male	white	3.9076800636689217	smiling	033	sub-05	1.0	2.0	033_smiling	0.0	61.81161325026005	
6.0	40.022117673765024	face	0.0		146	24.0	female	east_asian	4.409868682849185	smiling	030	sub-05	1.0	2.0	030_smiling	0.0	61.92814933029513	1.2333329610464716
6.0	40.6055490841627	pulse	0.0	t		24.0	female	east_asian	4.409868682849185	smiling	030	sub-05	1.0	2.0	030_smiling	0.0	62.51158074069281	
6.0	41.255450634811496	fix	1.0		443	24.0	female	east_asian	4.409868682849185	smiling	030	sub-05	1.0	2.0	030_smiling	0.0	63.1614822913416	3.766549618141653
6.0	41.305563663661815	pulse	1.0	t		24.0	female	east_asian	4.409868682849185	smiling	030	sub-05	1.0	2.0	030_smiling	0.0	63.21159532019192	
6.0	42.00554202080275	pulse	1.0	t		24.0	female	east_asian	4.409868682849185	smiling	030	sub-05	1.0	2.0	030_smiling	0.0	63.91157367733285	
6.0	42.70552007609149	pulse	1.0	t		24.0	female	east_asian	4.409868682849185	smiling	030	sub-05	1.0	2.0	030_smiling	0.0	64.61155173262159	
6.0	43.40554039079689	pulse	1.0	t		24.0	female	east_asian	4.409868682849185	smiling	030	sub-05	1.0	2.0	030_smiling	0.0	65.31157204732699	
6.0	44.10547588481495	pulse	1.0	t		24.0	female	east_asian	4.409868682849185	smiling	030	sub-05	1.0	2.0	030_smiling	0.0	66.01150754134505	
6.0	44.80546027901437	pulse	1.0	t		24.0	female	east_asian	4.409868682849185	smiling	030	sub-05	1.0	2.0	030_smiling	0.0	66.71149193554447	
7.0	45.02200025295315	face	0.0		145	22.0	female	white	4.614007162753682	neutral	009	sub-05	1.0	2.0	009_neutral	0.0	66.92803190948325	1.233301266483977
7.0	45.50544195653856	pulse	0.0	t		22.0	female	white	4.614007162753682	neutral	009	sub-05	1.0	2.0	009_neutral	0.0	67.41147361306867	
7.0	46.20542786000442	pulse	0.0	t		22.0	female	white	4.614007162753682	neutral	009	sub-05	1.0	2.0	009_neutral	0.0	68.11145951653452	
7.0	46.255301519437126	fix	1.0		445	22.0	female	white	4.614007162753682	neutral	009	sub-05	1.0	2.0	009_neutral	0.0	68.16133317596723	3.766543882935366
7.0	46.90539746340983	pulse	1.0	t		22.0	female	white	4.614007162753682	neutral	009	sub-05	1.0	2.0	009_neutral	0.0	68.81142911993993	
7.0	47.605378839080004	pulse	1.0	t		22.0	female	white	4.614007162753682	neutral	009	sub-05	1.0	2.0	009_neutral	0.0	69.51141049561011	
7.0	48.305357498073136	pulse	1.0	t		22.0	female	white	4.614007162753682	neutral	009	sub-05	1.0	2.0	009_neutral	0.0	70.21138915460324	
7.0	49.005349438599296	pulse	1.0	t		22.0	female	white	4.614007162753682	neutral	009	sub-05	1.0	2.0	009_neutral	0.0	70.9113810951294	
7.0	49.705332323534094	pulse	1.0	t		22.0	female	white	4.614007162753682	neutral	009	sub-05	1.0	2.0	009_neutral	0.0	71.6113639800642	
8.0	50.02184540237249	face	0.0		145	47.0	male	east_asian	2.171110226820533	smiling	024	sub-05	1.0	2.0	024_smiling	0.0	71.9278770589026	1.2333371869899565
8.0	50.405304643616546	pulse	0.0	t		47.0	male	east_asian	2.171110226820533	smiling	024	sub-05	1.0	2.0	024_smiling	0.0	72.31133630014665	
8.0	51.105293565611646	pulse	0.0	t		47.0	male	east_asian	2.171110226820533	smiling	024	sub-05	1.0	2.0	024_smiling	0.0	73.01132522214175	
8.0	51.25518258936245	fix	1.0		445	47.0	male	east_asian	2.171110226820533	smiling	024	sub-05	1.0	2.0	024_smiling	0.0	73.16121424589255	3.766531506960746
8.0	51.805300598785834	pulse	1.0	t		47.0	male	east_asian	2.171110226820533	smiling	024	sub-05	1.0	2.0	024_smiling	0.0	73.71133225531594	
8.0	52.505248166922684	pulse	1.0	t		47.0	male	east_asian	2.171110226820533	smiling	024	sub-05	1.0	2.0	024_smiling	0.0	74.41127982345279	
8.0	53.20523920188862	pulse	1.0	t		47.0	male	east_asian	2.171110226820533	smiling	024	sub-05	1.0	2.0	024_smiling	0.0	75.11127085841872	
8.0	53.905203975646145	pulse	1.0	t		47.0	male	east_asian	2.171110226820533	smiling	024	sub-05	1.0	2.0	024_smiling	0.0	75.81123563217625	
8.0	54.60518957725799	pulse	1.0	t		47.0	male	east_asian	2.171110226820533	smiling	024	sub-05	1.0	2.0	024_smiling	0.0	76.51122123378809	
9.0	55.021714096323194	face	0.0		145	28.0	male	east_asian	1.5563072025467568	neutral	005	sub-05	1.0	2.0	005_neutral	0.0	76.9277457528533	1.2333181702524598
9.0	55.30517366960521	pulse	0.0	t		28.0	male	east_asian	1.5563072025467568	neutral	005	sub-05	1.0	2.0	005_neutral	0.0	77.21120532613531	
9.0	56.005167723102204	pulse	0.0	t		28.0	male	east_asian	1.5563072025467568	neutral	005	sub-05	1.0	2.0	005_neutral	0.0	77.91119937963231	
9.0	56.255032266575654	fix	1.0		444	28.0	male	east_asian	1.5563072025467568	neutral	005	sub-05	1.0	2.0	005_neutral	0.0	78.16106392310576	3.7665644089374837
9.0	56.705134609830566	pulse	1.0	t		28.0	male	east_asian	1.5563072025467568	neutral	005	sub-05	1.0	2.0	005_neutral	0.0	78.61116626636067	
9.0	57.40511689105915	pulse	1.0	t		28.0	male	east_asian	1.5563072025467568	neutral	005	sub-05	1.0	2.0	005_neutral	0.0	79.31114854758926	
9.0	58.105093135229254	pulse	1.0	t		28.0	male	east_asian	1.5563072025467568	neutral	005	sub-05	1.0	2.0	005_neutral	0.0	80.01112479175936	
9.0	58.805077227576476	pulse	1.0	t		28.0	male	east_asian	1.5563072025467568	neutral	005	sub-05	1.0	2.0	005_neutral	0.0	80.71110888410658	
9.0	59.50505769769006	pulse	1.0	t		28.0	male	east_asian	1.5563072025467568	neutral	005	sub-05	1.0	2.0	005_neutral	0.0	81.41108935422017	
10.0	60.02159667551314	face	0.0		145	40.0	female	west_asian	1.5777954635893354	smiling	038	sub-05	1.0	2.0	038_smiling	0.0	81.92762833204324	1.2333003609255684
10.0	60.205041790037285	pulse	0.0	t		40.0	female	west_asian	1.5777954635893354	smiling	038	sub-05	1.0	2.0	038_smiling	0.0	82.11107344656739	
10.0	60.90502014717822	pulse	0.0	t		40.0	female	west_asian	1.5777954635893354	smiling	038	sub-05	1.0	2.0	038_smiling	0.0	82.81105180370832	
10.0	61.254897036438706	fix	1.0		444	40.0	female	west_asian	1.5777954635893354	smiling	038	sub-05	1.0	2.0	038_smiling	0.0	83.16092869296881	3.766549014433622
10.0	61.60500212655461	pulse	1.0	t		40.0	female	west_asian	1.5777954635893354	smiling	038	sub-05	1.0	2.0	038_smiling	0.0	83.51103378308471	
10.0	62.30498712446206	pulse	1.0	t		40.0	female	west_asian	1.5777954635893354	smiling	038	sub-05	1.0	2.0	038_smiling	0.0	84.21101878099216	
10.0	63.004963066778146	pulse	1.0	t		40.0	female	west_asian	1.5777954635893354	smiling	038	sub-05	1.0	2.0	038_smiling	0.0	84.91099472330825	
10.0	63.7049429331837	pulse	1.0	t		40.0	female	west_asian	1.5777954635893354	smiling	038	sub-05	1.0	2.0	038_smiling	0.0	85.6109745897138	
10.0	64.40493547741607	pulse	1.0	t		40.0	female	west_asian	1.5777954635893354	smiling	038	sub-05	1.0	2.0	038_smiling	0.0	86.31096713394618	
11.0	65.02144605087233	face	0.0		145	54.0	female	white	2.286908077994429	neutral	136	sub-05	1.0	2.0	136_neutral	0.0	86.92747770740243	1.2333073035442794
11.0	65.10491443826322	pulse	0.0	t		54.0	female	white	2.286908077994429	neutral	136	sub-05	1.0	2.0	136_neutral	0.0	87.01094609479333	
11.0	65.80488011757734	pulse	0.0	t		54.0	female	white	2.286908077994429	neutral	136	sub-05	1.0	2.0	136_neutral	0.0	87.71091177410744	
11.0	66.25475335441661	fix	1.0		444	54.0	female	white	2.286908077994429	neutral	136	sub-05	1.0	2.0	136_neutral	0.0	88.16078501094671	3.7665574663187726
11.0	66.50487326551593	pulse	1.0	t		54.0	female	white	2.286908077994429	neutral	136	sub-05	1.0	2.0	136_neutral	0.0	88.41090492204603	
11.0	67.20485403747989	pulse	1.0	t		54.0	female	white	2.286908077994429	neutral	136	sub-05	1.0	2.0	136_neutral	0.0	89.11088569401	
11.0	67.9048426576228	pulse	1.0	t		54.0	female	white	2.286908077994429	neutral	136	sub-05	1.0	2.0	136_neutral	0.0	89.8108743141529	
11.0	68.60481135546797	pulse	1.0	t		54.0	female	white	2.286908077994429	neutral	136	sub-05	1.0	2.0	136_neutral	0.0	90.51084301199808	
11.0	69.30481959605459	pulse	1.0	t		54.0	female	white	2.286908077994429	neutral	136	sub-05	1.0	2.0	136_neutral	0.0	91.21085125258469	
12.0	70.02131082073538	face	0.0		146	32.0	male	white	2.389176283326701	neutral	092	sub-05	1.0	2.0	092_neutral	0.0	91.92734247726548	1.2333181702524598
12.0	70.00766042505165	pulse	0.0	t		32.0	male	white	2.389176283326701	neutral	092	sub-05	1.0	2.0	092_neutral	0.0	91.91369208158176	
12.0	70.70476906586555	pulse	0.0	t		32.0	male	white	2.389176283326701	neutral	092	sub-05	1.0	2.0	092_neutral	0.0	92.61080072239565	
12.0	71.25462899098784	fix	1.0		443	32.0	male	white	2.389176283326701	neutral	092	sub-05	1.0	2.0	092_neutral	0.0	93.16066064751794	3.766549014433622
12.0	71.40474108409398	pulse	1.0	t		32.0	male	white	2.389176283326701	neutral	092	sub-05	1.0	2.0	092_neutral	0.0	93.31077274062409	
12.0	72.10471732826409	pulse	1.0	t		32.0	male	white	2.389176283326701	neutral	092	sub-05	1.0	2.0	092_neutral	0.0	94.01074898479419	
12.0	72.80470594840517	pulse	1.0	t		32.0	male	white	2.389176283326701	neutral	092	sub-05	1.0	2.0	092_neutral	0.0	94.71073760493528	
12.0	73.5046773629274	pulse	1.0	t		32.0	male	white	2.389176283326701	neutral	092	sub-05	1.0	2.0	092_neutral	0.0	95.4107090194575	
12.0	74.20466205898265	pulse	1.0	t		32.0	male	white	2.389176283326701	neutral	092	sub-05	1.0	2.0	092_neutral	0.0	96.11069371551275	
12.0	74.90464101982798	pulse	1.0	t		32.0	male	white	2.389176283326701	neutral	092	sub-05	1.0	2.0	092_neutral	0.0	96.81067267635808	
13.0	75.02117800542146	face	0.0		146	19.0	female	white	4.298846000795861	neutral	100	sub-05	1.0	2.0	100_neutral	1.0	96.92720966195157	1.2333169628400356
13.0	75.60464201594368	pulse	0.0	t		19.0	female	white	4.298846000795861	neutral	100	sub-05	1.0	2.0	100_neutral	1.0	97.51067367247379	
13.0	76.2544949682615	fix	1.0		236	19.0	female	white	4.298846000795861	neutral	100	sub-05	1.0	2.0	100_neutral	1.0	98.1605266247916	1.9999631739356118
13.0	76.30460407302417	pulse	1.0	t		19.0	female	white	4.298846000795861	neutral	100	sub-05	1.0	2.0	100_neutral	1.0	98.21063572955427	
13.0	77.00466543973562	pulse	1.0	t		19.0	female	white	4.298846000795861	neutral	100	sub-05	1.0	2.0	100_neutral	1.0	98.91069709626572	
13.0	77.70458010589573	pulse	1.0	t		19.0	female	white	4.298846000795861	neutral	100	sub-05	1.0	2.0	100_neutral	1.0	99.61061176242583	
13.0	78.25445814219711	rating	2.0		235	19.0	female	white	4.298846000795861	neutral	100	sub-05	1.0	2.0	100_neutral	1.0	100.16048979872721	1.9999299701084965
13.0	78.3994121714968	pulse	2.0	t		19.0	female	white	4.298846000795861	neutral	100	sub-05	1.0	2.0	100_neutral	1.0	100.30544382802691	
13.0	79.09937936007736	pulse	2.0	t		19.0	female	white	4.298846000795861	neutral	100	sub-05	1.0	2.0	100_neutral	1.0	101.00541101660747	
13.0	79.79925750202892	pulse	2.0	t		19.0	female	white	4.298846000795861	neutral	100	sub-05	1.0	2.0	100_neutral	1.0	101.70528915855903	
13.0	80.07422866752131	response	2.0	e		19.0	female	white	4.298846000795861	neutral	100	sub-05	1.0	2.0	100_neutral	1.0	101.98026032405141	
13.0	80.2543881123056	fix	3.0		444	19.0	female	white	4.298846000795861	neutral	100	sub-05	1.0	2.0	100_neutral	1.0	102.16041976883571	3.7665604848480143
13.0	80.50450591043227	pulse	3.0	t		19.0	female	white	4.298846000795861	neutral	100	sub-05	1.0	2.0	100_neutral	1.0	102.41053756696238	
13.0	81.20447581568988	pulse	3.0	t		19.0	female	white	4.298846000795861	neutral	100	sub-05	1.0	2.0	100_neutral	1.0	103.11050747221998	
13.0	81.90446232286195	pulse	3.0	t		19.0	female	white	4.298846000795861	neutral	100	sub-05	1.0	2.0	100_neutral	1.0	103.81049397939205	
13.0	82.60444792447379	pulse	3.0	t		19.0	female	white	4.298846000795861	neutral	100	sub-05	1.0	2.0	100_neutral	1.0	104.51047958100389	
13.0	83.30440847228965	pulse	3.0	t		19.0	female	white	4.298846000795861	neutral	100	sub-05	1.0	2.0	100_neutral	1.0	105.21044012881976	
14.0	84.02094859715362	face	0.0		146	19.0	male	white	3.2522881018702745	neutral	018	sub-05	1.0	2.0	018_neutral	0.0	105.92698025368372	1.2333042850150377
14.0	84.00719587330786	pulse	0.0	t		19.0	male	white	3.2522881018702745	neutral	018	sub-05	1.0	2.0	018_neutral	0.0	105.91322752983797	
14.0	84.70439325889856	pulse	0.0	t		19.0	male	white	3.2522881018702745	neutral	018	sub-05	1.0	2.0	018_neutral	0.0	106.61042491542867	
14.0	85.25425288216866	fix	1.0		443	19.0	male	white	3.2522881018702745	neutral	018	sub-05	1.0	2.0	018_neutral	0.0	107.16028453869876	3.766546901462789
14.0	85.40437040862707	pulse	1.0	t		19.0	male	white	3.2522881018702745	neutral	018	sub-05	1.0	2.0	018_neutral	0.0	107.31040206515718	
14.0	86.10434967132824	pulse	1.0	t		19.0	male	white	3.2522881018702745	neutral	018	sub-05	1.0	2.0	018_neutral	0.0	108.01038132785834	
14.0	86.80432440623372	pulse	1.0	t		19.0	male	white	3.2522881018702745	neutral	018	sub-05	1.0	2.0	018_neutral	0.0	108.71035606276382	
14.0	87.50432178011215	pulse	1.0	t		19.0	male	white	3.2522881018702745	neutral	018	sub-05	1.0	2.0	018_neutral	0.0	109.41035343664225	
14.0	88.20429832613445	pulse	1.0	t		19.0	male	white	3.2522881018702745	neutral	018	sub-05	1.0	2.0	018_neutral	0.0	110.11032998266455	
14.0	88.90426098692114	pulse	1.0	t		19.0	male	white	3.2522881018702745	neutral	018	sub-05	1.0	2.0	018_neutral	0.0	110.81029264345125	
15.0	89.02079978363145	face	0.0		146	26.0	female	white	4.854755272582572	smiling	027	sub-05	1.0	2.0	027_smiling	1.0	110.92683144016155	1.2333181702524598
15.0	89.60425021076844	pulse	0.0	t		26.0	female	white	4.854755272582572	smiling	027	sub-05	1.0	2.0	027_smiling	1.0	111.51028186729854	
15.0	90.2541179538839	fix	1.0		236	26.0	female	white	4.854755272582572	smiling	027	sub-05	1.0	2.0	027_smiling	1.0	112.16014961041401	1.9999486849919776
15.0	90.3043547424586	pulse	1.0	t		26.0	female	white	4.854755272582572	smiling	027	sub-05	1.0	2.0	027_smiling	1.0	112.2103863989887	
15.0	91.00422262140637	pulse	1.0	t		26.0	female	white	4.854755272582572	smiling	027	sub-05	1.0	2.0	027_smiling	1.0	112.91025427793647	
15.0	91.70418920628072	pulse	1.0	t		26.0	female	white	4.854755272582572	smiling	027	sub-05	1.0	2.0	027_smiling	1.0	113.61022086281082	
15.0	92.25406663887588	rating	2.0		235	26.0	female	white	4.854755272582572	smiling	027	sub-05	1.0	2.0	027_smiling	1.0	114.16009829540599	1.9999474775813724
15.0	92.39900889590899	pulse	2.0	t		26.0	female	white	4.854755272582572	smiling	027	sub-05	1.0	2.0	027_smiling	1.0	114.3050405524391	
15.0	93.09898755490394	pulse	2.0	t		26.0	female	white	4.854755272582572	smiling	027	sub-05	1.0	2.0	027_smiling	1.0	115.00501921143405	
15.0	93.6624873108558	response	2.0	b		26.0	female	white	4.854755272582572	smiling	027	sub-05	1.0	2.0	027_smiling	1.0	115.5685189673859	
15.0	93.79886448944126	pulse	2.0	t		26.0	female	white	4.854755272582572	smiling	027	sub-05	1.0	2.0	027_smiling	1.0	115.70489614597136	
15.0	94.25401411645726	fix	3.0		444	26.0	female	white	4.854755272582572	smiling	027	sub-05	1.0	2.0	027_smiling	1.0	116.16004577298736	3.7665444866397593
15.0	94.50413282014415	pulse	3.0	t		26.0	female	white	4.854755272582572	smiling	027	sub-05	1.0	2.0	027_smiling	1.0	116.41016447667425	
15.0	95.20411238469569	pulse	3.0	t		26.0	female	white	4.854755272582572	smiling	027	sub-05	1.0	2.0	027_smiling	1.0	117.1101440412258	
15.0	95.90409074183663	pulse	3.0	t		26.0	female	white	4.854755272582572	smiling	027	sub-05	1.0	2.0	027_smiling	1.0	117.81012239836673	
15.0	96.60411679175013	pulse	3.0	t		26.0	female	white	4.854755272582572	smiling	027	sub-05	1.0	2.0	027_smiling	1.0	118.51014844828023	
15.0	97.30404473944327	pulse	3.0	t		26.0	female	white	4.854755272582572	smiling	027	sub-05	1.0	2.0	027_smiling	1.0	119.21007639597337	
16.0	98.02055860309702	face	0.0		146	20.0	male	black	3.1070433744528456	smiling	082	sub-05	1.0	2.0	082_smiling	0.0	119.92659025962712	1.2333121331921575
16.0	98.00711256188333	pulse	0.0	t		20.0	male	black	3.1070433744528456	smiling	082	sub-05	1.0	2.0	082_smiling	0.0	119.91314421841344	
16.0	98.70401262228552	pulse	0.0	t		20.0	male	black	3.1070433744528456	smiling	082	sub-05	1.0	2.0	082_smiling	0.0	120.61004427881562	
16.0	99.25387073628917	fix	1.0		443	20.0	male	black	3.1070433744528456	smiling	082	sub-05	1.0	2.0	082_smiling	0.0	121.15990239281928	3.7582242109638173
16.0	99.40400516651607	pulse	1.0	t		20.0	male	black	3.1070433744528456	smiling	082	sub-05	1.0	2.0	082_smiling	0.0	121.31003682304618	
16.0	100.103945188328	pulse	1.0	t		20.0	male	black	3.1070433744528456	smiling	082	sub-05	1.0	2.0	082_smiling	0.0	122.0099768448581	
16.0	100.80395614559166	pulse	1.0	t		20.0	male	black	3.1070433744528456	smiling	082	sub-05	1.0	2.0	082_smiling	0.0	122.70998780212176	
16.0	101.50393933238047	pulse	1.0	t		20.0	male	black	3.1070433744528456	smiling	082	sub-05	1.0	2.0	082_smiling	0.0	123.40997098891057	
16.0	102.20390984134428	pulse	1.0	t		20.0	male	black	3.1070433744528456	smiling	082	sub-05	1.0	2.0	082_smiling	0.0	124.10994149787439	
16.0	102.90390117816241	pulse	1.0	t		20.0	male	black	3.1070433744528456	smiling	082	sub-05	1.0	2.0	082_smiling	0.0	124.80993283469252	
17.0	103.01209494725299	face	0.0		147	40.0	male	black	2.408674890569041	neutral	061	sub-05	1.0	2.0	061_neutral	0.0	124.9181266037831	1.2416631978721853
17.0	103.60387802603873	pulse	0.0	t		40.0	male	black	2.408674890569041	neutral	061	sub-05	1.0	2.0	061_neutral	0.0	125.50990968256883	
17.0	104.25375814512518	fix	1.0		443	40.0	male	black	2.408674890569041	neutral	061	sub-05	1.0	2.0	061_neutral	0.0	126.15978980165528	3.766529997697944
17.0	104.30387268324193	pulse	1.0	t		40.0	male	black	2.408674890569041	neutral	061	sub-05	1.0	2.0	061_neutral	0.0	126.20990433977204	
17.0	105.00384771999961	pulse	1.0	t		40.0	male	black	2.408674890569041	neutral	061	sub-05	1.0	2.0	061_neutral	0.0	126.90987937652972	
17.0	105.70381913452184	pulse	1.0	t		40.0	male	black	2.408674890569041	neutral	061	sub-05	1.0	2.0	061_neutral	0.0	127.60985079105194	
17.0	106.40380141575042	pulse	1.0	t		40.0	male	black	2.408674890569041	neutral	061	sub-05	1.0	2.0	061_neutral	0.0	128.30983307228053	
17.0	107.10378882848272	pulse	1.0	t		40.0	male	black	2.408674890569041	neutral	061	sub-05	1.0	2.0	061_neutral	0.0	129.00982048501282	
17.0	107.80376084670934	pulse	1.0	t		40.0	male	black	2.408674890569041	neutral	061	sub-05	1.0	2.0	061_neutral	0.0	129.70979250323944	
18.0	108.02028814282312	face	0.0		145	24.0	male	white	3.1153999204138483	neutral	012	sub-05	1.0	2.0	012_neutral	1.0	129.92631979935322	1.2333356777253357
18.0	108.50374252423353	pulse	0.0	t		24.0	male	white	3.1153999204138483	neutral	012	sub-05	1.0	2.0	012_neutral	1.0	130.40977418076363	
18.0	109.20373748328893	pulse	0.0	t		24.0	male	white	3.1153999204138483	neutral	012	sub-05	1.0	2.0	012_neutral	1.0	131.10976913981904	
18.0	109.25362382054846	fix	1.0		238	24.0	male	white	3.1153999204138483	neutral	012	sub-05	1.0	2.0	012_neutral	1.0	131.15965547707856	1.9999299701066775
18.0	109.90370738854654	pulse	1.0	t		24.0	male	white	3.1153999204138483	neutral	012	sub-05	1.0	2.0	012_neutral	1.0	131.80973904507664	
18.0	110.60369057533535	pulse	1.0	t		24.0	male	white	3.1153999204138483	neutral	012	sub-05	1.0	2.0	012_neutral	1.0	132.50972223186545	
18.0	111.25355379065513	rating	2.0		235	24.0	male	white	3.1153999204138483	neutral	012	sub-05	1.0	2.0	012_neutral	1.0	133.15958544718524	1.9999628720834153
18.0	111.29850181308029	pulse	2.0	t		24.0	male	white	3.1153999204138483	neutral	012	sub-05	1.0	2.0	012_neutral	1.0	133.2045334696104	
18.0	111.99848590542751	pulse	2.0	t		24.0	male	white	3.1153999204138483	neutral	012	sub-05	1.0	2.0	012_neutral	1.0	133.90451756195762	
18.0	112.52863362322387	response	2.0	w		24.0	male	white	3.1153999204138483	neutral	012	sub-05	1.0	2.0	012_neutral	1.0	134.43466527975397	
18.0	112.69841928647475	pulse	2.0	t		24.0	male	white	3.1153999204138483	neutral	012	sub-05	1.0	2.0	012_neutral	1.0	134.60445094300485	
18.0	113.25351666273855	fix	3.0		443	24.0	male	white	3.1153999204138483	neutral	012	sub-05	1.0	2.0	012_neutral	1.0	135.15954831926865	3.766529997696125
18.0	113.40361577616568	pulse	3.0	t		24.0	male	white	3.1153999204138483	neutral	012	sub-05	1.0	2.0	012_neutral	1.0	135.30964743269578	
18.0	114.10358266289222	pulse	3.0	t		24.0	male	white	3.1153999204138483	neutral	012	sub-05	1.0	2.0	012_neutral	1.0	136.00961431942233	
18.0	114.80356735894748	pulse	3.0	t		24.0	male	white	3.1153999204138483	neutral	012	sub-05	1.0	2.0	012_neutral	1.0	136.70959901547758	
18.0	115.5035580920594	pulse	3.0	t		24.0	male	white	3.1153999204138483	neutral	012	sub-05	1.0	2.0	012_neutral	1.0	137.4095897485895	
18.0	116.2035343362295	pulse	3.0	t		24.0	male	white	3.1153999204138483	neutral	012	sub-05	1.0	2.0	012_neutral	1.0	138.1095659927596	
18.0	116.90352023969535	pulse	3.0	t		24.0	male	white	3.1153999204138483	neutral	012	sub-05	1.0	2.0	012_neutral	1.0	138.80955189622546	
19.0	117.02004666043467	face	0.0		146	27.0	female	white	4.181058495821727	neutral	039	sub-05	1.0	2.0	039_neutral	0.0	138.92607831696478	1.2333199813692772
19.0	117.6035490062859	pulse	0.0	t		27.0	female	white	4.181058495821727	neutral	039	sub-05	1.0	2.0	039_neutral	0.0	139.509580662816	
19.0	118.25336664180395	fix	1.0		443	27.0	female	white	4.181058495821727	neutral	039	sub-05	1.0	2.0	039_neutral	0.0	140.15939829833405	3.766563503379075
19.0	118.30347906694806	pulse	1.0	t		27.0	female	white	4.181058495821727	neutral	039	sub-05	1.0	2.0	039_neutral	0.0	140.20951072347816	
19.0	119.00348338344702	pulse	1.0	t		27.0	female	white	4.181058495821727	neutral	039	sub-05	1.0	2.0	039_neutral	0.0	140.90951503997712	
19.0	119.70344212014425	pulse	1.0	t		27.0	female	white	4.181058495821727	neutral	039	sub-05	1.0	2.0	039_neutral	0.0	141.60947377667435	
19.0	120.40342681619768	pulse	1.0	t		27.0	female	white	4.181058495821727	neutral	039	sub-05	1.0	2.0	039_neutral	0.0	142.30945847272778	
19.0	121.10340124924915	pulse	1.0	t		27.0	female	white	4.181058495821727	neutral	039	sub-05	1.0	2.0	039_neutral	0.0	143.00943290577925	
19.0	121.80338956753803	pulse	1.0	t		27.0	female	white	4.181058495821727	neutral	039	sub-05	1.0	2.0	039_neutral	0.0	143.70942122406814	
20.0	122.01993014518303	face	0.0		145	40.0	male	white	1.868682849184242	smiling	172	sub-05	1.0	2.0	172_smiling	0.0	143.92596180171313	1.2333181702506408
20.0	122.5033700376498	pulse	0.0	t		40.0	male	white	1.868682849184242	smiling	172	sub-05	1.0	2.0	172_smiling	0.0	144.4094016941799	
20.0	123.20335714852808	pulse	0.0	t		40.0	male	white	1.868682849184242	smiling	172	sub-05	1.0	2.0	172_smiling	0.0	145.1093888050582	
20.0	123.25324831543367	fix	1.0		445	40.0	male	white	1.868682849184242	smiling	172	sub-05	1.0	2.0	172_smiling	0.0	145.15927997196377	3.766532110668777
20.0	123.90333037416895	pulse	1.0	t		40.0	male	white	1.868682849184242	smiling	172	sub-05	1.0	2.0	172_smiling	0.0	145.80936203069905	
20.0	124.6033168813392	pulse	1.0	t		40.0	male	white	1.868682849184242	smiling	172	sub-05	1.0	2.0	172_smiling	0.0	146.5093485378693	
20.0	125.30328829586142	pulse	1.0	t		40.0	male	white	1.868682849184242	smiling	172	sub-05	1.0	2.0	172_smiling	0.0	147.20931995239152	
20.0	126.00325246591274	pulse	1.0	t		40.0	male	white	1.868682849184242	smiling	172	sub-05	1.0	2.0	172_smiling	0.0	147.90928412244284	
20.0	126.70326281947018	pulse	1.0	t		40.0	male	white	1.868682849184242	smiling	172	sub-05	1.0	2.0	172_smiling	0.0	148.6092944760003	
21.0	127.01978042610244	face	0.0		145	26.0	male	white	2.7966573816155993	smiling	117	sub-05	1.0	2.0	117_smiling	0.0	148.92581208263255	1.2333323573420785
21.0	127.40324298772975	pulse	0.0	t		26.0	male	white	2.7966573816155993	smiling	117	sub-05	1.0	2.0	117_smiling	0.0	149.30927464425986	
21.0	128.10321862819364	pulse	0.0	t		26.0	male	white	2.7966573816155993	smiling	117	sub-05	1.0	2.0	117_smiling	0.0	150.00925028472375	
21.0	128.25311278344452	fix	1.0		444	26.0	male	white	2.7966573816155993	smiling	117	sub-05	1.0	2.0	117_smiling	0.0	150.15914443997463	3.7665284884315042
21.0	128.8031994001576	pulse	1.0	t		26.0	male	white	2.7966573816155993	smiling	117	sub-05	1.0	2.0	117_smiling	0.0	150.7092310566877	
21.0	129.5031880203005	pulse	1.0	t		26.0	male	white	2.7966573816155993	smiling	117	sub-05	1.0	2.0	117_smiling	0.0	151.40921967683062	
21.0	130.20316728299986	pulse	1.0	t		26.0	male	white	2.7966573816155993	smiling	117	sub-05	1.0	2.0	117_smiling	0.0	152.10919893952996	
21.0	130.9031393012283	pulse	1.0	t		26.0	male	white	2.7966573816155993	smiling	117	sub-05	1.0	2.0	117_smiling	0.0	152.8091709577584	
21.0	131.6031215824587	pulse	1.0	t		26.0	male	white	2.7966573816155993	smiling	117	sub-05	1.0	2.0	117_smiling	0.0	153.5091532389888	
22.0	132.01964127187603	face	0.0		145	23.0	male	white	2.6275368085953046	neutral	141	sub-05	1.0	2.0	141_neutral	0.0	153.92567292840613	1.233321490633898
22.0	132.30310567480592	pulse	0.0	t		23.0	male	white	2.6275368085953046	neutral	141	sub-05	1.0	2.0	141_neutral	0.0	154.20913733133602	
22.0	133.0030801078592	pulse	0.0	t		23.0	male	white	2.6275368085953046	neutral	141	sub-05	1.0	2.0	141_neutral	0.0	154.9091117643893	
22.0	133.25296276250992	fix	1.0		444	23.0	male	white	2.6275368085953046	neutral	141	sub-05	1.0	2.0	141_neutral	0.0	155.15899441904003	3.7582546981157066
22.0	133.7030687280003	pulse	1.0	t		23.0	male	white	2.6275368085953046	neutral	141	sub-05	1.0	2.0	141_neutral	0.0	155.6091003845304	
22.0	134.40303169063918	pulse	1.0	t		23.0	male	white	2.6275368085953046	neutral	141	sub-05	1.0	2.0	141_neutral	0.0	156.30906334716929	
22.0	135.10302483857777	pulse	1.0	t		23.0	male	white	2.6275368085953046	neutral	141	sub-05	1.0	2.0	141_neutral	0.0	157.00905649510787	
22.0	135.80301798651453	pulse	1.0	t		23.0	male	white	2.6275368085953046	neutral	141	sub-05	1.0	2.0	141_neutral	0.0	157.70904964304464	
22.0	136.50298396768267	pulse	1.0	t		23.0	male	white	2.6275368085953046	neutral	141	sub-05	1.0	2.0	141_neutral	0.0	158.40901562421277	
23.0	137.01121746062563	face	0.0		146	19.0	male	white	3.2522881018702745	smiling	018	sub-05	1.0	2.0	018_smiling	0.0	158.91724911715573	1.241610373601361
23.0	137.20297349338398	pulse	0.0	t		19.0	male	white	3.2522881018702745	smiling	018	sub-05	1.0	2.0	018_smiling	0.0	159.10900514991408	
23.0	137.90301886188718	pulse	0.0	t		19.0	male	white	3.2522881018702745	smiling	018	sub-05	1.0	2.0	018_smiling	0.0	159.80905051841728	
23.0	138.252827834227	fix	1.0		1185	19.0	male	white	3.2522881018702745	smiling	018	sub-05	1.0	2.0	018_smiling	0.0	160.1588594907571	10.016381561490562
23.0	138.60293775399077	pulse	1.0	t		19.0	male	white	3.2522881018702745	smiling	018	sub-05	1.0	2.0	018_smiling	0.0	160.50896941052088	
23.0	139.30291671483792	pulse	1.0	t		19.0	male	white	3.2522881018702745	smiling	018	sub-05	1.0	2.0	018_smiling	0.0	161.20894837136802	
23.0	140.002892657154	pulse	1.0	t		19.0	male	white	3.2522881018702745	smiling	018	sub-05	1.0	2.0	018_smiling	0.0	161.9089243136841	
23.0	140.7028749383844	pulse	1.0	t		19.0	male	white	3.2522881018702745	smiling	018	sub-05	1.0	2.0	018_smiling	0.0	162.60890659491452	
23.0	141.40289887532708	pulse	1.0	t		19.0	male	white	3.2522881018702745	smiling	018	sub-05	1.0	2.0	018_smiling	0.0	163.3089305318572	
23.0	142.10283376563711	pulse	1.0	t		19.0	male	white	3.2522881018702745	smiling	018	sub-05	1.0	2.0	018_smiling	0.0	164.00886542216722	
23.0	142.80283023395714	pulse	1.0	t		19.0	male	white	3.2522881018702745	smiling	018	sub-05	1.0	2.0	018_smiling	0.0	164.70886189048724	
23.0	143.50279862995012	pulse	1.0	t		19.0	male	white	3.2522881018702745	smiling	018	sub-05	1.0	2.0	018_smiling	0.0	165.40883028648022	
23.0	144.2027791000619	pulse	1.0	t		19.0	male	white	3.2522881018702745	smiling	018	sub-05	1.0	2.0	018_smiling	0.0	166.108810756592	
23.0	144.9027692294694	pulse	1.0	t		19.0	male	white	3.2522881018702745	smiling	018	sub-05	1.0	2.0	018_smiling	0.0	166.80880088599952	
23.0	145.60275966072913	pulse	1.0	t		19.0	male	white	3.2522881018702745	smiling	018	sub-05	1.0	2.0	018_smiling	0.0	167.50879131725924	
23.0	146.30273288637	pulse	1.0	t		19.0	male	white	3.2522881018702745	smiling	018	sub-05	1.0	2.0	018_smiling	0.0	168.2087645429001	
23.0	147.00271063980472	pulse	1.0	t		19.0	male	white	3.2522881018702745	smiling	018	sub-05	1.0	2.0	018_smiling	0.0	168.90874229633482	
23.0	147.7026856765624	pulse	1.0	t		19.0	male	white	3.2522881018702745	smiling	018	sub-05	1.0	2.0	018_smiling	0.0	169.6087173330925	
24.0	148.26920939571755	face	0.0		145	24.0	female	black	3.0955033824114606	smiling	099	sub-05	1.0	2.0	099_smiling	0.0	170.17524105224766	1.2333205850754894
24.0	148.40266312814492	pulse	0.0	t		24.0	female	black	3.0955033824114606	smiling	099	sub-05	1.0	2.0	099_smiling	0.0	170.30869478467503	
24.0	149.10266020017116	pulse	0.0	t		24.0	female	black	3.0955033824114606	smiling	099	sub-05	1.0	2.0	099_smiling	0.0	171.00869185670126	
24.0	149.50252998079304	fix	1.0		444	24.0	female	black	3.0955033824114606	smiling	099	sub-05	1.0	2.0	099_smiling	0.0	171.40856163732315	3.766544788493775
24.0	149.80263553878285	pulse	1.0	t		24.0	female	black	3.0955033824114606	smiling	099	sub-05	1.0	2.0	099_smiling	0.0	171.70866719531296	
24.0	150.5026274793072	pulse	1.0	t		24.0	female	black	3.0955033824114606	smiling	099	sub-05	1.0	2.0	099_smiling	0.0	172.4086591358373	
24.0	151.20260734571275	pulse	1.0	t		24.0	female	black	3.0955033824114606	smiling	099	sub-05	1.0	2.0	099_smiling	0.0	173.10863900224285	
24.0	151.9025802695014	pulse	1.0	t		24.0	female	black	3.0955033824114606	smiling	099	sub-05	1.0	2.0	099_smiling	0.0	173.80861192603152	
24.0	152.6025562118175	pulse	1.0	t		24.0	female	black	3.0955033824114606	smiling	099	sub-05	1.0	2.0	099_smiling	0.0	174.5085878683476	
25.0	153.26907476928682	face	0.0		145	27.0	male	black	3.5523278949462798	neutral	042	sub-05	1.0	2.0	042_neutral	0.0	175.17510642581692	1.2333199813692772
25.0	153.3025753191123	pulse	0.0	t		27.0	male	black	3.5523278949462798	neutral	042	sub-05	1.0	2.0	042_neutral	0.0	175.2086069756424	
25.0	154.0025283206014	pulse	0.0	t		27.0	male	black	3.5523278949462798	neutral	042	sub-05	1.0	2.0	042_neutral	0.0	175.90855997713152	
25.0	154.5023947506561	fix	1.0		443	27.0	male	black	3.5523278949462798	neutral	042	sub-05	1.0	2.0	042_neutral	0.0	176.4084264071862	3.7582658666760835
25.0	154.7025966299334	pulse	1.0	t		27.0	male	black	3.5523278949462798	neutral	042	sub-05	1.0	2.0	042_neutral	0.0	176.6086282864635	
25.0	155.4025094849767	pulse	1.0	t		27.0	male	black	3.5523278949462798	neutral	042	sub-05	1.0	2.0	042_neutral	0.0	177.3085411415068	
25.0	156.10245795867195	pulse	1.0	t		27.0	male	black	3.5523278949462798	neutral	042	sub-05	1.0	2.0	042_neutral	0.0	178.00848961520205	
25.0	156.80244205101917	pulse	1.0	t		27.0	male	black	3.5523278949462798	neutral	042	sub-05	1.0	2.0	042_neutral	0.0	178.70847370754927	
25.0	157.50242372854336	pulse	1.0	t		27.0	male	black	3.5523278949462798	neutral	042	sub-05	1.0	2.0	042_neutral	0.0	179.40845538507347	
25.0	158.20241597092172	pulse	1.0	t		27.0	male	black	3.5523278949462798	neutral	042	sub-05	1.0	2.0	042_neutral	0.0	180.10844762745182	
26.0	158.26066061733218	face	0.0		147	34.0	male	white	2.651014723438122	neutral	121	sub-05	1.0	2.0	121_neutral	0.0	180.16669227386228	1.2415970920683321
26.0	158.90238798915016	pulse	0.0	t		34.0	male	white	2.651014723438122	neutral	121	sub-05	1.0	2.0	121_neutral	0.0	180.80841964568026	
26.0	159.5022577094005	fix	1.0		443	34.0	male	white	2.651014723438122	neutral	121	sub-05	1.0	2.0	121_neutral	0.0	181.4082893659306	3.7583703078089457
26.0	159.60237630743904	pulse	1.0	t		34.0	male	white	2.651014723438122	neutral	121	sub-05	1.0	2.0	121_neutral	0.0	181.50840796396915	
26.0	160.30235919237384	pulse	1.0	t		34.0	male	white	2.651014723438122	neutral	121	sub-05	1.0	2.0	121_neutral	0.0	182.20839084890395	
26.0	161.00234147360425	pulse	1.0	t		34.0	male	white	2.651014723438122	neutral	121	sub-05	1.0	2.0	121_neutral	0.0	182.90837313013435	
26.0	161.70232345298064	pulse	1.0	t		34.0	male	white	2.651014723438122	neutral	121	sub-05	1.0	2.0	121_neutral	0.0	183.60835510951074	
26.0	162.402303017534	pulse	1.0	t		34.0	male	white	2.651014723438122	neutral	121	sub-05	1.0	2.0	121_neutral	0.0	184.3083346740641	
26.0	163.10228107282273	pulse	1.0	t		34.0	male	white	2.651014723438122	neutral	121	sub-05	1.0	2.0	121_neutral	0.0	185.00831272935284	
27.0	163.26062801720946	face	0.0		147	31.0	female	white	2.1822522881018704	neutral	102	sub-05	1.0	2.0	102_neutral	0.0	185.16665967373956	1.241498989849788
27.0	163.80227029667003	pulse	0.0	t		31.0	female	white	2.1822522881018704	neutral	102	sub-05	1.0	2.0	102_neutral	0.0	185.70830195320013	
27.0	164.50212700705924	fix	1.0		444	31.0	female	white	2.1822522881018704	neutral	102	sub-05	1.0	2.0	102_neutral	0.0	186.40815866358935	3.7665478070230165
27.0	164.5095882091391	pulse	1.0	t		31.0	female	white	2.1822522881018704	neutral	102	sub-05	1.0	2.0	102_neutral	0.0	186.4156198656692	
27.0	165.20222218130402	pulse	1.0	t		31.0	female	white	2.1822522881018704	neutral	102	sub-05	1.0	2.0	102_neutral	0.0	187.10825383783413	
27.0	165.90219842547413	pulse	1.0	t		31.0	female	white	2.1822522881018704	neutral	102	sub-05	1.0	2.0	102_neutral	0.0	187.80823008200423	
27.0	166.60218312152938	pulse	1.0	t		31.0	female	white	2.1822522881018704	neutral	102	sub-05	1.0	2.0	102_neutral	0.0	188.50821477805948	
27.0	167.30217204352448	pulse	1.0	t		31.0	female	white	2.1822522881018704	neutral	102	sub-05	1.0	2.0	102_neutral	0.0	189.20820370005458	
27.0	168.00213893025102	pulse	1.0	t		31.0	female	white	2.1822522881018704	neutral	102	sub-05	1.0	2.0	102_neutral	0.0	189.90817058678113	
28.0	168.26867481408226	face	0.0		145	28.0	female	white	5.676880222841227	smiling	124	sub-05	1.0	2.0	124_smiling	1.0	190.17470647061236	1.2333085109548847
28.0	168.7021082318024	pulse	0.0	t		28.0	female	white	5.676880222841227	smiling	124	sub-05	1.0	2.0	124_smiling	1.0	190.60813988833252	
28.0	169.40210409641622	pulse	0.0	t		28.0	female	white	5.676880222841227	smiling	124	sub-05	1.0	2.0	124_smiling	1.0	191.30813575294633	
28.0	169.50198332503714	fix	1.0		237	28.0	female	white	5.676880222841227	smiling	124	sub-05	1.0	2.0	124_smiling	1.0	191.40801498156725	1.9999677017312933
28.0	170.10208728320504	pulse	1.0	t		28.0	female	white	5.676880222841227	smiling	124	sub-05	1.0	2.0	124_smiling	1.0	192.00811893973514	
28.0	170.8020864682021	pulse	1.0	t		28.0	female	white	5.676880222841227	smiling	124	sub-05	1.0	2.0	124_smiling	1.0	192.7081181247322	
28.0	171.50195102676844	rating	2.0		235	28.0	female	white	5.676880222841227	smiling	124	sub-05	1.0	2.0	124_smiling	1.0	193.40798268329854	1.9999308756669052
28.0	171.49699188407976	pulse	2.0	t		28.0	female	white	5.676880222841227	smiling	124	sub-05	1.0	2.0	124_smiling	1.0	193.40302354060987	
28.0	172.19677373492777	pulse	2.0	t		28.0	female	white	5.676880222841227	smiling	124	sub-05	1.0	2.0	124_smiling	1.0	194.10280539145788	
28.0	172.72179870571563	response	2.0	g		28.0	female	white	5.676880222841227	smiling	124	sub-05	1.0	2.0	124_smiling	1.0	194.62783036224573	
28.0	172.8968028033687	pulse	2.0	t		28.0	female	white	5.676880222841227	smiling	124	sub-05	1.0	2.0	124_smiling	1.0	194.8028344598988	
28.0	173.50188190243534	fix	3.0		443	28.0	female	white	5.676880222841227	smiling	124	sub-05	1.0	2.0	124_smiling	1.0	195.40791355896545	3.766548108875213
28.0	173.60199536897198	pulse	3.0	t		28.0	female	white	5.676880222841227	smiling	124	sub-05	1.0	2.0	124_smiling	1.0	195.5080270255021	
28.0	174.301979159467	pulse	3.0	t		28.0	female	white	5.676880222841227	smiling	124	sub-05	1.0	2.0	124_smiling	1.0	196.2080108159971	
28.0	175.00195661104954	pulse	3.0	t		28.0	female	white	5.676880222841227	smiling	124	sub-05	1.0	2.0	124_smiling	1.0	196.90798826757964	
28.0	175.70194824972168	pulse	3.0	t		28.0	female	white	5.676880222841227	smiling	124	sub-05	1.0	2.0	124_smiling	1.0	197.60797990625178	
28.0	176.4019130234774	pulse	3.0	t		28.0	female	white	5.676880222841227	smiling	124	sub-05	1.0	2.0	124_smiling	1.0	198.3079446800075	
28.0	177.1018971158246	pulse	3.0	t		28.0	female	white	5.676880222841227	smiling	124	sub-05	1.0	2.0	124_smiling	1.0	199.00792877235472	
29.0	177.26843001131056	face	0.0		146	25.0	female	black	3.858336649423	smiling	126	sub-05	1.0	2.0	126_smiling	0.0	199.17446166784066	1.2333344703129114
29.0	177.8018911693216	pulse	0.0	t		25.0	female	black	3.858336649423	smiling	126	sub-05	1.0	2.0	126_smiling	0.0	199.7079228258517	
29.0	178.50176448162347	fix	1.0		444	25.0	female	black	3.858336649423	smiling	126	sub-05	1.0	2.0	126_smiling	0.0	200.40779613815357	3.7665499199938495
29.0	178.50919308358243	pulse	1.0	t		25.0	female	black	3.858336649423	smiling	126	sub-05	1.0	2.0	126_smiling	0.0	200.41522474011254	
29.0	179.2018560336346	pulse	1.0	t		25.0	female	black	3.858336649423	smiling	126	sub-05	1.0	2.0	126_smiling	0.0	201.10788769016472	
29.0	179.90183227780471	pulse	1.0	t		25.0	female	black	3.858336649423	smiling	126	sub-05	1.0	2.0	126_smiling	0.0	201.80786393433482	
29.0	180.60182482203527	pulse	1.0	t		25.0	female	black	3.858336649423	smiling	126	sub-05	1.0	2.0	126_smiling	0.0	202.50785647856537	
29.0	181.30179231246984	pulse	1.0	t		25.0	female	black	3.858336649423	smiling	126	sub-05	1.0	2.0	126_smiling	0.0	203.20782396899995	
29.0	182.001773386286	pulse	1.0	t		25.0	female	black	3.858336649423	smiling	126	sub-05	1.0	2.0	126_smiling	0.0	203.9078050428161	
30.0	182.26831440161732	face	0.0		145	22.0	male	black	2.767608436132113	smiling	044	sub-05	1.0	2.0	044_smiling	0.0	204.17434605814742	1.2333018701901892
30.0	182.7017493286039	pulse	0.0	t		22.0	male	black	2.767608436132113	smiling	044	sub-05	1.0	2.0	044_smiling	0.0	204.607780985134	
30.0	183.40172376165538	pulse	0.0	t		22.0	male	black	2.767608436132113	smiling	044	sub-05	1.0	2.0	044_smiling	0.0	205.30775541818548	
30.0	183.5016162718075	fix	1.0		444	22.0	male	black	2.767608436132113	smiling	044	sub-05	1.0	2.0	044_smiling	0.0	205.4076479283376	3.766544788493775
30.0	184.1017271725941	pulse	1.0	t		22.0	male	black	2.767608436132113	smiling	044	sub-05	1.0	2.0	044_smiling	0.0	206.0077588291242	
30.0	184.8016964741455	pulse	1.0	t		22.0	male	black	2.767608436132113	smiling	044	sub-05	1.0	2.0	044_smiling	0.0	206.7077281306756	
30.0	185.50167422758204	pulse	1.0	t		22.0	male	black	2.767608436132113	smiling	044	sub-05	1.0	2.0	044_smiling	0.0	207.40770588411215	
30.0	186.20166314957714	pulse	1.0	t		22.0	male	black	2.767608436132113	smiling	044	sub-05	1.0	2.0	044_smiling	0.0	208.10769480610725	
30.0	186.90163275298073	pulse	1.0	t		22.0	male	black	2.767608436132113	smiling	044	sub-05	1.0	2.0	044_smiling	0.0	208.80766440951083	
31.0	187.26816106030128	face	0.0		145	28.0	male	east_asian	1.5563072025467568	smiling	005	sub-05	1.0	2.0	005_smiling	0.0	209.17419271683139	1.233319377663065
31.0	187.6016328435362	pulse	0.0	t		28.0	male	east_asian	1.5563072025467568	smiling	005	sub-05	1.0	2.0	005_smiling	0.0	209.5076645000663	
31.0	188.30159158023343	pulse	0.0	t		28.0	male	east_asian	1.5563072025467568	smiling	005	sub-05	1.0	2.0	005_smiling	0.0	210.20762323676354	
31.0	188.50148043796435	fix	1.0		444	28.0	male	east_asian	1.5563072025467568	smiling	005	sub-05	1.0	2.0	005_smiling	0.0	210.40751209449445	3.766545392199987
31.0	189.00162547832406	pulse	1.0	t		28.0	male	east_asian	1.5563072025467568	smiling	005	sub-05	1.0	2.0	005_smiling	0.0	210.90765713485416	
31.0	189.7015727446069	pulse	1.0	t		28.0	male	east_asian	1.5563072025467568	smiling	005	sub-05	1.0	2.0	005_smiling	0.0	211.607604401137	
31.0	190.40159819081418	pulse	1.0	t		28.0	male	east_asian	1.5563072025467568	smiling	005	sub-05	1.0	2.0	005_smiling	0.0	212.3076298473443	
31.0	191.10153338297823	pulse	1.0	t		28.0	male	east_asian	1.5563072025467568	smiling	005	sub-05	1.0	2.0	005_smiling	0.0	213.00756503950834	
31.0	191.80151234382538	pulse	1.0	t		28.0	male	east_asian	1.5563072025467568	smiling	005	sub-05	1.0	2.0	005_smiling	0.0	213.70754400035548	
32.0	192.26802583016433	face	0.0		145	31.0	female	west_asian	2.364902506963788	neutral	006	sub-05	1.0	2.0	006_neutral	0.0	214.17405748669444	1.2333175665462477
32.0	192.50146896755177	pulse	0.0	t		31.0	female	west_asian	2.364902506963788	neutral	006	sub-05	1.0	2.0	006_neutral	0.0	214.40750062408188	
32.0	193.20146483216558	pulse	0.0	t		31.0	female	west_asian	2.364902506963788	neutral	006	sub-05	1.0	2.0	006_neutral	0.0	215.1074964886957	
32.0	193.50134339671058	fix	1.0		444	31.0	female	west_asian	2.364902506963788	neutral	006	sub-05	1.0	2.0	006_neutral	0.0	215.40737505324068	3.758254396261691
32.0	193.901447113396	pulse	1.0	t		31.0	female	west_asian	2.364902506963788	neutral	006	sub-05	1.0	2.0	006_neutral	0.0	215.8074787699261	
32.0	194.60143180944942	pulse	1.0	t		31.0	female	west_asian	2.364902506963788	neutral	006	sub-05	1.0	2.0	006_neutral	0.0	216.50746346597953	
32.0	195.30141620365066	pulse	1.0	t		31.0	female	west_asian	2.364902506963788	neutral	006	sub-05	1.0	2.0	006_neutral	0.0	217.20744786018076	
32.0	196.00138641076046	pulse	1.0	t		31.0	female	west_asian	2.364902506963788	neutral	006	sub-05	1.0	2.0	006_neutral	0.0	217.90741806729056	
32.0	196.70138046425564	pulse	1.0	t		31.0	female	west_asian	2.364902506963788	neutral	006	sub-05	1.0	2.0	006_neutral	0.0	218.60741212078574	
33.0	197.25959779297227	face	0.0		146	22.0	female	white	4.614007162753682	smiling	009	sub-05	1.0	2.0	009_smiling	0.0	219.16562944950238	1.24162848477863
33.0	197.40135701027975	pulse	0.0	t		22.0	female	white	4.614007162753682	smiling	009	sub-05	1.0	2.0	009_smiling	0.0	219.30738866680986	
33.0	198.10134200818538	pulse	0.0	t		22.0	female	white	4.614007162753682	smiling	009	sub-05	1.0	2.0	009_smiling	0.0	220.0073736647155	
33.0	198.5012262777509	fix	1.0		444	22.0	female	white	4.614007162753682	smiling	009	sub-05	1.0	2.0	009_smiling	0.0	220.407257934281	3.766532714374989
33.0	198.8013257986804	pulse	1.0	t		22.0	female	white	4.614007162753682	smiling	009	sub-05	1.0	2.0	009_smiling	0.0	220.7073574552105	
33.0	199.50129962802748	pulse	1.0	t		22.0	female	white	4.614007162753682	smiling	009	sub-05	1.0	2.0	009_smiling	0.0	221.40733128455759	
33.0	200.20127436293296	pulse	1.0	t		22.0	female	white	4.614007162753682	smiling	009	sub-05	1.0	2.0	009_smiling	0.0	222.10730601946307	
33.0	200.90126781272193	pulse	1.0	t		22.0	female	white	4.614007162753682	smiling	009	sub-05	1.0	2.0	009_smiling	0.0	222.80729946925203	
33.0	201.6012292660962	pulse	1.0	t		22.0	female	white	4.614007162753682	smiling	009	sub-05	1.0	2.0	009_smiling	0.0	223.5072609226263	
34.0	202.2677589921259	face	0.0		145	20.0	female	white	3.9502586549940313	smiling	091	sub-05	1.0	2.0	091_smiling	0.0	224.173790648656	1.2333157554276113
34.0	202.3012052084141	pulse	0.0	t		20.0	female	white	3.9502586549940313	smiling	091	sub-05	1.0	2.0	091_smiling	0.0	224.2072368649442	
34.0	203.00122099532382	pulse	0.0	t		20.0	female	white	3.9502586549940313	smiling	091	sub-05	1.0	2.0	091_smiling	0.0	224.90725265185392	
34.0	203.5010747475535	fix	1.0		443	20.0	female	white	3.9502586549940313	smiling	091	sub-05	1.0	2.0	091_smiling	0.0	225.4071064040836	3.766569842289755
34.0	203.70118425981673	pulse	1.0	t		20.0	female	white	3.9502586549940313	smiling	091	sub-05	1.0	2.0	091_smiling	0.0	225.60721591634683	
34.0	204.40116050398683	pulse	1.0	t		20.0	female	white	3.9502586549940313	smiling	091	sub-05	1.0	2.0	091_smiling	0.0	226.30719216051693	
34.0	205.10114459633405	pulse	1.0	t		20.0	female	white	3.9502586549940313	smiling	091	sub-05	1.0	2.0	091_smiling	0.0	227.00717625286416	
34.0	205.80112476459362	pulse	1.0	t		20.0	female	white	3.9502586549940313	smiling	091	sub-05	1.0	2.0	091_smiling	0.0	227.70715642112373	
34.0	206.50110402729297	pulse	1.0	t		20.0	female	white	3.9502586549940313	smiling	091	sub-05	1.0	2.0	091_smiling	0.0	228.40713568382307	
34.0	207.20109959005458	pulse	1.0	t		20.0	female	white	3.9502586549940313	smiling	091	sub-05	1.0	2.0	091_smiling	0.0	229.1071312465847	
35.0	207.26764458984326	face	0.0		146	24.0	female	east_asian	2.9076800636689217	neutral	034	sub-05	1.0	2.0	034_neutral	0.0	229.17367624637336	1.2333106239275367
35.0	207.9011141695537	pulse	0.0	t		24.0	female	east_asian	2.9076800636689217	neutral	034	sub-05	1.0	2.0	034_neutral	0.0	229.8071458260838	
35.0	208.5009552137708	fix	1.0		443	24.0	female	east_asian	2.9076800636689217	neutral	034	sub-05	1.0	2.0	034_neutral	0.0	230.4069868703009	3.7665345254918066
35.0	208.6010656617782	pulse	1.0	t		24.0	female	east_asian	2.9076800636689217	neutral	034	sub-05	1.0	2.0	034_neutral	0.0	230.5070973183083	
35.0	209.30104522633155	pulse	1.0	t		24.0	female	east_asian	2.9076800636689217	neutral	034	sub-05	1.0	2.0	034_neutral	0.0	231.20707688286166	
35.0	210.00105980583066	pulse	1.0	t		24.0	female	east_asian	2.9076800636689217	neutral	034	sub-05	1.0	2.0	034_neutral	0.0	231.90709146236077	
35.0	210.70099680911335	pulse	1.0	t		24.0	female	east_asian	2.9076800636689217	neutral	034	sub-05	1.0	2.0	034_neutral	0.0	232.60702846564345	
35.0	211.40097516625428	pulse	1.0	t		24.0	female	east_asian	2.9076800636689217	neutral	034	sub-05	1.0	2.0	034_neutral	0.0	233.3070068227844	
35.0	212.10096076786613	pulse	1.0	t		24.0	female	east_asian	2.9076800636689217	neutral	034	sub-05	1.0	2.0	034_neutral	0.0	234.00699242439623	
36.0	212.2674897392626	face	0.0		146	20.0	male	black	2.609629924393156	smiling	043	sub-05	1.0	2.0	043_smiling	0.0	234.1735213957927	1.2333317536358663
36.0	212.8009475768904	pulse	0.0	t		20.0	male	black	2.609629924393156	smiling	043	sub-05	1.0	2.0	043_smiling	0.0	234.7069792334205	
36.0	213.50082149289847	fix	1.0		444	20.0	male	black	2.609629924393156	smiling	043	sub-05	1.0	2.0	043_smiling	0.0	235.40685314942857	3.766548712581425
36.0	213.5083862305546	pulse	1.0	t		20.0	male	black	2.609629924393156	smiling	043	sub-05	1.0	2.0	043_smiling	0.0	235.4144178870847	
36.0	214.2009130449096	pulse	1.0	t		20.0	male	black	2.609629924393156	smiling	043	sub-05	1.0	2.0	043_smiling	0.0	236.10694470143972	
36.0	214.90088657240267	pulse	1.0	t		20.0	male	black	2.609629924393156	smiling	043	sub-05	1.0	2.0	043_smiling	0.0	236.80691822893277	
36.0	215.60086734436663	pulse	1.0	t		20.0	male	black	2.609629924393156	smiling	043	sub-05	1.0	2.0	043_smiling	0.0	237.50689900089674	
36.0	216.3008351366534	pulse	1.0	t		20.0	male	black	2.609629924393156	smiling	043	sub-05	1.0	2.0	043_smiling	0.0	238.2068667931835	
36.0	217.0008174178838	pulse	1.0	t		20.0	male	black	2.609629924393156	smiling	043	sub-05	1.0	2.0	043_smiling	0.0	238.9068490744139	
37.0	217.2673702054799	face	0.0		145	19.0	male	white	2.243931555909272	neutral	130	sub-05	1.0	2.0	130_neutral	0.0	239.17340186201	1.233322999900338
37.0	217.70081992326413	pulse	0.0	t		19.0	male	white	2.243931555909272	neutral	130	sub-05	1.0	2.0	130_neutral	0.0	239.60685157979424	
37.0	218.40078952666772	pulse	0.0	t		19.0	male	white	2.243931555909272	neutral	130	sub-05	1.0	2.0	130_neutral	0.0	240.30682118319783	
37.0	218.50069320538023	fix	1.0		444	19.0	male	white	2.243931555909272	neutral	130	sub-05	1.0	2.0	130_neutral	0.0	240.40672486191033	3.766527884725292
37.0	219.10076878936707	pulse	1.0	t		19.0	male	white	2.243931555909272	neutral	130	sub-05	1.0	2.0	130_neutral	0.0	241.00680044589717	
37.0	219.80075499468694	pulse	1.0	t		19.0	male	white	2.243931555909272	neutral	130	sub-05	1.0	2.0	130_neutral	0.0	241.70678665121704	
37.0	220.50073606850492	pulse	1.0	t		19.0	male	white	2.243931555909272	neutral	130	sub-05	1.0	2.0	130_neutral	0.0	242.40676772503502	
37.0	221.20071533120426	pulse	1.0	t		19.0	male	white	2.243931555909272	neutral	130	sub-05	1.0	2.0	130_neutral	0.0	243.10674698773437	
37.0	221.90070123467012	pulse	1.0	t		19.0	male	white	2.243931555909272	neutral	130	sub-05	1.0	2.0	130_neutral	0.0	243.80673289120023	
38.0	222.26722109010552	face	0.0		145	25.0	female	west_asian	2.6756864305610826	neutral	064	sub-05	1.0	2.0	064_neutral	0.0	244.17325274663563	1.2333151517232182
38.0	222.6006753658694	pulse	0.0	t		25.0	female	west_asian	2.6756864305610826	neutral	064	sub-05	1.0	2.0	064_neutral	0.0	244.5067070223995	
38.0	223.30065402486252	pulse	0.0	t		25.0	female	west_asian	2.6756864305610826	neutral	064	sub-05	1.0	2.0	064_neutral	0.0	245.20668568139263	
38.0	223.50053624182874	fix	1.0		444	25.0	female	west_asian	2.6756864305610826	neutral	064	sub-05	1.0	2.0	064_neutral	0.0	245.40656789835884	3.758232662847149
38.0	224.000641437593	pulse	1.0	t		25.0	female	west_asian	2.6756864305610826	neutral	064	sub-05	1.0	2.0	064_neutral	0.0	245.9066730941231	
38.0	224.70062583179424	pulse	1.0	t		25.0	female	west_asian	2.6756864305610826	neutral	064	sub-05	1.0	2.0	064_neutral	0.0	246.60665748832434	
38.0	225.4006376946163	pulse	1.0	t		25.0	female	west_asian	2.6756864305610826	neutral	064	sub-05	1.0	2.0	064_neutral	0.0	247.3066693511464	
38.0	226.10057741457604	pulse	1.0	t		25.0	female	west_asian	2.6756864305610826	neutral	064	sub-05	1.0	2.0	064_neutral	0.0	248.00660907110614	
38.0	226.80057297733583	pulse	1.0	t		25.0	female	west_asian	2.6756864305610826	neutral	064	sub-05	1.0	2.0	064_neutral	0.0	248.70660463386594	
39.0	227.2587689046759	face	0.0		146	31.0	female	west_asian	2.364902506963788	smiling	006	sub-05	1.0	2.0	006_smiling	0.0	249.164800561206	1.2416384459284018
39.0	227.50054741038912	pulse	0.0	t		31.0	female	west_asian	2.364902506963788	smiling	006	sub-05	1.0	2.0	006_smiling	0.0	249.40657906691922	
39.0	228.20052003232195	pulse	0.0	t		31.0	female	west_asian	2.364902506963788	smiling	006	sub-05	1.0	2.0	006_smiling	0.0	250.10655168885205	
39.0	228.5004073506043	fix	1.0		444	31.0	female	west_asian	2.364902506963788	smiling	006	sub-05	1.0	2.0	006_smiling	0.0	250.4064390071344	3.7498933704318915
39.0	228.90050774690644	pulse	1.0	t		31.0	female	west_asian	2.364902506963788	smiling	006	sub-05	1.0	2.0	006_smiling	0.0	250.80653940343655	
39.0	229.60048882072442	pulse	1.0	t		31.0	female	west_asian	2.364902506963788	smiling	006	sub-05	1.0	2.0	006_smiling	0.0	251.50652047725453	
39.0	230.30047502604248	pulse	1.0	t		31.0	female	west_asian	2.364902506963788	smiling	006	sub-05	1.0	2.0	006_smiling	0.0	252.20650668257258	
39.0	231.00044825168334	pulse	1.0	t		31.0	female	west_asian	2.364902506963788	smiling	006	sub-05	1.0	2.0	006_smiling	0.0	252.90647990821344	
39.0	231.70043174032435	pulse	1.0	t		31.0	female	west_asian	2.364902506963788	smiling	006	sub-05	1.0	2.0	006_smiling	0.0	253.60646339685445	
40.0	232.25030072103618	fix	0.0		720												254.1563323775663	5.999842432742298
40.0	232.400430019763	pulse	0.0	t													254.3064616762931	
40.0	233.1003935861081	pulse	0.0	t													255.00642524263822	
40.0	233.80037315065965	pulse	0.0	t													255.70640480718976	
40.0	234.50036177080256	pulse	0.0	t													256.40639342733266	
40.0	235.2003666910059	pulse	0.0	t													257.106398347536	
40.0	235.9003163721136	pulse	0.0	t													257.8063480286437	
40.0	236.6002992570502	pulse	0.0	t													258.5063309135803	
40.0	237.30029119757455	pulse	0.0	t													259.20632285410466	
40.0	238.00025868800913	pulse	0.0	t													259.90629034453923	
