trial_nr	onset	event_type	phase	response	nr_frames	trial_type	stim_name	task_probe	onset_abs	duration
0.0	0.05501605716563063	baseline	0.0		701		baseline	0.0	24.51471527092508	5.848235251149163
0.0	0.7035007007580134	pulse	0.0	t			baseline	0.0	25.163199914517463	
0.0	1.4034585316403536	pulse	0.0	t			baseline	0.0	25.863157745399803	
0.0	2.1034504721174017	pulse	0.0	t			baseline	0.0	26.56314968587685	
0.0	2.803430640255101	pulse	0.0	t			baseline	0.0	27.26312985401455	
0.0	3.503425901133596	pulse	0.0	t			baseline	0.0	27.963125114893046	
0.0	4.2034006358881015	pulse	0.0	t			baseline	0.0	28.66309984964755	
0.0	4.903384728138917	pulse	0.0	t			baseline	0.0	29.363083941898367	
0.0	5.603367311116017	pulse	0.0	t			baseline	0.0	30.063066524875467	
0.0	5.903251308314793	ISI	1.0		6		baseline	0.0	30.362950522074243	0.12501256470568478
1.0	6.028263873020478	number	0.0		45	character	number-20.jpg	0.0	30.487963086779928	0.37492781897162786
1.0	6.303310049261199	pulse	0.0	t		character	number-20.jpg	0.0	30.76300926302065	
1.0	6.403191691992106	ISI	1.0		355	character	number-20.jpg	0.0	30.862890905751556	3.016640349957015
1.0	7.003292934092315	pulse	1.0	t		character	number-20.jpg	0.0	31.462992147851764	
1.0	7.703279743036546	pulse	1.0	t		character	number-20.jpg	0.0	32.162978956795996	
1.0	8.403265948272747	pulse	1.0	t		character	number-20.jpg	0.0	32.8629651620322	
1.0	9.103240984881268	pulse	1.0	t		character	number-20.jpg	0.0	33.56294019864072	
2.0	9.419832041949121	adult	0.0		46	face	adult-103.jpg	0.0	33.87953125570857	0.38329070640247664
2.0	9.803122748351598	ISI	1.0		235	face	adult-103.jpg	0.0	34.26282196211105	2.0166572538291803
2.0	9.837188874476851	pulse	1.0	t		face	adult-103.jpg	0.0	34.2968880882363	
2.0	10.503221545430279	pulse	1.0	t		face	adult-103.jpg	0.0	34.96292075918973	
2.0	11.2031989968782	pulse	1.0	t		face	adult-103.jpg	0.0	35.66289821063765	
3.0	11.819780002180778	adult	0.0		46	face	adult-103.jpg	1.0	36.27947921594023	0.3833356827708485
3.0	11.903196974450111	pulse	0.0	t		face	adult-103.jpg	1.0	36.36289618820956	
3.0	12.203115684951626	ISI	1.0		235	face	adult-103.jpg	1.0	36.662814898711076	2.01665061301901
3.0	12.303252093137417	response	1.0	b		face	adult-103.jpg	1.0	36.762951306896866	
3.0	12.603234495003562	pulse	1.0	t		face	adult-103.jpg	1.0	37.06293370876301	
3.0	13.303230661447742	pulse	1.0	t		face	adult-103.jpg	1.0	37.76292987520719	
3.0	14.003213546278857	pulse	1.0	t		face	adult-103.jpg	1.0	38.46291276003831	
4.0	14.219766297970637	car	0.0		46	object	car-13.jpg	0.0	38.679465511730086	0.38325478568367544
4.0	14.603021083654312	ISI	1.0		234	object	car-13.jpg	0.0	39.06272029741376	2.0166599705189583
4.0	14.70313847498619	pulse	1.0	t		object	car-13.jpg	0.0	39.16283768874564	
4.0	15.403119850547228	pulse	1.0	t		object	car-13.jpg	0.0	39.86281906430668	
4.0	16.10310092425061	pulse	1.0	t		object	car-13.jpg	0.0	40.56280013801006	
5.0	16.61968105417327	limb	0.0		46	body	limb-119.jpg	0.0	41.07938026793272	0.3832894989864144
5.0	16.803089846180228	pulse	0.0	t		body	limb-119.jpg	0.0	41.26278905993968	
5.0	17.002970553159685	ISI	1.0		355	body	limb-119.jpg	0.0	41.462669766919134	3.0166388406832993
5.0	17.503077560686506	pulse	1.0	t		body	limb-119.jpg	0.0	41.962776774445956	
5.0	18.203060747375275	pulse	1.0	t		body	limb-119.jpg	0.0	42.662759961134725	
5.0	18.903032161724695	pulse	1.0	t		body	limb-119.jpg	0.0	43.362731375484145	
5.0	19.603046439457103	pulse	1.0	t		body	limb-119.jpg	0.0	44.06274565321655	
6.0	20.019609393842984	adult	0.0		46	face	adult-69.jpg	0.0	44.479308607602434	0.3833245141431689
6.0	20.303049246707815	pulse	0.0	t		face	adult-69.jpg	0.0	44.762748460467265	
6.0	20.402933907986153	ISI	1.0		355	face	adult-69.jpg	0.0	44.8626331217456	3.0166433685044467
6.0	21.00307046710077	pulse	1.0	t		face	adult-69.jpg	0.0	45.46276968086022	
6.0	21.703056672333332	pulse	1.0	t		face	adult-69.jpg	0.0	46.16275588609278	
6.0	22.403038349748385	pulse	1.0	t		face	adult-69.jpg	0.0	46.862737563507835	
6.0	23.1030200271598	pulse	1.0	t		face	adult-69.jpg	0.0	47.56271924091925	
7.0	23.4195772764906	adult	0.0		46	face	adult-71.jpg	0.0	47.87927649025005	0.383252370844275
7.0	23.802829647334875	ISI	1.0		235	face	adult-71.jpg	0.0	48.262528861094324	2.016658159391227
7.0	23.837460845657915	pulse	1.0	t		face	adult-71.jpg	0.0	48.297160059417365	
7.0	24.502957724329463	pulse	1.0	t		face	adult-71.jpg	0.0	48.96265693808891	
7.0	25.202912838518387	pulse	1.0	t		face	adult-71.jpg	0.0	49.66261205227784	
8.0	25.8194878067261	number	0.0		46	character	number-63.jpg	0.0	50.27918702048555	0.38330338430751
8.0	25.902903571575735	pulse	0.0	t		character	number-63.jpg	0.0	50.362602785335184	
8.0	26.20279119103361	ISI	1.0		355	character	number-63.jpg	0.0	50.66249040479306	3.0166243516505347
8.0	26.602889173103904	pulse	1.0	t		character	number-63.jpg	0.0	51.062588386863354	
8.0	27.302870548661303	pulse	1.0	t		character	number-63.jpg	0.0	51.76256976242075	
8.0	28.00285645203985	pulse	1.0	t		character	number-63.jpg	0.0	52.4625556657993	
8.0	28.702837525746872	pulse	1.0	t		character	number-63.jpg	0.0	53.16253673950632	
9.0	29.219415542684146	adult	0.0		46	face	adult-106.jpg	0.0	53.679114756443596	0.38332360857748426
9.0	29.40283006993195	pulse	0.0	t		face	adult-106.jpg	0.0	53.8625292836914	
9.0	29.60273915126163	ISI	1.0		355	face	adult-106.jpg	0.0	54.06243836502108	3.0166424629424
9.0	30.10287966467513	pulse	1.0	t		face	adult-106.jpg	0.0	54.56257887843458	
9.0	30.802863153217913	pulse	1.0	t		face	adult-106.jpg	0.0	55.26256236697736	
9.0	31.502845434340998	pulse	1.0	t		face	adult-106.jpg	0.0	55.96254464810045	
9.0	32.20284160078518	pulse	1.0	t		face	adult-106.jpg	0.0	56.66254081454463	
10.0	32.61938161420403	car	0.0		46	object	car-82.jpg	0.0	57.07908082796348	0.38328708414701396
10.0	32.90278615005809	pulse	0.0	t		object	car-82.jpg	0.0	57.36248536381754	
10.0	33.002668698351044	ISI	1.0		235	object	car-82.jpg	0.0	57.462367912110494	2.0166584612488805
10.0	33.602806163031346	pulse	1.0	t		object	car-82.jpg	0.0	58.062505376790796	
10.0	34.30281259253752	pulse	1.0	t		object	car-82.jpg	0.0	58.76251180629697	
11.0	35.019327159599925	adult	0.0		45	face	adult-133.jpg	0.0	59.479026373359375	0.38329131011050777
11.0	35.00978492543072	pulse	0.0	t		face	adult-133.jpg	0.0	59.46948413919017	
11.0	35.40261846971043	ISI	1.0		235	face	adult-133.jpg	0.0	59.86231768346988	2.0166623853619967
11.0	35.702757534221746	pulse	1.0	t		face	adult-133.jpg	0.0	60.162456747981196	
11.0	36.40277301937385	pulse	1.0	t		face	adult-133.jpg	0.0	60.8624722331333	
11.0	37.102751074529806	pulse	1.0	t		face	adult-133.jpg	0.0	61.562450288289256	
12.0	37.41928085507243	number	0.0		46	character	number-24.jpg	0.0	61.87898006883188	0.383255087534053
12.0	37.80253594260648	ISI	1.0		235	character	number-24.jpg	0.0	62.26223515636593	2.016659366810927
12.0	37.84086335304528	pulse	1.0	t		character	number-24.jpg	0.0	62.30056256680473	
12.0	38.50263685267055	pulse	1.0	t		character	number-24.jpg	0.0	62.96233606643	
12.0	39.20261792637393	pulse	1.0	t		character	number-24.jpg	0.0	63.66231714013338	
13.0	39.81919530941741	limb	0.0		46	body	limb-120.jpg	0.0	64.27889452317686	0.3832904045484611
13.0	39.902718534580345	pulse	0.0	t		body	limb-120.jpg	0.0	64.3624177483398	
13.0	40.20248571396587	ISI	1.0		355	body	limb-120.jpg	0.0	64.66218492772532	3.0166400481066376
13.0	40.602590940554364	pulse	1.0	t		body	limb-120.jpg	0.0	65.06229015431381	
13.0	41.30257503280518	pulse	1.0	t		body	limb-120.jpg	0.0	65.76227424656463	
13.0	42.00255459723485	pulse	1.0	t		body	limb-120.jpg	0.0	66.4622538109943	
13.0	42.70254563214621	pulse	1.0	t		body	limb-120.jpg	0.0	67.16224484590566	
14.0	43.21912576207251	car	0.0		46	object	car-100.jpg	0.0	67.67882497583196	0.38332179744611494
14.0	43.402547835685255	pulse	0.0	t		object	car-100.jpg	0.0	67.8622470494447	
14.0	43.60244755951862	ISI	1.0		475	object	car-100.jpg	0.0	68.06214677327807	4.016595675446297
14.0	44.102586563658406	pulse	1.0	t		object	car-100.jpg	0.0	68.56228577741786	
14.0	44.802569750347175	pulse	1.0	t		object	car-100.jpg	0.0	69.26226896410662	
14.0	45.50254840921116	pulse	1.0	t		object	car-100.jpg	0.0	69.96224762297061	
14.0	46.20254004783419	pulse	1.0	t		object	car-100.jpg	0.0	70.66223926159364	
14.0	46.90251840484416	pulse	1.0	t		object	car-100.jpg	0.0	71.36221761860361	
15.0	47.61904323496492	car	0.0		45	object	car-21.jpg	0.0	72.07874244872437	0.3833121380957891
15.0	47.609385994117474	pulse	0.0	t		object	car-21.jpg	0.0	72.06908520787692	
15.0	48.00235537306071	ISI	1.0		234	object	car-21.jpg	0.0	72.46205458682016	2.0166638946357125
15.0	48.302500474666886	pulse	1.0	t		object	car-21.jpg	0.0	72.76219968842634	
15.0	49.00247400200169	pulse	1.0	t		object	car-21.jpg	0.0	73.46217321576114	
15.0	49.70246986658822	pulse	1.0	t		object	car-21.jpg	0.0	74.16216908034767	
16.0	50.01901926769642	number	0.0		46	character	number-97.jpg	0.0	74.47871848145587	0.3832876878550451
16.0	50.40230695555147	ISI	1.0		233	character	number-97.jpg	0.0	74.86200616931092	2.016659366810927
16.0	50.451927659891226	pulse	1.0	t		character	number-97.jpg	0.0	74.91162687365068	
16.0	51.10243986222122	pulse	1.0	t		character	number-97.jpg	0.0	75.56213907598067	
16.0	51.80242153963627	pulse	1.0	t		character	number-97.jpg	0.0	76.26212075339572	
17.0	52.418966322362394	number	0.0		46	character	number-122.jpg	0.0	76.87866553612184	0.38328104704851285
17.0	52.502377861244895	pulse	0.0	t		character	number-122.jpg	0.0	76.96207707500434	
17.0	52.80224736941091	ISI	1.0		234	character	number-122.jpg	0.0	77.26194658317036	2.0166714410042914
17.0	53.20239727051012	pulse	1.0	t		character	number-122.jpg	0.0	77.66209648426957	
17.0	53.9023898146952	pulse	1.0	t		character	number-122.jpg	0.0	78.36208902845465	
17.0	54.602366360577435	pulse	1.0	t		character	number-122.jpg	0.0	79.06206557433688	
18.0	54.8189188104152	limb	0.0		46	body	limb-67.jpg	0.0	79.27861802417465	0.38329946019439376
18.0	55.20221827060959	ISI	1.0		235	body	limb-67.jpg	0.0	79.66191748436904	2.016650009310979
18.0	55.302439198141656	pulse	1.0	t		body	limb-67.jpg	0.0	79.7621384119011	
18.0	56.0023285079842	pulse	1.0	t		body	limb-67.jpg	0.0	80.46202772174365	
18.0	56.70232407071671	pulse	1.0	t		body	limb-67.jpg	0.0	81.16202328447616	
19.0	57.21886827992057	adult	0.0		46	face	adult-110.jpg	0.0	81.67856749368002	0.38328648043534486
19.0	57.40227344966843	pulse	0.0	t		face	adult-110.jpg	0.0	81.86197266342788	
19.0	57.602154760355916	ISI	1.0		235	face	adult-110.jpg	0.0	82.06185397411537	2.0166611779422965
19.0	58.102295877477445	pulse	1.0	t		face	adult-110.jpg	0.0	82.5619950912369	
19.0	58.80229234577928	pulse	1.0	t		face	adult-110.jpg	0.0	83.26199155953873	
19.0	59.502264665690745	pulse	1.0	t		face	adult-110.jpg	0.0	83.9619638794502	
20.0	59.61881593829821	adult	0.0		46	face	adult-48.jpg	0.0	84.07851515205766	0.3832599172128539
20.0	60.002075855511066	ISI	1.0		474	face	adult-48.jpg	0.0	84.46177506927052	4.016619823829387
20.0	60.202185368434584	pulse	1.0	t		face	adult-48.jpg	0.0	84.66188458219403	
20.0	60.90216281987887	pulse	1.0	t		face	adult-48.jpg	0.0	85.36186203363832	
20.0	61.60214902511507	pulse	1.0	t		face	adult-48.jpg	0.0	86.06184823887452	
20.0	62.30215002123441	pulse	1.0	t		face	adult-48.jpg	0.0	86.76184923499386	
20.0	63.0021208318758	pulse	1.0	t		face	adult-48.jpg	0.0	87.46182004563525	
20.0	63.70210401856457	pulse	1.0	t		face	adult-48.jpg	0.0	88.16180323232402	
21.0	64.01869567934045	limb	0.0		46	body	limb-102.jpg	0.0	88.4783948930999	0.3832861785813293
21.0	64.40198185792178	ISI	1.0		474	body	limb-102.jpg	0.0	88.86168107168123	4.016651518588333
21.0	64.44716861699999	pulse	1.0	t		body	limb-102.jpg	0.0	88.90686783075944	
21.0	65.10208065500046	pulse	1.0	t		body	limb-102.jpg	0.0	89.56177986875991	
21.0	65.80212662748818	pulse	1.0	t		body	limb-102.jpg	0.0	90.26182584124763	
21.0	66.50211464385211	pulse	1.0	t		body	limb-102.jpg	0.0	90.96181385761156	
21.0	67.20210326392771	pulse	1.0	t		body	limb-102.jpg	0.0	91.66180247768716	
21.0	67.90208946916027	pulse	1.0	t		body	limb-102.jpg	0.0	92.36178868291972	
22.0	68.41863337651012	limb	0.0		46	body	limb-89.jpg	0.0	92.87833259026957	0.38328587672731373
22.0	68.60203975367403	pulse	0.0	t		body	limb-89.jpg	0.0	93.06173896743348	
22.0	68.80191925323743	ISI	1.0		234	body	limb-89.jpg	0.0	93.26161846699688	2.0166654039057903
22.0	69.30206218148669	pulse	1.0	t		body	limb-89.jpg	0.0	93.76176139524614	
22.0	70.00204174591636	pulse	1.0	t		body	limb-89.jpg	0.0	94.46174095967581	
22.0	70.70203217711969	pulse	1.0	t		body	limb-89.jpg	0.0	95.16173139087914	
23.0	70.81858465714322	number	0.0		46	character	number-39.jpg	0.0	95.27828387090267	0.38328648043534486
23.0	71.20187113757856	ISI	1.0		235	character	number-39.jpg	0.0	95.66157035133801	2.0166623853619967
23.0	71.40204434186671	pulse	1.0	t		character	number-39.jpg	0.0	95.86174355562616	
23.0	72.10201032283294	pulse	1.0	t		character	number-39.jpg	0.0	96.56170953659239	
23.0	72.80198777427722	pulse	1.0	t		character	number-39.jpg	0.0	97.26168698803667	
24.0	73.21853352294056	limb	0.0		46	body	limb-92.jpg	0.0	97.67823273670001	0.38325357826033724
24.0	73.50190666588969	pulse	0.0	t		body	limb-92.jpg	0.0	97.96160587964914	
24.0	73.6017871012009	ISI	1.0		715	body	limb-92.jpg	0.0	98.06148631496035	6.016611975606793
24.0	74.20190343604554	pulse	1.0	t		body	limb-92.jpg	0.0	98.66160264980499	
24.0	74.90187877450808	pulse	1.0	t		body	limb-92.jpg	0.0	99.36157798826753	
24.0	75.60185441482463	pulse	1.0	t		body	limb-92.jpg	0.0	100.06155362858408	
24.0	76.30184092191485	pulse	1.0	t		body	limb-92.jpg	0.0	100.7615401356743	
24.0	77.00182048634451	pulse	1.0	t		body	limb-92.jpg	0.0	101.46151970010396	
24.0	77.70181423794929	pulse	1.0	t		body	limb-92.jpg	0.0	102.16151345170874	
24.0	78.40180074503951	pulse	1.0	t		body	limb-92.jpg	0.0	102.86149995879896	
24.0	79.10177789462978	pulse	1.0	t		body	limb-92.jpg	0.0	103.56147710838923	
25.0	79.61839907680769	car	0.0		46	object	car-139.jpg	0.0	104.07809829056714	0.38328648043534486
25.0	79.80180605768328	pulse	0.0	t		object	car-139.jpg	0.0	104.26150527144273	
25.0	80.00168555724304	ISI	1.0		595	object	car-139.jpg	0.0	104.46138477100249	5.016598392139713
25.0	80.50182908920397	pulse	1.0	t		object	car-139.jpg	0.0	104.96152830296342	
25.0	81.20180291839279	pulse	1.0	t		object	car-139.jpg	0.0	105.66150213215224	
25.0	81.9017918403224	pulse	1.0	t		object	car-139.jpg	0.0	106.36149105408185	
25.0	82.60178046039437	pulse	1.0	t		object	car-139.jpg	0.0	107.06147967415382	
25.0	83.30176998603565	pulse	1.0	t		object	car-139.jpg	0.0	107.7614691997951	
25.0	84.00174743747993	pulse	1.0	t		object	car-139.jpg	0.0	108.46144665123938	
25.0	84.7017372649716	pulse	1.0	t		object	car-139.jpg	0.0	109.16143647873105	
26.0	85.01828394938275	adult	0.0		46	face	adult-112.jpg	0.0	109.4779831631422	0.38329191382581485
26.0	85.40157586320856	ISI	1.0		235	face	adult-112.jpg	0.0	109.86127507696801	2.0166605742306274
26.0	85.43787601676013	pulse	1.0	t		face	adult-112.jpg	0.0	109.89757523051958	
26.0	86.10170876987831	pulse	1.0	t		face	adult-112.jpg	0.0	110.56140798363776	
26.0	86.80168169350145	pulse	1.0	t		face	adult-112.jpg	0.0	111.2613809072609	
27.0	87.41823643743919	house	0.0		46	place	house-63.jpg	0.0	111.87793565119864	0.3832765192273655
27.0	87.50162865761376	pulse	0.0	t		place	house-63.jpg	0.0	111.96132787137321	
27.0	87.80151295666656	ISI	1.0		355	place	house-63.jpg	0.0	112.261212170426	3.0166171071359713
27.0	88.20159826083545	pulse	1.0	t		place	house-63.jpg	0.0	112.6612974745949	
27.0	88.90159533284168	pulse	1.0	t		place	house-63.jpg	0.0	113.36129454660113	
27.0	89.60156644533708	pulse	1.0	t		place	house-63.jpg	0.0	114.06126565909653	
27.0	90.30155325428132	pulse	1.0	t		place	house-63.jpg	0.0	114.76125246804077	
28.0	90.81813006380253	house	0.0		46	place	house-73.jpg	0.0	115.27782927756198	0.3832928193878615
28.0	91.00154247806495	pulse	0.0	t		place	house-73.jpg	0.0	115.4612416918244	
28.0	91.20142288319039	ISI	1.0		354	place	house-73.jpg	0.0	115.66112209694984	3.016672346569976
28.0	91.70152687217342	pulse	1.0	t		place	house-73.jpg	0.0	116.16122608593287	
28.0	92.4015091532965	pulse	1.0	t		place	house-73.jpg	0.0	116.86120836705595	
28.0	93.10149384925535	pulse	1.0	t		place	house-73.jpg	0.0	117.5611930630148	
28.0	93.80154193472845	pulse	1.0	t		place	house-73.jpg	0.0	118.2612411484879	
29.0	94.21809522976037	limb	0.0		46	body	limb-22.jpg	0.0	118.67779444351982	0.38328436744996
29.0	94.5015012748845	pulse	0.0	t		body	limb-22.jpg	0.0	118.96120048864395	
29.0	94.60137959721033	ISI	1.0		234	body	limb-22.jpg	0.0	119.06107881096978	2.0166596686685807
29.0	95.20151766559866	pulse	1.0	t		body	limb-22.jpg	0.0	119.66121687935811	
29.0	95.90149813559401	pulse	1.0	t		body	limb-22.jpg	0.0	120.36119734935346	
30.0	96.6180392658789	limb	0.0		45	body	limb-47.jpg	0.0	121.07773847963836	0.3832904045484611
30.0	96.60849461687394	pulse	0.0	t		body	limb-47.jpg	0.0	121.06819383063339	
30.0	97.00132967042737	ISI	1.0		474	body	limb-47.jpg	0.0	121.46102888418682	4.016621333103103
30.0	97.30147688501529	pulse	1.0	t		body	limb-47.jpg	0.0	121.76117609877474	
30.0	98.00145916613837	pulse	1.0	t		body	limb-47.jpg	0.0	122.46115837989782	
30.0	98.7014495973417	pulse	1.0	t		body	limb-47.jpg	0.0	123.16114881110116	
30.0	99.40142161539916	pulse	1.0	t		body	limb-47.jpg	0.0	123.86112082915861	
30.0	100.10141053732877	pulse	1.0	t		body	limb-47.jpg	0.0	124.56110975108822	
30.0	100.80139885554672	pulse	1.0	t		body	limb-47.jpg	0.0	125.26109806930617	
31.0	101.01795100353047	number	0.0		46	character	number-37.jpg	0.0	125.47765021728992	0.383255087537691
31.0	101.40120609106816	ISI	1.0		234	character	number-37.jpg	0.0	125.86090530482761	2.0166605742306274
31.0	101.50138415522088	pulse	1.0	t		character	number-37.jpg	0.0	125.96108336898033	
31.0	102.20130183941365	pulse	1.0	t		character	number-37.jpg	0.0	126.6610010531731	
31.0	102.90128774279219	pulse	1.0	t		character	number-37.jpg	0.0	127.36098695655164	
32.0	103.41786666529879	house	0.0		46	place	house-136.jpg	0.0	127.87756587905824	0.38330368616152555
32.0	103.60127787214151	pulse	0.0	t		place	house-136.jpg	0.0	128.06097708590096	
32.0	103.80117035146031	ISI	1.0		355	place	house-136.jpg	0.0	128.26086956521976	3.016624653508188
32.0	104.30126437923172	pulse	1.0	t		place	house-136.jpg	0.0	128.76096359299117	
32.0	105.0012451510811	pulse	1.0	t		place	house-136.jpg	0.0	129.46094436484054	
32.0	105.7012265266385	pulse	1.0	t		place	house-136.jpg	0.0	130.16092574039794	
32.0	106.4012151467141	pulse	1.0	t		place	house-136.jpg	0.0	130.86091436047354	
33.0	106.8177950049685	house	0.0		46	place	house-136.jpg	1.0	131.27749421872795	0.3833214955920994
33.0	107.10123274484795	pulse	0.0	t		place	house-136.jpg	1.0	131.5609319586074	
33.0	107.2011165005606	ISI	1.0		235	place	house-136.jpg	1.0	131.66081571432005	2.0166605742306274
33.0	107.4845940852756	response	1.0	b		place	house-136.jpg	1.0	131.94429329903505	
33.0	107.80125487080659	pulse	1.0	t		place	house-136.jpg	1.0	132.26095408456604	
33.0	108.50123986862309	pulse	1.0	t		place	house-136.jpg	1.0	132.96093908238254	
34.0	109.21777707479123	car	0.0		45	object	car-124.jpg	0.0	133.67747628855068	0.3832904045484611
34.0	109.20831453029314	pulse	0.0	t		object	car-124.jpg	0.0	133.6680137440526	
34.0	109.60106747933969	ISI	1.0		955	object	car-124.jpg	0.0	134.06076669309914	8.01653228593932
34.0	109.90120352530357	pulse	1.0	t		object	car-124.jpg	0.0	134.36090273906302	
34.0	110.60119757876237	pulse	1.0	t		object	car-124.jpg	0.0	135.06089679252182	
34.0	111.301176539484	pulse	1.0	t		object	car-124.jpg	0.0	135.76087575324345	
34.0	112.00115821689542	pulse	1.0	t		object	car-124.jpg	0.0	136.46085743065487	
34.0	112.70115347777391	pulse	1.0	t		object	car-124.jpg	0.0	137.16085269153336	
34.0	113.40113666446268	pulse	1.0	t		object	car-124.jpg	0.0	137.86083587822213	
34.0	114.10111411590697	pulse	1.0	t		object	car-124.jpg	0.0	138.56081332966642	
34.0	114.8011105842088	pulse	1.0	t		object	car-124.jpg	0.0	139.26080979796825	
34.0	115.50108863936475	pulse	1.0	t		object	car-124.jpg	0.0	139.9607878531242	
34.0	116.20107756129073	pulse	1.0	t		object	car-124.jpg	0.0	140.66077677505018	
34.0	116.90107553886264	pulse	1.0	t		object	car-124.jpg	0.0	141.3607747526221	
35.0	117.61759976527901	limb	0.0		45	body	limb-6.jpg	0.0	142.07729897903846	0.38329070640247664
35.0	117.60813269295977	pulse	0.0	t		body	limb-6.jpg	0.0	142.06783190671922	
35.0	118.00089047168149	ISI	1.0		595	body	limb-6.jpg	0.0	142.46058968544094	5.016601108833129
35.0	118.30103466772198	pulse	1.0	t		body	limb-6.jpg	0.0	142.76073388148143	
35.0	119.00102268408591	pulse	1.0	t		body	limb-6.jpg	0.0	143.46072189784536	
35.0	119.70100768190241	pulse	1.0	t		body	limb-6.jpg	0.0	144.16070689566186	
35.0	120.40100324463856	pulse	1.0	t		body	limb-6.jpg	0.0	144.860702458398	
35.0	121.10096650890773	pulse	1.0	t		body	limb-6.jpg	0.0	145.56066572266718	
35.0	121.8009599586585	pulse	1.0	t		body	limb-6.jpg	0.0	146.26065917241795	
35.0	122.50094676760273	pulse	1.0	t		body	limb-6.jpg	0.0	146.96064598136218	
36.0	123.01749158051462	car	0.0		46	object	car-113.jpg	0.0	147.47719079427407	0.3832861785813293
36.0	123.20089946695589	pulse	0.0	t		object	car-113.jpg	0.0	147.66059868071534	
36.0	123.40077775909594	ISI	1.0		234	object	car-113.jpg	0.0	147.8604769728554	2.016663592778059
36.0	123.90091887622111	pulse	1.0	t		object	car-113.jpg	0.0	148.36061808998056	
36.0	124.60090236476026	pulse	1.0	t		object	car-113.jpg	0.0	149.0606015785197	
36.0	125.30088585330304	pulse	1.0	t		object	car-113.jpg	0.0	149.7605850670625	
37.0	125.417441351874	number	0.0		46	character	number-74.jpg	0.0	149.87714056563345	0.3832861785813293
37.0	125.80072753045533	ISI	1.0		595	character	number-74.jpg	0.0	150.26042674421478	5.016601712544798
37.0	126.00087658636039	pulse	1.0	t		character	number-74.jpg	0.0	150.46057580011984	
37.0	126.70085826377544	pulse	1.0	t		character	number-74.jpg	0.0	151.1605574775349	
37.0	127.40083873376716	pulse	1.0	t		character	number-74.jpg	0.0	151.8605379475266	
37.0	128.10083007053618	pulse	1.0	t		character	number-74.jpg	0.0	152.56052928429563	
37.0	128.8008129553673	pulse	1.0	t		character	number-74.jpg	0.0	153.26051216912674	
37.0	129.50079976431152	pulse	1.0	t		character	number-74.jpg	0.0	153.96049897807097	
37.0	130.20078596954772	pulse	1.0	t		character	number-74.jpg	0.0	154.66048518330717	
38.0	130.81732924300013	number	0.0		46	character	number-74.jpg	1.0	155.27702845675958	0.38326867100113304
38.0	130.90070787970762	pulse	0.0	t		character	number-74.jpg	1.0	155.36040709346707	
38.0	131.20059791400126	ISI	1.0		714	character	number-74.jpg	1.0	155.6602971277607	6.0165938643185655
38.0	131.6006922738161	pulse	1.0	t		character	number-74.jpg	1.0	156.06039148757554	
38.0	131.93399672970554	response	1.0	b		character	number-74.jpg	1.0	156.393695943465	
38.0	132.30066157518013	pulse	1.0	t		character	number-74.jpg	1.0	156.76036078893958	
38.0	133.00065683606226	pulse	1.0	t		character	number-74.jpg	1.0	157.4603560498217	
38.0	133.70063911718535	pulse	1.0	t		character	number-74.jpg	1.0	158.1603383309448	
38.0	134.40062803911133	pulse	1.0	t		character	number-74.jpg	1.0	158.86032725287077	
38.0	135.10060609426728	pulse	1.0	t		character	number-74.jpg	1.0	159.56030530802673	
38.0	135.8005938087772	pulse	1.0	t		character	number-74.jpg	1.0	160.26029302253664	
38.0	136.50058423998053	pulse	1.0	t		character	number-74.jpg	1.0	160.96028345373998	
39.0	137.21719177831983	house	0.0		45	place	house-125.jpg	0.0	161.67689099207928	0.3832907064061146
39.0	137.2077751157558	pulse	0.0	t		place	house-125.jpg	0.0	161.66747432951524	
39.0	137.60048248472594	ISI	1.0		235	place	house-125.jpg	0.0	162.0601816984854	2.0166623853583587
39.0	137.90062819004015	pulse	1.0	t		place	house-125.jpg	0.0	162.3603274037996	
39.0	138.600602321083	pulse	1.0	t		place	house-125.jpg	0.0	163.06030153484244	
39.0	139.30059063930094	pulse	1.0	t		place	house-125.jpg	0.0	163.76028985306039	
40.0	139.6171448700843	car	0.0		46	object	car-104.jpg	0.0	164.07684408384375	0.38328708414701396
40.0	140.00043195423132	ISI	1.0		233	object	car-104.jpg	0.0	164.46013116799077	2.0166599705189583
40.0	140.05337004290413	pulse	1.0	t		object	car-104.jpg	0.0	164.51306925666358	
40.0	140.70057844436815	pulse	1.0	t		object	car-104.jpg	0.0	165.1602776581276	
40.0	141.40055076428325	pulse	1.0	t		object	car-104.jpg	0.0	165.8602499780427	
41.0	142.01709192475028	number	0.0		46	character	number-107.jpg	0.0	166.47679113850972	0.38325810608512256
41.0	142.10047448557089	pulse	0.0	t		character	number-107.jpg	0.0	166.56017369933033	
41.0	142.4003500308354	ISI	1.0		475	character	number-107.jpg	0.0	166.86004924459485	4.0166183145556715
41.0	142.80045525742025	pulse	1.0	t		character	number-107.jpg	0.0	167.2601544711797	
41.0	143.5004330107222	pulse	1.0	t		character	number-107.jpg	0.0	167.96013222448164	
41.0	144.20043551611525	pulse	1.0	t		character	number-107.jpg	0.0	168.6601347298747	
41.0	144.9004274565923	pulse	1.0	t		character	number-107.jpg	0.0	169.36012667035175	
41.0	145.60039223013882	pulse	1.0	t		character	number-107.jpg	0.0	170.06009144389827	
41.0	146.30037541682395	pulse	1.0	t		character	number-107.jpg	0.0	170.7600746305834	
42.0	146.41696834539107	car	0.0		46	object	car-144.jpg	0.0	170.87666755915052	0.3832882915667142
42.0	146.80025663695778	ISI	1.0		234	object	car-144.jpg	0.0	171.25995585071723	2.0166970986610977
42.0	147.00037158326813	pulse	1.0	t		object	car-144.jpg	0.0	171.46007079702758	
42.0	147.7003520532635	pulse	1.0	t		object	car-144.jpg	0.0	172.16005126702294	
42.0	148.40040557211978	pulse	1.0	t		object	car-144.jpg	0.0	172.86010478587923	
43.0	148.81695373561888	limb	0.0		46	body	limb-55.jpg	0.0	173.27665294937833	0.3832852730192826
43.0	149.10035585663354	pulse	0.0	t		body	limb-55.jpg	0.0	173.560055070393	
43.0	149.20023900863816	ISI	1.0		234	body	limb-55.jpg	0.0	173.6599382223976	2.0166569519715267
43.0	149.8003785863002	pulse	1.0	t		body	limb-55.jpg	0.0	174.26007780005966	
43.0	150.500362376697	pulse	1.0	t		body	limb-55.jpg	0.0	174.96006159045646	
44.0	151.2168959606097	limb	0.0		45	body	limb-77.jpg	0.0	175.67659517436914	0.3832922156761924
44.0	151.20736278208642	pulse	0.0	t		body	limb-77.jpg	0.0	175.66706199584587	
44.0	151.60018817628588	ISI	1.0		354	body	limb-77.jpg	0.0	176.05988739004533	3.0166424629424
44.0	151.9003613503919	pulse	1.0	t		body	limb-77.jpg	0.0	176.36006056415135	
44.0	152.60031706828886	pulse	1.0	t		body	limb-77.jpg	0.0	177.0600162820483	
44.0	153.30030297167104	pulse	1.0	t		body	limb-77.jpg	0.0	177.7600021854305	
44.0	154.00028193238904	pulse	1.0	t		body	limb-77.jpg	0.0	178.4599811461485	
45.0	154.61683063922828	limb	0.0		46	body	limb-78.jpg	0.0	179.07652985298773	0.3832888952747453
45.0	154.70024308367647	pulse	0.0	t		body	limb-78.jpg	0.0	179.15994229743592	
45.0	155.00011953450303	ISI	1.0		354	body	limb-78.jpg	0.0	179.45981874826248	3.0166409536686842
45.0	155.4002486076206	pulse	1.0	t		body	limb-78.jpg	0.0	179.85994782138005	
45.0	156.10023662398453	pulse	1.0	t		body	limb-78.jpg	0.0	180.55993583774398	
45.0	156.80022614962218	pulse	1.0	t		body	limb-78.jpg	0.0	181.25992536338163	
45.0	157.50020963816496	pulse	1.0	t		body	limb-78.jpg	0.0	181.9599088519244	
46.0	158.0167604881717	house	0.0		46	place	house-135.jpg	0.0	182.47645970193116	0.3832852730192826
46.0	158.20030813338963	pulse	0.0	t		place	house-135.jpg	0.0	182.66000734714908	
46.0	158.400045761191	ISI	1.0		355	place	house-135.jpg	0.0	182.85974497495044	3.016647896325594
46.0	158.90018929315193	pulse	1.0	t		place	house-135.jpg	0.0	183.35988850691137	
46.0	159.6001703668553	pulse	1.0	t		place	house-135.jpg	0.0	184.05986958061476	
46.0	160.30015747765356	pulse	1.0	t		place	house-135.jpg	0.0	184.759856691413	
46.0	161.00013855135694	pulse	1.0	t		place	house-135.jpg	0.0	185.4598377651164	
47.0	161.4166936575166	house	0.0		46	place	house-60.jpg	0.0	185.87639287127604	0.38328074519813526
47.0	161.70009457111155	pulse	0.0	t		place	house-60.jpg	0.0	186.159793784871	
47.0	161.79997440271472	ISI	1.0		835	place	house-60.jpg	0.0	186.25967361647417	7.016561263997573
47.0	162.40011518779647	pulse	1.0	t		place	house-60.jpg	0.0	186.85981440155592	
47.0	163.1000944503685	pulse	1.0	t		place	house-60.jpg	0.0	187.55979366412794	
47.0	163.80008005189666	pulse	1.0	t		place	house-60.jpg	0.0	188.2597792656561	
47.0	164.50009825374218	pulse	1.0	t		place	house-60.jpg	0.0	188.95979746750163	
47.0	165.20005034938367	pulse	1.0	t		place	house-60.jpg	0.0	189.65974956314312	
47.0	165.9000344416345	pulse	1.0	t		place	house-60.jpg	0.0	190.35973365539394	
47.0	166.6000233635641	pulse	1.0	t		place	house-60.jpg	0.0	191.05972257732356	
47.0	167.30000383355582	pulse	1.0	t		place	house-60.jpg	0.0	191.75970304731527	
47.0	167.9999975851606	pulse	1.0	t		place	house-60.jpg	0.0	192.45969679892005	
47.0	168.69998107370338	pulse	1.0	t		place	house-60.jpg	0.0	193.15968028746283	
48.0	168.8165356667123	adult	0.0		46	face	adult-17.jpg	0.0	193.27623488047175	0.38325357826033724
48.0	169.19978924497264	ISI	1.0		235	face	adult-17.jpg	0.0	193.65948845873208	2.016658763102896
48.0	169.39990358757495	pulse	1.0	t		face	adult-17.jpg	0.0	193.8596028013344	
48.0	170.09988073716522	pulse	1.0	t		face	adult-17.jpg	0.0	194.55957995092467	
48.0	170.79986814982112	pulse	1.0	t		face	adult-17.jpg	0.0	195.25956736358057	
49.0	171.21644800807553	adult	0.0		46	face	adult-36.jpg	0.0	195.67614722183498	0.38329946019439376
49.0	171.49986009029817	pulse	0.0	t		face	adult-36.jpg	0.0	195.95955930405762	
49.0	171.59974746826992	ISI	1.0		595	face	adult-36.jpg	0.0	196.05944668202937	5.016624351654173
49.0	172.19984961593582	pulse	1.0	t		face	adult-36.jpg	0.0	196.65954882969527	
49.0	172.8998270673801	pulse	1.0	t		face	adult-36.jpg	0.0	197.35952628113955	
49.0	173.59980844294114	pulse	1.0	t		face	adult-36.jpg	0.0	198.0595076567006	
49.0	174.2997931389	pulse	1.0	t		face	adult-36.jpg	0.0	198.75949235265944	
49.0	174.99984454477453	pulse	1.0	t		face	adult-36.jpg	0.0	199.45954375853398	
49.0	175.69983316485013	pulse	1.0	t		face	adult-36.jpg	0.0	200.15953237860958	
49.0	176.3998193700827	pulse	1.0	t		face	adult-36.jpg	0.0	200.85951858384215	
50.0	176.6163718199241	house	0.0		46	place	house-34.jpg	0.0	201.07607103368355	0.38328587672367576
50.0	176.99965769664777	ISI	1.0		235	place	house-34.jpg	0.0	201.45935691040722	2.016664196489728
50.0	177.09980859386633	pulse	1.0	t		place	house-34.jpg	0.0	201.55950780762578	
50.0	177.7997908749894	pulse	1.0	t		place	house-34.jpg	0.0	202.25949008874886	
50.0	178.49977768393364	pulse	1.0	t		place	house-34.jpg	0.0	202.9594768976931	
51.0	179.0163218931375	car	0.0		46	object	car-4.jpg	0.0	203.47602110689695	0.3832846693076135
51.0	179.1997267610277	pulse	0.0	t		object	car-4.jpg	0.0	203.65942597478715	
51.0	179.39960656244511	ISI	1.0		355	object	car-4.jpg	0.0	203.85930577620456	3.0166409536686842
51.0	179.89974949069438	pulse	1.0	t		object	car-4.jpg	0.0	204.35944870445383	
51.0	180.5997308662554	pulse	1.0	t		object	car-4.jpg	0.0	205.05943008001486	
51.0	181.29971556221426	pulse	1.0	t		object	car-4.jpg	0.0	205.7594147759737	
51.0	181.99969754148333	pulse	1.0	t		object	car-4.jpg	0.0	206.45939675524278	
52.0	182.4162475161138	adult	0.0		46	face	adult-88.jpg	0.0	206.87594672987325	0.3832572005194379
52.0	182.69962307390233	pulse	0.0	t		face	adult-88.jpg	0.0	207.15932228766178	
52.0	182.79950471663324	ISI	1.0		234	face	adult-88.jpg	0.0	207.2592039303927	2.016660876084643
52.0	183.39960686429913	pulse	1.0	t		face	adult-88.jpg	0.0	207.85930607805858	
52.0	184.09959337138935	pulse	1.0	t		face	adult-88.jpg	0.0	208.5592925851488	
53.0	184.81616559271788	house	0.0		45	place	house-66.jpg	0.0	209.27586480647733	0.3833012713221251
53.0	184.80656027089572	pulse	0.0	t		place	house-66.jpg	0.0	209.26625948465517	
53.0	185.19946686404	ISI	1.0		355	place	house-66.jpg	0.0	209.65916607779945	3.016626766493573
53.0	185.49956246145666	pulse	1.0	t		place	house-66.jpg	0.0	209.9592616752161	
53.0	186.19955983532054	pulse	1.0	t		place	house-66.jpg	0.0	210.65925904908	
53.0	186.8995330607977	pulse	1.0	t		place	house-66.jpg	0.0	211.35923227455714	
53.0	187.59951866232586	pulse	1.0	t		place	house-66.jpg	0.0	212.0592178760853	
54.0	188.21609363053358	car	0.0		46	object	car-27.jpg	0.0	212.67579284429303	0.38332511785120005
54.0	188.29950637683578	pulse	0.0	t		object	car-27.jpg	0.0	212.75920559059523	
54.0	188.59941874838478	ISI	1.0		235	object	car-27.jpg	0.0	213.05911796214423	2.0166590649569116
54.0	188.99955506601327	pulse	1.0	t		object	car-27.jpg	0.0	213.45925427977272	
54.0	189.69954730834797	pulse	1.0	t		object	car-27.jpg	0.0	214.15924652210742	
54.0	190.3995289857594	pulse	1.0	t		object	car-27.jpg	0.0	214.85922819951884	
55.0	190.6160778133417	number	0.0		46	character	number-105.jpg	0.0	215.07577702710114	0.3832861785813293
55.0	190.99936399192302	ISI	1.0		235	character	number-105.jpg	0.0	215.45906320568247	2.0166638946320745
55.0	191.09952032252477	pulse	1.0	t		character	number-105.jpg	0.0	215.55921953628422	
55.0	191.79953309098346	pulse	1.0	t		character	number-105.jpg	0.0	216.2592323047429	
55.0	192.49947975324176	pulse	1.0	t		character	number-105.jpg	0.0	216.9591789670012	
56.0	193.0160278865551	adult	0.0		46	face	adult-2.jpg	0.0	217.47572710031454	0.38328708414701396
56.0	193.19943698041243	pulse	0.0	t		face	adult-2.jpg	0.0	217.65913619417188	
56.0	193.3993149707021	ISI	1.0		474	face	adult-2.jpg	0.0	217.85901418446156	4.01661650342794
56.0	193.89945759709735	pulse	1.0	t		face	adult-2.jpg	0.0	218.3591568108568	
56.0	194.5994356522533	pulse	1.0	t		face	adult-2.jpg	0.0	219.05913486601276	
56.0	195.2994562689346	pulse	1.0	t		face	adult-2.jpg	0.0	219.75915548269404	
56.0	195.99940474232062	pulse	1.0	t		face	adult-2.jpg	0.0	220.45910395608007	
56.0	196.6993984939254	pulse	1.0	t		face	adult-2.jpg	0.0	221.15909770768485	
57.0	197.41593147413005	number	0.0		45	character	number-125.jpg	0.0	221.8756306878895	0.3832910082564922
57.0	197.40660536800715	pulse	0.0	t		character	number-125.jpg	0.0	221.8663045817666	
57.0	197.79922248238654	ISI	1.0		355	character	number-125.jpg	0.0	222.258921696146	3.0166421610883845
57.0	198.09937030068613	pulse	1.0	t		character	number-125.jpg	0.0	222.55906951444558	
57.0	198.79934926140777	pulse	1.0	t		character	number-125.jpg	0.0	223.25904847516722	
57.0	199.4993490501074	pulse	1.0	t		character	number-125.jpg	0.0	223.95904826386686	
57.0	200.1993219737342	pulse	1.0	t		character	number-125.jpg	0.0	224.65902118749364	
58.0	200.81586464347492	house	0.0		46	place	house-4.jpg	0.0	225.27556385723437	0.3832867822929984
58.0	200.899273465664	pulse	0.0	t		place	house-4.jpg	0.0	225.35897267942346	
58.0	201.19915142576792	ISI	1.0		233	place	house-4.jpg	0.0	225.65885063952737	2.0166654039057903
58.0	201.59929619533068	pulse	1.0	t		place	house-4.jpg	0.0	226.05899540909013	
58.0	202.299276061618	pulse	1.0	t		place	house-4.jpg	0.0	226.75897527537745	
58.0	202.99925894644912	pulse	1.0	t		place	house-4.jpg	0.0	227.45895816020857	
59.0	203.2158168296737	number	0.0		47	character	number-79.jpg	0.0	227.67551604343316	0.3915853746511857
59.0	203.6074022043249	ISI	1.0		475	character	number-79.jpg	0.0	228.06710141808435	4.016618918267341
59.0	203.69920138273665	pulse	1.0	t		character	number-79.jpg	0.0	228.1589005964961	
59.0	204.39916585442552	pulse	1.0	t		character	number-79.jpg	0.0	228.85886506818497	
59.0	205.099150248534	pulse	1.0	t		character	number-79.jpg	0.0	229.55884946229344	
59.0	205.79913856675194	pulse	1.0	t		character	number-79.jpg	0.0	230.25883778051139	
59.0	206.49915012779093	pulse	1.0	t		character	number-79.jpg	0.0	230.95884934155038	
59.0	207.19910886423895	pulse	1.0	t		character	number-79.jpg	0.0	231.6588080779984	
60.0	207.62402112259224	house	0.0		46	place	house-89.jpg	0.0	232.0837203363517	0.3832888952747453
60.0	207.89909748431091	pulse	0.0	t		place	house-89.jpg	0.0	232.35879669807036	
60.0	208.00731001786698	ISI	1.0		234	place	house-89.jpg	0.0	232.46700923162643	2.025030404325662
60.0	208.59908006729165	pulse	1.0	t		place	house-89.jpg	0.0	233.0587792810511	
60.0	209.29912724719543	pulse	1.0	t		place	house-89.jpg	0.0	233.75882646095488	
60.0	209.99913096001183	pulse	1.0	t		place	house-89.jpg	0.0	234.45883017377128	
61.0	210.03234042219265	house	0.0		45	place	house-118.jpg	0.0	234.4920396359521	0.37495075993501814
61.0	210.40729118212766	ISI	1.0		235	place	house-118.jpg	0.0	234.86699039588711	2.016664196489728
61.0	210.6991032799233	pulse	1.0	t		place	house-118.jpg	0.0	235.15880249368274	
61.0	211.39909974822513	pulse	1.0	t		place	house-118.jpg	0.0	235.85879896198458	
61.0	212.09906814402348	pulse	1.0	t		place	house-118.jpg	0.0	236.55876735778293	
62.0	212.4239553786174	house	0.0		46	place	house-117.jpg	0.0	236.88365459237684	0.3832553893880686
62.0	212.79899428015415	pulse	0.0	t		place	house-117.jpg	0.0	237.2586934939136	
62.0	212.80721076800546	ISI	1.0		355	place	house-117.jpg	0.0	237.2669099817649	3.016639746248984
62.0	213.49897625942322	pulse	1.0	t		place	house-117.jpg	0.0	237.95867547318267	
62.0	214.19896216280176	pulse	1.0	t		place	house-117.jpg	0.0	238.6586613765612	
62.0	214.89894202908545	pulse	1.0	t		place	house-117.jpg	0.0	239.3586412428449	
62.0	215.59892944174135	pulse	1.0	t		place	house-117.jpg	0.0	240.0586286555008	
63.0	215.82385051425445	car	0.0		46	object	car-18.jpg	0.0	240.2835497280139	0.3832873860010295
63.0	216.20713790025547	ISI	1.0		475	object	car-18.jpg	0.0	240.66683711401492	4.01665363157008
63.0	216.29892198592643	pulse	1.0	t		object	car-18.jpg	0.0	240.75862119968588	
63.0	216.9988937021335	pulse	1.0	t		object	car-18.jpg	0.0	241.45859291589295	
63.0	217.6988904722857	pulse	1.0	t		object	car-18.jpg	0.0	242.15858968604516	
63.0	218.39887094228106	pulse	1.0	t		object	car-18.jpg	0.0	242.8585701560405	
63.0	219.0989184240425	pulse	1.0	t		object	car-18.jpg	0.0	243.55861763780194	
63.0	219.79890704411446	pulse	1.0	t		object	car-18.jpg	0.0	244.2586062578739	
64.0	220.22379153182555	car	0.0		46	object	car-36.jpg	0.0	244.683490745585	0.38328708414701396
64.0	220.49886095088732	pulse	0.0	t		object	car-36.jpg	0.0	244.95856016464677	
64.0	220.60707861597257	ISI	1.0		234	object	car-36.jpg	0.0	245.06677782973202	2.0249965965849697
64.0	221.198883982408	pulse	1.0	t		object	car-36.jpg	0.0	245.65858319616746	
64.0	221.89885962272456	pulse	1.0	t		object	car-36.jpg	0.0	246.358558836484	
64.0	222.5988491483622	pulse	1.0	t		object	car-36.jpg	0.0	247.05854836212166	
65.0	222.63207521255754	limb	0.0		45	body	limb-2.jpg	0.0	247.091774426317	0.3749516655007028
65.0	223.00702687805824	ISI	1.0		239	body	limb-2.jpg	0.0	247.4667260918177	1.999995170324837
65.0	223.29884742779177	pulse	1.0	t		body	limb-2.jpg	0.0	247.75854664155122	
65.0	223.99881703100982	pulse	1.0	t		body	limb-2.jpg	0.0	248.45851624476927	
65.0	224.69881017890657	pulse	1.0	t		body	limb-2.jpg	0.0	249.15850939266602	
66.0	225.00702204838308	baseline	0.0		708		baseline	0.0	249.46672126214253	5.899879288259399
66.0	225.3987957804311	pulse	0.0	t			baseline	0.0	249.85849499419055	
66.0	226.09877625042645	pulse	0.0	t			baseline	0.0	250.5584754641859	
66.0	226.79876215380864	pulse	0.0	t			baseline	0.0	251.2584613675681	
66.0	227.49874624605945	pulse	0.0	t			baseline	0.0	251.9584454598189	
66.0	228.19873607355112	pulse	0.0	t			baseline	0.0	252.65843528731057	
66.0	228.8987159398348	pulse	0.0	t			baseline	0.0	253.35841515359425	
66.0	229.59871210627898	pulse	0.0	t			baseline	0.0	254.05841132003843	
66.0	230.29870706530346	pulse	0.0	t			baseline	0.0	254.7584062790629	
66.0	230.90690133664248	ISI	1.0		12		baseline	0.0	255.36660055040193	0.1000051013470511
66.0	230.9986977983608	pulse	1.0	t			baseline	0.0	255.45839701212026	
