trial_nr	onset	event_type	phase	response	nr_frames	face_age	face_sex	face_eth	attractiveness	expression	face_id	sub_id	ses	run	trial_type	catch	rating_type	onset_abs	duration
-1.0	0.059356729294449906	fix	0.0		713													37.44840712727455	5.957962793980187
-1.0	0.7008712435290363	pulse	0.0	t														38.089921641509136	
-1.0	1.400848393121123	pulse	0.0	t														38.78989879110122	
-1.0	2.100830070534357	pulse	0.0	t														39.48988046851446	
-1.0	2.8008096349640255	pulse	0.0	t														40.189860032944125	
-1.0	3.500807914391771	pulse	0.0	t														40.88985831237187	
-1.0	4.200784158418173	pulse	0.0	t														41.58983455639827	
-1.0	4.900777910022953	pulse	0.0	t														42.28982830800305	
-1.0	5.600760794855887	pulse	0.0	t														42.98981119283599	
0.0	6.017319523274637	face	0.0		144	20.0	male	black	3.1070433744528456	neutral	082	sub-04	2.0	4.0	082_neutral	1.0	dominance	43.406369921254736	1.2332996563982306
0.0	6.300753037186951	pulse	0.0	t		20.0	male	black	3.1070433744528456	neutral	082	sub-04	2.0	4.0	082_neutral	1.0	dominance	43.68980343516705	
0.0	7.000734110890335	pulse	0.0	t		20.0	male	black	3.1070433744528456	neutral	082	sub-04	2.0	4.0	082_neutral	1.0	dominance	44.389784508870434	
0.0	7.250619179672867	fix	1.0		177	20.0	male	black	3.1070433744528456	neutral	082	sub-04	2.0	4.0	082_neutral	1.0	dominance	44.63966957765297	1.5083391918324196
0.0	7.700724542093667	pulse	1.0	t		20.0	male	black	3.1070433744528456	neutral	082	sub-04	2.0	4.0	082_neutral	1.0	dominance	45.08977494007377	
0.0	8.400702295393785	pulse	1.0	t		20.0	male	black	3.1070433744528456	neutral	082	sub-04	2.0	4.0	082_neutral	1.0	dominance	45.789752693373885	
0.0	8.758958371505287	rating	2.0		293	20.0	male	black	3.1070433744528456	neutral	082	sub-04	2.0	4.0	082_neutral	1.0	dominance	46.148008769485386	2.4915756851114566
0.0	9.10069876369198	pulse	2.0	t		20.0	male	black	3.1070433744528456	neutral	082	sub-04	2.0	4.0	082_neutral	1.0	dominance	46.48974916167208	
0.0	9.800680139251199	pulse	2.0	t		20.0	male	black	3.1070433744528456	neutral	082	sub-04	2.0	4.0	082_neutral	1.0	dominance	47.1897305372313	
0.0	10.178771094744661	response	2.0	w		20.0	male	black	3.1070433744528456	neutral	082	sub-04	2.0	4.0	082_neutral	1.0	dominance	47.56782149272476	
0.0	10.500656081423585	pulse	2.0	t		20.0	male	black	3.1070433744528456	neutral	082	sub-04	2.0	4.0	082_neutral	1.0	dominance	47.889706479403685	
0.0	11.200647720044799	pulse	2.0	t		20.0	male	black	3.1070433744528456	neutral	082	sub-04	2.0	4.0	082_neutral	1.0	dominance	48.5896981180249	
0.0	11.250534056616743	fix	3.0		444	20.0	male	black	3.1070433744528456	neutral	082	sub-04	2.0	4.0	082_neutral	1.0	dominance	48.63958445459684	3.7582532386768435
0.0	11.90063573640873	pulse	3.0	t		20.0	male	black	3.1070433744528456	neutral	082	sub-04	2.0	4.0	082_neutral	1.0	dominance	49.28968613438883	
0.0	12.600613489708849	pulse	3.0	t		20.0	male	black	3.1070433744528456	neutral	082	sub-04	2.0	4.0	082_neutral	1.0	dominance	49.98966388768895	
0.0	13.300596374541783	pulse	3.0	t		20.0	male	black	3.1070433744528456	neutral	082	sub-04	2.0	4.0	082_neutral	1.0	dominance	50.68964677252188	
0.0	14.000586202035265	pulse	3.0	t		20.0	male	black	3.1070433744528456	neutral	082	sub-04	2.0	4.0	082_neutral	1.0	dominance	51.389636600015365	
0.0	14.700571803561616	pulse	3.0	t		20.0	male	black	3.1070433744528456	neutral	082	sub-04	2.0	4.0	082_neutral	1.0	dominance	52.089622201541715	
1.0	15.008787295293587	face	0.0		146	47.0	male	east_asian	2.171110226820533	smiling	024	sub-04	2.0	4.0	024_smiling	0.0		52.39783769327369	1.2416565067360352
1.0	15.400562234763129	pulse	0.0	t		47.0	male	east_asian	2.171110226820533	smiling	024	sub-04	2.0	4.0	024_smiling	0.0		52.78961263274323	
1.0	16.10053908249938	pulse	0.0	t		47.0	male	east_asian	2.171110226820533	smiling	024	sub-04	2.0	4.0	024_smiling	0.0		53.48958948047948	
1.0	16.250443802029622	fix	1.0		446	47.0	male	east_asian	2.171110226820533	smiling	024	sub-04	2.0	4.0	024_smiling	0.0		53.63949420000972	3.7583151189119235
1.0	16.800534343379695	pulse	1.0	t		47.0	male	east_asian	2.171110226820533	smiling	024	sub-04	2.0	4.0	024_smiling	0.0		54.189584741359795	
1.0	17.500515718937095	pulse	1.0	t		47.0	male	east_asian	2.171110226820533	smiling	024	sub-04	2.0	4.0	024_smiling	0.0		54.889566116917194	
1.0	18.200498905624045	pulse	1.0	t		47.0	male	east_asian	2.171110226820533	smiling	024	sub-04	2.0	4.0	024_smiling	0.0		55.589549303604144	
1.0	18.900476357070147	pulse	1.0	t		47.0	male	east_asian	2.171110226820533	smiling	024	sub-04	2.0	4.0	024_smiling	0.0		56.28952675505025	
1.0	19.600474938353727	pulse	1.0	t		47.0	male	east_asian	2.171110226820533	smiling	024	sub-04	2.0	4.0	024_smiling	0.0		56.98952533633383	
2.0	20.008758920941546	face	0.0		146	40.0	male	white	1.868682849184242	neutral	172	sub-04	2.0	4.0	172_neutral	0.0		57.397809318921645	1.2415683651324798
2.0	20.300463256571675	pulse	0.0	t		40.0	male	white	1.868682849184242	neutral	172	sub-04	2.0	4.0	172_neutral	0.0		57.689513654551774	
2.0	21.00043799132436	pulse	0.0	t		40.0	male	white	1.868682849184242	neutral	172	sub-04	2.0	4.0	172_neutral	0.0		58.38948838930446	
2.0	21.250327286074025	fix	1.0		445	40.0	male	white	1.868682849184242	neutral	172	sub-04	2.0	4.0	172_neutral	0.0		58.639377684054125	3.766585638773904
2.0	21.70042993180141	pulse	1.0	t		40.0	male	white	1.868682849184242	neutral	172	sub-04	2.0	4.0	172_neutral	0.0		59.08948032978151	
2.0	22.400409798085093	pulse	1.0	t		40.0	male	white	1.868682849184242	neutral	172	sub-04	2.0	4.0	172_neutral	0.0		59.78946019606519	
2.0	23.10039177735416	pulse	1.0	t		40.0	male	white	1.868682849184242	neutral	172	sub-04	2.0	4.0	172_neutral	0.0		60.48944217533426	
2.0	23.80038492524909	pulse	1.0	t		40.0	male	white	1.868682849184242	neutral	172	sub-04	2.0	4.0	172_neutral	0.0		61.18943532322919	
2.0	24.500373545322873	pulse	1.0	t		40.0	male	white	1.868682849184242	neutral	172	sub-04	2.0	4.0	172_neutral	0.0		61.88942394330297	
3.0	25.01691292484793	face	0.0		145	31.0	female	east_asian	3.395941106247513	smiling	087	sub-04	2.0	4.0	087_smiling	0.0		62.40596332282803	1.2333241066389746
3.0	25.20036246725249	pulse	0.0	t		31.0	female	east_asian	3.395941106247513	smiling	087	sub-04	2.0	4.0	087_smiling	0.0		62.58941286523259	
3.0	25.900334183455925	pulse	0.0	t		31.0	female	east_asian	3.395941106247513	smiling	087	sub-04	2.0	4.0	087_smiling	0.0		63.289384581436025	
3.0	26.250237031486904	fix	1.0		444	31.0	female	east_asian	3.395941106247513	smiling	087	sub-04	2.0	4.0	087_smiling	0.0		63.639287429467004	3.7583232689903525
3.0	26.600329746190255	pulse	1.0	t		31.0	female	east_asian	3.395941106247513	smiling	087	sub-04	2.0	4.0	087_smiling	0.0		63.989380144170354	
3.0	27.30030508465279	pulse	1.0	t		31.0	female	east_asian	3.395941106247513	smiling	087	sub-04	2.0	4.0	087_smiling	0.0		64.68935548263289	
3.0	28.00029521400029	pulse	1.0	t		31.0	female	east_asian	3.395941106247513	smiling	087	sub-04	2.0	4.0	087_smiling	0.0		65.38934561198039	
3.0	28.700279909962774	pulse	1.0	t		31.0	female	east_asian	3.395941106247513	smiling	087	sub-04	2.0	4.0	087_smiling	0.0		66.08933030794287	
3.0	29.40026702076284	pulse	1.0	t		31.0	female	east_asian	3.395941106247513	smiling	087	sub-04	2.0	4.0	087_smiling	0.0		66.78931741874294	
4.0	30.008560300477257	face	0.0		146	30.0	female	black	2.7345801830481498	neutral	062	sub-04	2.0	4.0	062_neutral	0.0		67.39761069845736	1.2415698744080146
4.0	30.10026137607747	pulse	0.0	t		30.0	female	black	2.7345801830481498	neutral	062	sub-04	2.0	4.0	062_neutral	0.0		67.48931177405757	
4.0	30.800233092280905	pulse	0.0	t		30.0	female	black	2.7345801830481498	neutral	062	sub-04	2.0	4.0	062_neutral	0.0		68.189283490261	
4.0	31.25013017488527	fix	1.0		444	30.0	female	black	2.7345801830481498	neutral	062	sub-04	2.0	4.0	062_neutral	0.0		68.63918057286537	3.758235731096647
4.0	31.500226843887503	pulse	1.0	t		30.0	female	black	2.7345801830481498	neutral	062	sub-04	2.0	4.0	062_neutral	0.0		68.8892772418676	
4.0	32.20021878436455	pulse	1.0	t		30.0	female	black	2.7345801830481498	neutral	062	sub-04	2.0	4.0	062_neutral	0.0		69.58926918234465	
4.0	32.90018778387457	pulse	1.0	t		30.0	female	black	2.7345801830481498	neutral	062	sub-04	2.0	4.0	062_neutral	0.0		70.28923818185467	
4.0	33.600179422497604	pulse	1.0	t		30.0	female	black	2.7345801830481498	neutral	062	sub-04	2.0	4.0	062_neutral	0.0		70.9892298204777	
4.0	34.30017166482867	pulse	1.0	t		30.0	female	black	2.7345801830481498	neutral	062	sub-04	2.0	4.0	062_neutral	0.0		71.68922206280877	
5.0	35.00836590598192	face	0.0		147	31.0	male	west_asian	1.9538400318344609	smiling	070	sub-04	2.0	4.0	070_smiling	0.0		72.39741630396202	1.2416480548017717
5.0	35.00208642042708	pulse	0.0	t		31.0	male	west_asian	1.9538400318344609	smiling	070	sub-04	2.0	4.0	070_smiling	0.0		72.39113681840718	
5.0	35.70013803820257	pulse	0.0	t		31.0	male	west_asian	1.9538400318344609	smiling	070	sub-04	2.0	4.0	070_smiling	0.0		73.08918843618267	
5.0	36.25001396078369	fix	1.0		443	31.0	male	west_asian	1.9538400318344609	smiling	070	sub-04	2.0	4.0	070_smiling	0.0		73.63906435876379	3.766586242485573
5.0	36.40012786569605	pulse	1.0	t		31.0	male	west_asian	1.9538400318344609	smiling	070	sub-04	2.0	4.0	070_smiling	0.0		73.78917826367615	
5.0	37.10010531714215	pulse	1.0	t		31.0	male	west_asian	1.9538400318344609	smiling	070	sub-04	2.0	4.0	070_smiling	0.0		74.48915571512225	
5.0	37.800084579715985	pulse	1.0	t		31.0	male	west_asian	1.9538400318344609	smiling	070	sub-04	2.0	4.0	070_smiling	0.0		75.18913497769609	
5.0	38.50007169051605	pulse	1.0	t		31.0	male	west_asian	1.9538400318344609	smiling	070	sub-04	2.0	4.0	070_smiling	0.0		75.88912208849615	
5.0	39.200066951396366	pulse	1.0	t		31.0	male	west_asian	1.9538400318344609	smiling	070	sub-04	2.0	4.0	070_smiling	0.0		76.58911734937647	
5.0	39.900047723243915	pulse	1.0	t		31.0	male	west_asian	1.9538400318344609	smiling	070	sub-04	2.0	4.0	070_smiling	0.0		77.28909812122401	
6.0	40.01660020326926	face	0.0		146	21.0	male	black	2.969757262236371	smiling	137	sub-04	2.0	4.0	137_smiling	0.0		77.40565060124936	1.2333093157521944
6.0	40.60003906001111	pulse	0.0	t		21.0	male	black	2.969757262236371	smiling	137	sub-04	2.0	4.0	137_smiling	0.0		77.98908945799121	
6.0	41.24990951902146	fix	1.0		443	21.0	male	black	2.969757262236371	smiling	137	sub-04	2.0	4.0	137_smiling	0.0		78.63895991700156	3.7665880536133045
6.0	41.30002918935861	pulse	1.0	t		21.0	male	black	2.969757262236371	smiling	137	sub-04	2.0	4.0	137_smiling	0.0		78.68907958733871	
6.0	42.00000181112773	pulse	1.0	t		21.0	male	black	2.969757262236371	smiling	137	sub-04	2.0	4.0	137_smiling	0.0		79.38905220910783	
6.0	42.69998741265408	pulse	1.0	t		21.0	male	black	2.969757262236371	smiling	137	sub-04	2.0	4.0	137_smiling	0.0		80.08903781063418	
6.0	43.3999727123246	pulse	1.0	t		21.0	male	black	2.969757262236371	smiling	137	sub-04	2.0	4.0	137_smiling	0.0		80.7890231103047	
6.0	44.09995620086738	pulse	1.0	t		21.0	male	black	2.969757262236371	smiling	137	sub-04	2.0	4.0	137_smiling	0.0		81.48900659884748	
6.0	44.799949046908296	pulse	1.0	t		21.0	male	black	2.969757262236371	smiling	137	sub-04	2.0	4.0	137_smiling	0.0		82.1889994448884	
7.0	45.01649757263476	face	0.0		145	22.0	female	west_asian	3.8205332272184642	smiling	066	sub-04	2.0	4.0	066_smiling	0.0		82.40554797061486	1.2333235029273055
7.0	45.49993706327223	pulse	0.0	t		22.0	female	west_asian	3.8205332272184642	smiling	066	sub-04	2.0	4.0	066_smiling	0.0		82.88898746125233	
7.0	46.19992990931314	pulse	0.0	t		22.0	female	west_asian	3.8205332272184642	smiling	066	sub-04	2.0	4.0	066_smiling	0.0		83.58898030729324	
7.0	46.24982107556207	fix	1.0		445	22.0	female	west_asian	3.8205332272184642	smiling	066	sub-04	2.0	4.0	066_smiling	0.0		83.63887147354217	3.766570847888943
7.0	46.89990826632311	pulse	1.0	t		22.0	female	west_asian	3.8205332272184642	smiling	066	sub-04	2.0	4.0	066_smiling	0.0		84.28895866430321	
7.0	47.59989024559218	pulse	1.0	t		22.0	female	west_asian	3.8205332272184642	smiling	066	sub-04	2.0	4.0	066_smiling	0.0		84.98894064357228	
7.0	48.29988188421339	pulse	1.0	t		22.0	female	west_asian	3.8205332272184642	smiling	066	sub-04	2.0	4.0	066_smiling	0.0		85.68893228219349	
7.0	48.99985390227266	pulse	1.0	t		22.0	female	west_asian	3.8205332272184642	smiling	066	sub-04	2.0	4.0	066_smiling	0.0		86.38890430025276	
7.0	49.699843126056294	pulse	1.0	t		22.0	female	west_asian	3.8205332272184642	smiling	066	sub-04	2.0	4.0	066_smiling	0.0		87.0888935240364	
8.0	50.01639192345101	face	0.0		145	27.0	female	white	4.181058495821727	neutral	039	sub-04	2.0	4.0	039_neutral	0.0		87.40544232143111	1.2333235029291245
8.0	50.39983536838736	pulse	0.0	t		27.0	female	white	4.181058495821727	neutral	039	sub-04	2.0	4.0	039_neutral	0.0		87.78888576636746	
8.0	51.09980919757618	pulse	0.0	t		27.0	female	white	4.181058495821727	neutral	039	sub-04	2.0	4.0	039_neutral	0.0		88.48885959555628	
8.0	51.249715426380135	fix	1.0		445	27.0	female	white	4.181058495821727	neutral	039	sub-04	2.0	4.0	039_neutral	0.0		88.63876582436023	3.758241466337495
8.0	51.79980536402036	pulse	1.0	t		27.0	female	white	4.181058495821727	neutral	039	sub-04	2.0	4.0	039_neutral	0.0		89.18885576200046	
8.0	52.49978221175661	pulse	1.0	t		27.0	female	white	4.181058495821727	neutral	039	sub-04	2.0	4.0	039_neutral	0.0		89.88883260973671	
8.0	53.19993111673284	pulse	1.0	t		27.0	female	white	4.181058495821727	neutral	039	sub-04	2.0	4.0	039_neutral	0.0		90.58898151471294	
8.0	53.899760055614024	pulse	1.0	t		27.0	female	white	4.181058495821727	neutral	039	sub-04	2.0	4.0	039_neutral	0.0		91.28881045359412	
8.0	54.599748071977956	pulse	1.0	t		27.0	female	white	4.181058495821727	neutral	039	sub-04	2.0	4.0	039_neutral	0.0		91.98879846995806	
9.0	55.00795689271763	face	0.0		146	20.0	male	black	3.1070433744528456	smiling	082	sub-04	2.0	4.0	082_smiling	0.0		92.39700729069773	1.2416393010134925
9.0	55.29973367350249	pulse	0.0	t		20.0	male	black	3.1070433744528456	smiling	082	sub-04	2.0	4.0	082_smiling	0.0		92.68878407148259	
9.0	55.99970931382086	pulse	0.0	t		20.0	male	black	3.1070433744528456	smiling	082	sub-04	2.0	4.0	082_smiling	0.0		93.38875971180096	
9.0	56.24959619373112	fix	1.0		445	20.0	male	black	3.1070433744528456	smiling	082	sub-04	2.0	4.0	082_smiling	0.0		93.63864659171122	3.7665886573231546
9.0	56.699707593248604	pulse	1.0	t		20.0	male	black	3.1070433744528456	smiling	082	sub-04	2.0	4.0	082_smiling	0.0		94.0887579912287	
9.0	57.39968564840274	pulse	1.0	t		20.0	male	black	3.1070433744528456	smiling	082	sub-04	2.0	4.0	082_smiling	0.0		94.78873604638284	
9.0	58.09966370355869	pulse	1.0	t		20.0	male	black	3.1070433744528456	smiling	082	sub-04	2.0	4.0	082_smiling	0.0		95.48871410153879	
9.0	58.799647192101475	pulse	1.0	t		20.0	male	black	3.1070433744528456	smiling	082	sub-04	2.0	4.0	082_smiling	0.0		96.18869759008157	
9.0	59.49964486781937	pulse	1.0	t		20.0	male	black	3.1070433744528456	smiling	082	sub-04	2.0	4.0	082_smiling	0.0		96.88869526579947	
10.0	60.01618485105428	face	0.0		145	30.0	female	black	2.7345801830481498	smiling	062	sub-04	2.0	4.0	062_smiling	1.0	trustworthiness	97.40523524903438	1.2333105231718946
10.0	60.19964767506826	pulse	0.0	t		30.0	female	black	2.7345801830481498	smiling	062	sub-04	2.0	4.0	062_smiling	1.0	trustworthiness	97.58869807304836	
10.0	60.899602185549156	pulse	0.0	t		30.0	female	black	2.7345801830481498	smiling	062	sub-04	2.0	4.0	062_smiling	1.0	trustworthiness	98.28865258352926	
10.0	61.24949537422617	fix	1.0		177	30.0	female	black	2.7345801830481498	smiling	062	sub-04	2.0	4.0	062_smiling	1.0	trustworthiness	98.63854577220627	1.499969361735566
10.0	61.5996004649769	pulse	1.0	t		30.0	female	black	2.7345801830481498	smiling	062	sub-04	2.0	4.0	062_smiling	1.0	trustworthiness	98.988650862957	
10.0	62.299590896178415	pulse	1.0	t		30.0	female	black	2.7345801830481498	smiling	062	sub-04	2.0	4.0	062_smiling	1.0	trustworthiness	99.68864129415851	
10.0	62.74946473596174	rating	2.0		294	30.0	female	black	2.7345801830481498	smiling	062	sub-04	2.0	4.0	062_smiling	1.0	trustworthiness	100.13851513394184	2.49995849496554
10.0	62.999576497704766	pulse	2.0	t		30.0	female	black	2.7345801830481498	smiling	062	sub-04	2.0	4.0	062_smiling	1.0	trustworthiness	100.38862689568487	
10.0	63.699554251004884	pulse	2.0	t		30.0	female	black	2.7345801830481498	smiling	062	sub-04	2.0	4.0	062_smiling	1.0	trustworthiness	101.08860464898498	
10.0	64.39953955067722	pulse	2.0	t		30.0	female	black	2.7345801830481498	smiling	062	sub-04	2.0	4.0	062_smiling	1.0	trustworthiness	101.78858994865732	
10.0	64.416247817966	response	2.0	w		30.0	female	black	2.7345801830481498	smiling	062	sub-04	2.0	4.0	062_smiling	1.0	trustworthiness	101.8052982159461	
10.0	65.09951851139704	pulse	2.0	t		30.0	female	black	2.7345801830481498	smiling	062	sub-04	2.0	4.0	062_smiling	1.0	trustworthiness	102.48856890937714	
10.0	65.24942323092728	fix	3.0		444	30.0	female	black	2.7345801830481498	smiling	062	sub-04	2.0	4.0	062_smiling	1.0	trustworthiness	102.63847362890738	3.7665732627265243
10.0	65.79951045187227	pulse	3.0	t		30.0	female	black	2.7345801830481498	smiling	062	sub-04	2.0	4.0	062_smiling	1.0	trustworthiness	103.18856084985237	
10.0	66.49949937380188	pulse	3.0	t		30.0	female	black	2.7345801830481498	smiling	062	sub-04	2.0	4.0	062_smiling	1.0	trustworthiness	103.88854977178198	
10.0	67.19948950314938	pulse	3.0	t		30.0	female	black	2.7345801830481498	smiling	062	sub-04	2.0	4.0	062_smiling	1.0	trustworthiness	104.58853990112948	
10.0	67.89946393604805	pulse	3.0	t		30.0	female	black	2.7345801830481498	smiling	062	sub-04	2.0	4.0	062_smiling	1.0	trustworthiness	105.28851433402815	
10.0	68.59944953757258	pulse	3.0	t		30.0	female	black	2.7345801830481498	smiling	062	sub-04	2.0	4.0	062_smiling	1.0	trustworthiness	105.98849993555268	
11.0	69.0159964936538	face	0.0		145	28.0	male	east_asian	1.5563072025467568	neutral	005	sub-04	2.0	4.0	005_neutral	0.0		106.4050468916339	1.2333114287357603
11.0	69.29944268546933	pulse	0.0	t		28.0	male	east_asian	1.5563072025467568	neutral	005	sub-04	2.0	4.0	005_neutral	0.0		106.68849308344943	
11.0	69.99942436288256	pulse	0.0	t		28.0	male	east_asian	1.5563072025467568	neutral	005	sub-04	2.0	4.0	005_neutral	0.0		107.38847476086266	
11.0	70.24930792238956	fix	1.0		445	28.0	male	east_asian	1.5563072025467568	neutral	005	sub-04	2.0	4.0	005_neutral	0.0		107.63835832036966	3.7583353431837168
11.0	70.69939789021555	pulse	1.0	t		28.0	male	east_asian	1.5563072025467568	neutral	005	sub-04	2.0	4.0	005_neutral	0.0		108.08844828819565	
11.0	71.3993937548039	pulse	1.0	t		28.0	male	east_asian	1.5563072025467568	neutral	005	sub-04	2.0	4.0	005_neutral	0.0		108.788444152784	
11.0	72.09938026189411	pulse	1.0	t		28.0	male	east_asian	1.5563072025467568	neutral	005	sub-04	2.0	4.0	005_neutral	0.0		109.48843065987421	
11.0	72.7993613355975	pulse	1.0	t		28.0	male	east_asian	1.5563072025467568	neutral	005	sub-04	2.0	4.0	005_neutral	0.0		110.1884117335776	
11.0	73.49934603155998	pulse	1.0	t		28.0	male	east_asian	1.5563072025467568	neutral	005	sub-04	2.0	4.0	005_neutral	0.0		110.88839642954008	
12.0	74.00764326557328	face	0.0		146	25.0	female	west_asian	2.6756864305610826	smiling	064	sub-04	2.0	4.0	064_smiling	0.0		111.39669366355338	1.2415593094883661
12.0	74.19933978316476	pulse	0.0	t		25.0	female	west_asian	2.6756864305610826	smiling	064	sub-04	2.0	4.0	064_smiling	0.0		111.58839018114486	
12.0	74.89931995130428	pulse	0.0	t		25.0	female	west_asian	2.6756864305610826	smiling	064	sub-04	2.0	4.0	064_smiling	0.0		112.28837034928438	
12.0	75.24920257506164	fix	1.0		445	25.0	female	west_asian	2.6756864305610826	smiling	064	sub-04	2.0	4.0	064_smiling	0.0		112.63825297304174	3.766562697810514
12.0	75.59930977879776	pulse	1.0	t		25.0	female	west_asian	2.6756864305610826	smiling	064	sub-04	2.0	4.0	064_smiling	0.0		112.98836017677786	
12.0	76.29929236177486	pulse	1.0	t		25.0	female	west_asian	2.6756864305610826	smiling	064	sub-04	2.0	4.0	064_smiling	0.0		113.68834275975496	
12.0	76.99927977442894	pulse	1.0	t		25.0	female	west_asian	2.6756864305610826	smiling	064	sub-04	2.0	4.0	064_smiling	0.0		114.38833017240904	
12.0	77.69926658337499	pulse	1.0	t		25.0	female	west_asian	2.6756864305610826	smiling	064	sub-04	2.0	4.0	064_smiling	0.0		115.08831698135509	
12.0	78.39924554409481	pulse	1.0	t		25.0	female	west_asian	2.6756864305610826	smiling	064	sub-04	2.0	4.0	064_smiling	0.0		115.78829594207491	
13.0	79.01576527287216	face	0.0		146	54.0	female	white	2.286908077994429	neutral	136	sub-04	2.0	4.0	136_neutral	0.0		116.40481567085226	1.2416586197196011
13.0	79.09924020126346	pulse	0.0	t		54.0	female	white	2.286908077994429	neutral	136	sub-04	2.0	4.0	136_neutral	0.0		116.48829059924356	
13.0	79.79921916198327	pulse	0.0	t		54.0	female	white	2.286908077994429	neutral	136	sub-04	2.0	4.0	136_neutral	0.0		117.18826955996337	
13.0	80.25742389259176	fix	1.0		444	54.0	female	white	2.286908077994429	neutral	136	sub-04	2.0	4.0	136_neutral	0.0		117.64647429057186	3.7665968074034026
13.0	80.49920687649319	pulse	1.0	t		54.0	female	white	2.286908077994429	neutral	136	sub-04	2.0	4.0	136_neutral	0.0		117.88825727447329	
13.0	81.19920123180782	pulse	1.0	t		54.0	female	white	2.286908077994429	neutral	136	sub-04	2.0	4.0	136_neutral	0.0		118.58825162978792	
13.0	81.89916992946564	pulse	1.0	t		54.0	female	white	2.286908077994429	neutral	136	sub-04	2.0	4.0	136_neutral	0.0		119.28822032744574	
13.0	82.59916186994087	pulse	1.0	t		54.0	female	white	2.286908077994429	neutral	136	sub-04	2.0	4.0	136_neutral	0.0		119.98821226792097	
13.0	83.29915411227375	pulse	1.0	t		54.0	female	white	2.286908077994429	neutral	136	sub-04	2.0	4.0	136_neutral	0.0		120.68820451025385	
13.0	83.99912371549362	pulse	1.0	t		54.0	female	white	2.286908077994429	neutral	136	sub-04	2.0	4.0	136_neutral	0.0		121.38817411347372	
14.0	84.02402069999516	face	0.0		146	28.0	female	white	5.676880222841227	neutral	124	sub-04	2.0	4.0	124_neutral	0.0		121.41307109797526	1.2333065990587784
14.0	84.6991186745181	pulse	0.0	t		28.0	female	white	5.676880222841227	neutral	124	sub-04	2.0	4.0	124_neutral	0.0		122.0881690724982	
14.0	85.25732729905394	fix	1.0		443	28.0	female	white	5.676880222841227	neutral	124	sub-04	2.0	4.0	124_neutral	0.0		122.64637769703404	3.7665865443395887
14.0	85.399106087174	pulse	1.0	t		28.0	female	white	5.676880222841227	neutral	124	sub-04	2.0	4.0	124_neutral	0.0		122.7881564851541	
14.0	86.09908293491026	pulse	1.0	t		28.0	female	white	5.676880222841227	neutral	124	sub-04	2.0	4.0	124_neutral	0.0		123.48813333289036	
14.0	86.79906974385449	pulse	1.0	t		28.0	female	white	5.676880222841227	neutral	124	sub-04	2.0	4.0	124_neutral	0.0		124.18812014183459	
14.0	87.49905685465455	pulse	1.0	t		28.0	female	white	5.676880222841227	neutral	124	sub-04	2.0	4.0	124_neutral	0.0		124.88810725263465	
14.0	88.19903853206779	pulse	1.0	t		28.0	female	white	5.676880222841227	neutral	124	sub-04	2.0	4.0	124_neutral	0.0		125.58808893004789	
14.0	88.89902232246459	pulse	1.0	t		28.0	female	white	5.676880222841227	neutral	124	sub-04	2.0	4.0	124_neutral	0.0		126.28807272044469	
15.0	89.02391384339353	face	0.0		146	20.0	female	white	3.9502586549940313	neutral	091	sub-04	2.0	4.0	091_neutral	0.0		126.41296424137363	1.2333081083324942
15.0	89.59902060189233	pulse	0.0	t		20.0	female	white	3.9502586549940313	neutral	091	sub-04	2.0	4.0	091_neutral	0.0		126.98807099987243	
15.0	90.25722195172602	fix	1.0		443	20.0	female	white	3.9502586549940313	neutral	091	sub-04	2.0	4.0	091_neutral	0.0		127.64627234970612	3.766587751759289
15.0	90.29903276664118	pulse	1.0	t		20.0	female	white	3.9502586549940313	neutral	091	sub-04	2.0	4.0	091_neutral	0.0		127.68808316462128	
15.0	90.9989839567188	pulse	1.0	t		20.0	female	white	3.9502586549940313	neutral	091	sub-04	2.0	4.0	091_neutral	0.0		128.3880343546989	
15.0	91.69897016195318	pulse	1.0	t		20.0	female	white	3.9502586549940313	neutral	091	sub-04	2.0	4.0	091_neutral	0.0		129.08802055993328	
15.0	92.39895968759265	pulse	1.0	t		20.0	female	white	3.9502586549940313	neutral	091	sub-04	2.0	4.0	091_neutral	0.0		129.78801008557275	
15.0	93.09893683718292	pulse	1.0	t		20.0	female	white	3.9502586549940313	neutral	091	sub-04	2.0	4.0	091_neutral	0.0		130.48798723516302	
15.0	93.79892092943373	pulse	1.0	t		20.0	female	white	3.9502586549940313	neutral	091	sub-04	2.0	4.0	091_neutral	0.0		131.18797132741383	
16.0	94.02380970348531	face	0.0		145	31.0	female	white	2.1822522881018704	neutral	102	sub-04	2.0	4.0	102_neutral	0.0		131.4128601014654	1.2333093157521944
16.0	94.49891920886148	pulse	0.0	t		31.0	female	white	2.1822522881018704	neutral	102	sub-04	2.0	4.0	102_neutral	0.0		131.88796960684158	
16.0	95.19889575474372	pulse	0.0	t		31.0	female	white	2.1822522881018704	neutral	102	sub-04	2.0	4.0	102_neutral	0.0		132.58794615272382	
16.0	95.2571190192375	fix	1.0		445	31.0	female	white	2.1822522881018704	neutral	102	sub-04	2.0	4.0	102_neutral	0.0		132.6461694172176	3.7665859406297386
16.0	95.89888497852735	pulse	1.0	t		31.0	female	white	2.1822522881018704	neutral	102	sub-04	2.0	4.0	102_neutral	0.0		133.28793537650745	
16.0	96.59887178747158	pulse	1.0	t		31.0	female	white	2.1822522881018704	neutral	102	sub-04	2.0	4.0	102_neutral	0.0		133.98792218545168	
16.0	97.29885376674065	pulse	1.0	t		31.0	female	white	2.1822522881018704	neutral	102	sub-04	2.0	4.0	102_neutral	0.0		134.68790416472075	
16.0	97.99884148124875	pulse	1.0	t		31.0	female	white	2.1822522881018704	neutral	102	sub-04	2.0	4.0	102_neutral	0.0		135.38789187922885	
16.0	98.69882044196856	pulse	1.0	t		31.0	female	white	2.1822522881018704	neutral	102	sub-04	2.0	4.0	102_neutral	0.0		136.08787083994866	
17.0	99.02370495986725	face	0.0		145	36.0	female	white	2.7548746518105847	neutral	011	sub-04	2.0	4.0	011_neutral	0.0		136.41275535784735	1.2333078064784786
17.0	99.39881660841274	pulse	0.0	t		36.0	female	white	2.7548746518105847	neutral	011	sub-04	2.0	4.0	011_neutral	0.0		136.78786700639284	
17.0	100.0987958709884	pulse	0.0	t		36.0	female	white	2.7548746518105847	neutral	011	sub-04	2.0	4.0	011_neutral	0.0		137.4878462689685	
17.0	100.25701276634572	fix	1.0		444	36.0	female	white	2.7548746518105847	neutral	011	sub-04	2.0	4.0	011_neutral	0.0		137.64606316432582	3.7665892610311857
17.0	100.79878388735233	pulse	1.0	t		36.0	female	white	2.7548746518105847	neutral	011	sub-04	2.0	4.0	011_neutral	0.0		138.18783428533243	
17.0	101.49876767774913	pulse	1.0	t		36.0	female	white	2.7548746518105847	neutral	011	sub-04	2.0	4.0	011_neutral	0.0		138.88781807572923	
17.0	102.19876142935391	pulse	1.0	t		36.0	female	white	2.7548746518105847	neutral	011	sub-04	2.0	4.0	011_neutral	0.0		139.587811827334	
17.0	102.8987310325756	pulse	1.0	t		36.0	female	white	2.7548746518105847	neutral	011	sub-04	2.0	4.0	011_neutral	0.0		140.2877814305557	
17.0	103.59871874708551	pulse	1.0	t		36.0	female	white	2.7548746518105847	neutral	011	sub-04	2.0	4.0	011_neutral	0.0		140.9877691450656	
18.0	104.02360202737691	face	0.0		145	31.0	female	east_asian	3.395941106247513	neutral	087	sub-04	2.0	4.0	087_neutral	0.0		141.412652425357	1.2333225973634399
18.0	104.29871280054431	pulse	0.0	t		31.0	female	east_asian	3.395941106247513	neutral	087	sub-04	2.0	4.0	087_neutral	0.0		141.6877631985244	
18.0	104.99869538352323	pulse	0.0	t		31.0	female	east_asian	3.395941106247513	neutral	087	sub-04	2.0	4.0	087_neutral	0.0		142.38774578150333	
18.0	105.25692462474035	fix	1.0		444	31.0	female	east_asian	3.395941106247513	neutral	087	sub-04	2.0	4.0	087_neutral	0.0		142.64597502272045	3.7665732627283433
18.0	105.69868249432147	pulse	1.0	t		31.0	female	east_asian	3.395941106247513	neutral	087	sub-04	2.0	4.0	087_neutral	0.0		143.08773289230157	
18.0	106.39866205875114	pulse	1.0	t		31.0	female	east_asian	3.395941106247513	neutral	087	sub-04	2.0	4.0	087_neutral	0.0		143.78771245673124	
18.0	107.09864615100378	pulse	1.0	t		31.0	female	east_asian	3.395941106247513	neutral	087	sub-04	2.0	4.0	087_neutral	0.0		144.48769654898388	
18.0	107.79863326180384	pulse	1.0	t		31.0	female	east_asian	3.395941106247513	neutral	087	sub-04	2.0	4.0	087_neutral	0.0		145.18768365978394	
18.0	108.49861886332837	pulse	1.0	t		31.0	female	east_asian	3.395941106247513	neutral	087	sub-04	2.0	4.0	087_neutral	0.0		145.88766926130847	
19.0	109.0234978874687	face	0.0		145	21.0	male	black	2.969757262236371	neutral	137	sub-04	2.0	4.0	137_neutral	0.0		146.4125482854488	1.2333093157521944
19.0	109.19861352049884	pulse	0.0	t		21.0	male	black	2.969757262236371	neutral	137	sub-04	2.0	4.0	137_neutral	0.0		146.58766391847894	
19.0	109.89858916081539	pulse	0.0	t		21.0	male	black	2.969757262236371	neutral	137	sub-04	2.0	4.0	137_neutral	0.0		147.2876395587955	
19.0	110.25680720322089	fix	1.0		444	21.0	male	black	2.969757262236371	neutral	137	sub-04	2.0	4.0	137_neutral	0.0		147.645857601201	3.7665874499034544
19.0	110.59857989387274	pulse	1.0	t		21.0	male	black	2.969757262236371	neutral	137	sub-04	2.0	4.0	137_neutral	0.0		147.98763029185284	
19.0	111.29856036386809	pulse	1.0	t		21.0	male	black	2.969757262236371	neutral	137	sub-04	2.0	4.0	137_neutral	0.0		148.6876107618482	
19.0	111.99855351176302	pulse	1.0	t		21.0	male	black	2.969757262236371	neutral	137	sub-04	2.0	4.0	137_neutral	0.0		149.38760390974312	
19.0	112.69852945393541	pulse	1.0	t		21.0	male	black	2.969757262236371	neutral	137	sub-04	2.0	4.0	137_neutral	0.0		150.0875798519155	
19.0	113.39851867771904	pulse	1.0	t		21.0	male	black	2.969757262236371	neutral	137	sub-04	2.0	4.0	137_neutral	0.0		150.78756907569914	
20.0	114.02339465312434	face	0.0		145	23.0	male	white	2.6275368085953046	smiling	141	sub-04	2.0	4.0	141_smiling	1.0	attractiveness	151.41244505110444	1.2333087120423443
20.0	114.09851152375995	pulse	0.0	t		23.0	male	white	2.6275368085953046	smiling	141	sub-04	2.0	4.0	141_smiling	1.0	attractiveness	151.48756192174005	
20.0	114.7984895789159	pulse	0.0	t		23.0	male	white	2.6275368085953046	smiling	141	sub-04	2.0	4.0	141_smiling	1.0	attractiveness	152.187539976896	
20.0	115.25670336516669	fix	1.0		177	23.0	male	white	2.6275368085953046	smiling	141	sub-04	2.0	4.0	141_smiling	1.0	attractiveness	152.64575376314679	1.4999699654472352
20.0	115.49848091568128	pulse	1.0	t		23.0	male	white	2.6275368085953046	smiling	141	sub-04	2.0	4.0	141_smiling	1.0	attractiveness	152.88753131366138	
20.0	116.19847376172402	pulse	1.0	t		23.0	male	white	2.6275368085953046	smiling	141	sub-04	2.0	4.0	141_smiling	1.0	attractiveness	153.58752415970412	
20.0	116.75667333061392	rating	2.0		294	23.0	male	white	2.6275368085953046	smiling	141	sub-04	2.0	4.0	141_smiling	1.0	attractiveness	154.14572372859402	2.4999603060932714
20.0	116.89845332615187	pulse	2.0	t		23.0	male	white	2.6275368085953046	smiling	141	sub-04	2.0	4.0	141_smiling	1.0	attractiveness	154.28750372413197	
20.0	117.59843983324208	pulse	2.0	t		23.0	male	white	2.6275368085953046	smiling	141	sub-04	2.0	4.0	141_smiling	1.0	attractiveness	154.98749023122218	
20.0	118.29842030323744	pulse	2.0	t		23.0	male	white	2.6275368085953046	smiling	141	sub-04	2.0	4.0	141_smiling	1.0	attractiveness	155.68747070121753	
20.0	118.81507106718527	response	2.0	e		23.0	male	white	2.6275368085953046	smiling	141	sub-04	2.0	4.0	141_smiling	1.0	attractiveness	156.20412146516537	
20.0	118.9983923212967	pulse	2.0	t		23.0	male	white	2.6275368085953046	smiling	141	sub-04	2.0	4.0	141_smiling	1.0	attractiveness	156.3874427192768	
20.0	119.25663363670719	fix	3.0		1185	23.0	male	white	2.6275368085953046	smiling	141	sub-04	2.0	4.0	141_smiling	1.0	attractiveness	156.6456840346873	10.01644142764053
20.0	119.69839120443248	pulse	3.0	t		23.0	male	white	2.6275368085953046	smiling	141	sub-04	2.0	4.0	141_smiling	1.0	attractiveness	157.08744160241258	
20.0	120.39836956144427	pulse	3.0	t		23.0	male	white	2.6275368085953046	smiling	141	sub-04	2.0	4.0	141_smiling	1.0	attractiveness	157.78741995942437	
20.0	121.09835606853449	pulse	3.0	t		23.0	male	white	2.6275368085953046	smiling	141	sub-04	2.0	4.0	141_smiling	1.0	attractiveness	158.48740646651459	
20.0	121.79832989772149	pulse	3.0	t		23.0	male	white	2.6275368085953046	smiling	141	sub-04	2.0	4.0	141_smiling	1.0	attractiveness	159.1873802957016	
20.0	122.4983239511821	pulse	3.0	t		23.0	male	white	2.6275368085953046	smiling	141	sub-04	2.0	4.0	141_smiling	1.0	attractiveness	159.8873743491622	
20.0	123.19832011762628	pulse	3.0	t		23.0	male	white	2.6275368085953046	smiling	141	sub-04	2.0	4.0	141_smiling	1.0	attractiveness	160.58737051560638	
20.0	123.89829183383154	pulse	3.0	t		23.0	male	white	2.6275368085953046	smiling	141	sub-04	2.0	4.0	141_smiling	1.0	attractiveness	161.28734223181164	
20.0	124.59828588729033	pulse	3.0	t		23.0	male	white	2.6275368085953046	smiling	141	sub-04	2.0	4.0	141_smiling	1.0	attractiveness	161.98733628527043	
20.0	125.29826756470356	pulse	3.0	t		23.0	male	white	2.6275368085953046	smiling	141	sub-04	2.0	4.0	141_smiling	1.0	attractiveness	162.68731796268366	
20.0	125.99825195881022	pulse	3.0	t		23.0	male	white	2.6275368085953046	smiling	141	sub-04	2.0	4.0	141_smiling	1.0	attractiveness	163.38730235679031	
20.0	126.69823997517415	pulse	3.0	t		23.0	male	white	2.6275368085953046	smiling	141	sub-04	2.0	4.0	141_smiling	1.0	attractiveness	164.08729037315425	
20.0	127.39822648226436	pulse	3.0	t		23.0	male	white	2.6275368085953046	smiling	141	sub-04	2.0	4.0	141_smiling	1.0	attractiveness	164.78727688024446	
20.0	128.09820665040388	pulse	3.0	t		23.0	male	white	2.6275368085953046	smiling	141	sub-04	2.0	4.0	141_smiling	1.0	attractiveness	165.48725704838398	
20.0	128.79819164822038	pulse	3.0	t		23.0	male	white	2.6275368085953046	smiling	141	sub-04	2.0	4.0	141_smiling	1.0	attractiveness	166.18724204620048	
21.0	129.27307506434772	face	0.0		145	19.0	male	white	2.243931555909272	smiling	130	sub-04	2.0	4.0	130_smiling	0.0		166.66212546232782	1.2333111268817447
21.0	129.49819445546927	pulse	0.0	t		19.0	male	white	2.243931555909272	smiling	130	sub-04	2.0	4.0	130_smiling	0.0		166.88724485344937	
21.0	130.19816285127126	pulse	0.0	t		19.0	male	white	2.243931555909272	smiling	130	sub-04	2.0	4.0	130_smiling	0.0		167.58721324925136	
21.0	130.50638619122947	fix	1.0		444	19.0	male	white	2.243931555909272	smiling	130	sub-04	2.0	4.0	130_smiling	0.0		167.89543658920957	3.7665853369198885
21.0	130.89815901771544	pulse	1.0	t		19.0	male	white	2.243931555909272	smiling	130	sub-04	2.0	4.0	130_smiling	0.0		168.28720941569554	
21.0	131.5981437136761	pulse	1.0	t		19.0	male	white	2.243931555909272	smiling	130	sub-04	2.0	4.0	130_smiling	0.0		168.9871941116562	
21.0	132.29812569294518	pulse	1.0	t		19.0	male	white	2.243931555909272	smiling	130	sub-04	2.0	4.0	130_smiling	0.0		169.68717609092528	
21.0	132.9981061629387	pulse	1.0	t		19.0	male	white	2.243931555909272	smiling	130	sub-04	2.0	4.0	130_smiling	0.0		170.3871565609188	
21.0	133.6980935755928	pulse	1.0	t		19.0	male	white	2.243931555909272	smiling	130	sub-04	2.0	4.0	130_smiling	0.0		171.0871439735729	
22.0	134.27297152814936	face	0.0		145	28.0	male	east_asian	1.5563072025467568	smiling	005	sub-04	2.0	4.0	005_smiling	0.0		171.66202192612946	1.2333111268799257
22.0	134.39809034574682	pulse	0.0	t		28.0	male	east_asian	1.5563072025467568	smiling	005	sub-04	2.0	4.0	005_smiling	0.0		171.78714074372692	
22.0	135.09806417493564	pulse	0.0	t		28.0	male	east_asian	1.5563072025467568	smiling	005	sub-04	2.0	4.0	005_smiling	0.0		172.48711457291574	
22.0	135.50628265502928	fix	1.0		444	28.0	male	east_asian	1.5563072025467568	smiling	005	sub-04	2.0	4.0	005_smiling	0.0		172.89533305300938	3.766586242485573
22.0	135.79805551170284	pulse	1.0	t		28.0	male	east_asian	1.5563072025467568	smiling	005	sub-04	2.0	4.0	005_smiling	0.0		173.18710590968294	
22.0	136.49805499854847	pulse	1.0	t		28.0	male	east_asian	1.5563072025467568	smiling	005	sub-04	2.0	4.0	005_smiling	0.0		173.88710539652857	
22.0	137.19804060007482	pulse	1.0	t		28.0	male	east_asian	1.5563072025467568	smiling	005	sub-04	2.0	4.0	005_smiling	0.0		174.58709099805492	
22.0	137.89801110886037	pulse	1.0	t		28.0	male	east_asian	1.5563072025467568	smiling	005	sub-04	2.0	4.0	005_smiling	0.0		175.28706150684047	
22.0	138.5979915788539	pulse	1.0	t		28.0	male	east_asian	1.5563072025467568	smiling	005	sub-04	2.0	4.0	005_smiling	0.0		175.987041976834	
23.0	139.27286889751485	face	0.0		145	22.0	male	black	2.767608436132113	neutral	044	sub-04	2.0	4.0	044_neutral	0.0		176.66191929549495	1.2333084101865097
23.0	139.2980055547323	pulse	0.0	t		22.0	male	black	2.767608436132113	neutral	044	sub-04	2.0	4.0	044_neutral	0.0		176.6870559527124	
23.0	139.99796700787192	pulse	0.0	t		22.0	male	black	2.767608436132113	neutral	044	sub-04	2.0	4.0	044_neutral	0.0		177.38701740585202	
23.0	140.50617730770136	fix	1.0		443	22.0	male	black	2.767608436132113	neutral	044	sub-04	2.0	4.0	044_neutral	0.0		177.89522770568146	3.758252936821009
23.0	140.69795472238184	pulse	1.0	t		22.0	male	black	2.767608436132113	neutral	044	sub-04	2.0	4.0	044_neutral	0.0		178.08700512036194	
23.0	141.3979327775378	pulse	1.0	t		22.0	male	black	2.767608436132113	neutral	044	sub-04	2.0	4.0	044_neutral	0.0		178.7869831755179	
23.0	142.09791868091816	pulse	1.0	t		22.0	male	black	2.767608436132113	neutral	044	sub-04	2.0	4.0	044_neutral	0.0		179.48696907889826	
23.0	142.7979018676051	pulse	1.0	t		22.0	male	black	2.767608436132113	neutral	044	sub-04	2.0	4.0	044_neutral	0.0		180.1869522655852	
23.0	143.4978868654216	pulse	1.0	t		22.0	male	black	2.767608436132113	neutral	044	sub-04	2.0	4.0	044_neutral	0.0		180.8869372634017	
23.0	144.1978782021888	pulse	1.0	t		22.0	male	black	2.767608436132113	neutral	044	sub-04	2.0	4.0	044_neutral	0.0		181.5869286001689	
24.0	144.26443024452237	face	0.0		147	24.0	female	black	3.0955033824114606	smiling	099	sub-04	2.0	4.0	099_smiling	0.0		181.65348064250247	1.2416426214167586
24.0	144.8978680296823	pulse	0.0	t		24.0	female	black	3.0955033824114606	smiling	099	sub-04	2.0	4.0	099_smiling	0.0		182.28691842766239	
24.0	145.50607286593913	fix	1.0		443	24.0	female	black	3.0955033824114606	smiling	099	sub-04	2.0	4.0	099_smiling	0.0		182.89512326391923	3.76658714804762
24.0	145.59785272564295	pulse	1.0	t		24.0	female	black	3.0955033824114606	smiling	099	sub-04	2.0	4.0	099_smiling	0.0		182.98690312362305	
24.0	146.29783259192664	pulse	1.0	t		24.0	female	black	3.0955033824114606	smiling	099	sub-04	2.0	4.0	099_smiling	0.0		183.68688298990674	
24.0	146.99782181571027	pulse	1.0	t		24.0	female	black	3.0955033824114606	smiling	099	sub-04	2.0	4.0	099_smiling	0.0		184.38687221369037	
24.0	147.69780017272024	pulse	1.0	t		24.0	female	black	3.0955033824114606	smiling	099	sub-04	2.0	4.0	099_smiling	0.0		185.08685057070034	
24.0	148.39778637795644	pulse	1.0	t		24.0	female	black	3.0955033824114606	smiling	099	sub-04	2.0	4.0	099_smiling	0.0		185.78683677593654	
24.0	149.09776865907952	pulse	1.0	t		24.0	female	black	3.0955033824114606	smiling	099	sub-04	2.0	4.0	099_smiling	0.0		186.48681905705962	
25.0	149.27266001398675	face	0.0		146	26.0	male	white	2.7966573816155993	smiling	117	sub-04	2.0	4.0	117_smiling	0.0		186.66171041196685	1.24164443254449
25.0	149.79776573108757	pulse	0.0	t		26.0	male	white	2.7966573816155993	smiling	117	sub-04	2.0	4.0	117_smiling	0.0		187.18681612906767	
25.0	150.49774046584025	pulse	0.0	t		26.0	male	white	2.7966573816155993	smiling	117	sub-04	2.0	4.0	117_smiling	0.0		187.88679086382035	
25.0	150.51430444653124	fix	1.0		444	26.0	male	white	2.7966573816155993	smiling	117	sub-04	2.0	4.0	117_smiling	0.0		187.90335484451134	3.758250823837443
25.0	151.19774961203984	pulse	1.0	t		26.0	male	white	2.7966573816155993	smiling	117	sub-04	2.0	4.0	117_smiling	0.0		188.58680001001994	
25.0	151.89771408373053	pulse	1.0	t		26.0	male	white	2.7966573816155993	smiling	117	sub-04	2.0	4.0	117_smiling	0.0		189.28676448171063	
25.0	152.59769847783537	pulse	1.0	t		26.0	male	white	2.7966573816155993	smiling	117	sub-04	2.0	4.0	117_smiling	0.0		189.98674887581546	
25.0	153.29769222944196	pulse	1.0	t		26.0	male	white	2.7966573816155993	smiling	117	sub-04	2.0	4.0	117_smiling	0.0		190.68674262742206	
25.0	153.99766605863078	pulse	1.0	t		26.0	male	white	2.7966573816155993	smiling	117	sub-04	2.0	4.0	117_smiling	0.0		191.38671645661088	
26.0	154.27255527036868	face	0.0		145	20.0	female	white	3.9502586549940313	smiling	091	sub-04	2.0	4.0	091_smiling	0.0		191.66160566834878	1.2333072027686285
26.0	154.69766343249285	pulse	0.0	t		20.0	female	white	3.9502586549940313	smiling	091	sub-04	2.0	4.0	091_smiling	0.0		192.08671383047295	
26.0	155.39763997837508	pulse	0.0	t		20.0	female	white	3.9502586549940313	smiling	091	sub-04	2.0	4.0	091_smiling	0.0		192.78669037635518	
26.0	155.5058624731373	fix	1.0		445	20.0	female	white	3.9502586549940313	smiling	091	sub-04	2.0	4.0	091_smiling	0.0		192.8949128711174	3.7665892610330047
26.0	156.09763342812585	pulse	1.0	t		20.0	female	white	3.9502586549940313	smiling	091	sub-04	2.0	4.0	091_smiling	0.0		193.48668382610595	
26.0	156.79762114263394	pulse	1.0	t		20.0	female	white	3.9502586549940313	smiling	091	sub-04	2.0	4.0	091_smiling	0.0		194.18667154061404	
26.0	157.4976004052096	pulse	1.0	t		20.0	female	white	3.9502586549940313	smiling	091	sub-04	2.0	4.0	091_smiling	0.0		194.8866508031897	
26.0	158.19759536423408	pulse	1.0	t		20.0	female	white	3.9502586549940313	smiling	091	sub-04	2.0	4.0	091_smiling	0.0		195.58664576221418	
26.0	158.89756376003606	pulse	1.0	t		20.0	female	white	3.9502586549940313	smiling	091	sub-04	2.0	4.0	091_smiling	0.0		196.28661415801616	
27.0	159.27245173417032	face	0.0		145	24.0	male	white	3.1153999204138483	smiling	012	sub-04	2.0	4.0	012_smiling	1.0	attractiveness	196.66150213215042	1.2333090138981788
27.0	159.5975659635751	pulse	0.0	t		24.0	male	white	3.1153999204138483	smiling	012	sub-04	2.0	4.0	012_smiling	1.0	attractiveness	196.9866163615552	
27.0	160.29754009461976	pulse	0.0	t		24.0	male	white	3.1153999204138483	smiling	012	sub-04	2.0	4.0	012_smiling	1.0	attractiveness	197.68659049259986	
27.0	160.5057607480685	fix	1.0		177	24.0	male	white	3.1153999204138483	smiling	012	sub-04	2.0	4.0	012_smiling	1.0	attractiveness	197.8948111460486	1.4999711728651164
27.0	160.9975308276771	pulse	1.0	t		24.0	male	white	3.1153999204138483	smiling	012	sub-04	2.0	4.0	012_smiling	1.0	attractiveness	198.3865812256572	
27.0	161.6975106939608	pulse	1.0	t		24.0	male	white	3.1153999204138483	smiling	012	sub-04	2.0	4.0	012_smiling	1.0	attractiveness	199.0865610919409	
27.0	162.0057319209336	rating	2.0		295	24.0	male	white	3.1153999204138483	smiling	012	sub-04	2.0	4.0	012_smiling	1.0	attractiveness	199.3947823189137	2.5082788208710554
27.0	162.3975032381477	pulse	2.0	t		24.0	male	white	3.1153999204138483	smiling	012	sub-04	2.0	4.0	012_smiling	1.0	attractiveness	199.7865536361278	
27.0	163.0974861229788	pulse	2.0	t		24.0	male	white	3.1153999204138483	smiling	012	sub-04	2.0	4.0	012_smiling	1.0	attractiveness	200.4865365209589	
27.0	163.71415285504736	response	2.0	y		24.0	male	white	3.1153999204138483	smiling	012	sub-04	2.0	4.0	012_smiling	1.0	attractiveness	201.10320325302746	
27.0	163.79746266886104	pulse	2.0	t		24.0	male	white	3.1153999204138483	smiling	012	sub-04	2.0	4.0	012_smiling	1.0	attractiveness	201.18651306684114	
27.0	164.49745642046582	pulse	2.0	t		24.0	male	white	3.1153999204138483	smiling	012	sub-04	2.0	4.0	012_smiling	1.0	attractiveness	201.88650681844592	
27.0	164.51401074180467	fix	3.0		443	24.0	male	white	3.1153999204138483	smiling	012	sub-04	2.0	4.0	012_smiling	1.0	attractiveness	201.90306113978477	3.7582532386750245
27.0	165.1974537943297	pulse	3.0	t		24.0	male	white	3.1153999204138483	smiling	012	sub-04	2.0	4.0	012_smiling	1.0	attractiveness	202.5865041923098	
27.0	165.897416153035	pulse	3.0	t		24.0	male	white	3.1153999204138483	smiling	012	sub-04	2.0	4.0	012_smiling	1.0	attractiveness	203.2864665510151	
27.0	166.5974099046398	pulse	3.0	t		24.0	male	white	3.1153999204138483	smiling	012	sub-04	2.0	4.0	012_smiling	1.0	attractiveness	203.9864603026199	
27.0	167.29740214697267	pulse	3.0	t		24.0	male	white	3.1153999204138483	smiling	012	sub-04	2.0	4.0	012_smiling	1.0	attractiveness	204.68645254495277	
27.0	167.99737899470892	pulse	3.0	t		24.0	male	white	3.1153999204138483	smiling	012	sub-04	2.0	4.0	012_smiling	1.0	attractiveness	205.38642939268902	
28.0	168.2722639804797	face	0.0		145	37.0	male	white	3.898925586947871	neutral	101	sub-04	2.0	4.0	101_neutral	0.0		205.6613143784598	1.2333250122028403
28.0	168.69737033147612	pulse	0.0	t		37.0	male	white	3.898925586947871	neutral	101	sub-04	2.0	4.0	101_neutral	0.0		206.08642072945622	
28.0	169.39736076267764	pulse	0.0	t		37.0	male	white	3.898925586947871	neutral	101	sub-04	2.0	4.0	101_neutral	0.0		206.78641116065774	
28.0	169.50558899268253	fix	1.0		444	37.0	male	white	3.898925586947871	neutral	101	sub-04	2.0	4.0	101_neutral	0.0		206.89463939066263	3.766572055308643
28.0	170.09734394936459	pulse	1.0	t		37.0	male	white	3.898925586947871	neutral	101	sub-04	2.0	4.0	101_neutral	0.0		207.48639434734469	
28.0	170.79731838226326	pulse	1.0	t		37.0	male	white	3.898925586947871	neutral	101	sub-04	2.0	4.0	101_neutral	0.0		208.18636878024336	
28.0	171.4973079079009	pulse	1.0	t		37.0	male	white	3.898925586947871	neutral	101	sub-04	2.0	4.0	101_neutral	0.0		208.886358305881	
28.0	172.19730407434508	pulse	1.0	t		37.0	male	white	3.898925586947871	neutral	101	sub-04	2.0	4.0	101_neutral	0.0		209.58635447232518	
28.0	172.89726250893727	pulse	1.0	t		37.0	male	white	3.898925586947871	neutral	101	sub-04	2.0	4.0	101_neutral	0.0		210.28631290691737	
29.0	173.27216104799118	face	0.0		145	27.0	male	black	3.5523278949462798	neutral	042	sub-04	2.0	4.0	042_neutral	0.0		210.66121144597128	1.2333062972047628
29.0	173.59727195699452	pulse	0.0	t		27.0	male	black	3.5523278949462798	neutral	042	sub-04	2.0	4.0	042_neutral	0.0		210.98632235497462	
29.0	174.29724638989137	pulse	0.0	t		27.0	male	black	3.5523278949462798	neutral	042	sub-04	2.0	4.0	042_neutral	0.0		211.68629678787147	
29.0	174.50546734519594	fix	1.0		444	27.0	male	black	3.5523278949462798	neutral	042	sub-04	2.0	4.0	042_neutral	0.0		211.89451774317604	3.7665886573213356
29.0	174.99724346189942	pulse	1.0	t		27.0	male	black	3.5523278949462798	neutral	042	sub-04	2.0	4.0	042_neutral	0.0		212.38629385987952	
29.0	175.69721729108824	pulse	1.0	t		27.0	male	black	3.5523278949462798	neutral	042	sub-04	2.0	4.0	042_neutral	0.0		213.08626768906834	
29.0	176.39720923156528	pulse	1.0	t		27.0	male	black	3.5523278949462798	neutral	042	sub-04	2.0	4.0	042_neutral	0.0		213.78625962954538	
29.0	177.09719362567193	pulse	1.0	t		27.0	male	black	3.5523278949462798	neutral	042	sub-04	2.0	4.0	042_neutral	0.0		214.48624402365203	
29.0	177.7971704734082	pulse	1.0	t		27.0	male	black	3.5523278949462798	neutral	042	sub-04	2.0	4.0	042_neutral	0.0		215.1862208713883	
30.0	178.27205600251727	face	0.0		145	24.0	male	white	3.1153999204138483	neutral	012	sub-04	2.0	4.0	012_neutral	0.0		215.66110640049737	1.2333087120441633
30.0	178.4971696583998	pulse	0.0	t		24.0	male	white	3.1153999204138483	neutral	012	sub-04	2.0	4.0	012_neutral	0.0		215.8862200563799	
30.0	179.19714861911962	pulse	0.0	t		24.0	male	white	3.1153999204138483	neutral	012	sub-04	2.0	4.0	012_neutral	0.0		216.58619901709972	
30.0	179.50536471456144	fix	1.0		444	24.0	male	white	3.1153999204138483	neutral	012	sub-04	2.0	4.0	012_neutral	0.0		216.89441511254154	3.76658714804762
30.0	179.89713784290325	pulse	1.0	t		24.0	male	white	3.1153999204138483	neutral	012	sub-04	2.0	4.0	012_neutral	0.0		217.28618824088335	
30.0	180.59711499249352	pulse	1.0	t		24.0	male	white	3.1153999204138483	neutral	012	sub-04	2.0	4.0	012_neutral	0.0		217.98616539047362	
30.0	181.29709878289032	pulse	1.0	t		24.0	male	white	3.1153999204138483	neutral	012	sub-04	2.0	4.0	012_neutral	0.0		218.68614918087042	
30.0	181.9970886103838	pulse	1.0	t		24.0	male	white	3.1153999204138483	neutral	012	sub-04	2.0	4.0	012_neutral	0.0		219.3861390083639	
30.0	182.69707058965105	pulse	1.0	t		24.0	male	white	3.1153999204138483	neutral	012	sub-04	2.0	4.0	012_neutral	0.0		220.08612098763115	
31.0	183.27195186260906	face	0.0		145	40.0	female	west_asian	1.5777954635893354	neutral	038	sub-04	2.0	4.0	038_neutral	0.0		220.66100226058916	1.233310221317879
31.0	183.39707068020834	pulse	0.0	t		40.0	female	west_asian	1.5777954635893354	neutral	038	sub-04	2.0	4.0	038_neutral	0.0		220.78612107818844	
31.0	184.09703967972018	pulse	0.0	t		40.0	female	west_asian	1.5777954635893354	neutral	038	sub-04	2.0	4.0	038_neutral	0.0		221.48609007770028	
31.0	184.50526208392694	fix	1.0		444	40.0	female	west_asian	1.5777954635893354	neutral	038	sub-04	2.0	4.0	038_neutral	0.0		221.89431248190704	3.7665853369198885
31.0	184.7970352424545	pulse	1.0	t		40.0	female	west_asian	1.5777954635893354	neutral	038	sub-04	2.0	4.0	038_neutral	0.0		222.1860856404346	
31.0	185.49701571244805	pulse	1.0	t		40.0	female	west_asian	1.5777954635893354	neutral	038	sub-04	2.0	4.0	038_neutral	0.0		222.88606611042815	
31.0	186.19701610485936	pulse	1.0	t		40.0	female	west_asian	1.5777954635893354	neutral	038	sub-04	2.0	4.0	038_neutral	0.0		223.58606650283946	
31.0	186.89698178396793	pulse	1.0	t		40.0	female	west_asian	1.5777954635893354	neutral	038	sub-04	2.0	4.0	038_neutral	0.0		224.28603218194803	
31.0	187.59697191331543	pulse	1.0	t		40.0	female	west_asian	1.5777954635893354	neutral	038	sub-04	2.0	4.0	038_neutral	0.0		224.98602231129553	
32.0	188.27184742084683	face	0.0		145	31.0	female	west_asian	2.364902506963788	smiling	006	sub-04	2.0	4.0	006_smiling	0.0		225.66089781882692	1.23330961760621
32.0	188.2969819650807	pulse	0.0	t		31.0	female	west_asian	2.364902506963788	smiling	006	sub-04	2.0	4.0	006_smiling	0.0		225.6860323630608	
32.0	188.99694613491556	pulse	0.0	t		31.0	female	west_asian	2.364902506963788	smiling	006	sub-04	2.0	4.0	006_smiling	0.0		226.38599653289566	
32.0	189.50515703845304	fix	1.0		443	31.0	female	west_asian	2.364902506963788	smiling	006	sub-04	2.0	4.0	006_smiling	0.0		226.89420743643313	3.766587751759289
32.0	189.69693777353677	pulse	1.0	t		31.0	female	west_asian	2.364902506963788	smiling	006	sub-04	2.0	4.0	006_smiling	0.0		227.08598817151687	
32.0	190.39694933457577	pulse	1.0	t		31.0	female	west_asian	2.364902506963788	smiling	006	sub-04	2.0	4.0	006_smiling	0.0		227.78599973255587	
32.0	191.09689328013883	pulse	1.0	t		31.0	female	west_asian	2.364902506963788	smiling	006	sub-04	2.0	4.0	006_smiling	0.0		228.48594367811893	
32.0	191.7968870317436	pulse	1.0	t		31.0	female	west_asian	2.364902506963788	smiling	006	sub-04	2.0	4.0	006_smiling	0.0		229.1859374297237	
32.0	192.496868407301	pulse	1.0	t		31.0	female	west_asian	2.364902506963788	smiling	006	sub-04	2.0	4.0	006_smiling	0.0		229.8859188052811	
32.0	193.19686366818132	pulse	1.0	t		31.0	female	west_asian	2.364902506963788	smiling	006	sub-04	2.0	4.0	006_smiling	0.0		230.58591406616142	
33.0	193.27174479021232	face	0.0		146	24.0	female	east_asian	4.409868682849185	neutral	030	sub-04	2.0	4.0	030_neutral	0.0		230.66079518819242	1.233307504622644
33.0	193.89684745857812	pulse	0.0	t		24.0	female	east_asian	4.409868682849185	neutral	030	sub-04	2.0	4.0	030_neutral	0.0		231.28589785655822	
33.0	194.50505229483497	fix	1.0		443	24.0	female	east_asian	4.409868682849185	neutral	030	sub-04	2.0	4.0	030_neutral	0.0		231.89410269281507	3.7665859406297386
33.0	194.5968360786519	pulse	1.0	t		24.0	female	east_asian	4.409868682849185	neutral	030	sub-04	2.0	4.0	030_neutral	0.0		231.985886476632	
33.0	195.29680870042102	pulse	1.0	t		24.0	female	east_asian	4.409868682849185	neutral	030	sub-04	2.0	4.0	030_neutral	0.0		232.68585909840112	
33.0	195.99679550936526	pulse	1.0	t		24.0	female	east_asian	4.409868682849185	neutral	030	sub-04	2.0	4.0	030_neutral	0.0		233.38584590734536	
33.0	196.6967859405686	pulse	1.0	t		24.0	female	east_asian	4.409868682849185	neutral	030	sub-04	2.0	4.0	030_neutral	0.0		234.0858363385487	
33.0	197.39677667362594	pulse	1.0	t		24.0	female	east_asian	4.409868682849185	neutral	030	sub-04	2.0	4.0	030_neutral	0.0		234.78582707160604	
33.0	198.09675533249174	pulse	1.0	t		24.0	female	east_asian	4.409868682849185	neutral	030	sub-04	2.0	4.0	030_neutral	0.0		235.48580573047184	
34.0	198.2716382354647	face	0.0		146	26.0	male	white	2.7966573816155993	neutral	117	sub-04	2.0	4.0	117_neutral	0.0		235.6606886334448	1.241642319560924
34.0	198.7967436507097	pulse	0.0	t		26.0	male	white	2.7966573816155993	neutral	117	sub-04	2.0	4.0	117_neutral	0.0		236.1857940486898	
34.0	199.49672593183277	pulse	0.0	t		26.0	male	white	2.7966573816155993	neutral	117	sub-04	2.0	4.0	117_neutral	0.0		236.88577632981287	
34.0	199.51328055502563	fix	1.0		444	26.0	male	white	2.7966573816155993	neutral	117	sub-04	2.0	4.0	117_neutral	0.0		236.90233095300573	3.758253540530859
34.0	200.19672572053423	pulse	1.0	t		26.0	male	white	2.7966573816155993	neutral	117	sub-04	2.0	4.0	117_neutral	0.0		237.58577611851433	
34.0	200.89669834230335	pulse	1.0	t		26.0	male	white	2.7966573816155993	neutral	117	sub-04	2.0	4.0	117_neutral	0.0		238.28574874028345	
34.0	201.59669330132783	pulse	1.0	t		26.0	male	white	2.7966573816155993	neutral	117	sub-04	2.0	4.0	117_neutral	0.0		238.98574369930793	
34.0	202.2966650175331	pulse	1.0	t		26.0	male	white	2.7966573816155993	neutral	117	sub-04	2.0	4.0	117_neutral	0.0		239.6857154155132	
34.0	202.99664850607405	pulse	1.0	t		26.0	male	white	2.7966573816155993	neutral	117	sub-04	2.0	4.0	117_neutral	0.0		240.38569890405415	
35.0	203.2715340955565	face	0.0		145	24.0	female	east_asian	2.9076800636689217	smiling	034	sub-04	2.0	4.0	034_smiling	1.0	trustworthiness	240.6605844935366	1.233309617608029
35.0	203.69664135211497	pulse	0.0	t		24.0	female	east_asian	2.9076800636689217	smiling	034	sub-04	2.0	4.0	034_smiling	1.0	trustworthiness	241.08569175009507	
35.0	204.396632990738	pulse	0.0	t		24.0	female	east_asian	2.9076800636689217	smiling	034	sub-04	2.0	4.0	034_smiling	1.0	trustworthiness	241.7856833887181	
35.0	204.50484371316452	fix	1.0		177	24.0	female	east_asian	2.9076800636689217	smiling	034	sub-04	2.0	4.0	034_smiling	1.0	trustworthiness	241.89389411114462	1.4999711728651164
35.0	205.09661829040851	pulse	1.0	t		24.0	female	east_asian	2.9076800636689217	smiling	034	sub-04	2.0	4.0	034_smiling	1.0	trustworthiness	242.4856686883886	
35.0	205.79658819548422	pulse	1.0	t		24.0	female	east_asian	2.9076800636689217	smiling	034	sub-04	2.0	4.0	034_smiling	1.0	trustworthiness	243.18563859346432	
35.0	206.00481488602964	rating	2.0		295	24.0	female	east_asian	2.9076800636689217	smiling	034	sub-04	2.0	4.0	034_smiling	1.0	trustworthiness	243.39386528400973	2.499945515206491
35.0	206.49658707862181	pulse	2.0	t		24.0	female	east_asian	2.9076800636689217	smiling	034	sub-04	2.0	4.0	034_smiling	1.0	trustworthiness	243.88563747660191	
35.0	207.19658173579228	pulse	2.0	t		24.0	female	east_asian	2.9076800636689217	smiling	034	sub-04	2.0	4.0	034_smiling	1.0	trustworthiness	244.58563213377238	
35.0	207.75798006007426	response	2.0	y		24.0	female	east_asian	2.9076800636689217	smiling	034	sub-04	2.0	4.0	034_smiling	1.0	trustworthiness	245.14703045805436	
35.0	207.89654500006145	pulse	2.0	t		24.0	female	east_asian	2.9076800636689217	smiling	034	sub-04	2.0	4.0	034_smiling	1.0	trustworthiness	245.28559539804155	
35.0	208.50476040123613	fix	3.0		443	24.0	female	east_asian	2.9076800636689217	smiling	034	sub-04	2.0	4.0	034_smiling	1.0	trustworthiness	245.89381079921623	3.7665865443395887
35.0	208.59654116650563	pulse	3.0	t		24.0	female	east_asian	2.9076800636689217	smiling	034	sub-04	2.0	4.0	034_smiling	1.0	trustworthiness	245.98559156448573	
35.0	209.2965258624663	pulse	3.0	t		24.0	female	east_asian	2.9076800636689217	smiling	034	sub-04	2.0	4.0	034_smiling	1.0	trustworthiness	246.6855762604464	
35.0	209.99650633245983	pulse	3.0	t		24.0	female	east_asian	2.9076800636689217	smiling	034	sub-04	2.0	4.0	034_smiling	1.0	trustworthiness	247.38555673043993	
35.0	210.69648650059935	pulse	3.0	t		24.0	female	east_asian	2.9076800636689217	smiling	034	sub-04	2.0	4.0	034_smiling	1.0	trustworthiness	248.08553689857945	
35.0	211.39648085591398	pulse	3.0	t		24.0	female	east_asian	2.9076800636689217	smiling	034	sub-04	2.0	4.0	034_smiling	1.0	trustworthiness	248.78553125389408	
35.0	212.09646404260275	pulse	3.0	t		24.0	female	east_asian	2.9076800636689217	smiling	034	sub-04	2.0	4.0	034_smiling	1.0	trustworthiness	249.48551444058285	
36.0	212.27134694557571	face	0.0		146	25.0	female	black	3.858336649423	smiling	126	sub-04	2.0	4.0	126_smiling	0.0		249.66039734355581	1.2416438288346399
36.0	212.79645326638456	pulse	0.0	t		25.0	female	black	3.858336649423	smiling	126	sub-04	2.0	4.0	126_smiling	0.0		250.18550366436466	
36.0	213.49642769928323	pulse	0.0	t		25.0	female	black	3.858336649423	smiling	126	sub-04	2.0	4.0	126_smiling	0.0		250.88547809726333	
36.0	213.51299077441035	fix	1.0		443	25.0	female	black	3.858336649423	smiling	126	sub-04	2.0	4.0	126_smiling	0.0		250.90204117239045	3.758248710853877
36.0	214.19642175274384	pulse	1.0	t		25.0	female	black	3.858336649423	smiling	126	sub-04	2.0	4.0	126_smiling	0.0		251.58547215072394	
36.0	214.8964049394308	pulse	1.0	t		25.0	female	black	3.858336649423	smiling	126	sub-04	2.0	4.0	126_smiling	0.0		252.2854553374109	
36.0	215.59638691869804	pulse	1.0	t		25.0	female	black	3.858336649423	smiling	126	sub-04	2.0	4.0	126_smiling	0.0		252.98543731667814	
36.0	216.29638610369148	pulse	1.0	t		25.0	female	black	3.858336649423	smiling	126	sub-04	2.0	4.0	126_smiling	0.0		253.68543650167157	
36.0	216.9963641588456	pulse	1.0	t		25.0	female	black	3.858336649423	smiling	126	sub-04	2.0	4.0	126_smiling	0.0		254.3854145568257	
37.0	217.27123948526423	face	0.0		145	27.0	female	white	4.181058495821727	smiling	039	sub-04	2.0	4.0	039_smiling	0.0		254.66028988324433	1.2333144472850108
37.0	217.69635428819493	pulse	0.0	t		27.0	female	white	4.181058495821727	smiling	039	sub-04	2.0	4.0	039_smiling	0.0		255.08540468617502	
37.0	218.39633445633262	pulse	0.0	t		27.0	female	white	4.181058495821727	smiling	039	sub-04	2.0	4.0	039_smiling	0.0		255.78538485431272	
37.0	218.50455393254924	fix	1.0		444	27.0	female	white	4.181058495821727	smiling	039	sub-04	2.0	4.0	039_smiling	0.0		255.89360433052934	3.758316024475789
37.0	219.0963215671327	pulse	1.0	t		27.0	female	white	4.181058495821727	smiling	039	sub-04	2.0	4.0	039_smiling	0.0		256.4853719651128	
37.0	219.79630384825577	pulse	1.0	t		27.0	female	white	4.181058495821727	smiling	039	sub-04	2.0	4.0	039_smiling	0.0		257.1853542462359	
37.0	220.496285223815	pulse	1.0	t		27.0	female	white	4.181058495821727	smiling	039	sub-04	2.0	4.0	039_smiling	0.0		257.8853356217951	
37.0	221.19628410695077	pulse	1.0	t		27.0	female	white	4.181058495821727	smiling	039	sub-04	2.0	4.0	039_smiling	0.0		258.58533450493087	
37.0	221.89625491759216	pulse	1.0	t		27.0	female	white	4.181058495821727	smiling	039	sub-04	2.0	4.0	039_smiling	0.0		259.28530531557226	
38.0	222.26286995702503	face	0.0		146	40.0	male	white	1.868682849184242	smiling	172	sub-04	2.0	4.0	172_smiling	0.0		259.65192035500513	1.2415795337601594
38.0	222.5962504803265	pulse	0.0	t		40.0	male	white	1.868682849184242	smiling	172	sub-04	2.0	4.0	172_smiling	0.0		259.9853008783066	
38.0	223.2962243095135	pulse	0.0	t		40.0	male	white	1.868682849184242	smiling	172	sub-04	2.0	4.0	172_smiling	0.0		260.6852747074936	
38.0	223.5044494907852	fix	1.0		444	40.0	male	white	1.868682849184242	smiling	172	sub-04	2.0	4.0	172_smiling	0.0		260.8934998887653	3.766584431356023
38.0	223.99621474071682	pulse	1.0	t		40.0	male	white	1.868682849184242	smiling	172	sub-04	2.0	4.0	172_smiling	0.0		261.3852651386969	
38.0	224.6962045682103	pulse	1.0	t		40.0	male	white	1.868682849184242	smiling	172	sub-04	2.0	4.0	172_smiling	0.0		262.0852549661904	
38.0	225.39618262336444	pulse	1.0	t		40.0	male	white	1.868682849184242	smiling	172	sub-04	2.0	4.0	172_smiling	0.0		262.78523302134454	
38.0	226.09617154529406	pulse	1.0	t		40.0	male	white	1.868682849184242	smiling	172	sub-04	2.0	4.0	172_smiling	0.0		263.48522194327415	
38.0	226.79615684496457	pulse	1.0	t		40.0	male	white	1.868682849184242	smiling	172	sub-04	2.0	4.0	172_smiling	0.0		264.18520724294467	
39.0	227.2710339221412	face	0.0		145	19.0	male	white	3.2522881018702745	neutral	018	sub-04	2.0	4.0	018_neutral	0.0		264.6600843201213	1.2333120324456104
39.0	227.49615059656935	pulse	0.0	t		19.0	male	white	3.2522881018702745	neutral	018	sub-04	2.0	4.0	018_neutral	0.0		264.88520099454945	
39.0	228.19613680180555	pulse	0.0	t		19.0	male	white	3.2522881018702745	neutral	018	sub-04	2.0	4.0	018_neutral	0.0		265.58518719978565	
39.0	228.50434595458682	fix	1.0		444	19.0	male	white	3.2522881018702745	neutral	018	sub-04	2.0	4.0	018_neutral	0.0		265.8933963525669	3.7499211404319794
39.0	228.89611696994507	pulse	1.0	t		19.0	male	white	3.2522881018702745	neutral	018	sub-04	2.0	4.0	018_neutral	0.0		266.28516736792517	
39.0	229.59610076034187	pulse	1.0	t		19.0	male	white	3.2522881018702745	neutral	018	sub-04	2.0	4.0	018_neutral	0.0		266.98515115832197	
39.0	230.2960800229157	pulse	1.0	t		19.0	male	white	3.2522881018702745	neutral	018	sub-04	2.0	4.0	018_neutral	0.0		267.6851304208958	
39.0	230.9960647188782	pulse	1.0	t		19.0	male	white	3.2522881018702745	neutral	018	sub-04	2.0	4.0	018_neutral	0.0		268.3851151168583	
39.0	231.6960551500797	pulse	1.0	t		19.0	male	white	3.2522881018702745	neutral	018	sub-04	2.0	4.0	018_neutral	0.0		269.0851055480598	
40.0	232.2542670950188	fix	0.0		720													269.6433174929989	5.999874126544455
40.0	232.39605886289428	pulse	0.0	t														269.7851092608744	
40.0	233.09601971232587	pulse	0.0	t														270.48507011030597	
40.0	233.79600199344895	pulse	0.0	t														271.18505239142905	
40.0	234.49600057473072	pulse	0.0	t														271.8850509727108	
40.0	235.19598979851435	pulse	0.0	t														272.58504019649445	
40.0	235.89595940173604	pulse	0.0	t														273.28500979971614	
40.0	236.5959667368079	pulse	0.0	t														273.985017134788	
40.0	237.29593694373762	pulse	0.0	t														274.6849873417177	
40.0	237.99592345082783	pulse	0.0	t														275.38497384880793	
