trial_nr	onset	event_type	phase	response	nr_frames	face_age	face_sex	face_eth	attractiveness	expression	face_id	sub_id	ses	run	trial_type	catch	rating_type	onset_abs	duration
-1.0	0.05690767569194577	fix	0.0		714													24.04541686815628	5.9663945119900745
-1.0	0.7068309133419461	pulse	0.0	t														24.69534010580628	
-1.0	1.4068229443055316	pulse	0.0	t														25.395332136769866	
-1.0	2.1068119566944006	pulse	0.0	t														26.095321149158735	
-1.0	2.806797950508553	pulse	0.0	t														26.795307142972888	
-1.0	3.5067942074765597	pulse	0.0	t														27.495303399940894	
-1.0	4.206783823579826	pulse	0.0	t														28.19529301604416	
-1.0	4.906777061973116	pulse	0.0	t														28.89528625443745	
-1.0	5.606761848357564	pulse	0.0	t														29.5952710408219	
0.0	6.02330218768202	face	0.0		144	24.0	female	black	3.0955033824114606	smiling	099	sub-17	1.0	3.0	099_smiling	0.0		30.011811380146355	1.2333448642875737
0.0	6.306765651761452	pulse	0.0	t		24.0	female	black	3.0955033824114606	smiling	099	sub-17	1.0	3.0	099_smiling	0.0		30.295274844225787	
0.0	7.006753154862963	pulse	0.0	t		24.0	female	black	3.0955033824114606	smiling	099	sub-17	1.0	3.0	099_smiling	0.0		30.995262347327298	
0.0	7.256647051969594	fix	1.0		444	24.0	female	black	3.0955033824114606	smiling	099	sub-17	1.0	3.0	099_smiling	0.0		31.24515624443393	3.7582807044873334
0.0	7.706764806560386	pulse	1.0	t		24.0	female	black	3.0955033824114606	smiling	099	sub-17	1.0	3.0	099_smiling	0.0		31.69527399902472	
0.0	8.406743857653964	pulse	1.0	t		24.0	female	black	3.0955033824114606	smiling	099	sub-17	1.0	3.0	099_smiling	0.0		32.3952530501183	
0.0	9.106724418033991	pulse	1.0	t		24.0	female	black	3.0955033824114606	smiling	099	sub-17	1.0	3.0	099_smiling	0.0		33.095233610498326	
0.0	9.806695318975471	pulse	1.0	t		24.0	female	black	3.0955033824114606	smiling	099	sub-17	1.0	3.0	099_smiling	0.0		33.795204511439806	
0.0	10.506727195122949	pulse	1.0	t		24.0	female	black	3.0955033824114606	smiling	099	sub-17	1.0	3.0	099_smiling	0.0		34.49523638758728	
1.0	11.014927756456927	face	0.0		146	26.0	female	white	4.854755272582572	smiling	027	sub-17	1.0	3.0	027_smiling	0.0		35.00343694892126	1.241655603590516
1.0	11.206708661075027	pulse	0.0	t		26.0	female	white	4.854755272582572	smiling	027	sub-17	1.0	3.0	027_smiling	0.0		35.19521785353936	
1.0	11.906697069748589	pulse	0.0	t		26.0	female	white	4.854755272582572	smiling	027	sub-17	1.0	3.0	027_smiling	0.0		35.89520626221292	
1.0	12.256583360047443	fix	1.0		444	26.0	female	white	4.854755272582572	smiling	027	sub-17	1.0	3.0	027_smiling	0.0		36.24509255251178	3.7582502168852443
1.0	12.606708117731614	pulse	1.0	t		26.0	female	white	4.854755272582572	smiling	027	sub-17	1.0	3.0	027_smiling	0.0		36.59521731019595	
1.0	13.306730636297289	pulse	1.0	t		26.0	female	white	4.854755272582572	smiling	027	sub-17	1.0	3.0	027_smiling	0.0		37.29523982876162	
1.0	14.006682520220238	pulse	1.0	t		26.0	female	white	4.854755272582572	smiling	027	sub-17	1.0	3.0	027_smiling	0.0		37.99519171268457	
1.0	14.70667666418558	pulse	1.0	t		26.0	female	white	4.854755272582572	smiling	027	sub-17	1.0	3.0	027_smiling	0.0		38.695185856649914	
1.0	15.406652092989134	pulse	1.0	t		26.0	female	white	4.854755272582572	smiling	027	sub-17	1.0	3.0	027_smiling	0.0		39.39516128545347	
2.0	16.014833576932688	face	0.0		146	40.0	female	west_asian	1.5777954635893354	neutral	038	sub-17	1.0	3.0	038_neutral	0.0		40.00334276939702	1.241693637629396
2.0	16.106651066673294	pulse	0.0	t		40.0	female	west_asian	1.5777954635893354	neutral	038	sub-17	1.0	3.0	038_neutral	0.0		40.09516025913763	
2.0	16.80664068277747	pulse	0.0	t		40.0	female	west_asian	1.5777954635893354	neutral	038	sub-17	1.0	3.0	038_neutral	0.0		40.795149875241805	
2.0	17.256527214562084	fix	1.0		444	40.0	female	west_asian	1.5777954635893354	neutral	038	sub-17	1.0	3.0	038_neutral	0.0		41.24503640702642	3.75827708219731
2.0	17.506636939745476	pulse	1.0	t		40.0	female	west_asian	1.5777954635893354	neutral	038	sub-17	1.0	3.0	038_neutral	0.0		41.49514613220981	
2.0	18.206629272565806	pulse	1.0	t		40.0	female	west_asian	1.5777954635893354	neutral	038	sub-17	1.0	3.0	038_neutral	0.0		42.19513846503014	
2.0	18.90662794439322	pulse	1.0	t		40.0	female	west_asian	1.5777954635893354	neutral	038	sub-17	1.0	3.0	038_neutral	0.0		42.89513713685756	
2.0	19.60660790105885	pulse	1.0	t		40.0	female	west_asian	1.5777954635893354	neutral	038	sub-17	1.0	3.0	038_neutral	0.0		43.595117093523186	
2.0	20.30660355431155	pulse	1.0	t		40.0	female	west_asian	1.5777954635893354	neutral	038	sub-17	1.0	3.0	038_neutral	0.0		44.295112746775885	
3.0	21.014804296759394	face	0.0		146	19.0	male	white	3.2522881018702745	neutral	018	sub-17	1.0	3.0	018_neutral	0.0		45.00331348922373	1.241662848170563
3.0	21.00789327045004	pulse	0.0	t		19.0	male	white	3.2522881018702745	neutral	018	sub-17	1.0	3.0	018_neutral	0.0		44.996402462914375	
3.0	21.706597577534012	pulse	0.0	t		19.0	male	white	3.2522881018702745	neutral	018	sub-17	1.0	3.0	018_neutral	0.0		45.69510676999835	
3.0	22.256467144929957	fix	1.0		443	19.0	male	white	3.2522881018702745	neutral	018	sub-17	1.0	3.0	018_neutral	0.0		46.24497633739429	3.758266517186712
3.0	22.406577534198732	pulse	1.0	t		19.0	male	white	3.2522881018702745	neutral	018	sub-17	1.0	3.0	018_neutral	0.0		46.39508672666307	
3.0	23.106567754017306	pulse	1.0	t		19.0	male	white	3.2522881018702745	neutral	018	sub-17	1.0	3.0	018_neutral	0.0		47.09507694648164	
3.0	23.806559181266493	pulse	1.0	t		19.0	male	white	3.2522881018702745	neutral	018	sub-17	1.0	3.0	018_neutral	0.0		47.79506837373083	
3.0	24.50656117352537	pulse	1.0	t		19.0	male	white	3.2522881018702745	neutral	018	sub-17	1.0	3.0	018_neutral	0.0		48.495070365989704	
3.0	25.206539922760385	pulse	1.0	t		19.0	male	white	3.2522881018702745	neutral	018	sub-17	1.0	3.0	018_neutral	0.0		49.19504911522472	
3.0	25.906535877870738	pulse	1.0	t		19.0	male	white	3.2522881018702745	neutral	018	sub-17	1.0	3.0	018_neutral	0.0		49.89504507033507	
4.0	26.01473366211667	face	0.0		147	34.0	male	white	2.651014723438122	smiling	121	sub-17	1.0	3.0	121_smiling	0.0		50.003242854581	1.241670092748791
4.0	26.606531531123437	pulse	0.0	t		34.0	male	white	2.651014723438122	smiling	121	sub-17	1.0	3.0	121_smiling	0.0		50.59504072358777	
4.0	27.25640375486546	fix	1.0		443	34.0	male	white	2.651014723438122	smiling	121	sub-17	1.0	3.0	121_smiling	0.0		51.244912947329794	3.758270139475826
4.0	27.306513902648476	pulse	1.0	t		34.0	male	white	2.651014723438122	smiling	121	sub-17	1.0	3.0	121_smiling	0.0		51.29502309511281	
4.0	28.006503216895	pulse	1.0	t		34.0	male	white	2.651014723438122	smiling	121	sub-17	1.0	3.0	121_smiling	0.0		51.99501240935933	
4.0	28.706505511011528	pulse	1.0	t		34.0	male	white	2.651014723438122	smiling	121	sub-17	1.0	3.0	121_smiling	0.0		52.69501470347586	
4.0	29.40651957756836	pulse	1.0	t		34.0	male	white	2.651014723438122	smiling	121	sub-17	1.0	3.0	121_smiling	0.0		53.395028770032695	
4.0	30.10649711937458	pulse	1.0	t		34.0	male	white	2.651014723438122	smiling	121	sub-17	1.0	3.0	121_smiling	0.0		54.095006311838915	
4.0	30.806474963037545	pulse	1.0	t		34.0	male	white	2.651014723438122	smiling	121	sub-17	1.0	3.0	121_smiling	0.0		54.79498415550188	
5.0	31.014673894341286	face	0.0		146	26.0	male	white	2.7966573816155993	smiling	117	sub-17	1.0	3.0	117_smiling	0.0		55.00318308680562	1.2416752243252631
5.0	31.506478766441433	pulse	0.0	t		26.0	male	white	2.7966573816155993	smiling	117	sub-17	1.0	3.0	117_smiling	0.0		55.49498795890577	
5.0	32.20646294911148	pulse	0.0	t		26.0	male	white	2.7966573816155993	smiling	117	sub-17	1.0	3.0	117_smiling	0.0		56.19497214157582	
5.0	32.25634911866655	fix	1.0		445	26.0	male	white	2.7966573816155993	smiling	117	sub-17	1.0	3.0	117_smiling	0.0		56.24485831113088	3.7666167998158926
5.0	32.906454678217415	pulse	1.0	t		26.0	male	white	2.7966573816155993	smiling	117	sub-17	1.0	3.0	117_smiling	0.0		56.89496387068175	
5.0	33.60644157760362	pulse	1.0	t		26.0	male	white	2.7966573816155993	smiling	117	sub-17	1.0	3.0	117_smiling	0.0		57.59495077006795	
5.0	34.3064342122816	pulse	1.0	t		26.0	male	white	2.7966573816155993	smiling	117	sub-17	1.0	3.0	117_smiling	0.0		58.294943404745936	
5.0	35.00642262095607	pulse	1.0	t		26.0	male	white	2.7966573816155993	smiling	117	sub-17	1.0	3.0	117_smiling	0.0		58.99493181342041	
5.0	35.70641646306376	pulse	1.0	t		26.0	male	white	2.7966573816155993	smiling	117	sub-17	1.0	3.0	117_smiling	0.0		59.694925655528095	
6.0	36.02296591848244	face	0.0		145	22.0	female	white	4.614007162753682	neutral	009	sub-17	1.0	3.0	009_neutral	0.0		60.011475110946776	1.233325243553736
6.0	36.40641604046323	pulse	0.0	t		22.0	female	white	4.614007162753682	neutral	009	sub-17	1.0	3.0	009_neutral	0.0		60.39492523292756	
6.0	37.10639961941797	pulse	0.0	t		22.0	female	white	4.614007162753682	neutral	009	sub-17	1.0	3.0	009_neutral	0.0		61.094908811882306	
6.0	37.25629116203618	fix	1.0		445	22.0	female	white	4.614007162753682	neutral	009	sub-17	1.0	3.0	009_neutral	0.0		61.24480035450051	3.7666180072465067
6.0	37.80639678195803	pulse	1.0	t		22.0	female	white	4.614007162753682	neutral	009	sub-17	1.0	3.0	009_neutral	0.0		61.79490597442236	
6.0	38.5063857943469	pulse	1.0	t		22.0	female	white	4.614007162753682	neutral	009	sub-17	1.0	3.0	009_neutral	0.0		62.49489498681123	
6.0	39.206377221595176	pulse	1.0	t		22.0	female	white	4.614007162753682	neutral	009	sub-17	1.0	3.0	009_neutral	0.0		63.19488641405951	
6.0	39.90637317670553	pulse	1.0	t		22.0	female	white	4.614007162753682	neutral	009	sub-17	1.0	3.0	009_neutral	0.0		63.89488236916986	
6.0	40.60636581138351	pulse	1.0	t		22.0	female	white	4.614007162753682	neutral	009	sub-17	1.0	3.0	009_neutral	0.0		64.59487500384785	
7.0	41.022909169282684	face	0.0		145	31.0	female	white	2.1822522881018704	smiling	102	sub-17	1.0	3.0	102_smiling	0.0		65.01141836174702	1.2333237342663779
7.0	41.306356936775046	pulse	0.0	t		31.0	female	white	2.1822522881018704	smiling	102	sub-17	1.0	3.0	102_smiling	0.0		65.29486612923938	
7.0	42.00634111944419	pulse	0.0	t		31.0	female	white	2.1822522881018704	smiling	102	sub-17	1.0	3.0	102_smiling	0.0		65.99485031190852	
7.0	42.25623290354906	fix	1.0		444	31.0	female	white	2.1822522881018704	smiling	102	sub-17	1.0	3.0	102_smiling	0.0		66.2447420960134	3.7666041218026294
7.0	42.70635005442455	pulse	1.0	t		31.0	female	white	2.1822522881018704	smiling	102	sub-17	1.0	3.0	102_smiling	0.0		66.69485924688888	
7.0	43.40633031294783	pulse	1.0	t		31.0	female	white	2.1822522881018704	smiling	102	sub-17	1.0	3.0	102_smiling	0.0		67.39483950541216	
7.0	44.106303326891975	pulse	1.0	t		31.0	female	white	2.1822522881018704	smiling	102	sub-17	1.0	3.0	102_smiling	0.0		68.09481251935631	
7.0	44.80631678973441	pulse	1.0	t		31.0	female	white	2.1822522881018704	smiling	102	sub-17	1.0	3.0	102_smiling	0.0		68.79482598219874	
7.0	45.50630731140973	pulse	1.0	t		31.0	female	white	2.1822522881018704	smiling	102	sub-17	1.0	3.0	102_smiling	0.0		69.49481650387406	
8.0	46.02283702535169	face	0.0		145	21.0	male	black	2.969757262236371	neutral	137	sub-17	1.0	3.0	137_neutral	0.0		70.01134621781603	1.2333406382840622
8.0	46.2063174538207	pulse	0.0	t		21.0	male	black	2.969757262236371	neutral	137	sub-17	1.0	3.0	137_neutral	0.0		70.19482664628504	
8.0	46.906325785085755	pulse	0.0	t		21.0	male	black	2.969757262236371	neutral	137	sub-17	1.0	3.0	137_neutral	0.0		70.89483497755009	
8.0	47.256177663635754	fix	1.0		444	21.0	male	black	2.969757262236371	neutral	137	sub-17	1.0	3.0	137_neutral	0.0		71.24468685610009	3.76660170694322
8.0	47.60628310244283	pulse	1.0	t		21.0	male	black	2.969757262236371	neutral	137	sub-17	1.0	3.0	137_neutral	0.0		71.59479229490717	
8.0	48.3062938485682	pulse	1.0	t		21.0	male	black	2.969757262236371	neutral	137	sub-17	1.0	3.0	137_neutral	0.0		72.29480304103254	
8.0	49.00626384393763	pulse	1.0	t		21.0	male	black	2.969757262236371	neutral	137	sub-17	1.0	3.0	137_neutral	0.0		72.99477303640197	
8.0	49.70625587490031	pulse	1.0	t		21.0	male	black	2.969757262236371	neutral	137	sub-17	1.0	3.0	137_neutral	0.0		73.69476506736464	
8.0	50.40624700029184	pulse	1.0	t		21.0	male	black	2.969757262236371	neutral	137	sub-17	1.0	3.0	137_neutral	0.0		74.39475619275618	
9.0	51.022779370578974	face	0.0		145	54.0	female	white	2.286908077994429	neutral	136	sub-17	1.0	3.0	136_neutral	0.0		75.01128856304331	1.2333373178516922
9.0	51.10624899255072	pulse	0.0	t		54.0	female	white	2.286908077994429	neutral	136	sub-17	1.0	3.0	136_neutral	0.0		75.09475818501505	
9.0	51.8062310622181	pulse	0.0	t		54.0	female	white	2.286908077994429	neutral	136	sub-17	1.0	3.0	136_neutral	0.0		75.79474025468244	
9.0	52.256116688430666	fix	1.0		444	54.0	female	white	2.286908077994429	neutral	136	sub-17	1.0	3.0	136_neutral	0.0		76.244625880895	3.7666029143729247
9.0	52.50622731918611	pulse	1.0	t		54.0	female	white	2.286908077994429	neutral	136	sub-17	1.0	3.0	136_neutral	0.0		76.49473651165044	
9.0	53.20621753900468	pulse	1.0	t		54.0	female	white	2.286908077994429	neutral	136	sub-17	1.0	3.0	136_neutral	0.0		77.19472673146902	
9.0	53.90620987182501	pulse	1.0	t		54.0	female	white	2.286908077994429	neutral	136	sub-17	1.0	3.0	136_neutral	0.0		77.89471906428935	
9.0	54.60620280836065	pulse	1.0	t		54.0	female	white	2.286908077994429	neutral	136	sub-17	1.0	3.0	136_neutral	0.0		78.59471200082498	
9.0	55.306186689173046	pulse	1.0	t		54.0	female	white	2.286908077994429	neutral	136	sub-17	1.0	3.0	136_neutral	0.0		79.29469588163738	
10.0	56.02271960280359	face	0.0		146	34.0	male	white	2.651014723438122	neutral	121	sub-17	1.0	3.0	121_neutral	0.0		80.01122879526793	1.2333382234246528
10.0	56.0090285563183	pulse	0.0	t		34.0	male	white	2.651014723438122	neutral	121	sub-17	1.0	3.0	121_neutral	0.0		79.99753774878263	
10.0	56.70617859939375	pulse	0.0	t		34.0	male	white	2.651014723438122	neutral	121	sub-17	1.0	3.0	121_neutral	0.0		80.69468779185809	
10.0	57.25605782622824	fix	1.0		443	34.0	male	white	2.651014723438122	neutral	121	sub-17	1.0	3.0	121_neutral	0.0		81.24456701869258	3.766619214675302
10.0	57.40616821549702	pulse	1.0	t		34.0	male	white	2.651014723438122	neutral	121	sub-17	1.0	3.0	121_neutral	0.0		81.39467740796135	
10.0	58.10615813345885	pulse	1.0	t		34.0	male	white	2.651014723438122	neutral	121	sub-17	1.0	3.0	121_neutral	0.0		82.09466732592318	
10.0	58.806147749562115	pulse	1.0	t		34.0	male	white	2.651014723438122	neutral	121	sub-17	1.0	3.0	121_neutral	0.0		82.79465694202645	
10.0	59.50613887495274	pulse	1.0	t		34.0	male	white	2.651014723438122	neutral	121	sub-17	1.0	3.0	121_neutral	0.0		83.49464806741707	
10.0	60.20613392449104	pulse	1.0	t		34.0	male	white	2.651014723438122	neutral	121	sub-17	1.0	3.0	121_neutral	0.0		84.19464311695538	
10.0	60.906119918305194	pulse	1.0	t		34.0	male	white	2.651014723438122	neutral	121	sub-17	1.0	3.0	121_neutral	0.0		84.89462911076953	
11.0	61.022677040903545	face	0.0		146	19.0	male	white	3.2522881018702745	smiling	018	sub-17	1.0	3.0	018_smiling	0.0		85.01118623336788	1.2333225268366732
11.0	61.60612372170908	pulse	0.0	t		19.0	male	white	3.2522881018702745	smiling	018	sub-17	1.0	3.0	018_smiling	0.0		85.59463291417342	
11.0	62.25599956774022	fix	1.0		443	19.0	male	white	3.2522881018702745	smiling	018	sub-17	1.0	3.0	018_smiling	0.0		86.24450876020455	3.758415031052209
11.0	62.3061223935365	pulse	1.0	t		19.0	male	white	3.2522881018702745	smiling	018	sub-17	1.0	3.0	018_smiling	0.0		86.29463158600083	
11.0	63.006098727912104	pulse	1.0	t		19.0	male	white	3.2522881018702745	smiling	018	sub-17	1.0	3.0	018_smiling	0.0		86.99460792037644	
11.0	63.7060931737351	pulse	1.0	t		19.0	male	white	3.2522881018702745	smiling	018	sub-17	1.0	3.0	018_smiling	0.0		87.69460236619943	
11.0	64.40608550655634	pulse	1.0	t		19.0	male	white	3.2522881018702745	smiling	018	sub-17	1.0	3.0	018_smiling	0.0		88.39459469902067	
11.0	65.10607210408489	pulse	1.0	t		19.0	male	white	3.2522881018702745	smiling	018	sub-17	1.0	3.0	018_smiling	0.0		89.09458129654922	
11.0	65.80606202204672	pulse	1.0	t		19.0	male	white	3.2522881018702745	smiling	018	sub-17	1.0	3.0	018_smiling	0.0		89.79457121451105	
12.0	66.01441459879243	face	0.0		146	24.0	female	black	3.0955033824114606	neutral	099	sub-17	1.0	3.0	099_neutral	0.0		90.00292379125676	1.241525804887715
12.0	66.50606220316058	pulse	0.0	t		24.0	female	black	3.0955033824114606	neutral	099	sub-17	1.0	3.0	099_neutral	0.0		90.49457139562492	
12.0	67.20605604526918	pulse	0.0	t		24.0	female	black	3.0955033824114606	neutral	099	sub-17	1.0	3.0	099_neutral	0.0		91.19456523773351	
12.0	67.25594040368014	fix	1.0		445	24.0	female	black	3.0955033824114606	neutral	099	sub-17	1.0	3.0	099_neutral	0.0		91.24444959614448	3.766619818390609
12.0	67.90604354837069	pulse	1.0	t		24.0	female	black	3.0955033824114606	neutral	099	sub-17	1.0	3.0	099_neutral	0.0		91.89455274083502	
12.0	68.60604825734663	pulse	1.0	t		24.0	female	black	3.0955033824114606	neutral	099	sub-17	1.0	3.0	099_neutral	0.0		92.59455744981096	
12.0	69.3060273084402	pulse	1.0	t		24.0	female	black	3.0955033824114606	neutral	099	sub-17	1.0	3.0	099_neutral	0.0		93.29453650090454	
12.0	70.0060211505479	pulse	1.0	t		24.0	female	black	3.0955033824114606	neutral	099	sub-17	1.0	3.0	099_neutral	0.0		93.99453034301223	
12.0	70.70600895550706	pulse	1.0	t		24.0	female	black	3.0955033824114606	neutral	099	sub-17	1.0	3.0	099_neutral	0.0		94.6945181479714	
13.0	71.02256022207075	face	0.0		145	19.0	female	white	4.298846000795861	smiling	100	sub-17	1.0	3.0	100_smiling	1.0	attractiveness	95.01106941453509	1.2333213194069685
13.0	71.40601034405154	pulse	0.0	t		19.0	female	white	4.298846000795861	smiling	100	sub-17	1.0	3.0	100_smiling	1.0	attractiveness	95.39451953651587	
13.0	72.10599331929097	pulse	0.0	t		19.0	female	white	4.298846000795861	smiling	100	sub-17	1.0	3.0	100_smiling	1.0	attractiveness	96.09450251175531	
13.0	72.25588154147772	fix	1.0		177	19.0	female	white	4.298846000795861	smiling	100	sub-17	1.0	3.0	100_smiling	1.0	attractiveness	96.24439073394205	1.5083656773585972
13.0	72.80598655768426	pulse	1.0	t		19.0	female	white	4.298846000795861	smiling	100	sub-17	1.0	3.0	100_smiling	1.0	attractiveness	96.7944957501486	
13.0	73.50597768307489	pulse	1.0	t		19.0	female	white	4.298846000795861	smiling	100	sub-17	1.0	3.0	100_smiling	1.0	attractiveness	97.49448687553922	
13.0	73.76424721883632	rating	2.0		294	19.0	female	white	4.298846000795861	smiling	100	sub-17	1.0	3.0	100_smiling	1.0	attractiveness	97.75275641130065	2.4915869310216294
13.0	74.20073520400456	pulse	2.0	t		19.0	female	white	4.298846000795861	smiling	100	sub-17	1.0	3.0	100_smiling	1.0	attractiveness	98.1892443964689	
13.0	74.90087423954537	pulse	2.0	t		19.0	female	white	4.298846000795861	smiling	100	sub-17	1.0	3.0	100_smiling	1.0	attractiveness	98.88938343200971	
13.0	75.08095182898433	response	2.0	g		19.0	female	white	4.298846000795861	smiling	100	sub-17	1.0	3.0	100_smiling	1.0	attractiveness	99.06946102144866	
13.0	75.6059353626606	pulse	2.0	t		19.0	female	white	4.298846000795861	smiling	100	sub-17	1.0	3.0	100_smiling	1.0	attractiveness	99.59444455512494	
13.0	76.25583414985795	fix	3.0		443	19.0	female	white	4.298846000795861	smiling	100	sub-17	1.0	3.0	100_smiling	1.0	attractiveness	100.24434334232228	3.7582879490655614
13.0	76.30595425893716	pulse	3.0	t		19.0	female	white	4.298846000795861	smiling	100	sub-17	1.0	3.0	100_smiling	1.0	attractiveness	100.2944634514015	
13.0	77.00593421560188	pulse	3.0	t		19.0	female	white	4.298846000795861	smiling	100	sub-17	1.0	3.0	100_smiling	1.0	attractiveness	100.99444340806622	
13.0	77.70593077442754	pulse	3.0	t		19.0	female	white	4.298846000795861	smiling	100	sub-17	1.0	3.0	100_smiling	1.0	attractiveness	101.69443996689188	
13.0	78.40590831623285	pulse	3.0	t		19.0	female	white	4.298846000795861	smiling	100	sub-17	1.0	3.0	100_smiling	1.0	attractiveness	102.39441750869719	
13.0	79.10592057164558	pulse	3.0	t		19.0	female	white	4.298846000795861	smiling	100	sub-17	1.0	3.0	100_smiling	1.0	attractiveness	103.09442976410992	
13.0	79.80590052831121	pulse	3.0	t		19.0	female	white	4.298846000795861	smiling	100	sub-17	1.0	3.0	100_smiling	1.0	attractiveness	103.79440972077555	
14.0	80.01412209892351	face	0.0		146	24.0	female	east_asian	4.409868682849185	neutral	030	sub-17	1.0	3.0	030_neutral	0.0		104.00263129138784	1.2416546980184648
14.0	80.50589889828098	pulse	0.0	t		24.0	female	east_asian	4.409868682849185	neutral	030	sub-17	1.0	3.0	030_neutral	0.0		104.49440809074531	
14.0	81.20589968311015	pulse	0.0	t		24.0	female	east_asian	4.409868682849185	neutral	030	sub-17	1.0	3.0	030_neutral	0.0		105.19440887557448	
14.0	81.25577679694197	fix	1.0		444	24.0	female	east_asian	4.409868682849185	neutral	030	sub-17	1.0	3.0	030_neutral	0.0		105.24428598940631	3.7666219313932743
14.0	81.90588114906313	pulse	1.0	t		24.0	female	east_asian	4.409868682849185	neutral	030	sub-17	1.0	3.0	030_neutral	0.0		105.89439034152747	
14.0	82.60587891531759	pulse	1.0	t		24.0	female	east_asian	4.409868682849185	neutral	030	sub-17	1.0	3.0	030_neutral	0.0		106.59438810778192	
14.0	83.30586973885147	pulse	1.0	t		24.0	female	east_asian	4.409868682849185	neutral	030	sub-17	1.0	3.0	030_neutral	0.0		107.2943789313158	
14.0	84.00585301594856	pulse	1.0	t		24.0	female	east_asian	4.409868682849185	neutral	030	sub-17	1.0	3.0	030_neutral	0.0		107.9943622084129	
14.0	84.70584504691215	pulse	1.0	t		24.0	female	east_asian	4.409868682849185	neutral	030	sub-17	1.0	3.0	030_neutral	0.0		108.69435423937648	
15.0	85.02239872833525	face	0.0		145	22.0	female	white	4.614007162753682	smiling	009	sub-17	1.0	3.0	009_smiling	0.0		109.01090792079958	1.2333152822575357
15.0	85.40584070016484	pulse	0.0	t		22.0	female	white	4.614007162753682	smiling	009	sub-17	1.0	3.0	009_smiling	0.0		109.39434989262918	
15.0	86.10583333484283	pulse	0.0	t		22.0	female	white	4.614007162753682	smiling	009	sub-17	1.0	3.0	009_smiling	0.0		110.09434252730716	
15.0	86.25571401059278	fix	1.0		444	22.0	female	white	4.614007162753682	smiling	009	sub-17	1.0	3.0	009_smiling	0.0		110.24422320305712	3.766614686814137
15.0	86.80584076053583	pulse	1.0	t		22.0	female	white	4.614007162753682	smiling	009	sub-17	1.0	3.0	009_smiling	0.0		110.79434995300016	
15.0	87.5058086429035	pulse	1.0	t		22.0	female	white	4.614007162753682	smiling	009	sub-17	1.0	3.0	009_smiling	0.0		111.49431783536784	
15.0	88.2058048998706	pulse	1.0	t		22.0	female	white	4.614007162753682	smiling	009	sub-17	1.0	3.0	009_smiling	0.0		112.19431409233493	
15.0	88.9058005531233	pulse	1.0	t		22.0	female	white	4.614007162753682	smiling	009	sub-17	1.0	3.0	009_smiling	0.0		112.89430974558763	
15.0	89.60578775436807	pulse	1.0	t		22.0	female	white	4.614007162753682	smiling	009	sub-17	1.0	3.0	009_smiling	0.0		113.5942969468324	
16.0	90.02232869740692	face	0.0		145	40.0	male	black	2.408674890569041	neutral	061	sub-17	1.0	3.0	061_neutral	0.0		114.01083788987125	1.2333312807022594
16.0	90.30578491690812	pulse	0.0	t		40.0	male	black	2.408674890569041	neutral	061	sub-17	1.0	3.0	061_neutral	0.0		114.29429410937246	
16.0	91.00578600359495	pulse	0.0	t		40.0	male	black	2.408674890569041	neutral	061	sub-17	1.0	3.0	061_neutral	0.0		114.99429519605928	
16.0	91.25565997810918	fix	1.0		444	40.0	male	black	2.408674890569041	neutral	061	sub-17	1.0	3.0	061_neutral	0.0		115.24416917057351	3.766605932947641
16.0	91.70577924198733	pulse	1.0	t		40.0	male	black	2.408674890569041	neutral	061	sub-17	1.0	3.0	061_neutral	0.0		115.69428843445166	
16.0	92.40575316150444	pulse	1.0	t		40.0	male	black	2.408674890569041	neutral	061	sub-17	1.0	3.0	061_neutral	0.0		116.39426235396877	
16.0	93.10574730546978	pulse	1.0	t		40.0	male	black	2.408674890569041	neutral	061	sub-17	1.0	3.0	061_neutral	0.0		117.09425649793411	
16.0	93.8057384308604	pulse	1.0	t		40.0	male	black	2.408674890569041	neutral	061	sub-17	1.0	3.0	061_neutral	0.0		117.79424762332474	
16.0	94.50573046182399	pulse	1.0	t		40.0	male	black	2.408674890569041	neutral	061	sub-17	1.0	3.0	061_neutral	0.0		118.49423965428832	
17.0	95.02226591105682	face	0.0		145	23.0	male	white	2.6275368085953046	neutral	141	sub-17	1.0	3.0	141_neutral	0.0		119.01077510352115	1.2333370159949482
17.0	95.20574301909346	pulse	0.0	t		23.0	male	white	2.6275368085953046	neutral	141	sub-17	1.0	3.0	141_neutral	0.0		119.1942522115578	
17.0	95.90570758102876	pulse	0.0	t		23.0	male	white	2.6275368085953046	neutral	141	sub-17	1.0	3.0	141_neutral	0.0		119.8942167734931	
17.0	96.25560292705177	fix	1.0		444	23.0	male	white	2.6275368085953046	neutral	141	sub-17	1.0	3.0	141_neutral	0.0		120.2441121195161	3.7583099846588084
17.0	96.60570685657149	pulse	1.0	t		23.0	male	white	2.6275368085953046	neutral	141	sub-17	1.0	3.0	141_neutral	0.0		120.59421604903582	
17.0	97.30569345410095	pulse	1.0	t		23.0	male	white	2.6275368085953046	neutral	141	sub-17	1.0	3.0	141_neutral	0.0		121.29420264656528	
17.0	98.00569544635982	pulse	1.0	t		23.0	male	white	2.6275368085953046	neutral	141	sub-17	1.0	3.0	141_neutral	0.0		121.99420463882416	
17.0	98.7057061924852	pulse	1.0	t		23.0	male	white	2.6275368085953046	neutral	141	sub-17	1.0	3.0	141_neutral	0.0		122.69421538494953	
17.0	99.40567648971228	pulse	1.0	t		23.0	male	white	2.6275368085953046	neutral	141	sub-17	1.0	3.0	141_neutral	0.0		123.39418568217661	
18.0	100.01391291171058	face	0.0		146	27.0	female	white	3.504576203740549	neutral	144	sub-17	1.0	3.0	144_neutral	0.0		124.00242210417491	1.241629945708155
18.0	100.10567636896849	pulse	0.0	t		27.0	female	white	3.504576203740549	neutral	144	sub-17	1.0	3.0	144_neutral	0.0		124.09418556143282	
18.0	100.80565843863678	pulse	0.0	t		27.0	female	white	3.504576203740549	neutral	144	sub-17	1.0	3.0	144_neutral	0.0		124.79416763110112	
18.0	101.25554285741873	fix	1.0		444	27.0	female	white	3.504576203740549	neutral	144	sub-17	1.0	3.0	144_neutral	0.0		125.24405204988307	3.7666180072455973
18.0	101.50565348817418	pulse	1.0	t		27.0	female	white	3.504576203740549	neutral	144	sub-17	1.0	3.0	144_neutral	0.0		125.49416268063851	
18.0	102.20564250056304	pulse	1.0	t		27.0	female	white	3.504576203740549	neutral	144	sub-17	1.0	3.0	144_neutral	0.0		126.19415169302738	
18.0	102.90564479467957	pulse	1.0	t		27.0	female	white	3.504576203740549	neutral	144	sub-17	1.0	3.0	144_neutral	0.0		126.89415398714391	
18.0	103.60563380706844	pulse	1.0	t		27.0	female	white	3.504576203740549	neutral	144	sub-17	1.0	3.0	144_neutral	0.0		127.59414299953278	
18.0	104.3056198008826	pulse	1.0	t		27.0	female	white	3.504576203740549	neutral	144	sub-17	1.0	3.0	144_neutral	0.0		128.29412899334693	
19.0	105.02216086466433	face	0.0		146	32.0	male	white	2.389176283326701	smiling	092	sub-17	1.0	3.0	092_smiling	0.0		129.01067005712866	1.2333155841151893
19.0	105.00903610275509	pulse	0.0	t		32.0	male	white	2.389176283326701	smiling	092	sub-17	1.0	3.0	092_smiling	0.0		128.99754529521942	
19.0	105.7056117111033	pulse	0.0	t		32.0	male	white	2.389176283326701	smiling	092	sub-17	1.0	3.0	092_smiling	0.0		129.69412090356764	
19.0	106.25547644877952	fix	1.0		443	32.0	male	white	2.389176283326701	smiling	092	sub-17	1.0	3.0	092_smiling	0.0		130.24398564124385	3.7666180072465067
19.0	106.4055961956301	pulse	1.0	t		32.0	male	white	2.389176283326701	smiling	092	sub-17	1.0	3.0	092_smiling	0.0		130.39410538809443	
19.0	107.10558520801897	pulse	1.0	t		32.0	male	white	2.389176283326701	smiling	092	sub-17	1.0	3.0	092_smiling	0.0		131.0940944004833	
19.0	107.80557482412314	pulse	1.0	t		32.0	male	white	2.389176283326701	smiling	092	sub-17	1.0	3.0	092_smiling	0.0		131.79408401658748	
19.0	108.50557138294789	pulse	1.0	t		32.0	male	white	2.389176283326701	smiling	092	sub-17	1.0	3.0	092_smiling	0.0		132.49408057541223	
19.0	109.20557367706442	pulse	1.0	t		32.0	male	white	2.389176283326701	smiling	092	sub-17	1.0	3.0	092_smiling	0.0		133.19408286952876	
19.0	109.90555544487415	pulse	1.0	t		32.0	male	white	2.389176283326701	smiling	092	sub-17	1.0	3.0	092_smiling	0.0		133.8940646373385	
20.0	110.02209445602603	face	0.0		146	31.0	female	west_asian	2.364902506963788	smiling	006	sub-17	1.0	3.0	006_smiling	0.0		134.01060364849036	1.2333297714149012
20.0	110.60555079627011	pulse	0.0	t		31.0	female	west_asian	2.364902506963788	smiling	006	sub-17	1.0	3.0	006_smiling	0.0		134.59405998873444	
20.0	111.25542422744093	fix	1.0		1184	31.0	female	west_asian	2.364902506963788	smiling	006	sub-17	1.0	3.0	006_smiling	0.0		135.24393341990526	10.016537864093152
20.0	111.30553135665014	pulse	1.0	t		31.0	female	west_asian	2.364902506963788	smiling	006	sub-17	1.0	3.0	006_smiling	0.0		135.29404054911447	
20.0	112.00552459504343	pulse	1.0	t		31.0	female	west_asian	2.364902506963788	smiling	006	sub-17	1.0	3.0	006_smiling	0.0		135.99403378750776	
20.0	112.70552930401936	pulse	1.0	t		31.0	female	west_asian	2.364902506963788	smiling	006	sub-17	1.0	3.0	006_smiling	0.0		136.6940384964837	
20.0	113.40551409040381	pulse	1.0	t		31.0	female	west_asian	2.364902506963788	smiling	006	sub-17	1.0	3.0	006_smiling	0.0		137.39402328286815	
20.0	114.10550702693945	pulse	1.0	t		31.0	female	west_asian	2.364902506963788	smiling	006	sub-17	1.0	3.0	006_smiling	0.0		138.09401621940378	
20.0	114.80549392632656	pulse	1.0	t		31.0	female	west_asian	2.364902506963788	smiling	006	sub-17	1.0	3.0	006_smiling	0.0		138.7940031187909	
20.0	115.50549410744043	pulse	1.0	t		31.0	female	west_asian	2.364902506963788	smiling	006	sub-17	1.0	3.0	006_smiling	0.0		139.49400329990476	
20.0	116.20548855326342	pulse	1.0	t		31.0	female	west_asian	2.364902506963788	smiling	006	sub-17	1.0	3.0	006_smiling	0.0		140.19399774572776	
20.0	116.90547183036142	pulse	1.0	t		31.0	female	west_asian	2.364902506963788	smiling	006	sub-17	1.0	3.0	006_smiling	0.0		140.89398102282576	
20.0	117.60546265389439	pulse	1.0	t		31.0	female	west_asian	2.364902506963788	smiling	006	sub-17	1.0	3.0	006_smiling	0.0		141.59397184635873	
20.0	118.30545438300032	pulse	1.0	t		31.0	female	west_asian	2.364902506963788	smiling	006	sub-17	1.0	3.0	006_smiling	0.0		142.29396357546466	
20.0	119.00544792325127	pulse	1.0	t		31.0	female	west_asian	2.364902506963788	smiling	006	sub-17	1.0	3.0	006_smiling	0.0		142.9939571157156	
20.0	119.7054408597869	pulse	1.0	t		31.0	female	west_asian	2.364902506963788	smiling	006	sub-17	1.0	3.0	006_smiling	0.0		143.69395005225124	
20.0	120.40543107960548	pulse	1.0	t		31.0	female	west_asian	2.364902506963788	smiling	006	sub-17	1.0	3.0	006_smiling	0.0		144.3939402720698	
20.0	121.10543005328964	pulse	1.0	t		31.0	female	west_asian	2.364902506963788	smiling	006	sub-17	1.0	3.0	006_smiling	0.0		145.09393924575397	
21.0	121.27196209153408	face	0.0		146	37.0	male	white	3.898925586947871	smiling	101	sub-17	1.0	3.0	101_smiling	0.0		145.2604712839984	1.2333349029922829
21.0	121.8054178582488	pulse	0.0	t		37.0	male	white	3.898925586947871	smiling	101	sub-17	1.0	3.0	101_smiling	0.0		145.79392705071314	
21.0	122.50529699452636	fix	1.0		444	37.0	male	white	3.898925586947871	smiling	101	sub-17	1.0	3.0	101_smiling	0.0		146.4938061869907	3.7666062348052947
21.0	122.51290108553985	pulse	1.0	t		37.0	male	white	3.898925586947871	smiling	101	sub-17	1.0	3.0	101_smiling	0.0		146.5014102780042	
21.0	123.20540041088861	pulse	1.0	t		37.0	male	white	3.898925586947871	smiling	101	sub-17	1.0	3.0	101_smiling	0.0		147.19390960335295	
21.0	123.90539817714307	pulse	1.0	t		37.0	male	white	3.898925586947871	smiling	101	sub-17	1.0	3.0	101_smiling	0.0		147.8939073696074	
21.0	124.60539171739401	pulse	1.0	t		37.0	male	white	3.898925586947871	smiling	101	sub-17	1.0	3.0	101_smiling	0.0		148.59390090985835	
21.0	125.30537227777404	pulse	1.0	t		37.0	male	white	3.898925586947871	smiling	101	sub-17	1.0	3.0	101_smiling	0.0		149.29388147023838	
21.0	126.00537638303558	pulse	1.0	t		37.0	male	white	3.898925586947871	smiling	101	sub-17	1.0	3.0	101_smiling	0.0		149.99388557549992	
22.0	126.27190322933166	face	0.0		145	31.0	female	west_asian	2.364902506963788	neutral	006	sub-17	1.0	3.0	006_neutral	0.0		150.260412421796	1.233346977290239
22.0	126.70536056570472	pulse	0.0	t		31.0	female	west_asian	2.364902506963788	neutral	006	sub-17	1.0	3.0	006_neutral	0.0		150.69386975816906	
22.0	127.40535652081508	pulse	0.0	t		31.0	female	west_asian	2.364902506963788	neutral	006	sub-17	1.0	3.0	006_neutral	0.0		151.3938657132794	
22.0	127.5052502066219	fix	1.0		444	31.0	female	west_asian	2.364902506963788	neutral	006	sub-17	1.0	3.0	006_neutral	0.0		151.49375939908623	3.7583860527365687
22.0	128.1053446276319	pulse	1.0	t		31.0	female	west_asian	2.364902506963788	neutral	006	sub-17	1.0	3.0	006_neutral	0.0		152.09385382009623	
22.0	128.8053327344478	pulse	1.0	t		31.0	female	west_asian	2.364902506963788	neutral	006	sub-17	1.0	3.0	006_neutral	0.0		152.79384192691214	
22.0	129.50529910752812	pulse	1.0	t		31.0	female	west_asian	2.364902506963788	neutral	006	sub-17	1.0	3.0	006_neutral	0.0		153.49380829999245	
22.0	130.20531770194702	pulse	1.0	t		31.0	female	west_asian	2.364902506963788	neutral	006	sub-17	1.0	3.0	006_neutral	0.0		154.19382689441136	
22.0	130.90530761990794	pulse	1.0	t		31.0	female	west_asian	2.364902506963788	neutral	006	sub-17	1.0	3.0	006_neutral	0.0		154.89381681237228	
23.0	131.26363625935846	face	0.0		146	20.0	male	black	3.1070433744528456	neutral	082	sub-17	1.0	3.0	082_neutral	0.0		155.2521454518228	1.2415550850600994
23.0	131.6053376849104	pulse	0.0	t		20.0	male	black	3.1070433744528456	neutral	082	sub-17	1.0	3.0	082_neutral	0.0		155.59384687737474	
23.0	132.30530345427542	pulse	0.0	t		20.0	male	black	3.1070433744528456	neutral	082	sub-17	1.0	3.0	082_neutral	0.0		156.29381264673975	
23.0	132.50519134441856	fix	1.0		444	20.0	male	black	3.1070433744528456	neutral	082	sub-17	1.0	3.0	082_neutral	0.0		156.4937005368829	3.7583920898860015
23.0	133.00529820195607	pulse	1.0	t		20.0	male	black	3.1070433744528456	neutral	082	sub-17	1.0	3.0	082_neutral	0.0		156.9938073944204	
23.0	133.70528147905316	pulse	1.0	t		20.0	male	black	3.1070433744528456	neutral	082	sub-17	1.0	3.0	082_neutral	0.0		157.6937906715175	
23.0	134.40526717101056	pulse	1.0	t		20.0	male	black	3.1070433744528456	neutral	082	sub-17	1.0	3.0	082_neutral	0.0		158.3937763634749	
23.0	135.10526523912267	pulse	1.0	t		20.0	male	black	3.1070433744528456	neutral	082	sub-17	1.0	3.0	082_neutral	0.0		159.093774431587	
23.0	135.80524730879006	pulse	1.0	t		20.0	male	black	3.1070433744528456	neutral	082	sub-17	1.0	3.0	082_neutral	0.0		159.7937565012544	
24.0	136.26358343430456	face	0.0		146	31.0	female	east_asian	3.395941106247513	smiling	087	sub-17	1.0	3.0	087_smiling	1.0	dominance	160.2520926267689	1.2415384829009781
24.0	136.50524809361923	pulse	0.0	t		31.0	female	east_asian	3.395941106247513	smiling	087	sub-17	1.0	3.0	087_smiling	1.0	dominance	160.49375728608356	
24.0	137.2052371060081	pulse	0.0	t		31.0	female	east_asian	3.395941106247513	smiling	087	sub-17	1.0	3.0	087_smiling	1.0	dominance	161.19374629847243	
24.0	137.50512191720554	fix	1.0		177	31.0	female	east_asian	3.395941106247513	smiling	087	sub-17	1.0	3.0	087_smiling	1.0	dominance	161.49363110966988	1.4999855108426345
24.0	137.90522823139872	pulse	1.0	t		31.0	female	east_asian	3.395941106247513	smiling	087	sub-17	1.0	3.0	087_smiling	1.0	dominance	161.89373742386306	
24.0	138.60521694193085	pulse	1.0	t		31.0	female	east_asian	3.395941106247513	smiling	087	sub-17	1.0	3.0	087_smiling	1.0	dominance	162.59372613439518	
24.0	139.00510742804818	rating	2.0		294	31.0	female	east_asian	3.395941106247513	smiling	087	sub-17	1.0	3.0	087_smiling	1.0	dominance	162.9936166205125	2.4999686068249503
24.0	139.2999696331408	pulse	2.0	t		31.0	female	east_asian	3.395941106247513	smiling	087	sub-17	1.0	3.0	087_smiling	1.0	dominance	163.28847882560513	
24.0	139.9999577399567	pulse	2.0	t		31.0	female	east_asian	3.395941106247513	smiling	087	sub-17	1.0	3.0	087_smiling	1.0	dominance	163.98846693242103	
24.0	140.63020530532594	response	2.0	b		31.0	female	east_asian	3.395941106247513	smiling	087	sub-17	1.0	3.0	087_smiling	1.0	dominance	164.61871449779028	
24.0	140.69995641178411	pulse	2.0	t		31.0	female	east_asian	3.395941106247513	smiling	087	sub-17	1.0	3.0	087_smiling	1.0	dominance	164.68846560424845	
24.0	141.40519683822458	pulse	2.0	t		31.0	female	east_asian	3.395941106247513	smiling	087	sub-17	1.0	3.0	087_smiling	1.0	dominance	165.39370603068892	
24.0	141.50507603487313	fix	3.0		444	31.0	female	east_asian	3.395941106247513	smiling	087	sub-17	1.0	3.0	087_smiling	1.0	dominance	165.49358522733746	3.766621327677967
24.0	142.1051849450405	pulse	3.0	t		31.0	female	east_asian	3.395941106247513	smiling	087	sub-17	1.0	3.0	087_smiling	1.0	dominance	166.09369413750483	
24.0	142.80517667414642	pulse	3.0	t		31.0	female	east_asian	3.395941106247513	smiling	087	sub-17	1.0	3.0	087_smiling	1.0	dominance	166.79368586661076	
24.0	143.50516659210825	pulse	3.0	t		31.0	female	east_asian	3.395941106247513	smiling	087	sub-17	1.0	3.0	087_smiling	1.0	dominance	167.4936757845726	
24.0	144.2051595286439	pulse	3.0	t		31.0	female	east_asian	3.395941106247513	smiling	087	sub-17	1.0	3.0	087_smiling	1.0	dominance	168.19366872110822	
24.0	144.90514612617244	pulse	3.0	t		31.0	female	east_asian	3.395941106247513	smiling	087	sub-17	1.0	3.0	087_smiling	1.0	dominance	168.89365531863677	
25.0	145.2716973625511	face	0.0		145	36.0	female	white	2.7548746518105847	neutral	011	sub-17	1.0	3.0	011_neutral	0.0		169.26020655501543	1.2333303751302083
25.0	145.60513906270808	pulse	0.0	t		36.0	female	white	2.7548746518105847	neutral	011	sub-17	1.0	3.0	011_neutral	0.0		169.5936482551724	
25.0	146.30512566023754	pulse	0.0	t		36.0	female	white	2.7548746518105847	neutral	011	sub-17	1.0	3.0	011_neutral	0.0		170.29363485270187	
25.0	146.5050277376813	fix	1.0		444	36.0	female	white	2.7548746518105847	neutral	011	sub-17	1.0	3.0	011_neutral	0.0		170.49353693014564	3.766596575366748
25.0	147.00510893733463	pulse	1.0	t		36.0	female	white	2.7548746518105847	neutral	011	sub-17	1.0	3.0	011_neutral	0.0		170.99361812979896	
25.0	147.7051103258791	pulse	1.0	t		36.0	female	white	2.7548746518105847	neutral	011	sub-17	1.0	3.0	011_neutral	0.0		171.69361951834344	
25.0	148.40510809213447	pulse	1.0	t		36.0	female	white	2.7548746518105847	neutral	011	sub-17	1.0	3.0	011_neutral	0.0		172.3936172845988	
25.0	149.1051004249548	pulse	1.0	t		36.0	female	white	2.7548746518105847	neutral	011	sub-17	1.0	3.0	011_neutral	0.0		173.09360961741913	
25.0	149.80511358593958	pulse	1.0	t		36.0	female	white	2.7548746518105847	neutral	011	sub-17	1.0	3.0	011_neutral	0.0		173.79362277840391	
26.0	150.27162431304805	face	0.0		145	26.0	female	white	4.854755272582572	neutral	027	sub-17	1.0	3.0	027_neutral	0.0		174.26013350551239	1.233335204849027
26.0	150.50508539245402	pulse	0.0	t		26.0	female	white	4.854755272582572	neutral	027	sub-17	1.0	3.0	027_neutral	0.0		174.49359458491836	
26.0	151.2050786308473	pulse	0.0	t		26.0	female	white	4.854755272582572	neutral	027	sub-17	1.0	3.0	027_neutral	0.0		175.19358782331165	
26.0	151.50495951789708	fix	1.0		444	26.0	female	white	4.854755272582572	neutral	027	sub-17	1.0	3.0	027_neutral	0.0		175.4934687103614	3.766603518088232
26.0	151.90506583209117	pulse	1.0	t		26.0	female	white	4.854755272582572	neutral	027	sub-17	1.0	3.0	027_neutral	0.0		175.8935750245555	
26.0	152.60505031661796	pulse	1.0	t		26.0	female	white	4.854755272582572	neutral	027	sub-17	1.0	3.0	027_neutral	0.0		176.5935595090823	
26.0	153.3050532144498	pulse	1.0	t		26.0	female	white	4.854755272582572	neutral	027	sub-17	1.0	3.0	027_neutral	0.0		177.29356240691413	
26.0	154.00503498225953	pulse	1.0	t		26.0	female	white	4.854755272582572	neutral	027	sub-17	1.0	3.0	027_neutral	0.0		177.99354417472387	
26.0	154.70502248536104	pulse	1.0	t		26.0	female	white	4.854755272582572	neutral	027	sub-17	1.0	3.0	027_neutral	0.0		178.69353167782538	
27.0	155.2715630359853	face	0.0		145	40.0	male	white	1.868682849184242	neutral	172	sub-17	1.0	3.0	172_neutral	0.0		179.26007222844964	1.2333373178516922
27.0	155.4050166293273	pulse	0.0	t		40.0	male	white	1.868682849184242	neutral	172	sub-17	1.0	3.0	172_neutral	0.0		179.39352582179163	
27.0	156.10501439558175	pulse	0.0	t		40.0	male	white	1.868682849184242	neutral	172	sub-17	1.0	3.0	172_neutral	0.0		180.09352358804608	
27.0	156.504900353837	fix	1.0		444	40.0	male	white	1.868682849184242	neutral	172	sub-17	1.0	3.0	172_neutral	0.0		180.49340954630134	3.7582616874678934
27.0	156.8050121618371	pulse	1.0	t		40.0	male	white	1.868682849184242	neutral	172	sub-17	1.0	3.0	172_neutral	0.0		180.79352135430145	
27.0	157.50500087236833	pulse	1.0	t		40.0	male	white	1.868682849184242	neutral	172	sub-17	1.0	3.0	172_neutral	0.0		181.49351006483266	
27.0	158.20499199775895	pulse	1.0	t		40.0	male	white	1.868682849184242	neutral	172	sub-17	1.0	3.0	172_neutral	0.0		182.1935011902233	
27.0	158.90498131200548	pulse	1.0	t		40.0	male	white	1.868682849184242	neutral	172	sub-17	1.0	3.0	172_neutral	0.0		182.8934905044698	
27.0	159.6049712299664	pulse	1.0	t		40.0	male	white	1.868682849184242	neutral	172	sub-17	1.0	3.0	172_neutral	0.0		183.59348042243073	
28.0	160.2631620413049	face	0.0		146	20.0	male	black	2.609629924393156	neutral	043	sub-17	1.0	3.0	043_neutral	0.0		184.25167123376923	1.2416824689044006
28.0	160.30498771138355	pulse	0.0	t		20.0	male	black	2.609629924393156	neutral	043	sub-17	1.0	3.0	043_neutral	0.0		184.29349690384788	
28.0	161.00495619746562	pulse	0.0	t		20.0	male	black	2.609629924393156	neutral	043	sub-17	1.0	3.0	043_neutral	0.0		184.99346538992995	
28.0	161.5048445102093	fix	1.0		443	20.0	male	black	2.609629924393156	neutral	043	sub-17	1.0	3.0	043_neutral	0.0		185.49335370267363	3.766617101673546
28.0	161.70495336000567	pulse	1.0	t		20.0	male	black	2.609629924393156	neutral	043	sub-17	1.0	3.0	043_neutral	0.0		185.69346255247	
28.0	162.40493844824778	pulse	1.0	t		20.0	male	black	2.609629924393156	neutral	043	sub-17	1.0	3.0	043_neutral	0.0		186.3934476407121	
28.0	163.10493349778517	pulse	1.0	t		20.0	male	black	2.609629924393156	neutral	043	sub-17	1.0	3.0	043_neutral	0.0		187.0934426902495	
28.0	163.80489775786373	pulse	1.0	t		20.0	male	black	2.609629924393156	neutral	043	sub-17	1.0	3.0	043_neutral	0.0		187.79340695032806	
28.0	164.50491333370792	pulse	1.0	t		20.0	male	black	2.609629924393156	neutral	043	sub-17	1.0	3.0	043_neutral	0.0		188.49342252617225	
28.0	165.20547587525107	pulse	1.0	t		20.0	male	black	2.609629924393156	neutral	043	sub-17	1.0	3.0	043_neutral	0.0		189.1939850677154	
29.0	165.27146161188284	face	0.0		146	24.0	female	east_asian	2.9076800636689217	smiling	034	sub-17	1.0	3.0	034_smiling	0.0		189.25997080434718	1.2333231305510708
29.0	165.90490464021332	pulse	0.0	t		24.0	female	east_asian	2.9076800636689217	smiling	034	sub-17	1.0	3.0	034_smiling	0.0		189.89341383267765	
29.0	166.5047847424339	fix	1.0		443	24.0	female	east_asian	2.9076800636689217	smiling	034	sub-17	1.0	3.0	034_smiling	0.0		190.49329393489825	3.766604121803539
29.0	166.60489636931925	pulse	1.0	t		24.0	female	east_asian	2.9076800636689217	smiling	034	sub-17	1.0	3.0	034_smiling	0.0		190.59340556178358	
29.0	167.30488085384604	pulse	1.0	t		24.0	female	east_asian	2.9076800636689217	smiling	034	sub-17	1.0	3.0	034_smiling	0.0		191.29339004631038	
29.0	168.00487197923667	pulse	1.0	t		24.0	female	east_asian	2.9076800636689217	smiling	034	sub-17	1.0	3.0	034_smiling	0.0		191.993381171701	
29.0	168.7048736696388	pulse	1.0	t		24.0	female	east_asian	2.9076800636689217	smiling	034	sub-17	1.0	3.0	034_smiling	0.0		192.69338286210314	
29.0	169.4048581541656	pulse	1.0	t		24.0	female	east_asian	2.9076800636689217	smiling	034	sub-17	1.0	3.0	034_smiling	0.0		193.39336734662993	
29.0	170.10485290184624	pulse	1.0	t		24.0	female	east_asian	2.9076800636689217	smiling	034	sub-17	1.0	3.0	034_smiling	0.0		194.09336209431058	
30.0	170.27138886423745	face	0.0		146	47.0	male	east_asian	2.171110226820533	neutral	024	sub-17	1.0	3.0	024_neutral	0.0		194.2598980567018	1.2333385252813969
30.0	170.80484553652423	pulse	0.0	t		47.0	male	east_asian	2.171110226820533	neutral	024	sub-17	1.0	3.0	024_neutral	0.0		194.79335472898856	
30.0	171.50472738951885	fix	1.0		444	47.0	male	east_asian	2.171110226820533	neutral	024	sub-17	1.0	3.0	024_neutral	0.0		195.49323658198318	3.7582722524784913
30.0	171.51220711526275	pulse	1.0	t		47.0	male	east_asian	2.171110226820533	neutral	024	sub-17	1.0	3.0	024_neutral	0.0		195.5007163077271	
30.0	172.20483291888286	pulse	1.0	t		47.0	male	east_asian	2.171110226820533	neutral	024	sub-17	1.0	3.0	024_neutral	0.0		196.1933421113472	
30.0	172.90483491114264	pulse	1.0	t		47.0	male	east_asian	2.171110226820533	neutral	024	sub-17	1.0	3.0	024_neutral	0.0		196.89334410360698	
30.0	173.60481426409297	pulse	1.0	t		47.0	male	east_asian	2.171110226820533	neutral	024	sub-17	1.0	3.0	024_neutral	0.0		197.5933234565573	
30.0	174.30480116347917	pulse	1.0	t		47.0	male	east_asian	2.171110226820533	neutral	024	sub-17	1.0	3.0	024_neutral	0.0		198.2933103559435	
30.0	175.00479621301747	pulse	1.0	t		47.0	male	east_asian	2.171110226820533	neutral	024	sub-17	1.0	3.0	024_neutral	0.0		198.9933054054818	
31.0	175.26299964199734	face	0.0		146	20.0	male	black	2.609629924393156	smiling	043	sub-17	1.0	3.0	043_smiling	0.0		199.25150883446167	1.241670394605535
31.0	175.70479307369988	pulse	0.0	t		20.0	male	black	2.609629924393156	smiling	043	sub-17	1.0	3.0	043_smiling	0.0		199.6933022661642	
31.0	176.4047754452249	pulse	0.0	t		20.0	male	black	2.609629924393156	smiling	043	sub-17	1.0	3.0	043_smiling	0.0		200.39328463768925	
31.0	176.50467003660287	fix	1.0		444	20.0	male	black	2.609629924393156	smiling	043	sub-17	1.0	3.0	043_smiling	0.0		200.4931792290672	3.766619818390609
31.0	177.10477713562614	pulse	1.0	t		20.0	male	black	2.609629924393156	smiling	043	sub-17	1.0	3.0	043_smiling	0.0		201.09328632809047	
31.0	177.80476222386824	pulse	1.0	t		20.0	male	black	2.609629924393156	smiling	043	sub-17	1.0	3.0	043_smiling	0.0		201.79327141633257	
31.0	178.50476753655948	pulse	1.0	t		20.0	male	black	2.609629924393156	smiling	043	sub-17	1.0	3.0	043_smiling	0.0		202.49327672902382	
31.0	179.20473783378657	pulse	1.0	t		20.0	male	black	2.609629924393156	smiling	043	sub-17	1.0	3.0	043_smiling	0.0		203.1932470262509	
31.0	179.9047389204734	pulse	1.0	t		20.0	male	black	2.609629924393156	smiling	043	sub-17	1.0	3.0	043_smiling	0.0		203.89324811293773	
32.0	180.27128985499348	face	0.0		145	26.0	male	white	2.7966573816155993	neutral	117	sub-17	1.0	3.0	117_neutral	1.0	attractiveness	204.25979904745782	1.2333083395369613
32.0	180.60473849787286	pulse	0.0	t		26.0	male	white	2.7966573816155993	neutral	117	sub-17	1.0	3.0	117_neutral	1.0	attractiveness	204.5932476903372	
32.0	181.30470547466757	pulse	0.0	t		26.0	male	white	2.7966573816155993	neutral	117	sub-17	1.0	3.0	117_neutral	1.0	attractiveness	205.2932146671319	
32.0	181.50459819453044	fix	1.0		177	26.0	male	white	2.7966573816155993	neutral	117	sub-17	1.0	3.0	117_neutral	1.0	attractiveness	205.49310738699478	1.499995773995579
32.0	182.00473553967004	pulse	1.0	t		26.0	male	white	2.7966573816155993	neutral	117	sub-17	1.0	3.0	117_neutral	1.0	attractiveness	205.99324473213437	
32.0	182.70470734618448	pulse	1.0	t		26.0	male	white	2.7966573816155993	neutral	117	sub-17	1.0	3.0	117_neutral	1.0	attractiveness	206.6932165386488	
32.0	183.00459396852602	rating	2.0		295	26.0	male	white	2.7966573816155993	neutral	117	sub-17	1.0	3.0	117_neutral	1.0	attractiveness	206.99310316099036	2.499969814254655
32.0	183.39947241355003	pulse	2.0	t		26.0	male	white	2.7966573816155993	neutral	117	sub-17	1.0	3.0	117_neutral	1.0	attractiveness	207.38798160601436	
32.0	184.09962503267616	pulse	2.0	t		26.0	male	white	2.7966573816155993	neutral	117	sub-17	1.0	3.0	117_neutral	1.0	attractiveness	208.0881342251405	
32.0	184.79956846459027	pulse	2.0	t		26.0	male	white	2.7966573816155993	neutral	117	sub-17	1.0	3.0	117_neutral	1.0	attractiveness	208.7880776570546	
32.0	184.87967086671142	response	2.0	e		26.0	male	white	2.7966573816155993	neutral	117	sub-17	1.0	3.0	117_neutral	1.0	attractiveness	208.86818005917576	
32.0	185.50456378278068	fix	3.0		443	26.0	male	white	2.7966573816155993	neutral	117	sub-17	1.0	3.0	117_neutral	1.0	attractiveness	209.493072975245	3.7666044236611924
32.0	185.51248240925725	pulse	3.0	t		26.0	male	white	2.7966573816155993	neutral	117	sub-17	1.0	3.0	117_neutral	1.0	attractiveness	209.50099160172158	
32.0	186.20466599171323	pulse	3.0	t		26.0	male	white	2.7966573816155993	neutral	117	sub-17	1.0	3.0	117_neutral	1.0	attractiveness	210.19317518417756	
32.0	186.9046525892427	pulse	3.0	t		26.0	male	white	2.7966573816155993	neutral	117	sub-17	1.0	3.0	117_neutral	1.0	attractiveness	210.89316178170702	
32.0	187.60464431834862	pulse	3.0	t		26.0	male	white	2.7966573816155993	neutral	117	sub-17	1.0	3.0	117_neutral	1.0	attractiveness	211.59315351081295	
32.0	188.304639367886	pulse	3.0	t		26.0	male	white	2.7966573816155993	neutral	117	sub-17	1.0	3.0	117_neutral	1.0	attractiveness	212.29314856035035	
32.0	189.00463230442165	pulse	3.0	t		26.0	male	white	2.7966573816155993	neutral	117	sub-17	1.0	3.0	117_neutral	1.0	attractiveness	212.99314149688598	
33.0	189.27116820644187	face	0.0		145	22.0	female	west_asian	3.8205332272184642	smiling	066	sub-17	1.0	3.0	066_smiling	0.0		213.2596773989062	1.2333367141363851
33.0	189.70463550411114	pulse	0.0	t		22.0	female	west_asian	3.8205332272184642	smiling	066	sub-17	1.0	3.0	066_smiling	0.0		213.69314469657547	
33.0	190.40461666820647	pulse	0.0	t		22.0	female	west_asian	3.8205332272184642	smiling	066	sub-17	1.0	3.0	066_smiling	0.0		214.3931258606708	
33.0	190.50450492057826	fix	1.0		444	22.0	female	west_asian	3.8205332272184642	smiling	066	sub-17	1.0	3.0	066_smiling	0.0		214.4930141130426	3.7666080459503064
33.0	191.10461111402947	pulse	1.0	t		22.0	female	west_asian	3.8205332272184642	smiling	066	sub-17	1.0	3.0	066_smiling	0.0		215.0931203064938	
33.0	191.80459891898772	pulse	1.0	t		22.0	female	west_asian	3.8205332272184642	smiling	066	sub-17	1.0	3.0	066_smiling	0.0		215.79310811145206	
33.0	192.50461057068605	pulse	1.0	t		22.0	female	west_asian	3.8205332272184642	smiling	066	sub-17	1.0	3.0	066_smiling	0.0		216.4931197631504	
33.0	193.20458116976988	pulse	1.0	t		22.0	female	west_asian	3.8205332272184642	smiling	066	sub-17	1.0	3.0	066_smiling	0.0		217.19309036223422	
33.0	193.9045891991782	pulse	1.0	t		22.0	female	west_asian	3.8205332272184642	smiling	066	sub-17	1.0	3.0	066_smiling	0.0		217.89309839164252	
34.0	194.27111296652856	face	0.0		145	21.0	male	east_asian/white	3.501790688420215	smiling	036	sub-17	1.0	3.0	036_smiling	1.0	trustworthiness	218.2596221589929	1.233343656857869
34.0	194.6045842487165	pulse	0.0	t		21.0	male	east_asian/white	3.501790688420215	smiling	036	sub-17	1.0	3.0	036_smiling	1.0	trustworthiness	218.59309344118083	
34.0	195.30455696080298	pulse	0.0	t		21.0	male	east_asian/white	3.501790688420215	smiling	036	sub-17	1.0	3.0	036_smiling	1.0	trustworthiness	219.29306615326732	
34.0	195.50445662338643	fix	1.0		177	21.0	male	east_asian/white	3.501790688420215	smiling	036	sub-17	1.0	3.0	036_smiling	1.0	trustworthiness	219.49296581585077	1.4999761532617413
34.0	196.00455412334304	pulse	1.0	t		21.0	male	east_asian/white	3.501790688420215	smiling	036	sub-17	1.0	3.0	036_smiling	1.0	trustworthiness	219.99306331580738	
34.0	196.7045401171572	pulse	1.0	t		21.0	male	east_asian/white	3.501790688420215	smiling	036	sub-17	1.0	3.0	036_smiling	1.0	trustworthiness	220.69304930962153	
34.0	197.00443277664817	rating	2.0		295	21.0	male	east_asian/white	3.501790688420215	smiling	036	sub-17	1.0	3.0	036_smiling	1.0	trustworthiness	220.9929419691125	2.4999710216843596
34.0	197.39943377579584	pulse	2.0	t		21.0	male	east_asian/white	3.501790688420215	smiling	036	sub-17	1.0	3.0	036_smiling	1.0	trustworthiness	221.38794296826018	
34.0	198.099294800626	pulse	2.0	t		21.0	male	east_asian/white	3.501790688420215	smiling	036	sub-17	1.0	3.0	036_smiling	1.0	trustworthiness	222.08780399309035	
34.0	198.79948424636132	pulse	2.0	t		21.0	male	east_asian/white	3.501790688420215	smiling	036	sub-17	1.0	3.0	036_smiling	1.0	trustworthiness	222.78799343882565	
34.0	199.4628494981016	response	2.0	y		21.0	male	east_asian/white	3.501790688420215	smiling	036	sub-17	1.0	3.0	036_smiling	1.0	trustworthiness	223.45135869056594	
34.0	199.50440379833253	fix	3.0		443	21.0	male	east_asian/white	3.501790688420215	smiling	036	sub-17	1.0	3.0	036_smiling	1.0	trustworthiness	223.49291299079687	3.766601405086476
34.0	199.5123852111583	pulse	3.0	t		21.0	male	east_asian/white	3.501790688420215	smiling	036	sub-17	1.0	3.0	036_smiling	1.0	trustworthiness	223.50089440362262	
34.0	200.20450268683362	pulse	3.0	t		21.0	male	east_asian/white	3.501790688420215	smiling	036	sub-17	1.0	3.0	036_smiling	1.0	trustworthiness	224.19301187929796	
34.0	200.90449803822867	pulse	3.0	t		21.0	male	east_asian/white	3.501790688420215	smiling	036	sub-17	1.0	3.0	036_smiling	1.0	trustworthiness	224.893007230693	
34.0	201.60448131532576	pulse	3.0	t		21.0	male	east_asian/white	3.501790688420215	smiling	036	sub-17	1.0	3.0	036_smiling	1.0	trustworthiness	225.5929905077901	
34.0	202.3044772704361	pulse	3.0	t		21.0	male	east_asian/white	3.501790688420215	smiling	036	sub-17	1.0	3.0	036_smiling	1.0	trustworthiness	226.29298646290044	
34.0	203.00446688653938	pulse	3.0	t		21.0	male	east_asian/white	3.501790688420215	smiling	036	sub-17	1.0	3.0	036_smiling	1.0	trustworthiness	226.9929760790037	
35.0	203.271005203419	face	0.0		145	21.0	male	black	2.969757262236371	smiling	137	sub-17	1.0	3.0	137_smiling	0.0		227.25951439588334	1.2333373178516922
35.0	203.70446133236237	pulse	0.0	t		21.0	male	black	2.969757262236371	smiling	137	sub-17	1.0	3.0	137_smiling	0.0		227.6929705248267	
35.0	204.40445155218094	pulse	0.0	t		21.0	male	black	2.969757262236371	smiling	137	sub-17	1.0	3.0	137_smiling	0.0		228.39296074464528	
35.0	204.5043425212707	fix	1.0		444	21.0	male	black	2.969757262236371	smiling	137	sub-17	1.0	3.0	137_smiling	0.0		228.49285171373504	3.766622535107672
35.0	205.1044469035769	pulse	1.0	t		21.0	male	black	2.969757262236371	smiling	137	sub-17	1.0	3.0	137_smiling	0.0		229.09295609604123	
35.0	205.8044313881037	pulse	1.0	t		21.0	male	black	2.969757262236371	smiling	137	sub-17	1.0	3.0	137_smiling	0.0		229.79294058056803	
35.0	206.50442402278168	pulse	1.0	t		21.0	male	black	2.969757262236371	smiling	137	sub-17	1.0	3.0	137_smiling	0.0		230.492933215246	
35.0	207.20441937417672	pulse	1.0	t		21.0	male	black	2.969757262236371	smiling	137	sub-17	1.0	3.0	137_smiling	0.0		231.19292856664106	
35.0	207.90441925343384	pulse	1.0	t		21.0	male	black	2.969757262236371	smiling	137	sub-17	1.0	3.0	137_smiling	0.0		231.89292844589818	
36.0	208.27096505637837	face	0.0		145	27.0	female	white	4.181058495821727	neutral	039	sub-17	1.0	3.0	039_neutral	0.0		232.2594742488427	1.2333195082619568
36.0	208.60440675653535	pulse	0.0	t		27.0	female	white	4.181058495821727	neutral	039	sub-17	1.0	3.0	039_neutral	0.0		232.5929159489997	
36.0	209.30439637263953	pulse	0.0	t		27.0	female	white	4.181058495821727	neutral	039	sub-17	1.0	3.0	039_neutral	0.0		233.29290556510387	
36.0	209.50428456464033	fix	1.0		444	27.0	female	white	4.181058495821727	neutral	039	sub-17	1.0	3.0	039_neutral	0.0		233.49279375710466	3.766620120247353
36.0	210.00438870545986	pulse	1.0	t		27.0	female	white	4.181058495821727	neutral	039	sub-17	1.0	3.0	039_neutral	0.0		233.9928978979242	
36.0	210.70437832156404	pulse	1.0	t		27.0	female	white	4.181058495821727	neutral	039	sub-17	1.0	3.0	039_neutral	0.0		234.69288751402837	
36.0	211.40437095624202	pulse	1.0	t		27.0	female	white	4.181058495821727	neutral	039	sub-17	1.0	3.0	039_neutral	0.0		235.39288014870635	
36.0	212.10436510020736	pulse	1.0	t		27.0	female	white	4.181058495821727	neutral	039	sub-17	1.0	3.0	039_neutral	0.0		236.0928742926717	
36.0	212.80436528132213	pulse	1.0	t		27.0	female	white	4.181058495821727	neutral	039	sub-17	1.0	3.0	039_neutral	0.0		236.79287447378647	
37.0	213.27090468488768	face	0.0		145	19.0	male	white	2.243931555909272	smiling	130	sub-17	1.0	3.0	130_smiling	0.0		237.25941387735202	1.2333291677005036
37.0	213.5043518788516	pulse	0.0	t		19.0	male	white	2.243931555909272	smiling	130	sub-17	1.0	3.0	130_smiling	0.0		237.49286107131593	
37.0	214.20434723024664	pulse	0.0	t		19.0	male	white	2.243931555909272	smiling	130	sub-17	1.0	3.0	130_smiling	0.0		238.19285642271097	
37.0	214.5042338525882	fix	1.0		444	19.0	male	white	2.243931555909272	smiling	130	sub-17	1.0	3.0	130_smiling	0.0		238.49274304505252	3.766598084654106
37.0	214.90435163736583	pulse	1.0	t		19.0	male	white	2.243931555909272	smiling	130	sub-17	1.0	3.0	130_smiling	0.0		238.89286082983017	
37.0	215.6043053324329	pulse	1.0	t		19.0	male	white	2.243931555909272	smiling	130	sub-17	1.0	3.0	130_smiling	0.0		239.59281452489722	
37.0	216.3044443679737	pulse	1.0	t		19.0	male	white	2.243931555909272	smiling	130	sub-17	1.0	3.0	130_smiling	0.0		240.29295356043804	
37.0	217.00430177051476	pulse	1.0	t		19.0	male	white	2.243931555909272	smiling	130	sub-17	1.0	3.0	130_smiling	0.0		240.9928109629791	
37.0	217.7042947070504	pulse	1.0	t		19.0	male	white	2.243931555909272	smiling	130	sub-17	1.0	3.0	130_smiling	0.0		241.69280389951473	
38.0	218.2708319372423	face	0.0		145	30.0	female	black	2.7345801830481498	smiling	062	sub-17	1.0	3.0	062_smiling	0.0		242.25934112970663	1.2333358085652435
38.0	218.40429760488223	pulse	0.0	t		30.0	female	black	2.7345801830481498	smiling	062	sub-17	1.0	3.0	062_smiling	0.0		242.39280679734657	
38.0	219.10428178755137	pulse	0.0	t		30.0	female	black	2.7345801830481498	smiling	062	sub-17	1.0	3.0	062_smiling	0.0		243.0927909800157	
38.0	219.50416774580754	fix	1.0		444	30.0	female	black	2.7345801830481498	smiling	062	sub-17	1.0	3.0	062_smiling	0.0		243.49267693827187	3.766605329232334
38.0	219.80428740210027	pulse	1.0	t		30.0	female	black	2.7345801830481498	smiling	062	sub-17	1.0	3.0	062_smiling	0.0		243.7927965945646	
38.0	220.50426584947854	pulse	1.0	t		30.0	female	black	2.7345801830481498	smiling	062	sub-17	1.0	3.0	062_smiling	0.0		244.49277504194288	
38.0	221.20425697486917	pulse	1.0	t		30.0	female	black	2.7345801830481498	smiling	062	sub-17	1.0	3.0	062_smiling	0.0		245.1927661673335	
38.0	221.90424840211745	pulse	1.0	t		30.0	female	black	2.7345801830481498	smiling	062	sub-17	1.0	3.0	062_smiling	0.0		245.89275759458178	
38.0	222.60424073493868	pulse	1.0	t		30.0	female	black	2.7345801830481498	smiling	062	sub-17	1.0	3.0	062_smiling	0.0		246.59274992740302	
39.0	223.27077307503987	face	0.0		145	28.0	male	white	3.9076800636689217	smiling	033	sub-17	1.0	3.0	033_smiling	1.0	dominance	247.2592822675042	1.2333324881328736
39.0	223.30425872564228	pulse	0.0	t		28.0	male	white	3.9076800636689217	smiling	033	sub-17	1.0	3.0	033_smiling	1.0	dominance	247.29276791810662	
39.0	224.00422540058025	pulse	0.0	t		28.0	male	white	3.9076800636689217	smiling	033	sub-17	1.0	3.0	033_smiling	1.0	dominance	247.9927345930446	
39.0	224.50410556317274	fix	1.0		177	28.0	male	white	3.9076800636689217	smiling	033	sub-17	1.0	3.0	033_smiling	1.0	dominance	248.49261475563708	1.499988831274095
39.0	224.70421984640325	pulse	1.0	t		28.0	male	white	3.9076800636689217	smiling	033	sub-17	1.0	3.0	033_smiling	1.0	dominance	248.69272903886758	
39.0	225.40420674578945	pulse	1.0	t		28.0	male	white	3.9076800636689217	smiling	033	sub-17	1.0	3.0	033_smiling	1.0	dominance	249.3927159382538	
39.0	226.00409439444684	rating	2.0		294	28.0	male	white	3.9076800636689217	smiling	033	sub-17	1.0	3.0	033_smiling	1.0	dominance	249.99260358691117	2.4999749458320366
39.0	226.09898750974207	pulse	2.0	t		28.0	male	white	3.9076800636689217	smiling	033	sub-17	1.0	3.0	033_smiling	1.0	dominance	250.0874967022064	
39.0	226.79897591841655	pulse	2.0	t		28.0	male	white	3.9076800636689217	smiling	033	sub-17	1.0	3.0	033_smiling	1.0	dominance	250.78748511088088	
39.0	227.4989549695092	pulse	2.0	t		28.0	male	white	3.9076800636689217	smiling	033	sub-17	1.0	3.0	033_smiling	1.0	dominance	251.48746416197355	
39.0	227.6656228436059	response	2.0	y		28.0	male	white	3.9076800636689217	smiling	033	sub-17	1.0	3.0	033_smiling	1.0	dominance	251.65413203607022	
39.0	228.20418392536612	pulse	2.0	t		28.0	male	white	3.9076800636689217	smiling	033	sub-17	1.0	3.0	033_smiling	1.0	dominance	252.19269311783046	
39.0	228.50406934027887	fix	3.0		444	28.0	male	white	3.9076800636689217	smiling	033	sub-17	1.0	3.0	033_smiling	1.0	dominance	252.4925785327432	3.7499711726131864
39.0	228.90417052289558	pulse	3.0	t		28.0	male	white	3.9076800636689217	smiling	033	sub-17	1.0	3.0	033_smiling	1.0	dominance	252.89267971535992	
39.0	229.60414897027385	pulse	3.0	t		28.0	male	white	3.9076800636689217	smiling	033	sub-17	1.0	3.0	033_smiling	1.0	dominance	253.5926581627382	
39.0	230.3041455290986	pulse	3.0	t		28.0	male	white	3.9076800636689217	smiling	033	sub-17	1.0	3.0	033_smiling	1.0	dominance	254.29265472156294	
39.0	231.00414208792427	pulse	3.0	t		28.0	male	white	3.9076800636689217	smiling	033	sub-17	1.0	3.0	033_smiling	1.0	dominance	254.9926512803886	
39.0	231.70411932787192	pulse	3.0	t		28.0	male	white	3.9076800636689217	smiling	033	sub-17	1.0	3.0	033_smiling	1.0	dominance	255.69262852033626	
40.0	232.25404051289206	fix	0.0		720													256.2425497053564	5.99990823533517
40.0	232.4041518077338	pulse	0.0	t														256.39266100019813	
40.0	233.1041157659547	pulse	0.0	t														257.09262495841904	
40.0	233.80411172106415	pulse	0.0	t														257.7926209135285	
40.0	234.50410254459803	pulse	0.0	t														258.49261173706236	
40.0	235.20410302756954	pulse	0.0	t														259.1926122200339	
40.0	235.90408358795048	pulse	0.0	t														259.8925927804148	
40.0	236.60407380776905	pulse	0.0	t														260.5925830002334	
40.0	237.30406614058938	pulse	0.0	t														261.2925753330537	
40.0	238.00405817155297	pulse	0.0	t														261.9925673640173	
