trial_nr	onset	event_type	phase	response	nr_frames	face_age	face_sex	face_eth	attractiveness	expression	face_id	sub_id	ses	run	trial_type	catch	rating_type	onset_abs	duration
-1.0	0.05401054668300276	fix	0.0		714													21.407159006184884	5.966308268611101
-1.0	0.7039364421998471	pulse	0.0	t														22.057084901701728	
-1.0	1.4039101811408727	pulse	0.0	t														22.757058640642754	
-1.0	2.1038875422968886	pulse	0.0	t														23.45703600179877	
-1.0	2.8038688275191817	pulse	0.0	t														24.157017287021063	
-1.0	3.5038341146250787	pulse	0.0	t														24.85698257412696	
-1.0	4.203819323913649	pulse	0.0	t														25.55696778341553	
-1.0	4.903786422126814	pulse	0.0	t														26.256934881628695	
-1.0	5.6037668017952456	pulse	0.0	t														26.956915261297127	
0.0	6.020318815294104	face	0.0		144	19.0	male	white	3.2522881018702745	smiling	018	sub-07	1.0	4.0	018_smiling	0.0		27.373467274795985	1.2332851377500447
0.0	6.303739937033697	pulse	0.0	t		19.0	male	white	3.2522881018702745	smiling	018	sub-07	1.0	4.0	018_smiling	0.0		27.656888396535578	
0.0	7.003720014850842	pulse	0.0	t		19.0	male	white	3.2522881018702745	smiling	018	sub-07	1.0	4.0	018_smiling	0.0		28.356868474352723	
0.0	7.2536039530441485	fix	1.0		444	19.0	male	white	3.2522881018702745	smiling	018	sub-07	1.0	4.0	018_smiling	0.0		28.60675241254603	3.7581966198695227
0.0	7.703707337098422	pulse	1.0	t		19.0	male	white	3.2522881018702745	smiling	018	sub-07	1.0	4.0	018_smiling	0.0		29.056855796600303	
0.0	8.403685301957012	pulse	1.0	t		19.0	male	white	3.2522881018702745	smiling	018	sub-07	1.0	4.0	018_smiling	0.0		29.756833761458893	
0.0	9.103694055643246	pulse	1.0	t		19.0	male	white	3.2522881018702745	smiling	018	sub-07	1.0	4.0	018_smiling	0.0		30.456842515145127	
0.0	9.803663568666707	pulse	1.0	t		19.0	male	white	3.2522881018702745	smiling	018	sub-07	1.0	4.0	018_smiling	0.0		31.156812028168588	
0.0	10.503607726184782	pulse	1.0	t		19.0	male	white	3.2522881018702745	smiling	018	sub-07	1.0	4.0	018_smiling	0.0		31.856756185686663	
1.0	11.011800572913671	face	0.0		146	26.0	male	white	2.7966573816155993	neutral	117	sub-07	1.0	4.0	117_neutral	0.0		32.36494903241555	1.241640682304478
1.0	11.203591426216917	pulse	0.0	t		26.0	male	white	2.7966573816155993	neutral	117	sub-07	1.0	4.0	117_neutral	0.0		32.5567398857188	
1.0	11.903564259604082	pulse	0.0	t		26.0	male	white	2.7966573816155993	neutral	117	sub-07	1.0	4.0	117_neutral	0.0		33.25671271910596	
1.0	12.25344125521815	fix	1.0		444	26.0	male	white	2.7966573816155993	neutral	117	sub-07	1.0	4.0	117_neutral	0.0		33.60658971472003	3.75820990132479
1.0	12.603542224462672	pulse	1.0	t		26.0	male	white	2.7966573816155993	neutral	117	sub-07	1.0	4.0	117_neutral	0.0		33.95669068396455	
1.0	13.303511435634846	pulse	1.0	t		26.0	male	white	2.7966573816155993	neutral	117	sub-07	1.0	4.0	117_neutral	0.0		34.65665989513673	
1.0	14.003495739369555	pulse	1.0	t		26.0	male	white	2.7966573816155993	neutral	117	sub-07	1.0	4.0	117_neutral	0.0		35.356644198871436	
1.0	14.703477628294422	pulse	1.0	t		26.0	male	white	2.7966573816155993	neutral	117	sub-07	1.0	4.0	117_neutral	0.0		36.0566260877963	
1.0	15.403445632061448	pulse	1.0	t		26.0	male	white	2.7966573816155993	neutral	117	sub-07	1.0	4.0	117_neutral	0.0		36.75659409156333	
2.0	16.01165115654294	face	0.0		146	22.0	female	white	4.614007162753682	neutral	009	sub-07	1.0	4.0	009_neutral	0.0		37.36479961604482	1.2416225712295272
2.0	16.10343446356501	pulse	0.0	t		22.0	female	white	4.614007162753682	neutral	009	sub-07	1.0	4.0	009_neutral	0.0		37.45658292306689	
2.0	16.803397637711896	pulse	0.0	t		22.0	female	white	4.614007162753682	neutral	009	sub-07	1.0	4.0	009_neutral	0.0		38.15654609721378	
2.0	17.253273727772466	fix	1.0		444	22.0	female	white	4.614007162753682	neutral	009	sub-07	1.0	4.0	009_neutral	0.0		38.60642218727435	3.7582026568948095
2.0	17.503384356256902	pulse	1.0	t		22.0	female	white	4.614007162753682	neutral	009	sub-07	1.0	4.0	009_neutral	0.0		38.85653281575878	
2.0	18.203356284090205	pulse	1.0	t		22.0	female	white	4.614007162753682	neutral	009	sub-07	1.0	4.0	009_neutral	0.0		39.556504743592086	
2.0	18.90333485265137	pulse	1.0	t		22.0	female	white	4.614007162753682	neutral	009	sub-07	1.0	4.0	009_neutral	0.0		40.25648331215325	
2.0	19.603306176782098	pulse	1.0	t		22.0	female	white	4.614007162753682	neutral	009	sub-07	1.0	4.0	009_neutral	0.0		40.95645463628398	
2.0	20.303284443491975	pulse	1.0	t		22.0	female	white	4.614007162753682	neutral	009	sub-07	1.0	4.0	009_neutral	0.0		41.656432902993856	
3.0	21.011476384667276	face	0.0		147	36.0	female	white	2.7548746518105847	smiling	011	sub-07	1.0	4.0	011_smiling	0.0		42.36462484416916	1.241637361940775
3.0	21.004268780430266	pulse	0.0	t		36.0	female	white	2.7548746518105847	smiling	011	sub-07	1.0	4.0	011_smiling	0.0		42.35741723993215	
3.0	21.703248221341255	pulse	0.0	t		36.0	female	white	2.7548746518105847	smiling	011	sub-07	1.0	4.0	011_smiling	0.0		43.056396680843136	
3.0	22.25311374660805	fix	1.0		443	36.0	female	white	2.7548746518105847	smiling	011	sub-07	1.0	4.0	011_smiling	0.0		43.60626220610993	3.7582059772585126
3.0	22.40322316768743	pulse	1.0	t		36.0	female	white	2.7548746518105847	smiling	011	sub-07	1.0	4.0	011_smiling	0.0		43.75637162718931	
3.0	23.103188454793326	pulse	1.0	t		36.0	female	white	2.7548746518105847	smiling	011	sub-07	1.0	4.0	011_smiling	0.0		44.45633691429521	
3.0	23.803173664081896	pulse	1.0	t		36.0	female	white	2.7548746518105847	smiling	011	sub-07	1.0	4.0	011_smiling	0.0		45.15632212358378	
3.0	24.503147704873754	pulse	1.0	t		36.0	female	white	2.7548746518105847	smiling	011	sub-07	1.0	4.0	011_smiling	0.0		45.856296164375635	
3.0	25.203124764178483	pulse	1.0	t		36.0	female	white	2.7548746518105847	smiling	011	sub-07	1.0	4.0	011_smiling	0.0		46.556273223680364	
3.0	25.903120236409904	pulse	1.0	t		36.0	female	white	2.7548746518105847	smiling	011	sub-07	1.0	4.0	011_smiling	0.0		47.256268695911785	
4.0	26.011319723866563	face	0.0		147	21.0	male	east_asian/white	3.501790688420215	smiling	036	sub-07	1.0	4.0	036_smiling	0.0		47.364468183368444	1.2416280045517851
4.0	26.603109973467326	pulse	0.0	t		21.0	male	east_asian/white	3.501790688420215	smiling	036	sub-07	1.0	4.0	036_smiling	0.0		47.95625843296921	
4.0	27.25294772841835	fix	1.0		444	21.0	male	east_asian/white	3.501790688420215	smiling	036	sub-07	1.0	4.0	036_smiling	0.0		48.60609618792023	3.758207486514948
4.0	27.303063186523104	pulse	1.0	t		21.0	male	east_asian/white	3.501790688420215	smiling	036	sub-07	1.0	4.0	036_smiling	0.0		48.656211646024985	
4.0	28.00303601991027	pulse	1.0	t		21.0	male	east_asian/white	3.501790688420215	smiling	036	sub-07	1.0	4.0	036_smiling	0.0		49.35618447941215	
4.0	28.703006740338424	pulse	1.0	t		21.0	male	east_asian/white	3.501790688420215	smiling	036	sub-07	1.0	4.0	036_smiling	0.0		50.056155199840305	
4.0	29.402990138519726	pulse	1.0	t		21.0	male	east_asian/white	3.501790688420215	smiling	036	sub-07	1.0	4.0	036_smiling	0.0		50.75613859802161	
4.0	30.10297504595701	pulse	1.0	t		21.0	male	east_asian/white	3.501790688420215	smiling	036	sub-07	1.0	4.0	036_smiling	0.0		51.45612350545889	
4.0	30.80293671084746	pulse	1.0	t		21.0	male	east_asian/white	3.501790688420215	smiling	036	sub-07	1.0	4.0	036_smiling	0.0		52.15608517034934	
5.0	31.011155214933297	face	0.0		146	27.0	female	white	3.504576203740549	neutral	144	sub-07	1.0	4.0	144_neutral	1.0	attractiveness	52.36430367443518	1.2416280045517851
5.0	31.502919807177477	pulse	0.0	t		27.0	female	white	3.504576203740549	neutral	144	sub-07	1.0	4.0	144_neutral	1.0	attractiveness	52.85606826667936	
5.0	32.202895960928345	pulse	0.0	t		27.0	female	white	3.504576203740549	neutral	144	sub-07	1.0	4.0	144_neutral	1.0	attractiveness	53.556044420430226	
5.0	32.25278321948508	fix	1.0		177	27.0	female	white	3.504576203740549	neutral	144	sub-07	1.0	4.0	144_neutral	1.0	attractiveness	53.60593167898696	1.508326264983225
5.0	32.902873925786935	pulse	1.0	t		27.0	female	white	3.504576203740549	neutral	144	sub-07	1.0	4.0	144_neutral	1.0	attractiveness	54.256022385288816	
5.0	33.602861851736634	pulse	1.0	t		27.0	female	white	3.504576203740549	neutral	144	sub-07	1.0	4.0	144_neutral	1.0	attractiveness	54.956010311238515	
5.0	33.76110948446831	rating	2.0		294	27.0	female	white	3.504576203740549	neutral	144	sub-07	1.0	4.0	144_neutral	1.0	attractiveness	55.11425794397019	2.4915430334240227
5.0	34.30283377956994	pulse	2.0	t		27.0	female	white	3.504576203740549	neutral	144	sub-07	1.0	4.0	144_neutral	1.0	attractiveness	55.65598223907182	
5.0	35.00280691480839	pulse	2.0	t		27.0	female	white	3.504576203740549	neutral	144	sub-07	1.0	4.0	144_neutral	1.0	attractiveness	56.35595537431027	
5.0	35.29445529431996	response	2.0	b		27.0	female	white	3.504576203740549	neutral	144	sub-07	1.0	4.0	144_neutral	1.0	attractiveness	56.64760375382184	
5.0	35.7027809556007	pulse	2.0	t		27.0	female	white	3.504576203740549	neutral	144	sub-07	1.0	4.0	144_neutral	1.0	attractiveness	57.05592941510258	
5.0	36.25265251789233	fix	3.0		443	27.0	female	white	3.504576203740549	neutral	144	sub-07	1.0	4.0	144_neutral	1.0	attractiveness	57.60580097739421	3.766539184820431
5.0	36.40276375007943	pulse	3.0	t		27.0	female	white	3.504576203740549	neutral	144	sub-07	1.0	4.0	144_neutral	1.0	attractiveness	57.75591220958131	
5.0	37.10273839457386	pulse	3.0	t		27.0	female	white	3.504576203740549	neutral	144	sub-07	1.0	4.0	144_neutral	1.0	attractiveness	58.45588685407574	
5.0	37.802710322407165	pulse	3.0	t		27.0	female	white	3.504576203740549	neutral	144	sub-07	1.0	4.0	144_neutral	1.0	attractiveness	59.155858781909046	
5.0	38.50268496690205	pulse	3.0	t		27.0	female	white	3.504576203740549	neutral	144	sub-07	1.0	4.0	144_neutral	1.0	attractiveness	59.85583342640393	
5.0	39.20267530766205	pulse	3.0	t		27.0	female	white	3.504576203740549	neutral	144	sub-07	1.0	4.0	144_neutral	1.0	attractiveness	60.55582376716393	
5.0	39.902649348453906	pulse	3.0	t		27.0	female	white	3.504576203740549	neutral	144	sub-07	1.0	4.0	144_neutral	1.0	attractiveness	61.25579780795579	
6.0	40.01919170271276	face	0.0		146	22.0	female	west_asian	3.8205332272184642	smiling	066	sub-07	1.0	4.0	066_smiling	0.0		61.37234016221464	1.2332935895847186
6.0	40.60262580405606	pulse	0.0	t		22.0	female	west_asian	3.8205332272184642	smiling	066	sub-07	1.0	4.0	066_smiling	0.0		61.95577426355794	
6.0	41.25248529229748	fix	1.0		443	22.0	female	west_asian	3.8205332272184642	smiling	066	sub-07	1.0	4.0	066_smiling	0.0		62.60563375179936	3.7582883826507896
6.0	41.30261282445235	pulse	1.0	t		22.0	female	west_asian	3.8205332272184642	smiling	066	sub-07	1.0	4.0	066_smiling	0.0		62.655761283954234	
6.0	42.00258777079807	pulse	1.0	t		22.0	female	west_asian	3.8205332272184642	smiling	066	sub-07	1.0	4.0	066_smiling	0.0		63.355736230299954	
6.0	42.70255064309413	pulse	1.0	t		22.0	female	west_asian	3.8205332272184642	smiling	066	sub-07	1.0	4.0	066_smiling	0.0		64.05569910259601	
6.0	43.402526796844995	pulse	1.0	t		22.0	female	west_asian	3.8205332272184642	smiling	066	sub-07	1.0	4.0	066_smiling	0.0		64.75567525634688	
6.0	44.10250687466214	pulse	1.0	t		22.0	female	west_asian	3.8205332272184642	smiling	066	sub-07	1.0	4.0	066_smiling	0.0		65.45565533416402	
6.0	44.8024763876856	pulse	1.0	t		22.0	female	west_asian	3.8205332272184642	smiling	066	sub-07	1.0	4.0	066_smiling	0.0		66.15562484718748	
7.0	45.01077367494827	face	0.0		146	24.0	female	east_asian	2.9076800636689217	neutral	034	sub-07	1.0	4.0	034_neutral	0.0		66.36392213445015	1.2415531454412303
7.0	45.50246250252803	pulse	0.0	t		24.0	female	east_asian	2.9076800636689217	neutral	034	sub-07	1.0	4.0	034_neutral	0.0		66.85561096202991	
7.0	46.202451032180306	pulse	0.0	t		24.0	female	east_asian	2.9076800636689217	neutral	034	sub-07	1.0	4.0	034_neutral	0.0		67.55559949168219	
7.0	46.2523268203895	fix	1.0		444	24.0	female	east_asian	2.9076800636689217	neutral	034	sub-07	1.0	4.0	034_neutral	0.0		67.60547527989138	3.7665376755639954
7.0	46.90241481002977	pulse	1.0	t		24.0	female	east_asian	2.9076800636689217	neutral	034	sub-07	1.0	4.0	034_neutral	0.0		68.25556326953165	
7.0	47.60239639710335	pulse	1.0	t		24.0	female	east_asian	2.9076800636689217	neutral	034	sub-07	1.0	4.0	034_neutral	0.0		68.95554485660523	
7.0	48.30236500457295	pulse	1.0	t		24.0	female	east_asian	2.9076800636689217	neutral	034	sub-07	1.0	4.0	034_neutral	0.0		69.65551346407483	
7.0	49.0023414601751	pulse	1.0	t		24.0	female	east_asian	2.9076800636689217	neutral	034	sub-07	1.0	4.0	034_neutral	0.0		70.35548991967698	
7.0	49.702321236141415	pulse	1.0	t		24.0	female	east_asian	2.9076800636689217	neutral	034	sub-07	1.0	4.0	034_neutral	0.0		71.0554696956433	
8.0	50.018864495953494	face	0.0		145	19.0	male	white	2.243931555909272	neutral	130	sub-07	1.0	4.0	130_neutral	0.0		71.37201295545538	1.2332972118001635
8.0	50.40230463432226	pulse	0.0	t		19.0	male	white	2.243931555909272	neutral	130	sub-07	1.0	4.0	130_neutral	0.0		71.75545309382414	
8.0	51.10227173253543	pulse	0.0	t		19.0	male	white	2.243931555909272	neutral	130	sub-07	1.0	4.0	130_neutral	0.0		72.45542019203731	
8.0	51.25216170775366	fix	1.0		445	19.0	male	white	2.243931555909272	neutral	130	sub-07	1.0	4.0	130_neutral	0.0		72.60531016725554	3.7665192626377575
8.0	51.80225301775772	pulse	1.0	t		19.0	male	white	2.243931555909272	neutral	130	sub-07	1.0	4.0	130_neutral	0.0		73.1554014772596	
8.0	52.50223309557532	pulse	1.0	t		19.0	male	white	2.243931555909272	neutral	130	sub-07	1.0	4.0	130_neutral	0.0		73.8553815550772	
8.0	53.20221015488005	pulse	1.0	t		19.0	male	white	2.243931555909272	neutral	130	sub-07	1.0	4.0	130_neutral	0.0		74.55535861438193	
8.0	53.90222313448385	pulse	1.0	t		19.0	male	white	2.243931555909272	neutral	130	sub-07	1.0	4.0	130_neutral	0.0		75.25537159398573	
8.0	54.60215582165438	pulse	1.0	t		19.0	male	white	2.243931555909272	neutral	130	sub-07	1.0	4.0	130_neutral	0.0		75.95530428115626	
9.0	55.018680970391415	face	0.0		145	40.0	male	black	2.408674890569041	smiling	061	sub-07	1.0	4.0	061_smiling	0.0		76.3718294298933	1.2333117006601242
9.0	55.30214012538909	pulse	0.0	t		40.0	male	black	2.408674890569041	smiling	061	sub-07	1.0	4.0	061_smiling	0.0		76.65528858489097	
9.0	56.002114166180945	pulse	0.0	t		40.0	male	black	2.408674890569041	smiling	061	sub-07	1.0	4.0	061_smiling	0.0		77.35526262568283	
9.0	56.25199267105154	fix	1.0		444	40.0	male	black	2.408674890569041	smiling	061	sub-07	1.0	4.0	061_smiling	0.0		77.60514113055342	3.7665443162918564
9.0	56.70210088472595	pulse	1.0	t		40.0	male	black	2.408674890569041	smiling	061	sub-07	1.0	4.0	061_smiling	0.0		78.05524934422783	
9.0	57.402075831072125	pulse	1.0	t		40.0	male	black	2.408674890569041	smiling	061	sub-07	1.0	4.0	061_smiling	0.0		78.755224290574	
9.0	58.10204866445929	pulse	1.0	t		40.0	male	black	2.408674890569041	smiling	061	sub-07	1.0	4.0	061_smiling	0.0		79.45519712396117	
9.0	58.802034779301266	pulse	1.0	t		40.0	male	black	2.408674890569041	smiling	061	sub-07	1.0	4.0	061_smiling	0.0		80.15518323880315	
9.0	59.501996142340886	pulse	1.0	t		40.0	male	black	2.408674890569041	smiling	061	sub-07	1.0	4.0	061_smiling	0.0		80.85514460184277	
10.0	60.018536987343396	face	0.0		145	28.0	male	white	3.9076800636689217	neutral	033	sub-07	1.0	4.0	033_neutral	0.0		81.37168544684528	1.2332966080975893
10.0	60.201984068290585	pulse	0.0	t		28.0	male	white	3.9076800636689217	neutral	033	sub-07	1.0	4.0	033_neutral	0.0		81.55513252779247	
10.0	60.90195237390935	pulse	0.0	t		28.0	male	white	3.9076800636689217	neutral	033	sub-07	1.0	4.0	033_neutral	0.0		82.25510083341123	
10.0	61.251833595440985	fix	1.0		444	28.0	male	white	3.9076800636689217	neutral	033	sub-07	1.0	4.0	033_neutral	0.0		82.60498205494287	3.758280232666948
10.0	61.60193335728036	pulse	1.0	t		28.0	male	white	3.9076800636689217	neutral	033	sub-07	1.0	4.0	033_neutral	0.0		82.95508181678224	
10.0	62.30190981288251	pulse	1.0	t		28.0	male	white	3.9076800636689217	neutral	033	sub-07	1.0	4.0	033_neutral	0.0		83.6550582723844	
10.0	63.0018787222034	pulse	1.0	t		28.0	male	white	3.9076800636689217	neutral	033	sub-07	1.0	4.0	033_neutral	0.0		84.35502718170528	
10.0	63.70186212038425	pulse	1.0	t		28.0	male	white	3.9076800636689217	neutral	033	sub-07	1.0	4.0	033_neutral	0.0		85.05501057988613	
10.0	64.40184038709413	pulse	1.0	t		28.0	male	white	3.9076800636689217	neutral	033	sub-07	1.0	4.0	033_neutral	0.0		85.754988846596	
11.0	65.01011382810793	face	0.0		146	19.0	male	white	2.243931555909272	smiling	130	sub-07	1.0	4.0	130_smiling	0.0		86.36326228760981	1.2415655213421815
11.0	65.1018231815724	pulse	0.0	t		19.0	male	white	2.243931555909272	smiling	130	sub-07	1.0	4.0	130_smiling	0.0		86.45497164107428	
11.0	65.80180718345628	pulse	0.0	t		19.0	male	white	2.243931555909272	smiling	130	sub-07	1.0	4.0	130_smiling	0.0		87.15495564295816	
11.0	66.25167934945011	fix	1.0		444	19.0	male	white	2.243931555909272	smiling	130	sub-07	1.0	4.0	130_smiling	0.0		87.604827808952	3.76652107374548
11.0	66.50177428166944	pulse	1.0	t		19.0	male	white	2.243931555909272	smiling	130	sub-07	1.0	4.0	130_smiling	0.0		87.85492274117132	
11.0	67.20174952986645	pulse	1.0	t		19.0	male	white	2.243931555909272	smiling	130	sub-07	1.0	4.0	130_smiling	0.0		88.55489798936833	
11.0	67.90171874103862	pulse	1.0	t		19.0	male	white	2.243931555909272	smiling	130	sub-07	1.0	4.0	130_smiling	0.0		89.2548672005405	
11.0	68.60170123366606	pulse	1.0	t		19.0	male	white	2.243931555909272	smiling	130	sub-07	1.0	4.0	130_smiling	0.0		89.95484969316794	
11.0	69.30168583925206	pulse	1.0	t		19.0	male	white	2.243931555909272	smiling	130	sub-07	1.0	4.0	130_smiling	0.0		90.65483429875394	
12.0	70.0182004231956	face	0.0		145	30.0	female	black	2.7345801830481498	neutral	062	sub-07	1.0	4.0	062_neutral	1.0	attractiveness	91.37134888269748	1.2333147191725402
12.0	70.00450482811084	pulse	0.0	t		30.0	female	black	2.7345801830481498	neutral	062	sub-07	1.0	4.0	062_neutral	1.0	attractiveness	91.35765328761272	
12.0	70.70163724120039	pulse	0.0	t		30.0	female	black	2.7345801830481498	neutral	062	sub-07	1.0	4.0	062_neutral	1.0	attractiveness	92.05478570070227	
12.0	71.25151514236813	fix	1.0		177	30.0	female	black	2.7345801830481498	neutral	062	sub-07	1.0	4.0	062_neutral	1.0	attractiveness	92.60466360187002	1.4999408371540994
12.0	71.40162245048896	pulse	1.0	t		30.0	female	black	2.7345801830481498	neutral	062	sub-07	1.0	4.0	062_neutral	1.0	attractiveness	92.75477090999084	
12.0	72.10158381352812	pulse	1.0	t		30.0	female	black	2.7345801830481498	neutral	062	sub-07	1.0	4.0	062_neutral	1.0	attractiveness	93.45473227303	
12.0	72.75145597952223	rating	2.0		294	30.0	female	black	2.7345801830481498	neutral	062	sub-07	1.0	4.0	062_neutral	1.0	attractiveness	94.10460443902411	2.499915481649168
12.0	72.80158230427196	pulse	2.0	t		30.0	female	black	2.7345801830481498	neutral	062	sub-07	1.0	4.0	062_neutral	1.0	attractiveness	94.15473076377384	
12.0	73.50153370622002	pulse	2.0	t		30.0	female	black	2.7345801830481498	neutral	062	sub-07	1.0	4.0	062_neutral	1.0	attractiveness	94.8546821657219	
12.0	74.20152042476502	pulse	2.0	t		30.0	female	black	2.7345801830481498	neutral	062	sub-07	1.0	4.0	062_neutral	1.0	attractiveness	95.5546688842669	
12.0	74.61816661585499	response	2.0	w		30.0	female	black	2.7345801830481498	neutral	062	sub-07	1.0	4.0	062_neutral	1.0	attractiveness	95.97131507535687	
12.0	74.9014769581845	pulse	2.0	t		30.0	female	black	2.7345801830481498	neutral	062	sub-07	1.0	4.0	062_neutral	1.0	attractiveness	96.25462541768638	
12.0	75.2513714611714	fix	3.0		444	30.0	female	black	2.7345801830481498	neutral	062	sub-07	1.0	4.0	062_neutral	1.0	attractiveness	96.60451992067328	3.766540694076866
12.0	75.60147363782062	pulse	3.0	t		30.0	female	black	2.7345801830481498	neutral	062	sub-07	1.0	4.0	062_neutral	1.0	attractiveness	96.9546220973225	
12.0	76.30145069712535	pulse	3.0	t		30.0	female	black	2.7345801830481498	neutral	062	sub-07	1.0	4.0	062_neutral	1.0	attractiveness	97.65459915662723	
12.0	77.00141930459495	pulse	3.0	t		30.0	female	black	2.7345801830481498	neutral	062	sub-07	1.0	4.0	062_neutral	1.0	attractiveness	98.35456776409683	
12.0	77.70146005451443	pulse	3.0	t		30.0	female	black	2.7345801830481498	neutral	062	sub-07	1.0	4.0	062_neutral	1.0	attractiveness	99.05460851401631	
12.0	78.40138096948567	pulse	3.0	t		30.0	female	black	2.7345801830481498	neutral	062	sub-07	1.0	4.0	062_neutral	1.0	attractiveness	99.75452942898755	
13.0	79.01791215524827	face	0.0		145	24.0	male	white	3.1153999204138483	neutral	012	sub-07	1.0	4.0	012_neutral	0.0		100.37106061475015	1.2332975136509958
13.0	79.1013547084267	pulse	0.0	t		24.0	male	white	3.1153999204138483	neutral	012	sub-07	1.0	4.0	012_neutral	0.0		100.45450316792858	
13.0	79.80134444548412	pulse	0.0	t		24.0	male	white	3.1153999204138483	neutral	012	sub-07	1.0	4.0	012_neutral	0.0		101.154492904986	
13.0	80.25120966889926	fix	1.0		444	24.0	male	white	3.1153999204138483	neutral	012	sub-07	1.0	4.0	012_neutral	0.0		101.60435812840115	3.7665343552002923
13.0	80.50131063814388	pulse	1.0	t		24.0	male	white	3.1153999204138483	neutral	012	sub-07	1.0	4.0	012_neutral	0.0		101.85445909764576	
13.0	81.20130188445728	pulse	1.0	t		24.0	male	white	3.1153999204138483	neutral	012	sub-07	1.0	4.0	012_neutral	0.0		102.55445034395916	
13.0	81.90126626600932	pulse	1.0	t		24.0	male	white	3.1153999204138483	neutral	012	sub-07	1.0	4.0	012_neutral	0.0		103.2544147255112	
13.0	82.60124453271919	pulse	1.0	t		24.0	male	white	3.1153999204138483	neutral	012	sub-07	1.0	4.0	012_neutral	0.0		103.95439299222107	
13.0	83.30121434759394	pulse	1.0	t		24.0	male	white	3.1153999204138483	neutral	012	sub-07	1.0	4.0	012_neutral	0.0		104.65436280709582	
14.0	84.01774402409956	face	0.0		146	22.0	male	black	2.767608436132113	neutral	044	sub-07	1.0	4.0	044_neutral	0.0		105.37089248360144	1.2333008340151537
14.0	84.00394187552274	pulse	0.0	t		22.0	male	black	2.767608436132113	neutral	044	sub-07	1.0	4.0	044_neutral	0.0		105.35709033502462	
14.0	84.70118567172449	pulse	0.0	t		22.0	male	black	2.767608436132113	neutral	044	sub-07	1.0	4.0	044_neutral	0.0		106.05433413122637	
14.0	85.25104485811471	fix	1.0		443	22.0	male	black	2.767608436132113	neutral	044	sub-07	1.0	4.0	044_neutral	0.0		106.60419331761659	3.7665388829691437
14.0	85.40115216623553	pulse	1.0	t		22.0	male	black	2.767608436132113	neutral	044	sub-07	1.0	4.0	044_neutral	0.0		106.75430062573741	
14.0	86.10112469777141	pulse	1.0	t		22.0	male	black	2.767608436132113	neutral	044	sub-07	1.0	4.0	044_neutral	0.0		107.45427315727329	
14.0	86.80110085152228	pulse	1.0	t		22.0	male	black	2.767608436132113	neutral	044	sub-07	1.0	4.0	044_neutral	0.0		108.15424931102416	
14.0	87.50108062748814	pulse	1.0	t		22.0	male	black	2.767608436132113	neutral	044	sub-07	1.0	4.0	044_neutral	0.0		108.85422908699002	
14.0	88.20107066639684	pulse	1.0	t		22.0	male	black	2.767608436132113	neutral	044	sub-07	1.0	4.0	044_neutral	0.0		109.55421912589873	
14.0	88.90103565165145	pulse	1.0	t		22.0	male	black	2.767608436132113	neutral	044	sub-07	1.0	4.0	044_neutral	0.0		110.25418411115334	
15.0	89.01758374108385	face	0.0		146	40.0	female	west_asian	1.5777954635893354	smiling	038	sub-07	1.0	4.0	038_smiling	0.0		110.37073220058573	1.2332984192053118
15.0	89.60101542761777	pulse	0.0	t		40.0	female	west_asian	1.5777954635893354	smiling	038	sub-07	1.0	4.0	038_smiling	0.0		110.95416388711965	
15.0	90.25088216028917	fix	1.0		443	40.0	female	west_asian	1.5777954635893354	smiling	038	sub-07	1.0	4.0	038_smiling	0.0		111.60403061979105	3.7582083920683544
15.0	90.30099127951735	pulse	1.0	t		40.0	female	west_asian	1.5777954635893354	smiling	038	sub-07	1.0	4.0	038_smiling	0.0		111.65413973901923	
15.0	91.00095656662324	pulse	1.0	t		40.0	female	west_asian	1.5777954635893354	smiling	038	sub-07	1.0	4.0	038_smiling	0.0		112.35410502612513	
15.0	91.70096652771463	pulse	1.0	t		40.0	female	west_asian	1.5777954635893354	smiling	038	sub-07	1.0	4.0	038_smiling	0.0		113.05411498721651	
15.0	92.40091732596011	pulse	1.0	t		40.0	female	west_asian	1.5777954635893354	smiling	038	sub-07	1.0	4.0	038_smiling	0.0		113.75406578546199	
15.0	93.10088291491729	pulse	1.0	t		40.0	female	west_asian	1.5777954635893354	smiling	038	sub-07	1.0	4.0	038_smiling	0.0		114.45403137441917	
15.0	93.80087144456957	pulse	1.0	t		40.0	female	west_asian	1.5777954635893354	smiling	038	sub-07	1.0	4.0	038_smiling	0.0		115.15401990407145	
16.0	94.00909055235752	face	0.0		146	47.0	male	east_asian	2.171110226820533	neutral	024	sub-07	1.0	4.0	024_neutral	0.0		115.3622390118594	1.241624382336795
16.0	94.50086902975954	pulse	0.0	t		47.0	male	east_asian	2.171110226820533	neutral	024	sub-07	1.0	4.0	024_neutral	0.0		115.85401748926142	
16.0	95.200827072435	pulse	0.0	t		47.0	male	east_asian	2.171110226820533	neutral	024	sub-07	1.0	4.0	024_neutral	0.0		116.55397553193689	
16.0	95.25071493469432	fix	1.0		445	47.0	male	east_asian	2.171110226820533	neutral	024	sub-07	1.0	4.0	024_neutral	0.0		116.6038633941962	3.766533147795599
16.0	95.90080352803761	pulse	1.0	t		47.0	male	east_asian	2.171110226820533	neutral	024	sub-07	1.0	4.0	024_neutral	0.0		117.2539519875395	
16.0	96.60079235954117	pulse	1.0	t		47.0	male	east_asian	2.171110226820533	neutral	024	sub-07	1.0	4.0	024_neutral	0.0		117.95394081904305	
16.0	97.30075583553935	pulse	1.0	t		47.0	male	east_asian	2.171110226820533	neutral	024	sub-07	1.0	4.0	024_neutral	0.0		118.65390429504123	
16.0	98.00073863001808	pulse	1.0	t		47.0	male	east_asian	2.171110226820533	neutral	024	sub-07	1.0	4.0	024_neutral	0.0		119.35388708951996	
16.0	98.7007099541488	pulse	1.0	t		47.0	male	east_asian	2.171110226820533	neutral	024	sub-07	1.0	4.0	024_neutral	0.0		120.05385841365069	
17.0	99.01724808248991	face	0.0		145	27.0	male	black	3.5523278949462798	smiling	042	sub-07	1.0	4.0	042_smiling	0.0		120.3703965419918	1.2333035506762826
17.0	99.4006912393711	pulse	0.0	t		27.0	male	black	3.5523278949462798	smiling	042	sub-07	1.0	4.0	042_smiling	0.0		120.75383969887298	
17.0	100.10066618571682	pulse	0.0	t		27.0	male	black	3.5523278949462798	smiling	042	sub-07	1.0	4.0	042_smiling	0.0		121.4538146452187	
17.0	100.2505516331662	fix	1.0		444	27.0	male	black	3.5523278949462798	smiling	042	sub-07	1.0	4.0	042_smiling	0.0		121.60370009266808	3.758305286321047
17.0	100.80064807464169	pulse	1.0	t		27.0	male	black	3.5523278949462798	smiling	042	sub-07	1.0	4.0	042_smiling	0.0		122.15379653414357	
17.0	101.50061728581386	pulse	1.0	t		27.0	male	black	3.5523278949462798	smiling	042	sub-07	1.0	4.0	042_smiling	0.0		122.85376574531574	
17.0	102.20059766548229	pulse	1.0	t		27.0	male	black	3.5523278949462798	smiling	042	sub-07	1.0	4.0	042_smiling	0.0		123.55374612498417	
17.0	102.90057110257203	pulse	1.0	t		27.0	male	black	3.5523278949462798	smiling	042	sub-07	1.0	4.0	042_smiling	0.0		124.25371956207391	
17.0	103.60054936928191	pulse	1.0	t		27.0	male	black	3.5523278949462798	smiling	042	sub-07	1.0	4.0	042_smiling	0.0		124.95369782878379	
18.0	104.00885691948724	face	0.0		146	23.0	male	white	2.6275368085953046	smiling	141	sub-07	1.0	4.0	141_smiling	0.0		125.36200537898912	1.2415410713906567
18.0	104.3005318619089	pulse	0.0	t		23.0	male	white	2.6275368085953046	smiling	141	sub-07	1.0	4.0	141_smiling	0.0		125.65368032141077	
18.0	105.00055842481925	pulse	0.0	t		23.0	male	white	2.6275368085953046	smiling	141	sub-07	1.0	4.0	141_smiling	0.0		126.35370688432113	
18.0	105.2503979908779	fix	1.0		444	23.0	male	white	2.6275368085953046	smiling	141	sub-07	1.0	4.0	141_smiling	0.0		126.60354645037978	3.7665283181754603
18.0	105.70048537681578	pulse	1.0	t		23.0	male	white	2.6275368085953046	smiling	141	sub-07	1.0	4.0	141_smiling	0.0		127.05363383631766	
18.0	106.40046002131066	pulse	1.0	t		23.0	male	white	2.6275368085953046	smiling	141	sub-07	1.0	4.0	141_smiling	0.0		127.75360848081255	
18.0	107.10043647691282	pulse	1.0	t		23.0	male	white	2.6275368085953046	smiling	141	sub-07	1.0	4.0	141_smiling	0.0		128.4535849364147	
18.0	107.80039270848101	pulse	1.0	t		23.0	male	white	2.6275368085953046	smiling	141	sub-07	1.0	4.0	141_smiling	0.0		129.1535411679829	
18.0	108.50039029367099	pulse	1.0	t		23.0	male	white	2.6275368085953046	smiling	141	sub-07	1.0	4.0	141_smiling	0.0		129.85353875317287	
19.0	109.01692630905336	face	0.0		145	54.0	female	white	2.286908077994429	smiling	136	sub-07	1.0	4.0	136_smiling	0.0		130.37007476855524	1.2332987210561441
19.0	109.20037157889328	pulse	0.0	t		54.0	female	white	2.286908077994429	smiling	136	sub-07	1.0	4.0	136_smiling	0.0		130.55352003839516	
19.0	109.90034079006546	pulse	0.0	t		54.0	female	white	2.286908077994429	smiling	136	sub-07	1.0	4.0	136_smiling	0.0		131.25348924956734	
19.0	110.2502250301095	fix	1.0		444	54.0	female	white	2.286908077994429	smiling	136	sub-07	1.0	4.0	136_smiling	0.0		131.60337348961139	3.7583258122062944
19.0	110.60033082897417	pulse	1.0	t		54.0	female	white	2.286908077994429	smiling	136	sub-07	1.0	4.0	136_smiling	0.0		131.95347928847605	
19.0	111.30032207528757	pulse	1.0	t		54.0	female	white	2.286908077994429	smiling	136	sub-07	1.0	4.0	136_smiling	0.0		132.65347053478945	
19.0	112.00028494758362	pulse	1.0	t		54.0	female	white	2.286908077994429	smiling	136	sub-07	1.0	4.0	136_smiling	0.0		133.3534334070855	
19.0	112.70025385690451	pulse	1.0	t		54.0	female	white	2.286908077994429	smiling	136	sub-07	1.0	4.0	136_smiling	0.0		134.0534023164064	
19.0	113.4002227662254	pulse	1.0	t		54.0	female	white	2.286908077994429	smiling	136	sub-07	1.0	4.0	136_smiling	0.0		134.75337122572728	
20.0	114.0085508423158	face	0.0		146	27.0	female	white	4.181058495821727	smiling	039	sub-07	1.0	4.0	039_smiling	0.0		135.36169930181768	1.2415084714557452
20.0	114.10021099402638	pulse	0.0	t		27.0	female	white	4.181058495821727	smiling	039	sub-07	1.0	4.0	039_smiling	0.0		135.45335945352826	
20.0	114.80018292185969	pulse	0.0	t		27.0	female	white	4.181058495821727	smiling	039	sub-07	1.0	4.0	039_smiling	0.0		136.15333138136157	
20.0	115.25005931377154	fix	1.0		1185	27.0	female	white	4.181058495821727	smiling	039	sub-07	1.0	4.0	039_smiling	0.0		136.60320777327343	10.016335888000867
20.0	115.50017205521453	pulse	1.0	t		27.0	female	white	4.181058495821727	smiling	039	sub-07	1.0	4.0	039_smiling	0.0		136.85332051471642	
20.0	116.20016782929724	pulse	1.0	t		27.0	female	white	4.181058495821727	smiling	039	sub-07	1.0	4.0	039_smiling	0.0		137.55331628879912	
20.0	116.90011470347645	pulse	1.0	t		27.0	female	white	4.181058495821727	smiling	039	sub-07	1.0	4.0	039_smiling	0.0		138.25326316297833	
20.0	117.6000944794423	pulse	1.0	t		27.0	female	white	4.181058495821727	smiling	039	sub-07	1.0	4.0	039_smiling	0.0		138.9532429389442	
20.0	118.30006640727561	pulse	1.0	t		27.0	female	white	4.181058495821727	smiling	039	sub-07	1.0	4.0	039_smiling	0.0		139.6532148667775	
20.0	119.00004920175434	pulse	1.0	t		27.0	female	white	4.181058495821727	smiling	039	sub-07	1.0	4.0	039_smiling	0.0		140.35319766125622	
20.0	119.70002022403378	pulse	1.0	t		27.0	female	white	4.181058495821727	smiling	039	sub-07	1.0	4.0	039_smiling	0.0		141.05316868353566	
20.0	120.40000090555395	pulse	1.0	t		27.0	female	white	4.181058495821727	smiling	039	sub-07	1.0	4.0	039_smiling	0.0		141.75314936505583	
20.0	121.09997675745353	pulse	1.0	t		27.0	female	white	4.181058495821727	smiling	039	sub-07	1.0	4.0	039_smiling	0.0		142.4531252169554	
20.0	121.79996015563438	pulse	1.0	t		27.0	female	white	4.181058495821727	smiling	039	sub-07	1.0	4.0	039_smiling	0.0		143.15310861513626	
20.0	122.49994174270796	pulse	1.0	t		27.0	female	white	4.181058495821727	smiling	039	sub-07	1.0	4.0	039_smiling	0.0		143.85309020220984	
20.0	123.199908237219	pulse	1.0	t		27.0	female	white	4.181058495821727	smiling	039	sub-07	1.0	4.0	039_smiling	0.0		144.5530566967209	
20.0	123.89989193725114	pulse	1.0	t		27.0	female	white	4.181058495821727	smiling	039	sub-07	1.0	4.0	039_smiling	0.0		145.25304039675302	
20.0	124.59986054472074	pulse	1.0	t		27.0	female	white	4.181058495821727	smiling	039	sub-07	1.0	4.0	039_smiling	0.0		145.95300900422262	
21.0	125.26639520177241	face	0.0		145	22.0	male	black	2.767608436132113	smiling	044	sub-07	1.0	4.0	044_smiling	0.0		146.6195436612743	1.2332960043950152
21.0	125.29984122624046	pulse	0.0	t		22.0	male	black	2.767608436132113	smiling	044	sub-07	1.0	4.0	044_smiling	0.0		146.65298968574234	
21.0	125.99981737999133	pulse	0.0	t		22.0	male	black	2.767608436132113	smiling	044	sub-07	1.0	4.0	044_smiling	0.0		147.3529658394932	
21.0	126.49969120616743	fix	1.0		443	22.0	male	black	2.767608436132113	smiling	044	sub-07	1.0	4.0	044_smiling	0.0		147.8528396656693	3.7582790252617997
21.0	126.69979534484992	pulse	1.0	t		22.0	male	black	2.767608436132113	smiling	044	sub-07	1.0	4.0	044_smiling	0.0		148.0529438043518	
21.0	127.39977180045207	pulse	1.0	t		22.0	male	black	2.767608436132113	smiling	044	sub-07	1.0	4.0	044_smiling	0.0		148.75292025995395	
21.0	128.0997485579055	pulse	1.0	t		22.0	male	black	2.767608436132113	smiling	044	sub-07	1.0	4.0	044_smiling	0.0		149.4528970174074	
21.0	128.79972048573882	pulse	1.0	t		22.0	male	black	2.767608436132113	smiling	044	sub-07	1.0	4.0	044_smiling	0.0		150.1528689452407	
21.0	129.4997020728124	pulse	1.0	t		22.0	male	black	2.767608436132113	smiling	044	sub-07	1.0	4.0	044_smiling	0.0		150.85285053231428	
21.0	130.1996794339684	pulse	1.0	t		22.0	male	black	2.767608436132113	smiling	044	sub-07	1.0	4.0	044_smiling	0.0		151.5528278934703	
22.0	130.25797023142923	face	0.0		147	20.0	female	white	3.9502586549940313	smiling	091	sub-07	1.0	4.0	091_smiling	0.0		151.6111186909311	1.2415558621023592
22.0	130.89965920993473	pulse	0.0	t		20.0	female	white	3.9502586549940313	smiling	091	sub-07	1.0	4.0	091_smiling	0.0		152.2528076694366	
22.0	131.49952609353159	fix	1.0		443	20.0	female	white	3.9502586549940313	smiling	091	sub-07	1.0	4.0	091_smiling	0.0		152.85267455303347	3.7665409959281533
22.0	131.5996365710903	pulse	1.0	t		20.0	female	white	3.9502586549940313	smiling	091	sub-07	1.0	4.0	091_smiling	0.0		152.95278503059217	
22.0	132.29960970632874	pulse	1.0	t		20.0	female	white	3.9502586549940313	smiling	091	sub-07	1.0	4.0	091_smiling	0.0		153.65275816583062	
22.0	132.9995885767412	pulse	1.0	t		20.0	female	white	3.9502586549940313	smiling	091	sub-07	1.0	4.0	091_smiling	0.0		154.35273703624307	
22.0	133.69956533419463	pulse	1.0	t		20.0	female	white	3.9502586549940313	smiling	091	sub-07	1.0	4.0	091_smiling	0.0		155.0527137936965	
22.0	134.39954088424292	pulse	1.0	t		20.0	female	white	3.9502586549940313	smiling	091	sub-07	1.0	4.0	091_smiling	0.0		155.7526893437448	
22.0	135.0995191509528	pulse	1.0	t		20.0	female	white	3.9502586549940313	smiling	091	sub-07	1.0	4.0	091_smiling	0.0		156.45266761045468	
23.0	135.26606708945974	face	0.0		146	22.0	female	west_asian	3.8205332272184642	neutral	066	sub-07	1.0	4.0	066_neutral	0.0		156.61921554896162	1.23329811735357
23.0	135.79949621025753	pulse	0.0	t		22.0	female	west_asian	3.8205332272184642	neutral	066	sub-07	1.0	4.0	066_neutral	0.0		157.1526446697594	
23.0	136.4993652068133	fix	1.0		444	22.0	female	west_asian	3.8205332272184642	neutral	066	sub-07	1.0	4.0	066_neutral	0.0		157.8525136663152	3.7665385811178567
23.0	136.50678591803535	pulse	1.0	t		22.0	female	west_asian	3.8205332272184642	neutral	066	sub-07	1.0	4.0	066_neutral	0.0		157.85993437753723	
23.0	137.19945304552812	pulse	1.0	t		22.0	female	west_asian	3.8205332272184642	neutral	066	sub-07	1.0	4.0	066_neutral	0.0		158.55260150503	
23.0	137.89942286040286	pulse	1.0	t		22.0	female	west_asian	3.8205332272184642	neutral	066	sub-07	1.0	4.0	066_neutral	0.0		159.25257131990475	
23.0	138.59940505117902	pulse	1.0	t		22.0	female	west_asian	3.8205332272184642	neutral	066	sub-07	1.0	4.0	066_neutral	0.0		159.9525535106809	
23.0	139.2993809030786	pulse	1.0	t		22.0	female	west_asian	3.8205332272184642	neutral	066	sub-07	1.0	4.0	066_neutral	0.0		160.65252936258048	
23.0	139.9993528309119	pulse	1.0	t		22.0	female	west_asian	3.8205332272184642	neutral	066	sub-07	1.0	4.0	066_neutral	0.0		161.35250129041378	
24.0	140.26590378793117	face	0.0		145	20.0	male	black	2.609629924393156	neutral	043	sub-07	1.0	4.0	043_neutral	0.0		161.61905224743305	1.2332972118001635
24.0	140.69933592724192	pulse	0.0	t		20.0	male	black	2.609629924393156	neutral	043	sub-07	1.0	4.0	043_neutral	0.0		162.0524843867438	
24.0	141.3993048365628	pulse	0.0	t		20.0	male	black	2.609629924393156	neutral	043	sub-07	1.0	4.0	043_neutral	0.0		162.7524532960647	
24.0	141.49920099973133	fix	1.0		445	20.0	male	black	2.609629924393156	neutral	043	sub-07	1.0	4.0	043_neutral	0.0		162.8523494592332	3.774872392382349
24.0	142.09931992912516	pulse	1.0	t		20.0	male	black	2.609629924393156	neutral	043	sub-07	1.0	4.0	043_neutral	0.0		163.45246838862704	
24.0	142.7992671051561	pulse	1.0	t		20.0	male	black	2.609629924393156	neutral	043	sub-07	1.0	4.0	043_neutral	0.0		164.15241556465799	
24.0	143.49923752373297	pulse	1.0	t		20.0	male	black	2.609629924393156	neutral	043	sub-07	1.0	4.0	043_neutral	0.0		164.85238598323485	
24.0	144.1992203182117	pulse	1.0	t		20.0	male	black	2.609629924393156	neutral	043	sub-07	1.0	4.0	043_neutral	0.0		165.55236877771358	
24.0	144.89919134049114	pulse	1.0	t		20.0	male	black	2.609629924393156	neutral	043	sub-07	1.0	4.0	043_neutral	0.0		166.25233979999302	
25.0	145.27407339211368	face	0.0		145	24.0	female	east_asian	4.409868682849185	neutral	030	sub-07	1.0	4.0	030_neutral	0.0		166.62722185161556	1.2332969099488764
25.0	145.59918469976355	pulse	0.0	t		24.0	female	east_asian	4.409868682849185	neutral	030	sub-07	1.0	4.0	030_neutral	0.0		166.95233315926544	
25.0	146.2991611553657	pulse	0.0	t		24.0	female	east_asian	4.409868682849185	neutral	030	sub-07	1.0	4.0	030_neutral	0.0		167.6523096148676	
25.0	146.50737030206255	fix	1.0		444	24.0	female	east_asian	4.409868682849185	neutral	030	sub-07	1.0	4.0	030_neutral	0.0		167.86051876156444	3.766520470042906
25.0	146.9991288572819	pulse	1.0	t		24.0	female	east_asian	4.409868682849185	neutral	030	sub-07	1.0	4.0	030_neutral	0.0		168.35227731678378	
25.0	147.69909806845362	pulse	1.0	t		24.0	female	east_asian	4.409868682849185	neutral	030	sub-07	1.0	4.0	030_neutral	0.0		169.0522465279555	
25.0	148.3990763351635	pulse	1.0	t		24.0	female	east_asian	4.409868682849185	neutral	030	sub-07	1.0	4.0	030_neutral	0.0		169.75222479466538	
25.0	149.09911738693427	pulse	1.0	t		24.0	female	east_asian	4.409868682849185	neutral	030	sub-07	1.0	4.0	030_neutral	0.0		170.45226584643615	
25.0	149.79903920745937	pulse	1.0	t		24.0	female	east_asian	4.409868682849185	neutral	030	sub-07	1.0	4.0	030_neutral	0.0		171.15218766696125	
26.0	150.27389077210546	face	0.0		145	47.0	male	east_asian	2.171110226820533	smiling	024	sub-07	1.0	4.0	024_smiling	0.0		171.62703923160734	1.2333129080648177
26.0	150.49902954821937	pulse	0.0	t		47.0	male	east_asian	2.171110226820533	smiling	024	sub-07	1.0	4.0	024_smiling	0.0		171.85217800772125	
26.0	151.19899453347398	pulse	0.0	t		47.0	male	east_asian	2.171110226820533	smiling	024	sub-07	1.0	4.0	024_smiling	0.0		172.55214299297586	
26.0	151.50720368017028	fix	1.0		444	47.0	male	east_asian	2.171110226820533	smiling	024	sub-07	1.0	4.0	024_smiling	0.0		172.86035213967216	3.7583418103226904
26.0	151.89896223538972	pulse	1.0	t		47.0	male	east_asian	2.171110226820533	smiling	024	sub-07	1.0	4.0	024_smiling	0.0		173.2521106948916	
26.0	152.59894533171928	pulse	1.0	t		47.0	male	east_asian	2.171110226820533	smiling	024	sub-07	1.0	4.0	024_smiling	0.0		173.95209379122116	
26.0	153.29892359842916	pulse	1.0	t		47.0	male	east_asian	2.171110226820533	smiling	024	sub-07	1.0	4.0	024_smiling	0.0		174.65207205793104	
26.0	153.99890065773388	pulse	1.0	t		47.0	male	east_asian	2.171110226820533	smiling	024	sub-07	1.0	4.0	024_smiling	0.0		175.35204911723577	
26.0	154.6988783207412	pulse	1.0	t		47.0	male	east_asian	2.171110226820533	smiling	024	sub-07	1.0	4.0	024_smiling	0.0		176.05202678024307	
27.0	155.26554549049297	face	0.0		146	31.0	female	white	2.1822522881018704	smiling	102	sub-07	1.0	4.0	102_smiling	0.0		176.61869394999485	1.2414933788927556
27.0	155.39886534113703	pulse	0.0	t		31.0	female	white	2.1822522881018704	smiling	102	sub-07	1.0	4.0	102_smiling	0.0		176.7520138006389	
27.0	156.09886443558344	pulse	0.0	t		31.0	female	white	2.1822522881018704	smiling	102	sub-07	1.0	4.0	102_smiling	0.0		177.45201289508532	
27.0	156.50703886938572	fix	1.0		444	31.0	female	white	2.1822522881018704	smiling	102	sub-07	1.0	4.0	102_smiling	0.0		177.8601873288876	3.7665422033333016
27.0	156.79880738569636	pulse	1.0	t		31.0	female	white	2.1822522881018704	smiling	102	sub-07	1.0	4.0	102_smiling	0.0		178.15195584519824	
27.0	157.49878625610881	pulse	1.0	t		31.0	female	white	2.1822522881018704	smiling	102	sub-07	1.0	4.0	102_smiling	0.0		178.8519347156107	
27.0	158.19876150430582	pulse	1.0	t		31.0	female	white	2.1822522881018704	smiling	102	sub-07	1.0	4.0	102_smiling	0.0		179.5519099638077	
27.0	158.8987376580567	pulse	1.0	t		31.0	female	white	2.1822522881018704	smiling	102	sub-07	1.0	4.0	102_smiling	0.0		180.25188611755857	
27.0	159.59905309261694	pulse	1.0	t		31.0	female	white	2.1822522881018704	smiling	102	sub-07	1.0	4.0	102_smiling	0.0		180.95220155211882	
28.0	160.27358107271903	face	0.0		145	28.0	female	white	5.676880222841227	smiling	124	sub-07	1.0	4.0	124_smiling	0.0		181.6267295322209	1.2332947969898669
28.0	160.2987086803364	pulse	0.0	t		28.0	female	white	5.676880222841227	smiling	124	sub-07	1.0	4.0	124_smiling	0.0		181.65185713983828	
28.0	160.99866611930975	pulse	0.0	t		28.0	female	white	5.676880222841227	smiling	124	sub-07	1.0	4.0	124_smiling	0.0		182.35181457881163	
28.0	161.5068758697089	fix	1.0		443	28.0	female	white	5.676880222841227	smiling	124	sub-07	1.0	4.0	124_smiling	0.0		182.86002432921077	3.7582005439358
28.0	161.69865012119317	pulse	1.0	t		28.0	female	white	5.676880222841227	smiling	124	sub-07	1.0	4.0	124_smiling	0.0		183.05179858069505	
28.0	162.39862416198548	pulse	1.0	t		28.0	female	white	5.676880222841227	smiling	124	sub-07	1.0	4.0	124_smiling	0.0		183.75177262148736	
28.0	163.09858793983494	pulse	1.0	t		28.0	female	white	5.676880222841227	smiling	124	sub-07	1.0	4.0	124_smiling	0.0		184.45173639933682	
28.0	163.79857616763593	pulse	1.0	t		28.0	female	white	5.676880222841227	smiling	124	sub-07	1.0	4.0	124_smiling	0.0		185.1517246271378	
28.0	164.4985577547095	pulse	1.0	t		28.0	female	white	5.676880222841227	smiling	124	sub-07	1.0	4.0	124_smiling	0.0		185.8517062142114	
28.0	165.19852938069198	pulse	1.0	t		28.0	female	white	5.676880222841227	smiling	124	sub-07	1.0	4.0	124_smiling	0.0		186.55167784019386	
29.0	165.2650764136447	face	0.0		147	19.0	female	white	4.298846000795861	neutral	100	sub-07	1.0	4.0	100_neutral	1.0	trustworthiness	186.61822487314657	1.2416367582386556
29.0	165.8985260603281	pulse	0.0	t		19.0	female	white	4.298846000795861	neutral	100	sub-07	1.0	4.0	100_neutral	1.0	trustworthiness	187.25167451982998	
29.0	166.50671317188335	fix	1.0		177	19.0	female	white	4.298846000795861	neutral	100	sub-07	1.0	4.0	100_neutral	1.0	trustworthiness	187.85986163138523	1.5082861187661365
29.0	166.59854417140332	pulse	1.0	t		19.0	female	white	4.298846000795861	neutral	100	sub-07	1.0	4.0	100_neutral	1.0	trustworthiness	187.9516926309052	
29.0	167.29846387896987	pulse	1.0	t		19.0	female	white	4.298846000795861	neutral	100	sub-07	1.0	4.0	100_neutral	1.0	trustworthiness	188.65161233847175	
29.0	167.99843731605915	pulse	1.0	t		19.0	female	white	4.298846000795861	neutral	100	sub-07	1.0	4.0	100_neutral	1.0	trustworthiness	189.35158577556103	
29.0	168.01499929064948	rating	2.0		294	19.0	female	white	4.298846000795861	neutral	100	sub-07	1.0	4.0	100_neutral	1.0	trustworthiness	189.36814775015137	2.4915813685333887
29.0	168.6984198086866	pulse	2.0	t		19.0	female	white	4.298846000795861	neutral	100	sub-07	1.0	4.0	100_neutral	1.0	trustworthiness	190.05156826818848	
29.0	169.3983974716939	pulse	2.0	t		19.0	female	white	4.298846000795861	neutral	100	sub-07	1.0	4.0	100_neutral	1.0	trustworthiness	190.75154593119578	
29.0	169.75149008871404	response	2.0	w		19.0	female	white	4.298846000795861	neutral	100	sub-07	1.0	4.0	100_neutral	1.0	trustworthiness	191.10463854821592	
29.0	170.09835068474968	pulse	2.0	t		19.0	female	white	4.298846000795861	neutral	100	sub-07	1.0	4.0	100_neutral	1.0	trustworthiness	191.45149914425156	
29.0	170.50658065918287	fix	3.0		444	19.0	female	white	4.298846000795861	neutral	100	sub-07	1.0	4.0	100_neutral	1.0	trustworthiness	191.85972911868475	3.766540090374292
29.0	170.79834917549306	pulse	3.0	t		19.0	female	white	4.298846000795861	neutral	100	sub-07	1.0	4.0	100_neutral	1.0	trustworthiness	192.15149763499494	
29.0	171.49832080147553	pulse	3.0	t		19.0	female	white	4.298846000795861	neutral	100	sub-07	1.0	4.0	100_neutral	1.0	trustworthiness	192.8514692609774	
29.0	172.19830178484654	pulse	3.0	t		19.0	female	white	4.298846000795861	neutral	100	sub-07	1.0	4.0	100_neutral	1.0	trustworthiness	193.55145024434842	
29.0	172.89827009046485	pulse	3.0	t		19.0	female	white	4.298846000795861	neutral	100	sub-07	1.0	4.0	100_neutral	1.0	trustworthiness	194.25141854996673	
29.0	173.59825741271197	pulse	3.0	t		19.0	female	white	4.298846000795861	neutral	100	sub-07	1.0	4.0	100_neutral	1.0	trustworthiness	194.95140587221385	
30.0	174.27312074955717	face	0.0		145	20.0	male	black	3.1070433744528456	neutral	082	sub-07	1.0	4.0	082_neutral	0.0		195.62626920905905	1.2332963062458475
30.0	174.29825560160452	pulse	0.0	t		20.0	male	black	3.1070433744528456	neutral	082	sub-07	1.0	4.0	082_neutral	0.0		195.6514040611064	
30.0	174.99819704246147	pulse	0.0	t		20.0	male	black	3.1070433744528456	neutral	082	sub-07	1.0	4.0	082_neutral	0.0		196.35134550196335	
30.0	175.506417055803	fix	1.0		443	20.0	male	black	3.1070433744528456	neutral	082	sub-07	1.0	4.0	082_neutral	0.0		196.8595655153049	3.7665228848532024
30.0	175.6981719888072	pulse	1.0	t		20.0	male	black	3.1070433744528456	neutral	082	sub-07	1.0	4.0	082_neutral	0.0		197.05132044830907	
30.0	176.39818164804728	pulse	1.0	t		20.0	male	black	3.1070433744528456	neutral	082	sub-07	1.0	4.0	082_neutral	0.0		197.75133010754917	
30.0	177.09813908702063	pulse	1.0	t		20.0	male	black	3.1070433744528456	neutral	082	sub-07	1.0	4.0	082_neutral	0.0		198.4512875465225	
30.0	177.79812037224292	pulse	1.0	t		20.0	male	black	3.1070433744528456	neutral	082	sub-07	1.0	4.0	082_neutral	0.0		199.1512688317448	
30.0	178.4980929037788	pulse	1.0	t		20.0	male	black	3.1070433744528456	neutral	082	sub-07	1.0	4.0	082_neutral	0.0		199.85124136328068	
30.0	179.19808264083622	pulse	1.0	t		20.0	male	black	3.1070433744528456	neutral	082	sub-07	1.0	4.0	082_neutral	0.0		200.5512311003381	
31.0	179.27293994065622	face	0.0		146	28.0	female	white	5.676880222841227	neutral	124	sub-07	1.0	4.0	124_neutral	0.0		200.6260884001581	1.2333132099161048
31.0	179.8980584927358	pulse	0.0	t		28.0	female	white	5.676880222841227	neutral	124	sub-07	1.0	4.0	124_neutral	0.0		201.25120695223768	
31.0	180.50625315057232	fix	1.0		443	28.0	female	white	5.676880222841227	neutral	124	sub-07	1.0	4.0	124_neutral	0.0		201.8594016100742	3.758194506910968
31.0	180.59802981686698	pulse	1.0	t		28.0	female	white	5.676880222841227	neutral	124	sub-07	1.0	4.0	124_neutral	0.0		201.95117827636886	
31.0	181.298001442849	pulse	1.0	t		28.0	female	white	5.676880222841227	neutral	124	sub-07	1.0	4.0	124_neutral	0.0		202.65114990235088	
31.0	181.99798423732773	pulse	1.0	t		28.0	female	white	5.676880222841227	neutral	124	sub-07	1.0	4.0	124_neutral	0.0		203.3511326968296	
31.0	182.69795344849945	pulse	1.0	t		28.0	female	white	5.676880222841227	neutral	124	sub-07	1.0	4.0	124_neutral	0.0		204.05110190800133	
31.0	183.39793322446576	pulse	1.0	t		28.0	female	white	5.676880222841227	neutral	124	sub-07	1.0	4.0	124_neutral	0.0		204.75108168396764	
31.0	184.09791481153934	pulse	1.0	t		28.0	female	white	5.676880222841227	neutral	124	sub-07	1.0	4.0	124_neutral	0.0		205.45106327104122	
32.0	184.2644476574833	face	0.0		147	27.0	female	white	3.504576203740549	smiling	144	sub-07	1.0	4.0	144_smiling	0.0		205.61759611698517	1.2499744935689705
32.0	184.7978912671415	pulse	0.0	t		27.0	female	white	3.504576203740549	smiling	144	sub-07	1.0	4.0	144_smiling	0.0		206.15103972664338	
32.0	185.49786832644622	pulse	0.0	t		27.0	female	white	3.504576203740549	smiling	144	sub-07	1.0	4.0	144_smiling	0.0		206.8510167859481	
32.0	185.51442215105226	fix	1.0		443	27.0	female	white	3.504576203740549	smiling	144	sub-07	1.0	4.0	144_smiling	0.0		206.86757061055414	3.7582065809610867
32.0	186.1978444801971	pulse	1.0	t		27.0	female	white	3.504576203740549	smiling	144	sub-07	1.0	4.0	144_smiling	0.0		207.55099293969897	
32.0	186.897806145088	pulse	1.0	t		27.0	female	white	3.504576203740549	smiling	144	sub-07	1.0	4.0	144_smiling	0.0		208.25095460458988	
32.0	187.59779588214496	pulse	1.0	t		27.0	female	white	3.504576203740549	smiling	144	sub-07	1.0	4.0	144_smiling	0.0		208.95094434164685	
32.0	188.2977693192347	pulse	1.0	t		27.0	female	white	3.504576203740549	smiling	144	sub-07	1.0	4.0	144_smiling	0.0		209.65091777873658	
32.0	188.99774969890314	pulse	1.0	t		27.0	female	white	3.504576203740549	smiling	144	sub-07	1.0	4.0	144_smiling	0.0		210.35089815840502	
33.0	189.27262873201335	face	0.0		145	27.0	female	white	4.181058495821727	neutral	039	sub-07	1.0	4.0	039_neutral	0.0		210.62577719151523	1.2332978155027376
33.0	189.697733700787	pulse	0.0	t		27.0	female	white	4.181058495821727	neutral	039	sub-07	1.0	4.0	039_neutral	0.0		211.0508821602889	
33.0	190.39770804343016	pulse	0.0	t		27.0	female	white	4.181058495821727	neutral	039	sub-07	1.0	4.0	039_neutral	0.0		211.75085650293204	
33.0	190.50592654751608	fix	1.0		444	27.0	female	white	4.181058495821727	neutral	039	sub-07	1.0	4.0	039_neutral	0.0		211.85907500701796	3.766539184820431
33.0	191.09767423608992	pulse	1.0	t		27.0	female	white	4.181058495821727	neutral	039	sub-07	1.0	4.0	039_neutral	0.0		212.4508226955918	
33.0	191.79765703056864	pulse	1.0	t		27.0	female	white	4.181058495821727	neutral	039	sub-07	1.0	4.0	039_neutral	0.0		213.15080549007052	
33.0	192.49763258061694	pulse	1.0	t		27.0	female	white	4.181058495821727	neutral	039	sub-07	1.0	4.0	039_neutral	0.0		213.85078104011882	
33.0	193.19761929916194	pulse	1.0	t		27.0	female	white	4.181058495821727	neutral	039	sub-07	1.0	4.0	039_neutral	0.0		214.55076775866382	
33.0	193.89759635846667	pulse	1.0	t		27.0	female	white	4.181058495821727	neutral	039	sub-07	1.0	4.0	039_neutral	0.0		215.25074481796855	
34.0	194.2724657323365	face	0.0		145	32.0	male	white	2.389176283326701	smiling	092	sub-07	1.0	4.0	092_smiling	1.0	dominance	215.6256141918384	1.2332941932872927
34.0	194.5975673807461	pulse	0.0	t		32.0	male	white	2.389176283326701	smiling	092	sub-07	1.0	4.0	092_smiling	1.0	dominance	215.950715840248	
34.0	195.297536290067	pulse	0.0	t		32.0	male	white	2.389176283326701	smiling	092	sub-07	1.0	4.0	092_smiling	1.0	dominance	216.65068474956888	
34.0	195.5057599256238	fix	1.0		177	32.0	male	white	2.389176283326701	smiling	092	sub-07	1.0	4.0	092_smiling	1.0	dominance	216.8589083851257	1.4999550241632278
34.0	195.99752572527314	pulse	1.0	t		32.0	male	white	2.389176283326701	smiling	092	sub-07	1.0	4.0	092_smiling	1.0	dominance	217.35067418477502	
34.0	196.6975236123144	pulse	1.0	t		32.0	male	white	2.389176283326701	smiling	092	sub-07	1.0	4.0	092_smiling	1.0	dominance	218.05067207181628	
34.0	197.00571494978703	rating	2.0		295	32.0	male	white	2.389176283326701	smiling	092	sub-07	1.0	4.0	092_smiling	1.0	dominance	218.35886340928892	2.5082486892110865
34.0	197.39749071052756	pulse	2.0	t		32.0	male	white	2.389176283326701	smiling	092	sub-07	1.0	4.0	092_smiling	1.0	dominance	218.75063917002944	
34.0	198.09746233650958	pulse	2.0	t		32.0	male	white	2.389176283326701	smiling	092	sub-07	1.0	4.0	092_smiling	1.0	dominance	219.45061079601146	
34.0	198.3890995475249	response	2.0	b		32.0	male	white	2.389176283326701	smiling	092	sub-07	1.0	4.0	092_smiling	1.0	dominance	219.74224800702677	
34.0	198.79741041809393	pulse	2.0	t		32.0	male	white	2.389176283326701	smiling	092	sub-07	1.0	4.0	092_smiling	1.0	dominance	220.1505588775958	
34.0	199.49740317366422	pulse	2.0	t		32.0	male	white	2.389176283326701	smiling	092	sub-07	1.0	4.0	092_smiling	1.0	dominance	220.8505516331661	
34.0	199.51396363899812	fix	3.0		443	32.0	male	white	2.389176283326701	smiling	092	sub-07	1.0	4.0	092_smiling	1.0	dominance	220.8671120985	3.758207486514493
34.0	200.19739985330034	pulse	3.0	t		32.0	male	white	2.389176283326701	smiling	092	sub-07	1.0	4.0	092_smiling	1.0	dominance	221.55054831280222	
34.0	200.89735276450483	pulse	3.0	t		32.0	male	white	2.389176283326701	smiling	092	sub-07	1.0	4.0	092_smiling	1.0	dominance	222.2505012240067	
34.0	201.59733646453697	pulse	3.0	t		32.0	male	white	2.389176283326701	smiling	092	sub-07	1.0	4.0	092_smiling	1.0	dominance	222.95048492403885	
34.0	202.29730356275013	pulse	3.0	t		32.0	male	white	2.389176283326701	smiling	092	sub-07	1.0	4.0	092_smiling	1.0	dominance	223.650452022252	
34.0	202.99728696093143	pulse	3.0	t		32.0	male	white	2.389176283326701	smiling	092	sub-07	1.0	4.0	092_smiling	1.0	dominance	224.3504354204333	
35.0	203.2721711255126	face	0.0		145	37.0	male	white	3.898925586947871	neutral	101	sub-07	1.0	4.0	101_neutral	0.0		224.6253195850145	1.2333059654865792
35.0	203.69727971650127	pulse	0.0	t		37.0	male	white	3.898925586947871	neutral	101	sub-07	1.0	4.0	101_neutral	0.0		225.05042817600315	
35.0	204.39724470175588	pulse	0.0	t		37.0	male	white	3.898925586947871	neutral	101	sub-07	1.0	4.0	101_neutral	0.0		225.75039316125776	
35.0	204.5054770909992	fix	1.0		444	37.0	male	white	3.898925586947871	neutral	101	sub-07	1.0	4.0	101_neutral	0.0		225.85862555050107	3.7665280163241732
35.0	205.09723051474703	pulse	1.0	t		37.0	male	white	3.898925586947871	neutral	101	sub-07	1.0	4.0	101_neutral	0.0		226.4503789742489	
35.0	205.79720576294403	pulse	1.0	t		37.0	male	white	3.898925586947871	neutral	101	sub-07	1.0	4.0	101_neutral	0.0		227.1503542224459	
35.0	206.49717587967007	pulse	1.0	t		37.0	male	white	3.898925586947871	neutral	101	sub-07	1.0	4.0	101_neutral	0.0		227.85032433917195	
35.0	207.19715505193335	pulse	1.0	t		37.0	male	white	3.898925586947871	neutral	101	sub-07	1.0	4.0	101_neutral	0.0		228.55030351143523	
35.0	207.8971251686594	pulse	1.0	t		37.0	male	white	3.898925586947871	neutral	101	sub-07	1.0	4.0	101_neutral	0.0		229.25027362816127	
36.0	208.27200510732337	face	0.0		145	31.0	female	white	2.1822522881018704	neutral	102	sub-07	1.0	4.0	102_neutral	1.0	trustworthiness	229.62515356682525	1.233295400692441
36.0	208.5971149057168	pulse	0.0	t		31.0	female	white	2.1822522881018704	neutral	102	sub-07	1.0	4.0	102_neutral	1.0	trustworthiness	229.9502633652187	
36.0	209.29709528538524	pulse	0.0	t		31.0	female	white	2.1822522881018704	neutral	102	sub-07	1.0	4.0	102_neutral	1.0	trustworthiness	230.65024374488712	
36.0	209.5053005080158	fix	1.0		177	31.0	female	white	2.1822522881018704	neutral	102	sub-07	1.0	4.0	102_neutral	1.0	trustworthiness	230.8584489675177	1.4999535149067924
36.0	209.99705393176328	pulse	1.0	t		31.0	female	white	2.1822522881018704	neutral	102	sub-07	1.0	4.0	102_neutral	1.0	trustworthiness	231.35020239126516	
36.0	210.69703431143216	pulse	1.0	t		31.0	female	white	2.1822522881018704	neutral	102	sub-07	1.0	4.0	102_neutral	1.0	trustworthiness	232.05018277093404	
36.0	211.0052540229226	rating	2.0		295	31.0	female	white	2.1822522881018704	neutral	102	sub-07	1.0	4.0	102_neutral	1.0	trustworthiness	232.35840248242448	2.5082420484832255
36.0	211.39701982257202	pulse	2.0	t		31.0	female	white	2.1822522881018704	neutral	102	sub-07	1.0	4.0	102_neutral	1.0	trustworthiness	232.7501682820739	
36.0	212.09699688187675	pulse	2.0	t		31.0	female	white	2.1822522881018704	neutral	102	sub-07	1.0	4.0	102_neutral	1.0	trustworthiness	233.45014534137863	
36.0	212.62518797786834	response	2.0	e		31.0	female	white	2.1822522881018704	neutral	102	sub-07	1.0	4.0	102_neutral	1.0	trustworthiness	233.97833643737022	
36.0	212.79696337638734	pulse	2.0	t		31.0	female	white	2.1822522881018704	neutral	102	sub-07	1.0	4.0	102_neutral	1.0	trustworthiness	234.15011183588922	
36.0	213.4969467745682	pulse	2.0	t		31.0	female	white	2.1822522881018704	neutral	102	sub-07	1.0	4.0	102_neutral	1.0	trustworthiness	234.85009523407007	
36.0	213.51349607140583	fix	3.0		443	31.0	female	white	2.1822522881018704	neutral	102	sub-07	1.0	4.0	102_neutral	1.0	trustworthiness	234.8666445309077	3.749910199252099
36.0	214.19692504127806	pulse	3.0	t		31.0	female	white	2.1822522881018704	neutral	102	sub-07	1.0	4.0	102_neutral	1.0	trustworthiness	235.55007350077994	
36.0	214.8969021005828	pulse	3.0	t		31.0	female	white	2.1822522881018704	neutral	102	sub-07	1.0	4.0	102_neutral	1.0	trustworthiness	236.25005056008467	
36.0	215.59688036729267	pulse	3.0	t		31.0	female	white	2.1822522881018704	neutral	102	sub-07	1.0	4.0	102_neutral	1.0	trustworthiness	236.95002882679455	
36.0	216.29686316177094	pulse	3.0	t		31.0	female	white	2.1822522881018704	neutral	102	sub-07	1.0	4.0	102_neutral	1.0	trustworthiness	237.65001162127282	
36.0	216.9968257322157	pulse	3.0	t		31.0	female	white	2.1822522881018704	neutral	102	sub-07	1.0	4.0	102_neutral	1.0	trustworthiness	238.3499741917176	
37.0	217.26340627065792	face	0.0		146	23.0	male	white	2.6275368085953046	neutral	141	sub-07	1.0	4.0	141_neutral	0.0		238.6165547301598	1.2416008379391315
37.0	217.69682693962068	pulse	0.0	t		23.0	male	white	2.6275368085953046	neutral	141	sub-07	1.0	4.0	141_neutral	0.0		239.04997539912256	
37.0	218.39678649155258	pulse	0.0	t		23.0	male	white	2.6275368085953046	neutral	141	sub-07	1.0	4.0	141_neutral	0.0		239.74993495105446	
37.0	218.50500710859706	fix	1.0		444	23.0	male	white	2.6275368085953046	neutral	141	sub-07	1.0	4.0	141_neutral	0.0		239.85815556809894	3.766539486671718
37.0	219.0967816619327	pulse	1.0	t		23.0	male	white	2.6275368085953046	neutral	141	sub-07	1.0	4.0	141_neutral	0.0		240.4499301214346	
37.0	219.7967378935009	pulse	1.0	t		23.0	male	white	2.6275368085953046	neutral	141	sub-07	1.0	4.0	141_neutral	0.0		241.14988635300278	
37.0	220.49671465095435	pulse	1.0	t		23.0	male	white	2.6275368085953046	neutral	141	sub-07	1.0	4.0	141_neutral	0.0		241.84986311045623	
37.0	221.19669986024292	pulse	1.0	t		23.0	male	white	2.6275368085953046	neutral	141	sub-07	1.0	4.0	141_neutral	0.0		242.5498483197448	
37.0	221.89667752325022	pulse	1.0	t		23.0	male	white	2.6275368085953046	neutral	141	sub-07	1.0	4.0	141_neutral	0.0		243.2498259827521	
38.0	222.27154659526877	face	0.0		145	31.0	male	west_asian	1.9538400318344609	smiling	070	sub-07	1.0	4.0	070_smiling	0.0		243.62469505477065	1.2332966080975893
38.0	222.59665246959594	pulse	0.0	t		31.0	male	west_asian	1.9538400318344609	smiling	070	sub-07	1.0	4.0	070_smiling	0.0		243.94980092909782	
38.0	223.29663586777724	pulse	0.0	t		31.0	male	west_asian	1.9538400318344609	smiling	070	sub-07	1.0	4.0	070_smiling	0.0		244.64978432727912	
38.0	223.50484320336636	fix	1.0		444	31.0	male	west_asian	1.9538400318344609	smiling	070	sub-07	1.0	4.0	070_smiling	0.0		244.85799166286824	3.766542807035421
38.0	223.9966192659581	pulse	1.0	t		31.0	male	west_asian	1.9538400318344609	smiling	070	sub-07	1.0	4.0	070_smiling	0.0		245.34976772545997	
38.0	224.69658002529513	pulse	1.0	t		31.0	male	west_asian	1.9538400318344609	smiling	070	sub-07	1.0	4.0	070_smiling	0.0		246.04972848479701	
38.0	225.39655316053359	pulse	1.0	t		31.0	male	west_asian	1.9538400318344609	smiling	070	sub-07	1.0	4.0	070_smiling	0.0		246.74970162003547	
38.0	226.09652025874675	pulse	1.0	t		31.0	male	west_asian	1.9538400318344609	smiling	070	sub-07	1.0	4.0	070_smiling	0.0		247.44966871824863	
38.0	226.796521768003	pulse	1.0	t		31.0	male	west_asian	1.9538400318344609	smiling	070	sub-07	1.0	4.0	070_smiling	0.0		248.14967022750488	
39.0	227.27138601040178	face	0.0		145	31.0	female	west_asian	2.364902506963788	smiling	006	sub-07	1.0	4.0	006_smiling	0.0		248.62453446990367	1.233292684031312
39.0	227.4965190513417	pulse	0.0	t		31.0	female	west_asian	2.364902506963788	smiling	006	sub-07	1.0	4.0	006_smiling	0.0		248.84966751084357	
39.0	228.19647769772018	pulse	0.0	t		31.0	female	west_asian	2.364902506963788	smiling	006	sub-07	1.0	4.0	006_smiling	0.0		249.54962615722206	
39.0	228.5046786944331	fix	1.0		444	31.0	female	west_asian	2.364902506963788	smiling	006	sub-07	1.0	4.0	006_smiling	0.0		249.85782715393498	3.7498646197127528
39.0	228.89645204036333	pulse	1.0	t		31.0	female	west_asian	2.364902506963788	smiling	006	sub-07	1.0	4.0	006_smiling	0.0		250.2496004998652	
39.0	229.59641159229568	pulse	1.0	t		31.0	female	west_asian	2.364902506963788	smiling	006	sub-07	1.0	4.0	006_smiling	0.0		250.94956005179756	
39.0	230.29640706452665	pulse	1.0	t		31.0	female	west_asian	2.364902506963788	smiling	006	sub-07	1.0	4.0	006_smiling	0.0		251.64955552402853	
39.0	230.99636842756627	pulse	1.0	t		31.0	female	west_asian	2.364902506963788	smiling	006	sub-07	1.0	4.0	006_smiling	0.0		252.34951688706815	
39.0	231.69636027758224	pulse	1.0	t		31.0	female	west_asian	2.364902506963788	smiling	006	sub-07	1.0	4.0	006_smiling	0.0		253.04950873708412	
40.0	232.25454331414585	fix	0.0		720													253.60769177364773	5.99981345592505
40.0	232.39632888505184	pulse	0.0	t														253.74947734455372	
40.0	233.09630926472073	pulse	0.0	t														254.4494577242226	
40.0	233.79628149440532	pulse	0.0	t														255.1494299539072	
40.0	234.49625885556134	pulse	0.0	t														255.84940731506322	
40.0	235.19623410375834	pulse	0.0	t														256.5493825632602	
40.0	235.89620844640194	pulse	0.0	t														257.2493569059038	
40.0	236.59619456124392	pulse	0.0	t														257.9493430207458	
40.0	237.29616497982124	pulse	0.0	t														258.6493134393231	
40.0	237.9961411335721	pulse	0.0	t														259.349289593074	
