trial_nr	onset	event_type	phase	response	nr_frames	face_age	face_sex	face_eth	attractiveness	expression	face_id	sub_id	ses	run	trial_type	catch	rating_type	onset_abs	duration
-1.0	0.05866565887072284	fix	0.0		713													21.937266533467664	5.958005832456365
-1.0	0.7002098802809087	pulse	0.0	t														22.57881075487785	
-1.0	1.400195179907314	pulse	0.0	t														23.278796054504255	
-1.0	2.1001780646879524	pulse	0.0	t														23.978778939284894	
-1.0	2.8001736274090945	pulse	0.0	t														24.678774502006036	
-1.0	3.500158021468451	pulse	0.0	t														25.378758896065392	
-1.0	4.200146339652292	pulse	0.0	t														26.078747214249233	
-1.0	4.900151259900213	pulse	0.0	t														26.778752134497154	
-1.0	5.600118448183821	pulse	0.0	t														27.478719322780762	
0.0	6.016671491327088	face	0.0		144	28.0	male	white	3.9076800636689217	smiling	033	sub-15	1.0	5.0	033_smiling	0.0		27.89527236592403	1.2333094162986526
0.0	6.3001112942033615	pulse	0.0	t		28.0	male	white	3.9076800636689217	smiling	033	sub-15	1.0	5.0	033_smiling	0.0		28.178712168800303	
0.0	7.000096895685601	pulse	0.0	t		28.0	male	white	3.9076800636689217	smiling	033	sub-15	1.0	5.0	033_smiling	0.0		28.878697770282542	
0.0	7.249980907625741	fix	1.0		445	28.0	male	white	3.9076800636689217	smiling	033	sub-15	1.0	5.0	033_smiling	0.0		29.128581782222682	3.758261564620625
0.0	7.700087326859375	pulse	1.0	t		28.0	male	white	3.9076800636689217	smiling	033	sub-15	1.0	5.0	033_smiling	0.0		29.578688201456316	
0.0	8.400084700714615	pulse	1.0	t		28.0	male	white	3.9076800636689217	smiling	033	sub-15	1.0	5.0	033_smiling	0.0		30.278685575311556	
0.0	9.100063057659554	pulse	1.0	t		28.0	male	white	3.9076800636689217	smiling	033	sub-15	1.0	5.0	033_smiling	0.0		30.978663932256495	
0.0	9.800052281410444	pulse	1.0	t		28.0	male	white	3.9076800636689217	smiling	033	sub-15	1.0	5.0	033_smiling	0.0		31.678653156007385	
0.0	10.500036373613966	pulse	1.0	t		28.0	male	white	3.9076800636689217	smiling	033	sub-15	1.0	5.0	033_smiling	0.0		32.37863724821091	
1.0	11.008242472246366	face	0.0		146	22.0	female	west_asian	3.8205332272184642	neutral	066	sub-15	1.0	5.0	066_neutral	0.0		32.88684334684331	1.2416511990768413
1.0	11.20002620107607	pulse	0.0	t		22.0	female	west_asian	3.8205332272184642	neutral	066	sub-15	1.0	5.0	066_neutral	0.0		33.07862707567301	
1.0	11.900010896991262	pulse	0.0	t		22.0	female	west_asian	3.8205332272184642	neutral	066	sub-15	1.0	5.0	066_neutral	0.0		33.7786117715882	
1.0	12.249893671323207	fix	1.0		445	22.0	female	west_asian	3.8205332272184642	neutral	066	sub-15	1.0	5.0	066_neutral	0.0		34.12849454592015	3.7582660924563243
1.0	12.600014006105084	pulse	1.0	t		22.0	female	west_asian	3.8205332272184642	neutral	066	sub-15	1.0	5.0	066_neutral	0.0		34.478614880702025	
1.0	13.299985118512723	pulse	1.0	t		22.0	female	west_asian	3.8205332272184642	neutral	066	sub-15	1.0	5.0	066_neutral	0.0		35.178585993109664	
1.0	13.999979171955147	pulse	1.0	t		22.0	female	west_asian	3.8205332272184642	neutral	066	sub-15	1.0	5.0	066_neutral	0.0		35.87858004655209	
1.0	14.699959340034638	pulse	1.0	t		22.0	female	west_asian	3.8205332272184642	neutral	066	sub-15	1.0	5.0	066_neutral	0.0		36.57856021463158	
1.0	15.399956713889878	pulse	1.0	t		22.0	female	west_asian	3.8205332272184642	neutral	066	sub-15	1.0	5.0	066_neutral	0.0		37.27855758848682	
2.0	16.00815976377953	face	0.0		146	31.0	male	west_asian	1.9538400318344609	smiling	070	sub-15	1.0	5.0	070_smiling	0.0		37.88676063837647	1.2416472749523564
2.0	16.09998427331675	pulse	0.0	t		31.0	male	west_asian	1.9538400318344609	smiling	070	sub-15	1.0	5.0	070_smiling	0.0		37.97858514791369	
2.0	16.79992187973994	pulse	0.0	t		31.0	male	west_asian	1.9538400318344609	smiling	070	sub-15	1.0	5.0	070_smiling	0.0		38.67852275433688	
2.0	17.249807038731888	fix	1.0		444	31.0	male	west_asian	1.9538400318344609	smiling	070	sub-15	1.0	5.0	070_smiling	0.0		39.12840791332883	3.7582609609094106
2.0	17.499918649883966	pulse	1.0	t		31.0	male	west_asian	1.9538400318344609	smiling	070	sub-15	1.0	5.0	070_smiling	0.0		39.37851952448091	
2.0	18.199899723530052	pulse	1.0	t		31.0	male	west_asian	1.9538400318344609	smiling	070	sub-15	1.0	5.0	070_smiling	0.0		40.07850059812699	
2.0	18.89990373821138	pulse	1.0	t		31.0	male	west_asian	1.9538400318344609	smiling	070	sub-15	1.0	5.0	070_smiling	0.0		40.77850461280832	
2.0	19.5998805858776	pulse	1.0	t		31.0	male	west_asian	1.9538400318344609	smiling	070	sub-15	1.0	5.0	070_smiling	0.0		41.47848146047454	
2.0	20.299857433544275	pulse	1.0	t		31.0	male	west_asian	1.9538400318344609	smiling	070	sub-15	1.0	5.0	070_smiling	0.0		42.17845830814122	
3.0	21.0080679996413	face	0.0		147	24.0	female	east_asian	2.9076800636689217	neutral	034	sub-15	1.0	5.0	034_neutral	0.0		42.88666887423824	1.2416361062905708
3.0	21.000933036025344	pulse	0.0	t		24.0	female	east_asian	2.9076800636689217	neutral	034	sub-15	1.0	5.0	034_neutral	0.0		42.879533910622285	
3.0	21.69984010702592	pulse	0.0	t		24.0	female	east_asian	2.9076800636689217	neutral	034	sub-15	1.0	5.0	034_neutral	0.0		43.57844098162286	
3.0	22.24970410593187	fix	1.0		444	24.0	female	east_asian	2.9076800636689217	neutral	034	sub-15	1.0	5.0	034_neutral	0.0		44.12830498052881	3.758267903590877
3.0	22.39983023634386	pulse	1.0	t		24.0	female	east_asian	2.9076800636689217	neutral	034	sub-15	1.0	5.0	034_neutral	0.0		44.2784311109408	
3.0	23.0998556827808	pulse	1.0	t		24.0	female	east_asian	2.9076800636689217	neutral	034	sub-15	1.0	5.0	034_neutral	0.0		44.97845655737774	
3.0	23.799805665288204	pulse	1.0	t		24.0	female	east_asian	2.9076800636689217	neutral	034	sub-15	1.0	5.0	034_neutral	0.0		45.678406539885145	
3.0	24.499874880804782	pulse	1.0	t		24.0	female	east_asian	2.9076800636689217	neutral	034	sub-15	1.0	5.0	034_neutral	0.0		46.37847575540172	
3.0	25.1997756608298	pulse	1.0	t		24.0	female	east_asian	2.9076800636689217	neutral	034	sub-15	1.0	5.0	034_neutral	0.0		47.07837653542674	
3.0	25.899768204993507	pulse	1.0	t		24.0	female	east_asian	2.9076800636689217	neutral	034	sub-15	1.0	5.0	034_neutral	0.0		47.77836907959045	
4.0	26.007972009522746	face	0.0		147	31.0	female	white	2.1822522881018704	neutral	102	sub-15	1.0	5.0	102_neutral	0.0		47.88657288411969	1.2416587454695218
4.0	26.5997818790579	pulse	0.0	t		31.0	female	white	2.1822522881018704	neutral	102	sub-15	1.0	5.0	102_neutral	0.0		48.47838275365484	
4.0	27.249630754992268	fix	1.0		444	31.0	female	white	2.1822522881018704	neutral	102	sub-15	1.0	5.0	102_neutral	0.0		49.12823162958921	3.758266092456779
4.0	27.299741822803753	pulse	1.0	t		31.0	female	white	2.1822522881018704	neutral	102	sub-15	1.0	5.0	102_neutral	0.0		49.178342697400694	
4.0	27.999730744699264	pulse	1.0	t		31.0	female	white	2.1822522881018704	neutral	102	sub-15	1.0	5.0	102_neutral	0.0		49.878331619296205	
4.0	28.699714233191116	pulse	1.0	t		31.0	female	white	2.1822522881018704	neutral	102	sub-15	1.0	5.0	102_neutral	0.0		50.57831510778806	
4.0	29.399706475499443	pulse	1.0	t		31.0	female	white	2.1822522881018704	neutral	102	sub-15	1.0	5.0	102_neutral	0.0		51.278307350096384	
4.0	30.09969479368283	pulse	1.0	t		31.0	female	white	2.1822522881018704	neutral	102	sub-15	1.0	5.0	102_neutral	0.0		51.97829566827977	
4.0	30.799680998876738	pulse	1.0	t		31.0	female	white	2.1822522881018704	neutral	102	sub-15	1.0	5.0	102_neutral	0.0		52.67828187347368	
5.0	31.007896847449047	face	0.0		146	36.0	female	white	2.7548746518105847	neutral	011	sub-15	1.0	5.0	011_neutral	0.0		52.88649772204599	1.2416466712406873
5.0	31.499667204070192	pulse	0.0	t		36.0	female	white	2.7548746518105847	neutral	011	sub-15	1.0	5.0	011_neutral	0.0		53.37826807866713	
5.0	32.1996479758609	pulse	0.0	t		36.0	female	white	2.7548746518105847	neutral	011	sub-15	1.0	5.0	011_neutral	0.0		54.07824885045784	
5.0	32.249543518689734	fix	1.0		445	36.0	female	white	2.7548746518105847	neutral	011	sub-15	1.0	5.0	011_neutral	0.0		54.128144393286675	3.758333708137343
5.0	32.89964655713902	pulse	1.0	t		36.0	female	white	2.7548746518105847	neutral	011	sub-15	1.0	5.0	011_neutral	0.0		54.77824743173596	
5.0	33.59963487532286	pulse	1.0	t		36.0	female	white	2.7548746518105847	neutral	011	sub-15	1.0	5.0	011_neutral	0.0		55.478235749919804	
5.0	34.299622589795035	pulse	1.0	t		36.0	female	white	2.7548746518105847	neutral	011	sub-15	1.0	5.0	011_neutral	0.0		56.17822346439198	
5.0	34.99960577643151	pulse	1.0	t		36.0	female	white	2.7548746518105847	neutral	011	sub-15	1.0	5.0	011_neutral	0.0		56.87820665102845	
5.0	35.699594698326564	pulse	1.0	t		36.0	female	white	2.7548746518105847	neutral	011	sub-15	1.0	5.0	011_neutral	0.0		57.578195572923505	
6.0	36.00787722682708	face	0.0		146	54.0	female	white	2.286908077994429	smiling	136	sub-15	1.0	5.0	136_smiling	0.0		57.88647810142402	1.2415781499930745
6.0	36.39959418517219	pulse	0.0	t		54.0	female	white	2.286908077994429	smiling	136	sub-15	1.0	5.0	136_smiling	0.0		58.27819505976913	
6.0	37.09957073098258	pulse	0.0	t		54.0	female	white	2.286908077994429	smiling	136	sub-15	1.0	5.0	136_smiling	0.0		58.97817160557952	
6.0	37.24945537682015	fix	1.0		445	54.0	female	white	2.286908077994429	smiling	136	sub-15	1.0	5.0	136_smiling	0.0		59.12805625141709	3.7583294821570234
6.0	37.799563275146284	pulse	1.0	t		54.0	female	white	2.286908077994429	smiling	136	sub-15	1.0	5.0	136_smiling	0.0		59.678164149743225	
6.0	38.49954465064866	pulse	1.0	t		54.0	female	white	2.286908077994429	smiling	136	sub-15	1.0	5.0	136_smiling	0.0		60.3781455252456	
6.0	39.19950882037483	pulse	1.0	t		54.0	female	white	2.286908077994429	smiling	136	sub-15	1.0	5.0	136_smiling	0.0		61.07810969497177	
6.0	39.89952702227447	pulse	1.0	t		54.0	female	white	2.286908077994429	smiling	136	sub-15	1.0	5.0	136_smiling	0.0		61.77812789687141	
6.0	40.59951051076678	pulse	1.0	t		54.0	female	white	2.286908077994429	smiling	136	sub-15	1.0	5.0	136_smiling	0.0		62.47811138536372	
7.0	41.007784858977175	face	0.0		146	21.0	male	black	2.969757262236371	neutral	137	sub-15	1.0	5.0	137_neutral	0.0		62.886385733574116	1.2415838852516572
7.0	41.29949581039364	pulse	0.0	t		21.0	male	black	2.969757262236371	neutral	137	sub-15	1.0	5.0	137_neutral	0.0		63.17809668499058	
7.0	41.99947899703011	pulse	0.0	t		21.0	male	black	2.969757262236371	neutral	137	sub-15	1.0	5.0	137_neutral	0.0		63.87807987162705	
7.0	42.24936874422883	fix	1.0		445	21.0	male	black	2.969757262236371	neutral	137	sub-15	1.0	5.0	137_neutral	0.0		64.12796961882577	3.7583080504014106
7.0	42.69947667274073	pulse	1.0	t		21.0	male	black	2.969757262236371	neutral	137	sub-15	1.0	5.0	137_neutral	0.0		64.57807754733767	
7.0	43.39945623710855	pulse	1.0	t		21.0	male	black	2.969757262236371	neutral	137	sub-15	1.0	5.0	137_neutral	0.0		65.2780571117055	
7.0	44.09944938498393	pulse	1.0	t		21.0	male	black	2.969757262236371	neutral	137	sub-15	1.0	5.0	137_neutral	0.0		65.97805025958087	
7.0	44.79943498646617	pulse	1.0	t		21.0	male	black	2.969757262236371	neutral	137	sub-15	1.0	5.0	137_neutral	0.0		66.67803586106311	
7.0	45.49942541763994	pulse	1.0	t		21.0	male	black	2.969757262236371	neutral	137	sub-15	1.0	5.0	137_neutral	0.0		67.37802629223688	
8.0	46.00767679463024	face	0.0		146	40.0	female	west_asian	1.5777954635893354	neutral	038	sub-15	1.0	5.0	038_neutral	0.0		67.88627766922718	1.2416044114402212
8.0	46.19941343396795	pulse	0.0	t		40.0	female	west_asian	1.5777954635893354	neutral	038	sub-15	1.0	5.0	038_neutral	0.0		68.07801430856489	
8.0	46.89939873359435	pulse	0.0	t		40.0	female	west_asian	1.5777954635893354	neutral	038	sub-15	1.0	5.0	038_neutral	0.0		68.7779996081913	
8.0	47.249281206070464	fix	1.0		444	40.0	female	west_asian	1.5777954635893354	neutral	038	sub-15	1.0	5.0	038_neutral	0.0		69.1278820806674	3.7582467736906437
8.0	47.599406370543875	pulse	1.0	t		40.0	female	west_asian	1.5777954635893354	neutral	038	sub-15	1.0	5.0	038_neutral	0.0		69.47800724514082	
8.0	48.299372653260434	pulse	1.0	t		40.0	female	west_asian	1.5777954635893354	neutral	038	sub-15	1.0	5.0	038_neutral	0.0		70.17797352785738	
8.0	48.99936248072254	pulse	1.0	t		40.0	female	west_asian	1.5777954635893354	neutral	038	sub-15	1.0	5.0	038_neutral	0.0		70.87796335531948	
8.0	49.69936076014483	pulse	1.0	t		40.0	female	west_asian	1.5777954635893354	neutral	038	sub-15	1.0	5.0	038_neutral	0.0		71.57796163474177	
8.0	50.39934092822432	pulse	1.0	t		40.0	female	west_asian	1.5777954635893354	neutral	038	sub-15	1.0	5.0	038_neutral	0.0		72.27794180282126	
9.0	51.00752797976111	face	0.0		146	23.0	male	white	2.6275368085953046	smiling	141	sub-15	1.0	5.0	141_smiling	0.0		72.88612885435805	1.24165240649927
9.0	51.09933015197521	pulse	0.0	t		23.0	male	white	2.6275368085953046	smiling	141	sub-15	1.0	5.0	141_smiling	0.0		72.97793102657215	
9.0	51.79930971634303	pulse	0.0	t		23.0	male	white	2.6275368085953046	smiling	141	sub-15	1.0	5.0	141_smiling	0.0		73.67791059093997	
9.0	52.24918038626038	fix	1.0		444	23.0	male	white	2.6275368085953046	smiling	141	sub-15	1.0	5.0	141_smiling	0.0		74.12778126085732	3.7582733369940797
9.0	52.49930799576532	pulse	1.0	t		23.0	male	white	2.6275368085953046	smiling	141	sub-15	1.0	5.0	141_smiling	0.0		74.37790887036226	
9.0	53.19928544714321	pulse	1.0	t		23.0	male	white	2.6275368085953046	smiling	141	sub-15	1.0	5.0	141_smiling	0.0		75.07788632174015	
9.0	53.89928100986435	pulse	1.0	t		23.0	male	white	2.6275368085953046	smiling	141	sub-15	1.0	5.0	141_smiling	0.0		75.7778818844613	
9.0	54.59926238536627	pulse	1.0	t		23.0	male	white	2.6275368085953046	smiling	141	sub-15	1.0	5.0	141_smiling	0.0		76.47786325996321	
9.0	55.29926126850023	pulse	1.0	t		23.0	male	white	2.6275368085953046	smiling	141	sub-15	1.0	5.0	141_smiling	0.0		77.17786214309717	
10.0	56.00745372325446	face	0.0		148	47.0	male	east_asian	2.171110226820533	smiling	024	sub-15	1.0	5.0	024_smiling	0.0		77.8860545978514	1.24998543546144
10.0	56.000085727023816	pulse	0.0	t		47.0	male	east_asian	2.171110226820533	smiling	024	sub-15	1.0	5.0	024_smiling	0.0		77.87868660162076	
10.0	56.69922522692741	pulse	0.0	t		47.0	male	east_asian	2.171110226820533	smiling	024	sub-15	1.0	5.0	024_smiling	0.0		78.57782610152435	
10.0	57.2574391587159	fix	1.0		443	47.0	male	east_asian	2.171110226820533	smiling	024	sub-15	1.0	5.0	024_smiling	0.0		79.13604003331284	3.758266394312159
10.0	57.3992162618124	pulse	1.0	t		47.0	male	east_asian	2.171110226820533	smiling	024	sub-15	1.0	5.0	024_smiling	0.0		79.27781713640934	
10.0	58.09922631360814	pulse	1.0	t		47.0	male	east_asian	2.171110226820533	smiling	024	sub-15	1.0	5.0	024_smiling	0.0		79.97782718820508	
10.0	58.79918927591143	pulse	1.0	t		47.0	male	east_asian	2.171110226820533	smiling	024	sub-15	1.0	5.0	024_smiling	0.0		80.67779015050837	
10.0	59.49918242378635	pulse	1.0	t		47.0	male	east_asian	2.171110226820533	smiling	024	sub-15	1.0	5.0	024_smiling	0.0		81.37778329838329	
10.0	60.19917526980589	pulse	1.0	t		47.0	male	east_asian	2.171110226820533	smiling	024	sub-15	1.0	5.0	024_smiling	0.0		82.07777614440283	
10.0	60.8991750585069	pulse	1.0	t		47.0	male	east_asian	2.171110226820533	smiling	024	sub-15	1.0	5.0	024_smiling	0.0		82.77777593310384	
11.0	61.015705553028056	face	0.0		147	19.0	female	white	4.298846000795861	neutral	100	sub-15	1.0	5.0	100_neutral	0.0		82.894306427625	1.2416391248480068
11.0	61.59914617091499	pulse	0.0	t		19.0	female	white	4.298846000795861	neutral	100	sub-15	1.0	5.0	100_neutral	0.0		83.47774704551193	
11.0	62.25734467787606	fix	1.0		443	19.0	female	white	4.298846000795861	neutral	100	sub-15	1.0	5.0	100_neutral	0.0		84.135945552473	3.758342763809196
11.0	62.29920572704805	pulse	1.0	t		19.0	female	white	4.298846000795861	neutral	100	sub-15	1.0	5.0	100_neutral	0.0		84.17780660164499	
11.0	62.99911375161082	pulse	1.0	t		19.0	female	white	4.298846000795861	neutral	100	sub-15	1.0	5.0	100_neutral	0.0		84.87771462620776	
11.0	63.69910206979421	pulse	1.0	t		19.0	female	white	4.298846000795861	neutral	100	sub-15	1.0	5.0	100_neutral	0.0		85.57770294439115	
11.0	64.39909280282382	pulse	1.0	t		19.0	female	white	4.298846000795861	neutral	100	sub-15	1.0	5.0	100_neutral	0.0		86.27769367742076	
11.0	65.09907810245022	pulse	1.0	t		19.0	female	white	4.298846000795861	neutral	100	sub-15	1.0	5.0	100_neutral	0.0		86.97767897704716	
11.0	65.79907155218098	pulse	1.0	t		19.0	female	white	4.298846000795861	neutral	100	sub-15	1.0	5.0	100_neutral	0.0		87.67767242677792	
12.0	66.01568744168526	face	0.0		146	31.0	female	white	2.1822522881018704	smiling	102	sub-15	1.0	5.0	102_smiling	0.0		87.8942883162822	1.2415769425697363
12.0	66.49905987036482	pulse	0.0	t		31.0	female	white	2.1822522881018704	smiling	102	sub-15	1.0	5.0	102_smiling	0.0		88.37766074496176	
12.0	67.19903611431982	pulse	0.0	t		31.0	female	white	2.1822522881018704	smiling	102	sub-15	1.0	5.0	102_smiling	0.0		89.07763698891677	
12.0	67.257264384255	fix	1.0		445	31.0	female	white	2.1822522881018704	smiling	102	sub-15	1.0	5.0	102_smiling	0.0		89.13586525885194	3.758285109366625
12.0	67.89904495869223	pulse	1.0	t		31.0	female	white	2.1822522881018704	smiling	102	sub-15	1.0	5.0	102_smiling	0.0		89.77764583328917	
12.0	68.59901758037859	pulse	1.0	t		31.0	female	white	2.1822522881018704	smiling	102	sub-15	1.0	5.0	102_smiling	0.0		90.47761845497553	
12.0	69.29900257814961	pulse	1.0	t		31.0	female	white	2.1822522881018704	smiling	102	sub-15	1.0	5.0	102_smiling	0.0		91.17760345274655	
12.0	69.99899542416915	pulse	1.0	t		31.0	female	white	2.1822522881018704	smiling	102	sub-15	1.0	5.0	102_smiling	0.0		91.8775962987661	
12.0	70.69898283678549	pulse	1.0	t		31.0	female	white	2.1822522881018704	smiling	102	sub-15	1.0	5.0	102_smiling	0.0		92.57758371138243	
13.0	71.01554949362162	face	0.0		146	19.0	male	white	2.243931555909272	smiling	130	sub-15	1.0	5.0	130_smiling	0.0		92.89415036821856	1.2416261450521233
13.0	71.39897296610343	pulse	0.0	t		19.0	male	white	2.243931555909272	smiling	130	sub-15	1.0	5.0	130_smiling	0.0		93.27757384070037	
13.0	72.09895132304837	pulse	0.0	t		19.0	male	white	2.243931555909272	smiling	130	sub-15	1.0	5.0	130_smiling	0.0		93.97755219764531	
13.0	72.25717563867374	fix	1.0		445	19.0	male	white	2.243931555909272	smiling	130	sub-15	1.0	5.0	130_smiling	0.0		94.13577651327068	3.7582676017350423
13.0	72.79894084865509	pulse	1.0	t		19.0	male	white	2.243931555909272	smiling	130	sub-15	1.0	5.0	130_smiling	0.0		94.67754172325203	
13.0	73.4989170926101	pulse	1.0	t		19.0	male	white	2.243931555909272	smiling	130	sub-15	1.0	5.0	130_smiling	0.0		95.37751796720704	
13.0	74.19893106852987	pulse	1.0	t		19.0	male	white	2.243931555909272	smiling	130	sub-15	1.0	5.0	130_smiling	0.0		96.07753194312681	
13.0	74.89890972733065	pulse	1.0	t		19.0	male	white	2.243931555909272	smiling	130	sub-15	1.0	5.0	130_smiling	0.0		96.77751060192759	
13.0	75.59891434572319	pulse	1.0	t		19.0	male	white	2.243931555909272	smiling	130	sub-15	1.0	5.0	130_smiling	0.0		97.47751522032013	
14.0	76.01544324040879	face	0.0		146	25.0	female	black	3.858336649423	smiling	126	sub-15	1.0	5.0	126_smiling	0.0		97.89404411500573	1.2416454638182586
14.0	76.29888485441916	pulse	0.0	t		25.0	female	black	3.858336649423	smiling	126	sub-15	1.0	5.0	126_smiling	0.0		98.1774857290161	
14.0	76.99888977466753	pulse	0.0	t		25.0	female	black	3.858336649423	smiling	126	sub-15	1.0	5.0	126_smiling	0.0		98.87749064926447	
14.0	77.25708870422704	fix	1.0		444	25.0	female	black	3.858336649423	smiling	126	sub-15	1.0	5.0	126_smiling	0.0		99.13568957882399	3.7666012344084265
14.0	77.69886269820972	pulse	1.0	t		25.0	female	black	3.858336649423	smiling	126	sub-15	1.0	5.0	126_smiling	0.0		99.57746357280666	
14.0	78.39884528113453	pulse	1.0	t		25.0	female	black	3.858336649423	smiling	126	sub-15	1.0	5.0	126_smiling	0.0		100.27744615573147	
14.0	79.09883601416414	pulse	1.0	t		25.0	female	black	3.858336649423	smiling	126	sub-15	1.0	5.0	126_smiling	0.0		100.97743688876108	
14.0	79.79883519915347	pulse	1.0	t		25.0	female	black	3.858336649423	smiling	126	sub-15	1.0	5.0	126_smiling	0.0		101.67743607375041	
14.0	80.49881083939727	pulse	1.0	t		25.0	female	black	3.858336649423	smiling	126	sub-15	1.0	5.0	126_smiling	0.0		102.3774117139942	
15.0	81.02368993863547	face	0.0		145	27.0	male	black	3.5523278949462798	neutral	042	sub-15	1.0	5.0	042_neutral	0.0		102.90229081323241	1.2333124348560887
15.0	81.19880277984976	pulse	0.0	t		27.0	male	black	3.5523278949462798	neutral	042	sub-15	1.0	5.0	042_neutral	0.0		103.0774036544467	
15.0	81.89878506091873	pulse	0.0	t		27.0	male	black	3.5523278949462798	neutral	042	sub-15	1.0	5.0	042_neutral	0.0		103.77738593551567	
15.0	82.25700237349156	fix	1.0		444	27.0	male	black	3.5523278949462798	neutral	042	sub-15	1.0	5.0	042_neutral	0.0		104.1356032480885	3.7665979139956107
15.0	82.5987754920925	pulse	1.0	t		27.0	male	black	3.5523278949462798	neutral	042	sub-15	1.0	5.0	042_neutral	0.0		104.47737636668944	
15.0	83.29875716945071	pulse	1.0	t		27.0	male	black	3.5523278949462798	neutral	042	sub-15	1.0	5.0	042_neutral	0.0		105.17735804404765	
15.0	83.99894773096548	pulse	1.0	t		27.0	male	black	3.5523278949462798	neutral	042	sub-15	1.0	5.0	042_neutral	0.0		105.87754860556242	
15.0	84.69893303059189	pulse	1.0	t		27.0	male	black	3.5523278949462798	neutral	042	sub-15	1.0	5.0	042_neutral	0.0		106.57753390518883	
15.0	85.39872423699171	pulse	1.0	t		27.0	male	black	3.5523278949462798	neutral	042	sub-15	1.0	5.0	042_neutral	0.0		107.27732511158865	
16.0	86.02360028748717	face	0.0		145	37.0	male	white	3.898925586947871	smiling	101	sub-15	1.0	5.0	101_smiling	0.0		107.90220116208411	1.233313038567303
16.0	86.09878349126893	pulse	0.0	t		37.0	male	white	3.898925586947871	smiling	101	sub-15	1.0	5.0	101_smiling	0.0		107.97738436586587	
16.0	86.79869815665734	pulse	0.0	t		37.0	male	white	3.898925586947871	smiling	101	sub-15	1.0	5.0	101_smiling	0.0		108.67729903125428	
16.0	87.25691332605447	fix	1.0		444	37.0	male	white	3.898925586947871	smiling	101	sub-15	1.0	5.0	101_smiling	0.0		109.13551420065141	3.758217795541441
16.0	87.49869221009976	pulse	1.0	t		37.0	male	white	3.898925586947871	smiling	101	sub-15	1.0	5.0	101_smiling	0.0		109.3772930846967	
16.0	88.19867358560214	pulse	1.0	t		37.0	male	white	3.898925586947871	smiling	101	sub-15	1.0	5.0	101_smiling	0.0		110.07727446019908	
16.0	88.89870567286471	pulse	1.0	t		37.0	male	white	3.898925586947871	smiling	101	sub-15	1.0	5.0	101_smiling	0.0		110.77730654746165	
16.0	89.5986577683625	pulse	1.0	t		37.0	male	white	3.898925586947871	smiling	101	sub-15	1.0	5.0	101_smiling	0.0		111.47725864295944	
16.0	90.29882629440999	pulse	1.0	t		37.0	male	white	3.898925586947871	smiling	101	sub-15	1.0	5.0	101_smiling	0.0		112.17742716900693	
17.0	91.01513112159591	face	0.0		146	40.0	male	black	2.408674890569041	neutral	061	sub-15	1.0	5.0	061_neutral	1.0	trustworthiness	112.89373199619286	1.2416955718672398
17.0	91.0093360955143	pulse	0.0	t		40.0	male	black	2.408674890569041	neutral	061	sub-15	1.0	5.0	061_neutral	1.0	trustworthiness	112.88793697011124	
17.0	91.69875644499689	pulse	0.0	t		40.0	male	black	2.408674890569041	neutral	061	sub-15	1.0	5.0	061_neutral	1.0	trustworthiness	113.57735731959383	
17.0	92.25682669346315	fix	1.0		177	40.0	male	black	2.408674890569041	neutral	061	sub-15	1.0	5.0	061_neutral	1.0	trustworthiness	114.1354275680601	1.5083401225715534
17.0	92.39863398213174	pulse	1.0	t		40.0	male	black	2.408674890569041	neutral	061	sub-15	1.0	5.0	061_neutral	1.0	trustworthiness	114.27723485672868	
17.0	93.0987859061147	pulse	1.0	t		40.0	male	black	2.408674890569041	neutral	061	sub-15	1.0	5.0	061_neutral	1.0	trustworthiness	114.97738678071164	
17.0	93.76516681603471	rating	2.0		293	40.0	male	black	2.408674890569041	neutral	061	sub-15	1.0	5.0	061_neutral	1.0	trustworthiness	115.64376769063165	2.4915723392700784
17.0	93.80168018929953	pulse	2.0	t		40.0	male	black	2.408674890569041	neutral	061	sub-15	1.0	5.0	061_neutral	1.0	trustworthiness	115.68028106389647	
17.0	94.50166367779184	pulse	2.0	t		40.0	male	black	2.408674890569041	neutral	061	sub-15	1.0	5.0	061_neutral	1.0	trustworthiness	116.38026455238878	
17.0	95.19867569859207	pulse	2.0	t		40.0	male	black	2.408674890569041	neutral	061	sub-15	1.0	5.0	061_neutral	1.0	trustworthiness	117.07727657318901	
17.0	95.34020256329813	response	2.0	y		40.0	male	black	2.408674890569041	neutral	061	sub-15	1.0	5.0	061_neutral	1.0	trustworthiness	117.21880343789508	
17.0	95.89858402501022	pulse	2.0	t		40.0	male	black	2.408674890569041	neutral	061	sub-15	1.0	5.0	061_neutral	1.0	trustworthiness	117.77718489960716	
17.0	96.25673915530479	fix	3.0		444	40.0	male	black	2.408674890569041	neutral	061	sub-15	1.0	5.0	061_neutral	1.0	trustworthiness	118.13534002990173	3.766615421627648
17.0	96.5985554392737	pulse	3.0	t		40.0	male	black	2.408674890569041	neutral	061	sub-15	1.0	5.0	061_neutral	1.0	trustworthiness	118.47715631387064	
17.0	97.29853922962184	pulse	3.0	t		40.0	male	black	2.408674890569041	neutral	061	sub-15	1.0	5.0	061_neutral	1.0	trustworthiness	119.17714010421878	
17.0	97.99852664223818	pulse	3.0	t		40.0	male	black	2.408674890569041	neutral	061	sub-15	1.0	5.0	061_neutral	1.0	trustworthiness	119.87712751683512	
17.0	98.6984899063973	pulse	3.0	t		40.0	male	black	2.408674890569041	neutral	061	sub-15	1.0	5.0	061_neutral	1.0	trustworthiness	120.57709078099424	
17.0	99.39850508973996	pulse	3.0	t		40.0	male	black	2.408674890569041	neutral	061	sub-15	1.0	5.0	061_neutral	1.0	trustworthiness	121.2771059643369	
18.0	100.02335457693243	face	0.0		145	27.0	male	black	3.5523278949462798	smiling	042	sub-15	1.0	5.0	042_smiling	0.0		121.90195545152937	1.2333136422785174
18.0	100.09848525781945	pulse	0.0	t		27.0	male	black	3.5523278949462798	smiling	042	sub-15	1.0	5.0	042_smiling	0.0		121.97708613241639	
18.0	100.79845214424722	pulse	0.0	t		27.0	male	black	3.5523278949462798	smiling	042	sub-15	1.0	5.0	042_smiling	0.0		122.67705301884416	
18.0	101.25666821921095	fix	1.0		444	27.0	male	black	3.5523278949462798	smiling	042	sub-15	1.0	5.0	042_smiling	0.0		123.13526909380789	3.7666012344088813
18.0	101.49844649954503	pulse	1.0	t		27.0	male	black	3.5523278949462798	smiling	042	sub-15	1.0	5.0	042_smiling	0.0		123.37704737414197	
18.0	102.19842908247028	pulse	1.0	t		27.0	male	black	3.5523278949462798	smiling	042	sub-15	1.0	5.0	042_smiling	0.0		124.07702995706723	
18.0	102.89841709879829	pulse	1.0	t		27.0	male	black	3.5523278949462798	smiling	042	sub-15	1.0	5.0	042_smiling	0.0		124.77701797339523	
18.0	103.59839817244438	pulse	1.0	t		27.0	male	black	3.5523278949462798	smiling	042	sub-15	1.0	5.0	042_smiling	0.0		125.47699904704132	
18.0	104.29838981104103	pulse	1.0	t		27.0	male	black	3.5523278949462798	smiling	042	sub-15	1.0	5.0	042_smiling	0.0		126.17699068563797	
18.0	104.99838205334936	pulse	1.0	t		27.0	male	black	3.5523278949462798	smiling	042	sub-15	1.0	5.0	042_smiling	0.0		126.8769829279463	
19.0	105.02326945361983	face	0.0		146	54.0	female	white	2.286908077994429	neutral	136	sub-15	1.0	5.0	136_neutral	1.0	dominance	126.90187032821677	1.233312434855634
19.0	105.69837157895563	pulse	0.0	t		54.0	female	white	2.286908077994429	neutral	136	sub-15	1.0	5.0	136_neutral	1.0	dominance	127.57697245355257	
19.0	106.25658188847547	fix	1.0		177	54.0	female	white	2.286908077994429	neutral	136	sub-15	1.0	5.0	136_neutral	1.0	dominance	128.1351827630724	1.499976002470703
19.0	106.39837166951247	pulse	1.0	t		54.0	female	white	2.286908077994429	neutral	136	sub-15	1.0	5.0	136_neutral	1.0	dominance	128.2769725441094	
19.0	107.09835274315901	pulse	1.0	t		54.0	female	white	2.286908077994429	neutral	136	sub-15	1.0	5.0	136_neutral	1.0	dominance	128.97695361775595	
19.0	107.75655789094617	rating	2.0		294	54.0	female	white	2.286908077994429	neutral	136	sub-15	1.0	5.0	136_neutral	1.0	dominance	129.6351587655431	2.499951854012579
19.0	107.79832415742248	pulse	2.0	t		54.0	female	white	2.286908077994429	neutral	136	sub-15	1.0	5.0	136_neutral	1.0	dominance	129.67692503201943	
19.0	108.49833994447636	pulse	2.0	t		54.0	female	white	2.286908077994429	neutral	136	sub-15	1.0	5.0	136_neutral	1.0	dominance	130.3769408190733	
19.0	109.17639844471842	response	2.0	e		54.0	female	white	2.286908077994429	neutral	136	sub-15	1.0	5.0	136_neutral	1.0	dominance	131.05499931931536	
19.0	109.19835059998331	pulse	2.0	t		54.0	female	white	2.286908077994429	neutral	136	sub-15	1.0	5.0	136_neutral	1.0	dominance	131.07695147458026	
19.0	109.89830511032642	pulse	2.0	t		54.0	female	white	2.286908077994429	neutral	136	sub-15	1.0	5.0	136_neutral	1.0	dominance	131.77690598492336	
19.0	110.25650974495875	fix	3.0		444	54.0	female	white	2.286908077994429	neutral	136	sub-15	1.0	5.0	136_neutral	1.0	dominance	132.1351106195557	3.75826518688973
19.0	110.5982937303661	pulse	3.0	t		54.0	female	white	2.286908077994429	neutral	136	sub-15	1.0	5.0	136_neutral	1.0	dominance	132.47689460496304	
19.0	111.29830317845017	pulse	3.0	t		54.0	female	white	2.286908077994429	neutral	136	sub-15	1.0	5.0	136_neutral	1.0	dominance	133.1769040530471	
19.0	111.99826614075346	pulse	3.0	t		54.0	female	white	2.286908077994429	neutral	136	sub-15	1.0	5.0	136_neutral	1.0	dominance	133.8768670153504	
19.0	112.69824419584256	pulse	3.0	t		54.0	female	white	2.286908077994429	neutral	136	sub-15	1.0	5.0	136_neutral	1.0	dominance	134.5768450704395	
19.0	113.39823160845935	pulse	3.0	t		54.0	female	white	2.286908077994429	neutral	136	sub-15	1.0	5.0	136_neutral	1.0	dominance	135.2768324830563	
20.0	114.01477493184848	face	0.0		146	40.0	male	white	1.868682849184242	neutral	172	sub-15	1.0	5.0	172_neutral	1.0	trustworthiness	135.89337580644542	1.241648482374785
20.0	114.09821449324	pulse	0.0	t		40.0	male	white	1.868682849184242	neutral	172	sub-15	1.0	5.0	172_neutral	1.0	trustworthiness	135.97681536783693	
20.0	114.79820039657807	pulse	0.0	t		40.0	male	white	1.868682849184242	neutral	172	sub-15	1.0	5.0	172_neutral	1.0	trustworthiness	136.676801271175	
20.0	115.25642341422326	fix	1.0		177	40.0	male	white	1.868682849184242	neutral	172	sub-15	1.0	5.0	172_neutral	1.0	trustworthiness	137.1350242888202	1.499976002470703
20.0	115.49820984466169	pulse	1.0	t		40.0	male	white	1.868682849184242	neutral	172	sub-15	1.0	5.0	172_neutral	1.0	trustworthiness	137.37681071925863	
20.0	116.19817371253248	pulse	1.0	t		40.0	male	white	1.868682849184242	neutral	172	sub-15	1.0	5.0	172_neutral	1.0	trustworthiness	138.07677458712942	
20.0	116.75639941669397	rating	2.0		294	40.0	male	white	1.868682849184242	neutral	172	sub-15	1.0	5.0	172_neutral	1.0	trustworthiness	138.6350002912909	2.499951854013034
20.0	116.89817470865637	pulse	2.0	t		40.0	male	white	1.868682849184242	neutral	172	sub-15	1.0	5.0	172_neutral	1.0	trustworthiness	138.7767755832533	
20.0	117.59820709777478	pulse	2.0	t		40.0	male	white	1.868682849184242	neutral	172	sub-15	1.0	5.0	172_neutral	1.0	trustworthiness	139.47680797237172	
20.0	118.29817368234671	pulse	2.0	t		40.0	male	white	1.868682849184242	neutral	172	sub-15	1.0	5.0	172_neutral	1.0	trustworthiness	140.17677455694366	
20.0	118.3814952181524	response	2.0	g		40.0	male	white	1.868682849184242	neutral	172	sub-15	1.0	5.0	172_neutral	1.0	trustworthiness	140.26009609274934	
20.0	118.99817135805779	pulse	2.0	t		40.0	male	white	1.868682849184242	neutral	172	sub-15	1.0	5.0	172_neutral	1.0	trustworthiness	140.87677223265473	
20.0	119.256351270707	fix	3.0		1185	40.0	male	white	1.868682849184242	neutral	172	sub-15	1.0	5.0	172_neutral	1.0	trustworthiness	141.13495214530394	10.016492490885867
20.0	119.69815424283843	pulse	3.0	t		40.0	male	white	1.868682849184242	neutral	172	sub-15	1.0	5.0	172_neutral	1.0	trustworthiness	141.57675511743537	
20.0	120.39814859813669	pulse	3.0	t		40.0	male	white	1.868682849184242	neutral	172	sub-15	1.0	5.0	172_neutral	1.0	trustworthiness	142.27674947273363	
20.0	121.09811910683311	pulse	3.0	t		40.0	male	white	1.868682849184242	neutral	172	sub-15	1.0	5.0	172_neutral	1.0	trustworthiness	142.97671998143005	
20.0	121.79810380274785	pulse	3.0	t		40.0	male	white	1.868682849184242	neutral	172	sub-15	1.0	5.0	172_neutral	1.0	trustworthiness	143.6767046773448	
20.0	122.4980954413445	pulse	3.0	t		40.0	male	white	1.868682849184242	neutral	172	sub-15	1.0	5.0	172_neutral	1.0	trustworthiness	144.37669631594144	
20.0	123.19806021478234	pulse	3.0	t		40.0	male	white	1.868682849184242	neutral	172	sub-15	1.0	5.0	172_neutral	1.0	trustworthiness	145.0766610893793	
20.0	123.89807388884628	pulse	3.0	t		40.0	male	white	1.868682849184242	neutral	172	sub-15	1.0	5.0	172_neutral	1.0	trustworthiness	145.77667476344322	
20.0	124.59805194393539	pulse	3.0	t		40.0	male	white	1.868682849184242	neutral	172	sub-15	1.0	5.0	172_neutral	1.0	trustworthiness	146.47665281853233	
20.0	125.29801249139337	pulse	3.0	t		40.0	male	white	1.868682849184242	neutral	172	sub-15	1.0	5.0	172_neutral	1.0	trustworthiness	147.1766133659903	
20.0	125.99801288380559	pulse	3.0	t		40.0	male	white	1.868682849184242	neutral	172	sub-15	1.0	5.0	172_neutral	1.0	trustworthiness	147.87661375840253	
20.0	126.69799456116334	pulse	3.0	t		40.0	male	white	1.868682849184242	neutral	172	sub-15	1.0	5.0	172_neutral	1.0	trustworthiness	148.57659543576028	
20.0	127.39798982202865	pulse	3.0	t		40.0	male	white	1.868682849184242	neutral	172	sub-15	1.0	5.0	172_neutral	1.0	trustworthiness	149.2765906966256	
20.0	128.09797572536672	pulse	3.0	t		40.0	male	white	1.868682849184242	neutral	172	sub-15	1.0	5.0	172_neutral	1.0	trustworthiness	149.97657659996366	
20.0	128.7979531767446	pulse	3.0	t		40.0	male	white	1.868682849184242	neutral	172	sub-15	1.0	5.0	172_neutral	1.0	trustworthiness	150.67655405134155	
21.0	129.27284376159287	face	0.0		145	23.0	male	white	2.6275368085953046	neutral	141	sub-15	1.0	5.0	141_neutral	0.0		151.1514446361898	1.2333082088757692
21.0	129.49795326730145	pulse	0.0	t		23.0	male	white	2.6275368085953046	neutral	141	sub-15	1.0	5.0	141_neutral	0.0		151.3765541418984	
21.0	130.19792407785326	pulse	0.0	t		23.0	male	white	2.6275368085953046	neutral	141	sub-15	1.0	5.0	141_neutral	0.0		152.0765249524502	
21.0	130.50615197046864	fix	1.0		444	23.0	male	white	2.6275368085953046	neutral	141	sub-15	1.0	5.0	141_neutral	0.0		152.38475284506558	3.7666063659562496
21.0	130.89792809253413	pulse	1.0	t		23.0	male	white	2.6275368085953046	neutral	141	sub-15	1.0	5.0	141_neutral	0.0		152.77652896713107	
21.0	131.5979312016484	pulse	1.0	t		23.0	male	white	2.6275368085953046	neutral	141	sub-15	1.0	5.0	141_neutral	0.0		153.47653207624535	
21.0	132.2978992954986	pulse	1.0	t		23.0	male	white	2.6275368085953046	neutral	141	sub-15	1.0	5.0	141_neutral	0.0		154.17650017009555	
21.0	132.99789817863257	pulse	1.0	t		23.0	male	white	2.6275368085953046	neutral	141	sub-15	1.0	5.0	141_neutral	0.0		154.8764990532295	
21.0	133.69788408197064	pulse	1.0	t		23.0	male	white	2.6275368085953046	neutral	141	sub-15	1.0	5.0	141_neutral	0.0		155.57648495656758	
22.0	134.27275833642489	face	0.0		145	24.0	female	black	3.0955033824114606	smiling	099	sub-15	1.0	5.0	099_smiling	0.0		156.15135921102183	1.233310925576916
22.0	134.39786425004968	pulse	0.0	t		24.0	female	black	3.0955033824114606	smiling	099	sub-15	1.0	5.0	099_smiling	0.0		156.27646512464662	
22.0	135.0978583034921	pulse	0.0	t		24.0	female	black	3.0955033824114606	smiling	099	sub-15	1.0	5.0	099_smiling	0.0		156.97645917808904	
22.0	135.5060692620018	fix	1.0		444	24.0	female	black	3.0955033824114606	smiling	099	sub-15	1.0	5.0	099_smiling	0.0		157.38467013659874	3.758290542769828
22.0	135.79785326250158	pulse	1.0	t		24.0	female	black	3.0955033824114606	smiling	099	sub-15	1.0	5.0	099_smiling	0.0		157.67645413709852	
22.0	136.497859088317	pulse	1.0	t		24.0	female	black	3.0955033824114606	smiling	099	sub-15	1.0	5.0	099_smiling	0.0		158.37645996291394	
22.0	137.1978090708244	pulse	1.0	t		24.0	female	black	3.0955033824114606	smiling	099	sub-15	1.0	5.0	099_smiling	0.0		159.07640994542135	
22.0	137.89780735024715	pulse	1.0	t		24.0	female	black	3.0955033824114606	smiling	099	sub-15	1.0	5.0	099_smiling	0.0		159.7764082248441	
22.0	138.59779657399804	pulse	1.0	t		24.0	female	black	3.0955033824114606	smiling	099	sub-15	1.0	5.0	099_smiling	0.0		160.47639744859498	
23.0	139.26435980477163	face	0.0		146	31.0	female	east_asian	3.395941106247513	neutral	087	sub-15	1.0	5.0	087_neutral	0.0		161.14296067936857	1.2416276543303866
23.0	139.2977888163059	pulse	0.0	t		31.0	female	east_asian	3.395941106247513	neutral	087	sub-15	1.0	5.0	087_neutral	0.0		161.17638969090285	
23.0	139.99776777696206	pulse	0.0	t		31.0	female	east_asian	3.395941106247513	neutral	087	sub-15	1.0	5.0	087_neutral	0.0		161.876368651559	
23.0	140.50598745910202	fix	1.0		443	31.0	female	east_asian	3.395941106247513	neutral	087	sub-15	1.0	5.0	087_neutral	0.0		162.38458833369896	3.7665964047173475
23.0	140.69775066174316	pulse	1.0	t		31.0	female	east_asian	3.395941106247513	neutral	087	sub-15	1.0	5.0	087_neutral	0.0		162.5763515363401	
23.0	141.3977323391009	pulse	1.0	t		31.0	female	east_asian	3.395941106247513	neutral	087	sub-15	1.0	5.0	087_neutral	0.0		163.27633321369785	
23.0	142.09773544821473	pulse	1.0	t		31.0	female	east_asian	3.395941106247513	neutral	087	sub-15	1.0	5.0	087_neutral	0.0		163.97633632281168	
23.0	142.79771923856288	pulse	1.0	t		31.0	female	east_asian	3.395941106247513	neutral	087	sub-15	1.0	5.0	087_neutral	0.0		164.67632011315982	
23.0	143.49771449942818	pulse	1.0	t		31.0	female	east_asian	3.395941106247513	neutral	087	sub-15	1.0	5.0	087_neutral	0.0		165.37631537402513	
23.0	144.19769466750722	pulse	1.0	t		31.0	female	east_asian	3.395941106247513	neutral	087	sub-15	1.0	5.0	087_neutral	0.0		166.07629554210416	
24.0	144.27258386381936	face	0.0		146	19.0	male	white	2.243931555909272	neutral	130	sub-15	1.0	5.0	130_neutral	0.0		166.1511847384163	1.233299756915585
24.0	144.89768449496978	pulse	0.0	t		19.0	male	white	2.243931555909272	neutral	130	sub-15	1.0	5.0	130_neutral	0.0		166.77628536956672	
24.0	145.50588362073495	fix	1.0		443	19.0	male	white	2.243931555909272	neutral	130	sub-15	1.0	5.0	130_neutral	0.0		167.3844844953319	3.7666099882249
24.0	145.597673115009	pulse	1.0	t		19.0	male	white	2.243931555909272	neutral	130	sub-15	1.0	5.0	130_neutral	0.0		167.47627398960594	
24.0	146.29765086824273	pulse	1.0	t		19.0	male	white	2.243931555909272	neutral	130	sub-15	1.0	5.0	130_neutral	0.0		168.17625174283967	
24.0	146.99764914766502	pulse	1.0	t		19.0	male	white	2.243931555909272	neutral	130	sub-15	1.0	5.0	130_neutral	0.0		168.87625002226196	
24.0	147.69765889760447	pulse	1.0	t		19.0	male	white	2.243931555909272	neutral	130	sub-15	1.0	5.0	130_neutral	0.0		169.5762597722014	
24.0	148.39761974691783	pulse	1.0	t		19.0	male	white	2.243931555909272	neutral	130	sub-15	1.0	5.0	130_neutral	0.0		170.27622062151477	
24.0	149.09760897066872	pulse	1.0	t		19.0	male	white	2.243931555909272	neutral	130	sub-15	1.0	5.0	130_neutral	0.0		170.97620984526566	
25.0	149.27249360895985	face	0.0		146	31.0	female	west_asian	2.364902506963788	smiling	006	sub-15	1.0	5.0	006_smiling	0.0		171.1510944835568	1.2416472749519016
25.0	149.7976144946283	pulse	0.0	t		31.0	female	west_asian	2.364902506963788	smiling	006	sub-15	1.0	5.0	006_smiling	0.0		171.67621536922525	
25.0	150.49761307590643	pulse	0.0	t		31.0	female	west_asian	2.364902506963788	smiling	006	sub-15	1.0	5.0	006_smiling	0.0		172.37621395050337	
25.0	150.51414088391175	fix	1.0		443	31.0	female	west_asian	2.364902506963788	smiling	006	sub-15	1.0	5.0	006_smiling	0.0		172.3927417585087	3.749936383907425
25.0	151.19758237717997	pulse	1.0	t		31.0	female	west_asian	2.364902506963788	smiling	006	sub-15	1.0	5.0	006_smiling	0.0		173.0761832517769	
25.0	151.89755922484665	pulse	1.0	t		31.0	female	west_asian	2.364902506963788	smiling	006	sub-15	1.0	5.0	006_smiling	0.0		173.7761600994436	
25.0	152.59755025973163	pulse	1.0	t		31.0	female	west_asian	2.364902506963788	smiling	006	sub-15	1.0	5.0	006_smiling	0.0		174.47615113432857	
25.0	153.29753223894522	pulse	1.0	t		31.0	female	west_asian	2.364902506963788	smiling	006	sub-15	1.0	5.0	006_smiling	0.0		175.17613311354216	
25.0	153.99752357568605	pulse	1.0	t		31.0	female	west_asian	2.364902506963788	smiling	006	sub-15	1.0	5.0	006_smiling	0.0		175.876124450283	
26.0	154.26407726781918	face	0.0		146	22.0	male	black	2.767608436132113	neutral	044	sub-15	1.0	5.0	044_neutral	0.0		176.14267814241612	1.2416418415491535
26.0	154.69751279943694	pulse	0.0	t		22.0	male	black	2.767608436132113	neutral	044	sub-15	1.0	5.0	044_neutral	0.0		176.57611367403388	
26.0	155.39749628792924	pulse	0.0	t		22.0	male	black	2.767608436132113	neutral	044	sub-15	1.0	5.0	044_neutral	0.0		177.27609716252618	
26.0	155.50571910936833	fix	1.0		444	22.0	male	black	2.767608436132113	neutral	044	sub-15	1.0	5.0	044_neutral	0.0		177.38431998396527	3.7665945935832497
26.0	156.09750362302293	pulse	1.0	t		22.0	male	black	2.767608436132113	neutral	044	sub-15	1.0	5.0	044_neutral	0.0		177.97610449761987	
26.0	156.79747262244064	pulse	1.0	t		22.0	male	black	2.767608436132113	neutral	044	sub-15	1.0	5.0	044_neutral	0.0		178.67607349703758	
26.0	157.4974639591819	pulse	1.0	t		22.0	male	black	2.767608436132113	neutral	044	sub-15	1.0	5.0	044_neutral	0.0		179.37606483377886	
26.0	158.19743778829115	pulse	1.0	t		22.0	male	black	2.767608436132113	neutral	044	sub-15	1.0	5.0	044_neutral	0.0		180.0760386628881	
26.0	158.89744059554914	pulse	1.0	t		22.0	male	black	2.767608436132113	neutral	044	sub-15	1.0	5.0	044_neutral	0.0		180.77604147014608	
27.0	159.27231370295158	face	0.0		145	21.0	male	black	2.969757262236371	smiling	137	sub-15	1.0	5.0	137_smiling	1.0	dominance	181.15091457754852	1.2333175664030023
27.0	159.59743374342452	pulse	0.0	t		21.0	male	black	2.969757262236371	smiling	137	sub-15	1.0	5.0	137_smiling	1.0	dominance	181.47603461802146	
27.0	160.2974057613992	pulse	0.0	t		21.0	male	black	2.969757262236371	smiling	137	sub-15	1.0	5.0	137_smiling	1.0	dominance	182.17600663599615	
27.0	160.50563126935458	fix	1.0		177	21.0	male	black	2.969757262236371	smiling	137	sub-15	1.0	5.0	137_smiling	1.0	dominance	182.38423214395152	1.4999741913361504
27.0	160.99741883175193	pulse	1.0	t		21.0	male	black	2.969757262236371	smiling	137	sub-15	1.0	5.0	137_smiling	1.0	dominance	182.87601970634887	
27.0	161.69739447199527	pulse	1.0	t		21.0	male	black	2.969757262236371	smiling	137	sub-15	1.0	5.0	137_smiling	1.0	dominance	183.5759953465922	
27.0	162.00560546069073	rating	2.0		295	21.0	male	black	2.969757262236371	smiling	137	sub-15	1.0	5.0	137_smiling	1.0	dominance	183.88420633528767	2.5082915238008354
27.0	162.39738188461206	pulse	2.0	t		21.0	male	black	2.969757262236371	smiling	137	sub-15	1.0	5.0	137_smiling	1.0	dominance	184.275982759209	
27.0	163.09736718423846	pulse	2.0	t		21.0	male	black	2.969757262236371	smiling	137	sub-15	1.0	5.0	137_smiling	1.0	dominance	184.9759680588354	
27.0	163.35877755678575	response	2.0	y		21.0	male	black	2.969757262236371	smiling	137	sub-15	1.0	5.0	137_smiling	1.0	dominance	185.2373784313827	
27.0	163.79734614489462	pulse	2.0	t		21.0	male	black	2.969757262236371	smiling	137	sub-15	1.0	5.0	137_smiling	1.0	dominance	185.67594701949156	
27.0	164.49734231132743	pulse	2.0	t		21.0	male	black	2.969757262236371	smiling	137	sub-15	1.0	5.0	137_smiling	1.0	dominance	186.37594318592437	
27.0	164.51389698449157	fix	3.0		443	21.0	male	black	2.969757262236371	smiling	137	sub-15	1.0	5.0	137_smiling	1.0	dominance	186.3924978590885	3.7582636776105574
27.0	165.19732579981928	pulse	3.0	t		21.0	male	black	2.969757262236371	smiling	137	sub-15	1.0	5.0	137_smiling	1.0	dominance	187.07592667441622	
27.0	165.89731502357017	pulse	3.0	t		21.0	male	black	2.969757262236371	smiling	137	sub-15	1.0	5.0	137_smiling	1.0	dominance	187.7759158981671	
27.0	166.59730032319658	pulse	3.0	t		21.0	male	black	2.969757262236371	smiling	137	sub-15	1.0	5.0	137_smiling	1.0	dominance	188.47590119779352	
27.0	167.297282604266	pulse	3.0	t		21.0	male	black	2.969757262236371	smiling	137	sub-15	1.0	5.0	137_smiling	1.0	dominance	189.17588347886294	
27.0	167.9972923542059	pulse	3.0	t		21.0	male	black	2.969757262236371	smiling	137	sub-15	1.0	5.0	137_smiling	1.0	dominance	189.87589322880285	
28.0	168.27216066210212	face	0.0		145	27.0	female	white	4.181058495821727	neutral	039	sub-15	1.0	5.0	039_neutral	0.0		190.15076153669906	1.2333127367114685
28.0	168.6972716167179	pulse	0.0	t		27.0	female	white	4.181058495821727	neutral	039	sub-15	1.0	5.0	039_neutral	0.0		190.57587249131484	
28.0	169.3972551052102	pulse	0.0	t		27.0	female	white	4.181058495821727	neutral	039	sub-15	1.0	5.0	039_neutral	0.0		191.27585597980715	
28.0	169.5054733988136	fix	1.0		444	27.0	female	white	4.181058495821727	neutral	039	sub-15	1.0	5.0	039_neutral	0.0		191.38407427341053	3.7583267654563315
28.0	170.09724070669245	pulse	1.0	t		27.0	female	white	4.181058495821727	neutral	039	sub-15	1.0	5.0	039_neutral	0.0		191.9758415812894	
28.0	170.79722842116462	pulse	1.0	t		27.0	female	white	4.181058495821727	neutral	039	sub-15	1.0	5.0	039_neutral	0.0		192.67582929576156	
28.0	171.497233341413	pulse	1.0	t		27.0	female	white	4.181058495821727	neutral	039	sub-15	1.0	5.0	039_neutral	0.0		193.37583421600993	
28.0	172.19720113340782	pulse	1.0	t		27.0	female	white	4.181058495821727	neutral	039	sub-15	1.0	5.0	039_neutral	0.0		194.07580200800476	
28.0	172.8971933757157	pulse	1.0	t		27.0	female	white	4.181058495821727	neutral	039	sub-15	1.0	5.0	039_neutral	0.0		194.77579425031263	
29.0	173.26380016426992	face	0.0		146	30.0	female	black	2.7345801830481498	smiling	062	sub-15	1.0	5.0	062_smiling	0.0		195.14240103886686	1.2415856963853003
29.0	173.59719527740663	pulse	0.0	t		30.0	female	black	2.7345801830481498	smiling	062	sub-15	1.0	5.0	062_smiling	0.0		195.47579615200357	
29.0	174.29717755847605	pulse	0.0	t		30.0	female	black	2.7345801830481498	smiling	062	sub-15	1.0	5.0	062_smiling	0.0		196.175778433073	
29.0	174.50538586065522	fix	1.0		444	30.0	female	black	2.7345801830481498	smiling	062	sub-15	1.0	5.0	062_smiling	0.0		196.38398673525217	3.7666039511104827
29.0	174.9971586321226	pulse	1.0	t		30.0	female	black	2.7345801830481498	smiling	062	sub-15	1.0	5.0	062_smiling	0.0		196.87575950671953	
29.0	175.69714574288355	pulse	1.0	t		30.0	female	black	2.7345801830481498	smiling	062	sub-15	1.0	5.0	062_smiling	0.0		197.5757466174805	
29.0	176.39713043879829	pulse	1.0	t		30.0	female	black	2.7345801830481498	smiling	062	sub-15	1.0	5.0	062_smiling	0.0		198.27573131339523	
29.0	177.0971181532709	pulse	1.0	t		30.0	female	black	2.7345801830481498	smiling	062	sub-15	1.0	5.0	062_smiling	0.0		198.97571902786785	
29.0	177.79711884753897	pulse	1.0	t		30.0	female	black	2.7345801830481498	smiling	062	sub-15	1.0	5.0	062_smiling	0.0		199.6757197221359	
30.0	178.2719898117657	face	0.0		145	22.0	female	west_asian	3.8205332272184642	smiling	066	sub-15	1.0	5.0	066_smiling	0.0		200.15059068636265	1.2333088125869835
30.0	178.49710263788666	pulse	0.0	t		22.0	female	west_asian	3.8205332272184642	smiling	066	sub-15	1.0	5.0	066_smiling	0.0		200.3757035124836	
30.0	179.19708129668743	pulse	0.0	t		22.0	female	west_asian	3.8205332272184642	smiling	066	sub-15	1.0	5.0	066_smiling	0.0		201.07568217128437	
30.0	179.5052986243527	fix	1.0		444	22.0	female	west_asian	3.8205332272184642	smiling	066	sub-15	1.0	5.0	066_smiling	0.0		201.38389949894963	3.758247981113527
30.0	179.8970729352841	pulse	1.0	t		22.0	female	west_asian	3.8205332272184642	smiling	066	sub-15	1.0	5.0	066_smiling	0.0		201.77567380988103	
30.0	180.5970579330551	pulse	1.0	t		22.0	female	west_asian	3.8205332272184642	smiling	066	sub-15	1.0	5.0	066_smiling	0.0		202.47565880765205	
30.0	181.29704594938266	pulse	1.0	t		22.0	female	west_asian	3.8205332272184642	smiling	066	sub-15	1.0	5.0	066_smiling	0.0		203.1756468239796	
30.0	181.9970327582878	pulse	1.0	t		22.0	female	west_asian	3.8205332272184642	smiling	066	sub-15	1.0	5.0	066_smiling	0.0		203.87563363288473	
30.0	182.69701835977003	pulse	1.0	t		22.0	female	west_asian	3.8205332272184642	smiling	066	sub-15	1.0	5.0	066_smiling	0.0		204.57561923436697	
31.0	183.26354660546622	face	0.0		146	34.0	male	white	2.651014723438122	smiling	121	sub-15	1.0	5.0	121_smiling	1.0	attractiveness	205.14214748006316	1.241663273305221
31.0	183.39700124455112	pulse	0.0	t		34.0	male	white	2.651014723438122	smiling	121	sub-15	1.0	5.0	121_smiling	1.0	attractiveness	205.27560211914806	
31.0	184.09699590170476	pulse	0.0	t		34.0	male	white	2.651014723438122	smiling	121	sub-15	1.0	5.0	121_smiling	1.0	attractiveness	205.9755967763017	
31.0	184.50520987877144	fix	1.0		177	34.0	male	white	2.651014723438122	smiling	121	sub-15	1.0	5.0	121_smiling	1.0	attractiveness	206.38381075336838	1.4999775117489662
31.0	184.79698754030142	pulse	1.0	t		34.0	male	white	2.651014723438122	smiling	121	sub-15	1.0	5.0	121_smiling	1.0	attractiveness	206.67558841489836	
31.0	185.49697193436077	pulse	1.0	t		34.0	male	white	2.651014723438122	smiling	121	sub-15	1.0	5.0	121_smiling	1.0	attractiveness	207.3755728089577	
31.0	186.0051873905204	rating	2.0		294	34.0	male	white	2.651014723438122	smiling	121	sub-15	1.0	5.0	121_smiling	1.0	attractiveness	207.88378826511735	2.499952759580083
31.0	186.1969614599675	pulse	2.0	t		34.0	male	white	2.651014723438122	smiling	121	sub-15	1.0	5.0	121_smiling	1.0	attractiveness	208.07556233456444	
31.0	186.89695249485248	pulse	2.0	t		34.0	male	white	2.651014723438122	smiling	121	sub-15	1.0	5.0	121_smiling	1.0	attractiveness	208.77555336944943	
31.0	187.54168069037996	response	2.0	e		34.0	male	white	2.651014723438122	smiling	121	sub-15	1.0	5.0	121_smiling	1.0	attractiveness	209.4202815649769	
31.0	187.59693085179742	pulse	2.0	t		34.0	male	white	2.651014723438122	smiling	121	sub-15	1.0	5.0	121_smiling	1.0	attractiveness	209.47553172639437	
31.0	188.2969185662696	pulse	2.0	t		34.0	male	white	2.651014723438122	smiling	121	sub-15	1.0	5.0	121_smiling	1.0	attractiveness	210.17551944086654	
31.0	188.5051401501005	fix	3.0		444	34.0	male	white	2.651014723438122	smiling	121	sub-15	1.0	5.0	121_smiling	1.0	attractiveness	210.38374102469743	3.758350008346497
31.0	188.99690990301042	pulse	3.0	t		34.0	male	white	2.651014723438122	smiling	121	sub-15	1.0	5.0	121_smiling	1.0	attractiveness	210.87551077760736	
31.0	189.69690818243316	pulse	3.0	t		34.0	male	white	2.651014723438122	smiling	121	sub-15	1.0	5.0	121_smiling	1.0	attractiveness	211.5755090570301	
31.0	190.39688412453233	pulse	3.0	t		34.0	male	white	2.651014723438122	smiling	121	sub-15	1.0	5.0	121_smiling	1.0	attractiveness	212.27548499912928	
31.0	191.0968981004521	pulse	3.0	t		34.0	male	white	2.651014723438122	smiling	121	sub-15	1.0	5.0	121_smiling	1.0	attractiveness	212.97549897504905	
31.0	191.79686408131238	pulse	3.0	t		34.0	male	white	2.651014723438122	smiling	121	sub-15	1.0	5.0	121_smiling	1.0	attractiveness	213.67546495590932	
32.0	192.26349015844698	face	0.0		146	36.0	female	white	2.7548746518105847	smiling	011	sub-15	1.0	5.0	011_smiling	0.0		214.14209103304393	1.2415757351468528
32.0	192.49684968279462	pulse	0.0	t		36.0	female	white	2.7548746518105847	smiling	011	sub-15	1.0	5.0	011_smiling	0.0		214.37545055739156	
32.0	193.19681898406816	pulse	0.0	t		36.0	female	white	2.7548746518105847	smiling	011	sub-15	1.0	5.0	011_smiling	0.0		215.0754198586651	
32.0	193.50506589359384	fix	1.0		444	36.0	female	white	2.7548746518105847	smiling	011	sub-15	1.0	5.0	011_smiling	0.0		215.38366676819078	3.7665767840958324
32.0	193.8968643529829	pulse	1.0	t		36.0	female	white	2.7548746518105847	smiling	011	sub-15	1.0	5.0	011_smiling	0.0		215.77546522757984	
32.0	194.59680950579877	pulse	1.0	t		36.0	female	white	2.7548746518105847	smiling	011	sub-15	1.0	5.0	011_smiling	0.0		216.47541038039572	
32.0	195.29679208872358	pulse	1.0	t		36.0	female	white	2.7548746518105847	smiling	011	sub-15	1.0	5.0	011_smiling	0.0		217.17539296332052	
32.0	195.9968033479422	pulse	1.0	t		36.0	female	white	2.7548746518105847	smiling	011	sub-15	1.0	5.0	011_smiling	0.0		217.87540422253915	
32.0	196.6967735547828	pulse	1.0	t		36.0	female	white	2.7548746518105847	smiling	011	sub-15	1.0	5.0	011_smiling	0.0		218.57537442937974	
33.0	197.27164267768967	face	0.0		145	27.0	female	white	4.181058495821727	smiling	039	sub-15	1.0	5.0	039_smiling	0.0		219.1502435522866	1.2333172645471677
33.0	197.39676941935932	pulse	0.0	t		27.0	female	white	4.181058495821727	smiling	039	sub-15	1.0	5.0	039_smiling	0.0		219.27537029395626	
33.0	198.0967498892942	pulse	0.0	t		27.0	female	white	4.181058495821727	smiling	039	sub-15	1.0	5.0	039_smiling	0.0		219.97535076389113	
33.0	198.50495994223684	fix	1.0		444	27.0	female	white	4.181058495821727	smiling	039	sub-15	1.0	5.0	039_smiling	0.0		220.38356081683378	3.758248282968907
33.0	198.79674152789084	pulse	1.0	t		27.0	female	white	4.181058495821727	smiling	039	sub-15	1.0	5.0	039_smiling	0.0		220.6753424024878	
33.0	199.49675731494517	pulse	1.0	t		27.0	female	white	4.181058495821727	smiling	039	sub-15	1.0	5.0	039_smiling	0.0		221.3753581895421	
33.0	200.19671152343244	pulse	1.0	t		27.0	female	white	4.181058495821727	smiling	039	sub-15	1.0	5.0	039_smiling	0.0		222.07531239802938	
33.0	200.8968018688488	pulse	1.0	t		27.0	female	white	4.181058495821727	smiling	039	sub-15	1.0	5.0	039_smiling	0.0		222.77540274344574	
33.0	201.59670506372004	pulse	1.0	t		27.0	female	white	4.181058495821727	smiling	039	sub-15	1.0	5.0	039_smiling	0.0		223.47530593831698	
34.0	202.26320822520574	face	0.0		146	28.0	female	white	5.676880222841227	smiling	124	sub-15	1.0	5.0	124_smiling	0.0		224.14180909980269	1.2416641788727247
34.0	202.29675073449016	pulse	0.0	t		28.0	female	white	5.676880222841227	smiling	124	sub-15	1.0	5.0	124_smiling	0.0		224.1753516090871	
34.0	202.99666358874447	pulse	0.0	t		28.0	female	white	5.676880222841227	smiling	124	sub-15	1.0	5.0	124_smiling	0.0		224.8752644633414	
34.0	203.50487240407847	fix	1.0		443	28.0	female	white	5.676880222841227	smiling	124	sub-15	1.0	5.0	124_smiling	0.0		225.3834732786754	3.7666048566775316
34.0	203.6966576421869	pulse	1.0	t		28.0	female	white	5.676880222841227	smiling	124	sub-15	1.0	5.0	124_smiling	0.0		225.57525851678383	
34.0	204.3966501863506	pulse	1.0	t		28.0	female	white	5.676880222841227	smiling	124	sub-15	1.0	5.0	124_smiling	0.0		226.27525106094754	
34.0	205.09662522288272	pulse	1.0	t		28.0	female	white	5.676880222841227	smiling	124	sub-15	1.0	5.0	124_smiling	0.0		226.97522609747966	
34.0	205.79661655962354	pulse	1.0	t		28.0	female	white	5.676880222841227	smiling	124	sub-15	1.0	5.0	124_smiling	0.0		227.67521743422049	
34.0	206.49663144111037	pulse	1.0	t		28.0	female	white	5.676880222841227	smiling	124	sub-15	1.0	5.0	124_smiling	0.0		228.3752323157073	
34.0	207.19658534774226	pulse	1.0	t		28.0	female	white	5.676880222841227	smiling	124	sub-15	1.0	5.0	124_smiling	0.0		229.0751862223392	
35.0	207.271477260756	face	0.0		146	20.0	male	black	3.1070433744528456	neutral	082	sub-15	1.0	5.0	082_neutral	0.0		229.15007813535294	1.2333042847512843
35.0	207.89657909932885	pulse	0.0	t		20.0	male	black	3.1070433744528456	neutral	082	sub-15	1.0	5.0	082_neutral	0.0		229.7751799739258	
35.0	208.50478154550729	fix	1.0		443	20.0	male	black	3.1070433744528456	neutral	082	sub-15	1.0	5.0	082_neutral	0.0		230.38338242010423	3.7582549237949934
35.0	208.59657043606967	pulse	1.0	t		20.0	male	black	3.1070433744528456	neutral	082	sub-15	1.0	5.0	082_neutral	0.0		230.4751713106666	
35.0	209.29655513198486	pulse	1.0	t		20.0	male	black	3.1070433744528456	neutral	082	sub-15	1.0	5.0	082_neutral	0.0		231.1751560065818	
35.0	209.99653982790005	pulse	1.0	t		20.0	male	black	3.1070433744528456	neutral	082	sub-15	1.0	5.0	082_neutral	0.0		231.875140702497	
35.0	210.69653961660106	pulse	1.0	t		20.0	male	black	3.1070433744528456	neutral	082	sub-15	1.0	5.0	082_neutral	0.0		232.575140491198	
35.0	211.39651616241144	pulse	1.0	t		20.0	male	black	3.1070433744528456	neutral	082	sub-15	1.0	5.0	082_neutral	0.0		233.27511703700839	
35.0	212.0965032731724	pulse	1.0	t		20.0	male	black	3.1070433744528456	neutral	082	sub-15	1.0	5.0	082_neutral	0.0		233.97510414776934	
36.0	212.26303646930228	face	0.0		147	40.0	male	black	2.408674890569041	smiling	061	sub-15	1.0	5.0	061_smiling	0.0		234.14163734389922	1.2500026412376428
36.0	212.7964958173361	pulse	0.0	t		40.0	male	black	2.408674890569041	smiling	061	sub-15	1.0	5.0	061_smiling	0.0		234.67509669193305	
36.0	213.49648655036572	pulse	0.0	t		40.0	male	black	2.408674890569041	smiling	061	sub-15	1.0	5.0	061_smiling	0.0		235.37508742496266	
36.0	213.51303911053992	fix	1.0		443	40.0	male	black	2.408674890569041	smiling	061	sub-15	1.0	5.0	061_smiling	0.0		235.39163998513686	3.749929441225504
36.0	214.19646792586764	pulse	1.0	t		40.0	male	black	2.408674890569041	smiling	061	sub-15	1.0	5.0	061_smiling	0.0		236.07506880046458	
36.0	214.89645413106155	pulse	1.0	t		40.0	male	black	2.408674890569041	smiling	061	sub-15	1.0	5.0	061_smiling	0.0		236.7750550056585	
36.0	215.59644969378223	pulse	1.0	t		40.0	male	black	2.408674890569041	smiling	061	sub-15	1.0	5.0	061_smiling	0.0		237.47505056837917	
36.0	216.29642623959307	pulse	1.0	t		40.0	male	black	2.408674890569041	smiling	061	sub-15	1.0	5.0	061_smiling	0.0		238.17502711419002	
36.0	216.99641848190095	pulse	1.0	t		40.0	male	black	2.408674890569041	smiling	061	sub-15	1.0	5.0	061_smiling	0.0		238.8750193564979	
37.0	217.26296855176543	face	0.0		146	26.0	male	white	2.7966573816155993	neutral	117	sub-15	1.0	5.0	117_neutral	0.0		239.14156942636237	1.241647576808191
37.0	217.6964113279205	pulse	0.0	t		26.0	male	white	2.7966573816155993	neutral	117	sub-15	1.0	5.0	117_neutral	0.0		239.57501220251743	
37.0	218.39638968486543	pulse	0.0	t		26.0	male	white	2.7966573816155993	neutral	117	sub-15	1.0	5.0	117_neutral	0.0		240.27499055946237	
37.0	218.50461612857362	fix	1.0		444	26.0	male	white	2.7966573816155993	neutral	117	sub-15	1.0	5.0	117_neutral	0.0		240.38321700317056	3.758346989789061
37.0	219.09638434201906	pulse	1.0	t		26.0	male	white	2.7966573816155993	neutral	117	sub-15	1.0	5.0	117_neutral	0.0		240.974985216616	
37.0	219.79638352700886	pulse	1.0	t		26.0	male	white	2.7966573816155993	neutral	117	sub-15	1.0	5.0	117_neutral	0.0		241.6749844016058	
37.0	220.49636309137668	pulse	1.0	t		26.0	male	white	2.7966573816155993	neutral	117	sub-15	1.0	5.0	117_neutral	0.0		242.37496396597362	
37.0	221.1963420520333	pulse	1.0	t		26.0	male	white	2.7966573816155993	neutral	117	sub-15	1.0	5.0	117_neutral	0.0		243.07494292663023	
37.0	221.89633218135123	pulse	1.0	t		26.0	male	white	2.7966573816155993	neutral	117	sub-15	1.0	5.0	117_neutral	0.0		243.77493305594817	
38.0	222.26296311836268	face	0.0		146	37.0	male	white	3.898925586947871	neutral	101	sub-15	1.0	5.0	101_neutral	0.0		244.14156399295962	1.241563057206804
38.0	222.59632623479365	pulse	0.0	t		37.0	male	white	3.898925586947871	neutral	101	sub-15	1.0	5.0	101_neutral	0.0		244.4749271093906	
38.0	223.29630730843974	pulse	0.0	t		37.0	male	white	3.898925586947871	neutral	101	sub-15	1.0	5.0	101_neutral	0.0		245.17490818303668	
38.0	223.50452617556948	fix	1.0		444	37.0	male	white	3.898925586947871	neutral	101	sub-15	1.0	5.0	101_neutral	0.0		245.38312705016642	3.758264583178061
38.0	223.9962989470364	pulse	1.0	t		37.0	male	white	3.898925586947871	neutral	101	sub-15	1.0	5.0	101_neutral	0.0		245.87489982163333	
38.0	224.69628303924037	pulse	1.0	t		37.0	male	white	3.898925586947871	neutral	101	sub-15	1.0	5.0	101_neutral	0.0		246.5748839138373	
38.0	225.39628252608554	pulse	1.0	t		37.0	male	white	3.898925586947871	neutral	101	sub-15	1.0	5.0	101_neutral	0.0		247.27488340068248	
38.0	226.0962629960204	pulse	1.0	t		37.0	male	white	3.898925586947871	neutral	101	sub-15	1.0	5.0	101_neutral	0.0		247.97486387061736	
38.0	226.796244975234	pulse	1.0	t		37.0	male	white	3.898925586947871	neutral	101	sub-15	1.0	5.0	101_neutral	0.0		248.67484584983094	
39.0	227.26279075874754	face	0.0		146	20.0	female	white	3.9502586549940313	neutral	091	sub-15	1.0	5.0	091_neutral	0.0		249.14139163334448	1.2416394267033866
39.0	227.49623902867643	pulse	0.0	t		20.0	female	white	3.9502586549940313	neutral	091	sub-15	1.0	5.0	091_neutral	0.0		249.37483990327337	
39.0	228.196240628512	pulse	0.0	t		20.0	female	white	3.9502586549940313	neutral	091	sub-15	1.0	5.0	091_neutral	0.0		250.07484150310893	
39.0	228.50443018545093	fix	1.0		444	20.0	female	white	3.9502586549940313	neutral	091	sub-15	1.0	5.0	091_neutral	0.0		250.38303106004787	3.7499312523600565
39.0	228.89621898545693	pulse	1.0	t		20.0	female	white	3.9502586549940313	neutral	091	sub-15	1.0	5.0	091_neutral	0.0		250.77481986005387	
39.0	229.59620428508333	pulse	1.0	t		20.0	female	white	3.9502586549940313	neutral	091	sub-15	1.0	5.0	091_neutral	0.0		251.47480515968027	
39.0	230.29619109398845	pulse	1.0	t		20.0	female	white	3.9502586549940313	neutral	091	sub-15	1.0	5.0	091_neutral	0.0		252.1747919685854	
39.0	230.99617578990365	pulse	1.0	t		20.0	female	white	3.9502586549940313	neutral	091	sub-15	1.0	5.0	091_neutral	0.0		252.8747766645006	
39.0	231.69616108953005	pulse	1.0	t		20.0	female	white	3.9502586549940313	neutral	091	sub-15	1.0	5.0	091_neutral	0.0		253.574761964127	
40.0	232.25436143781099	fix	0.0		720													254.13296231240793	5.9999064247272145
40.0	232.3961545392608	pulse	0.0	t														254.27475541385775	
40.0	233.09613591476318	pulse	0.0	t														254.97473678936012	
40.0	233.79612483665824	pulse	0.0	t														255.67472571125518	
40.0	234.4961137585533	pulse	0.0	t														256.37471463315023	
40.0	235.196094530344	pulse	0.0	t														257.07469540494094	
40.0	235.89608918749764	pulse	0.0	t														257.7746900620946	
40.0	236.59607599640276	pulse	0.0	t														258.4746768709997	
40.0	237.29605616448225	pulse	0.0	t														259.1746570390792	
40.0	237.9960568587503	pulse	0.0	t														259.87465773334725	
