trial_nr	onset	event_type	phase	response	nr_frames	face_age	face_sex	face_eth	attractiveness	expression	face_id	sub_id	ses	run	trial_type	catch	rating_type	onset_abs	duration
-1.0	0.05983655720274328	fix	0.0		713													22.70442740837825	5.95792402955658
-1.0	0.7012989757131436	pulse	0.0	t														23.34588982688865	
-1.0	1.4012821623496166	pulse	0.0	t														24.045873013525124	
-1.0	2.101279838060691	pulse	0.0	t														24.7458706892362	
-1.0	2.801259100572679	pulse	0.0	t														25.445849951748187	
-1.0	3.501243192776201	pulse	0.0	t														26.14583404395171	
-1.0	4.201242075910159	pulse	0.0	t														26.845832927085667	
-1.0	4.901215301308184	pulse	0.0	t														27.545806152483692	
-1.0	5.601221428978988	pulse	0.0	t														28.245812280154496	
0.0	6.017760586759323	face	0.0		144	19.0	male	white	2.243931555909272	smiling	130	sub-15	1.0	3.0	130_smiling	0.0		28.66235143793483	1.2333112274327505
0.0	6.301203408192578	pulse	0.0	t		19.0	male	white	2.243931555909272	smiling	130	sub-15	1.0	3.0	130_smiling	0.0		28.945794259368085	
0.0	7.001215874833633	pulse	0.0	t		19.0	male	white	2.243931555909272	smiling	130	sub-15	1.0	3.0	130_smiling	0.0		29.64580672600914	
0.0	7.251071814192073	fix	1.0		445	19.0	male	white	2.243931555909272	smiling	130	sub-15	1.0	3.0	130_smiling	0.0		29.89566266536758	3.758244962556546
0.0	7.701180648271475	pulse	1.0	t		19.0	male	white	2.243931555909272	smiling	130	sub-15	1.0	3.0	130_smiling	0.0		30.345771499446982	
0.0	8.401162627485064	pulse	1.0	t		19.0	male	white	2.243931555909272	smiling	130	sub-15	1.0	3.0	130_smiling	0.0		31.045753478660572	
0.0	9.101150040101857	pulse	1.0	t		19.0	male	white	2.243931555909272	smiling	130	sub-15	1.0	3.0	130_smiling	0.0		31.745740891277364	
0.0	9.80113715086236	pulse	1.0	t		19.0	male	white	2.243931555909272	smiling	130	sub-15	1.0	3.0	130_smiling	0.0		32.44572800203787	
0.0	10.501123657911648	pulse	1.0	t		19.0	male	white	2.243931555909272	smiling	130	sub-15	1.0	3.0	130_smiling	0.0		33.145714509087156	
1.0	11.00931677674862	face	0.0		146	25.0	female	black	3.858336649423	smiling	126	sub-15	1.0	3.0	126_smiling	0.0		33.65390762792413	1.2416659900068225
1.0	11.201125559603042	pulse	0.0	t		25.0	female	black	3.858336649423	smiling	126	sub-15	1.0	3.0	126_smiling	0.0		33.84571641077855	
1.0	11.901118405622583	pulse	0.0	t		25.0	female	black	3.858336649423	smiling	126	sub-15	1.0	3.0	126_smiling	0.0		34.54570925679809	
1.0	12.250982766755442	fix	1.0		445	25.0	female	black	3.858336649423	smiling	126	sub-15	1.0	3.0	126_smiling	0.0		34.89557361793095	3.76656712471231
1.0	12.601091027308485	pulse	1.0	t		25.0	female	black	3.858336649423	smiling	126	sub-15	1.0	3.0	126_smiling	0.0		35.24568187848399	
1.0	13.301085684462578	pulse	1.0	t		25.0	female	black	3.858336649423	smiling	126	sub-15	1.0	3.0	126_smiling	0.0		35.945676535638086	
1.0	14.001062230272964	pulse	1.0	t		25.0	female	black	3.858336649423	smiling	126	sub-15	1.0	3.0	126_smiling	0.0		36.64565308144847	
1.0	14.701060207839873	pulse	1.0	t		25.0	female	black	3.858336649423	smiling	126	sub-15	1.0	3.0	126_smiling	0.0		37.34565105901538	
1.0	15.401038262928978	pulse	1.0	t		25.0	female	black	3.858336649423	smiling	126	sub-15	1.0	3.0	126_smiling	0.0		38.045629114104486	
2.0	16.017549891467752	face	0.0		145	54.0	female	white	2.286908077994429	smiling	136	sub-15	1.0	3.0	136_smiling	0.0		38.66214074264326	1.2333477519750886
2.0	16.10103382565012	pulse	0.0	t		54.0	female	white	2.286908077994429	smiling	136	sub-15	1.0	3.0	136_smiling	0.0		38.74562467682563	
2.0	16.80101852156531	pulse	0.0	t		54.0	female	white	2.286908077994429	smiling	136	sub-15	1.0	3.0	136_smiling	0.0		39.44560937274082	
2.0	17.25089764344284	fix	1.0		444	54.0	female	white	2.286908077994429	smiling	136	sub-15	1.0	3.0	136_smiling	0.0		39.89548849461835	3.75825764049614
2.0	17.501017102843434	pulse	1.0	t		54.0	female	white	2.286908077994429	smiling	136	sub-15	1.0	3.0	136_smiling	0.0		40.14560795401894	
2.0	18.201003911748558	pulse	1.0	t		54.0	female	white	2.286908077994429	smiling	136	sub-15	1.0	3.0	136_smiling	0.0		40.845594762924065	
2.0	18.90097925013606	pulse	1.0	t		54.0	female	white	2.286908077994429	smiling	136	sub-15	1.0	3.0	136_smiling	0.0		41.54557010131157	
2.0	19.60096394605125	pulse	1.0	t		54.0	female	white	2.286908077994429	smiling	136	sub-15	1.0	3.0	136_smiling	0.0		42.24555479722676	
2.0	20.30095769763784	pulse	1.0	t		54.0	female	white	2.286908077994429	smiling	136	sub-15	1.0	3.0	136_smiling	0.0		42.94554854881335	
3.0	21.00915528393898	face	0.0		147	26.0	male	white	2.7966573816155993	neutral	117	sub-15	1.0	3.0	117_neutral	0.0		43.65374613511449	1.2416409359825593
3.0	21.00205292074088	pulse	0.0	t		26.0	male	white	2.7966573816155993	neutral	117	sub-15	1.0	3.0	117_neutral	0.0		43.64664377191639	
3.0	21.700915618950603	pulse	0.0	t		26.0	male	white	2.7966573816155993	neutral	117	sub-15	1.0	3.0	117_neutral	0.0		44.34550647012611	
3.0	22.25079621992154	fix	1.0		443	26.0	male	white	2.7966573816155993	neutral	117	sub-15	1.0	3.0	117_neutral	0.0		44.89538707109705	3.7666105919356596
3.0	22.40092325590058	pulse	1.0	t		26.0	male	white	2.7966573816155993	neutral	117	sub-15	1.0	3.0	117_neutral	0.0		45.04551410707609	
3.0	23.100905838825383	pulse	1.0	t		26.0	male	white	2.7966573816155993	neutral	117	sub-15	1.0	3.0	117_neutral	0.0		45.74549669000089	
3.0	23.800890534740574	pulse	1.0	t		26.0	male	white	2.7966573816155993	neutral	117	sub-15	1.0	3.0	117_neutral	0.0		46.44548138591608	
3.0	24.500877645501532	pulse	1.0	t		26.0	male	white	2.7966573816155993	neutral	117	sub-15	1.0	3.0	117_neutral	0.0		47.14546849667704	
3.0	25.200872000799336	pulse	1.0	t		26.0	male	white	2.7966573816155993	neutral	117	sub-15	1.0	3.0	117_neutral	0.0		47.845462851974844	
3.0	25.900895636102177	pulse	1.0	t		26.0	male	white	2.7966573816155993	neutral	117	sub-15	1.0	3.0	117_neutral	0.0		48.545486487277685	
4.0	26.0174068118572	face	0.0		146	28.0	female	white	5.676880222841227	neutral	124	sub-15	1.0	3.0	124_neutral	0.0		48.66199766303271	1.233314547846021
4.0	26.600851353868165	pulse	0.0	t		28.0	female	white	5.676880222841227	neutral	124	sub-15	1.0	3.0	124_neutral	0.0		49.24544220504367	
4.0	27.25072135970322	fix	1.0		443	28.0	female	white	5.676880222841227	neutral	124	sub-15	1.0	3.0	124_neutral	0.0		49.89531221087873	3.7582648850338956
4.0	27.30087166875819	pulse	1.0	t		28.0	female	white	5.676880222841227	neutral	124	sub-15	1.0	3.0	124_neutral	0.0		49.9454625199337	
4.0	28.00082557539008	pulse	1.0	t		28.0	female	white	5.676880222841227	neutral	124	sub-15	1.0	3.0	124_neutral	0.0		50.64541642656559	
4.0	28.700800008210535	pulse	1.0	t		28.0	female	white	5.676880222841227	neutral	124	sub-15	1.0	3.0	124_neutral	0.0		51.34539085938604	
4.0	29.40080221175731	pulse	1.0	t		28.0	female	white	5.676880222841227	neutral	124	sub-15	1.0	3.0	124_neutral	0.0		52.04539306293282	
4.0	30.100788718806598	pulse	1.0	t		28.0	female	white	5.676880222841227	neutral	124	sub-15	1.0	3.0	124_neutral	0.0		52.745379569982106	
4.0	30.80076828317442	pulse	1.0	t		28.0	female	white	5.676880222841227	neutral	124	sub-15	1.0	3.0	124_neutral	0.0		53.44535913434993	
5.0	31.008986244737116	face	0.0		146	37.0	male	white	3.898925586947871	neutral	101	sub-15	1.0	3.0	101_neutral	0.0		53.653577095912624	1.2416496897976685
5.0	31.500759318059863	pulse	0.0	t		37.0	male	white	3.898925586947871	neutral	101	sub-15	1.0	3.0	101_neutral	0.0		54.14535016923537	
5.0	32.200750654800686	pulse	0.0	t		37.0	male	white	3.898925586947871	neutral	101	sub-15	1.0	3.0	101_neutral	0.0		54.845341505976194	
5.0	32.250635934534785	fix	1.0		445	37.0	male	white	3.898925586947871	neutral	101	sub-15	1.0	3.0	101_neutral	0.0		54.89522678571029	3.7665954991502986
5.0	32.90075376391451	pulse	1.0	t		37.0	male	white	3.898925586947871	neutral	101	sub-15	1.0	3.0	101_neutral	0.0		55.545344615090016	
5.0	33.60071883920773	pulse	1.0	t		37.0	male	white	3.898925586947871	neutral	101	sub-15	1.0	3.0	101_neutral	0.0		56.24530969038324	
5.0	34.300708364814454	pulse	1.0	t		37.0	male	white	3.898925586947871	neutral	101	sub-15	1.0	3.0	101_neutral	0.0		56.94529921598996	
5.0	35.00070000341111	pulse	1.0	t		37.0	male	white	3.898925586947871	neutral	101	sub-15	1.0	3.0	101_neutral	0.0		57.64529085458662	
5.0	35.700678662211885	pulse	1.0	t		37.0	male	white	3.898925586947871	neutral	101	sub-15	1.0	3.0	101_neutral	0.0		58.34526951338739	
6.0	36.01723143368508	face	0.0		145	24.0	female	east_asian	2.9076800636689217	neutral	034	sub-15	1.0	3.0	034_neutral	1.0	trustworthiness	58.66182228486059	1.2333184719700512
6.0	36.40067573421129	pulse	0.0	t		24.0	female	east_asian	2.9076800636689217	neutral	034	sub-15	1.0	3.0	034_neutral	1.0	trustworthiness	59.0452665853868	
6.0	37.10066224126058	pulse	0.0	t		24.0	female	east_asian	2.9076800636689217	neutral	034	sub-15	1.0	3.0	034_neutral	1.0	trustworthiness	59.74525309243609	
6.0	37.250549905655134	fix	1.0		177	24.0	female	east_asian	2.9076800636689217	neutral	034	sub-15	1.0	3.0	034_neutral	1.0	trustworthiness	59.89514075683064	1.5083211056612527
6.0	37.80066293552909	pulse	1.0	t		24.0	female	east_asian	2.9076800636689217	neutral	034	sub-15	1.0	3.0	034_neutral	1.0	trustworthiness	60.4452537867046	
6.0	38.50064431103101	pulse	1.0	t		24.0	female	east_asian	2.9076800636689217	neutral	034	sub-15	1.0	3.0	034_neutral	1.0	trustworthiness	61.14523516220652	
6.0	38.75887101131639	rating	2.0		294	24.0	female	east_asian	2.9076800636689217	neutral	034	sub-15	1.0	3.0	034_neutral	1.0	trustworthiness	61.403461862491895	2.4915979970060107
6.0	39.200629610657415	pulse	2.0	t		24.0	female	east_asian	2.9076800636689217	neutral	034	sub-15	1.0	3.0	034_neutral	1.0	trustworthiness	61.84522046183292	
6.0	39.900615815851324	pulse	2.0	t		24.0	female	east_asian	2.9076800636689217	neutral	034	sub-15	1.0	3.0	034_neutral	1.0	trustworthiness	62.54520666702683	
6.0	40.142272448330914	response	2.0	w		24.0	female	east_asian	2.9076800636689217	neutral	034	sub-15	1.0	3.0	034_neutral	1.0	trustworthiness	62.78686329950642	
6.0	40.60059024867178	pulse	2.0	t		24.0	female	east_asian	2.9076800636689217	neutral	034	sub-15	1.0	3.0	034_neutral	1.0	trustworthiness	63.24518109984729	
6.0	41.2504690083224	fix	3.0		443	24.0	female	east_asian	2.9076800636689217	neutral	034	sub-15	1.0	3.0	034_neutral	1.0	trustworthiness	63.895059859497906	3.7666054603892007
6.0	41.30058369840299	pulse	3.0	t		24.0	female	east_asian	2.9076800636689217	neutral	034	sub-15	1.0	3.0	034_neutral	1.0	trustworthiness	63.945174549578496	
6.0	42.00057744998958	pulse	3.0	t		24.0	female	east_asian	2.9076800636689217	neutral	034	sub-15	1.0	3.0	034_neutral	1.0	trustworthiness	64.64516830116509	
6.0	42.70056063662605	pulse	3.0	t		24.0	female	east_asian	2.9076800636689217	neutral	034	sub-15	1.0	3.0	034_neutral	1.0	trustworthiness	65.34515148780156	
6.0	43.40055318078976	pulse	3.0	t		24.0	female	east_asian	2.9076800636689217	neutral	034	sub-15	1.0	3.0	034_neutral	1.0	trustworthiness	66.04514403196526	
6.0	44.10053576371456	pulse	3.0	t		24.0	female	east_asian	2.9076800636689217	neutral	034	sub-15	1.0	3.0	034_neutral	1.0	trustworthiness	66.74512661489007	
6.0	44.80052710045538	pulse	3.0	t		24.0	female	east_asian	2.9076800636689217	neutral	034	sub-15	1.0	3.0	034_neutral	1.0	trustworthiness	67.44511795163089	
7.0	45.0170744687116	face	0.0		145	31.0	male	west_asian	1.9538400318344609	neutral	070	sub-15	1.0	3.0	070_neutral	0.0		67.6616653198871	1.233307001452431
7.0	45.500518135340826	pulse	0.0	t		31.0	male	west_asian	1.9538400318344609	neutral	070	sub-15	1.0	3.0	070_neutral	0.0		68.14510898651633	
7.0	46.20049890713153	pulse	0.0	t		31.0	male	west_asian	1.9538400318344609	neutral	070	sub-15	1.0	3.0	070_neutral	0.0		68.84508975830704	
7.0	46.25038147016403	fix	1.0		445	31.0	male	west_asian	1.9538400318344609	neutral	070	sub-15	1.0	3.0	070_neutral	0.0		68.89497232133954	3.7582727332824106
7.0	46.90049628098677	pulse	1.0	t		31.0	male	west_asian	1.9538400318344609	neutral	070	sub-15	1.0	3.0	070_neutral	0.0		69.54508713216228	
7.0	47.60047614721043	pulse	1.0	t		31.0	male	west_asian	1.9538400318344609	neutral	070	sub-15	1.0	3.0	070_neutral	0.0		70.24506699838594	
7.0	48.30046748395125	pulse	1.0	t		31.0	male	west_asian	1.9538400318344609	neutral	070	sub-15	1.0	3.0	070_neutral	0.0		70.94505833512676	
7.0	49.000454292856375	pulse	1.0	t		31.0	male	west_asian	1.9538400318344609	neutral	070	sub-15	1.0	3.0	070_neutral	0.0		71.64504514403188	
7.0	49.70042993309971	pulse	1.0	t		31.0	male	west_asian	1.9538400318344609	neutral	070	sub-15	1.0	3.0	070_neutral	0.0		72.34502078427522	
8.0	50.00865420344644	face	0.0		146	20.0	female	white	3.9502586549940313	smiling	091	sub-15	1.0	3.0	091_smiling	0.0		72.65324505462195	1.2416433508278715
8.0	50.40042972180072	pulse	0.0	t		20.0	female	white	3.9502586549940313	smiling	091	sub-15	1.0	3.0	091_smiling	0.0		73.04502057297623	
8.0	51.100418643695775	pulse	0.0	t		20.0	female	white	3.9502586549940313	smiling	091	sub-15	1.0	3.0	091_smiling	0.0		73.74500949487128	
8.0	51.25029755427431	fix	1.0		444	20.0	female	white	3.9502586549940313	smiling	091	sub-15	1.0	3.0	091_smiling	0.0		73.89488840544982	3.758346084222012
8.0	51.800404848889684	pulse	1.0	t		20.0	female	white	3.9502586549940313	smiling	091	sub-15	1.0	3.0	091_smiling	0.0		74.44499570006519	
8.0	52.500393167073526	pulse	1.0	t		20.0	female	white	3.9502586549940313	smiling	091	sub-15	1.0	3.0	091_smiling	0.0		75.14498401824903	
8.0	53.20038148525691	pulse	1.0	t		20.0	female	white	3.9502586549940313	smiling	091	sub-15	1.0	3.0	091_smiling	0.0		75.84497233643242	
8.0	53.90037463313229	pulse	1.0	t		20.0	female	white	3.9502586549940313	smiling	091	sub-15	1.0	3.0	091_smiling	0.0		76.5449654843078	
8.0	54.60035540492299	pulse	1.0	t		20.0	female	white	3.9502586549940313	smiling	091	sub-15	1.0	3.0	091_smiling	0.0		77.2449462560985	
9.0	55.00864363849632	face	0.0		146	26.0	female	white	4.854755272582572	neutral	027	sub-15	1.0	3.0	027_neutral	1.0	dominance	77.65323448967183	1.2415672831871234
9.0	55.3003361767137	pulse	0.0	t		26.0	female	white	4.854755272582572	neutral	027	sub-15	1.0	3.0	027_neutral	1.0	dominance	77.94492702788921	
9.0	56.000317854071454	pulse	0.0	t		26.0	female	white	4.854755272582572	neutral	027	sub-15	1.0	3.0	027_neutral	1.0	dominance	78.64490870524696	
9.0	56.25021092168345	fix	1.0		177	26.0	female	white	4.854755272582572	neutral	027	sub-15	1.0	3.0	027_neutral	1.0	dominance	78.89480177285895	1.4999796247388986
9.0	56.70031311493676	pulse	1.0	t		26.0	female	white	4.854755272582572	neutral	027	sub-15	1.0	3.0	027_neutral	1.0	dominance	79.34490396611227	
9.0	57.400308073946235	pulse	1.0	t		26.0	female	white	4.854755272582572	neutral	027	sub-15	1.0	3.0	027_neutral	1.0	dominance	80.04489892512174	
9.0	57.750190546422346	rating	2.0		294	26.0	female	white	4.854755272582572	neutral	027	sub-15	1.0	3.0	027_neutral	1.0	dominance	80.39478139759785	2.499956381848733
9.0	58.10029880697584	pulse	2.0	t		26.0	female	white	4.854755272582572	neutral	027	sub-15	1.0	3.0	027_neutral	1.0	dominance	80.74488965815135	
9.0	58.80029074742788	pulse	2.0	t		26.0	female	white	4.854755272582572	neutral	027	sub-15	1.0	3.0	027_neutral	1.0	dominance	81.44488159860339	
9.0	59.1866887061592	response	2.0	w		26.0	female	white	4.854755272582572	neutral	027	sub-15	1.0	3.0	027_neutral	1.0	dominance	81.83127955733471	
9.0	59.50026246354719	pulse	2.0	t		26.0	female	white	4.854755272582572	neutral	027	sub-15	1.0	3.0	027_neutral	1.0	dominance	82.1448533147227	
9.0	60.20025923369121	pulse	2.0	t		26.0	female	white	4.854755272582572	neutral	027	sub-15	1.0	3.0	027_neutral	1.0	dominance	82.84485008486672	
9.0	60.25014692827108	fix	3.0		444	26.0	female	white	4.854755272582572	neutral	027	sub-15	1.0	3.0	027_neutral	1.0	dominance	82.89473777944659	3.758258244207809
9.0	60.90025087228787	pulse	3.0	t		26.0	female	white	4.854755272582572	neutral	027	sub-15	1.0	3.0	027_neutral	1.0	dominance	83.54484172346338	
9.0	61.60023375706851	pulse	3.0	t		26.0	female	white	4.854755272582572	neutral	027	sub-15	1.0	3.0	027_neutral	1.0	dominance	84.24482460824402	
9.0	62.30023143277958	pulse	3.0	t		26.0	female	white	4.854755272582572	neutral	027	sub-15	1.0	3.0	027_neutral	1.0	dominance	84.94482228395509	
9.0	63.000202847043056	pulse	3.0	t		26.0	female	white	4.854755272582572	neutral	027	sub-15	1.0	3.0	027_neutral	1.0	dominance	85.64479369821856	
9.0	63.70018633553491	pulse	3.0	t		26.0	female	white	4.854755272582572	neutral	027	sub-15	1.0	3.0	027_neutral	1.0	dominance	86.34477718671042	
10.0	64.00840517247889	face	0.0		146	27.0	female	white	3.504576203740549	smiling	144	sub-15	1.0	3.0	144_smiling	0.0		86.6529960236544	1.241655425056706
10.0	64.40018582238054	pulse	0.0	t		27.0	female	white	3.504576203740549	smiling	144	sub-15	1.0	3.0	144_smiling	0.0		87.04477667355604	
10.0	65.10018802592731	pulse	0.0	t		27.0	female	white	3.504576203740549	smiling	144	sub-15	1.0	3.0	144_smiling	0.0		87.74477887710282	
10.0	65.2500605975356	fix	1.0		445	27.0	female	white	3.504576203740549	smiling	144	sub-15	1.0	3.0	144_smiling	0.0		87.8946514487111	3.7582887316352753
10.0	65.80016215689193	pulse	1.0	t		27.0	female	white	3.504576203740549	smiling	144	sub-15	1.0	3.0	144_smiling	0.0		88.44475300806744	
10.0	66.50016375672749	pulse	1.0	t		27.0	female	white	3.504576203740549	smiling	144	sub-15	1.0	3.0	144_smiling	0.0		89.144754607903	
10.0	67.20013547284634	pulse	1.0	t		27.0	female	white	3.504576203740549	smiling	144	sub-15	1.0	3.0	144_smiling	0.0		89.84472632402185	
10.0	67.90013043185627	pulse	1.0	t		27.0	female	white	3.504576203740549	smiling	144	sub-15	1.0	3.0	144_smiling	0.0		90.54472128303178	
10.0	68.60010939251242	pulse	1.0	t		27.0	female	white	3.504576203740549	smiling	144	sub-15	1.0	3.0	144_smiling	0.0		91.24470024368793	
11.0	69.00834932917087	face	0.0		146	22.0	male	black	2.767608436132113	smiling	044	sub-15	1.0	3.0	044_smiling	0.0		91.65294018034638	1.241623126495142
11.0	69.3001016348203	pulse	0.0	t		22.0	male	black	2.767608436132113	smiling	044	sub-15	1.0	3.0	044_smiling	0.0		91.9446924859958	
11.0	70.0000896511483	pulse	0.0	t		22.0	male	black	2.767608436132113	smiling	044	sub-15	1.0	3.0	044_smiling	0.0		92.64468050232381	
11.0	70.24997245566601	fix	1.0		444	22.0	male	black	2.767608436132113	smiling	044	sub-15	1.0	3.0	044_smiling	0.0		92.89456330684152	3.7665967065727273
11.0	70.70007615819804	pulse	1.0	t		22.0	male	black	2.767608436132113	smiling	044	sub-15	1.0	3.0	044_smiling	0.0		93.34466700937355	
11.0	71.40006025040157	pulse	1.0	t		22.0	male	black	2.767608436132113	smiling	044	sub-15	1.0	3.0	044_smiling	0.0		94.04465110157707	
11.0	72.10004977600829	pulse	1.0	t		22.0	male	black	2.767608436132113	smiling	044	sub-15	1.0	3.0	044_smiling	0.0		94.7446406271838	
11.0	72.8000323589331	pulse	1.0	t		22.0	male	black	2.767608436132113	smiling	044	sub-15	1.0	3.0	044_smiling	0.0		95.4446232101086	
11.0	73.5000221863952	pulse	1.0	t		22.0	male	black	2.767608436132113	smiling	044	sub-15	1.0	3.0	044_smiling	0.0		96.1446130375707	
12.0	74.01656916223874	face	0.0		145	19.0	male	white	2.243931555909272	neutral	130	sub-15	1.0	3.0	130_neutral	0.0		96.66116001341425	1.2333157552689045
12.0	74.20001805097218	pulse	0.0	t		19.0	male	white	2.243931555909272	neutral	130	sub-15	1.0	3.0	130_neutral	0.0		96.84460890214768	
12.0	74.90001361369286	pulse	0.0	t		19.0	male	white	2.243931555909272	neutral	130	sub-15	1.0	3.0	130_neutral	0.0		97.54460446486837	
12.0	75.24988491750764	fix	1.0		444	19.0	male	white	2.243931555909272	neutral	130	sub-15	1.0	3.0	130_neutral	0.0		97.89447576868315	3.758244962556091
12.0	75.60000947826984	pulse	1.0	t		19.0	male	white	2.243931555909272	neutral	130	sub-15	1.0	3.0	130_neutral	0.0		98.24460032944535	
12.0	76.300000211299	pulse	1.0	t		19.0	male	white	2.243931555909272	neutral	130	sub-15	1.0	3.0	130_neutral	0.0		98.9445910624745	
12.0	76.99996498473683	pulse	1.0	t		19.0	male	white	2.243931555909272	neutral	130	sub-15	1.0	3.0	130_neutral	0.0		99.64455583591234	
12.0	77.69994666209459	pulse	1.0	t		19.0	male	white	2.243931555909272	neutral	130	sub-15	1.0	3.0	130_neutral	0.0		100.3445375132701	
12.0	78.3999446396615	pulse	1.0	t		19.0	male	white	2.243931555909272	neutral	130	sub-15	1.0	3.0	130_neutral	0.0		101.044535490837	
13.0	79.00812988006373	face	0.0		146	20.0	male	black	3.1070433744528456	smiling	082	sub-15	1.0	3.0	082_smiling	0.0		101.65272073123924	1.2416678011409203
13.0	79.09992239289477	pulse	0.0	t		20.0	male	black	3.1070433744528456	smiling	082	sub-15	1.0	3.0	082_smiling	0.0		101.74451324407028	
13.0	79.79990225911843	pulse	0.0	t		20.0	male	black	3.1070433744528456	smiling	082	sub-15	1.0	3.0	082_smiling	0.0		102.44449311029393	
13.0	80.24979768120465	fix	1.0		444	20.0	male	black	3.1070433744528456	smiling	082	sub-15	1.0	3.0	082_smiling	0.0		102.89438853238016	3.766585839767231
13.0	80.49991653689403	pulse	1.0	t		20.0	male	black	3.1070433744528456	smiling	082	sub-15	1.0	3.0	082_smiling	0.0		103.14450738806954	
13.0	81.19988493260007	pulse	1.0	t		20.0	male	black	3.1070433744528456	smiling	082	sub-15	1.0	3.0	082_smiling	0.0		103.84447578377558	
13.0	81.89987989160954	pulse	1.0	t		20.0	male	black	3.1070433744528456	smiling	082	sub-15	1.0	3.0	082_smiling	0.0		104.54447074278505	
13.0	82.59986911536043	pulse	1.0	t		20.0	male	black	3.1070433744528456	smiling	082	sub-15	1.0	3.0	082_smiling	0.0		105.24445996653594	
13.0	83.29985682983306	pulse	1.0	t		20.0	male	black	3.1070433744528456	smiling	082	sub-15	1.0	3.0	082_smiling	0.0		105.94444768100857	
14.0	84.01638352097189	face	0.0		145	21.0	male	east_asian/white	3.501790688420215	smiling	036	sub-15	1.0	3.0	036_smiling	1.0	trustworthiness	106.6609743721474	1.233325414651972
14.0	84.00279790065406	pulse	0.0	t		21.0	male	east_asian/white	3.501790688420215	smiling	036	sub-15	1.0	3.0	036_smiling	1.0	trustworthiness	106.64738875182957	
14.0	84.69984342743919	pulse	0.0	t		21.0	male	east_asian/white	3.501790688420215	smiling	036	sub-15	1.0	3.0	036_smiling	1.0	trustworthiness	107.3444342786147	
14.0	85.24970893562386	fix	1.0		177	21.0	male	east_asian/white	3.501790688420215	smiling	036	sub-15	1.0	3.0	036_smiling	1.0	trustworthiness	107.89429978679937	1.499976908037297
14.0	85.39982208623951	pulse	1.0	t		21.0	male	east_asian/white	3.501790688420215	smiling	036	sub-15	1.0	3.0	036_smiling	1.0	trustworthiness	108.04441293741502	
14.0	86.09980648029887	pulse	1.0	t		21.0	male	east_asian/white	3.501790688420215	smiling	036	sub-15	1.0	3.0	036_smiling	1.0	trustworthiness	108.74439733147437	
14.0	86.74968584366115	rating	2.0		294	21.0	male	east_asian/white	3.501790688420215	smiling	036	sub-15	1.0	3.0	036_smiling	1.0	trustworthiness	109.39427669483666	2.499952759580083
14.0	86.79979872260719	pulse	2.0	t		21.0	male	east_asian/white	3.501790688420215	smiling	036	sub-15	1.0	3.0	036_smiling	1.0	trustworthiness	109.4443895737827	
14.0	87.49978522965648	pulse	2.0	t		21.0	male	east_asian/white	3.501790688420215	smiling	036	sub-15	1.0	3.0	036_smiling	1.0	trustworthiness	110.14437608083199	
14.0	88.19144504671385	response	2.0	g		21.0	male	east_asian/white	3.501790688420215	smiling	036	sub-15	1.0	3.0	036_smiling	1.0	trustworthiness	110.83603589788936	
14.0	88.20251832188751	pulse	2.0	t		21.0	male	east_asian/white	3.501790688420215	smiling	036	sub-15	1.0	3.0	036_smiling	1.0	trustworthiness	110.84710917306302	
14.0	88.89975552705391	pulse	2.0	t		21.0	male	east_asian/white	3.501790688420215	smiling	036	sub-15	1.0	3.0	036_smiling	1.0	trustworthiness	111.54434637822942	
14.0	89.24963860324124	fix	3.0		444	21.0	male	east_asian/white	3.501790688420215	smiling	036	sub-15	1.0	3.0	036_smiling	1.0	trustworthiness	111.89422945441675	3.7583771753611472
14.0	89.59974233595904	pulse	3.0	t		21.0	male	east_asian/white	3.501790688420215	smiling	036	sub-15	1.0	3.0	036_smiling	1.0	trustworthiness	112.24433318713454	
14.0	90.29971978733693	pulse	3.0	t		21.0	male	east_asian/white	3.501790688420215	smiling	036	sub-15	1.0	3.0	036_smiling	1.0	trustworthiness	112.94431063851243	
14.0	90.99972440572901	pulse	3.0	t		21.0	male	east_asian/white	3.501790688420215	smiling	036	sub-15	1.0	3.0	036_smiling	1.0	trustworthiness	113.64431525690452	
14.0	91.69970819607715	pulse	3.0	t		21.0	male	east_asian/white	3.501790688420215	smiling	036	sub-15	1.0	3.0	036_smiling	1.0	trustworthiness	114.34429904725266	
14.0	92.39971522931546	pulse	3.0	t		21.0	male	east_asian/white	3.501790688420215	smiling	036	sub-15	1.0	3.0	036_smiling	1.0	trustworthiness	115.04430608049097	
15.0	93.00801577860238	face	0.0		146	20.0	male	black	3.1070433744528456	neutral	082	sub-15	1.0	3.0	082_neutral	0.0		115.65260662977789	1.2415331734905521
15.0	93.09968785100182	pulse	0.0	t		20.0	male	black	3.1070433744528456	neutral	082	sub-15	1.0	3.0	082_neutral	0.0		115.74427870217733	
15.0	93.79966771722547	pulse	0.0	t		20.0	male	black	3.1070433744528456	neutral	082	sub-15	1.0	3.0	082_neutral	0.0		116.44425856840098	
15.0	94.24954895209294	fix	1.0		444	20.0	male	black	3.1070433744528456	neutral	082	sub-15	1.0	3.0	082_neutral	0.0		116.89413980326844	3.766597008428562
15.0	94.49966418551321	pulse	1.0	t		20.0	male	black	3.1070433744528456	neutral	082	sub-15	1.0	3.0	082_neutral	0.0		117.14425503668872	
15.0	95.19965008885129	pulse	1.0	t		20.0	male	black	3.1070433744528456	neutral	082	sub-15	1.0	3.0	082_neutral	0.0		117.8442409400268	
15.0	95.89964233115961	pulse	1.0	t		20.0	male	black	3.1070433744528456	neutral	082	sub-15	1.0	3.0	082_neutral	0.0		118.54423318233512	
15.0	96.59962400851737	pulse	1.0	t		20.0	male	black	3.1070433744528456	neutral	082	sub-15	1.0	3.0	082_neutral	0.0		119.24421485969287	
15.0	97.29961957123805	pulse	1.0	t		20.0	male	black	3.1070433744528456	neutral	082	sub-15	1.0	3.0	082_neutral	0.0		119.94421042241356	
16.0	98.0161459605215	face	0.0		146	40.0	male	black	2.408674890569041	smiling	061	sub-15	1.0	3.0	061_smiling	0.0		120.660736811697	1.2333217923833217
16.0	98.00290355015522	pulse	0.0	t		40.0	male	black	2.408674890569041	smiling	061	sub-15	1.0	3.0	061_smiling	0.0		120.64749440133073	
16.0	98.69958926492427	pulse	0.0	t		40.0	male	black	2.408674890569041	smiling	061	sub-15	1.0	3.0	061_smiling	0.0		121.34418011609978	
16.0	99.24946775290482	fix	1.0		443	40.0	male	black	2.408674890569041	smiling	061	sub-15	1.0	3.0	061_smiling	0.0		121.89405860408033	3.766595197294464
16.0	99.39957728125228	pulse	1.0	t		40.0	male	black	2.408674890569041	smiling	061	sub-15	1.0	3.0	061_smiling	0.0		122.04416813242779	
16.0	100.09956258087868	pulse	1.0	t		40.0	male	black	2.408674890569041	smiling	061	sub-15	1.0	3.0	061_smiling	0.0		122.74415343205419	
16.0	100.7995493897838	pulse	1.0	t		40.0	male	black	2.408674890569041	smiling	061	sub-15	1.0	3.0	061_smiling	0.0		123.44414024095931	
16.0	101.4995386135347	pulse	1.0	t		40.0	male	black	2.408674890569041	smiling	061	sub-15	1.0	3.0	061_smiling	0.0		124.1441294647102	
16.0	102.1995284409968	pulse	1.0	t		40.0	male	black	2.408674890569041	smiling	061	sub-15	1.0	3.0	061_smiling	0.0		124.84411929217231	
16.0	102.89951313691199	pulse	1.0	t		40.0	male	black	2.408674890569041	smiling	061	sub-15	1.0	3.0	061_smiling	0.0		125.5441039880875	
17.0	103.01606295019928	face	0.0		146	24.0	female	east_asian	4.409868682849185	smiling	030	sub-15	1.0	3.0	030_smiling	0.0		125.66065380137479	1.2333169626913332
17.0	103.59950386994115	pulse	0.0	t		24.0	female	east_asian	4.409868682849185	smiling	030	sub-15	1.0	3.0	030_smiling	0.0		126.24409472111665	
17.0	104.24937991289062	fix	1.0		443	24.0	female	east_asian	4.409868682849185	smiling	030	sub-15	1.0	3.0	030_smiling	0.0		126.89397076406613	3.7582633757551775
17.0	104.29948162317487	pulse	1.0	t		24.0	female	east_asian	4.409868682849185	smiling	030	sub-15	1.0	3.0	030_smiling	0.0		126.94407247435038	
17.0	104.99947718589601	pulse	1.0	t		24.0	female	east_asian	4.409868682849185	smiling	030	sub-15	1.0	3.0	030_smiling	0.0		127.64406803707152	
17.0	105.6994609762437	pulse	1.0	t		24.0	female	east_asian	4.409868682849185	smiling	030	sub-15	1.0	3.0	030_smiling	0.0		128.3440518274192	
17.0	106.39945140741747	pulse	1.0	t		24.0	female	east_asian	4.409868682849185	smiling	030	sub-15	1.0	3.0	030_smiling	0.0		129.04404225859298	
17.0	107.09942946250658	pulse	1.0	t		24.0	female	east_asian	4.409868682849185	smiling	030	sub-15	1.0	3.0	030_smiling	0.0		129.74402031368209	
17.0	107.79942713821765	pulse	1.0	t		24.0	female	east_asian	4.409868682849185	smiling	030	sub-15	1.0	3.0	030_smiling	0.0		130.44401798939316	
18.0	108.0076432886458	face	0.0		146	20.0	male	black	2.609629924393156	neutral	043	sub-15	1.0	3.0	043_neutral	0.0		130.6522341398213	1.2416484823752398
18.0	108.49943719001294	pulse	0.0	t		20.0	male	black	2.609629924393156	neutral	043	sub-15	1.0	3.0	043_neutral	0.0		131.14402804118845	
18.0	109.19941494324667	pulse	0.0	t		20.0	male	black	2.609629924393156	neutral	043	sub-15	1.0	3.0	043_neutral	0.0		131.84400579442217	
18.0	109.24929177102103	fix	1.0		445	20.0	male	black	2.609629924393156	neutral	043	sub-15	1.0	3.0	043_neutral	0.0		131.89388262219654	3.758261564620625
18.0	109.89939450761449	pulse	1.0	t		20.0	male	black	2.609629924393156	neutral	043	sub-15	1.0	3.0	043_neutral	0.0		132.54398535879	
18.0	110.59938282579833	pulse	1.0	t		20.0	male	black	2.609629924393156	neutral	043	sub-15	1.0	3.0	043_neutral	0.0		133.24397367697384	
18.0	111.29937295511627	pulse	1.0	t		20.0	male	black	2.609629924393156	neutral	043	sub-15	1.0	3.0	043_neutral	0.0		133.94396380629178	
18.0	111.99935493432986	pulse	1.0	t		20.0	male	black	2.609629924393156	neutral	043	sub-15	1.0	3.0	043_neutral	0.0		134.64394578550537	
18.0	112.69933932838921	pulse	1.0	t		20.0	male	black	2.609629924393156	neutral	043	sub-15	1.0	3.0	043_neutral	0.0		135.34393017956472	
19.0	113.00755333564166	face	0.0		146	26.0	male	white	2.7966573816155993	smiling	117	sub-15	1.0	3.0	117_smiling	0.0		135.65214418681717	1.241649991653503
19.0	113.39934002265727	pulse	0.0	t		26.0	male	white	2.7966573816155993	smiling	117	sub-15	1.0	3.0	117_smiling	0.0		136.04393087383278	
19.0	114.09931747403516	pulse	0.0	t		26.0	male	white	2.7966573816155993	smiling	117	sub-15	1.0	3.0	117_smiling	0.0		136.74390832521067	
19.0	114.24920332729516	fix	1.0		444	26.0	male	white	2.7966573816155993	smiling	117	sub-15	1.0	3.0	117_smiling	0.0		136.89379417847067	3.758342763809196
19.0	114.79930549036317	pulse	1.0	t		26.0	male	white	2.7966573816155993	smiling	117	sub-15	1.0	3.0	117_smiling	0.0		137.44389634153868	
19.0	115.49929320483534	pulse	1.0	t		26.0	male	white	2.7966573816155993	smiling	117	sub-15	1.0	3.0	117_smiling	0.0		138.14388405601085	
19.0	116.1992830322979	pulse	1.0	t		26.0	male	white	2.7966573816155993	smiling	117	sub-15	1.0	3.0	117_smiling	0.0		138.8438738834734	
19.0	116.89927044491424	pulse	1.0	t		26.0	male	white	2.7966573816155993	smiling	117	sub-15	1.0	3.0	117_smiling	0.0		139.54386129608974	
19.0	117.59925997052096	pulse	1.0	t		26.0	male	white	2.7966573816155993	smiling	117	sub-15	1.0	3.0	117_smiling	0.0		140.24385082169647	
20.0	118.00754609110436	face	0.0		147	27.0	male	black	3.5523278949462798	neutral	042	sub-15	1.0	3.0	042_neutral	1.0	attractiveness	140.65213694227987	1.249904538129158
20.0	118.29925855179908	pulse	0.0	t		27.0	male	black	3.5523278949462798	neutral	042	sub-15	1.0	3.0	042_neutral	1.0	attractiveness	140.9438494029746	
20.0	118.99923238090832	pulse	0.0	t		27.0	male	black	3.5523278949462798	neutral	042	sub-15	1.0	3.0	042_neutral	1.0	attractiveness	141.64382323208383	
20.0	119.25745062923352	fix	1.0		177	27.0	male	black	3.5523278949462798	neutral	042	sub-15	1.0	3.0	042_neutral	1.0	attractiveness	141.90204148040903	1.4999856618533158
20.0	119.69922220837043	pulse	1.0	t		27.0	male	black	3.5523278949462798	neutral	042	sub-15	1.0	3.0	042_neutral	1.0	attractiveness	142.34381305954594	
20.0	120.39920871541972	pulse	1.0	t		27.0	male	black	3.5523278949462798	neutral	042	sub-15	1.0	3.0	042_neutral	1.0	attractiveness	143.04379956659523	
20.0	120.75743629108683	rating	2.0		294	27.0	male	black	3.5523278949462798	neutral	042	sub-15	1.0	3.0	042_neutral	1.0	attractiveness	143.40202714226234	2.4999467224656655
20.0	121.09921273010104	pulse	2.0	t		27.0	male	black	3.5523278949462798	neutral	042	sub-15	1.0	3.0	042_neutral	1.0	attractiveness	143.74380358127655	
20.0	121.799199840862	pulse	2.0	t		27.0	male	black	3.5523278949462798	neutral	042	sub-15	1.0	3.0	042_neutral	1.0	attractiveness	144.4437906920375	
20.0	122.4689322548229	response	2.0	b		27.0	male	black	3.5523278949462798	neutral	042	sub-15	1.0	3.0	042_neutral	1.0	attractiveness	145.1135231059984	
20.0	122.4991634068765	pulse	2.0	t		27.0	male	black	3.5523278949462798	neutral	042	sub-15	1.0	3.0	042_neutral	1.0	attractiveness	145.143754258052	
20.0	123.19915746031893	pulse	2.0	t		27.0	male	black	3.5523278949462798	neutral	042	sub-15	1.0	3.0	042_neutral	1.0	attractiveness	145.84374831149444	
20.0	123.2573830135525	fix	3.0		1185	27.0	male	black	3.5523278949462798	neutral	042	sub-15	1.0	3.0	042_neutral	1.0	attractiveness	145.901973864728	10.016486755627739
20.0	123.89915091004968	pulse	3.0	t		27.0	male	black	3.5523278949462798	neutral	042	sub-15	1.0	3.0	042_neutral	1.0	attractiveness	146.5437417612252	
20.0	124.59911840018913	pulse	3.0	t		27.0	male	black	3.5523278949462798	neutral	042	sub-15	1.0	3.0	042_neutral	1.0	attractiveness	147.24370925136463	
20.0	125.29914354477023	pulse	3.0	t		27.0	male	black	3.5523278949462798	neutral	042	sub-15	1.0	3.0	042_neutral	1.0	attractiveness	147.94373439594574	
20.0	125.9991312592424	pulse	3.0	t		27.0	male	black	3.5523278949462798	neutral	042	sub-15	1.0	3.0	042_neutral	1.0	attractiveness	148.6437221104179	
20.0	126.69909995680473	pulse	3.0	t		27.0	male	black	3.5523278949462798	neutral	042	sub-15	1.0	3.0	042_neutral	1.0	attractiveness	149.34369080798024	
20.0	127.39911031045585	pulse	3.0	t		27.0	male	black	3.5523278949462798	neutral	042	sub-15	1.0	3.0	042_neutral	1.0	attractiveness	150.04370116163136	
20.0	128.099077498739	pulse	3.0	t		27.0	male	black	3.5523278949462798	neutral	042	sub-15	1.0	3.0	042_neutral	1.0	attractiveness	150.74366834991451	
20.0	128.79906128908715	pulse	3.0	t		27.0	male	black	3.5523278949462798	neutral	042	sub-15	1.0	3.0	042_neutral	1.0	attractiveness	151.44365214026266	
20.0	129.49904357015657	pulse	3.0	t		27.0	male	black	3.5523278949462798	neutral	042	sub-15	1.0	3.0	042_neutral	1.0	attractiveness	152.14363442133208	
20.0	130.19903913287726	pulse	3.0	t		27.0	male	black	3.5523278949462798	neutral	042	sub-15	1.0	3.0	042_neutral	1.0	attractiveness	152.84362998405277	
20.0	130.89902443250367	pulse	3.0	t		27.0	male	black	3.5523278949462798	neutral	042	sub-15	1.0	3.0	042_neutral	1.0	attractiveness	153.54361528367917	
20.0	131.59901063769757	pulse	3.0	t		27.0	male	black	3.5523278949462798	neutral	042	sub-15	1.0	3.0	042_neutral	1.0	attractiveness	154.24360148887308	
20.0	132.29900227629423	pulse	3.0	t		27.0	male	black	3.5523278949462798	neutral	042	sub-15	1.0	3.0	042_neutral	1.0	attractiveness	154.94359312746974	
20.0	132.99899240561217	pulse	3.0	t		27.0	male	black	3.5523278949462798	neutral	042	sub-15	1.0	3.0	042_neutral	1.0	attractiveness	155.64358325678768	
21.0	133.27386976918024	face	0.0		145	27.0	female	white	4.181058495821727	smiling	039	sub-15	1.0	3.0	039_smiling	0.0		155.91846062035575	1.2333157552684497
21.0	133.69897559224864	pulse	0.0	t		27.0	female	white	4.181058495821727	smiling	039	sub-15	1.0	3.0	039_smiling	0.0		156.34356644342415	
21.0	134.3989672308453	pulse	0.0	t		27.0	female	white	4.181058495821727	smiling	039	sub-15	1.0	3.0	039_smiling	0.0		157.0435580820208	
21.0	134.5071855244487	fix	1.0		444	27.0	female	white	4.181058495821727	smiling	039	sub-15	1.0	3.0	039_smiling	0.0		157.1517763756242	3.758261262765245
21.0	135.0989543416058	pulse	1.0	t		27.0	female	white	4.181058495821727	smiling	039	sub-15	1.0	3.0	039_smiling	0.0		157.7435451927813	
21.0	135.79895443216265	pulse	1.0	t		27.0	female	white	4.181058495821727	smiling	039	sub-15	1.0	3.0	039_smiling	0.0		158.44354528333815	
21.0	136.49892946869477	pulse	1.0	t		27.0	female	white	4.181058495821727	smiling	039	sub-15	1.0	3.0	039_smiling	0.0		159.14352031987028	
21.0	137.19891476832117	pulse	1.0	t		27.0	female	white	4.181058495821727	smiling	039	sub-15	1.0	3.0	039_smiling	0.0		159.84350561949668	
21.0	137.8989042939279	pulse	1.0	t		27.0	female	white	4.181058495821727	smiling	039	sub-15	1.0	3.0	039_smiling	0.0		160.5434951451034	
22.0	138.26544678721393	face	0.0		146	28.0	male	east_asian	1.5563072025467568	smiling	005	sub-15	1.0	3.0	005_smiling	0.0		160.91003763838944	1.2416518027880556
22.0	138.59889412139	pulse	0.0	t		28.0	male	east_asian	1.5563072025467568	smiling	005	sub-15	1.0	3.0	005_smiling	0.0		161.2434849725655	
22.0	139.29887459132533	pulse	0.0	t		28.0	male	east_asian	1.5563072025467568	smiling	005	sub-15	1.0	3.0	005_smiling	0.0		161.94346544250084	
22.0	139.507098590002	fix	1.0		444	28.0	male	east_asian	1.5563072025467568	smiling	005	sub-15	1.0	3.0	005_smiling	0.0		162.1516894411775	3.75825371637211
22.0	139.99887709672748	pulse	1.0	t		28.0	male	east_asian	1.5563072025467568	smiling	005	sub-15	1.0	3.0	005_smiling	0.0		162.643467947903	
22.0	140.69885183140423	pulse	1.0	t		28.0	male	east_asian	1.5563072025467568	smiling	005	sub-15	1.0	3.0	005_smiling	0.0		163.34344268257973	
22.0	141.39886882588098	pulse	1.0	t		28.0	male	east_asian	1.5563072025467568	smiling	005	sub-15	1.0	3.0	005_smiling	0.0		164.0434596770565	
22.0	142.09883027890555	pulse	1.0	t		28.0	male	east_asian	1.5563072025467568	smiling	005	sub-15	1.0	3.0	005_smiling	0.0		164.74342113008106	
22.0	142.79883338801983	pulse	1.0	t		28.0	male	east_asian	1.5563072025467568	smiling	005	sub-15	1.0	3.0	005_smiling	0.0		165.44342423919534	
23.0	143.2653523063741	face	0.0		146	19.0	male	white	3.2522881018702745	neutral	018	sub-15	1.0	3.0	018_neutral	0.0		165.9099431575496	1.2416596510365707
23.0	143.49880842455195	pulse	0.0	t		19.0	male	white	3.2522881018702745	neutral	018	sub-15	1.0	3.0	018_neutral	0.0		166.14339927572746	
23.0	144.19879523345662	pulse	0.0	t		19.0	male	white	3.2522881018702745	neutral	018	sub-15	1.0	3.0	018_neutral	0.0		166.84338608463213	
23.0	144.50701195741067	fix	1.0		444	19.0	male	white	3.2522881018702745	neutral	018	sub-15	1.0	3.0	018_neutral	0.0		167.15160280858618	3.758272431426576
23.0	144.89879502215763	pulse	1.0	t		19.0	male	white	3.2522881018702745	neutral	018	sub-15	1.0	3.0	018_neutral	0.0		167.54338587333314	
23.0	145.5987703605456	pulse	1.0	t		19.0	male	white	3.2522881018702745	neutral	018	sub-15	1.0	3.0	018_neutral	0.0		168.2433612117211	
23.0	146.2987610935752	pulse	1.0	t		19.0	male	white	3.2522881018702745	neutral	018	sub-15	1.0	3.0	018_neutral	0.0		168.9433519447507	
23.0	146.9987328096945	pulse	1.0	t		19.0	male	white	3.2522881018702745	neutral	018	sub-15	1.0	3.0	018_neutral	0.0		169.64332366087	
23.0	147.69872324086782	pulse	1.0	t		19.0	male	white	3.2522881018702745	neutral	018	sub-15	1.0	3.0	018_neutral	0.0		170.34331409204333	
24.0	148.26528438883724	face	0.0		146	25.0	female	west_asian	2.6756864305610826	neutral	064	sub-15	1.0	3.0	064_neutral	0.0		170.90987524001275	1.2416388229921722
24.0	148.3987308778178	pulse	0.0	t		25.0	female	west_asian	2.6756864305610826	neutral	064	sub-15	1.0	3.0	064_neutral	0.0		171.0433217289933	
24.0	149.0987071217728	pulse	0.0	t		25.0	female	west_asian	2.6756864305610826	neutral	064	sub-15	1.0	3.0	064_neutral	0.0		171.7432979729483	
24.0	149.50692321182942	fix	1.0		444	25.0	female	west_asian	2.6756864305610826	neutral	064	sub-15	1.0	3.0	064_neutral	0.0		172.15151406300492	3.766597612140231
24.0	149.7987014770706	pulse	1.0	t		25.0	female	west_asian	2.6756864305610826	neutral	064	sub-15	1.0	3.0	064_neutral	0.0		172.44329232824612	
24.0	150.49867379690113	pulse	1.0	t		25.0	female	west_asian	2.6756864305610826	neutral	064	sub-15	1.0	3.0	064_neutral	0.0		173.14326464807664	
24.0	151.19867026518932	pulse	1.0	t		25.0	female	west_asian	2.6756864305610826	neutral	064	sub-15	1.0	3.0	064_neutral	0.0		173.84326111636483	
24.0	151.89865828151733	pulse	1.0	t		25.0	female	west_asian	2.6756864305610826	neutral	064	sub-15	1.0	3.0	064_neutral	0.0		174.54324913269284	
24.0	152.59864358114373	pulse	1.0	t		25.0	female	west_asian	2.6756864305610826	neutral	064	sub-15	1.0	3.0	064_neutral	0.0		175.24323443231924	
25.0	153.27352082396965	face	0.0		145	22.0	female	white	4.614007162753682	smiling	009	sub-15	1.0	3.0	009_smiling	0.0		175.91811167514516	1.2333151515572354
25.0	153.29865212366076	pulse	0.0	t		22.0	female	white	4.614007162753682	smiling	009	sub-15	1.0	3.0	009_smiling	0.0		175.94324297483627	
25.0	153.99862233050135	pulse	0.0	t		22.0	female	white	4.614007162753682	smiling	009	sub-15	1.0	3.0	009_smiling	0.0		176.64321318167686	
25.0	154.50683597552688	fix	1.0		443	22.0	female	white	4.614007162753682	smiling	009	sub-15	1.0	3.0	009_smiling	0.0		177.1514268267024	3.758341254530478
25.0	154.69861095054057	pulse	1.0	t		22.0	female	white	4.614007162753682	smiling	009	sub-15	1.0	3.0	009_smiling	0.0		177.34320180171608	
25.0	155.3985974575903	pulse	1.0	t		22.0	female	white	4.614007162753682	smiling	009	sub-15	1.0	3.0	009_smiling	0.0		178.04318830876582	
25.0	156.09858637948537	pulse	1.0	t		22.0	female	white	4.614007162753682	smiling	009	sub-15	1.0	3.0	009_smiling	0.0		178.74317723066088	
25.0	156.79857349024633	pulse	1.0	t		22.0	female	white	4.614007162753682	smiling	009	sub-15	1.0	3.0	009_smiling	0.0		179.44316434142183	
25.0	157.498557280594	pulse	1.0	t		22.0	female	white	4.614007162753682	smiling	009	sub-15	1.0	3.0	009_smiling	0.0		180.14314813176952	
25.0	158.19855405073804	pulse	1.0	t		22.0	female	white	4.614007162753682	smiling	009	sub-15	1.0	3.0	009_smiling	0.0		180.84314490191355	
26.0	158.26517723005736	face	0.0		147	40.0	male	black	2.408674890569041	neutral	061	sub-15	1.0	3.0	061_neutral	0.0		180.90976808123287	1.2415745277239694
26.0	158.89852878541433	pulse	0.0	t		40.0	male	black	2.408674890569041	neutral	061	sub-15	1.0	3.0	061_neutral	0.0		181.54311963658984	
26.0	159.50675175778133	fix	1.0		443	40.0	male	black	2.408674890569041	neutral	061	sub-15	1.0	3.0	061_neutral	0.0		182.15134260895684	3.7582531126608956
26.0	159.59852766854783	pulse	1.0	t		40.0	male	black	2.408674890569041	neutral	061	sub-15	1.0	3.0	061_neutral	0.0		182.24311851972334	
26.0	160.2985162885875	pulse	1.0	t		40.0	male	black	2.408674890569041	neutral	061	sub-15	1.0	3.0	061_neutral	0.0		182.94310713976301	
26.0	160.9985009845027	pulse	1.0	t		40.0	male	black	2.408674890569041	neutral	061	sub-15	1.0	3.0	061_neutral	0.0		183.6430918356782	
26.0	161.69848537856205	pulse	1.0	t		40.0	male	black	2.408674890569041	neutral	061	sub-15	1.0	3.0	061_neutral	0.0		184.34307622973756	
26.0	162.39847671530288	pulse	1.0	t		40.0	male	black	2.408674890569041	neutral	061	sub-15	1.0	3.0	061_neutral	0.0		185.04306756647838	
26.0	163.09846292049633	pulse	1.0	t		40.0	male	black	2.408674890569041	neutral	061	sub-15	1.0	3.0	061_neutral	0.0		185.74305377167184	
27.0	163.26500487044223	face	0.0		147	37.0	male	white	3.898925586947871	smiling	101	sub-15	1.0	3.0	101_smiling	0.0		185.90959572161773	1.2499911707200226
27.0	163.79847448157034	pulse	0.0	t		37.0	male	white	3.898925586947871	smiling	101	sub-15	1.0	3.0	101_smiling	0.0		186.44306533274585	
27.0	164.49843774572946	pulse	0.0	t		37.0	male	white	3.898925586947871	smiling	101	sub-15	1.0	3.0	101_smiling	0.0		187.14302859690497	
27.0	164.51499604116225	fix	1.0		443	37.0	male	white	3.898925586947871	smiling	101	sub-15	1.0	3.0	101_smiling	0.0		187.15958689233776	3.7499218948328235
27.0	165.1984278750474	pulse	1.0	t		37.0	male	white	3.898925586947871	smiling	101	sub-15	1.0	3.0	101_smiling	0.0		187.8430187262229	
27.0	165.89841317467426	pulse	1.0	t		37.0	male	white	3.898925586947871	smiling	101	sub-15	1.0	3.0	101_smiling	0.0		188.54300402584977	
27.0	166.5984039077034	pulse	1.0	t		37.0	male	white	3.898925586947871	smiling	101	sub-15	1.0	3.0	101_smiling	0.0		189.24299475887892	
27.0	167.2983913203202	pulse	1.0	t		37.0	male	white	3.898925586947871	smiling	101	sub-15	1.0	3.0	101_smiling	0.0		189.94298217149571	
27.0	167.99838265706103	pulse	1.0	t		37.0	male	white	3.898925586947871	smiling	101	sub-15	1.0	3.0	101_smiling	0.0		190.64297350823654	
28.0	168.26491793599507	face	0.0		146	40.0	male	white	1.868682849184242	smiling	172	sub-15	1.0	3.0	172_smiling	0.0		190.90950878717058	1.241656934335424
28.0	168.69836523998583	pulse	0.0	t		40.0	male	white	1.868682849184242	smiling	172	sub-15	1.0	3.0	172_smiling	0.0		191.34295609116134	
28.0	169.39834752105526	pulse	0.0	t		40.0	male	white	1.868682849184242	smiling	172	sub-15	1.0	3.0	172_smiling	0.0		192.04293837223076	
28.0	169.5065748703305	fix	1.0		444	40.0	male	white	1.868682849184242	smiling	172	sub-15	1.0	3.0	172_smiling	0.0		192.151165721506	3.7582627720435084
28.0	170.09834429119928	pulse	1.0	t		40.0	male	white	1.868682849184242	smiling	172	sub-15	1.0	3.0	172_smiling	0.0		192.7429351423748	
28.0	170.79832476113415	pulse	1.0	t		40.0	male	white	1.868682849184242	smiling	172	sub-15	1.0	3.0	172_smiling	0.0		193.44291561230966	
28.0	171.49831790900953	pulse	1.0	t		40.0	male	white	1.868682849184242	smiling	172	sub-15	1.0	3.0	172_smiling	0.0		194.14290876018504	
28.0	172.19830622719292	pulse	1.0	t		40.0	male	white	1.868682849184242	smiling	172	sub-15	1.0	3.0	172_smiling	0.0		194.84289707836842	
28.0	172.89829243238682	pulse	1.0	t		40.0	male	white	1.868682849184242	smiling	172	sub-15	1.0	3.0	172_smiling	0.0		195.54288328356233	
29.0	173.264837642374	face	0.0		146	24.0	female	black	3.0955033824114606	neutral	099	sub-15	1.0	3.0	099_neutral	0.0		195.9094284935495	1.2416493879422887
29.0	173.59828044871483	pulse	0.0	t		24.0	female	black	3.0955033824114606	neutral	099	sub-15	1.0	3.0	099_neutral	0.0		196.24287129989034	
29.0	174.29826514462957	pulse	0.0	t		24.0	female	black	3.0955033824114606	neutral	099	sub-15	1.0	3.0	099_neutral	0.0		196.94285599580508	
29.0	174.5064870303163	fix	1.0		444	24.0	female	black	3.0955033824114606	neutral	099	sub-15	1.0	3.0	099_neutral	0.0		197.1510778814918	3.7583967959826623
29.0	174.99824652013194	pulse	1.0	t		24.0	female	black	3.0955033824114606	neutral	099	sub-15	1.0	3.0	099_neutral	0.0		197.64283737130745	
29.0	175.6982444976984	pulse	1.0	t		24.0	female	black	3.0955033824114606	neutral	099	sub-15	1.0	3.0	099_neutral	0.0		198.3428353488739	
29.0	176.3982319103152	pulse	1.0	t		24.0	female	black	3.0955033824114606	neutral	099	sub-15	1.0	3.0	099_neutral	0.0		199.0428227614907	
29.0	177.09821781365326	pulse	1.0	t		24.0	female	black	3.0955033824114606	neutral	099	sub-15	1.0	3.0	099_neutral	0.0		199.74280866482877	
29.0	177.79820492441377	pulse	1.0	t		24.0	female	black	3.0955033824114606	neutral	099	sub-15	1.0	3.0	099_neutral	0.0		200.44279577558927	
30.0	178.26488382629896	face	0.0		146	22.0	female	west_asian	3.8205332272184642	smiling	066	sub-15	1.0	3.0	066_smiling	0.0		200.90947467747446	1.241515062147755
30.0	178.49819656301042	pulse	0.0	t		22.0	female	west_asian	3.8205332272184642	smiling	066	sub-15	1.0	3.0	066_smiling	0.0		201.14278741418593	
30.0	179.19818488119427	pulse	0.0	t		22.0	female	west_asian	3.8205332272184642	smiling	066	sub-15	1.0	3.0	066_smiling	0.0		201.84277573236977	
30.0	179.5063988884467	fix	1.0		444	22.0	female	west_asian	3.8205332272184642	smiling	066	sub-15	1.0	3.0	066_smiling	0.0		202.15098973962222	3.7582682054467114
30.0	179.8981731993781	pulse	1.0	t		22.0	female	west_asian	3.8205332272184642	smiling	066	sub-15	1.0	3.0	066_smiling	0.0		202.54276405055361	
30.0	180.59815880086035	pulse	1.0	t		22.0	female	west_asian	3.8205332272184642	smiling	066	sub-15	1.0	3.0	066_smiling	0.0		203.24274965203585	
30.0	181.29813987450643	pulse	1.0	t		22.0	female	west_asian	3.8205332272184642	smiling	066	sub-15	1.0	3.0	066_smiling	0.0		203.94273072568194	
30.0	181.99813724836167	pulse	1.0	t		22.0	female	west_asian	3.8205332272184642	smiling	066	sub-15	1.0	3.0	066_smiling	0.0		204.64272809953718	
30.0	182.6981183220082	pulse	1.0	t		22.0	female	west_asian	3.8205332272184642	smiling	066	sub-15	1.0	3.0	066_smiling	0.0		205.34270917318372	
31.0	183.26466709389342	face	0.0		146	27.0	male	black	3.5523278949462798	smiling	042	sub-15	1.0	3.0	042_smiling	0.0		205.90925794506893	1.2416442563949204
31.0	183.39811116802775	pulse	0.0	t		27.0	male	black	3.5523278949462798	smiling	042	sub-15	1.0	3.0	042_smiling	0.0		206.04270201920326	
31.0	184.09809465652006	pulse	0.0	t		27.0	male	black	3.5523278949462798	smiling	042	sub-15	1.0	3.0	042_smiling	0.0		206.74268550769557	
31.0	184.50631135028834	fix	1.0		444	27.0	male	black	3.5523278949462798	smiling	042	sub-15	1.0	3.0	042_smiling	0.0		207.15090220146385	3.7582250400787416
31.0	184.79808629511672	pulse	1.0	t		27.0	male	black	3.5523278949462798	smiling	042	sub-15	1.0	3.0	042_smiling	0.0		207.44267714629223	
31.0	185.49807310402184	pulse	1.0	t		27.0	male	black	3.5523278949462798	smiling	042	sub-15	1.0	3.0	042_smiling	0.0		208.14266395519735	
31.0	186.198060818494	pulse	1.0	t		27.0	male	black	3.5523278949462798	smiling	042	sub-15	1.0	3.0	042_smiling	0.0		208.84265166966952	
31.0	186.89804883482202	pulse	1.0	t		27.0	male	black	3.5523278949462798	smiling	042	sub-15	1.0	3.0	042_smiling	0.0		209.54263968599753	
31.0	187.59803866228413	pulse	1.0	t		27.0	male	black	3.5523278949462798	smiling	042	sub-15	1.0	3.0	042_smiling	0.0		210.24262951345963	
32.0	188.26453639036708	face	0.0		146	36.0	female	white	2.7548746518105847	neutral	011	sub-15	1.0	3.0	011_neutral	0.0		210.9091272415426	1.241688327329939
32.0	188.29803694170687	pulse	0.0	t		36.0	female	white	2.7548746518105847	neutral	011	sub-15	1.0	3.0	011_neutral	0.0		210.94262779288238	
32.0	188.99801348751726	pulse	0.0	t		36.0	female	white	2.7548746518105847	neutral	011	sub-15	1.0	3.0	011_neutral	0.0		211.64260433869276	
32.0	189.50622471769702	fix	1.0		443	36.0	female	white	2.7548746518105847	neutral	011	sub-15	1.0	3.0	011_neutral	0.0		212.15081556887253	3.758276355551061
32.0	189.69799848528828	pulse	1.0	t		36.0	female	white	2.7548746518105847	neutral	011	sub-15	1.0	3.0	011_neutral	0.0		212.3425893364638	
32.0	190.39799042574032	pulse	1.0	t		36.0	female	white	2.7548746518105847	neutral	011	sub-15	1.0	3.0	011_neutral	0.0		213.04258127691583	
32.0	191.09797210309853	pulse	1.0	t		36.0	female	white	2.7548746518105847	neutral	011	sub-15	1.0	3.0	011_neutral	0.0		213.74256295427404	
32.0	191.79796676025217	pulse	1.0	t		36.0	female	white	2.7548746518105847	neutral	011	sub-15	1.0	3.0	011_neutral	0.0		214.44255761142767	
32.0	192.497955078436	pulse	1.0	t		36.0	female	white	2.7548746518105847	neutral	011	sub-15	1.0	3.0	011_neutral	0.0		215.14254592961152	
32.0	193.19793222795806	pulse	1.0	t		36.0	female	white	2.7548746518105847	neutral	011	sub-15	1.0	3.0	011_neutral	0.0		215.84252307913357	
33.0	193.26450107324808	face	0.0		147	28.0	female	white	5.676880222841227	smiling	124	sub-15	1.0	3.0	124_smiling	0.0		215.9090919244236	1.2416364081464053
33.0	193.89794197789752	pulse	0.0	t		28.0	female	white	5.676880222841227	smiling	124	sub-15	1.0	3.0	124_smiling	0.0		216.54253282907302	
33.0	194.5061374813945	fix	1.0		443	28.0	female	white	5.676880222841227	smiling	124	sub-15	1.0	3.0	124_smiling	0.0		217.15072833257	3.758341254530478
33.0	194.59793361649417	pulse	1.0	t		28.0	female	white	5.676880222841227	smiling	124	sub-15	1.0	3.0	124_smiling	0.0		217.24252446766968	
33.0	195.29789899364323	pulse	1.0	t		28.0	female	white	5.676880222841227	smiling	124	sub-15	1.0	3.0	124_smiling	0.0		217.94248984481874	
33.0	195.99789425450854	pulse	1.0	t		28.0	female	white	5.676880222841227	smiling	124	sub-15	1.0	3.0	124_smiling	0.0		218.64248510568405	
33.0	196.69787804485668	pulse	1.0	t		28.0	female	white	5.676880222841227	smiling	124	sub-15	1.0	3.0	124_smiling	0.0		219.3424688960322	
33.0	197.39786907974167	pulse	1.0	t		28.0	female	white	5.676880222841227	smiling	124	sub-15	1.0	3.0	124_smiling	0.0		220.04245993091718	
33.0	198.09786584988524	pulse	1.0	t		28.0	female	white	5.676880222841227	smiling	124	sub-15	1.0	3.0	124_smiling	0.0		220.74245670106075	
34.0	198.26447873592497	face	0.0		147	22.0	female	white	4.614007162753682	neutral	009	sub-15	1.0	3.0	009_neutral	0.0		220.90906958710048	1.2499072548303047
34.0	198.79784481054185	pulse	0.0	t		22.0	female	white	4.614007162753682	neutral	009	sub-15	1.0	3.0	009_neutral	0.0		221.44243566171735	
34.0	199.49782316748679	pulse	0.0	t		22.0	female	white	4.614007162753682	neutral	009	sub-15	1.0	3.0	009_neutral	0.0		222.1424140186623	
34.0	199.51438599075527	fix	1.0		443	22.0	female	white	4.614007162753682	neutral	009	sub-15	1.0	3.0	009_neutral	0.0		222.15897684193078	3.749910122460278
34.0	200.1978199376308	pulse	1.0	t		22.0	female	white	4.614007162753682	neutral	009	sub-15	1.0	3.0	009_neutral	0.0		222.84241078880632	
34.0	200.8978037279785	pulse	1.0	t		22.0	female	white	4.614007162753682	neutral	009	sub-15	1.0	3.0	009_neutral	0.0		223.542394579154	
34.0	201.59779053688362	pulse	1.0	t		22.0	female	white	4.614007162753682	neutral	009	sub-15	1.0	3.0	009_neutral	0.0		224.24238138805913	
34.0	202.29778006249035	pulse	1.0	t		22.0	female	white	4.614007162753682	neutral	009	sub-15	1.0	3.0	009_neutral	0.0		224.94237091366585	
34.0	202.99777079551995	pulse	1.0	t		22.0	female	white	4.614007162753682	neutral	009	sub-15	1.0	3.0	009_neutral	0.0		225.64236164669546	
35.0	203.26429611321555	face	0.0		146	24.0	female	east_asian	4.409868682849185	neutral	030	sub-15	1.0	3.0	030_neutral	0.0		225.90888696439106	1.2416653862951534
35.0	203.69775730256924	pulse	0.0	t		24.0	female	east_asian	4.409868682849185	neutral	030	sub-15	1.0	3.0	030_neutral	0.0		226.34234815374475	
35.0	204.39774048920572	pulse	0.0	t		24.0	female	east_asian	4.409868682849185	neutral	030	sub-15	1.0	3.0	030_neutral	0.0		227.04233134038122	
35.0	204.5059614995107	fix	1.0		444	24.0	female	east_asian	4.409868682849185	neutral	030	sub-15	1.0	3.0	030_neutral	0.0		227.1505523506862	3.7582648850338956
35.0	205.0977327315136	pulse	1.0	t		24.0	female	east_asian	4.409868682849185	neutral	030	sub-15	1.0	3.0	030_neutral	0.0		227.7423235826891	
35.0	205.7977189367075	pulse	1.0	t		24.0	female	east_asian	4.409868682849185	neutral	030	sub-15	1.0	3.0	030_neutral	0.0		228.442309787883	
35.0	206.49770665117967	pulse	1.0	t		24.0	female	east_asian	4.409868682849185	neutral	030	sub-15	1.0	3.0	030_neutral	0.0		229.14229750235518	
35.0	207.19769496936306	pulse	1.0	t		24.0	female	east_asian	4.409868682849185	neutral	030	sub-15	1.0	3.0	030_neutral	0.0		229.84228582053856	
35.0	207.89767996713408	pulse	1.0	t		24.0	female	east_asian	4.409868682849185	neutral	030	sub-15	1.0	3.0	030_neutral	0.0		230.5422708183096	
36.0	208.2642263845446	face	0.0		146	24.0	male	white	3.1153999204138483	neutral	012	sub-15	1.0	3.0	012_neutral	0.0		230.9088172357201	1.241650897220552
36.0	208.59767281315362	pulse	0.0	t		24.0	male	white	3.1153999204138483	neutral	012	sub-15	1.0	3.0	012_neutral	0.0		231.24226366432913	
36.0	209.29767079072008	pulse	0.0	t		24.0	male	white	3.1153999204138483	neutral	012	sub-15	1.0	3.0	012_neutral	0.0		231.94226164189558	
36.0	209.50587728176515	fix	1.0		444	24.0	male	white	3.1153999204138483	neutral	012	sub-15	1.0	3.0	012_neutral	0.0		232.15046813294066	3.7582968817400797
36.0	209.99763043261055	pulse	1.0	t		24.0	male	white	3.1153999204138483	neutral	012	sub-15	1.0	3.0	012_neutral	0.0		232.64222128378606	
36.0	210.69763263615732	pulse	1.0	t		24.0	male	white	3.1153999204138483	neutral	012	sub-15	1.0	3.0	012_neutral	0.0		233.34222348733283	
36.0	211.39762397289815	pulse	1.0	t		24.0	male	white	3.1153999204138483	neutral	012	sub-15	1.0	3.0	012_neutral	0.0		234.04221482407365	
36.0	212.09762345974377	pulse	1.0	t		24.0	male	white	3.1153999204138483	neutral	012	sub-15	1.0	3.0	012_neutral	0.0		234.74221431091928	
36.0	212.79760423153448	pulse	1.0	t		24.0	male	white	3.1153999204138483	neutral	012	sub-15	1.0	3.0	012_neutral	0.0		235.44219508271	
37.0	213.26417416350523	face	0.0		146	19.0	female	white	4.298846000795861	neutral	100	sub-15	1.0	3.0	100_neutral	0.0		235.90876501468074	1.2416137689674542
37.0	213.49759134229498	pulse	0.0	t		19.0	female	white	4.298846000795861	neutral	100	sub-15	1.0	3.0	100_neutral	0.0		236.1421821934705	
37.0	214.19757060480742	pulse	0.0	t		19.0	female	white	4.298846000795861	neutral	100	sub-15	1.0	3.0	100_neutral	0.0		236.84216145598293	
37.0	214.50578793247269	fix	1.0		444	19.0	female	white	4.298846000795861	neutral	100	sub-15	1.0	3.0	100_neutral	0.0		237.1503787836482	3.7582594516306926
37.0	214.89756314897113	pulse	1.0	t		19.0	female	white	4.298846000795861	neutral	100	sub-15	1.0	3.0	100_neutral	0.0		237.54215400014664	
37.0	215.59754452447305	pulse	1.0	t		19.0	female	white	4.298846000795861	neutral	100	sub-15	1.0	3.0	100_neutral	0.0		238.24213537564856	
37.0	216.29753405007978	pulse	1.0	t		19.0	female	white	4.298846000795861	neutral	100	sub-15	1.0	3.0	100_neutral	0.0		238.94212490125528	
37.0	216.997522670119	pulse	1.0	t		19.0	female	white	4.298846000795861	neutral	100	sub-15	1.0	3.0	100_neutral	0.0		239.6421135212945	
37.0	217.6975061586113	pulse	1.0	t		19.0	female	white	4.298846000795861	neutral	100	sub-15	1.0	3.0	100_neutral	0.0		240.3420970097868	
38.0	218.26404738410338	face	0.0		146	31.0	female	east_asian	3.395941106247513	neutral	087	sub-15	1.0	3.0	087_neutral	1.0	attractiveness	240.9086382352789	1.2416355025793564
38.0	218.39751832339698	pulse	0.0	t		31.0	female	east_asian	3.395941106247513	neutral	087	sub-15	1.0	3.0	087_neutral	1.0	attractiveness	241.0421091745725	
38.0	219.09748551168013	pulse	0.0	t		31.0	female	east_asian	3.395941106247513	neutral	087	sub-15	1.0	3.0	087_neutral	1.0	attractiveness	241.74207636285564	
38.0	219.50568288668273	fix	1.0		177	31.0	female	east_asian	3.395941106247513	neutral	087	sub-15	1.0	3.0	087_neutral	1.0	attractiveness	242.15027373785824	1.4999938119576655
38.0	219.79747564099807	pulse	1.0	t		31.0	female	east_asian	3.395941106247513	neutral	087	sub-15	1.0	3.0	087_neutral	1.0	attractiveness	242.44206649217358	
38.0	220.49746637402768	pulse	1.0	t		31.0	female	east_asian	3.395941106247513	neutral	087	sub-15	1.0	3.0	087_neutral	1.0	attractiveness	243.1420572252032	
38.0	221.0056766986404	rating	2.0		294	31.0	female	east_asian	3.395941106247513	neutral	087	sub-15	1.0	3.0	087_neutral	1.0	attractiveness	243.6502675498159	2.499954872570015
38.0	221.1974516736541	pulse	2.0	t		31.0	female	east_asian	3.395941106247513	neutral	087	sub-15	1.0	3.0	087_neutral	1.0	attractiveness	243.8420425248296	
38.0	221.8974396899821	pulse	2.0	t		31.0	female	east_asian	3.395941106247513	neutral	087	sub-15	1.0	3.0	087_neutral	1.0	attractiveness	244.5420305411576	
38.0	222.59743132857875	pulse	2.0	t		31.0	female	east_asian	3.395941106247513	neutral	087	sub-15	1.0	3.0	087_neutral	1.0	attractiveness	245.24202217975426	
38.0	222.62548428976834	response	2.0	y		31.0	female	east_asian	3.395941106247513	neutral	087	sub-15	1.0	3.0	087_neutral	1.0	attractiveness	245.27007514094385	
38.0	223.2974157226381	pulse	2.0	t		31.0	female	east_asian	3.395941106247513	neutral	087	sub-15	1.0	3.0	087_neutral	1.0	attractiveness	245.94200657381361	
38.0	223.50563157121042	fix	3.0		444	31.0	female	east_asian	3.395941106247513	neutral	087	sub-15	1.0	3.0	087_neutral	1.0	attractiveness	246.15022242238592	3.758323445043061
38.0	223.9974037389661	pulse	3.0	t		31.0	female	east_asian	3.395941106247513	neutral	087	sub-15	1.0	3.0	087_neutral	1.0	attractiveness	246.64199459014162	
38.0	224.69738994416002	pulse	3.0	t		31.0	female	east_asian	3.395941106247513	neutral	087	sub-15	1.0	3.0	087_neutral	1.0	attractiveness	247.34198079533553	
38.0	225.39737403636354	pulse	3.0	t		31.0	female	east_asian	3.395941106247513	neutral	087	sub-15	1.0	3.0	087_neutral	1.0	attractiveness	248.04196488753905	
38.0	226.0973557137213	pulse	3.0	t		31.0	female	east_asian	3.395941106247513	neutral	087	sub-15	1.0	3.0	087_neutral	1.0	attractiveness	248.7419465648968	
38.0	226.79761721133036	pulse	3.0	t		31.0	female	east_asian	3.395941106247513	neutral	087	sub-15	1.0	3.0	087_neutral	1.0	attractiveness	249.44220806250587	
39.0	227.26395501625348	face	0.0		146	25.0	female	west_asian	2.6756864305610826	smiling	064	sub-15	1.0	3.0	064_smiling	0.0		249.90854586742898	1.2415890167985708
39.0	227.49732782225283	pulse	0.0	t		25.0	female	west_asian	2.6756864305610826	smiling	064	sub-15	1.0	3.0	064_smiling	0.0		250.14191867342834	
39.0	228.19734692971997	pulse	0.0	t		25.0	female	west_asian	2.6756864305610826	smiling	064	sub-15	1.0	3.0	064_smiling	0.0		250.84193778089548	
39.0	228.50554403305205	fix	1.0		444	25.0	female	west_asian	2.6756864305610826	smiling	064	sub-15	1.0	3.0	064_smiling	0.0		251.15013488422755	3.749929139370124
39.0	228.8973147217148	pulse	1.0	t		25.0	female	west_asian	2.6756864305610826	smiling	064	sub-15	1.0	3.0	064_smiling	0.0		251.5419055728903	
39.0	229.59731934010733	pulse	1.0	t		25.0	female	west_asian	2.6756864305610826	smiling	064	sub-15	1.0	3.0	064_smiling	0.0		252.24191019128284	
39.0	230.29729437663946	pulse	1.0	t		25.0	female	west_asian	2.6756864305610826	smiling	064	sub-15	1.0	3.0	064_smiling	0.0		252.94188522781496	
39.0	230.99730382472353	pulse	1.0	t		25.0	female	west_asian	2.6756864305610826	smiling	064	sub-15	1.0	3.0	064_smiling	0.0		253.64189467589904	
39.0	231.6972646740369	pulse	1.0	t		25.0	female	west_asian	2.6756864305610826	smiling	064	sub-15	1.0	3.0	064_smiling	0.0		254.3418555252124	
40.0	232.25547317242217	fix	0.0		720													254.90006402359768	5.999900085757417
40.0	232.39725661448892	pulse	0.0	t														255.04184746566443	
40.0	233.09724040483707	pulse	0.0	t														255.74183125601257	
40.0	233.79722479889642	pulse	0.0	t														256.44181565007193	
40.0	234.49721945605006	pulse	0.0	t														257.14181030722557	
40.0	235.19720747237807	pulse	0.0	t														257.8417983235536	
40.0	235.89719065901454	pulse	0.0	t														258.54178151019005	
40.0	236.59718199575536	pulse	0.0	t														259.24177284693087	
40.0	237.2971669935264	pulse	0.0	t														259.9417578447019	
40.0	237.9971601414013	pulse	0.0	t														260.6417509925768	
