trial_nr	onset	event_type	phase	response	nr_frames	rating_type	face_id	repetition	session	rating	onset_abs	duration
0.0	0.006169645789213973	cue	0.0		480						38.71910981299334	4.000474518478313
0.0	4.006644164267527	fix	1.0		120						42.71958433147165	1.0167723567028588
0.0	5.023416520970386	face	0.0		147	attractiveness	130	1.0	1		43.73635668817451	1.2837285440373307
0.0	6.307145065007717	rating	1.0		622	attractiveness	130	1.0	1		45.02008523221184	5.1920664857138945
0.0	11.499211550721611	fix	2.0		59	attractiveness	130	1.0	1	-0.7999999999999998	50.212151717925735	0.5167303986436309
1.0	12.015941949365242	face	0.0		147	attractiveness	099	1.0	1		50.728882116569366	1.2335002197514768
1.0	13.249442169116719	rating	1.0		478	attractiveness	099	1.0	1		51.96238233632084	3.992132109325212
1.0	17.24157427844193	fix	2.0		60	attractiveness	099	1.0	1	0.4900000000000002	55.954514445646055	0.5167470007536394
2.0	17.75832127919557	face	0.0		147	attractiveness	087	1.0	1		56.471261446399694	1.2334646006797811
2.0	18.99178587987535	rating	1.0		191	attractiveness	087	1.0	1		57.704726047079475	1.6001834684043388
2.0	20.59196934827969	fix	2.0		60	attractiveness	087	1.0	1	1.46	59.304909515483814	0.5167614898668944
3.0	21.108730838146585	face	0.0		147	attractiveness	137	1.0	1		59.82167100535071	1.2334585635494477
3.0	22.342189401696032	rating	1.0		185	attractiveness	137	1.0	1		61.055129568900156	1.5501797253828045
3.0	23.892369127078837	fix	2.0		60	attractiveness	137	1.0	1	-0.1299999999999999	62.60530929428296	0.5167521323146502
4.0	24.409121259393487	face	0.0		147	attractiveness	172	1.0	1		63.12206142659761	1.2334561486968596
4.0	25.642577408090347	rating	1.0		130	attractiveness	172	1.0	1		64.35551757529447	1.0918030253274082
4.0	26.734380433417755	fix	2.0		60	attractiveness	172	1.0	1	-2.1399999999999997	65.44732060062188	0.5167581694449837
5.0	27.25113860286274	face	0.0		147	attractiveness	117	1.0	1		65.96407877006686	1.2334525264186595
5.0	28.484591129281398	rating	1.0		101	attractiveness	117	1.0	1		67.19753129648552	0.8501013634254377
5.0	29.334692492706836	fix	2.0		60	attractiveness	117	1.0	1	0.8399999999999999	68.04763265991096	0.516746095183862
6.0	29.851438587890698	face	0.0		147	attractiveness	144	1.0	1		68.56437875509482	1.233458865405737
6.0	31.084897453296435	rating	1.0		124	attractiveness	144	1.0	1		69.79783762050056	1.0418216196899266
6.0	32.12671907298636	fix	2.0		60	attractiveness	144	1.0	1	1.4800000000000004	70.83965924019049	0.516721041090932
7.0	32.64344011407729	face	0.0		147	attractiveness	062	1.0	1		71.35638028128142	1.2334802972200123
7.0	33.876920411297306	rating	1.0		259	attractiveness	062	1.0	1		72.58986057850143	2.1669106673689384
7.0	36.043831078666244	fix	2.0		60	attractiveness	062	1.0	1	-3.05	74.75677124587037	0.5167485100359954
8.0	36.56057958870224	face	0.0		147	attractiveness	141	1.0	1		75.27351975590636	1.2334624876843918
8.0	37.79404207638663	rating	1.0		75	attractiveness	141	1.0	1		76.50698224359076	0.6334076101652499
8.0	38.42744968655188	fix	2.0		60	attractiveness	141	1.0	1	-1.5499999999999998	77.140389853756	0.5167584713021824
9.0	38.944208157854064	face	0.0		147	attractiveness	012	1.0	1		77.65714832505819	1.233449205996294
9.0	40.17765736385036	rating	1.0		46	attractiveness	012	1.0	1		78.89059753105448	0.39171228725172114
9.0	40.56936965110208	fix	2.0		60	attractiveness	012	1.0	1	0.8399999999999999	79.2823098183062	0.5167578675886944
10.0	41.08612751869077	face	0.0		147	attractiveness	018	1.0	1		79.7990676858949	1.2334944844774327
10.0	42.319622003168206	rating	1.0		61	attractiveness	018	1.0	1		81.03256217037233	0.5166893461546351
10.0	42.83631134932284	fix	2.0		61	attractiveness	018	1.0	1	0.1200000000000001	81.54925151652697	0.5250830709192087
11.0	43.36139442024205	face	0.0		146	attractiveness	092	1.0	1		82.07433458744617	1.2251409066320775
11.0	44.58653532687413	rating	1.0		68	attractiveness	092	1.0	1		83.29947549407825	0.5750554208607355
11.0	45.16159074773486	fix	2.0		60	attractiveness	092	1.0	1	-2.23	83.87453091493899	0.5167494156057728
12.0	45.678340163340636	face	0.0		147	attractiveness	091	1.0	1		84.39128033054476	1.2334712415236027
12.0	46.91181140486424	rating	1.0		68	attractiveness	091	1.0	1		85.62475157206836	0.5750626654175903
12.0	47.48687407028183	fix	2.0		60	attractiveness	091	1.0	1	1.7199999999999998	86.19981423748595	0.5167473026099287
13.0	48.00362137289176	face	0.0		147	attractiveness	009	1.0	1		86.71656154009588	1.233460978401581
13.0	49.23708235129334	rating	1.0		179	attractiveness	009	1.0	1		87.95002251849746	1.5001811139231904
13.0	50.73726346521653	fix	2.0		60	attractiveness	009	1.0	1	2.62	89.45020363242065	0.5167657158585826
14.0	51.25402918107511	face	0.0		147	attractiveness	038	1.0	1		89.96696934827924	1.2334748638022575
14.0	52.48750404487737	rating	1.0		97	attractiveness	038	1.0	1		91.20044421208149	0.8167335379516771
14.0	53.304237582829046	fix	2.0		60	attractiveness	038	1.0	1	-3.86	92.01717775003317	0.5167593768719598
15.0	53.820996959701006	face	0.0		147	attractiveness	102	1.0	1		92.53393712690513	1.2334516208484274
15.0	55.05444858054943	rating	1.0		100	attractiveness	102	1.0	1		93.76738874775356	0.8417867250741438
15.0	55.89623530562358	fix	2.0		61	attractiveness	102	1.0	1	-2.65	94.6091754728277	0.5251171807080937
16.0	56.42135248633167	face	0.0		146	attractiveness	064	1.0	1		95.1342926535358	1.2250720833412743
16.0	57.646424569672945	rating	1.0		273	attractiveness	064	1.0	1		96.35936473687707	2.2836105181308994
16.0	59.930035087803844	fix	2.0		60	attractiveness	064	1.0	1	0.71	98.64297525500797	0.516755452736561
17.0	60.446790540540405	face	0.0		147	attractiveness	136	1.0	1		99.15973070774453	1.2334582616927037
17.0	61.68024880223311	rating	1.0		98	attractiveness	136	1.0	1		100.39318896943723	0.8250937566408538
17.0	62.50534255887396	fix	2.0		60	attractiveness	136	1.0	1	-3.4	101.21828272607809	0.5167491137490288
18.0	63.02209167262299	face	0.0		147	attractiveness	066	1.0	1		101.73503183982712	1.23346671367608
18.0	64.25555838629907	rating	1.0		100	attractiveness	066	1.0	1		102.9684985535032	0.8417562375634589
18.0	65.09731462386253	fix	2.0		60	attractiveness	066	1.0	1	1.46	103.81025479106665	0.5167642065762266
19.0	65.61407883043876	face	0.0		147	attractiveness	033	1.0	1		104.32701899764288	1.2334685248147252
19.0	66.84754735525348	rating	1.0		72	attractiveness	033	1.0	1		105.5604875224576	0.6083843068408896
19.0	67.45593166209437	fix	2.0		60	attractiveness	033	1.0	1	1.13	106.1688718292985	0.5167714511330814
20.0	67.97270311322745	face	0.0		147	attractiveness	044	1.0	1		106.68564328043158	1.2334416595831499
20.0	69.2061447728106	rating	1.0		214	attractiveness	044	1.0	1		107.91908494001473	1.7918789724321869
20.0	70.99802374524279	fix	2.0		60	attractiveness	044	1.0	1	0.46999999999999975	109.71096391244691	0.5167620935799278
21.0	71.51478583882272	face	0.0		147	attractiveness	042	1.0	1		110.22772600602684	1.233459469119225
21.0	72.74824530794194	rating	1.0		158	attractiveness	042	1.0	1		111.46118547514607	1.3251535242352475
21.0	74.07339883217719	fix	2.0		60	attractiveness	042	1.0	1	1.0700000000000003	112.78633899938131	0.5167485100359954
22.0	74.59014734221319	face	0.0		147	attractiveness	027	1.0	1		113.30308750941731	1.2334600728322584
22.0	75.82360741504544	rating	1.0		90	attractiveness	027	1.0	1		114.53654758224957	0.7584299475493026
22.0	76.58203736259475	fix	2.0		60	attractiveness	027	1.0	1	2.0300000000000002	115.29497752979887	0.5167500193188062
23.0	77.09878738191355	face	0.0		147	attractiveness	124	1.0	1		115.81172754911768	1.2334537338447262
23.0	78.33224111575828	rating	1.0		126	attractiveness	124	1.0	1		117.0451812829624	1.0584593483763456
23.0	79.39070046413462	fix	2.0		60	attractiveness	124	1.0	1	3.3499999999999996	118.10364063133875	0.516756962018917
24.0	79.90745742615354	face	0.0		147	attractiveness	070	1.0	1		118.62039759335767	1.2334582616927037
24.0	81.14091568784625	rating	1.0		72	attractiveness	070	1.0	1		119.85385585505037	0.608407851651009
24.0	81.74932353949725	fix	2.0		60	attractiveness	070	1.0	1	-2.3	120.46226370670138	0.5167491137490288
25.0	82.26607265324628	face	0.0		147	attractiveness	024	1.0	1		120.97901282045041	1.2334642988234918
25.0	83.49953695206977	rating	1.0		58	attractiveness	024	1.0	1		122.2124771192739	0.4917206788632029
25.0	83.99125763093298	fix	2.0		60	attractiveness	024	1.0	1	-0.98	122.7041977981371	0.5167542453104943
26.0	84.50801187624347	face	0.0		147	attractiveness	036	1.0	1		123.2209520434476	1.2334618839713585
26.0	85.74147376021483	rating	1.0		45	attractiveness	036	1.0	1		124.45441392741895	0.38336776510232085
26.0	86.12484152531715	fix	2.0		60	attractiveness	036	1.0	1	0.8799999999999999	124.83778169252128	0.5167666214283599
27.0	86.64160814674551	face	0.0		147	attractiveness	030	1.0	1		125.35454831394964	1.2334464892878714
27.0	87.87505463603338	rating	1.0		397	attractiveness	030	1.0	1		126.5879948032375	3.3170758432661387
27.0	91.19213047929952	fix	2.0		60	attractiveness	030	1.0	1	1.3099999999999996	129.90507064650365	0.5167367376311631
28.0	91.70886721693068	face	0.0		147	attractiveness	121	1.0	1		130.4218073841348	1.2334624876843918
28.0	92.94232970461508	rating	1.0		102	attractiveness	121	1.0	1		131.6552698718192	0.8584350187393284
28.0	93.8007647233544	fix	2.0		60	attractiveness	121	1.0	1	-0.9199999999999999	132.51370489055853	0.516770545563304
29.0	94.31753526891771	face	0.0		147	attractiveness	082	1.0	1		133.03047543612183	1.2334389428742725
29.0	95.55097421179198	rating	1.0		132	attractiveness	082	1.0	1		134.2639143789961	1.1084670155323693
29.0	96.65944122732435	fix	2.0		60	attractiveness	082	1.0	1	0.5999999999999996	135.37238139452847	0.5167596787282491
30.0	97.1762009060526	face	0.0		147	attractiveness	005	1.0	1		135.88914107325672	1.2334519227051715
30.0	98.40965282875777	rating	1.0		69	attractiveness	005	1.0	1		137.1225929959619	0.5834105079884466
30.0	98.99306333674622	fix	2.0		60	attractiveness	005	1.0	1	-1.83	137.70600350395034	0.5167672251413933
31.0	99.50983056188761	face	0.0		147	attractiveness	043	1.0	1		138.22277072909174	1.233434113169551
31.0	100.74326467505716	rating	1.0		88	attractiveness	043	1.0	1		139.4562048422613	0.7417979541373825
31.0	101.48506262919454	fix	2.0		60	attractiveness	043	1.0	1	-1.2599999999999998	140.19800279639867	0.5167147021038545
32.0	102.0017773312984	face	0.0		147	attractiveness	100	1.0	1		140.71471749850252	1.2334612802578704
32.0	103.23523861155627	rating	1.0		169	attractiveness	100	1.0	1		141.9481787787604	1.4168512016303794
32.0	104.65208981318665	fix	2.0		60	attractiveness	100	1.0	1	3.42	143.36502998039077	0.5167454914708287
33.0	105.16883530465748	face	0.0		147	attractiveness	006	1.0	1		143.8817754718616	1.2334431688659606
33.0	106.40227847352344	rating	1.0		83	attractiveness	006	1.0	1		145.11521864072756	0.7000871157970323
33.0	107.10236558932047	fix	2.0		60	attractiveness	006	1.0	1	-1.12	145.8153057565246	0.5167545471667836
34.0	107.61912013648725	face	0.0		147	attractiveness	039	1.0	1		146.33206030369138	1.2334516208488822
34.0	108.85257175733614	rating	1.0		75	attractiveness	039	1.0	1		147.56551192454026	0.633419382570537
34.0	109.48599113990667	fix	2.0		60	attractiveness	039	1.0	1	1.2400000000000002	148.1989313071108	0.5167512267448728
35.0	110.00274236665155	face	0.0		147	attractiveness	011	1.0	1		148.71568253385567	1.2334519227056262
35.0	111.23619428935717	rating	1.0		71	attractiveness	011	1.0	1		149.9491344565613	0.6000684610630742
35.0	111.83626275042025	fix	2.0		60	attractiveness	011	1.0	1	-2.04	150.54920291762437	0.5167596787277944
36.0	112.35302242914804	face	0.0		147	attractiveness	101	1.0	1		151.06596259635216	1.2334522245619155
36.0	113.58647465370996	rating	1.0		196	attractiveness	101	1.0	1		152.29941482091408	1.6418686489382708
36.0	115.22834330264823	fix	2.0		60	attractiveness	101	1.0	1	2.6900000000000004	153.94128346985235	0.5167548490235276
37.0	115.74509815167175	face	0.0		147	attractiveness	126	1.0	1		154.45803831887588	1.2334501115665262
37.0	116.97854826323828	rating	1.0		143	attractiveness	126	1.0	1		155.6914884304424	1.2001402425476044
37.0	118.17868850578589	fix	2.0		60	attractiveness	126	1.0	1	1.2999999999999998	156.89162867299	0.5167642065762266
38.0	118.69545271236211	face	0.0		147	attractiveness	034	1.0	1		157.40839287956624	1.2334501115660714
38.0	119.92890282392818	rating	1.0		140	attractiveness	034	1.0	1		158.6418429911323	1.175142898885042
38.0	121.10404572281323	fix	2.0		60	attractiveness	034	1.0	1	-0.94	159.81698589001735	0.5167675269981373
39.0	121.62081324981136	face	0.0		147	attractiveness	061	1.0	1		160.3337534170155	1.233441961439894
39.0	122.85425521125126	rating	1.0		148	attractiveness	061	1.0	1		161.56719537845538	1.2418136506771589
39.0	124.09606886192842	fix	2.0		60	attractiveness	061	1.0	1	-0.7999999999999998	162.80900902913254	0.5000630880163044
40.0	124.59613194994472	cue	0.0		480						163.30907211714884	4.000473009195957
40.0	128.59660495914068	fix	1.0		120						167.3095451263448	1.016814012904888
40.0	129.61341897204557	face	0.0		147	dominance	018	1.0	1		168.3263591392497	1.2334652043928145
40.0	130.84688417643838	rating	1.0		151	dominance	018	1.0	1		169.5598243436425	1.2668191444663535
40.0	132.11370332090473	fix	2.0		60	dominance	018	1.0	1	-2.92	170.82664348810886	0.5167702437070147
41.0	132.63047356461175	face	0.0		147	dominance	100	1.0	1		171.34341373181587	1.2334347168825843
41.0	133.86390828149433	rating	1.0		126	dominance	100	1.0	1		172.57684844869846	1.0584572353805015
41.0	134.92236551687483	fix	2.0		60	dominance	100	1.0	1	-1.6099999999999999	173.63530568407896	0.516757263875661
42.0	135.4391227807505	face	0.0		147	dominance	172	1.0	1		174.15206294795462	1.2334540357014703
42.0	136.67257681645196	rating	1.0		197	dominance	172	1.0	1		175.3855169836561	1.6502303769098035
42.0	138.32280719336177	fix	2.0		60	dominance	172	1.0	1	1.42	177.0357473605659	0.5167234559435201
43.0	138.8395306493053	face	0.0		147	dominance	043	1.0	1		177.5524708165094	1.233455243127537
43.0	140.07298589243283	rating	1.0		121	dominance	043	1.0	1		178.78592605963695	1.0167886569556686
43.0	141.0897745493885	fix	2.0		60	dominance	043	1.0	1	0.7199999999999998	179.80271471659262	0.5167617917236385
44.0	141.60653634111213	face	0.0		147	dominance	144	1.0	1		180.31947650831626	1.2334525264186595
44.0	142.8399888675308	rating	1.0		333	dominance	144	1.0	1		181.55292903473492	2.783663946737761
44.0	145.62365281426855	fix	2.0		60	dominance	144	1.0	1	-2.15	184.33659298147268	0.5167796012597137
45.0	146.14043241552827	face	0.0		147	dominance	062	1.0	1		184.8533725827324	1.233432000173707
45.0	147.37386441570197	rating	1.0		70	dominance	062	1.0	1		186.0868045829061	0.5917369187450277
45.0	147.965601334447	fix	2.0		60	dominance	062	1.0	1	-2.2800000000000002	186.67854150165113	0.516757565732405
46.0	148.4823589001794	face	0.0		147	dominance	064	1.0	1		187.19529906738353	1.2334576579796703
46.0	149.71581655815908	rating	1.0		126	dominance	064	1.0	1		188.4287567253632	1.0584605558024123
46.0	150.7742771139615	fix	2.0		60	dominance	064	1.0	1	-0.8900000000000001	189.4872172811656	0.5167451896140847
47.0	151.29102230357557	face	0.0		147	dominance	126	1.0	1		190.0039624707797	1.2334579598364144
47.0	152.524480263412	rating	1.0		84	dominance	126	1.0	1		191.2374204306161	0.7084180544015908
47.0	153.23289831781358	fix	2.0		60	dominance	126	1.0	1	-0.8999999999999999	191.9458384850177	0.5167614898673492
48.0	153.74965980768093	face	0.0		147	dominance	038	1.0	1		192.46259997488505	1.2334576579796703
48.0	154.9831174656606	rating	1.0		304	dominance	038	1.0	1		193.69605763286472	2.5419622848367
48.0	157.5250797504973	fix	2.0		60	dominance	038	1.0	1	-1.7999999999999998	196.23801991770142	0.5167678288544266
49.0	158.04184757935172	face	0.0		147	dominance	101	1.0	1		196.75478774655585	1.233445885574838
49.0	159.27529346492656	rating	1.0		96	dominance	101	1.0	1		197.9882336321307	0.8084466704017359
49.0	160.0837401353283	fix	2.0		61	dominance	101	1.0	1	1.9900000000000002	198.79668030253242	0.5250809579233646
50.0	160.60882109325166	face	0.0		146	dominance	121	1.0	1		199.3217612604558	1.2251092116957807
50.0	161.83393030494744	rating	1.0		144	dominance	121	1.0	1		200.54687047215157	1.2084787275657618
50.0	163.0424090325132	fix	2.0		60	dominance	121	1.0	1	2.66	201.75534919971733	0.5167596787282491
51.0	163.55916871124145	face	0.0		147	dominance	117	1.0	1		202.27210887844558	1.2334525264186595
51.0	164.79262123766011	rating	1.0		161	dominance	117	1.0	1		203.50556140486424	1.3501849776866948
51.0	166.1428062153468	fix	2.0		60	dominance	117	1.0	1	3.0700000000000003	204.85574638255093	0.5167249652258761
52.0	166.65953118057269	face	0.0		147	dominance	082	1.0	1		205.3724713477768	1.2334606765452918
52.0	167.89299185711798	rating	1.0		110	dominance	082	1.0	1		206.6059320243221	0.9251099965226786
52.0	168.81810185364066	fix	2.0		60	dominance	082	1.0	1	1.1399999999999997	207.53104202084478	0.5167608861538611
53.0	169.33486273979452	face	0.0		147	dominance	009	1.0	1		208.04780290699864	1.2334600728322584
53.0	170.56832281262677	rating	1.0		155	dominance	009	1.0	1		209.2812629798309	1.3001432007417861
53.0	171.86846601336856	fix	2.0		60	dominance	009	1.0	1	1.67	210.58140618057269	0.5167527360276836
54.0	172.38521874939624	face	0.0		147	dominance	066	1.0	1		211.09815891660037	1.2334582616927037
54.0	173.61867701108895	rating	1.0		124	dominance	066	1.0	1		212.33161717829307	1.041793547031375
54.0	174.66047055812032	fix	2.0		60	dominance	066	1.0	1	2.2	213.37341072532445	0.5167596787282491
55.0	175.17723023684857	face	0.0		147	dominance	141	1.0	1		213.8901704040527	1.2334748638022575
55.0	176.41070510065083	rating	1.0		62	dominance	141	1.0	1		215.12364526785495	0.5250525834089785
55.0	176.9357576840598	fix	2.0		60	dominance	141	1.0	1	-1.9	215.64869785126393	0.5167391524832965
56.0	177.4524968365431	face	0.0		147	dominance	091	1.0	1		216.16543700374723	1.2334926733383327
56.0	178.68598950988144	rating	1.0		205	dominance	091	1.0	1		217.39892967708556	1.7168350221199944
56.0	180.40282453200143	fix	2.0		60	dominance	091	1.0	1	-1.62	219.11576469920556	0.5167599805845384
57.0	180.91958451258597	face	0.0		147	dominance	011	1.0	1		219.6325246797901	1.2334522245619155
57.0	182.1530367371479	rating	1.0		355	dominance	011	1.0	1		220.865976904352	2.9670188527520622
57.0	185.12005558989995	fix	2.0		60	dominance	011	1.0	1	1.54	223.83299575710407	0.5167596787282491
58.0	185.6368152686282	face	0.0		147	dominance	087	1.0	1		224.34975543583232	1.2334633932537145
58.0	186.8702786618819	rating	1.0		127	dominance	087	1.0	1		225.58321882908604	1.0667812312849492
58.0	187.93705989316686	fix	2.0		60	dominance	087	1.0	1	-2.7	226.65000006037099	0.5167557545928503
59.0	188.4538156477597	face	0.0		147	dominance	030	1.0	1		227.16675581496384	1.2334582616927037
59.0	189.68727390945241	rating	1.0		245	dominance	030	1.0	1		228.40021407665654	2.0502500579564185
59.0	191.73752396740883	fix	2.0		60	dominance	030	1.0	1	0.8700000000000001	230.45046413461296	0.5167620935803825
60.0	192.25428606098922	face	0.0		147	dominance	061	1.0	1		230.96722622819334	1.2334501115665262
60.0	193.48773617255574	rating	1.0		256	dominance	061	1.0	1		232.20067633975987	2.141919662692999
60.0	195.62965583524874	fix	2.0		60	dominance	061	1.0	1	1.6799999999999997	234.34259600245286	0.5167473026103835
61.0	196.14640313785912	face	0.0		147	dominance	044	1.0	1		234.85934330506325	1.233460978401581
61.0	197.3798641162607	rating	1.0		164	dominance	044	1.0	1		236.09280428346483	1.3751660210959926
61.0	198.7550301373567	fix	2.0		60	dominance	044	1.0	1	-0.2400000000000002	237.46797030456082	0.5167536415970062
62.0	199.2717837789537	face	0.0		147	dominance	042	1.0	1		237.98472394615783	1.2334516208488822
62.0	200.5052353998026	rating	1.0		135	dominance	042	1.0	1		239.2181755670067	1.1334658684777423
62.0	201.63870126828033	fix	2.0		60	dominance	042	1.0	1	1.8200000000000003	240.35164143548445	0.5167639047194825
63.0	202.1554651729998	face	0.0		147	dominance	012	1.0	1		240.86840534020394	1.2334996160384435
63.0	203.38896478903825	rating	1.0		309	dominance	012	1.0	1		242.10190495624238	2.5835904144851156
63.0	205.97255520352337	fix	2.0		60	dominance	012	1.0	1	2.01	244.6854953707275	0.5167524341713943
64.0	206.48930763769476	face	0.0		147	dominance	033	1.0	1		245.2022478048989	1.2334639969667478
64.0	207.7227716346615	rating	1.0		133	dominance	033	1.0	1		246.43571180186564	1.1167973504243491
64.0	208.83956898508586	fix	2.0		60	dominance	033	1.0	1	2.7800000000000002	247.55250915228999	0.5167608861538611
65.0	209.35632987123972	face	0.0		147	dominance	092	1.0	1		248.06927003844385	1.233447696713938
65.0	210.58977756795366	rating	1.0		85	dominance	092	1.0	1		249.30271773515778	0.7167511060024481
65.0	211.3065286739561	fix	2.0		60	dominance	092	1.0	1	-2.65	250.01946884116023	0.5167506230318395
66.0	211.82327929698795	face	0.0		147	dominance	006	1.0	1		250.53621946419207	1.2334649025365252
66.0	213.05674419952447	rating	1.0		117	dominance	006	1.0	1		251.7696843667286	0.9834537338447262
66.0	214.0401979333692	fix	2.0		60	dominance	006	1.0	1	-1.62	252.75313810057332	0.5167500193188062
67.0	214.556947952688	face	0.0		147	dominance	136	1.0	1		253.26988811989213	1.2334585635494477
67.0	215.79040651623745	rating	1.0		460	dominance	136	1.0	1		254.50334668344158	3.842127822962084
67.0	219.63253433919954	fix	2.0		60	dominance	136	1.0	1	-1.12	258.34547450640366	0.5167611880110599
68.0	220.1492955272106	face	0.0		147	dominance	036	1.0	1		258.8622356944147	1.233447394857194
68.0	221.3827429220678	rating	1.0		132	dominance	036	1.0	1		260.0956830892719	1.1084627895406811
68.0	222.49120571160847	fix	2.0		60	dominance	036	1.0	1	0.9299999999999997	261.2041458788126	0.516757263875661
69.0	223.00796297548413	face	0.0		147	dominance	005	1.0	1		261.72090314268826	1.2334522245619155
69.0	224.24141520004605	rating	1.0		72	dominance	005	1.0	1		262.9543553672502	0.6084027200899982
69.0	224.84981792013605	fix	2.0		60	dominance	005	1.0	1	-1.69	263.56275808734017	0.5167563583058836
70.0	225.36657427844193	face	0.0		147	dominance	099	1.0	1		264.07951444564605	1.2334522245619155
70.0	226.60002650300385	rating	1.0		260	dominance	099	1.0	1		265.31296667020797	2.1752666600659722
70.0	228.77529316306982	fix	2.0		60	dominance	099	1.0	1	1.33	267.48823333027394	0.516746095183862
71.0	229.29203925825368	face	0.0		147	dominance	039	1.0	1		268.0049794254578	1.2334630913974252
71.0	230.5255023496511	rating	1.0		160	dominance	039	1.0	1		269.23844251685523	1.3418259664240395
71.0	231.86732831607515	fix	2.0		60	dominance	039	1.0	1	-1.35	270.58026848327927	0.5168052590652223
72.0	232.38413357514037	face	0.0		147	dominance	027	1.0	1		271.0970737423445	1.233407549794265
72.0	233.61754112493463	rating	1.0		100	dominance	027	1.0	1		272.33048129213876	0.8417592561290803
72.0	234.4593003810637	fix	2.0		60	dominance	027	1.0	1	-0.8500000000000001	273.17224054826784	0.5167539434537503
73.0	234.97605432451746	face	0.0		147	dominance	124	1.0	1		273.6889944917216	1.2334642988234918
73.0	236.20951862334095	rating	1.0		777	dominance	124	1.0	1		274.9224587905451	6.484106045824319
73.0	242.69362466916527	fix	2.0		60	dominance	124	1.0	1	0.7999999999999998	281.4065648363694	0.5167488118922847
74.0	243.21037348105756	face	0.0		147	dominance	130	1.0	1		281.9233136482617	1.2334621858281025
74.0	244.44383566688566	rating	1.0		166	dominance	130	1.0	1		283.1567758340898	1.3918275964488203
74.0	245.83566326333448	fix	2.0		60	dominance	130	1.0	1	-0.8300000000000001	284.5486034305386	0.5167524341713943
75.0	246.35241569750588	face	0.0		147	dominance	137	1.0	1		285.06535586471	1.2334591672620263
75.0	247.5858748647679	rating	1.0		211	dominance	137	1.0	1		286.298815031972	1.7668837417654686
75.0	249.35275860653337	fix	2.0		60	dominance	137	1.0	1	1.3499999999999996	288.0656987737375	0.5167482081797061
76.0	249.86950681471308	face	0.0		147	dominance	070	1.0	1		288.5824469819172	1.2334618839713585
76.0	251.10296869868444	rating	1.0		88	dominance	070	1.0	1		289.81590886588856	0.7417481478082664
76.0	251.8447168464927	fix	2.0		60	dominance	070	1.0	1	2.16	290.5576570136968	0.5167974107953341
77.0	252.36151425728804	face	0.0		147	dominance	102	1.0	1		291.07445442449216	1.233413586925053
77.0	253.5949278442131	rating	1.0		59	dominance	102	1.0	1		292.3078680114172	0.5000591638813603
77.0	254.09498700809445	fix	2.0		60	dominance	102	1.0	1	-3.02	292.8079271752986	0.5167587731584717
78.0	254.61174578125292	face	0.0		147	dominance	024	1.0	1		293.32468594845705	1.2334540357010155
78.0	255.84519981695394	rating	1.0		89	dominance	024	1.0	1		294.55813998415806	0.7500830105482237
78.0	256.59528282750216	fix	2.0		60	dominance	024	1.0	1	2.3499999999999996	295.3082229947063	0.5167578675886944
79.0	257.11204069509085	face	0.0		147	dominance	034	1.0	1		295.824980862295	1.2334612802583251
79.0	258.3455019753492	rating	1.0		70	dominance	034	1.0	1		297.0584421425533	0.5917281649053621
79.0	258.93723014025454	fix	2.0		60	dominance	034	1.0	1	-1.7200000000000002	297.65017030745867	0.5001065553578883
80.0	259.43733669561243	cue	0.0		480						298.15027686281655	4.000440408689883
80.0	263.4377771043023	fix	1.0		120						302.15071727150644	1.0168091832001664
80.0	264.4545862875025	face	0.0		147	trustworthiness	172	1.0	1		303.1675264547066	1.233459167262481
80.0	265.68804545476496	rating	1.0		98	trustworthiness	172	1.0	1		304.4009856219691	0.8250949640669205
80.0	266.5131404188319	fix	2.0		60	trustworthiness	172	1.0	1	-1.33	305.226080586036	0.516755452736561
81.0	267.02989587156844	face	0.0		147	trustworthiness	011	1.0	1		305.74283603877257	1.233458865405737
81.0	268.2633547369742	rating	1.0		95	trustworthiness	011	1.0	1		306.9762949041783	0.8001021482523356
81.0	269.0634568852265	fix	2.0		60	trustworthiness	011	1.0	1	-0.43999999999999995	307.77639705243064	0.5167524341713943
82.0	269.5802093193979	face	0.0		147	trustworthiness	144	1.0	1		308.29314948660203	1.2334540357010155
82.0	270.8136633550989	rating	1.0		66	trustworthiness	144	1.0	1		309.52660352230305	0.5584092401909402
82.0	271.37207259528986	fix	2.0		60	trustworthiness	144	1.0	1	1.3499999999999996	310.085012762494	0.5167373413441965
83.0	271.88880993663406	face	0.0		147	trustworthiness	070	1.0	1		310.6017501038382	1.2334555449838263
83.0	273.1222654816179	rating	1.0		121	trustworthiness	070	1.0	1		311.835205648822	1.016789260668702
83.0	274.1390547422866	fix	2.0		60	trustworthiness	070	1.0	1	-2.88	312.8519949094907	0.5167629991501599
84.0	274.65581774143675	face	0.0		147	trustworthiness	102	1.0	1		313.3687579086409	1.2334809009330456
84.0	275.8892986423698	rating	1.0		125	trustworthiness	102	1.0	1		314.6022388095739	1.0501009408267237
84.0	276.9393995831965	fix	2.0		60	trustworthiness	102	1.0	1	3.8099999999999996	315.65233975040064	0.5167406617661072
85.0	277.4561402449626	face	0.0		147	trustworthiness	099	1.0	1		316.16908041216675	1.2334600728318037
85.0	278.68960031779443	rating	1.0		235	trustworthiness	099	1.0	1		317.40254048499855	1.9668972045669761
85.0	280.6564975223614	fix	2.0		60	trustworthiness	099	1.0	1	2.0300000000000002	319.36943768956553	0.5167563583058836
86.0	281.1732538806673	face	0.0		147	trustworthiness	036	1.0	1		319.8861940478714	1.233464600680236
86.0	282.4067184813475	rating	1.0		129	trustworthiness	036	1.0	1		321.11965864855165	1.0834663514478962
86.0	283.4901848327954	fix	2.0		60	trustworthiness	036	1.0	1	2.3200000000000003	322.20312499999955	0.5167473026099287
87.0	284.00693213540535	face	0.0		147	trustworthiness	030	1.0	1		322.7198723026095	1.2334558468405703
87.0	285.2403879822459	rating	1.0		416	trustworthiness	030	1.0	1		323.95332814945004	3.4754158979385465
87.0	288.71580388018447	fix	2.0		60	trustworthiness	030	1.0	1	-0.69	327.4287440473886	0.5167476044666728
88.0	289.23255148465114	face	0.0		147	trustworthiness	043	1.0	1		327.94549165185526	1.2334564505536036
88.0	290.46600793520474	rating	1.0		1247	trustworthiness	043	1.0	1		329.17894810240887	10.40124370930971
88.0	300.86725164451445	fix	2.0		60	trustworthiness	043	1.0	1	1.0999999999999996	339.5801918117186	0.5167512267448728
89.0	301.3840028712593	face	0.0		147	trustworthiness	082	1.0	1		340.09694303846345	1.2334582616927037
89.0	302.61746113295203	rating	1.0		167	trustworthiness	082	1.0	1		341.33040130015615	1.4001751371633873
89.0	304.0176362701154	fix	2.0		60	trustworthiness	082	1.0	1	1.4699999999999998	342.73057643731954	0.5167660177153266
90.0	304.53440228783074	face	0.0		147	trustworthiness	012	1.0	1		343.24734245503487	1.2334443762920273
90.0	305.76784666412277	rating	1.0		150	trustworthiness	012	1.0	1		344.4807868313269	1.2584836780133628
90.0	307.02633034213613	fix	2.0		60	trustworthiness	012	1.0	1	-1.38	345.73927050934026	0.5167518304579062
91.0	307.54308217259404	face	0.0		147	trustworthiness	091	1.0	1		346.25602233979816	1.2334516208488822
91.0	308.7765337934429	rating	1.0		91	trustworthiness	091	1.0	1		347.48947396064705	0.7667590750152158
91.0	309.54329286845814	fix	2.0		60	trustworthiness	091	1.0	1	2.7	348.25623303566226	0.5167753752680255
92.0	310.06006824372616	face	0.0		147	trustworthiness	121	1.0	1		348.7730084109303	1.2334350187393284
92.0	311.2935032624655	rating	1.0		60	trustworthiness	121	1.0	1		350.0064434296696	0.5083943284776069
92.0	311.8018975909431	fix	2.0		60	trustworthiness	121	1.0	1	-2.31	350.5148377581472	0.5167886569556686
93.0	312.31868624789877	face	0.0		147	trustworthiness	124	1.0	1		351.0316264151029	1.2334181147730305
93.0	313.5521043626718	rating	1.0		196	trustworthiness	124	1.0	1		352.2650445298759	1.6418879677571567
93.0	315.19399233042896	fix	2.0		60	trustworthiness	124	1.0	1	2.5	353.9069324976331	0.5167334172092524
94.0	315.7107257476382	face	0.0		147	trustworthiness	044	1.0	1		354.42366591484233	1.2334522245619155
94.0	316.9441779722001	rating	1.0		429	trustworthiness	044	1.0	1		355.65711813940425	3.583763378281674
94.0	320.5279413504818	fix	2.0		60	trustworthiness	044	1.0	1	0.40000000000000036	359.2408815176859	0.5167708474200481
95.0	321.04471219790184	face	0.0		147	trustworthiness	009	1.0	1		359.75765236510597	1.2334374335914617
95.0	322.2781496314933	rating	1.0		372	trustworthiness	009	1.0	1		360.99108979869743	3.1087078970499533
95.0	325.38685752854326	fix	2.0		60	trustworthiness	009	1.0	1	2.9400000000000004	364.0997976957474	0.5167629991501599
96.0	325.9036205276934	face	0.0		147	trustworthiness	100	1.0	1		364.61656069489754	1.2334467911441607
96.0	327.1370673188376	rating	1.0		100	trustworthiness	100	1.0	1		365.8500074860417	0.8417818953694223
96.0	327.978849214207	fix	2.0		60	trustworthiness	100	1.0	1	0.9000000000000004	366.6917893814111	0.5167382469135191
97.0	328.4955874611205	face	0.0		147	trustworthiness	117	1.0	1		367.20852762832465	1.233455544984281
97.0	329.7290430061048	rating	1.0		141	trustworthiness	117	1.0	1		368.4419831733089	1.1834777616249994
97.0	330.9125207677298	fix	2.0		60	trustworthiness	117	1.0	1	-2.42	369.6254609349339	0.5167587731584717
98.0	331.4292795408883	face	0.0		147	trustworthiness	005	1.0	1		370.1422197080924	1.233447696713938
98.0	332.6627272376022	rating	1.0		114	trustworthiness	005	1.0	1		371.37566740480634	0.9584479381987876
98.0	333.621175175801	fix	2.0		60	trustworthiness	005	1.0	1	-1.71	372.3341153430051	0.5167506230318395
99.0	334.13792579883284	face	0.0		147	trustworthiness	042	1.0	1		372.85086596603696	1.2334576579796703
99.0	335.3713834568125	rating	1.0		226	trustworthiness	042	1.0	1		374.08432362401663	1.8919030605838998
99.0	337.2632865173964	fix	2.0		60	trustworthiness	042	1.0	1	-2.41	375.97622668460053	0.5167445859010513
100.0	337.78003110329746	face	0.0		147	trustworthiness	034	1.0	1		376.4929712705016	1.23346490253698
100.0	339.01349600583444	rating	1.0		57	trustworthiness	034	1.0	1		377.72643617303856	0.48338913654515636
100.0	339.4968851423796	fix	2.0		60	trustworthiness	034	1.0	1	-0.8300000000000001	378.2098253095837	0.5167448877573406
101.0	340.01363003013694	face	0.0		147	trustworthiness	033	1.0	1		378.72657019734106	1.2334742600896789
101.0	341.2471042902266	rating	1.0		81	trustworthiness	033	1.0	1		379.96004445743074	0.6833986752117198
101.0	341.93050296543834	fix	2.0		60	trustworthiness	033	1.0	1	-1.9700000000000002	380.64344313264246	0.5167690362804933
102.0	342.44727200171883	face	0.0		147	trustworthiness	027	1.0	1		381.16021216892295	1.2334401503003392
102.0	343.68071215201917	rating	1.0		226	trustworthiness	027	1.0	1		382.3936523192233	1.8918915900358115
102.0	345.572603742055	fix	2.0		60	trustworthiness	027	1.0	1	-0.31000000000000005	384.2855439092591	0.5167566601630824
103.0	346.08936040221806	face	0.0		147	trustworthiness	006	1.0	1		384.8023005694222	1.2334561486968596
103.0	347.3228165509149	rating	1.0		129	trustworthiness	006	1.0	1		386.03575671811905	1.0834805387048618
103.0	348.4062970896198	fix	2.0		61	trustworthiness	006	1.0	1	-1.92	387.1192372568239	0.5250770337888753
104.0	348.93137412340866	face	0.0		146	trustworthiness	126	1.0	1		387.6443142906128	1.2251143432567915
104.0	350.15648846666545	rating	1.0		158	trustworthiness	126	1.0	1		388.8694286338696	1.325173748623456
104.0	351.4816622152889	fix	2.0		60	trustworthiness	126	1.0	1	1.17	390.19460238249303	0.5167349264920631
105.0	351.99839714178097	face	0.0		147	trustworthiness	062	1.0	1		390.7113373089851	1.233462185827193
105.0	353.23185932760816	rating	1.0		152	trustworthiness	062	1.0	1		391.9447994948123	1.2751470645052905
105.0	354.50700639211345	fix	2.0		60	trustworthiness	062	1.0	1	-1.37	393.2199465593176	0.5167557545937598
106.0	355.0237621467072	face	0.0		147	trustworthiness	130	1.0	1		393.73670231391134	1.2334570542661822
106.0	356.2572192009734	rating	1.0		428	trustworthiness	130	1.0	1		394.9701593681775	3.575427911829138
106.0	359.83264711280253	fix	2.0		60	trustworthiness	130	1.0	1	0.6500000000000004	398.54558728000666	0.5167566601621729
107.0	360.3494037729647	face	0.0		147	trustworthiness	066	1.0	1		399.06234394016883	1.23346852481518
107.0	361.5828722977799	rating	1.0		123	trustworthiness	066	1.0	1		400.295812464984	1.0334499304526616
107.0	362.61632222823255	fix	2.0		60	trustworthiness	066	1.0	1	-0.7599999999999998	401.3292623954367	0.5167503211750955
108.0	363.13307254940764	face	0.0		147	trustworthiness	137	1.0	1		401.84601271661177	1.2334582616931584
108.0	364.3665308111008	rating	1.0		98	trustworthiness	137	1.0	1		403.0794709783049	0.8250910399319764
108.0	365.1916218510328	fix	2.0		60	trustworthiness	137	1.0	1	1.25	403.9045620182369	0.516756962018917
109.0	365.7083788130517	face	0.0		147	trustworthiness	024	1.0	1		404.4213189802558	1.2334555449833715
109.0	366.94183435803507	rating	1.0		211	trustworthiness	024	1.0	1		405.6547745252392	1.7668912881790675
109.0	368.70872564621413	fix	2.0		60	trustworthiness	024	1.0	1	-1.9900000000000002	407.42166581341826	0.5167400580530739
110.0	369.2254657042672	face	0.0		147	trustworthiness	141	1.0	1		407.93840587147133	1.233458865405737
110.0	370.45892456967294	rating	1.0		129	trustworthiness	141	1.0	1		409.17186473687707	1.0834575976086853
110.0	371.54238216728163	fix	2.0		60	trustworthiness	141	1.0	1	1.0899999999999999	410.25532233448575	0.516756962018917
111.0	372.05913912930055	face	0.0		147	trustworthiness	087	1.0	1		410.77207929650467	1.233454941270793
111.0	373.29259407057134	rating	1.0		316	trustworthiness	087	1.0	1		412.00553423777546	2.6419806377143686
111.0	375.9345747082857	fix	2.0		60	trustworthiness	087	1.0	1	-0.04999999999999982	414.64751487548983	0.5167611880106051
112.0	376.4513358962963	face	0.0		147	trustworthiness	039	1.0	1		415.16427606350044	1.2334540357014703
112.0	377.6847899319978	rating	1.0		131	trustworthiness	039	1.0	1		416.3977300992019	1.1001261156616238
112.0	378.7849160476594	fix	2.0		60	trustworthiness	039	1.0	1	2.05	417.49785621486353	0.516756962018917
113.0	379.3016730096783	face	0.0		147	trustworthiness	136	1.0	1		418.01461317688245	1.233458865405737
113.0	380.53513187508406	rating	1.0		93	trustworthiness	136	1.0	1		419.2480720422882	0.78348826623278
113.0	381.31862014131684	fix	2.0		60	trustworthiness	136	1.0	1	-2.91	420.03156030852097	0.516695081429134
114.0	381.835315222746	face	0.0		147	trustworthiness	061	1.0	1		420.5482553899501	1.2334464892874166
114.0	383.0687617120334	rating	1.0		219	trustworthiness	061	1.0	1		421.7817018792375	1.833553286131064
114.0	384.90231499816446	fix	2.0		60	trustworthiness	061	1.0	1	0.41999999999999993	423.6152551653686	0.5167533397407169
115.0	385.4190683379052	face	0.0		147	trustworthiness	018	1.0	1		424.1320085051093	1.2334615821146144
115.0	386.6525299200198	rating	1.0		229	trustworthiness	018	1.0	1		425.3654700872239	1.9168913485500525
115.0	388.56942126856984	fix	2.0		60	trustworthiness	018	1.0	1	3.3499999999999996	427.28236143577396	0.5167527360281383
116.0	389.086174004598	face	0.0		147	trustworthiness	038	1.0	1		427.7991141718021	1.233458865405737
116.0	390.3196328700037	rating	1.0		73	trustworthiness	038	1.0	1		429.03257303720784	0.6167454310989342
116.0	390.93637830110265	fix	2.0		60	trustworthiness	038	1.0	1	-2.17	429.6493184683068	0.5167599805845384
117.0	391.4531382816872	face	0.0		147	trustworthiness	101	1.0	1		430.1660784488913	1.2334923714815886
117.0	392.6866306531688	rating	1.0		249	trustworthiness	101	1.0	1		431.3995708203729	2.125203753163987
117.0	394.81183440633276	fix	2.0		60	trustworthiness	101	1.0	1	-0.6800000000000002	433.5247745735369	0.5167515286011621
118.0	395.3285859349339	face	0.0		147	trustworthiness	064	1.0	1		434.04152610213805	1.2334652043928145
118.0	396.56205113932674	rating	1.0		83	trustworthiness	064	1.0	1		435.27499130653086	0.7000816823792775
118.0	397.262132821706	fix	2.0		60	trustworthiness	064	1.0	1	1.1900000000000004	435.97507298891014	0.5167633010069039
119.0	397.7788961227129	face	0.0		147	trustworthiness	092	1.0	1		436.49183628991705	1.2334525264186595
119.0	399.0123486491316	rating	1.0		256	trustworthiness	092	1.0	1		437.7252888163357	2.1419118144231106
119.0	401.1542604635547	fix	2.0		60	trustworthiness	092	1.0	1	-2.21	439.8672006307588	0.5000772752737248
120.0	401.6543377388284	cue	0.0		3600						440.36727790603254	30.003578509264116
120.0	431.65791624809253	fix	1.0		120						470.37085641529666	1.000130703881041
120.0	432.6580469519736	cue	0.0		480						471.3709871191777	4.000466972064714
120.0	436.6585139240383	fix	1.0		120						475.3714540912424	1.0168182388961213
120.0	437.6753321629344	face	0.0		147	trustworthiness	034	2.0	1		476.38827233013853	1.2334525264186595
120.0	438.90878468935307	rating	1.0		73	trustworthiness	034	2.0	1		477.6217248565572	0.616744223673777
120.0	439.52552891302685	fix	2.0		60	trustworthiness	034	2.0	1	-0.8799999999999999	478.23846908023097	0.5167466988968954
121.0	440.04227561192374	face	0.0		147	trustworthiness	099	2.0	1		478.75521577912787	1.2335071624520424
121.0	441.2757827743758	rating	1.0		71	trustworthiness	099	2.0	1		479.9887229415799	0.6000210695856367
121.0	441.8758038439614	fix	2.0		60	trustworthiness	099	2.0	1	1.4800000000000004	480.58874401116555	0.5167590750152158
122.0	442.39256291897664	face	0.0		147	trustworthiness	066	2.0	1		481.10550308618076	1.2334975030425994
122.0	443.62606042201924	rating	1.0		40	trustworthiness	066	2.0	1		482.33900058922336	0.34166054904108023
122.0	443.9677209710603	fix	2.0		60	trustworthiness	066	2.0	1	-0.6400000000000001	482.68066113826444	0.5167521323146502
123.0	444.48447310337497	face	0.0		147	trustworthiness	039	2.0	1		483.1974132705791	1.2334627895406811
123.0	445.71793589291565	rating	1.0		82	trustworthiness	039	2.0	1		484.4308760601198	0.6917474233523535
123.0	446.409683316268	fix	2.0		60	trustworthiness	039	2.0	1	1.96	485.1226234834721	0.516753641597461
124.0	446.92643695786546	face	0.0		147	trustworthiness	036	2.0	1		485.6393771250696	1.2334573561229263
124.0	448.1598943139884	rating	1.0		79	trustworthiness	036	2.0	1		486.8728344811925	0.6667473629813685
124.0	448.82664167696976	fix	2.0		60	trustworthiness	036	2.0	1	1.17	487.5395818441739	0.5167482081797061
125.0	449.34338988514946	face	0.0		147	trustworthiness	091	2.0	1		488.0563300523536	1.2334642988234918
125.0	450.57685418397296	rating	1.0		218	trustworthiness	091	2.0	1		489.2897943511771	1.8252090658388624
125.0	452.4020632498118	fix	2.0		60	trustworthiness	091	2.0	1	-0.4500000000000002	491.11500341701594	0.5167542453100396
126.0	452.91881749512186	face	0.0		147	trustworthiness	024	2.0	1		491.631757662326	1.2334513189925929
126.0	454.15226881411445	rating	1.0		113	trustworthiness	024	2.0	1		492.8652089813186	0.9501281682860281
126.0	455.1023969824005	fix	2.0		60	trustworthiness	024	2.0	1	-1.85	493.8153371496046	0.516743982188018
127.0	455.6191409645885	face	0.0		147	trustworthiness	038	2.0	1		494.3320811317926	1.233458261692249
127.0	456.85259922628074	rating	1.0		173	trustworthiness	038	2.0	1		495.56553939348487	1.4501713337713227
127.0	458.30277056005207	fix	2.0		60	trustworthiness	038	2.0	1	-2.08	497.0157107272562	0.516753943454205
128.0	458.8195245035063	face	0.0		147	trustworthiness	137	2.0	1		497.5324646707104	1.233478184224623
128.0	460.0530026877309	rating	1.0		133	trustworthiness	137	2.0	1		498.765942854935	1.116777126035231
128.0	461.1697798137661	fix	2.0		60	trustworthiness	137	2.0	1	0.8700000000000001	499.88271998097025	0.5167551508802717
129.0	461.6865349646464	face	0.0		147	trustworthiness	144	2.0	1		500.3994751318505	1.2334612802578704
129.0	462.91999624490427	rating	1.0		114	trustworthiness	144	2.0	1		501.6329364121084	0.958459106891496
129.0	463.87845535179576	fix	2.0		60	trustworthiness	144	2.0	1	1.6600000000000001	502.5913955189999	0.5167844309635257
130.0	464.3952397827593	face	0.0		147	trustworthiness	087	2.0	1		503.1081799499634	1.2334114739296638
130.0	465.62865125668895	rating	1.0		124	trustworthiness	087	2.0	1		504.3415914238931	1.0417878117577857
130.0	466.67043906844674	fix	2.0		60	trustworthiness	087	2.0	1	0.5099999999999998	505.38337923565086	0.5167530378839729
131.0	467.1871921063307	face	0.0		147	trustworthiness	141	2.0	1		505.90013227353484	1.2334652043928145
131.0	468.4206573107235	rating	1.0		293	trustworthiness	141	2.0	1		507.13359747792765	2.4502854355432646
131.0	470.8709427462668	fix	2.0		60	trustworthiness	141	2.0	1	-1.0	509.5838829134709	0.5167524341704848
132.0	471.3876951804373	face	0.0		147	trustworthiness	064	2.0	1		510.1006353476414	1.2335032383170983
132.0	472.6211984187544	rating	1.0		106	trustworthiness	064	2.0	1		511.3341385859585	0.8917261726528523
132.0	473.5129245914072	fix	2.0		60	trustworthiness	064	2.0	1	1.7400000000000002	512.2258647586114	0.5167548490226181
133.0	474.02967944042985	face	0.0		147	trustworthiness	092	2.0	1		512.742619607634	1.233456148697769
133.0	475.2631355891276	rating	1.0		531	trustworthiness	092	2.0	1		513.9760757563317	4.433865647276434
133.0	479.69700123640405	fix	2.0		60	trustworthiness	092	2.0	1	-0.2200000000000002	518.4099414036082	0.5167545471667836
134.0	480.21375578357083	face	0.0		147	trustworthiness	062	2.0	1		518.926695950775	1.2334546394149584
134.0	481.4472104229858	rating	1.0		164	trustworthiness	062	2.0	1		520.1601505901899	1.375166624809026
134.0	482.8223770477948	fix	2.0		60	trustworthiness	062	2.0	1	-2.7199999999999998	521.5353172149989	0.5167723567028588
135.0	483.3391494044977	face	0.0		147	trustworthiness	100	2.0	1		522.0520895717018	1.233436226165395
135.0	484.57258563066307	rating	1.0		290	trustworthiness	100	2.0	1		523.2855257978672	2.425288393736082
135.0	486.99787402439915	fix	2.0		60	trustworthiness	100	2.0	1	1.54	525.7108141916033	0.5168085794875878
136.0	487.51468260388674	face	0.0		147	trustworthiness	117	2.0	1		526.2276227710909	1.23340030523741
136.0	488.74808290912415	rating	1.0		127	trustworthiness	117	2.0	1		527.4610230763283	1.066803568668547
136.0	489.8148864777927	fix	2.0		60	trustworthiness	117	2.0	1	-3.1	528.5278266449968	0.5167678288544266
137.0	490.3316543066471	face	0.0		147	trustworthiness	130	2.0	1		529.0445944738512	1.2334359243095605
137.0	491.5650902309567	rating	1.0		320	trustworthiness	130	2.0	1		530.2780303981608	2.675324616520811
137.0	494.2404148474775	fix	2.0		60	trustworthiness	130	2.0	1	-0.20999999999999996	532.9533550146816	0.516754245310949
138.0	494.75716909278844	face	0.0		147	trustworthiness	061	2.0	1		533.4701092599926	1.2334498097088726
138.0	495.9906189024973	rating	1.0		79	trustworthiness	061	2.0	1		534.7035590697014	0.6667461555553018
138.0	496.6573650580526	fix	2.0		60	trustworthiness	061	2.0	1	0.5999999999999996	535.3703052252567	0.5167678288544266
139.0	497.17413288690705	face	0.0		147	trustworthiness	126	2.0	1		535.8870730541112	1.2334437725794487
139.0	498.4075766594865	rating	1.0		213	trustworthiness	126	2.0	1		537.1205168266906	1.783550750536051
139.0	500.19112741002255	fix	2.0		60	trustworthiness	126	2.0	1	0.7699999999999996	538.9040675772267	0.516743982188018
140.0	500.70787139221056	face	0.0		147	trustworthiness	030	2.0	1		539.4208115594147	1.2334652043928145
140.0	501.9413365966034	rating	1.0		68	trustworthiness	030	2.0	1		540.6542767638075	0.5750632691306237
140.0	502.516399865734	fix	2.0		60	trustworthiness	030	2.0	1	-0.8500000000000001	541.2293400329381	0.5167587731584717
141.0	503.0331586388925	face	0.0		147	trustworthiness	027	2.0	1		541.7460988060966	1.2334507152791048
141.0	504.2666093541716	rating	1.0		404	trustworthiness	027	2.0	1		542.9795495213757	3.375405997044254
141.0	507.64201535121583	fix	2.0		60	trustworthiness	027	2.0	1	0.9699999999999998	546.35495551842	0.5167473026103835
142.0	508.1587626538262	face	0.0		147	trustworthiness	136	2.0	1		546.8717028210303	1.233462185827193
142.0	509.3922248396534	rating	1.0		456	trustworthiness	136	2.0	1		548.1051650068575	3.808787164577552
142.0	513.201012004231	fix	2.0		60	trustworthiness	136	2.0	1	-1.4900000000000002	551.9139521714351	0.5167530378839729
143.0	513.7177650421149	face	0.0		147	trustworthiness	012	2.0	1		552.4307052093191	1.2335053513124876
143.0	514.9512703934274	rating	1.0		88	trustworthiness	012	2.0	1		553.6642105606315	0.7417173584417469
143.0	515.6929877518692	fix	2.0		60	trustworthiness	012	2.0	1	-2.0300000000000002	554.4059279190733	0.5167454914708287
144.0	516.20973324334	face	0.0		147	trustworthiness	033	2.0	1		554.9226734105441	1.2334546394140489
144.0	517.443187882754	rating	1.0		91	trustworthiness	033	2.0	1		556.1561280499582	0.7667566601621729
144.0	518.2099445429162	fix	2.0		60	trustworthiness	033	2.0	1	-1.94	556.9228847101203	0.5167533397407169
145.0	518.7266978826569	face	0.0		147	trustworthiness	101	2.0	1		557.4396380498611	1.2334564505536036
145.0	519.9601543332105	rating	1.0		216	trustworthiness	101	2.0	1		558.6730945004147	1.8085462830595134
145.0	521.76870061627	fix	2.0		60	trustworthiness	101	2.0	1	-0.5800000000000001	560.4816407834742	0.5167557545928503
146.0	522.2854563708629	face	0.0		147	trustworthiness	005	2.0	1		560.998396538067	1.2334673173891133
146.0	523.518923688252	rating	1.0		92	trustworthiness	005	2.0	1		562.2318638554561	0.7750833727759527
146.0	524.294007061028	fix	2.0		60	trustworthiness	005	2.0	1	-1.31	563.0069472282321	0.5167527360272288
147.0	524.8107597970552	face	0.0		147	trustworthiness	082	2.0	1		563.5236999642593	1.2334567524103477
147.0	526.0442165494655	rating	1.0		195	trustworthiness	082	2.0	1		564.7571567166697	1.633537106620679
147.0	527.6777536560862	fix	2.0		60	trustworthiness	082	2.0	1	0.5800000000000001	566.3906938232903	0.5167424729052073
148.0	528.1944961289914	face	0.0		147	trustworthiness	011	2.0	1		566.9074362961956	1.2334609784020358
148.0	529.4279571073935	rating	1.0		214	trustworthiness	011	2.0	1		568.1408972745976	1.7918807835712869
148.0	531.2198378909648	fix	2.0		60	trustworthiness	011	2.0	1	-0.3999999999999999	569.9327780581689	0.5167545471667836
149.0	531.7365924381315	face	0.0		147	trustworthiness	102	2.0	1		570.4495326053357	1.2334543375573048
149.0	532.9700467756888	rating	1.0		93	trustworthiness	102	2.0	1		571.682986942893	0.7834710604101929
149.0	533.753517836099	fix	2.0		60	trustworthiness	102	2.0	1	2.01	572.4664580033032	0.516708363116777
150.0	534.2702261992158	face	0.0		147	trustworthiness	044	2.0	1		572.9831663664199	1.233458563548993
150.0	535.5036847627648	rating	1.0		497	trustworthiness	044	2.0	1		574.2166249299689	4.150494803237962
150.0	539.6541795660028	fix	2.0		60	trustworthiness	044	2.0	1	-0.33000000000000007	578.3671197332069	0.5167506230318395
151.0	540.1709301890346	face	0.0		147	trustworthiness	018	2.0	1		578.8838703562387	1.2334639969667478
151.0	541.4043941860014	rating	1.0		108	trustworthiness	018	2.0	1		580.1173343532055	0.9084363469082746
151.0	542.3128305329096	fix	2.0		60	trustworthiness	018	2.0	1	3.12	581.0257707001138	0.516766923285104
152.0	542.8295974561947	face	0.0		147	trustworthiness	121	2.0	1		581.5425376233989	1.2334461874306726
152.0	544.0630436436254	rating	1.0		334	trustworthiness	121	2.0	1		582.7759838108295	2.791998507621429
152.0	546.8550421512468	fix	2.0		60	trustworthiness	121	2.0	1	-3.4	585.567982318451	0.5167563583063384
153.0	547.3717985095532	face	0.0		147	trustworthiness	009	2.0	1		586.0847386767573	1.233452828274494
153.0	548.6052513378277	rating	1.0		107	trustworthiness	009	2.0	1		587.3181915050318	0.9001063138730387
153.0	549.5053576517007	fix	2.0		60	trustworthiness	009	2.0	1	2.2199999999999998	588.2182978189048	0.5167521323146502
154.0	550.0221097840154	face	0.0		147	trustworthiness	124	2.0	1		588.7350499512195	1.2334600728318037
154.0	551.2555698568472	rating	1.0		90	trustworthiness	124	2.0	1		589.9685100240513	0.758425721558524
154.0	552.0139955784057	fix	2.0		60	trustworthiness	124	2.0	1	1.92	590.7269357456098	0.5167545471667836
155.0	552.5307501255725	face	0.0		147	trustworthiness	042	2.0	1		591.2436902927766	1.233452828274494
155.0	553.764202953847	rating	1.0		301	trustworthiness	042	2.0	1		592.4771431210511	2.5169670541699816
155.0	556.2811700080169	fix	2.0		60	trustworthiness	042	2.0	1	-0.1499999999999999	594.9941101752211	0.516753641597461
156.0	556.7979236496144	face	0.0		147	trustworthiness	043	2.0	1		595.5108638168185	1.2334573561229263
156.0	558.0313810057373	rating	1.0		104	trustworthiness	043	2.0	1		596.7443211729415	0.8751035367931763
156.0	558.9064845425305	fix	2.0		60	trustworthiness	043	2.0	1	0.41999999999999993	597.6194247097346	0.5167593768710503
157.0	559.4232439194016	face	0.0		147	trustworthiness	070	2.0	1		598.1361840866057	1.2334498097097821
157.0	560.6566937291113	rating	1.0		62	trustworthiness	070	2.0	1		599.3696338963155	0.5250634502444882
157.0	561.1817571793558	fix	2.0		60	trustworthiness	070	2.0	1	-2.6	599.89469734656	0.5167500193183514
158.0	561.6985071986742	face	0.0		147	trustworthiness	172	2.0	1		600.4114473658783	1.2334676192458573
158.0	562.93197481792	rating	1.0		81	trustworthiness	172	2.0	1		601.6449149851242	0.6834062216257735
158.0	563.6153810395458	fix	2.0		60	trustworthiness	172	2.0	1	-1.2999999999999998	602.3283212067499	0.5167536415965515
159.0	564.1321346811424	face	0.0		147	trustworthiness	006	2.0	1		602.8450748483465	1.2334597709759691
159.0	565.3655944521183	rating	1.0		137	trustworthiness	006	2.0	1		604.0785346193225	1.15013468838697
159.0	566.5157291405053	fix	2.0		60	trustworthiness	006	2.0	1	-1.06	605.2286693077094	0.500058560168327
160.0	567.0157877006736	cue	0.0		480						605.7287278678778	4.000479650039779
160.0	571.0162673507134	fix	1.0		120						609.7292075179175	1.016812805479276
160.0	572.0330801561927	face	0.0		147	dominance	027	2.0	1		610.7460203233968	1.2334597709750597
160.0	573.2665399271677	rating	1.0		61	dominance	027	2.0	1		611.9794800943719	0.5167264745086868
160.0	573.7832664016764	fix	2.0		60	dominance	027	2.0	1	-1.9100000000000001	612.4962065688806	0.5167488118931942
161.0	574.3000152135696	face	0.0		147	dominance	034	2.0	1		613.0129553807737	1.2334618839713585
161.0	575.533477097541	rating	1.0		82	dominance	034	2.0	1		614.2464172647451	0.6917471214956095
161.0	576.2252242190366	fix	2.0		60	dominance	034	2.0	1	0.6900000000000004	614.9381643862407	0.5167563583063384
162.0	576.7419805773429	face	0.0		147	dominance	011	2.0	1		615.454920744547	1.2334636951100038
162.0	577.9754442724529	rating	1.0		304	dominance	011	2.0	1		616.688384439657	2.541958964415244
162.0	580.5174032368682	fix	2.0		60	dominance	011	2.0	1	-0.1299999999999999	619.2303434040723	0.5167554527361062
163.0	581.0341586896043	face	0.0		147	dominance	092	2.0	1		619.7470988568084	1.2334567524103477
163.0	582.2676154420146	rating	1.0		67	dominance	092	2.0	1		620.9805556092188	0.5667353490907772
163.0	582.8343507911054	fix	2.0		60	dominance	092	2.0	1	-0.6299999999999999	621.5472909583095	0.5167545471667836
164.0	583.3511053382722	face	0.0		147	dominance	066	2.0	1		622.0640455054763	1.2334582616931584
164.0	584.5845635999653	rating	1.0		105	dominance	066	2.0	1		623.2975037671695	0.8834341735409907
164.0	585.4679977735063	fix	2.0		60	dominance	066	2.0	1	2.24	624.1809379407105	0.5167518304579062
165.0	585.9847496039642	face	0.0		147	dominance	136	2.0	1		624.6976897711684	1.2334597709750597
165.0	587.2182093749393	rating	1.0		199	dominance	136	2.0	1		625.9311495421434	1.6668644833180224
165.0	588.8850738582573	fix	2.0		60	dominance	136	2.0	1	-1.79	627.5980140254615	0.516754245310949
166.0	589.4018281035683	face	0.0		147	dominance	126	2.0	1		628.1147682707724	1.2334576579796703
166.0	590.635285761548	rating	1.0		100	dominance	126	2.0	1		629.3482259287521	0.8417731415293019
166.0	591.4770589030772	fix	2.0		60	dominance	126	2.0	1	0.5300000000000002	630.1899990702814	0.5167497174625169
167.0	591.9938086205398	face	0.0		147	dominance	144	2.0	1		630.7067487877439	1.2334603746885477
167.0	593.2272689952283	rating	1.0		349	dominance	144	2.0	1		631.9402091624324	2.9170072614606397
167.0	596.144276256689	fix	2.0		60	dominance	144	2.0	1	-0.9700000000000002	634.8572164238931	0.5167566601630824
168.0	596.661032916852	face	0.0		147	dominance	044	2.0	1		635.3739730840562	1.233454941270793
168.0	597.8944878581228	rating	1.0		37	dominance	044	2.0	1		636.607428025327	0.3167042578670589
168.0	598.2111921159899	fix	2.0		60	dominance	044	2.0	1	0.20999999999999996	636.924132283194	0.5167503211750955
169.0	598.727942437165	face	0.0		147	dominance	006	2.0	1		637.4408826043691	1.233459469119225
169.0	599.9614019062842	rating	1.0		500	dominance	006	2.0	1		638.6743420734883	4.175499995169957
169.0	604.1369019014542	fix	2.0		60	dominance	006	2.0	1	-2.25	642.8498420686583	0.5167530378848824
170.0	604.653654939339	face	0.0		147	dominance	018	2.0	1		643.3665951065432	1.2334558468401156
170.0	605.8871107861792	rating	1.0		196	dominance	018	2.0	1		644.6000509533833	1.6418638192335493
170.0	607.5289746054127	fix	2.0		60	dominance	018	2.0	1	-3.05	646.2419147726168	0.5167533397407169
171.0	608.0457279451534	face	0.0		147	dominance	005	2.0	1		646.7586681123576	1.2334570542670917
171.0	609.2791849994205	rating	1.0		142	dominance	005	2.0	1		647.9921251666246	1.1918080965169793
171.0	610.4709930959375	fix	2.0		60	dominance	005	2.0	1	-1.9900000000000002	649.1839332631416	0.5167506230318395
172.0	610.9877437189693	face	0.0		147	dominance	070	2.0	1		649.7006838861735	1.2334603746885477
172.0	612.2212040936579	rating	1.0		78	dominance	070	2.0	1		650.934144260862	0.6584103872455671
172.0	612.8796144809035	fix	2.0		60	dominance	070	2.0	1	2.33	651.5925546481076	0.5167539434532955
173.0	613.3963684243568	face	0.0		147	dominance	030	2.0	1		652.1093085915609	1.2334561486968596
173.0	614.6298245730536	rating	1.0		80	dominance	030	2.0	1		653.3427647402577	0.675078905299415
173.0	615.304903478353	fix	2.0		60	dominance	030	2.0	1	0.9000000000000004	654.0178436455572	0.5167533397407169
174.0	615.8216568180937	face	0.0		147	dominance	087	2.0	1		654.5345969852979	1.233459469119225
174.0	617.055116287213	rating	1.0		185	dominance	087	2.0	1		655.7680564544171	1.5501833476610045
174.0	618.605299634874	fix	2.0		60	dominance	087	2.0	1	-0.31000000000000005	657.3182398020781	0.5167533397407169
175.0	619.1220529746147	face	0.0		147	dominance	130	2.0	1		657.8349931418188	1.2335005216082209
175.0	620.3555534962229	rating	1.0		628	dominance	130	2.0	1		659.068493663427	5.242249833375354
175.0	625.5978033295983	fix	2.0		60	dominance	130	2.0	1	-1.2400000000000002	664.3107434968024	0.5167521323146502
176.0	626.1145554619129	face	0.0		147	dominance	082	2.0	1		664.827495629117	1.233458563548993
176.0	627.3480140254619	rating	1.0		60	dominance	082	2.0	1		666.060954192666	0.5083916117691842
176.0	627.8564056372311	fix	2.0		60	dominance	082	2.0	1	0.6399999999999997	666.5693458044352	0.5167548490235276
177.0	628.3731604862546	face	0.0		147	dominance	121	2.0	1		667.0861006534587	1.2334594691183156
177.0	629.6066199553729	rating	1.0		66	dominance	121	2.0	1		668.3195601225771	0.5584412369844358
177.0	630.1650611923574	fix	2.0		60	dominance	121	2.0	1	1.87	668.8780013595615	0.5167068538339663
178.0	630.6817680461913	face	0.0		147	dominance	137	2.0	1		669.3947082133955	1.2334597709750597
178.0	631.9152278171664	rating	1.0		95	dominance	137	2.0	1		670.6281679843705	0.8000936962698688
178.0	632.7153215134363	fix	2.0		60	dominance	137	2.0	1	0.8200000000000003	671.4282616806404	0.5167512267444181
179.0	633.2320727401807	face	0.0		147	dominance	141	2.0	1		671.9450129073848	1.2334618839713585
179.0	634.465534624152	rating	1.0		62	dominance	141	2.0	1		673.1784747913562	0.5250604316788667
179.0	634.9905950558309	fix	2.0		60	dominance	141	2.0	1	-3.12	673.703535223035	0.5167515286020716
180.0	635.507346584433	face	0.0		147	dominance	009	2.0	1		674.2202867516371	1.2334603746885477
180.0	636.7408069591215	rating	1.0		69	dominance	009	2.0	1		675.4537471263257	0.5834014522915822
180.0	637.3242084114131	fix	2.0		60	dominance	009	2.0	1	-2.19	676.0371485786172	0.5167581694458931
181.0	637.840966580859	face	0.0		147	dominance	033	2.0	1		676.5539067480631	1.233454941270793
181.0	639.0744215221298	rating	1.0		73	dominance	033	2.0	1		677.7873616893339	0.6167402995379234
181.0	639.6911618216677	fix	2.0		60	dominance	033	2.0	1	2.49	678.4041019888718	0.5167488118931942
182.0	640.2079106335609	face	0.0		147	dominance	117	2.0	1		678.920850800765	1.2334579598355049
182.0	641.4413685933964	rating	1.0		85	dominance	117	2.0	1		680.1543087606005	0.7167517097159362
182.0	642.1581203031124	fix	2.0		60	dominance	117	2.0	1	3.37	680.8710604703165	0.5167512267444181
183.0	642.6748715298568	face	0.0		147	dominance	061	2.0	1		681.3878116970609	1.2334600728318037
183.0	643.9083316026886	rating	1.0		210	dominance	061	2.0	1		682.6212717698927	1.7585428418951778
183.0	645.6668744445838	fix	2.0		60	dominance	061	2.0	1	2.1100000000000003	684.3798146117879	0.5167497174625169
184.0	646.1836241620463	face	0.0		147	dominance	043	2.0	1		684.8965643292504	1.2334609784011263
184.0	647.4170851404474	rating	1.0		205	dominance	043	2.0	1		686.1300253076515	1.7168694337660781
184.0	649.1339545742135	fix	2.0		60	dominance	043	2.0	1	0.6600000000000001	687.8468947414176	0.5167536415965515
185.0	649.65070821581	face	0.0		147	dominance	062	2.0	1		688.3636483830142	1.2334546394149584
185.0	650.884162855225	rating	1.0		177	dominance	062	2.0	1		689.5971030224291	1.4835128977256318
185.0	652.3676757529506	fix	2.0		60	dominance	062	2.0	1	-0.6699999999999999	691.0806159201547	0.5167530378839729
186.0	652.8844287908346	face	0.0		147	dominance	091	2.0	1		691.5973689580387	1.2334585635499025
186.0	654.1178873543845	rating	1.0		226	dominance	091	2.0	1		692.8308275215886	1.8918897788962568
186.0	656.0097771332807	fix	2.0		60	dominance	091	2.0	1	-1.7999999999999998	694.7227173004849	0.5167575657314956
187.0	656.5265346990122	face	0.0		147	dominance	012	2.0	1		695.2394748662164	1.2334543375582143
187.0	657.7599890365705	rating	1.0		103	dominance	012	2.0	1		696.4729292037746	0.866770485192319
187.0	658.6267595217628	fix	2.0		60	dominance	012	2.0	1	2.2300000000000004	697.3396996889669	0.5167542453100396
188.0	659.1435137670728	face	0.0		147	dominance	038	2.0	1		697.8564539342769	1.233458865405737
188.0	660.3769726324786	rating	1.0		507	dominance	038	2.0	1		699.0899127996827	4.233835884222572
188.0	664.6108085167011	fix	2.0		60	dominance	038	2.0	1	-2.77	703.3237486839053	0.5167548490235276
189.0	665.1275633657247	face	0.0		147	dominance	039	2.0	1		703.8405035329288	1.233454941270793
189.0	666.3610183069954	rating	1.0		220	dominance	039	2.0	1		705.0739584741996	1.8418941860009
189.0	668.2029124929963	fix	2.0		60	dominance	039	2.0	1	-3.48	706.9158526602005	0.5167482081797061
190.0	668.719660701176	face	0.0		147	dominance	024	2.0	1		707.4326008683802	1.2334543375582143
190.0	669.9531150387343	rating	1.0		78	dominance	024	2.0	1		708.6660552059384	0.6584112928148897
190.0	670.6115263315492	fix	2.0		60	dominance	024	2.0	1	1.4000000000000004	709.3244664987533	0.5167548490235276
191.0	671.1282811805727	face	0.0		147	dominance	124	2.0	1		709.8412213477768	1.2334576579796703
191.0	672.3617388385524	rating	1.0		161	dominance	124	2.0	1		711.0746790057565	1.350166564438041
191.0	673.7119054029904	fix	2.0		60	dominance	124	2.0	1	-0.7599999999999998	712.4248455701945	0.5167527360272288
192.0	674.2286581390176	face	0.0		147	dominance	099	2.0	1		712.9415983062217	1.233452224562825
192.0	675.4621103635805	rating	1.0		299	dominance	099	2.0	1		714.1750505307846	2.5003257032049078
192.0	677.9624360667854	fix	2.0		60	dominance	099	2.0	1	0.3099999999999996	716.6753762339895	0.5167198336648653
193.0	678.4791559004502	face	0.0		147	dominance	036	2.0	1		717.1920960676543	1.2334615821146144
193.0	679.7126174825648	rating	1.0		58	dominance	036	2.0	1		718.425557649769	0.49172490485489107
193.0	680.2043423874197	fix	2.0		60	dominance	036	2.0	1	-0.7400000000000002	718.9172825546239	0.5167943922297127
194.0	680.7211367796494	face	0.0		147	dominance	042	2.0	1		719.4340769468536	1.2334175110599972
194.0	681.9545542907094	rating	1.0		59	dominance	042	2.0	1		720.6674944579136	0.5000600694511377
194.0	682.4546143601606	fix	2.0		60	dominance	042	2.0	1	1.4800000000000004	721.1675545273647	0.5167509248885835
195.0	682.9713652850492	face	0.0		147	dominance	100	2.0	1		721.6843054522533	1.2334579598364144
195.0	684.2048232448856	rating	1.0		159	dominance	100	2.0	1		722.9177634120897	1.333494122249249
195.0	685.5383173671348	fix	2.0		60	dominance	100	2.0	1	1.5	724.251257534339	0.5167509248885835
196.0	686.0550682920234	face	0.0		147	dominance	102	2.0	1		724.7680084592275	1.2334576579796703
196.0	687.2885259500031	rating	1.0		107	dominance	102	2.0	1		726.0014661172072	0.9001063138721292
196.0	688.1886322638752	fix	2.0		61	dominance	102	2.0	1	-3.12	726.9015724310793	0.5250900136197743
197.0	688.713722277495	face	0.0		146	dominance	064	2.0	1		727.4266624446991	1.2251200785312903
197.0	689.9388423560263	rating	1.0		161	dominance	064	2.0	1		728.6517825232304	1.3501623384463528
197.0	691.2890046944726	fix	2.0		60	dominance	064	2.0	1	-1.7400000000000002	730.0019448616767	0.5167524341713943
198.0	691.805757128644	face	0.0		147	dominance	172	2.0	1		730.5186972958481	1.233458261692249
198.0	693.0392153903363	rating	1.0		36	dominance	172	2.0	1		731.7521555575404	0.308367282132167
198.0	693.3475826724684	fix	2.0		60	dominance	172	2.0	1	0.3899999999999997	732.0605228396726	0.516754245310949
199.0	693.8643369177794	face	0.0		147	dominance	101	2.0	1		732.5772770849835	1.2334576579787608
199.0	695.0977945757581	rating	1.0		48	dominance	101	2.0	1		733.8107347429623	0.408380201592081
199.0	695.5061747773502	fix	2.0		60	dominance	101	2.0	1	1.54	734.2191149445543	0.5000618805906925
200.0	696.0062366579409	cue	0.0		480						734.719176825145	4.000477235187645
200.0	700.0067138931286	fix	1.0		120						738.7196540603327	1.0168106924829772
200.0	701.0235245856115	face	0.0		147	attractiveness	011	2.0	1		739.7364647528157	1.2334872399196684
200.0	702.2570118255312	rating	1.0		103	attractiveness	011	2.0	1		740.9699519927353	0.8667490533780438
200.0	703.1237608789093	fix	2.0		60	attractiveness	011	2.0	1	-2.4	741.8367010461134	0.516744284044762
201.0	703.640505162954	face	0.0		147	attractiveness	137	2.0	1		742.3534453301581	1.233458865405737
201.0	704.8739640283598	rating	1.0		121	attractiveness	137	2.0	1		743.5869041955639	1.0167883550993793
201.0	705.8907523834591	fix	2.0		60	attractiveness	137	2.0	1	0.6500000000000004	744.6036925506633	0.5167503211750955
202.0	706.4075027046342	face	0.0		147	attractiveness	091	2.0	1		745.1204428718383	1.2334642988234918
202.0	707.6409670034577	rating	1.0		70	attractiveness	091	2.0	1		746.3539071706618	0.5917332964663728
202.0	708.2327002999241	fix	2.0		60	attractiveness	091	2.0	1	0.7199999999999998	746.9456404671282	0.516753641597461
203.0	708.7494539415216	face	0.0		147	attractiveness	082	2.0	1		747.4623941087257	1.2334567524103477
203.0	709.9829106939319	rating	1.0		59	attractiveness	082	2.0	1		748.695850861136	0.5000836142608023
203.0	710.4829943081927	fix	2.0		60	attractiveness	082	2.0	1	-0.6400000000000001	749.1959344753968	0.5167291912175642
204.0	710.9997234994103	face	0.0		147	attractiveness	036	2.0	1		749.7126636666144	1.233455544984281
204.0	712.2331790443945	rating	1.0		61	attractiveness	036	2.0	1		750.9461192115987	0.516734322778575
204.0	712.7499133671731	fix	2.0		60	attractiveness	036	2.0	1	1.3099999999999996	751.4628535343772	0.5167983163655663
205.0	713.2667116835387	face	0.0		147	attractiveness	066	2.0	1		751.9796518507428	1.2334063423677435
205.0	714.5001180259064	rating	1.0		77	attractiveness	066	2.0	1		753.2130581931106	0.6500773356447098
205.0	715.1501953615511	fix	2.0		60	attractiveness	066	2.0	1	1.58	753.8631355287553	0.5167512267453276
206.0	715.6669465882965	face	0.0		147	attractiveness	027	2.0	1		754.3798867555006	1.2334603746885477
206.0	716.900406962985	rating	1.0		252	attractiveness	027	2.0	1		755.6133471301891	2.108583834012279
206.0	719.0089907969973	fix	2.0		60	attractiveness	027	2.0	1	0.4400000000000004	757.7219309642014	0.5167952977999448
207.0	719.5257860947972	face	0.0		147	attractiveness	172	2.0	1		758.2387262620014	1.2334169073474186
207.0	720.7592030021447	rating	1.0		78	attractiveness	172	2.0	1		759.4721431693488	0.658409783532079
207.0	721.4176127856767	fix	2.0		60	attractiveness	172	2.0	1	-3.16	760.1305529528809	0.516753943454205
208.0	721.9343667291309	face	0.0		147	attractiveness	124	2.0	1		760.6473068963351	1.2334561486968596
208.0	723.1678228778278	rating	1.0		118	attractiveness	124	2.0	1		761.8807630450319	0.9917843705925407
208.0	724.1596072484203	fix	2.0		60	attractiveness	124	2.0	1	3.6500000000000004	762.8725474156245	0.5167497174625169
209.0	724.6763569658829	face	0.0		147	attractiveness	030	2.0	1		763.389297133087	1.233462487683937
209.0	725.9098194535668	rating	1.0		117	attractiveness	030	2.0	1		764.6227596207709	0.9834489041404595
209.0	726.8932683577073	fix	2.0		60	attractiveness	030	2.0	1	1.9000000000000004	765.6062085249114	0.516756962018917
210.0	727.4100253197262	face	0.0		147	attractiveness	012	2.0	1		766.1229654869303	1.2334573561229263
210.0	728.6434826758491	rating	1.0		107	attractiveness	012	2.0	1		767.3564228430532	0.9001093324386602
210.0	729.5435920082878	fix	2.0		60	attractiveness	012	2.0	1	1.6799999999999997	768.2565321754919	0.5167457933275728
211.0	730.0603378016153	face	0.0		147	attractiveness	038	2.0	1		768.7732779688195	1.2334597709750597
211.0	731.2937975725904	rating	1.0		134	attractiveness	038	2.0	1		770.0067377397945	1.1251319113071077
211.0	732.4189294838975	fix	2.0		60	attractiveness	038	2.0	1	-3.83	771.1318696511016	0.5167533397407169
212.0	732.9356828236382	face	0.0		147	attractiveness	043	2.0	1		771.6486229908423	1.2334576579796703
212.0	734.1691404816179	rating	1.0		357	attractiveness	043	2.0	1		772.882080648822	2.983730234434006
212.0	737.1528707160519	fix	2.0		60	attractiveness	043	2.0	1	-1.9	775.865810883256	0.5167119853949771
213.0	737.6695827014469	face	0.0		147	attractiveness	136	2.0	1		776.382522868651	1.233458563548993
213.0	738.9030412649959	rating	1.0		91	attractiveness	136	2.0	1		777.6159814322	0.7667569620198265
213.0	739.6697982270157	fix	2.0		60	attractiveness	136	2.0	1	-3.5300000000000002	778.3827383942198	0.5167500193183514
214.0	740.186548246334	face	0.0		147	attractiveness	144	2.0	1		778.8994884135382	1.233454941270793
214.0	741.4200031876048	rating	1.0		216	attractiveness	144	2.0	1		780.132943354809	1.808560168459735
214.0	743.2285633560646	fix	2.0		60	attractiveness	144	2.0	1	1.4900000000000002	781.9415035232687	0.5167445859015061
215.0	743.7453079419661	face	0.0		147	attractiveness	018	2.0	1		782.4582481091702	1.2334694303845026
215.0	744.9787773723506	rating	1.0		129	attractiveness	018	2.0	1		783.6917175395547	1.0834530697602531
215.0	746.0622304421108	fix	2.0		60	attractiveness	018	2.0	1	1.7400000000000002	784.775170609315	0.5168079757740998
216.0	746.5790384178849	face	0.0		147	attractiveness	100	2.0	1		785.291978585089	1.2334105683603411
216.0	747.8124489862453	rating	1.0		96	attractiveness	100	2.0	1		786.5253891534494	0.8084222200213844
216.0	748.6208712062667	fix	2.0		60	attractiveness	100	2.0	1	3.0300000000000002	787.3338113734708	0.5167515286020716
217.0	749.1376227348687	face	0.0		147	attractiveness	044	2.0	1		787.8505629020729	1.2334579598355049
217.0	750.3710806947042	rating	1.0		230	attractiveness	044	2.0	1		789.0840208619084	1.925228626142598
217.0	752.2963093208468	fix	2.0		60	attractiveness	044	2.0	1	0.5800000000000001	791.009249488051	0.516779903116003
218.0	752.8130892239628	face	0.0		147	attractiveness	009	2.0	1		791.526029391167	1.2334313964611283
218.0	754.046520620424	rating	1.0		86	attractiveness	009	2.0	1		792.7594607876281	0.7250856668852066
218.0	754.7716062873092	fix	2.0		60	attractiveness	009	2.0	1	1.83	793.4845464545133	0.5167551508802717
219.0	755.2883614381894	face	0.0		147	attractiveness	024	2.0	1		794.0013016053936	1.2334573561229263
219.0	756.5218187943124	rating	1.0		217	attractiveness	024	2.0	1		795.2347589615165	1.8168829569385707
219.0	758.3387017512509	fix	2.0		61	attractiveness	024	2.0	1	-0.009999999999999787	797.0516419184551	0.525085183914598
220.0	758.8637869351655	face	0.0		146	attractiveness	101	2.0	1		797.5767271023697	1.2251255119490452
220.0	760.0889124471146	rating	1.0		120	attractiveness	101	2.0	1		798.8018526143187	1.0084510775068338
220.0	761.0973635246214	fix	2.0		60	attractiveness	101	2.0	1	2.8099999999999996	799.8103036918255	0.5167512267453276
221.0	761.6141147513667	face	0.0		147	attractiveness	121	2.0	1		800.3270549185709	1.2334618839713585
221.0	762.8475766353381	rating	1.0		98	attractiveness	121	2.0	1		801.5605168025422	0.8250958696362432
221.0	763.6726725049743	fix	2.0		60	attractiveness	121	2.0	1	-2.08	802.3856126721785	0.5167530378839729
222.0	764.1894255428583	face	0.0		147	attractiveness	006	2.0	1		802.9023657100624	1.2334603746885477
222.0	765.4228859175469	rating	1.0		440	attractiveness	006	2.0	1		804.135826084751	3.6754366052973637
222.0	769.0983225228442	fix	2.0		60	attractiveness	006	2.0	1	-2.51	807.8112626900484	0.5167527360281383
223.0	769.6150752588724	face	0.0		147	attractiveness	034	2.0	1		808.3280154260765	1.2334920696248446
223.0	770.8485673284972	rating	1.0		91	attractiveness	034	2.0	1		809.5615074957013	0.7667430766186953
223.0	771.6153104051159	fix	2.0		60	attractiveness	034	2.0	1	-0.9500000000000002	810.32825057232	0.5167300967868869
224.0	772.1320405019028	face	0.0		147	attractiveness	102	2.0	1		810.8449806691069	1.233462487683937
224.0	773.3655029895867	rating	1.0		78	attractiveness	102	2.0	1		812.0784431567909	0.6584112928157992
224.0	774.0239142824025	fix	2.0		60	attractiveness	102	2.0	1	-1.94	812.7368544496067	0.5167527360272288
225.0	774.5406670184298	face	0.0		147	attractiveness	042	2.0	1		813.2536071856339	1.2334573561229263
225.0	775.7741243745527	rating	1.0		112	attractiveness	042	2.0	1		814.4870645417568	0.9417794201463039
225.0	776.715903794699	fix	2.0		60	attractiveness	042	2.0	1	0.29000000000000004	815.4288439619031	0.5167527360272288
226.0	777.2326565307262	face	0.0		147	attractiveness	087	2.0	1		815.9455966979303	1.233454941270793
226.0	778.466111471997	rating	1.0		270	attractiveness	087	2.0	1		817.1790516392011	2.2586032132030596
226.0	780.7247146852001	fix	2.0		60	attractiveness	087	2.0	1	0.0	819.4376548524042	0.5167548490226181
227.0	781.2414695342227	face	0.0		147	attractiveness	141	2.0	1		819.9544097014268	1.2334579598364144
227.0	782.4749274940591	rating	1.0		113	attractiveness	141	2.0	1		821.1878676612632	0.9501118680336731
227.0	783.4250393620928	fix	2.0		61	attractiveness	141	2.0	1	-0.8700000000000001	822.1379795292969	0.525094843324041
228.0	783.9501342054168	face	0.0		146	attractiveness	130	2.0	1		822.6630743726209	1.225121587814101
228.0	785.1752557932309	rating	1.0		169	attractiveness	130	2.0	1		823.888195960435	1.4168285623900374
228.0	786.592084355621	fix	2.0		60	attractiveness	130	2.0	1	-1.0899999999999999	825.3050245228251	0.5167533397407169
229.0	787.1088376953617	face	0.0		147	attractiveness	061	2.0	1		825.8217778625658	1.233458261692249
229.0	788.3422959570539	rating	1.0		128	attractiveness	061	2.0	1		827.055236124258	1.0751278664301935
229.0	789.4174238234841	fix	2.0		60	attractiveness	061	2.0	1	0.96	828.1303639906882	0.516760584297117
230.0	789.9341844077812	face	0.0		147	attractiveness	033	2.0	1		828.6471245749854	1.2334498097097821
230.0	791.167634217491	rating	1.0		135	attractiveness	033	2.0	1		829.8805743846951	1.1334761316002187
230.0	792.3011103490912	fix	2.0		60	attractiveness	033	2.0	1	1.5599999999999996	831.0140505162954	0.5167977126511687
231.0	792.8179080617424	face	0.0		147	attractiveness	099	2.0	1		831.5308482289465	1.2334054367984209
231.0	794.0513134985408	rating	1.0		536	attractiveness	099	2.0	1		832.764253665745	4.475534225702177
231.0	798.526847724243	fix	2.0		60	attractiveness	099	2.0	1	-0.5	837.2397878914471	0.5167560564495943
232.0	799.0436037806926	face	0.0		147	attractiveness	117	2.0	1		837.7565439478967	1.2334543375573048
232.0	800.2770581182499	rating	1.0		218	attractiveness	117	2.0	1		838.989998285454	1.8252178196789828
232.0	802.1022759379289	fix	2.0		60	attractiveness	117	2.0	1	-0.25	840.815216105133	0.5167578675882396
233.0	802.6190338055171	face	0.0		147	attractiveness	005	2.0	1		841.3319739727212	1.2334576579796703
233.0	803.8524914634968	rating	1.0		56	attractiveness	005	2.0	1		842.5654316307009	0.47505276452284306
233.0	804.3275442280196	fix	2.0		60	attractiveness	005	2.0	1	-2.1399999999999997	843.0404843952238	0.5167515286020716
234.0	804.8442957566217	face	0.0		147	attractiveness	062	2.0	1		843.5572359238258	1.2334603746885477
234.0	806.0777561313103	rating	1.0		220	attractiveness	062	2.0	1		844.7906962985144	1.8418842247356224
234.0	807.9196403560459	fix	2.0		60	attractiveness	062	2.0	1	-3.01	846.63258052325	0.5167524341704848
235.0	808.4363927902164	face	0.0		147	attractiveness	039	2.0	1		847.1493329574205	1.2334573561238358
235.0	809.6698501463402	rating	1.0		117	attractiveness	039	2.0	1		848.3827903135443	0.9834501115656167
235.0	810.6533002579058	fix	2.0		60	attractiveness	039	2.0	1	1.9000000000000004	849.3662404251099	0.5167524341713943
236.0	811.1700526920772	face	0.0		147	attractiveness	070	2.0	1		849.8829928592813	1.233459469119225
236.0	812.4035121611964	rating	1.0		260	attractiveness	070	2.0	1		851.1164523284006	2.1752591136519186
236.0	814.5787712748484	fix	2.0		60	attractiveness	070	2.0	1	-1.9	853.2917114420525	0.5167554527370157
237.0	815.0955267275854	face	0.0		147	attractiveness	126	2.0	1		853.8084668947895	1.2334540357005608
237.0	816.3289807632859	rating	1.0		235	attractiveness	126	2.0	1		855.04192093049	1.9669002231330524
237.0	818.295880986419	fix	2.0		61	attractiveness	126	2.0	1	1.6900000000000004	857.0088211536231	0.5250903154756088
238.0	818.8209713018946	face	0.0		146	attractiveness	064	2.0	1		857.5339114690987	1.2251230970969118
238.0	820.0460943989915	rating	1.0		103	attractiveness	064	2.0	1		858.7590345661956	0.8667695796220869
238.0	820.9128639786136	fix	2.0		60	attractiveness	064	2.0	1	1.0700000000000003	859.6258041458177	0.5168043534958997
239.0	821.4296683321095	face	0.0		147	attractiveness	092	2.0	1		860.1426084993136	1.233406342368653
239.0	822.6630746744781	rating	1.0		130	attractiveness	092	2.0	1		861.3760148416823	1.0918386443981944
239.0	823.7549133188763	fix	2.0		60	attractiveness	092	2.0	1	-2.0300000000000002	862.4678534860805	0.5000175076793312
