trial_nr	onset	event_type	phase	response	nr_frames	face_age	face_sex	face_eth	attractiveness	expression	face_id	sub_id	ses	run	trial_type	catch	rating_type	onset_abs	duration
-1.0	0.056697559586609714	fix	0.0		714													25.131038887771865	5.966343992964539
-1.0	0.7066025806852849	pulse	0.0	t														25.78094390887054	
-1.0	1.4065803339181002	pulse	0.0	t														26.480921662103356	
-1.0	2.106575896639697	pulse	0.0	t														27.180917224824952	
-1.0	2.8065675352372637	pulse	0.0	t														27.88090886342252	
-1.0	3.506554042287462	pulse	0.0	t														28.580895370472717	
-1.0	4.206537530779315	pulse	0.0	t														29.28087885896457	
-1.0	4.906527961949905	pulse	0.0	t														29.98086929013516	
-1.0	5.606515978281095	pulse	0.0	t														30.68085730646635	
0.0	6.023041552551149	face	0.0		144	32.0	male	white	2.389176283326701	neutral	092	sub-10	2.0	2.0	092_neutral	0.0		31.097382880736404	1.2333362814606517
0.0	6.306507013163355	pulse	0.0	t		32.0	male	white	2.389176283326701	neutral	092	sub-10	2.0	2.0	092_neutral	0.0		31.38084834134861	
0.0	7.00650378330829	pulse	0.0	t		32.0	male	white	2.389176283326701	neutral	092	sub-10	2.0	2.0	092_neutral	0.0		32.080845111493545	
0.0	7.256377834011801	fix	1.0		444	32.0	male	white	2.389176283326701	neutral	092	sub-10	2.0	2.0	092_neutral	0.0		32.330719162197056	3.7582371143071214
0.0	7.70648515881112	pulse	1.0	t		32.0	male	white	2.389176283326701	neutral	092	sub-10	2.0	2.0	092_neutral	0.0		32.780826486996375	
0.0	8.406458987919905	pulse	1.0	t		32.0	male	white	2.389176283326701	neutral	092	sub-10	2.0	2.0	092_neutral	0.0		33.48080031610516	
0.0	9.106453645072179	pulse	1.0	t		32.0	male	white	2.389176283326701	neutral	092	sub-10	2.0	2.0	092_neutral	0.0		34.180794973257434	
0.0	9.806443774392392	pulse	1.0	t		32.0	male	white	2.389176283326701	neutral	092	sub-10	2.0	2.0	092_neutral	0.0		34.88078510257765	
0.0	10.506435111132305	pulse	1.0	t		32.0	male	white	2.389176283326701	neutral	092	sub-10	2.0	2.0	092_neutral	0.0		35.58077643931756	
1.0	11.014614948318922	face	0.0		146	27.0	female	white	4.181058495821727	neutral	039	sub-10	2.0	2.0	039_neutral	0.0		36.08895627650418	1.2416590473221731
1.0	11.20641286436512	pulse	0.0	t		27.0	female	white	4.181058495821727	neutral	039	sub-10	2.0	2.0	039_neutral	0.0		36.280754192550376	
1.0	11.906384580484882	pulse	0.0	t		27.0	female	white	4.181058495821727	neutral	039	sub-10	2.0	2.0	039_neutral	0.0		36.98072590867014	
1.0	12.256273995641095	fix	1.0		444	27.0	female	white	4.181058495821727	neutral	039	sub-10	2.0	2.0	039_neutral	0.0		37.33061532382635	3.7582666961716313
1.0	12.606407612078328	pulse	1.0	t		27.0	female	white	4.181058495821727	neutral	039	sub-10	2.0	2.0	039_neutral	0.0		37.680748940263584	
1.0	13.306375404070423	pulse	1.0	t		27.0	female	white	4.181058495821727	neutral	039	sub-10	2.0	2.0	039_neutral	0.0		38.38071673225568	
1.0	14.006374589062034	pulse	1.0	t		27.0	female	white	4.181058495821727	neutral	039	sub-10	2.0	2.0	039_neutral	0.0		39.08071591724729	
1.0	14.706342984765797	pulse	1.0	t		27.0	female	white	4.181058495821727	neutral	039	sub-10	2.0	2.0	039_neutral	0.0		39.78068431295105	
1.0	15.406355451406853	pulse	1.0	t		27.0	female	white	4.181058495821727	neutral	039	sub-10	2.0	2.0	039_neutral	0.0		40.48069677959211	
2.0	16.014540691812726	face	0.0		146	21.0	male	black	2.969757262236371	smiling	137	sub-10	2.0	2.0	137_smiling	0.0		41.08888201999798	1.2416593491798267
2.0	16.106335015774675	pulse	0.0	t		21.0	male	black	2.969757262236371	smiling	137	sub-10	2.0	2.0	137_smiling	0.0		41.18067634395993	
2.0	16.80632001354752	pulse	0.0	t		21.0	male	black	2.969757262236371	smiling	137	sub-10	2.0	2.0	137_smiling	0.0		41.880661341732775	
2.0	17.256200040992553	fix	1.0		444	21.0	male	black	2.969757262236371	smiling	137	sub-10	2.0	2.0	137_smiling	0.0		42.33054136917781	3.7582470755442046
2.0	17.50629746492632	pulse	1.0	t		21.0	male	black	2.969757262236371	smiling	137	sub-10	2.0	2.0	137_smiling	0.0		42.580638793111575	
2.0	18.20627944413718	pulse	1.0	t		21.0	male	black	2.969757262236371	smiling	137	sub-10	2.0	2.0	137_smiling	0.0		43.280620772322436	
2.0	18.90627530871643	pulse	1.0	t		21.0	male	black	2.969757262236371	smiling	137	sub-10	2.0	2.0	137_smiling	0.0		43.980616636901686	
2.0	19.606253363803262	pulse	1.0	t		21.0	male	black	2.969757262236371	smiling	137	sub-10	2.0	2.0	137_smiling	0.0		44.68059469198852	
2.0	20.306257982196257	pulse	1.0	t		21.0	male	black	2.969757262236371	smiling	137	sub-10	2.0	2.0	137_smiling	0.0		45.38059931038151	
3.0	21.014447116536758	face	0.0		147	19.0	male	white	3.2522881018702745	smiling	018	sub-10	2.0	2.0	018_smiling	0.0		46.08878844472201	1.2416662918622023
3.0	21.007178732696048	pulse	0.0	t		19.0	male	white	3.2522881018702745	smiling	018	sub-10	2.0	2.0	018_smiling	0.0		46.0815200608813	
3.0	21.7062352222747	pulse	0.0	t		19.0	male	white	3.2522881018702745	smiling	018	sub-10	2.0	2.0	018_smiling	0.0		46.780576550459955	
3.0	22.25611340839896	fix	1.0		443	19.0	male	white	3.2522881018702745	smiling	018	sub-10	2.0	2.0	018_smiling	0.0		47.330454736584215	3.758250094106188
3.0	22.406215692211845	pulse	1.0	t		19.0	male	white	3.2522881018702745	smiling	018	sub-10	2.0	2.0	018_smiling	0.0		47.4805570203971	
3.0	23.106205519674404	pulse	1.0	t		19.0	male	white	3.2522881018702745	smiling	018	sub-10	2.0	2.0	018_smiling	0.0		48.18054684785966	
3.0	23.806195347136963	pulse	1.0	t		19.0	male	white	3.2522881018702745	smiling	018	sub-10	2.0	2.0	018_smiling	0.0		48.88053667532222	
3.0	24.506182759752846	pulse	1.0	t		19.0	male	white	3.2522881018702745	smiling	018	sub-10	2.0	2.0	018_smiling	0.0		49.5805240879381	
3.0	25.206141194219526	pulse	1.0	t		19.0	male	white	3.2522881018702745	smiling	018	sub-10	2.0	2.0	018_smiling	0.0		50.28048252240478	
3.0	25.906160603542958	pulse	1.0	t		19.0	male	white	3.2522881018702745	smiling	018	sub-10	2.0	2.0	018_smiling	0.0		50.98050193172821	
4.0	26.014363502505148	face	0.0		147	27.0	female	white	4.181058495821727	smiling	039	sub-10	2.0	2.0	039_smiling	0.0		51.0887048306904	1.2416620658805186
4.0	26.60614801615884	pulse	0.0	t		27.0	female	white	4.181058495821727	smiling	039	sub-10	2.0	2.0	039_smiling	0.0		51.680489344344096	
4.0	27.256025568385667	fix	1.0		443	27.0	female	white	4.181058495821727	smiling	039	sub-10	2.0	2.0	039_smiling	0.0		52.33036689657092	3.7665843304894224
4.0	27.306135730632377	pulse	1.0	t		27.0	female	white	4.181058495821727	smiling	039	sub-10	2.0	2.0	039_smiling	0.0		52.38047705881763	
4.0	28.006129784072982	pulse	1.0	t		27.0	female	white	4.181058495821727	smiling	039	sub-10	2.0	2.0	039_smiling	0.0		53.08047111225824	
4.0	28.706091840809677	pulse	1.0	t		27.0	female	white	4.181058495821727	smiling	039	sub-10	2.0	2.0	039_smiling	0.0		53.78043316899493	
4.0	29.40607472558986	pulse	1.0	t		27.0	female	white	4.181058495821727	smiling	039	sub-10	2.0	2.0	039_smiling	0.0		54.480416053775116	
4.0	30.10608417367257	pulse	1.0	t		27.0	female	white	4.181058495821727	smiling	039	sub-10	2.0	2.0	039_smiling	0.0		55.180425501857826	
4.0	30.80607068072277	pulse	1.0	t		27.0	female	white	4.181058495821727	smiling	039	sub-10	2.0	2.0	039_smiling	0.0		55.880412008908024	
5.0	31.02260989887509	face	0.0		145	28.0	female	white	5.676880222841227	smiling	124	sub-10	2.0	2.0	124_smiling	1.0	dominance	56.096951227060345	1.2333278294972843
5.0	31.50606262117435	pulse	0.0	t		28.0	female	white	5.676880222841227	smiling	124	sub-10	2.0	2.0	124_smiling	1.0	dominance	56.58040394935961	
5.0	32.20604007255315	pulse	0.0	t		28.0	female	white	5.676880222841227	smiling	124	sub-10	2.0	2.0	124_smiling	1.0	dominance	57.280381400738406	
5.0	32.25593772837237	fix	1.0		177	28.0	female	white	5.676880222841227	smiling	124	sub-10	2.0	2.0	124_smiling	1.0	dominance	57.33027905655763	1.5083220112283016
5.0	32.90603382413974	pulse	1.0	t		28.0	female	white	5.676880222841227	smiling	124	sub-10	2.0	2.0	124_smiling	1.0	dominance	57.980375152324996	
5.0	33.606008256960195	pulse	1.0	t		28.0	female	white	5.676880222841227	smiling	124	sub-10	2.0	2.0	124_smiling	1.0	dominance	58.68034958514545	
5.0	33.764259739600675	rating	2.0		294	28.0	female	white	5.676880222841227	smiling	124	sub-10	2.0	2.0	124_smiling	1.0	dominance	58.83860106778593	2.4916028266998183
5.0	34.30086955576917	pulse	2.0	t		28.0	female	white	5.676880222841227	smiling	124	sub-10	2.0	2.0	124_smiling	1.0	dominance	59.37521088395442	
5.0	35.00086330735576	pulse	2.0	t		28.0	female	white	5.676880222841227	smiling	124	sub-10	2.0	2.0	124_smiling	1.0	dominance	60.07520463554101	
5.0	35.30598389720399	response	2.0	y		28.0	female	white	5.676880222841227	smiling	124	sub-10	2.0	2.0	124_smiling	1.0	dominance	60.38032522538924	
5.0	35.70597773934787	pulse	2.0	t		28.0	female	white	5.676880222841227	smiling	124	sub-10	2.0	2.0	124_smiling	1.0	dominance	60.78031906753313	
5.0	36.25586256630049	fix	3.0		443	28.0	female	white	5.676880222841227	smiling	124	sub-10	2.0	2.0	124_smiling	1.0	dominance	61.33020389448575	3.7583856273195124
5.0	36.40596213340905	pulse	3.0	t		28.0	female	white	5.676880222841227	smiling	124	sub-10	2.0	2.0	124_smiling	1.0	dominance	61.4803034615943	
5.0	37.10595588499564	pulse	3.0	t		28.0	female	white	5.676880222841227	smiling	124	sub-10	2.0	2.0	124_smiling	1.0	dominance	62.18029721318089	
5.0	37.80594933472457	pulse	3.0	t		28.0	female	white	5.676880222841227	smiling	124	sub-10	2.0	2.0	124_smiling	1.0	dominance	62.88029066290983	
5.0	38.50591893785531	pulse	3.0	t		28.0	female	white	5.676880222841227	smiling	124	sub-10	2.0	2.0	124_smiling	1.0	dominance	63.58026026604057	
5.0	39.20590936902954	pulse	3.0	t		28.0	female	white	5.676880222841227	smiling	124	sub-10	2.0	2.0	124_smiling	1.0	dominance	64.2802506972148	
5.0	39.90590976144085	pulse	3.0	t		28.0	female	white	5.676880222841227	smiling	124	sub-10	2.0	2.0	124_smiling	1.0	dominance	64.98025108962611	
6.0	40.014248193620006	face	0.0		147	27.0	female	white	3.504576203740549	smiling	144	sub-10	2.0	2.0	144_smiling	0.0		65.08858952180526	1.2414909136896313
6.0	40.60588781653132	pulse	0.0	t		27.0	female	white	3.504576203740549	smiling	144	sub-10	2.0	2.0	144_smiling	0.0		65.68022914471658	
6.0	41.25573910730964	fix	1.0		443	27.0	female	white	3.504576203740549	smiling	144	sub-10	2.0	2.0	144_smiling	0.0		66.33008043549489	3.7666211568866856
6.0	41.305887001519295	pulse	1.0	t		27.0	female	white	3.504576203740549	smiling	144	sub-10	2.0	2.0	144_smiling	0.0		66.38022832970455	
6.0	42.00586958444546	pulse	1.0	t		27.0	female	white	3.504576203740549	smiling	144	sub-10	2.0	2.0	144_smiling	0.0		67.08021091263072	
6.0	42.705862128608715	pulse	1.0	t		27.0	female	white	3.504576203740549	smiling	144	sub-10	2.0	2.0	144_smiling	0.0		67.78020345679397	
6.0	43.405836863283184	pulse	1.0	t		27.0	female	white	3.504576203740549	smiling	144	sub-10	2.0	2.0	144_smiling	0.0		68.48017819146844	
6.0	44.10583242600478	pulse	1.0	t		27.0	female	white	3.504576203740549	smiling	144	sub-10	2.0	2.0	144_smiling	0.0		69.18017375419004	
6.0	44.80582678130304	pulse	1.0	t		27.0	female	white	3.504576203740549	smiling	144	sub-10	2.0	2.0	144_smiling	0.0		69.8801681094883	
7.0	45.02236026419632	face	0.0		145	24.0	male	white	3.1153999204138483	neutral	012	sub-10	2.0	2.0	012_neutral	0.0		70.09670159238158	1.2333251127965923
7.0	45.50581721247727	pulse	0.0	t		24.0	male	white	3.1153999204138483	neutral	012	sub-10	2.0	2.0	012_neutral	0.0		70.58015854066252	
7.0	46.20580341766981	pulse	0.0	t		24.0	male	white	3.1153999204138483	neutral	012	sub-10	2.0	2.0	012_neutral	0.0		71.28014474585507	
7.0	46.255685376992915	fix	1.0		444	24.0	male	white	3.1153999204138483	neutral	012	sub-10	2.0	2.0	012_neutral	0.0		71.33002670517817	3.7665897638908064
7.0	46.90578479317264	pulse	1.0	t		24.0	male	white	3.1153999204138483	neutral	012	sub-10	2.0	2.0	012_neutral	0.0		71.9801261213579	
7.0	47.60577099836519	pulse	1.0	t		24.0	male	white	3.1153999204138483	neutral	012	sub-10	2.0	2.0	012_neutral	0.0		72.68011232655044	
7.0	48.305752072014	pulse	1.0	t		24.0	male	white	3.1153999204138483	neutral	012	sub-10	2.0	2.0	012_neutral	0.0		73.38009340019926	
7.0	49.00574461617725	pulse	1.0	t		24.0	male	white	3.1153999204138483	neutral	012	sub-10	2.0	2.0	012_neutral	0.0		74.08008594436251	
7.0	49.70573565106315	pulse	1.0	t		24.0	male	white	3.1153999204138483	neutral	012	sub-10	2.0	2.0	012_neutral	0.0		74.7800769792484	
8.0	50.02227514088372	face	0.0		145	37.0	male	white	3.898925586947871	smiling	101	sub-10	2.0	2.0	101_smiling	0.0		75.09661646906898	1.2333202831032395
8.0	50.40572547852571	pulse	0.0	t		37.0	male	white	3.898925586947871	smiling	101	sub-10	2.0	2.0	101_smiling	0.0		75.48006680671097	
8.0	51.10570051505783	pulse	0.0	t		37.0	male	white	3.898925586947871	smiling	101	sub-10	2.0	2.0	101_smiling	0.0		76.18004184324309	
8.0	51.25559542398696	fix	1.0		444	37.0	male	white	3.898925586947871	smiling	101	sub-10	2.0	2.0	101_smiling	0.0		76.32993675217222	3.7665897638908064
8.0	51.80569939819179	pulse	1.0	t		37.0	male	white	3.898925586947871	smiling	101	sub-10	2.0	2.0	101_smiling	0.0		76.88004072637705	
8.0	52.50568771637336	pulse	1.0	t		37.0	male	white	3.898925586947871	smiling	101	sub-10	2.0	2.0	101_smiling	0.0		77.58002904455861	
8.0	53.205678751259256	pulse	1.0	t		37.0	male	white	3.898925586947871	smiling	101	sub-10	2.0	2.0	101_smiling	0.0		78.28002007944451	
8.0	53.90565529706873	pulse	1.0	t		37.0	male	white	3.898925586947871	smiling	101	sub-10	2.0	2.0	101_smiling	0.0		78.97999662525399	
8.0	54.605643917107955	pulse	1.0	t		37.0	male	white	3.898925586947871	smiling	101	sub-10	2.0	2.0	101_smiling	0.0		79.67998524529321	
9.0	55.02218518787777	face	0.0		145	25.0	female	west_asian	2.6756864305610826	smiling	064	sub-10	2.0	2.0	064_smiling	0.0		80.09652651606302	1.2333229998075694
9.0	55.30563615941719	pulse	0.0	t		25.0	female	west_asian	2.6756864305610826	smiling	064	sub-10	2.0	2.0	064_smiling	0.0		80.37997748760245	
9.0	56.00562387389073	pulse	0.0	t		25.0	female	west_asian	2.6756864305610826	smiling	064	sub-10	2.0	2.0	064_smiling	0.0		81.07996520207598	
9.0	56.25550818768534	fix	1.0		444	25.0	female	west_asian	2.6756864305610826	smiling	064	sub-10	2.0	2.0	064_smiling	0.0		81.32984951587059	3.766585839766776
9.0	56.705600419700204	pulse	1.0	t		25.0	female	west_asian	2.6756864305610826	smiling	064	sub-10	2.0	2.0	064_smiling	0.0		81.77994174788546	
9.0	57.40559507685248	pulse	1.0	t		25.0	female	west_asian	2.6756864305610826	smiling	064	sub-10	2.0	2.0	064_smiling	0.0		82.47993640503773	
9.0	58.105581583902676	pulse	1.0	t		25.0	female	west_asian	2.6756864305610826	smiling	064	sub-10	2.0	2.0	064_smiling	0.0		83.17992291208793	
9.0	58.805562959405506	pulse	1.0	t		25.0	female	west_asian	2.6756864305610826	smiling	064	sub-10	2.0	2.0	064_smiling	0.0		83.87990428759076	
9.0	59.505565766663494	pulse	1.0	t		25.0	female	west_asian	2.6756864305610826	smiling	064	sub-10	2.0	2.0	064_smiling	0.0		84.57990709484875	
10.0	60.02209402745211	face	0.0		145	22.0	male	black	2.767608436132113	neutral	044	sub-10	2.0	2.0	044_neutral	0.0		85.09643535563737	1.233329338774638
10.0	60.205549858867016	pulse	0.0	t		22.0	male	black	2.767608436132113	neutral	044	sub-10	2.0	2.0	044_neutral	0.0		85.27989118705227	
10.0	60.905540893752914	pulse	0.0	t		22.0	male	black	2.767608436132113	neutral	044	sub-10	2.0	2.0	044_neutral	0.0		85.97988222193817	
10.0	61.25542336622675	fix	1.0		444	22.0	male	black	2.767608436132113	neutral	044	sub-10	2.0	2.0	044_neutral	0.0		86.329764694412	3.766579802653723
10.0	61.60552528781045	pulse	1.0	t		22.0	male	black	2.767608436132113	neutral	044	sub-10	2.0	2.0	044_neutral	0.0		86.6798666159957	
10.0	62.305500928054244	pulse	1.0	t		22.0	male	black	2.767608436132113	neutral	044	sub-10	2.0	2.0	044_neutral	0.0		87.3798422562395	
10.0	63.005487133250426	pulse	1.0	t		22.0	male	black	2.767608436132113	neutral	044	sub-10	2.0	2.0	044_neutral	0.0		88.07982846143568	
10.0	63.70549507205578	pulse	1.0	t		22.0	male	black	2.767608436132113	neutral	044	sub-10	2.0	2.0	044_neutral	0.0		88.77983640024104	
10.0	64.40546739188358	pulse	1.0	t		22.0	male	black	2.767608436132113	neutral	044	sub-10	2.0	2.0	044_neutral	0.0		89.47980872006883	
11.0	65.02200316888047	face	0.0		145	27.0	female	white	3.504576203740549	neutral	144	sub-10	2.0	2.0	144_neutral	0.0		90.09634449706573	1.2333278294972843
11.0	65.10546416202851	pulse	0.0	t		27.0	female	white	3.504576203740549	neutral	144	sub-10	2.0	2.0	144_neutral	0.0		90.17980549021377	
11.0	65.80543950041829	pulse	0.0	t		27.0	female	white	3.504576203740549	neutral	144	sub-10	2.0	2.0	144_neutral	0.0		90.87978082860354	
11.0	66.25533099837776	fix	1.0		444	27.0	female	white	3.504576203740549	neutral	144	sub-10	2.0	2.0	144_neutral	0.0		91.32967232656301	3.766580708219408
11.0	66.50544200581862	pulse	1.0	t		27.0	female	white	3.504576203740549	neutral	144	sub-10	2.0	2.0	144_neutral	0.0		91.57978333400388	
11.0	67.20540677925601	pulse	1.0	t		27.0	female	white	3.504576203740549	neutral	144	sub-10	2.0	2.0	144_neutral	0.0		92.27974810744126	
11.0	67.90539479558356	pulse	1.0	t		27.0	female	white	3.504576203740549	neutral	144	sub-10	2.0	2.0	144_neutral	0.0		92.97973612376882	
11.0	68.60539639541821	pulse	1.0	t		27.0	female	white	3.504576203740549	neutral	144	sub-10	2.0	2.0	144_neutral	0.0		93.67973772360347	
11.0	69.30537867649036	pulse	1.0	t		27.0	female	white	3.504576203740549	neutral	144	sub-10	2.0	2.0	144_neutral	0.0		94.37972000467562	
12.0	70.02191170659717	face	0.0		146	20.0	male	black	3.1070433744528456	neutral	082	sub-10	2.0	2.0	082_neutral	0.0		95.09625303478242	1.2333305462016142
12.0	70.00834480133562	pulse	0.0	t		20.0	male	black	3.1070433744528456	neutral	082	sub-10	2.0	2.0	082_neutral	0.0		95.08268612952088	
12.0	70.70535380357978	pulse	0.0	t		20.0	male	black	3.1070433744528456	neutral	082	sub-10	2.0	2.0	082_neutral	0.0		95.77969513176504	
12.0	71.25524225279878	fix	1.0		443	20.0	male	black	3.1070433744528456	neutral	082	sub-10	2.0	2.0	082_neutral	0.0		96.32958358098404	3.7665979139928822
12.0	71.40536687393251	pulse	1.0	t		20.0	male	black	3.1070433744528456	neutral	082	sub-10	2.0	2.0	082_neutral	0.0		96.47970820211776	
12.0	72.1053328547896	pulse	1.0	t		20.0	male	black	3.1070433744528456	neutral	082	sub-10	2.0	2.0	082_neutral	0.0		97.17967418297485	
12.0	72.80532509709883	pulse	1.0	t		20.0	male	black	3.1070433744528456	neutral	082	sub-10	2.0	2.0	082_neutral	0.0		97.87966642528409	
12.0	73.5053122078607	pulse	1.0	t		20.0	male	black	3.1070433744528456	neutral	082	sub-10	2.0	2.0	082_neutral	0.0		98.57965353604595	
12.0	74.2052926777942	pulse	1.0	t		20.0	male	black	3.1070433744528456	neutral	082	sub-10	2.0	2.0	082_neutral	0.0		99.27963400597946	
12.0	74.90528492010344	pulse	1.0	t		20.0	male	black	3.1070433744528456	neutral	082	sub-10	2.0	2.0	082_neutral	0.0		99.9796262482887	
13.0	75.02184016679166	face	0.0		146	47.0	male	east_asian	2.171110226820533	smiling	024	sub-10	2.0	2.0	024_smiling	0.0		100.09618149497692	1.2333127367128327
13.0	75.60528893478477	pulse	0.0	t		47.0	male	east_asian	2.171110226820533	smiling	024	sub-10	2.0	2.0	024_smiling	0.0		100.67963026297002	
13.0	76.2551529035045	fix	1.0		443	47.0	male	east_asian	2.171110226820533	smiling	024	sub-10	2.0	2.0	024_smiling	0.0		101.32949423168975	3.766584632343438
13.0	76.30526548059424	pulse	1.0	t		47.0	male	east_asian	2.171110226820533	smiling	024	sub-10	2.0	2.0	024_smiling	0.0		101.3796068087795	
13.0	77.00525923218083	pulse	1.0	t		47.0	male	east_asian	2.171110226820533	smiling	024	sub-10	2.0	2.0	024_smiling	0.0		102.07960056036609	
13.0	77.70524392809602	pulse	1.0	t		47.0	male	east_asian	2.171110226820533	smiling	024	sub-10	2.0	2.0	024_smiling	0.0		102.77958525628128	
13.0	78.40520870153341	pulse	1.0	t		47.0	male	east_asian	2.171110226820533	smiling	024	sub-10	2.0	2.0	024_smiling	0.0		103.47955002971867	
13.0	79.10520184940833	pulse	1.0	t		47.0	male	east_asian	2.171110226820533	smiling	024	sub-10	2.0	2.0	024_smiling	0.0		104.17954317759359	
13.0	79.80519439357158	pulse	1.0	t		47.0	male	east_asian	2.171110226820533	smiling	024	sub-10	2.0	2.0	024_smiling	0.0		104.87953572175684	
14.0	80.02173753584793	face	0.0		145	34.0	male	white	2.651014723438122	neutral	121	sub-10	2.0	2.0	121_neutral	0.0		105.09607886403319	1.2333245090849232
14.0	80.50517939134443	pulse	0.0	t		34.0	male	white	2.651014723438122	neutral	121	sub-10	2.0	2.0	121_neutral	0.0		105.57952071952968	
14.0	81.2051740484967	pulse	0.0	t		34.0	male	white	2.651014723438122	neutral	121	sub-10	2.0	2.0	121_neutral	0.0		106.27951537668196	
14.0	81.25506204493286	fix	1.0		444	34.0	male	white	2.651014723438122	neutral	121	sub-10	2.0	2.0	121_neutral	0.0		106.32940337311811	3.7665882546134526
14.0	81.90515300915285	pulse	1.0	t		34.0	male	white	2.651014723438122	neutral	121	sub-10	2.0	2.0	121_neutral	0.0		106.97949433733811	
14.0	82.6051515904328	pulse	1.0	t		34.0	male	white	2.651014723438122	neutral	121	sub-10	2.0	2.0	121_neutral	0.0		107.67949291861805	
14.0	83.30513417335897	pulse	1.0	t		34.0	male	white	2.651014723438122	neutral	121	sub-10	2.0	2.0	121_neutral	0.0		108.37947550154422	
14.0	84.00512430267554	pulse	1.0	t		34.0	male	white	2.651014723438122	neutral	121	sub-10	2.0	2.0	121_neutral	0.0		109.0794656308608	
14.0	84.70509933920766	pulse	1.0	t		34.0	male	white	2.651014723438122	neutral	121	sub-10	2.0	2.0	121_neutral	0.0		109.77944066739292	
15.0	85.02165029954631	face	0.0		145	36.0	female	white	2.7548746518105847	neutral	011	sub-10	2.0	2.0	011_neutral	0.0		110.09599162773156	1.2333242072272697
15.0	85.40509007223591	pulse	0.0	t		36.0	female	white	2.7548746518105847	neutral	011	sub-10	2.0	2.0	011_neutral	0.0		110.47943140042116	
15.0	86.1050856349575	pulse	0.0	t		36.0	female	white	2.7548746518105847	neutral	011	sub-10	2.0	2.0	011_neutral	0.0		111.17942696314276	
15.0	86.25497450677358	fix	1.0		444	36.0	female	white	2.7548746518105847	neutral	011	sub-10	2.0	2.0	011_neutral	0.0		111.32931583495883	3.7665870471901144
15.0	86.80507757540909	pulse	1.0	t		36.0	female	white	2.7548746518105847	neutral	011	sub-10	2.0	2.0	011_neutral	0.0		111.87941890359434	
15.0	87.50506166761261	pulse	1.0	t		36.0	female	white	2.7548746518105847	neutral	011	sub-10	2.0	2.0	011_neutral	0.0		112.57940299579786	
15.0	88.20505209878684	pulse	1.0	t		36.0	female	white	2.7548746518105847	neutral	011	sub-10	2.0	2.0	011_neutral	0.0		113.27939342697209	
15.0	88.90503709655968	pulse	1.0	t		36.0	female	white	2.7548746518105847	neutral	011	sub-10	2.0	2.0	011_neutral	0.0		113.97937842474494	
15.0	89.60502662216459	pulse	1.0	t		36.0	female	white	2.7548746518105847	neutral	011	sub-10	2.0	2.0	011_neutral	0.0		114.67936795034984	
16.0	90.02156155396369	face	0.0		145	31.0	female	west_asian	2.364902506963788	neutral	006	sub-10	2.0	2.0	006_neutral	0.0		115.09590288214895	1.2333127367128327
16.0	90.3050179589045	pulse	0.0	t		31.0	female	west_asian	2.364902506963788	neutral	006	sub-10	2.0	2.0	006_neutral	0.0		115.37935928708976	
16.0	91.00499842884165	pulse	0.0	t		31.0	female	west_asian	2.364902506963788	neutral	006	sub-10	2.0	2.0	006_neutral	0.0		116.0793397570269	
16.0	91.25487429067653	fix	1.0		444	31.0	female	west_asian	2.364902506963788	neutral	006	sub-10	2.0	2.0	006_neutral	0.0		116.32921561886178	3.7582639794673014
16.0	91.70499308599392	pulse	1.0	t		31.0	female	west_asian	2.364902506963788	neutral	006	sub-10	2.0	2.0	006_neutral	0.0		116.77933441417917	
16.0	92.40497174479606	pulse	1.0	t		31.0	female	west_asian	2.364902506963788	neutral	006	sub-10	2.0	2.0	006_neutral	0.0		117.47931307298131	
16.0	93.10495915741194	pulse	1.0	t		31.0	female	west_asian	2.364902506963788	neutral	006	sub-10	2.0	2.0	006_neutral	0.0		118.1793004855972	
16.0	93.80495411642187	pulse	1.0	t		31.0	female	west_asian	2.364902506963788	neutral	006	sub-10	2.0	2.0	006_neutral	0.0		118.87929544460712	
16.0	94.5049373030597	pulse	1.0	t		31.0	female	west_asian	2.364902506963788	neutral	006	sub-10	2.0	2.0	006_neutral	0.0		119.57927863124496	
17.0	95.01313827014383	face	0.0		146	40.0	male	white	1.868682849184242	neutral	172	sub-10	2.0	2.0	172_neutral	0.0		120.08747959832908	1.2416445582493907
17.0	95.20490237835111	pulse	0.0	t		40.0	male	white	1.868682849184242	neutral	172	sub-10	2.0	2.0	172_neutral	0.0		120.27924370653636	
17.0	95.90491243014549	pulse	0.0	t		40.0	male	white	1.868682849184242	neutral	172	sub-10	2.0	2.0	172_neutral	0.0		120.97925375833074	
17.0	96.25478282839322	fix	1.0		444	40.0	male	white	1.868682849184242	neutral	172	sub-10	2.0	2.0	172_neutral	0.0		121.32912415657847	3.766600026985543
17.0	96.60489893719568	pulse	1.0	t		40.0	male	white	1.868682849184242	neutral	172	sub-10	2.0	2.0	172_neutral	0.0		121.67924026538094	
17.0	97.30488695352324	pulse	1.0	t		40.0	male	white	1.868682849184242	neutral	172	sub-10	2.0	2.0	172_neutral	0.0		122.37922828170849	
17.0	98.00487557356246	pulse	1.0	t		40.0	male	white	1.868682849184242	neutral	172	sub-10	2.0	2.0	172_neutral	0.0		123.07921690174771	
17.0	98.70486992886072	pulse	1.0	t		40.0	male	white	1.868682849184242	neutral	172	sub-10	2.0	2.0	172_neutral	0.0		123.77921125704597	
17.0	99.40484919137452	pulse	1.0	t		40.0	male	white	1.868682849184242	neutral	172	sub-10	2.0	2.0	172_neutral	0.0		124.47919051955978	
18.0	100.02138285537876	face	0.0		145	36.0	female	white	2.7548746518105847	smiling	011	sub-10	2.0	2.0	011_smiling	0.0		125.09572418356402	1.2333220942382468
18.0	100.10484294296111	pulse	0.0	t		36.0	female	white	2.7548746518105847	smiling	011	sub-10	2.0	2.0	011_smiling	0.0		125.17918427114637	
18.0	100.80482673330698	pulse	0.0	t		36.0	female	white	2.7548746518105847	smiling	011	sub-10	2.0	2.0	011_smiling	0.0		125.87916806149224	
18.0	101.25470494961701	fix	1.0		444	36.0	female	white	2.7548746518105847	smiling	011	sub-10	2.0	2.0	011_smiling	0.0		126.32904627780226	3.766585236058745
18.0	101.50480478839745	pulse	1.0	t		36.0	female	white	2.7548746518105847	smiling	011	sub-10	2.0	2.0	011_smiling	0.0		126.5791461165827	
18.0	102.20479853998404	pulse	1.0	t		36.0	female	white	2.7548746518105847	smiling	011	sub-10	2.0	2.0	011_smiling	0.0		127.2791398681693	
18.0	102.90478716002326	pulse	1.0	t		36.0	female	white	2.7548746518105847	smiling	011	sub-10	2.0	2.0	011_smiling	0.0		127.97912848820852	
18.0	103.6047748744968	pulse	1.0	t		36.0	female	white	2.7548746518105847	smiling	011	sub-10	2.0	2.0	011_smiling	0.0		128.67911620268205	
18.0	104.30476047597767	pulse	1.0	t		36.0	female	white	2.7548746518105847	smiling	011	sub-10	2.0	2.0	011_smiling	0.0		129.37910180416293	
19.0	105.02129018567575	face	0.0		146	31.0	male	west_asian	1.9538400318344609	smiling	070	sub-10	2.0	2.0	070_smiling	0.0		130.095631513861	1.233328735062969
19.0	105.00763664782062	pulse	0.0	t		31.0	male	west_asian	1.9538400318344609	smiling	070	sub-10	2.0	2.0	070_smiling	0.0		130.08197797600587	
19.0	105.70473379193209	pulse	0.0	t		31.0	male	west_asian	1.9538400318344609	smiling	070	sub-10	2.0	2.0	070_smiling	0.0		130.77907512011734	
19.0	106.25461892073872	fix	1.0		443	31.0	male	west_asian	1.9538400318344609	smiling	070	sub-10	2.0	2.0	070_smiling	0.0		131.32896024892398	3.766584632343438
19.0	106.4047193934166	pulse	1.0	t		31.0	male	west_asian	1.9538400318344609	smiling	070	sub-10	2.0	2.0	070_smiling	0.0		131.47906072160185	
19.0	107.10469714664941	pulse	1.0	t		31.0	male	west_asian	1.9538400318344609	smiling	070	sub-10	2.0	2.0	070_smiling	0.0		132.17903847483467	
19.0	107.80470176504241	pulse	1.0	t		31.0	male	west_asian	1.9538400318344609	smiling	070	sub-10	2.0	2.0	070_smiling	0.0		132.87904309322766	
19.0	108.50468978136996	pulse	1.0	t		31.0	male	west_asian	1.9538400318344609	smiling	070	sub-10	2.0	2.0	070_smiling	0.0		133.57903110955522	
19.0	109.20466813831445	pulse	1.0	t		31.0	male	west_asian	1.9538400318344609	smiling	070	sub-10	2.0	2.0	070_smiling	0.0		134.2790094664997	
19.0	109.90465434350699	pulse	1.0	t		31.0	male	west_asian	1.9538400318344609	smiling	070	sub-10	2.0	2.0	070_smiling	0.0		134.97899567169225	
20.0	110.02120355308216	face	0.0		146	24.0	female	east_asian	2.9076800636689217	smiling	034	sub-10	2.0	2.0	034_smiling	0.0		135.09554488126741	1.233309114442818
20.0	110.60466137674666	pulse	0.0	t		24.0	female	east_asian	2.9076800636689217	smiling	034	sub-10	2.0	2.0	034_smiling	0.0		135.67900270493192	
20.0	111.25451266752498	fix	1.0		1184	24.0	female	east_asian	2.9076800636689217	smiling	034	sub-10	2.0	2.0	034_smiling	0.0		136.32885399571023	10.016492189031851
20.0	111.30464335595752	pulse	1.0	t		24.0	female	east_asian	2.9076800636689217	smiling	034	sub-10	2.0	2.0	034_smiling	0.0		136.37898468414278	
20.0	112.00462744816468	pulse	1.0	t		24.0	female	east_asian	2.9076800636689217	smiling	034	sub-10	2.0	2.0	034_smiling	0.0		137.07896877634994	
20.0	112.7046036921165	pulse	1.0	t		24.0	female	east_asian	2.9076800636689217	smiling	034	sub-10	2.0	2.0	034_smiling	0.0		137.77894502030176	
20.0	113.40459683999143	pulse	1.0	t		24.0	female	east_asian	2.9076800636689217	smiling	034	sub-10	2.0	2.0	034_smiling	0.0		138.47893816817668	
20.0	114.10456191528647	pulse	1.0	t		24.0	female	east_asian	2.9076800636689217	smiling	034	sub-10	2.0	2.0	034_smiling	0.0		139.17890324347172	
20.0	114.80457830605155	pulse	1.0	t		24.0	female	east_asian	2.9076800636689217	smiling	034	sub-10	2.0	2.0	034_smiling	0.0		139.8789196342368	
20.0	115.50456239825508	pulse	1.0	t		24.0	female	east_asian	2.9076800636689217	smiling	034	sub-10	2.0	2.0	034_smiling	0.0		140.57890372644033	
20.0	116.20455494241833	pulse	1.0	t		24.0	female	east_asian	2.9076800636689217	smiling	034	sub-10	2.0	2.0	034_smiling	0.0		141.27889627060358	
20.0	116.90453843091018	pulse	1.0	t		24.0	female	east_asian	2.9076800636689217	smiling	034	sub-10	2.0	2.0	034_smiling	0.0		141.97887975909543	
20.0	117.6045270509494	pulse	1.0	t		24.0	female	east_asian	2.9076800636689217	smiling	034	sub-10	2.0	2.0	034_smiling	0.0		142.67886837913466	
20.0	118.30451235057626	pulse	1.0	t		24.0	female	east_asian	2.9076800636689217	smiling	034	sub-10	2.0	2.0	034_smiling	0.0		143.37885367876152	
20.0	119.00450398917383	pulse	1.0	t		24.0	female	east_asian	2.9076800636689217	smiling	034	sub-10	2.0	2.0	034_smiling	0.0		144.07884531735908	
20.0	119.7044910999357	pulse	1.0	t		24.0	female	east_asian	2.9076800636689217	smiling	034	sub-10	2.0	2.0	034_smiling	0.0		144.77883242812095	
20.0	120.40446341976713	pulse	1.0	t		24.0	female	east_asian	2.9076800636689217	smiling	034	sub-10	2.0	2.0	034_smiling	0.0		145.47880474795238	
20.0	121.1044644158901	pulse	1.0	t		24.0	female	east_asian	2.9076800636689217	smiling	034	sub-10	2.0	2.0	034_smiling	0.0		146.17880574407536	
21.0	121.27100485655683	face	0.0		146	22.0	male	black	2.767608436132113	smiling	044	sub-10	2.0	2.0	044_smiling	0.0		146.34534618474208	1.233326018362277
21.0	121.80445756376503	pulse	0.0	t		22.0	male	black	2.767608436132113	smiling	044	sub-10	2.0	2.0	044_smiling	0.0		146.87879889195028	
21.0	122.5043308749191	fix	1.0		444	22.0	male	black	2.767608436132113	smiling	044	sub-10	2.0	2.0	044_smiling	0.0		147.57867220310436	3.766587952759437
21.0	122.51178761673145	pulse	1.0	t		22.0	male	black	2.767608436132113	smiling	044	sub-10	2.0	2.0	044_smiling	0.0		147.5861289449167	
21.0	123.20442816301875	pulse	1.0	t		22.0	male	black	2.767608436132113	smiling	044	sub-10	2.0	2.0	044_smiling	0.0		148.278769491204	
21.0	123.90441889604699	pulse	1.0	t		22.0	male	black	2.767608436132113	smiling	044	sub-10	2.0	2.0	044_smiling	0.0		148.97876022423225	
21.0	124.60438819732008	pulse	1.0	t		22.0	male	black	2.767608436132113	smiling	044	sub-10	2.0	2.0	044_smiling	0.0		149.67872952550533	
21.0	125.30439191014739	pulse	1.0	t		22.0	male	black	2.767608436132113	smiling	044	sub-10	2.0	2.0	044_smiling	0.0		150.37873323833264	
21.0	126.00437147451521	pulse	1.0	t		22.0	male	black	2.767608436132113	smiling	044	sub-10	2.0	2.0	044_smiling	0.0		151.07871280270047	
22.0	126.27091882767854	face	0.0		145	26.0	male	white	2.7966573816155993	smiling	117	sub-10	2.0	2.0	117_smiling	0.0		151.3452601558638	1.2333208868149086
22.0	126.70436009455443	pulse	0.0	t		26.0	male	white	2.7966573816155993	smiling	117	sub-10	2.0	2.0	117_smiling	0.0		151.7787014227397	
22.0	127.40435837397672	pulse	0.0	t		26.0	male	white	2.7966573816155993	smiling	117	sub-10	2.0	2.0	117_smiling	0.0		152.47869970216198	
22.0	127.50423971449345	fix	1.0		444	26.0	male	white	2.7966573816155993	smiling	117	sub-10	2.0	2.0	117_smiling	0.0		152.5785810426787	3.7665861416207918
22.0	128.10434427731525	pulse	1.0	t		26.0	male	white	2.7966573816155993	smiling	117	sub-10	2.0	2.0	117_smiling	0.0		153.1786856055005	
22.0	128.8043241435371	pulse	1.0	t		26.0	male	white	2.7966573816155993	smiling	117	sub-10	2.0	2.0	117_smiling	0.0		153.87866547172234	
22.0	129.504313669142	pulse	1.0	t		26.0	male	white	2.7966573816155993	smiling	117	sub-10	2.0	2.0	117_smiling	0.0		154.57865499732725	
22.0	130.20430138361553	pulse	1.0	t		26.0	male	white	2.7966573816155993	smiling	117	sub-10	2.0	2.0	117_smiling	0.0		155.27864271180079	
22.0	130.90428789066573	pulse	1.0	t		26.0	male	white	2.7966573816155993	smiling	117	sub-10	2.0	2.0	117_smiling	0.0		155.97862921885098	
23.0	131.27082585611424	face	0.0		145	31.0	male	west_asian	1.9538400318344609	neutral	070	sub-10	2.0	2.0	070_neutral	0.0		156.3451671842995	1.233313944136171
23.0	131.60428345338732	pulse	0.0	t		31.0	male	west_asian	1.9538400318344609	neutral	070	sub-10	2.0	2.0	070_neutral	0.0		156.67862478157258	
23.0	132.30425698063846	pulse	0.0	t		31.0	male	west_asian	1.9538400318344609	neutral	070	sub-10	2.0	2.0	070_neutral	0.0		157.3785983088237	
23.0	132.5041398002504	fix	1.0		444	31.0	male	west_asian	1.9538400318344609	neutral	070	sub-10	2.0	2.0	070_neutral	0.0		157.57848112843567	3.7582392272961442
23.0	133.00424258212297	pulse	1.0	t		31.0	male	west_asian	1.9538400318344609	neutral	070	sub-10	2.0	2.0	070_neutral	0.0		158.07858391030823	
23.0	133.7042333151512	pulse	1.0	t		31.0	male	west_asian	1.9538400318344609	neutral	070	sub-10	2.0	2.0	070_neutral	0.0		158.77857464333647	
23.0	134.4042279723035	pulse	1.0	t		31.0	male	west_asian	1.9538400318344609	neutral	070	sub-10	2.0	2.0	070_neutral	0.0		159.47856930048874	
23.0	135.10421266821868	pulse	1.0	t		31.0	male	west_asian	1.9538400318344609	neutral	070	sub-10	2.0	2.0	070_neutral	0.0		160.17855399640393	
23.0	135.8041922325865	pulse	1.0	t		31.0	male	west_asian	1.9538400318344609	neutral	070	sub-10	2.0	2.0	070_neutral	0.0		160.87853356077176	
24.0	136.26237902754656	face	0.0		146	24.0	female	east_asian	4.409868682849185	neutral	030	sub-10	2.0	2.0	030_neutral	1.0	attractiveness	161.3367203557318	1.2416834976393147
24.0	136.50418719159643	pulse	0.0	t		24.0	female	east_asian	4.409868682849185	neutral	030	sub-10	2.0	2.0	030_neutral	1.0	attractiveness	161.57852851978168	
24.0	137.20417188751162	pulse	0.0	t		24.0	female	east_asian	4.409868682849185	neutral	030	sub-10	2.0	2.0	030_neutral	1.0	attractiveness	162.27851321569688	
24.0	137.50406252518587	fix	1.0		177	24.0	female	east_asian	4.409868682849185	neutral	030	sub-10	2.0	2.0	030_neutral	1.0	attractiveness	162.57840385337113	1.4999747950460005
24.0	137.90417318549225	pulse	1.0	t		24.0	female	east_asian	4.409868682849185	neutral	030	sub-10	2.0	2.0	030_neutral	1.0	attractiveness	162.9785145136775	
24.0	138.60415093872507	pulse	1.0	t		24.0	female	east_asian	4.409868682849185	neutral	030	sub-10	2.0	2.0	030_neutral	1.0	attractiveness	163.67849226691033	
24.0	139.00403732023187	rating	2.0		294	24.0	female	east_asian	4.409868682849185	neutral	030	sub-10	2.0	2.0	030_neutral	1.0	attractiveness	164.07837864841713	2.499954268860165
24.0	139.29899925773498	pulse	2.0	t		24.0	female	east_asian	4.409868682849185	neutral	030	sub-10	2.0	2.0	030_neutral	1.0	attractiveness	164.37334058592023	
24.0	139.9989869722085	pulse	2.0	t		24.0	female	east_asian	4.409868682849185	neutral	030	sub-10	2.0	2.0	030_neutral	1.0	attractiveness	165.07332830039377	
24.0	140.52912349249527	response	2.0	b		24.0	female	east_asian	4.409868682849185	neutral	030	sub-10	2.0	2.0	030_neutral	1.0	attractiveness	165.60346482068053	
24.0	140.6989580846166	pulse	2.0	t		24.0	female	east_asian	4.409868682849185	neutral	030	sub-10	2.0	2.0	030_neutral	1.0	attractiveness	165.77329941280186	
24.0	141.40409696692222	pulse	2.0	t		24.0	female	east_asian	4.409868682849185	neutral	030	sub-10	2.0	2.0	030_neutral	1.0	attractiveness	166.47843829510748	
24.0	141.50399158909204	fix	3.0		444	24.0	female	east_asian	4.409868682849185	neutral	030	sub-10	2.0	2.0	030_neutral	1.0	attractiveness	166.5783329172773	3.7665891601791373
24.0	142.10409343521314	pulse	3.0	t		24.0	female	east_asian	4.409868682849185	neutral	030	sub-10	2.0	2.0	030_neutral	1.0	attractiveness	167.1784347633984	
24.0	142.80407813112834	pulse	3.0	t		24.0	female	east_asian	4.409868682849185	neutral	030	sub-10	2.0	2.0	030_neutral	1.0	attractiveness	167.8784194593136	
24.0	143.50406494003255	pulse	3.0	t		24.0	female	east_asian	4.409868682849185	neutral	030	sub-10	2.0	2.0	030_neutral	1.0	attractiveness	168.5784062682178	
24.0	144.20405537120678	pulse	3.0	t		24.0	female	east_asian	4.409868682849185	neutral	030	sub-10	2.0	2.0	030_neutral	1.0	attractiveness	169.27839669939203	
24.0	144.90404459495767	pulse	3.0	t		24.0	female	east_asian	4.409868682849185	neutral	030	sub-10	2.0	2.0	030_neutral	1.0	attractiveness	169.97838592314292	
25.0	145.27058074927118	face	0.0		145	30.0	female	black	2.7345801830481498	neutral	062	sub-10	2.0	2.0	062_neutral	0.0		170.34492207745643	1.2333181701142166
25.0	145.60403472427424	pulse	0.0	t		30.0	female	black	2.7345801830481498	neutral	062	sub-10	2.0	2.0	062_neutral	0.0		170.6783760524595	
25.0	146.30401006266038	pulse	0.0	t		30.0	female	black	2.7345801830481498	neutral	062	sub-10	2.0	2.0	062_neutral	0.0		171.37835139084564	
25.0	146.5038989193854	fix	1.0		444	30.0	female	black	2.7345801830481498	neutral	062	sub-10	2.0	2.0	062_neutral	0.0		171.57824024757065	3.766590669460129
25.0	147.0040083420863	pulse	1.0	t		30.0	female	black	2.7345801830481498	neutral	062	sub-10	2.0	2.0	062_neutral	0.0		172.07834967027156	
25.0	147.70398730274246	pulse	1.0	t		30.0	female	black	2.7345801830481498	neutral	062	sub-10	2.0	2.0	062_neutral	0.0		172.77832863092772	
25.0	148.40396837638764	pulse	1.0	t		30.0	female	black	2.7345801830481498	neutral	062	sub-10	2.0	2.0	062_neutral	0.0		173.4783097045729	
25.0	149.10394975189047	pulse	1.0	t		30.0	female	black	2.7345801830481498	neutral	062	sub-10	2.0	2.0	062_neutral	0.0		174.17829108007572	
25.0	149.80393354223634	pulse	1.0	t		30.0	female	black	2.7345801830481498	neutral	062	sub-10	2.0	2.0	062_neutral	0.0		174.8782748704216	
26.0	150.27048958884552	face	0.0		145	22.0	female	white	4.614007162753682	neutral	009	sub-10	2.0	2.0	009_neutral	0.0		175.34483091703078	1.2333257165082614
26.0	150.5039451033117	pulse	0.0	t		22.0	female	white	4.614007162753682	neutral	009	sub-10	2.0	2.0	009_neutral	0.0		175.57828643149696	
26.0	151.20392678066855	pulse	0.0	t		22.0	female	white	4.614007162753682	neutral	009	sub-10	2.0	2.0	009_neutral	0.0		176.2782681088538	
26.0	151.50381530535378	fix	1.0		444	22.0	female	white	4.614007162753682	neutral	009	sub-10	2.0	2.0	009_neutral	0.0		176.57815663353904	3.7665870471901144
26.0	151.90391841926612	pulse	1.0	t		22.0	female	white	4.614007162753682	neutral	009	sub-10	2.0	2.0	009_neutral	0.0		176.97825974745138	
26.0	152.60390371889298	pulse	1.0	t		22.0	female	white	4.614007162753682	neutral	009	sub-10	2.0	2.0	009_neutral	0.0		177.67824504707824	
26.0	153.3038859999615	pulse	1.0	t		22.0	female	white	4.614007162753682	neutral	009	sub-10	2.0	2.0	009_neutral	0.0		178.37822732814675	
26.0	154.00387854412475	pulse	1.0	t		22.0	female	white	4.614007162753682	neutral	009	sub-10	2.0	2.0	009_neutral	0.0		179.07821987231	
26.0	154.70385629735756	pulse	1.0	t		22.0	female	white	4.614007162753682	neutral	009	sub-10	2.0	2.0	009_neutral	0.0		179.77819762554282	
27.0	155.2704023525439	face	0.0		145	26.0	male	white	2.7966573816155993	neutral	117	sub-10	2.0	2.0	117_neutral	0.0		180.34474368072915	1.2333214905265777
27.0	155.4038485396668	pulse	0.0	t		26.0	male	white	2.7966573816155993	neutral	117	sub-10	2.0	2.0	117_neutral	0.0		180.47818986785205	
27.0	156.10384500795408	pulse	0.0	t		26.0	male	white	2.7966573816155993	neutral	117	sub-10	2.0	2.0	117_neutral	0.0		181.17818633613933	
27.0	156.50372384307047	fix	1.0		444	26.0	male	white	2.7966573816155993	neutral	117	sub-10	2.0	2.0	117_neutral	0.0		181.57806517125573	3.7665776896610623
27.0	156.80383423170497	pulse	1.0	t		26.0	male	white	2.7966573816155993	neutral	117	sub-10	2.0	2.0	117_neutral	0.0		181.87817555989022	
27.0	157.50381892762016	pulse	1.0	t		26.0	male	white	2.7966573816155993	neutral	117	sub-10	2.0	2.0	117_neutral	0.0		182.57816025580541	
27.0	158.20378943631658	pulse	1.0	t		26.0	male	white	2.7966573816155993	neutral	117	sub-10	2.0	2.0	117_neutral	0.0		183.27813076450184	
27.0	158.9037795656368	pulse	1.0	t		26.0	male	white	2.7966573816155993	neutral	117	sub-10	2.0	2.0	117_neutral	0.0		183.97812089382205	
27.0	159.6037763357781	pulse	1.0	t		26.0	male	white	2.7966573816155993	neutral	117	sub-10	2.0	2.0	117_neutral	0.0		184.67811766396335	
28.0	160.27030153273154	face	0.0		145	34.0	male	white	2.651014723438122	smiling	121	sub-10	2.0	2.0	121_smiling	0.0		185.3446428609168	1.2333338666139753
28.0	160.30377340778068	pulse	0.0	t		34.0	male	white	2.651014723438122	smiling	121	sub-10	2.0	2.0	121_smiling	0.0		185.37811473596594	
28.0	161.00375719812655	pulse	0.0	t		34.0	male	white	2.651014723438122	smiling	121	sub-10	2.0	2.0	121_smiling	0.0		186.0780985263118	
28.0	161.5036353993455	fix	1.0		443	34.0	male	white	2.651014723438122	smiling	121	sub-10	2.0	2.0	121_smiling	0.0		186.57797672753077	3.766585839766776
28.0	161.70375034600147	pulse	1.0	t		34.0	male	white	2.651014723438122	smiling	121	sub-10	2.0	2.0	121_smiling	0.0		186.77809167418673	
28.0	162.40373775861735	pulse	1.0	t		34.0	male	white	2.651014723438122	smiling	121	sub-10	2.0	2.0	121_smiling	0.0		187.4780790868026	
28.0	163.10371490814214	pulse	1.0	t		34.0	male	white	2.651014723438122	smiling	121	sub-10	2.0	2.0	121_smiling	0.0		188.1780562363274	
28.0	163.80369507622163	pulse	1.0	t		34.0	male	white	2.651014723438122	smiling	121	sub-10	2.0	2.0	121_smiling	0.0		188.87803640440688	
28.0	164.50369546863294	pulse	1.0	t		34.0	male	white	2.651014723438122	smiling	121	sub-10	2.0	2.0	121_smiling	0.0		189.5780367968182	
28.0	165.20364877155225	pulse	1.0	t		34.0	male	white	2.651014723438122	smiling	121	sub-10	2.0	2.0	121_smiling	0.0		190.2779900997375	
29.0	165.2702212391123	face	0.0		146	25.0	female	black	3.858336649423	smiling	126	sub-10	2.0	2.0	126_smiling	0.0		190.34456256729754	1.2333130385668483
29.0	165.90367119943403	pulse	0.0	t		25.0	female	black	3.858336649423	smiling	126	sub-10	2.0	2.0	126_smiling	0.0		190.97801252761928	
29.0	166.50353427767914	fix	1.0		443	25.0	female	black	3.858336649423	smiling	126	sub-10	2.0	2.0	126_smiling	0.0		191.5778756058644	3.7665991214198584
29.0	166.60364472668516	pulse	1.0	t		25.0	female	black	3.858336649423	smiling	126	sub-10	2.0	2.0	126_smiling	0.0		191.67798605487042	
29.0	167.30364270425343	pulse	1.0	t		25.0	female	black	3.858336649423	smiling	126	sub-10	2.0	2.0	126_smiling	0.0		192.3779840324387	
29.0	168.00363585212835	pulse	1.0	t		25.0	female	black	3.858336649423	smiling	126	sub-10	2.0	2.0	126_smiling	0.0		193.0779771803136	
29.0	168.70360726639046	pulse	1.0	t		25.0	female	black	3.858336649423	smiling	126	sub-10	2.0	2.0	126_smiling	0.0		193.77794859457572	
29.0	169.40359618828734	pulse	1.0	t		25.0	female	black	3.858336649423	smiling	126	sub-10	2.0	2.0	126_smiling	0.0		194.4779375164726	
29.0	170.10359295842864	pulse	1.0	t		25.0	female	black	3.858336649423	smiling	126	sub-10	2.0	2.0	126_smiling	0.0		195.1779342866139	
30.0	170.270133399099	face	0.0		146	20.0	female	white	3.9502586549940313	smiling	091	sub-10	2.0	2.0	091_smiling	1.0	dominance	195.34447472728425	1.2333121329975256
30.0	170.80358489888386	pulse	0.0	t		20.0	female	white	3.9502586549940313	smiling	091	sub-10	2.0	2.0	091_smiling	1.0	dominance	195.8779262270691	
30.0	171.50344553209652	fix	1.0		176	20.0	female	white	3.9502586549940313	smiling	091	sub-10	2.0	2.0	091_smiling	1.0	dominance	196.57778686028178	1.4999868692757445
30.0	171.51141331564213	pulse	1.0	t		20.0	female	white	3.9502586549940313	smiling	091	sub-10	2.0	2.0	091_smiling	1.0	dominance	196.58575464382739	
30.0	172.20355640370326	pulse	1.0	t		20.0	female	white	3.9502586549940313	smiling	091	sub-10	2.0	2.0	091_smiling	1.0	dominance	197.27789773188852	
30.0	172.90354472188483	pulse	1.0	t		20.0	female	white	3.9502586549940313	smiling	091	sub-10	2.0	2.0	091_smiling	1.0	dominance	197.97788605007008	
30.0	173.00343240137227	rating	2.0		295	20.0	female	white	3.9502586549940313	smiling	091	sub-10	2.0	2.0	091_smiling	1.0	dominance	198.07777372955752	2.499941590918752
30.0	173.59837764625627	pulse	2.0	t		20.0	female	white	3.9502586549940313	smiling	091	sub-10	2.0	2.0	091_smiling	1.0	dominance	198.67271897444152	
30.0	174.2983771331019	pulse	2.0	t		20.0	female	white	3.9502586549940313	smiling	091	sub-10	2.0	2.0	091_smiling	1.0	dominance	199.37271846128715	
30.0	174.48684497686554	response	2.0	e		20.0	female	white	3.9502586549940313	smiling	091	sub-10	2.0	2.0	091_smiling	1.0	dominance	199.5611863050508	
30.0	175.003493074375	pulse	2.0	t		20.0	female	white	3.9502586549940313	smiling	091	sub-10	2.0	2.0	091_smiling	1.0	dominance	200.07783440256026	
30.0	175.50337399229102	fix	3.0		443	20.0	female	white	3.9502586549940313	smiling	091	sub-10	2.0	2.0	091_smiling	1.0	dominance	200.57771532047627	3.7665982158541738
30.0	175.70348652410394	pulse	3.0	t		20.0	female	white	3.9502586549940313	smiling	091	sub-10	2.0	2.0	091_smiling	1.0	dominance	200.7778278522892	
30.0	176.40348419981456	pulse	3.0	t		20.0	female	white	3.9502586549940313	smiling	091	sub-10	2.0	2.0	091_smiling	1.0	dominance	201.4778255279998	
30.0	177.10347161243044	pulse	3.0	t		20.0	female	white	3.9502586549940313	smiling	091	sub-10	2.0	2.0	091_smiling	1.0	dominance	202.1778129406157	
30.0	177.80344846009757	pulse	3.0	t		20.0	female	white	3.9502586549940313	smiling	091	sub-10	2.0	2.0	091_smiling	1.0	dominance	202.87778978828283	
30.0	178.5034361745711	pulse	3.0	t		20.0	female	white	3.9502586549940313	smiling	091	sub-10	2.0	2.0	091_smiling	1.0	dominance	203.57777750275636	
30.0	179.2034284168767	pulse	3.0	t		20.0	female	white	3.9502586549940313	smiling	091	sub-10	2.0	2.0	091_smiling	1.0	dominance	204.27776974506196	
31.0	179.2699722081452	face	0.0		146	31.0	female	white	2.1822522881018704	neutral	102	sub-10	2.0	2.0	102_neutral	0.0		204.34431353633045	1.2333272257856152
31.0	179.9034348464047	pulse	0.0	t		31.0	female	white	2.1822522881018704	neutral	102	sub-10	2.0	2.0	102_neutral	0.0		204.97777617458996	
31.0	180.5032994339308	fix	1.0		443	31.0	female	white	2.1822522881018704	neutral	102	sub-10	2.0	2.0	102_neutral	0.0		205.57764076211606	3.7665816137850925
31.0	180.6034032421121	pulse	1.0	t		31.0	female	white	2.1822522881018704	neutral	102	sub-10	2.0	2.0	102_neutral	0.0		205.67774457029736	
31.0	181.3033788823559	pulse	1.0	t		31.0	female	white	2.1822522881018704	neutral	102	sub-10	2.0	2.0	102_neutral	0.0		206.37772021054116	
31.0	182.0033454669283	pulse	1.0	t		31.0	female	white	2.1822522881018704	neutral	102	sub-10	2.0	2.0	102_neutral	0.0		207.07768679511355	
31.0	182.70337000779546	pulse	1.0	t		31.0	female	white	2.1822522881018704	neutral	102	sub-10	2.0	2.0	102_neutral	0.0		207.7777113359807	
31.0	183.40335168515594	pulse	1.0	t		31.0	female	white	2.1822522881018704	neutral	102	sub-10	2.0	2.0	102_neutral	0.0		208.4776930133412	
31.0	184.1033415126185	pulse	1.0	t		31.0	female	white	2.1822522881018704	neutral	102	sub-10	2.0	2.0	102_neutral	0.0		209.17768284080375	
32.0	184.2698810477159	face	0.0		146	28.0	male	east_asian	1.5563072025467568	smiling	005	sub-10	2.0	2.0	005_smiling	0.0		209.34422237590115	1.2333190756835393
32.0	184.80333707533646	pulse	0.0	t		28.0	male	east_asian	1.5563072025467568	smiling	005	sub-10	2.0	2.0	005_smiling	0.0		209.8776784035217	
32.0	185.50320012339944	fix	1.0		444	28.0	male	east_asian	1.5563072025467568	smiling	005	sub-10	2.0	2.0	005_smiling	0.0		210.5775414515847	3.7665951972921903
32.0	185.51074440336743	pulse	1.0	t		28.0	male	east_asian	1.5563072025467568	smiling	005	sub-10	2.0	2.0	005_smiling	0.0		210.58508573155268	
32.0	186.20329741149544	pulse	1.0	t		28.0	male	east_asian	1.5563072025467568	smiling	005	sub-10	2.0	2.0	005_smiling	0.0		211.2776387396807	
32.0	186.90329146493968	pulse	1.0	t		28.0	male	east_asian	1.5563072025467568	smiling	005	sub-10	2.0	2.0	005_smiling	0.0		211.97763279312494	
32.0	187.60328068869057	pulse	1.0	t		28.0	male	east_asian	1.5563072025467568	smiling	005	sub-10	2.0	2.0	005_smiling	0.0		212.67762201687583	
32.0	188.30326447903644	pulse	1.0	t		28.0	male	east_asian	1.5563072025467568	smiling	005	sub-10	2.0	2.0	005_smiling	0.0		213.3776058072217	
32.0	189.00323710072553	pulse	1.0	t		28.0	male	east_asian	1.5563072025467568	smiling	005	sub-10	2.0	2.0	005_smiling	0.0		214.07757842891078	
33.0	189.26979532069163	face	0.0		145	31.0	female	west_asian	2.364902506963788	smiling	006	sub-10	2.0	2.0	006_smiling	0.0		214.34413664887688	1.233323301661585
33.0	189.70324956736658	pulse	0.0	t		31.0	female	west_asian	2.364902506963788	smiling	006	sub-10	2.0	2.0	006_smiling	0.0		214.77759089555184	
33.0	190.40322400018704	pulse	0.0	t		31.0	female	west_asian	2.364902506963788	smiling	006	sub-10	2.0	2.0	006_smiling	0.0		215.4775653283723	
33.0	190.5031186223532	fix	1.0		444	31.0	female	west_asian	2.364902506963788	smiling	006	sub-10	2.0	2.0	006_smiling	0.0		215.57745995053847	3.766589462036791
33.0	191.10321926105098	pulse	1.0	t		31.0	female	west_asian	2.364902506963788	smiling	006	sub-10	2.0	2.0	006_smiling	0.0		216.17756058923624	
33.0	191.80320003284214	pulse	1.0	t		31.0	female	west_asian	2.364902506963788	smiling	006	sub-10	2.0	2.0	006_smiling	0.0		216.8775413610274	
33.0	192.5031925770054	pulse	1.0	t		31.0	female	west_asian	2.364902506963788	smiling	006	sub-10	2.0	2.0	006_smiling	0.0		217.57753390519065	
33.0	193.20316972652654	pulse	1.0	t		31.0	female	west_asian	2.364902506963788	smiling	006	sub-10	2.0	2.0	006_smiling	0.0		218.2775110547118	
33.0	193.9031704207955	pulse	1.0	t		31.0	female	west_asian	2.364902506963788	smiling	006	sub-10	2.0	2.0	006_smiling	0.0		218.97751174898076	
34.0	194.26970808439	face	0.0		145	30.0	female	black	2.7345801830481498	smiling	062	sub-10	2.0	2.0	062_smiling	0.0		219.34404941257526	1.233322697949916
34.0	194.60314696660498	pulse	0.0	t		30.0	female	black	2.7345801830481498	smiling	062	sub-10	2.0	2.0	062_smiling	0.0		219.67748829479024	
34.0	195.30313679406754	pulse	0.0	t		30.0	female	black	2.7345801830481498	smiling	062	sub-10	2.0	2.0	062_smiling	0.0		220.3774781222528	
34.0	195.50303078233992	fix	1.0		444	30.0	female	black	2.7345801830481498	smiling	062	sub-10	2.0	2.0	062_smiling	0.0		220.57737211052518	3.766569237704971
34.0	196.00313235678914	pulse	1.0	t		30.0	female	black	2.7345801830481498	smiling	062	sub-10	2.0	2.0	062_smiling	0.0		221.0774736849744	
34.0	196.70312429724072	pulse	1.0	t		30.0	female	black	2.7345801830481498	smiling	062	sub-10	2.0	2.0	062_smiling	0.0		221.77746562542598	
34.0	197.4031023523312	pulse	1.0	t		30.0	female	black	2.7345801830481498	smiling	062	sub-10	2.0	2.0	062_smiling	0.0		222.47744368051644	
34.0	198.10309580206376	pulse	1.0	t		30.0	female	black	2.7345801830481498	smiling	062	sub-10	2.0	2.0	062_smiling	0.0		223.17743713024902	
34.0	198.8030711404499	pulse	1.0	t		30.0	female	black	2.7345801830481498	smiling	062	sub-10	2.0	2.0	062_smiling	0.0		223.87741246863516	
35.0	199.2696000200449	face	0.0		145	40.0	female	west_asian	1.5777954635893354	neutral	038	sub-10	2.0	2.0	038_neutral	0.0		224.34394134823015	1.2333299424863071
35.0	199.5030621753358	pulse	0.0	t		40.0	female	west_asian	1.5777954635893354	neutral	038	sub-10	2.0	2.0	038_neutral	0.0		224.57740350352105	
35.0	200.2030532102217	pulse	0.0	t		40.0	female	west_asian	1.5777954635893354	neutral	038	sub-10	2.0	2.0	038_neutral	0.0		225.27739453840695	
35.0	200.5029299625312	fix	1.0		444	40.0	female	west_asian	1.5777954635893354	neutral	038	sub-10	2.0	2.0	038_neutral	0.0		225.57727129071645	3.76659791399652
35.0	200.90303398201286	pulse	1.0	t		40.0	female	west_asian	1.5777954635893354	neutral	038	sub-10	2.0	2.0	038_neutral	0.0		225.9773753101981	
35.0	201.60303890225987	pulse	1.0	t		40.0	female	west_asian	1.5777954635893354	neutral	038	sub-10	2.0	2.0	038_neutral	0.0		226.67738023044512	
35.0	202.30302269260574	pulse	1.0	t		40.0	female	west_asian	1.5777954635893354	neutral	038	sub-10	2.0	2.0	038_neutral	0.0		227.377364020791	
35.0	203.0030049736779	pulse	1.0	t		40.0	female	west_asian	1.5777954635893354	neutral	038	sub-10	2.0	2.0	038_neutral	0.0		228.07734630186314	
35.0	203.7029836324764	pulse	1.0	t		40.0	female	west_asian	1.5777954635893354	neutral	038	sub-10	2.0	2.0	038_neutral	0.0		228.77732496066164	
36.0	204.26952787652772	face	0.0		145	21.0	male	black	2.969757262236371	neutral	137	sub-10	2.0	2.0	137_neutral	0.0		229.34386920471297	1.2333236035156006
36.0	204.40297889334397	pulse	0.0	t		21.0	male	black	2.969757262236371	neutral	137	sub-10	2.0	2.0	137_neutral	0.0		229.47732022152923	
36.0	205.10296690967152	pulse	0.0	t		21.0	male	black	2.969757262236371	neutral	137	sub-10	2.0	2.0	137_neutral	0.0		230.17730823785678	
36.0	205.50285148004332	fix	1.0		444	21.0	male	black	2.969757262236371	neutral	137	sub-10	2.0	2.0	137_neutral	0.0		230.57719280822857	3.7665864434784453
36.0	205.80296186868145	pulse	1.0	t		21.0	male	black	2.969757262236371	neutral	137	sub-10	2.0	2.0	137_neutral	0.0		230.8773031968667	
36.0	206.5029453571733	pulse	1.0	t		21.0	male	black	2.969757262236371	neutral	137	sub-10	2.0	2.0	137_neutral	0.0		231.57728668535856	
36.0	207.2029258271068	pulse	1.0	t		21.0	male	black	2.969757262236371	neutral	137	sub-10	2.0	2.0	137_neutral	0.0		232.27726715529207	
36.0	207.90292078611674	pulse	1.0	t		21.0	male	black	2.969757262236371	neutral	137	sub-10	2.0	2.0	137_neutral	0.0		232.977262114302	
36.0	208.6029106135793	pulse	1.0	t		21.0	male	black	2.969757262236371	neutral	137	sub-10	2.0	2.0	137_neutral	0.0		233.67725194176455	
37.0	209.26943792352176	face	0.0		145	24.0	female	black	3.0955033824114606	neutral	099	sub-10	2.0	2.0	099_neutral	1.0	trustworthiness	234.34377925170702	1.2333115292894945
37.0	209.3029019503192	pulse	0.0	t		24.0	female	black	3.0955033824114606	neutral	099	sub-10	2.0	2.0	099_neutral	1.0	trustworthiness	234.37724327850447	
37.0	210.0028803072637	pulse	0.0	t		24.0	female	black	3.0955033824114606	neutral	099	sub-10	2.0	2.0	099_neutral	1.0	trustworthiness	235.07722163544895	
37.0	210.50274945281126	fix	1.0		177	24.0	female	black	3.0955033824114606	neutral	099	sub-10	2.0	2.0	099_neutral	1.0	trustworthiness	235.5770907809965	1.499986567421729
37.0	210.70285987163152	pulse	1.0	t		24.0	female	black	3.0955033824114606	neutral	099	sub-10	2.0	2.0	099_neutral	1.0	trustworthiness	235.77720119981677	
37.0	211.40286177332382	pulse	1.0	t		24.0	female	black	3.0955033824114606	neutral	099	sub-10	2.0	2.0	099_neutral	1.0	trustworthiness	236.47720310150908	
37.0	212.002736020233	rating	2.0		294	24.0	female	black	3.0955033824114606	neutral	099	sub-10	2.0	2.0	099_neutral	1.0	trustworthiness	237.07707734841824	2.499942798338452
37.0	212.0977659356431	pulse	2.0	t		24.0	female	black	3.0955033824114606	neutral	099	sub-10	2.0	2.0	099_neutral	1.0	trustworthiness	237.17210726382837	
37.0	212.79768150659947	pulse	2.0	t		24.0	female	black	3.0955033824114606	neutral	099	sub-10	2.0	2.0	099_neutral	1.0	trustworthiness	237.87202283478473	
37.0	213.43615615720773	response	2.0	w		24.0	female	black	3.0955033824114606	neutral	099	sub-10	2.0	2.0	099_neutral	1.0	trustworthiness	238.510497485393	
37.0	213.49766982478104	pulse	2.0	t		24.0	female	black	3.0955033824114606	neutral	099	sub-10	2.0	2.0	099_neutral	1.0	trustworthiness	238.5720111529663	
37.0	214.20279693471457	pulse	2.0	t		24.0	female	black	3.0955033824114606	neutral	099	sub-10	2.0	2.0	099_neutral	1.0	trustworthiness	239.27713826289983	
37.0	214.50267881857144	fix	3.0		444	24.0	female	black	3.0955033824114606	neutral	099	sub-10	2.0	2.0	099_neutral	1.0	trustworthiness	239.5770201467567	3.7665982158541738
37.0	214.9027955159945	pulse	3.0	t		24.0	female	black	3.0955033824114606	neutral	099	sub-10	2.0	2.0	099_neutral	1.0	trustworthiness	239.97713684417977	
37.0	215.60278232489873	pulse	3.0	t		24.0	female	black	3.0955033824114606	neutral	099	sub-10	2.0	2.0	099_neutral	1.0	trustworthiness	240.67712365308398	
37.0	216.30273864637638	pulse	3.0	t		24.0	female	black	3.0955033824114606	neutral	099	sub-10	2.0	2.0	099_neutral	1.0	trustworthiness	241.37707997456164	
37.0	217.00276892250622	pulse	3.0	t		24.0	female	black	3.0955033824114606	neutral	099	sub-10	2.0	2.0	099_neutral	1.0	trustworthiness	242.07711025069148	
37.0	217.70273792192165	pulse	3.0	t		24.0	female	black	3.0955033824114606	neutral	099	sub-10	2.0	2.0	099_neutral	1.0	trustworthiness	242.7770792501069	
38.0	218.2692770344256	face	0.0		145	20.0	male	black	2.609629924393156	neutral	043	sub-10	2.0	2.0	043_neutral	0.0		243.34361836261087	1.2333160571215558
38.0	218.40273801247895	pulse	0.0	t		20.0	male	black	2.609629924393156	neutral	043	sub-10	2.0	2.0	043_neutral	0.0		243.4770793406642	
38.0	219.10271757684677	pulse	0.0	t		20.0	male	black	2.609629924393156	neutral	043	sub-10	2.0	2.0	043_neutral	0.0		244.17705890503203	
38.0	219.50259309154717	fix	1.0		444	20.0	male	black	2.609629924393156	neutral	043	sub-10	2.0	2.0	043_neutral	0.0		244.57693441973242	3.7665970084308356
38.0	219.80271404513405	pulse	1.0	t		20.0	male	black	2.609629924393156	neutral	043	sub-10	2.0	2.0	043_neutral	0.0		244.8770553733193	
38.0	220.5026972317719	pulse	1.0	t		20.0	male	black	2.609629924393156	neutral	043	sub-10	2.0	2.0	043_neutral	0.0		245.57703855995715	
38.0	221.2026855499571	pulse	1.0	t		20.0	male	black	2.609629924393156	neutral	043	sub-10	2.0	2.0	043_neutral	0.0		246.27702687814235	
38.0	221.90267175514964	pulse	1.0	t		20.0	male	black	2.609629924393156	neutral	043	sub-10	2.0	2.0	043_neutral	0.0		246.9770130833349	
38.0	222.60265675291885	pulse	1.0	t		20.0	male	black	2.609629924393156	neutral	043	sub-10	2.0	2.0	043_neutral	0.0		247.6769980811041	
39.0	223.269190099978	face	0.0		145	24.0	male	white	3.1153999204138483	smiling	012	sub-10	2.0	2.0	012_smiling	1.0	attractiveness	248.34353142816326	1.233322697949916
39.0	223.30267133255256	pulse	0.0	t		24.0	male	white	3.1153999204138483	smiling	012	sub-10	2.0	2.0	012_smiling	1.0	attractiveness	248.37701266073782	
39.0	224.0026475765044	pulse	0.0	t		24.0	male	white	3.1153999204138483	smiling	012	sub-10	2.0	2.0	012_smiling	1.0	attractiveness	249.07698890468964	
39.0	224.50251279792792	fix	1.0		177	24.0	male	white	3.1153999204138483	smiling	012	sub-10	2.0	2.0	012_smiling	1.0	attractiveness	249.57685412611318	1.4999757006153231
39.0	224.7026205000475	pulse	1.0	t		24.0	male	white	3.1153999204138483	smiling	012	sub-10	2.0	2.0	012_smiling	1.0	attractiveness	249.77696182823274	
39.0	225.40262209988214	pulse	1.0	t		24.0	male	white	3.1153999204138483	smiling	012	sub-10	2.0	2.0	012_smiling	1.0	attractiveness	250.4769634280674	
39.0	226.00248849854324	rating	2.0		294	24.0	male	white	3.1153999204138483	smiling	012	sub-10	2.0	2.0	012_smiling	1.0	attractiveness	251.0768298267285	2.4999431001961057
39.0	226.09746830590302	pulse	2.0	t		24.0	male	white	3.1153999204138483	smiling	012	sub-10	2.0	2.0	012_smiling	1.0	attractiveness	251.17180963408828	
39.0	226.7974330793404	pulse	2.0	t		24.0	male	white	3.1153999204138483	smiling	012	sub-10	2.0	2.0	012_smiling	1.0	attractiveness	251.87177440752566	
39.0	227.4973969472121	pulse	2.0	t		24.0	male	white	3.1153999204138483	smiling	012	sub-10	2.0	2.0	012_smiling	1.0	attractiveness	252.57173827539737	
39.0	227.56406208447515	response	2.0	y		24.0	male	white	3.1153999204138483	smiling	012	sub-10	2.0	2.0	012_smiling	1.0	attractiveness	252.6384034126604	
39.0	228.2025669206596	pulse	2.0	t		24.0	male	white	3.1153999204138483	smiling	012	sub-10	2.0	2.0	012_smiling	1.0	attractiveness	253.27690824884485	
39.0	228.50243159873935	fix	3.0		444	24.0	male	white	3.1153999204138483	smiling	012	sub-10	2.0	2.0	012_smiling	1.0	attractiveness	253.5767729269246	3.7499496655582334
39.0	228.90255614441048	pulse	3.0	t		24.0	male	white	3.1153999204138483	smiling	012	sub-10	2.0	2.0	012_smiling	1.0	attractiveness	253.97689747259574	
39.0	229.60254174589136	pulse	3.0	t		24.0	male	white	3.1153999204138483	smiling	012	sub-10	2.0	2.0	012_smiling	1.0	attractiveness	254.6768830740766	
39.0	230.30251949912417	pulse	3.0	t		24.0	male	white	3.1153999204138483	smiling	012	sub-10	2.0	2.0	012_smiling	1.0	attractiveness	255.37686082730943	
39.0	231.00252291009383	pulse	3.0	t		24.0	male	white	3.1153999204138483	smiling	012	sub-10	2.0	2.0	012_smiling	1.0	attractiveness	256.0768642382791	
39.0	231.7024792315715	pulse	3.0	t		24.0	male	white	3.1153999204138483	smiling	012	sub-10	2.0	2.0	012_smiling	1.0	attractiveness	256.77682055975674	
40.0	232.25238126429758	fix	0.0		720													257.32672259248284	5.999885294826527
40.0	232.40247871841711	pulse	0.0	t														257.47682004660237	
40.0	233.10244922711354	pulse	0.0	t														258.1767905552988	
40.0	233.80245656220723	pulse	0.0	t														258.8767978903925	
40.0	234.50243190059336	pulse	0.0	t														259.5767732287786	
40.0	235.20242202991358	pulse	0.0	t														260.27676335809883	
40.0	235.90241759263517	pulse	0.0	t														260.97675892082043	
40.0	236.6024134572108	pulse	0.0	t														261.67675478539604	
40.0	237.30239362529028	pulse	0.0	t														262.37673495347553	
40.0	238.00238767873088	pulse	0.0	t														263.07672900691614	
