trial_nr	onset	event_type	phase	response	nr_frames	face_age	face_sex	face_eth	attractiveness	expression	face_id	sub_id	ses	run	trial_type	catch	rating_type	onset_abs	duration
-1.0	0.058779672068340005	fix	0.0		713													25.77793853082403	5.9578430248002405
-1.0	0.700250537294778	pulse	0.0	t														26.41940939605047	
-1.0	1.4002297094957612	pulse	0.0	t														27.119388568251452	
-1.0	2.100206466879172	pulse	0.0	t														27.819365325634863	
-1.0	2.800200429835968	pulse	0.0	t														28.51935928859166	
-1.0	3.500169942766661	pulse	0.0	t														29.21932880152235	
-1.0	4.200152737194003	pulse	0.0	t														29.919311595949694	
-1.0	4.900127381613856	pulse	0.0	t														30.619286240369547	
-1.0	5.600103233438858	pulse	0.0	t														31.31926209219455	
0.0	6.0166226968685805	face	0.0		144	26.0	male	white	2.7966573816155993	neutral	117	sub-10	1.0	2.0	117_neutral	0.0		31.73578155562427	1.2333154234365793
0.0	6.300088140829757	pulse	0.0	t		26.0	male	white	2.7966573816155993	neutral	117	sub-10	1.0	2.0	117_neutral	0.0		32.01924699958545	
0.0	7.000062181545218	pulse	0.0	t		26.0	male	white	2.7966573816155993	neutral	117	sub-10	1.0	2.0	117_neutral	0.0		32.71922104030091	
0.0	7.24993812030516	fix	1.0		445	26.0	male	white	2.7966573816155993	neutral	117	sub-10	1.0	2.0	117_neutral	0.0		32.96909697906085	3.758207360362576
0.0	7.700042863005365	pulse	1.0	t		26.0	male	white	2.7966573816155993	neutral	117	sub-10	1.0	2.0	117_neutral	0.0		33.419201721761056	
0.0	8.40002535558233	pulse	1.0	t		26.0	male	white	2.7966573816155993	neutral	117	sub-10	1.0	2.0	117_neutral	0.0		34.11918421433802	
0.0	9.100018412980717	pulse	1.0	t		26.0	male	white	2.7966573816155993	neutral	117	sub-10	1.0	2.0	117_neutral	0.0		34.81917727173641	
0.0	9.799987020356639	pulse	1.0	t		26.0	male	white	2.7966573816155993	neutral	117	sub-10	1.0	2.0	117_neutral	0.0		35.51914587911233	
0.0	10.49995743884574	pulse	1.0	t		26.0	male	white	2.7966573816155993	neutral	117	sub-10	1.0	2.0	117_neutral	0.0		36.21911629760143	
1.0	11.008145480667736	face	0.0		146	21.0	male	east_asian/white	3.501790688420215	neutral	036	sub-10	1.0	2.0	036_neutral	0.0		36.727304339423426	1.2416392987397558
1.0	11.199939931419067	pulse	0.0	t		21.0	male	east_asian/white	3.501790688420215	neutral	036	sub-10	1.0	2.0	036_neutral	0.0		36.91909879017476	
1.0	11.899920311028836	pulse	0.0	t		21.0	male	east_asian/white	3.501790688420215	neutral	036	sub-10	1.0	2.0	036_neutral	0.0		37.61907916978453	
1.0	12.249784779407491	fix	1.0		445	21.0	male	east_asian/white	3.501790688420215	neutral	036	sub-10	1.0	2.0	036_neutral	0.0		37.96894363816318	3.758230602979893
1.0	12.599890125809907	pulse	1.0	t		21.0	male	east_asian/white	3.501790688420215	neutral	036	sub-10	1.0	2.0	036_neutral	0.0		38.3190489845656	
1.0	13.29987895728118	pulse	1.0	t		21.0	male	east_asian/white	3.501790688420215	neutral	036	sub-10	1.0	2.0	036_neutral	0.0		39.01903781603687	
1.0	13.999850885029446	pulse	1.0	t		21.0	male	east_asian/white	3.501790688420215	neutral	036	sub-10	1.0	2.0	036_neutral	0.0		39.719009743785136	
1.0	14.699834585011558	pulse	1.0	t		21.0	male	east_asian/white	3.501790688420215	neutral	036	sub-10	1.0	2.0	036_neutral	0.0		40.41899344376725	
1.0	15.399816775734507	pulse	1.0	t		21.0	male	east_asian/white	3.501790688420215	neutral	036	sub-10	1.0	2.0	036_neutral	0.0		41.1189756344902	
2.0	16.008015382387384	face	0.0		146	23.0	male	white	2.6275368085953046	smiling	141	sub-10	1.0	2.0	141_smiling	0.0		41.727174241143075	1.241631450579007
2.0	16.09980409794298	pulse	0.0	t		23.0	male	white	2.6275368085953046	smiling	141	sub-10	1.0	2.0	141_smiling	0.0		41.81896295669867	
2.0	16.799766970128985	pulse	0.0	t		23.0	male	white	2.6275368085953046	smiling	141	sub-10	1.0	2.0	141_smiling	0.0		42.518925828884676	
2.0	17.24964683296639	fix	1.0		444	23.0	male	white	2.6275368085953046	smiling	141	sub-10	1.0	2.0	141_smiling	0.0		42.96880569172208	3.758194682573958
2.0	17.499747953443148	pulse	1.0	t		23.0	male	white	2.6275368085953046	smiling	141	sub-10	1.0	2.0	141_smiling	0.0		43.21890681219884	
2.0	18.199733162684424	pulse	1.0	t		23.0	male	white	2.6275368085953046	smiling	141	sub-10	1.0	2.0	141_smiling	0.0		43.918892021440115	
2.0	18.899719579338125	pulse	1.0	t		23.0	male	white	2.6275368085953046	smiling	141	sub-10	1.0	2.0	141_smiling	0.0		44.618878438093816	
2.0	19.59968728115564	pulse	1.0	t		23.0	male	white	2.6275368085953046	smiling	141	sub-10	1.0	2.0	141_smiling	0.0		45.31884613991133	
2.0	20.299673999659717	pulse	1.0	t		23.0	male	white	2.6275368085953046	smiling	141	sub-10	1.0	2.0	141_smiling	0.0		46.01883285841541	
3.0	21.00784151554035	face	0.0		147	27.0	female	white	3.504576203740549	smiling	144	sub-10	1.0	2.0	144_smiling	0.0		46.72700037429604	1.2416540894919308
3.0	21.000728671126126	pulse	0.0	t		27.0	female	white	3.504576203740549	smiling	144	sub-10	1.0	2.0	144_smiling	0.0		46.71988752988182	
3.0	21.699641097773565	pulse	0.0	t		27.0	female	white	3.504576203740549	smiling	144	sub-10	1.0	2.0	144_smiling	0.0		47.418799956529256	
3.0	22.24949560503228	fix	1.0		443	27.0	female	white	3.504576203740549	smiling	144	sub-10	1.0	2.0	144_smiling	0.0		47.96865446378797	3.7582215474139957
3.0	22.399606384777144	pulse	1.0	t		27.0	female	white	3.504576203740549	smiling	144	sub-10	1.0	2.0	144_smiling	0.0		48.118765243532835	
3.0	23.099583142160554	pulse	1.0	t		27.0	female	white	3.504576203740549	smiling	144	sub-10	1.0	2.0	144_smiling	0.0		48.818742000916245	
3.0	23.799564427325095	pulse	1.0	t		27.0	female	white	3.504576203740549	smiling	144	sub-10	1.0	2.0	144_smiling	0.0		49.518723286080785	
3.0	24.49953726063177	pulse	1.0	t		27.0	female	white	3.504576203740549	smiling	144	sub-10	1.0	2.0	144_smiling	0.0		50.21869611938746	
3.0	25.199533638406137	pulse	1.0	t		27.0	female	white	3.504576203740549	smiling	144	sub-10	1.0	2.0	144_smiling	0.0		50.91869249716183	
3.0	25.89949983096085	pulse	1.0	t		27.0	female	white	3.504576203740549	smiling	144	sub-10	1.0	2.0	144_smiling	0.0		51.61865868971654	
4.0	26.007717152446276	face	0.0		147	20.0	male	black	2.609629924393156	smiling	043	sub-10	1.0	2.0	043_smiling	0.0		51.726876011201966	1.241629941319843
4.0	26.599487756877352	pulse	0.0	t		20.0	male	black	2.609629924393156	smiling	043	sub-10	1.0	2.0	043_smiling	0.0		52.31864661563304	
4.0	27.24934709376612	fix	1.0		443	20.0	male	black	2.609629924393156	smiling	043	sub-10	1.0	2.0	043_smiling	0.0		52.96850595252181	3.7582236603811907
4.0	27.29946662722432	pulse	1.0	t		20.0	male	black	2.609629924393156	smiling	043	sub-10	1.0	2.0	043_smiling	0.0		53.01862548598001	
4.0	27.999448516093253	pulse	1.0	t		20.0	male	black	2.609629924393156	smiling	043	sub-10	1.0	2.0	043_smiling	0.0		53.71860737484894	
4.0	28.699431914224988	pulse	1.0	t		20.0	male	black	2.609629924393156	smiling	043	sub-10	1.0	2.0	043_smiling	0.0		54.41859077298068	
4.0	29.399410180867562	pulse	1.0	t		20.0	male	black	2.609629924393156	smiling	043	sub-10	1.0	2.0	043_smiling	0.0		55.11856903962325	
4.0	30.099388447513775	pulse	1.0	t		20.0	male	black	2.609629924393156	smiling	043	sub-10	1.0	2.0	043_smiling	0.0		55.818547306269465	
4.0	30.799348603028193	pulse	1.0	t		20.0	male	black	2.609629924393156	smiling	043	sub-10	1.0	2.0	043_smiling	0.0		56.518507461783884	
5.0	31.00757075414731	face	0.0		146	19.0	male	white	3.2522881018702745	neutral	018	sub-10	1.0	2.0	018_neutral	0.0		56.726729612903	1.2416368839185452
5.0	31.499350715992477	pulse	0.0	t		19.0	male	white	3.2522881018702745	neutral	018	sub-10	1.0	2.0	018_neutral	0.0		57.21850957474817	
5.0	32.199326869671495	pulse	0.0	t		19.0	male	white	3.2522881018702745	neutral	018	sub-10	1.0	2.0	018_neutral	0.0		57.918485728427186	
5.0	32.249207638065855	fix	1.0		446	19.0	male	white	3.2522881018702745	neutral	018	sub-10	1.0	2.0	018_neutral	0.0		57.968366496821545	3.774879560987756
5.0	32.89929940112415	pulse	1.0	t		19.0	male	white	3.2522881018702745	neutral	018	sub-10	1.0	2.0	018_neutral	0.0		58.618458259879844	
5.0	33.59927193257681	pulse	1.0	t		19.0	male	white	3.2522881018702745	neutral	018	sub-10	1.0	2.0	018_neutral	0.0		59.3184307913325	
5.0	34.299254727004154	pulse	1.0	t		19.0	male	white	3.2522881018702745	neutral	018	sub-10	1.0	2.0	018_neutral	0.0		60.018413585759845	
5.0	34.99923450290953	pulse	1.0	t		19.0	male	white	3.2522881018702745	neutral	018	sub-10	1.0	2.0	018_neutral	0.0		60.71839336166522	
5.0	35.69921307140612	pulse	1.0	t		19.0	male	white	3.2522881018702745	neutral	018	sub-10	1.0	2.0	018_neutral	0.0		61.41837193016181	
6.0	36.02408719905361	face	0.0		145	30.0	female	black	2.7345801830481498	neutral	062	sub-10	1.0	2.0	062_neutral	0.0		61.7432460578093	1.233297312308423
6.0	36.399200997318985	pulse	0.0	t		30.0	female	black	2.7345801830481498	neutral	062	sub-10	1.0	2.0	062_neutral	0.0		62.118359856074676	
6.0	37.09917443433005	pulse	0.0	t		30.0	female	black	2.7345801830481498	neutral	062	sub-10	1.0	2.0	062_neutral	0.0		62.81833329308574	
6.0	37.257384511362034	fix	1.0		445	30.0	female	black	2.7345801830481498	neutral	062	sub-10	1.0	2.0	062_neutral	0.0		62.976543370117724	3.766556893093366
6.0	37.79915119171346	pulse	1.0	t		30.0	female	black	2.7345801830481498	neutral	062	sub-10	1.0	2.0	062_neutral	0.0		63.518310050469154	
6.0	38.49913791021754	pulse	1.0	t		30.0	female	black	2.7345801830481498	neutral	062	sub-10	1.0	2.0	062_neutral	0.0		64.21829676897323	
6.0	39.199109234261414	pulse	1.0	t		30.0	female	black	2.7345801830481498	neutral	062	sub-10	1.0	2.0	062_neutral	0.0		64.9182680930171	
6.0	39.89909353794792	pulse	1.0	t		30.0	female	black	2.7345801830481498	neutral	062	sub-10	1.0	2.0	062_neutral	0.0		65.61825239670361	
6.0	40.59903739344736	pulse	1.0	t		30.0	female	black	2.7345801830481498	neutral	062	sub-10	1.0	2.0	062_neutral	0.0		66.31819625220305	
7.0	41.0239414044554	face	0.0		145	47.0	male	east_asian	2.171110226820533	smiling	024	sub-10	1.0	2.0	024_smiling	0.0		66.74310026321109	1.2333063678743201
7.0	41.29905580642662	pulse	0.0	t		47.0	male	east_asian	2.171110226820533	smiling	024	sub-10	1.0	2.0	024_smiling	0.0		67.01821466518231	
7.0	41.99903135640125	pulse	0.0	t		47.0	male	east_asian	2.171110226820533	smiling	024	sub-10	1.0	2.0	024_smiling	0.0		67.71819021515694	
7.0	42.25724777232972	fix	1.0		445	47.0	male	east_asian	2.171110226820533	smiling	024	sub-10	1.0	2.0	024_smiling	0.0		67.97640663108541	3.766528518994164
7.0	42.699009321193444	pulse	1.0	t		47.0	male	east_asian	2.171110226820533	smiling	024	sub-10	1.0	2.0	024_smiling	0.0		68.41816817994913	
7.0	43.39898124894171	pulse	1.0	t		47.0	male	east_asian	2.171110226820533	smiling	024	sub-10	1.0	2.0	024_smiling	0.0		69.1181401076974	
7.0	44.098962835960265	pulse	1.0	t		47.0	male	east_asian	2.171110226820533	smiling	024	sub-10	1.0	2.0	024_smiling	0.0		69.81812169471596	
7.0	44.79894834705556	pulse	1.0	t		47.0	male	east_asian	2.171110226820533	smiling	024	sub-10	1.0	2.0	024_smiling	0.0		70.51810720581125	
7.0	45.498919972953445	pulse	1.0	t		47.0	male	east_asian	2.171110226820533	smiling	024	sub-10	1.0	2.0	024_smiling	0.0		71.21807883170914	
8.0	46.023776291323884	face	0.0		145	22.0	female	west_asian	3.8205332272184642	smiling	066	sub-10	1.0	2.0	066_smiling	0.0		71.74293515007957	1.2333169326993811
8.0	46.19891846369137	pulse	0.0	t		22.0	female	west_asian	3.8205332272184642	smiling	066	sub-10	1.0	2.0	066_smiling	0.0		71.91807732244706	
8.0	46.898897635892354	pulse	0.0	t		22.0	female	west_asian	3.8205332272184642	smiling	066	sub-10	1.0	2.0	066_smiling	0.0		72.61805649464804	
8.0	47.257093224023265	fix	1.0		445	22.0	female	west_asian	3.8205332272184642	smiling	066	sub-10	1.0	2.0	066_smiling	0.0		72.97625208277896	3.7582779937692976
8.0	47.59886563956388	pulse	1.0	t		22.0	female	west_asian	3.8205332272184642	smiling	066	sub-10	1.0	2.0	066_smiling	0.0		73.31802449831957	
8.0	48.29885265992198	pulse	1.0	t		22.0	female	west_asian	3.8205332272184642	smiling	066	sub-10	1.0	2.0	066_smiling	0.0		74.01801151867767	
8.0	48.9988267006338	pulse	1.0	t		22.0	female	west_asian	3.8205332272184642	smiling	066	sub-10	1.0	2.0	066_smiling	0.0		74.71798555938949	
8.0	49.698810098765534	pulse	1.0	t		22.0	female	west_asian	3.8205332272184642	smiling	066	sub-10	1.0	2.0	066_smiling	0.0		75.41796895752123	
8.0	50.39877115983472	pulse	1.0	t		22.0	female	west_asian	3.8205332272184642	smiling	066	sub-10	1.0	2.0	066_smiling	0.0		76.11793001859041	
9.0	51.01537121779256	face	0.0		146	54.0	female	white	2.286908077994429	neutral	136	sub-10	1.0	2.0	136_neutral	0.0		76.73453007654825	1.241568665329396
9.0	51.09876421723675	pulse	0.0	t		54.0	female	white	2.286908077994429	neutral	136	sub-10	1.0	2.0	136_neutral	0.0		76.81792307599244	
9.0	51.79874369128811	pulse	0.0	t		54.0	female	white	2.286908077994429	neutral	136	sub-10	1.0	2.0	136_neutral	0.0		77.5179025500438	
9.0	52.25693988312196	fix	1.0		445	54.0	female	white	2.286908077994429	neutral	136	sub-10	1.0	2.0	136_neutral	0.0		77.97609874187765	3.766543309749977
9.0	52.49871833570796	pulse	1.0	t		54.0	female	white	2.286908077994429	neutral	136	sub-10	1.0	2.0	136_neutral	0.0		78.21787719446365	
9.0	53.198694187532965	pulse	1.0	t		54.0	female	white	2.286908077994429	neutral	136	sub-10	1.0	2.0	136_neutral	0.0		78.91785304628866	
9.0	53.898676378255914	pulse	1.0	t		54.0	female	white	2.286908077994429	neutral	136	sub-10	1.0	2.0	136_neutral	0.0		79.6178352370116	
9.0	54.598660983796435	pulse	1.0	t		54.0	female	white	2.286908077994429	neutral	136	sub-10	1.0	2.0	136_neutral	0.0		80.31781984255213	
9.0	55.29863562821265	pulse	1.0	t		54.0	female	white	2.286908077994429	neutral	136	sub-10	1.0	2.0	136_neutral	0.0		81.01779448696834	
9.0	55.998608461519325	pulse	1.0	t		54.0	female	white	2.286908077994429	neutral	136	sub-10	1.0	2.0	136_neutral	0.0		81.71776732027502	
10.0	56.023483192871936	face	0.0		146	28.0	male	east_asian	1.5563072025467568	smiling	005	sub-10	1.0	2.0	005_smiling	0.0		81.74264205162763	1.2333111975058273
10.0	56.69859185965106	pulse	0.0	t		28.0	male	east_asian	1.5563072025467568	smiling	005	sub-10	1.0	2.0	005_smiling	0.0		82.41775071840675	
10.0	57.25679439037776	fix	1.0		443	28.0	male	east_asian	1.5563072025467568	smiling	005	sub-10	1.0	2.0	005_smiling	0.0		82.97595324913345	3.758319951222802
10.0	57.398578880005516	pulse	1.0	t		28.0	male	east_asian	1.5563072025467568	smiling	005	sub-10	1.0	2.0	005_smiling	0.0		83.1177377387612	
10.0	58.098553222571354	pulse	1.0	t		28.0	male	east_asian	1.5563072025467568	smiling	005	sub-10	1.0	2.0	005_smiling	0.0		83.81771208132704	
10.0	58.79853209292196	pulse	1.0	t		28.0	male	east_asian	1.5563072025467568	smiling	005	sub-10	1.0	2.0	005_smiling	0.0		84.51769095167765	
10.0	59.498520018834824	pulse	1.0	t		28.0	male	east_asian	1.5563072025467568	smiling	005	sub-10	1.0	2.0	005_smiling	0.0		85.21767887759052	
10.0	60.19848802250635	pulse	1.0	t		28.0	male	east_asian	1.5563072025467568	smiling	005	sub-10	1.0	2.0	005_smiling	0.0		85.91764688126204	
10.0	60.89849436140139	pulse	1.0	t		28.0	male	east_asian	1.5563072025467568	smiling	005	sub-10	1.0	2.0	005_smiling	0.0		86.61765322015708	
11.0	61.015114341600565	face	0.0		147	20.0	male	black	3.1070433744528456	neutral	082	sub-10	1.0	2.0	082_neutral	0.0		86.73427320035626	1.241545422712079
11.0	61.598453913211415	pulse	0.0	t		20.0	male	black	3.1070433744528456	neutral	082	sub-10	1.0	2.0	082_neutral	0.0		87.3176127719671	
11.0	62.256659764312644	fix	1.0		443	20.0	male	black	3.1070433744528456	neutral	082	sub-10	1.0	2.0	082_neutral	0.0		87.97581862306834	3.7582124918517366
11.0	62.29843731134315	pulse	1.0	t		20.0	male	black	3.1070433744528456	neutral	082	sub-10	1.0	2.0	082_neutral	0.0		88.01759617009884	
11.0	62.99840984279581	pulse	1.0	t		20.0	male	black	3.1070433744528456	neutral	082	sub-10	1.0	2.0	082_neutral	0.0		88.7175687015515	
11.0	63.69838026128127	pulse	1.0	t		20.0	male	black	3.1070433744528456	neutral	082	sub-10	1.0	2.0	082_neutral	0.0		89.41753912003696	
11.0	64.39837995943162	pulse	1.0	t		20.0	male	black	3.1070433744528456	neutral	082	sub-10	1.0	2.0	082_neutral	0.0		90.11753881818731	
11.0	65.09834977421269	pulse	1.0	t		20.0	male	black	3.1070433744528456	neutral	082	sub-10	1.0	2.0	082_neutral	0.0		90.81750863296838	
11.0	65.79852665958242	pulse	1.0	t		20.0	male	black	3.1070433744528456	neutral	082	sub-10	1.0	2.0	082_neutral	0.0		91.51768551833811	
12.0	66.01487225616438	face	0.0		146	19.0	male	white	2.243931555909272	neutral	130	sub-10	1.0	2.0	130_neutral	1.0	dominance	91.73403111492007	1.2416248098306824
12.0	66.49830721305989	pulse	0.0	t		19.0	male	white	2.243931555909272	neutral	130	sub-10	1.0	2.0	130_neutral	1.0	dominance	92.21746607181558	
12.0	67.19828034821694	pulse	0.0	t		19.0	male	white	2.243931555909272	neutral	130	sub-10	1.0	2.0	130_neutral	1.0	dominance	92.91743920697263	
12.0	67.25649706599506	fix	1.0		177	19.0	male	white	2.243931555909272	neutral	130	sub-10	1.0	2.0	130_neutral	1.0	dominance	92.97565592475075	1.5083217623359815
12.0	67.89826616116261	pulse	1.0	t		19.0	male	white	2.243931555909272	neutral	130	sub-10	1.0	2.0	130_neutral	1.0	dominance	93.6174250199183	
12.0	68.59856439110445	pulse	1.0	t		19.0	male	white	2.243931555909272	neutral	130	sub-10	1.0	2.0	130_neutral	1.0	dominance	94.31772324986014	
12.0	68.76481882833104	rating	2.0		294	19.0	male	white	2.243931555909272	neutral	130	sub-10	1.0	2.0	130_neutral	1.0	dominance	94.48397768708674	2.4915825505304383
12.0	69.29822812779094	pulse	2.0	t		19.0	male	white	2.243931555909272	neutral	130	sub-10	1.0	2.0	130_neutral	1.0	dominance	95.01738698654663	
12.0	69.99821092221828	pulse	2.0	t		19.0	male	white	2.243931555909272	neutral	130	sub-10	1.0	2.0	130_neutral	1.0	dominance	95.71736978097397	
12.0	70.69818284996654	pulse	2.0	t		19.0	male	white	2.243931555909272	neutral	130	sub-10	1.0	2.0	130_neutral	1.0	dominance	96.41734170872223	
12.0	70.71487799135502	response	2.0	w		19.0	male	white	2.243931555909272	neutral	130	sub-10	1.0	2.0	130_neutral	1.0	dominance	96.43403685011072	
12.0	71.25640137886148	fix	3.0		443	19.0	male	white	2.243931555909272	neutral	130	sub-10	1.0	2.0	130_neutral	1.0	dominance	96.97556023761717	3.7665333486256714
12.0	71.39836396126702	pulse	3.0	t		19.0	male	white	2.243931555909272	neutral	130	sub-10	1.0	2.0	130_neutral	1.0	dominance	97.11752282002271	
12.0	72.0983331723437	pulse	3.0	t		19.0	male	white	2.243931555909272	neutral	130	sub-10	1.0	2.0	130_neutral	1.0	dominance	97.81749203109939	
12.0	72.79812278138706	pulse	3.0	t		19.0	male	white	2.243931555909272	neutral	130	sub-10	1.0	2.0	130_neutral	1.0	dominance	98.51728164014276	
12.0	73.49809380357692	pulse	3.0	t		19.0	male	white	2.243931555909272	neutral	130	sub-10	1.0	2.0	130_neutral	1.0	dominance	99.21725266233261	
12.0	74.19807056096033	pulse	3.0	t		19.0	male	white	2.243931555909272	neutral	130	sub-10	1.0	2.0	130_neutral	1.0	dominance	99.91722941971602	
12.0	74.8983078167621	pulse	3.0	t		19.0	male	white	2.243931555909272	neutral	130	sub-10	1.0	2.0	130_neutral	1.0	dominance	100.61746667551779	
13.0	75.02293472748715	face	0.0		146	40.0	female	west_asian	1.5777954635893354	smiling	038	sub-10	1.0	2.0	038_smiling	0.0		100.74209358624285	1.2333033493523544
13.0	75.59804762019849	pulse	0.0	t		40.0	female	west_asian	1.5777954635893354	smiling	038	sub-10	1.0	2.0	038_smiling	0.0		101.31720647895418	
13.0	76.25623807683951	fix	1.0		443	40.0	female	west_asian	1.5777954635893354	smiling	038	sub-10	1.0	2.0	038_smiling	0.0		101.9753969355952	3.7582194344504387
13.0	76.29821635555709	pulse	1.0	t		40.0	female	west_asian	1.5777954635893354	smiling	038	sub-10	1.0	2.0	038_smiling	0.0		102.01737521431278	
13.0	76.99818707589657	pulse	1.0	t		40.0	female	west_asian	1.5777954635893354	smiling	038	sub-10	1.0	2.0	038_smiling	0.0		102.71734593465226	
13.0	77.69802830166009	pulse	1.0	t		40.0	female	west_asian	1.5777954635893354	smiling	038	sub-10	1.0	2.0	038_smiling	0.0		103.41718716041578	
13.0	78.3979534423197	pulse	1.0	t		40.0	female	west_asian	1.5777954635893354	smiling	038	sub-10	1.0	2.0	038_smiling	0.0		104.1171123010754	
13.0	79.09797909975532	pulse	1.0	t		40.0	female	west_asian	1.5777954635893354	smiling	038	sub-10	1.0	2.0	038_smiling	0.0		104.81713795851101	
13.0	79.7981107072992	pulse	1.0	t		40.0	female	west_asian	1.5777954635893354	smiling	038	sub-10	1.0	2.0	038_smiling	0.0		105.51726956605489	
14.0	80.01445751128995	face	0.0		146	25.0	female	west_asian	2.6756864305610826	smiling	064	sub-10	1.0	2.0	064_smiling	0.0		105.73361637004564	1.241638393177709
14.0	80.4980231701702	pulse	0.0	t		25.0	female	west_asian	2.6756864305610826	smiling	064	sub-10	1.0	2.0	064_smiling	0.0		106.21718202892589	
14.0	81.19798996643294	pulse	0.0	t		25.0	female	west_asian	2.6756864305610826	smiling	064	sub-10	1.0	2.0	064_smiling	0.0		106.91714882518863	
14.0	81.25609590446766	fix	1.0		444	25.0	female	west_asian	2.6756864305610826	smiling	064	sub-10	1.0	2.0	064_smiling	0.0		106.97525476322335	3.766528518994164
14.0	81.89792627562565	pulse	1.0	t		25.0	female	west_asian	2.6756864305610826	smiling	064	sub-10	1.0	2.0	064_smiling	0.0		107.61708513438134	
14.0	82.59803675351941	pulse	1.0	t		25.0	female	west_asian	2.6756864305610826	smiling	064	sub-10	1.0	2.0	064_smiling	0.0		108.3171956122751	
14.0	83.29801019052684	pulse	1.0	t		25.0	female	west_asian	2.6756864305610826	smiling	064	sub-10	1.0	2.0	064_smiling	0.0		109.01716904928253	
14.0	83.99798815531904	pulse	1.0	t		25.0	female	west_asian	2.6756864305610826	smiling	064	sub-10	1.0	2.0	064_smiling	0.0		109.71714701407473	
14.0	84.69796883678282	pulse	1.0	t		25.0	female	west_asian	2.6756864305610826	smiling	064	sub-10	1.0	2.0	064_smiling	0.0		110.41712769553851	
15.0	85.02262442346182	face	0.0		145	19.0	male	white	3.2522881018702745	smiling	018	sub-10	1.0	2.0	018_smiling	0.0		110.74178328221751	1.2333172345497587
15.0	85.39779014030137	pulse	0.0	t		19.0	male	white	3.2522881018702745	smiling	018	sub-10	1.0	2.0	018_smiling	0.0		111.11694899905706	
15.0	86.09783994590907	pulse	0.0	t		19.0	male	white	3.2522881018702745	smiling	018	sub-10	1.0	2.0	018_smiling	0.0		111.81699880466476	
15.0	86.25594165801158	fix	1.0		445	19.0	male	white	3.2522881018702745	smiling	018	sub-10	1.0	2.0	018_smiling	0.0		111.97510051676727	3.766533650479687
15.0	86.7979093719041	pulse	1.0	t		19.0	male	white	3.2522881018702745	smiling	018	sub-10	1.0	2.0	018_smiling	0.0		112.51706823065979	
15.0	87.49774788099603	pulse	1.0	t		19.0	male	white	3.2522881018702745	smiling	018	sub-10	1.0	2.0	018_smiling	0.0		113.21690673975172	
15.0	88.1977693125009	pulse	1.0	t		19.0	male	white	3.2522881018702745	smiling	018	sub-10	1.0	2.0	018_smiling	0.0		113.91692817125659	
15.0	88.89769807539051	pulse	1.0	t		19.0	male	white	3.2522881018702745	smiling	018	sub-10	1.0	2.0	018_smiling	0.0		114.6168569341462	
15.0	89.597685699453	pulse	1.0	t		19.0	male	white	3.2522881018702745	smiling	018	sub-10	1.0	2.0	018_smiling	0.0		115.31684455820869	
16.0	90.02247530849127	face	0.0		145	28.0	female	white	5.676880222841227	neutral	124	sub-10	1.0	2.0	124_neutral	0.0		115.74163416724696	1.2333308179004234
16.0	90.29760269010512	pulse	0.0	t		28.0	female	white	5.676880222841227	neutral	124	sub-10	1.0	2.0	124_neutral	0.0		116.01676154886081	
16.0	90.99765581608517	pulse	0.0	t		28.0	female	white	5.676880222841227	neutral	124	sub-10	1.0	2.0	124_neutral	0.0		116.71681467484086	
16.0	91.25580612639169	fix	1.0		444	28.0	female	white	5.676880222841227	neutral	124	sub-10	1.0	2.0	124_neutral	0.0		116.97496498514738	3.7665402912280115
16.0	91.69763347902699	pulse	1.0	t		28.0	female	white	5.676880222841227	neutral	124	sub-10	1.0	2.0	124_neutral	0.0		117.41679233778268	
16.0	92.39752390668946	pulse	1.0	t		28.0	female	white	5.676880222841227	neutral	124	sub-10	1.0	2.0	124_neutral	0.0		118.11668276544515	
16.0	93.09751756779588	pulse	1.0	t		28.0	female	white	5.676880222841227	neutral	124	sub-10	1.0	2.0	124_neutral	0.0		118.81667642655157	
16.0	93.79749281591648	pulse	1.0	t		28.0	female	white	5.676880222841227	neutral	124	sub-10	1.0	2.0	124_neutral	0.0		119.51665167467218	
16.0	94.49746232885082	pulse	1.0	t		28.0	female	white	5.676880222841227	neutral	124	sub-10	1.0	2.0	124_neutral	0.0		120.2166211876065	
17.0	95.0223464176197	face	0.0		145	31.0	female	west_asian	2.364902506963788	neutral	006	sub-10	1.0	2.0	006_neutral	0.0		120.74150527637539	1.2333003308267507
17.0	95.19746776218744	pulse	0.0	t		31.0	female	west_asian	2.364902506963788	neutral	006	sub-10	1.0	2.0	006_neutral	0.0		120.91662662094313	
17.0	95.897432747337	pulse	0.0	t		31.0	female	west_asian	2.364902506963788	neutral	006	sub-10	1.0	2.0	006_neutral	0.0		121.6165916060927	
17.0	96.25564674844645	fix	1.0		444	31.0	female	west_asian	2.364902506963788	neutral	006	sub-10	1.0	2.0	006_neutral	0.0		121.97480560720214	3.7665514597574656
17.0	96.59742610658941	pulse	1.0	t		31.0	female	west_asian	2.364902506963788	neutral	006	sub-10	1.0	2.0	006_neutral	0.0		122.3165849653451	
17.0	97.29739471396533	pulse	1.0	t		31.0	female	west_asian	2.364902506963788	neutral	006	sub-10	1.0	2.0	006_neutral	0.0		123.01655357272102	
17.0	97.99739048803531	pulse	1.0	t		31.0	female	west_asian	2.364902506963788	neutral	006	sub-10	1.0	2.0	006_neutral	0.0		123.716549346791	
17.0	98.69737177319985	pulse	1.0	t		31.0	female	west_asian	2.364902506963788	neutral	006	sub-10	1.0	2.0	006_neutral	0.0		124.41653063195554	
17.0	99.39734158798456	pulse	1.0	t		31.0	female	west_asian	2.364902506963788	neutral	006	sub-10	1.0	2.0	006_neutral	0.0		125.11650044674025	
18.0	100.02219820820392	face	0.0		145	20.0	male	black	3.1070433744528456	smiling	082	sub-10	1.0	2.0	082_smiling	0.0		125.74135706695961	1.2332976141624385
18.0	100.09732951389742	pulse	0.0	t		20.0	male	black	3.1070433744528456	smiling	082	sub-10	1.0	2.0	082_smiling	0.0		125.81648837265311	
18.0	100.79729691386456	pulse	0.0	t		20.0	male	black	3.1070433744528456	smiling	082	sub-10	1.0	2.0	082_smiling	0.0		126.51645577262025	
18.0	101.25549582236636	fix	1.0		444	20.0	male	black	3.1070433744528456	smiling	082	sub-10	1.0	2.0	082_smiling	0.0		126.97465468112205	3.76654149863316
18.0	101.49727699162031	pulse	1.0	t		20.0	male	black	3.1070433744528456	smiling	082	sub-10	1.0	2.0	082_smiling	0.0		127.216435850376	
18.0	102.19726793605514	pulse	1.0	t		20.0	male	black	3.1070433744528456	smiling	082	sub-10	1.0	2.0	082_smiling	0.0		127.91642679481083	
18.0	102.89725163603725	pulse	1.0	t		20.0	male	black	3.1070433744528456	smiling	082	sub-10	1.0	2.0	082_smiling	0.0		128.61641049479294	
18.0	103.59721662118682	pulse	1.0	t		20.0	male	black	3.1070433744528456	smiling	082	sub-10	1.0	2.0	082_smiling	0.0		129.3163754799425	
18.0	104.29718703967592	pulse	1.0	t		20.0	male	black	3.1070433744528456	smiling	082	sub-10	1.0	2.0	082_smiling	0.0		130.0163458984316	
18.0	104.99717104150841	pulse	1.0	t		20.0	male	black	3.1070433744528456	smiling	082	sub-10	1.0	2.0	082_smiling	0.0		130.7163299002641	
19.0	105.02203732099952	face	0.0		146	20.0	female	white	3.9502586549940313	smiling	091	sub-10	1.0	2.0	091_smiling	0.0		130.7411961797552	1.2333211586301331
19.0	105.69714327111069	pulse	0.0	t		20.0	female	white	3.9502586549940313	smiling	091	sub-10	1.0	2.0	091_smiling	0.0		131.41630212986638	
19.0	106.25535847962965	fix	1.0		443	20.0	female	white	3.9502586549940313	smiling	091	sub-10	1.0	2.0	091_smiling	0.0		131.97451733838534	3.758216415928473
19.0	106.39711670812176	pulse	1.0	t		20.0	female	white	3.9502586549940313	smiling	091	sub-10	1.0	2.0	091_smiling	0.0		132.11627556687745	
19.0	107.09710584144341	pulse	1.0	t		20.0	female	white	3.9502586549940313	smiling	091	sub-10	1.0	2.0	091_smiling	0.0		132.8162647001991	
19.0	107.79713059332062	pulse	1.0	t		20.0	female	white	3.9502586549940313	smiling	091	sub-10	1.0	2.0	091_smiling	0.0		133.5162894520763	
19.0	108.49709618217457	pulse	1.0	t		20.0	female	white	3.9502586549940313	smiling	091	sub-10	1.0	2.0	091_smiling	0.0		134.21625504093026	
19.0	109.19707897659828	pulse	1.0	t		20.0	female	white	3.9502586549940313	smiling	091	sub-10	1.0	2.0	091_smiling	0.0		134.91623783535397	
19.0	109.89701739875818	pulse	1.0	t		20.0	female	white	3.9502586549940313	smiling	091	sub-10	1.0	2.0	091_smiling	0.0		135.61617625751387	
20.0	110.01357489555812	face	0.0		147	26.0	female	white	4.854755272582572	neutral	027	sub-10	1.0	2.0	027_neutral	0.0		135.7327337543138	1.2416239042759116
20.0	110.59699385428758	pulse	0.0	t		26.0	female	white	4.854755272582572	neutral	027	sub-10	1.0	2.0	027_neutral	0.0		136.31615271304327	
20.0	111.25519879983403	fix	1.0		1183	26.0	female	white	4.854755272582572	neutral	027	sub-10	1.0	2.0	027_neutral	0.0		136.97435765858972	10.016373668833694
20.0	111.2970104561573	pulse	1.0	t		26.0	female	white	4.854755272582572	neutral	027	sub-10	1.0	2.0	027_neutral	0.0		137.016169314913	
20.0	111.99695612276992	pulse	1.0	t		26.0	female	white	4.854755272582572	neutral	027	sub-10	1.0	2.0	027_neutral	0.0		137.7161149815256	
20.0	112.19693921904764	response	1.0	g		26.0	female	white	4.854755272582572	neutral	027	sub-10	1.0	2.0	027_neutral	0.0		137.91609807780333	
20.0	112.69695914128897	pulse	1.0	t		26.0	female	white	4.854755272582572	neutral	027	sub-10	1.0	2.0	027_neutral	0.0		138.41611800004466	
20.0	113.39692261717937	pulse	1.0	t		26.0	female	white	4.854755272582572	neutral	027	sub-10	1.0	2.0	027_neutral	0.0		139.11608147593506	
20.0	114.09690903382943	pulse	1.0	t		26.0	female	white	4.854755272582572	neutral	027	sub-10	1.0	2.0	027_neutral	0.0		139.81606789258512	
20.0	114.7968824708405	pulse	1.0	t		26.0	female	white	4.854755272582572	neutral	027	sub-10	1.0	2.0	027_neutral	0.0		140.5160413295962	
20.0	115.49686586897224	pulse	1.0	t		26.0	female	white	4.854755272582572	neutral	027	sub-10	1.0	2.0	027_neutral	0.0		141.21602472772793	
20.0	116.19682693004142	pulse	1.0	t		26.0	female	white	4.854755272582572	neutral	027	sub-10	1.0	2.0	027_neutral	0.0		141.91598578879712	
20.0	116.89682632633776	pulse	1.0	t		26.0	female	white	4.854755272582572	neutral	027	sub-10	1.0	2.0	027_neutral	0.0		142.61598518509345	
20.0	117.59678014295787	pulse	1.0	t		26.0	female	white	4.854755272582572	neutral	027	sub-10	1.0	2.0	027_neutral	0.0		143.31593900171356	
20.0	118.29676565405316	pulse	1.0	t		26.0	female	white	4.854755272582572	neutral	027	sub-10	1.0	2.0	027_neutral	0.0		144.01592451280885	
20.0	118.99676082441874	pulse	1.0	t		26.0	female	white	4.854755272582572	neutral	027	sub-10	1.0	2.0	027_neutral	0.0		144.71591968317443	
20.0	119.69676776701817	pulse	1.0	t		26.0	female	white	4.854755272582572	neutral	027	sub-10	1.0	2.0	027_neutral	0.0		145.41592662577386	
20.0	120.39670709473285	pulse	1.0	t		26.0	female	white	4.854755272582572	neutral	027	sub-10	1.0	2.0	027_neutral	0.0		146.11586595348854	
20.0	121.09668475767103	pulse	1.0	t		26.0	female	white	4.854755272582572	neutral	027	sub-10	1.0	2.0	027_neutral	0.0		146.81584361642672	
21.0	121.27157246866773	face	0.0		146	54.0	female	white	2.286908077994429	smiling	136	sub-10	1.0	2.0	136_smiling	0.0		146.99073132742342	1.2416269227978773
21.0	121.79667721136866	pulse	0.0	t		54.0	female	white	2.286908077994429	smiling	136	sub-10	1.0	2.0	136_smiling	0.0		147.51583607012435	
21.0	122.49664189466421	pulse	0.0	t		54.0	female	white	2.286908077994429	smiling	136	sub-10	1.0	2.0	136_smiling	0.0		148.2158007534199	
21.0	122.5131993914656	fix	1.0		443	54.0	female	white	2.286908077994429	smiling	136	sub-10	1.0	2.0	136_smiling	0.0		148.2323582502213	3.7582070585121983
21.0	123.19662982057707	pulse	1.0	t		54.0	female	white	2.286908077994429	smiling	136	sub-10	1.0	2.0	136_smiling	0.0		148.91578867933276	
21.0	123.89660054092019	pulse	1.0	t		54.0	female	white	2.286908077994429	smiling	136	sub-10	1.0	2.0	136_smiling	0.0		149.61575939967588	
21.0	124.5965833353439	pulse	1.0	t		54.0	female	white	2.286908077994429	smiling	136	sub-10	1.0	2.0	136_smiling	0.0		150.31574219409958	
21.0	125.29655828161413	pulse	1.0	t		54.0	female	white	2.286908077994429	smiling	136	sub-10	1.0	2.0	136_smiling	0.0		151.01571714036982	
21.0	125.99654409456343	pulse	1.0	t		54.0	female	white	2.286908077994429	smiling	136	sub-10	1.0	2.0	136_smiling	0.0		151.71570295331912	
22.0	126.2714064499778	face	0.0		145	19.0	male	white	2.243931555909272	smiling	130	sub-10	1.0	2.0	130_smiling	0.0		151.9905653087335	1.2333136123233999
22.0	126.69652870010395	pulse	0.0	t		19.0	male	white	2.243931555909272	smiling	130	sub-10	1.0	2.0	130_smiling	0.0		152.41568755885964	
22.0	127.39650968341812	pulse	0.0	t		19.0	male	white	2.243931555909272	smiling	130	sub-10	1.0	2.0	130_smiling	0.0		153.1156685421738	
22.0	127.5047200623012	fix	1.0		444	19.0	male	white	2.243931555909272	smiling	130	sub-10	1.0	2.0	130_smiling	0.0		153.2238789210569	3.7665550819838245
22.0	128.0964867426519	pulse	1.0	t		19.0	male	white	2.243931555909272	smiling	130	sub-10	1.0	2.0	130_smiling	0.0		153.8156456014076	
22.0	128.79645927410456	pulse	1.0	t		19.0	male	white	2.243931555909272	smiling	130	sub-10	1.0	2.0	130_smiling	0.0		154.51561813286025	
22.0	129.49645414261977	pulse	1.0	t		19.0	male	white	2.243931555909272	smiling	130	sub-10	1.0	2.0	130_smiling	0.0		155.21561300137546	
22.0	130.1964206370285	pulse	1.0	t		19.0	male	white	2.243931555909272	smiling	130	sub-10	1.0	2.0	130_smiling	0.0		155.9155794957842	
22.0	130.8963979981163	pulse	1.0	t		19.0	male	white	2.243931555909272	smiling	130	sub-10	1.0	2.0	130_smiling	0.0		156.615556856872	
23.0	131.27127514428503	face	0.0		145	31.0	female	white	2.1822522881018704	smiling	102	sub-10	1.0	2.0	102_smiling	1.0	trustworthiness	156.99043400304072	1.233307877133484
23.0	131.5963835092116	pulse	0.0	t		31.0	female	white	2.1822522881018704	smiling	102	sub-10	1.0	2.0	102_smiling	1.0	trustworthiness	157.31554236796728	
23.0	132.29637445364642	pulse	0.0	t		31.0	female	white	2.1822522881018704	smiling	102	sub-10	1.0	2.0	102_smiling	1.0	trustworthiness	158.0155333124021	
23.0	132.5045830214185	fix	1.0		177	31.0	female	white	2.1822522881018704	smiling	102	sub-10	1.0	2.0	102_smiling	1.0	trustworthiness	158.2237418801742	1.4999586462545267
23.0	132.99633309990168	pulse	1.0	t		31.0	female	white	2.1822522881018704	smiling	102	sub-10	1.0	2.0	102_smiling	1.0	trustworthiness	158.71549195865737	
23.0	133.69632947767604	pulse	1.0	t		31.0	female	white	2.1822522881018704	smiling	102	sub-10	1.0	2.0	102_smiling	1.0	trustworthiness	159.41548833643174	
23.0	134.00454166767304	rating	2.0		296	31.0	female	white	2.1822522881018704	smiling	102	sub-10	1.0	2.0	102_smiling	1.0	trustworthiness	159.72370052642873	2.5082435826225264
23.0	134.39631619618012	pulse	2.0	t		31.0	female	white	2.1822522881018704	smiling	102	sub-10	1.0	2.0	102_smiling	1.0	trustworthiness	160.1154750549358	
23.0	135.0962793702165	pulse	2.0	t		31.0	female	white	2.1822522881018704	smiling	102	sub-10	1.0	2.0	102_smiling	1.0	trustworthiness	160.8154382289722	
23.0	135.79626186278983	pulse	2.0	t		31.0	female	white	2.1822522881018704	smiling	102	sub-10	1.0	2.0	102_smiling	1.0	trustworthiness	161.51542072154552	
23.0	136.49625371277943	pulse	2.0	t		31.0	female	white	2.1822522881018704	smiling	102	sub-10	1.0	2.0	102_smiling	1.0	trustworthiness	162.21541257153513	
23.0	136.51278525029556	fix	3.0		443	31.0	female	white	2.1822522881018704	smiling	102	sub-10	1.0	2.0	102_smiling	1.0	trustworthiness	162.23194410905126	3.7582260751987633
23.0	136.52044022119662	response	3.0	b		31.0	female	white	2.1822522881018704	smiling	102	sub-10	1.0	2.0	102_smiling	1.0	trustworthiness	162.2395990799523	
23.0	137.19621447199825	pulse	3.0	t		31.0	female	white	2.1822522881018704	smiling	102	sub-10	1.0	2.0	102_smiling	1.0	trustworthiness	162.91537333075394	
23.0	137.89619575716642	pulse	3.0	t		31.0	female	white	2.1822522881018704	smiling	102	sub-10	1.0	2.0	102_smiling	1.0	trustworthiness	163.61535461592212	
23.0	138.59617160899143	pulse	3.0	t		31.0	female	white	2.1822522881018704	smiling	102	sub-10	1.0	2.0	102_smiling	1.0	trustworthiness	164.31533046774712	
23.0	139.2961528941596	pulse	3.0	t		31.0	female	white	2.1822522881018704	smiling	102	sub-10	1.0	2.0	102_smiling	1.0	trustworthiness	165.0153117529153	
23.0	139.99613297191536	pulse	3.0	t		31.0	female	white	2.1822522881018704	smiling	102	sub-10	1.0	2.0	102_smiling	1.0	trustworthiness	165.71529183067105	
24.0	140.27101132549433	face	0.0		145	25.0	female	black	3.858336649423	neutral	126	sub-10	1.0	2.0	126_neutral	0.0		165.99017018425002	1.2332939919324417
24.0	140.6961157663427	pulse	0.0	t		25.0	female	black	3.858336649423	neutral	126	sub-10	1.0	2.0	126_neutral	0.0		166.4152746250984	
24.0	141.3960837700106	pulse	0.0	t		25.0	female	black	3.858336649423	neutral	126	sub-10	1.0	2.0	126_neutral	0.0		167.11524262876628	
24.0	141.50430531742677	fix	1.0		444	25.0	female	black	3.858336649423	neutral	126	sub-10	1.0	2.0	126_neutral	0.0		167.22346417618246	3.75835375866518
24.0	142.09607320518626	pulse	1.0	t		25.0	female	black	3.858336649423	neutral	126	sub-10	1.0	2.0	126_neutral	0.0		167.81523206394195	
24.0	142.79605237738724	pulse	1.0	t		25.0	female	black	3.858336649423	neutral	126	sub-10	1.0	2.0	126_neutral	0.0		168.51521123614293	
24.0	143.49602098476316	pulse	1.0	t		25.0	female	black	3.858336649423	neutral	126	sub-10	1.0	2.0	126_neutral	0.0		169.21517984351885	
24.0	144.19601856994632	pulse	1.0	t		25.0	female	black	3.858336649423	neutral	126	sub-10	1.0	2.0	126_neutral	0.0		169.915177428702	
24.0	144.89598898843178	pulse	1.0	t		25.0	female	black	3.858336649423	neutral	126	sub-10	1.0	2.0	126_neutral	0.0		170.61514784718747	
25.0	145.26265907609195	face	0.0		146	27.0	female	white	4.181058495821727	neutral	039	sub-10	1.0	2.0	039_neutral	0.0		170.98181793484764	1.2415149356420443
25.0	145.59596936804155	pulse	0.0	t		27.0	female	white	4.181058495821727	neutral	039	sub-10	1.0	2.0	039_neutral	0.0		171.31512822679724	
25.0	146.295943106903	pulse	0.0	t		27.0	female	white	4.181058495821727	neutral	039	sub-10	1.0	2.0	039_neutral	0.0		172.0151019656587	
25.0	146.504174011734	fix	1.0		444	27.0	female	white	4.181058495821727	neutral	039	sub-10	1.0	2.0	039_neutral	0.0		172.22333287048968	3.7665372727060458
25.0	146.99593314578306	pulse	1.0	t		27.0	female	white	4.181058495821727	neutral	039	sub-10	1.0	2.0	039_neutral	0.0		172.71509200453875	
25.0	147.69591412909722	pulse	1.0	t		27.0	female	white	4.181058495821727	neutral	039	sub-10	1.0	2.0	039_neutral	0.0		173.4150729878529	
25.0	148.39587911424314	pulse	1.0	t		27.0	female	white	4.181058495821727	neutral	039	sub-10	1.0	2.0	039_neutral	0.0		174.11503797299883	
25.0	149.09587368090433	pulse	1.0	t		27.0	female	white	4.181058495821727	neutral	039	sub-10	1.0	2.0	039_neutral	0.0		174.81503253966002	
25.0	149.7958302141924	pulse	1.0	t		27.0	female	white	4.181058495821727	neutral	039	sub-10	1.0	2.0	039_neutral	0.0		175.51498907294808	
26.0	150.27071128444004	face	0.0		145	40.0	female	west_asian	1.5777954635893354	neutral	038	sub-10	1.0	2.0	038_neutral	1.0	attractiveness	175.98987014319573	1.2333145178818086
26.0	150.49582538455797	pulse	0.0	t		40.0	female	west_asian	1.5777954635893354	neutral	038	sub-10	1.0	2.0	038_neutral	1.0	attractiveness	176.21498424331367	
26.0	151.19580787713494	pulse	0.0	t		40.0	female	west_asian	1.5777954635893354	neutral	038	sub-10	1.0	2.0	038_neutral	1.0	attractiveness	176.91496673589063	
26.0	151.50402580232185	fix	1.0		177	40.0	female	west_asian	1.5777954635893354	neutral	038	sub-10	1.0	2.0	038_neutral	1.0	attractiveness	177.22318466107754	1.499955627732561
26.0	151.8958042549093	pulse	1.0	t		40.0	female	west_asian	1.5777954635893354	neutral	038	sub-10	1.0	2.0	038_neutral	1.0	attractiveness	177.614963113665	
26.0	152.59577648450795	pulse	1.0	t		40.0	female	west_asian	1.5777954635893354	neutral	038	sub-10	1.0	2.0	038_neutral	1.0	attractiveness	178.31493534326364	
26.0	153.0039814300544	rating	2.0		293	40.0	female	west_asian	1.5777954635893354	neutral	038	sub-10	1.0	2.0	038_neutral	1.0	attractiveness	178.7231402888101	2.499928159184492
26.0	153.29575535485856	pulse	2.0	t		40.0	female	west_asian	1.5777954635893354	neutral	038	sub-10	1.0	2.0	038_neutral	1.0	attractiveness	179.01491421361425	
26.0	153.9957197363001	pulse	2.0	t		40.0	female	west_asian	1.5777954635893354	neutral	038	sub-10	1.0	2.0	038_neutral	1.0	attractiveness	179.71487859505578	
26.0	154.6957124918481	pulse	2.0	t		40.0	female	west_asian	1.5777954635893354	neutral	038	sub-10	1.0	2.0	038_neutral	1.0	attractiveness	180.4148713506038	
26.0	154.8206792881101	response	2.0	n		40.0	female	west_asian	1.5777954635893354	neutral	038	sub-10	1.0	2.0	038_neutral	1.0	attractiveness	180.5398381468658	
26.0	154.93736537393488	response	2.0	w		40.0	female	west_asian	1.5777954635893354	neutral	038	sub-10	1.0	2.0	038_neutral	1.0	attractiveness	180.65652423269057	
26.0	155.39566419550465	pulse	2.0	t		40.0	female	west_asian	1.5777954635893354	neutral	038	sub-10	1.0	2.0	038_neutral	1.0	attractiveness	181.11482305426034	
26.0	155.5039095892389	fix	3.0		444	40.0	female	west_asian	1.5777954635893354	neutral	038	sub-10	1.0	2.0	038_neutral	1.0	attractiveness	181.2230684479946	3.758283427108836
26.0	156.09565815846145	pulse	3.0	t		40.0	female	west_asian	1.5777954635893354	neutral	038	sub-10	1.0	2.0	038_neutral	1.0	attractiveness	181.81481701721714	
26.0	156.79564880104226	pulse	3.0	t		40.0	female	west_asian	1.5777954635893354	neutral	038	sub-10	1.0	2.0	038_neutral	1.0	attractiveness	182.51480765979795	
26.0	157.49561227692902	pulse	3.0	t		40.0	female	west_asian	1.5777954635893354	neutral	038	sub-10	1.0	2.0	038_neutral	1.0	attractiveness	183.2147711356847	
26.0	158.1956014102543	pulse	3.0	t		40.0	female	west_asian	1.5777954635893354	neutral	038	sub-10	1.0	2.0	038_neutral	1.0	attractiveness	183.91476026901	
26.0	158.89557696022894	pulse	3.0	t		40.0	female	west_asian	1.5777954635893354	neutral	038	sub-10	1.0	2.0	038_neutral	1.0	attractiveness	184.61473581898463	
27.0	159.26219301634774	face	0.0		146	24.0	female	east_asian	2.9076800636689217	smiling	034	sub-10	1.0	2.0	034_smiling	0.0		184.98135187510343	1.2415659486614459
27.0	159.59555854724385	pulse	0.0	t		24.0	female	east_asian	2.9076800636689217	smiling	034	sub-10	1.0	2.0	034_smiling	0.0		185.31471740599955	
27.0	160.29553681389007	pulse	0.0	t		24.0	female	east_asian	2.9076800636689217	smiling	034	sub-10	1.0	2.0	034_smiling	0.0		186.01469567264576	
27.0	160.50375896500918	fix	1.0		444	24.0	female	east_asian	2.9076800636689217	smiling	034	sub-10	1.0	2.0	034_smiling	0.0		186.22291782376487	3.7665248967678053
27.0	160.9955105527515	pulse	1.0	t		24.0	female	east_asian	2.9076800636689217	smiling	034	sub-10	1.0	2.0	034_smiling	0.0		186.7146694115072	
27.0	161.69547825456903	pulse	1.0	t		24.0	female	east_asian	2.9076800636689217	smiling	034	sub-10	1.0	2.0	034_smiling	0.0		187.41463711332472	
27.0	162.3954586341788	pulse	1.0	t		24.0	female	east_asian	2.9076800636689217	smiling	034	sub-10	1.0	2.0	034_smiling	0.0		188.11461749293449	
27.0	163.09545018231802	pulse	1.0	t		24.0	female	east_asian	2.9076800636689217	smiling	034	sub-10	1.0	2.0	034_smiling	0.0		188.8146090410737	
27.0	163.79544142860686	pulse	1.0	t		24.0	female	east_asian	2.9076800636689217	smiling	034	sub-10	1.0	2.0	034_smiling	0.0		189.51460028736255	
28.0	164.270283861777	face	0.0		145	20.0	female	white	3.9502586549940313	neutral	091	sub-10	1.0	2.0	091_neutral	0.0		189.98944272053268	1.2333118012102204
28.0	164.495422110067	pulse	0.0	t		20.0	female	white	3.9502586549940313	neutral	091	sub-10	1.0	2.0	091_neutral	0.0		190.2145809688227	
28.0	165.19539071744293	pulse	0.0	t		20.0	female	white	3.9502586549940313	neutral	091	sub-10	1.0	2.0	091_neutral	0.0		190.91454957619862	
28.0	165.5035956629872	fix	1.0		444	20.0	female	white	3.9502586549940313	neutral	091	sub-10	1.0	2.0	091_neutral	0.0		191.2227545217429	3.7665414986367978
28.0	165.89536988964392	pulse	1.0	t		20.0	female	white	3.9502586549940313	neutral	091	sub-10	1.0	2.0	091_neutral	0.0		191.6145287483996	
28.0	166.5953394025746	pulse	1.0	t		20.0	female	white	3.9502586549940313	neutral	091	sub-10	1.0	2.0	091_neutral	0.0		192.3144982613303	
28.0	167.29533638405337	pulse	1.0	t		20.0	female	white	3.9502586549940313	neutral	091	sub-10	1.0	2.0	091_neutral	0.0		193.01449524280906	
28.0	167.9953028784621	pulse	1.0	t		20.0	female	white	3.9502586549940313	neutral	091	sub-10	1.0	2.0	091_neutral	0.0		193.7144617372178	
28.0	168.69528688029823	pulse	1.0	t		20.0	female	white	3.9502586549940313	neutral	091	sub-10	1.0	2.0	091_neutral	0.0		194.41444573905392	
29.0	169.270137161624	face	0.0		145	28.0	male	east_asian	1.5563072025467568	neutral	005	sub-10	1.0	2.0	005_neutral	0.0		194.9892960203797	1.2333172345497587
29.0	169.39526846731314	pulse	0.0	t		28.0	male	east_asian	1.5563072025467568	neutral	005	sub-10	1.0	2.0	005_neutral	0.0		195.11442732606884	
29.0	170.09528054140173	pulse	0.0	t		28.0	male	east_asian	1.5563072025467568	neutral	005	sub-10	1.0	2.0	005_neutral	0.0		195.81443940015743	
29.0	170.50345439617377	fix	1.0		444	28.0	male	east_asian	1.5563072025467568	neutral	005	sub-10	1.0	2.0	005_neutral	0.0		196.22261325492946	3.7665360652972595
29.0	170.7952289246823	pulse	1.0	t		28.0	male	east_asian	1.5563072025467568	neutral	005	sub-10	1.0	2.0	005_neutral	0.0		196.514387783438	
29.0	171.49519541909103	pulse	1.0	t		28.0	male	east_asian	1.5563072025467568	neutral	005	sub-10	1.0	2.0	005_neutral	0.0		197.21435427784672	
29.0	172.1951836468579	pulse	1.0	t		28.0	male	east_asian	1.5563072025467568	neutral	005	sub-10	1.0	2.0	005_neutral	0.0		197.9143425056136	
29.0	172.89516734684003	pulse	1.0	t		28.0	male	east_asian	1.5563072025467568	neutral	005	sub-10	1.0	2.0	005_neutral	0.0		198.61432620559572	
29.0	173.59513263383997	pulse	1.0	t		28.0	male	east_asian	1.5563072025467568	neutral	005	sub-10	1.0	2.0	005_neutral	0.0		199.31429149259566	
30.0	174.26999046147102	face	0.0		145	40.0	male	white	1.868682849184242	smiling	172	sub-10	1.0	2.0	172_smiling	0.0		199.98914932022672	1.2333102919510566
30.0	174.2951235782748	pulse	0.0	t		40.0	male	white	1.868682849184242	smiling	172	sub-10	1.0	2.0	172_smiling	0.0		200.0142824370305	
30.0	174.9951024486254	pulse	0.0	t		40.0	male	white	1.868682849184242	smiling	172	sub-10	1.0	2.0	172_smiling	0.0		200.7142613073811	
30.0	175.50330075342208	fix	1.0		443	40.0	male	white	1.868682849184242	smiling	172	sub-10	1.0	2.0	172_smiling	0.0		201.22245961217777	3.766556893097004
30.0	175.69508071526798	pulse	1.0	t		40.0	male	white	1.868682849184242	smiling	172	sub-10	1.0	2.0	172_smiling	0.0		201.41423957402367	
30.0	176.39504751153072	pulse	1.0	t		40.0	male	white	1.868682849184242	smiling	172	sub-10	1.0	2.0	172_smiling	0.0		202.1142063702864	
30.0	177.0950426818963	pulse	1.0	t		40.0	male	white	1.868682849184242	smiling	172	sub-10	1.0	2.0	172_smiling	0.0		202.814201540652	
30.0	177.79502306150607	pulse	1.0	t		40.0	male	white	1.868682849184242	smiling	172	sub-10	1.0	2.0	172_smiling	0.0		203.51418192026176	
30.0	178.49499559295873	pulse	1.0	t		40.0	male	white	1.868682849184242	smiling	172	sub-10	1.0	2.0	172_smiling	0.0		204.21415445171442	
30.0	179.19498532998477	pulse	1.0	t		40.0	male	white	1.868682849184242	smiling	172	sub-10	1.0	2.0	172_smiling	0.0		204.91414418874047	
31.0	179.26985764651909	face	0.0		146	24.0	male	white	3.1153999204138483	smiling	012	sub-10	1.0	2.0	012_smiling	0.0		204.98901650527478	1.2332964067500143
31.0	179.89495695587902	pulse	0.0	t		24.0	male	white	3.1153999204138483	smiling	012	sub-10	1.0	2.0	012_smiling	0.0		205.61411581463472	
31.0	180.5031540532691	fix	1.0		443	24.0	male	white	3.1153999204138483	smiling	012	sub-10	1.0	2.0	012_smiling	0.0		206.2223129120248	3.7583021419450233
31.0	180.5949539373578	pulse	1.0	t		24.0	male	white	3.1153999204138483	smiling	012	sub-10	1.0	2.0	012_smiling	0.0		206.31411279611348	
31.0	181.29491288546342	pulse	1.0	t		24.0	male	white	3.1153999204138483	smiling	012	sub-10	1.0	2.0	012_smiling	0.0		207.0140717442191	
31.0	181.99489447248197	pulse	1.0	t		24.0	male	white	3.1153999204138483	smiling	012	sub-10	1.0	2.0	012_smiling	0.0		207.71405333123766	
31.0	182.69487998357727	pulse	1.0	t		24.0	male	white	3.1153999204138483	smiling	012	sub-10	1.0	2.0	012_smiling	0.0		208.41403884233296	
31.0	183.39485825022348	pulse	1.0	t		24.0	male	white	3.1153999204138483	smiling	012	sub-10	1.0	2.0	012_smiling	0.0		209.11401710897917	
31.0	184.09482021685108	pulse	1.0	t		24.0	male	white	3.1153999204138483	smiling	012	sub-10	1.0	2.0	012_smiling	0.0		209.81397907560677	
32.0	184.26145619521412	face	0.0		147	27.0	female	white	3.504576203740549	neutral	144	sub-10	1.0	2.0	144_neutral	0.0		209.9806150539698	1.249902803603618
32.0	184.79483017797247	pulse	0.0	t		27.0	female	white	3.504576203740549	neutral	144	sub-10	1.0	2.0	144_neutral	0.0		210.51398903672816	
32.0	185.49480663350187	pulse	0.0	t		27.0	female	white	3.504576203740549	neutral	144	sub-10	1.0	2.0	144_neutral	0.0		211.21396549225756	
32.0	185.51135899881774	fix	1.0		443	27.0	female	white	3.504576203740549	neutral	144	sub-10	1.0	2.0	144_neutral	0.0		211.23051785757343	3.750004225927114
32.0	186.1947670908703	pulse	1.0	t		27.0	female	white	3.504576203740549	neutral	144	sub-10	1.0	2.0	144_neutral	0.0		211.913925949626	
32.0	186.89474958344363	pulse	1.0	t		27.0	female	white	3.504576203740549	neutral	144	sub-10	1.0	2.0	144_neutral	0.0		212.61390844219932	
32.0	187.5947284537906	pulse	1.0	t		27.0	female	white	3.504576203740549	neutral	144	sub-10	1.0	2.0	144_neutral	0.0		213.31388731254629	
32.0	188.29471034266317	pulse	1.0	t		27.0	female	white	3.504576203740549	neutral	144	sub-10	1.0	2.0	144_neutral	0.0		214.01386920141886	
32.0	188.99469555190444	pulse	1.0	t		27.0	female	white	3.504576203740549	neutral	144	sub-10	1.0	2.0	144_neutral	0.0		214.71385441066013	
33.0	189.26136322474485	face	0.0		146	26.0	female	white	4.854755272582572	smiling	027	sub-10	1.0	2.0	027_smiling	0.0		214.98052208350055	1.2414950134043465
33.0	189.69468015744496	pulse	0.0	t		26.0	female	white	4.854755272582572	smiling	027	sub-10	1.0	2.0	027_smiling	0.0		215.41383901620065	
33.0	190.39463729443742	pulse	0.0	t		26.0	female	white	4.854755272582572	smiling	027	sub-10	1.0	2.0	027_smiling	0.0		216.1137961531931	
33.0	190.5028582381492	fix	1.0		444	26.0	female	white	4.854755272582572	smiling	027	sub-10	1.0	2.0	027_smiling	0.0		216.2220170969049	3.766539385669603
33.0	191.0946243147955	pulse	1.0	t		26.0	female	white	4.854755272582572	smiling	027	sub-10	1.0	2.0	027_smiling	0.0		216.8137831735512	
33.0	191.79460650551846	pulse	1.0	t		26.0	female	white	4.854755272582572	smiling	027	sub-10	1.0	2.0	027_smiling	0.0		217.51376536427415	
33.0	192.4945808480843	pulse	1.0	t		26.0	female	white	4.854755272582572	smiling	027	sub-10	1.0	2.0	027_smiling	0.0		218.21373970684	
33.0	193.1945588128765	pulse	1.0	t		26.0	female	white	4.854755272582572	smiling	027	sub-10	1.0	2.0	027_smiling	0.0		218.91371767163218	
33.0	193.89454915360693	pulse	1.0	t		26.0	female	white	4.854755272582572	smiling	027	sub-10	1.0	2.0	027_smiling	0.0		219.61370801236262	
34.0	194.2693976238188	face	0.0		145	47.0	male	east_asian	2.171110226820533	neutral	024	sub-10	1.0	2.0	024_neutral	0.0		219.9885564825745	1.2333127067686291
34.0	194.59453345729344	pulse	0.0	t		47.0	male	east_asian	2.171110226820533	neutral	024	sub-10	1.0	2.0	024_neutral	0.0		220.31369231604913	
34.0	195.29450961097245	pulse	0.0	t		47.0	male	east_asian	2.171110226820533	neutral	024	sub-10	1.0	2.0	024_neutral	0.0		221.01366846972815	
34.0	195.50271033058743	fix	1.0		444	47.0	male	east_asian	2.171110226820533	neutral	024	sub-10	1.0	2.0	024_neutral	0.0		221.22186918934312	3.766542706045584
34.0	195.99447852019875	pulse	1.0	t		47.0	male	east_asian	2.171110226820533	neutral	024	sub-10	1.0	2.0	024_neutral	0.0		221.71363737895445	
34.0	196.69446101277208	pulse	1.0	t		47.0	male	east_asian	2.171110226820533	neutral	024	sub-10	1.0	2.0	024_neutral	0.0		222.41361987152777	
34.0	197.39444169423587	pulse	1.0	t		47.0	male	east_asian	2.171110226820533	neutral	024	sub-10	1.0	2.0	024_neutral	0.0		223.11360055299156	
34.0	198.0944244886632	pulse	1.0	t		47.0	male	east_asian	2.171110226820533	neutral	024	sub-10	1.0	2.0	024_neutral	0.0		223.8135833474189	
34.0	198.79440517012335	pulse	1.0	t		47.0	male	east_asian	2.171110226820533	neutral	024	sub-10	1.0	2.0	024_neutral	0.0		224.51356402887905	
35.0	199.26925303663302	face	0.0		145	27.0	male	black	3.5523278949462798	smiling	042	sub-10	1.0	2.0	042_smiling	1.0	trustworthiness	224.9884118953887	1.2333124049146136
35.0	199.4943789089848	pulse	0.0	t		27.0	male	black	3.5523278949462798	smiling	042	sub-10	1.0	2.0	042_smiling	1.0	trustworthiness	225.2135377677405	
35.0	200.19436743860206	pulse	0.0	t		27.0	male	black	3.5523278949462798	smiling	042	sub-10	1.0	2.0	042_smiling	1.0	trustworthiness	225.91352629735775	
35.0	200.50256544154763	fix	1.0		177	27.0	male	black	3.5523278949462798	smiling	042	sub-10	1.0	2.0	042_smiling	1.0	trustworthiness	226.22172430030332	1.4999495906886295
35.0	200.89435113858417	pulse	1.0	t		27.0	male	black	3.5523278949462798	smiling	042	sub-10	1.0	2.0	042_smiling	1.0	trustworthiness	226.61350999733986	
35.0	201.5943058607627	pulse	1.0	t		27.0	male	black	3.5523278949462798	smiling	042	sub-10	1.0	2.0	042_smiling	1.0	trustworthiness	227.31346471951838	
35.0	202.00251503223626	rating	2.0		294	27.0	male	black	3.5523278949462798	smiling	042	sub-10	1.0	2.0	042_smiling	1.0	trustworthiness	227.72167389099195	2.4999450629075
35.0	202.29430737002258	pulse	2.0	t		27.0	male	black	3.5523278949462798	smiling	042	sub-10	1.0	2.0	042_smiling	1.0	trustworthiness	228.01346622877827	
35.0	202.9942835237016	pulse	2.0	t		27.0	male	black	3.5523278949462798	smiling	042	sub-10	1.0	2.0	042_smiling	1.0	trustworthiness	228.7134423824573	
35.0	203.69425575330024	pulse	2.0	t		27.0	male	black	3.5523278949462798	smiling	042	sub-10	1.0	2.0	042_smiling	1.0	trustworthiness	229.41341461205593	
35.0	203.98909951461974	response	2.0	b		27.0	male	black	3.5523278949462798	smiling	042	sub-10	1.0	2.0	042_smiling	1.0	trustworthiness	229.70825837337543	
35.0	204.39423371809244	pulse	2.0	t		27.0	male	black	3.5523278949462798	smiling	042	sub-10	1.0	2.0	042_smiling	1.0	trustworthiness	230.11339257684813	
35.0	204.50246009514376	fix	3.0		444	27.0	male	black	3.5523278949462798	smiling	042	sub-10	1.0	2.0	042_smiling	1.0	trustworthiness	230.22161895389945	3.766540593078389
35.0	205.09421439955622	pulse	3.0	t		27.0	male	black	3.5523278949462798	smiling	042	sub-10	1.0	2.0	042_smiling	1.0	trustworthiness	230.8133732583119	
35.0	205.7941990050931	pulse	3.0	t		27.0	male	black	3.5523278949462798	smiling	042	sub-10	1.0	2.0	042_smiling	1.0	trustworthiness	231.5133578638488	
35.0	206.49415282171321	pulse	3.0	t		27.0	male	black	3.5523278949462798	smiling	042	sub-10	1.0	2.0	042_smiling	1.0	trustworthiness	232.2133116804689	
35.0	207.1941485957832	pulse	3.0	t		27.0	male	black	3.5523278949462798	smiling	042	sub-10	1.0	2.0	042_smiling	1.0	trustworthiness	232.91330745453888	
35.0	207.8941338050281	pulse	3.0	t		27.0	male	black	3.5523278949462798	smiling	042	sub-10	1.0	2.0	042_smiling	1.0	trustworthiness	233.6132926637838	
36.0	208.26900068822215	face	0.0		145	23.0	male	white	2.6275368085953046	neutral	141	sub-10	1.0	2.0	141_neutral	0.0		233.98815954697784	1.2333105938050721
36.0	208.59410724203553	pulse	0.0	t		23.0	male	white	2.6275368085953046	neutral	141	sub-10	1.0	2.0	141_neutral	0.0		234.31326610079122	
36.0	209.29408339571455	pulse	0.0	t		23.0	male	white	2.6275368085953046	neutral	141	sub-10	1.0	2.0	141_neutral	0.0		235.01324225447024	
36.0	209.50231128202722	fix	1.0		444	23.0	male	white	2.6275368085953046	neutral	141	sub-10	1.0	2.0	141_neutral	0.0		235.2214701407829	3.7581753640333773
36.0	209.99406890680984	pulse	1.0	t		23.0	male	white	2.6275368085953046	neutral	141	sub-10	1.0	2.0	141_neutral	0.0		235.71322776556553	
36.0	210.69404113641212	pulse	1.0	t		23.0	male	white	2.6275368085953046	neutral	141	sub-10	1.0	2.0	141_neutral	0.0		236.41319999516782	
36.0	211.39401879935394	pulse	1.0	t		23.0	male	white	2.6275368085953046	neutral	141	sub-10	1.0	2.0	141_neutral	0.0		237.11317765810963	
36.0	212.0939988771097	pulse	1.0	t		23.0	male	white	2.6275368085953046	neutral	141	sub-10	1.0	2.0	141_neutral	0.0		237.8131577358654	
36.0	212.79398046412825	pulse	1.0	t		23.0	male	white	2.6275368085953046	neutral	141	sub-10	1.0	2.0	141_neutral	0.0		238.51313932288394	
37.0	213.2604866460606	face	0.0		146	22.0	male	black	2.767608436132113	neutral	044	sub-10	1.0	2.0	044_neutral	0.0		238.9796455048163	1.241676426550839
37.0	213.49396446596438	pulse	0.0	t		22.0	male	black	2.767608436132113	neutral	044	sub-10	1.0	2.0	044_neutral	0.0		239.21312332472007	
37.0	214.19393307333667	pulse	0.0	t		22.0	male	black	2.767608436132113	neutral	044	sub-10	1.0	2.0	044_neutral	0.0		239.91309193209236	
37.0	214.50216307261144	fix	1.0		444	22.0	male	black	2.767608436132113	neutral	044	sub-10	1.0	2.0	044_neutral	0.0		240.22132193136713	3.7665396875236183
37.0	214.89392099924953	pulse	1.0	t		22.0	male	black	2.767608436132113	neutral	044	sub-10	1.0	2.0	044_neutral	0.0		240.61307985800522	
37.0	215.59389805848696	pulse	1.0	t		22.0	male	black	2.767608436132113	neutral	044	sub-10	1.0	2.0	044_neutral	0.0		241.31305691724265	
37.0	216.29387541957476	pulse	1.0	t		22.0	male	black	2.767608436132113	neutral	044	sub-10	1.0	2.0	044_neutral	0.0		242.01303427833045	
37.0	216.99386062881604	pulse	1.0	t		22.0	male	black	2.767608436132113	neutral	044	sub-10	1.0	2.0	044_neutral	0.0		242.71301948757173	
37.0	217.69383919731263	pulse	1.0	t		22.0	male	black	2.767608436132113	neutral	044	sub-10	1.0	2.0	044_neutral	0.0		243.41299805606832	
38.0	218.26870276013506	face	0.0		145	24.0	female	east_asian	4.409868682849185	smiling	030	sub-10	1.0	2.0	030_smiling	1.0	dominance	243.98786161889075	1.2333160271446104
38.0	218.39381716210482	pulse	0.0	t		24.0	female	east_asian	4.409868682849185	smiling	030	sub-10	1.0	2.0	030_smiling	1.0	dominance	244.11297602086051	
38.0	219.09380146579497	pulse	0.0	t		24.0	female	east_asian	4.409868682849185	smiling	030	sub-10	1.0	2.0	030_smiling	1.0	dominance	244.81296032455066	
38.0	219.50201878727967	fix	1.0		177	24.0	female	east_asian	4.409868682849185	smiling	030	sub-10	1.0	2.0	030_smiling	1.0	dominance	245.22117764603536	1.4999462703126483
38.0	219.79378878800344	pulse	1.0	t		24.0	female	east_asian	4.409868682849185	smiling	030	sub-10	1.0	2.0	030_smiling	1.0	dominance	245.51294764675913	
38.0	220.49375105648141	pulse	1.0	t		24.0	female	east_asian	4.409868682849185	smiling	030	sub-10	1.0	2.0	030_smiling	1.0	dominance	246.2129099152371	
38.0	221.00196505759232	rating	2.0		294	24.0	female	east_asian	4.409868682849185	smiling	030	sub-10	1.0	2.0	030_smiling	1.0	dominance	246.721123916348	2.4999145758374652
38.0	221.19374018980307	pulse	2.0	t		24.0	female	east_asian	4.409868682849185	smiling	030	sub-10	1.0	2.0	030_smiling	1.0	dominance	246.91289904855876	
38.0	221.8937311342379	pulse	2.0	t		24.0	female	east_asian	4.409868682849185	smiling	030	sub-10	1.0	2.0	030_smiling	1.0	dominance	247.6128899929936	
38.0	222.59369128975231	pulse	2.0	t		24.0	female	east_asian	4.409868682849185	smiling	030	sub-10	1.0	2.0	030_smiling	1.0	dominance	248.312850148508	
38.0	222.74368615826825	response	2.0	e		24.0	female	east_asian	4.409868682849185	smiling	030	sub-10	1.0	2.0	030_smiling	1.0	dominance	248.46284501702394	
38.0	223.29366502861376	pulse	2.0	t		24.0	female	east_asian	4.409868682849185	smiling	030	sub-10	1.0	2.0	030_smiling	1.0	dominance	249.01282388736945	
38.0	223.50187963342978	fix	3.0		444	24.0	female	east_asian	4.409868682849185	smiling	030	sub-10	1.0	2.0	030_smiling	1.0	dominance	249.22103849218547	3.766544819009141
38.0	223.9936541619354	pulse	3.0	t		24.0	female	east_asian	4.409868682849185	smiling	030	sub-10	1.0	2.0	030_smiling	1.0	dominance	249.7128130206911	
38.0	224.69364480451986	pulse	3.0	t		24.0	female	east_asian	4.409868682849185	smiling	030	sub-10	1.0	2.0	030_smiling	1.0	dominance	250.41280366327555	
38.0	225.39360767670223	pulse	3.0	t		24.0	female	east_asian	4.409868682849185	smiling	030	sub-10	1.0	2.0	030_smiling	1.0	dominance	251.11276653545792	
38.0	226.09358443408564	pulse	3.0	t		24.0	female	east_asian	4.409868682849185	smiling	030	sub-10	1.0	2.0	030_smiling	1.0	dominance	251.81274329284133	
38.0	226.79357326555692	pulse	3.0	t		24.0	female	east_asian	4.409868682849185	smiling	030	sub-10	1.0	2.0	030_smiling	1.0	dominance	252.5127321243126	
39.0	227.26842445243892	face	0.0		145	20.0	male	black	2.609629924393156	neutral	043	sub-10	1.0	2.0	043_neutral	0.0		252.9875833111946	1.2333169326993811
39.0	227.4935530414623	pulse	0.0	t		20.0	male	black	2.609629924393156	neutral	043	sub-10	1.0	2.0	043_neutral	0.0		253.21271190021798	
39.0	228.1935207432798	pulse	0.0	t		20.0	male	black	2.609629924393156	neutral	043	sub-10	1.0	2.0	043_neutral	0.0		253.9126796020355	
39.0	228.5017413851383	fix	1.0		444	20.0	male	black	2.609629924393156	neutral	043	sub-10	1.0	2.0	043_neutral	0.0		254.220900243894	3.7498889184025757
39.0	228.8935077636379	pulse	1.0	t		20.0	male	black	2.609629924393156	neutral	043	sub-10	1.0	2.0	043_neutral	0.0		254.6126666223936	
39.0	229.59348331361252	pulse	1.0	t		20.0	male	black	2.609629924393156	neutral	043	sub-10	1.0	2.0	043_neutral	0.0		255.31264217236821	
39.0	230.29347546545614	pulse	1.0	t		20.0	male	black	2.609629924393156	neutral	043	sub-10	1.0	2.0	043_neutral	0.0		256.01263432421183	
39.0	230.99347425804808	pulse	1.0	t		20.0	male	black	2.609629924393156	neutral	043	sub-10	1.0	2.0	043_neutral	0.0		256.7126331168038	
39.0	231.69343109318652	pulse	1.0	t		20.0	male	black	2.609629924393156	neutral	043	sub-10	1.0	2.0	043_neutral	0.0		257.4125899519422	
40.0	232.25163030354088	fix	0.0		720													257.97078916229657	5.999821605371835
40.0	232.3934039264932	pulse	0.0	t														258.1125627852489	
40.0	233.09339215425643	pulse	0.0	t														258.8125510130121	
40.0	233.79336347830395	pulse	0.0	t														259.51252233705964	
40.0	234.4933435560597	pulse	0.0	t														260.2125024148154	
40.0	235.19331729492114	pulse	0.0	t														260.91247615367683	
40.0	235.8932976745309	pulse	0.0	t														261.6124565332866	
40.0	236.5932665837572	pulse	0.0	t														262.3124254425129	
40.0	237.29326386708635	pulse	0.0	t														263.01242272584204	
40.0	237.99325149114884	pulse	0.0	t														263.71241034990453	
