trial_nr	onset	event_type	phase	response	nr_frames	face_age	face_sex	face_eth	attractiveness	expression	face_id	sub_id	ses	run	trial_type	catch	rating_type	onset_abs	duration
-1.0	0.059676636972653796	fix	0.0		713													26.338759341973855	5.9578960363978695
-1.0	0.701156187489687	pulse	0.0	t														26.98023889249089	
-1.0	1.401140279836909	pulse	0.0	t														27.68022298483811	
-1.0	2.1011225610654947	pulse	0.0	t														28.380205266066696	
-1.0	2.8010978996771883	pulse	0.0	t														29.08018060467839	
-1.0	3.5010874253785005	pulse	0.0	t														29.7801701303797	
-1.0	4.201063367696406	pulse	0.0	t														30.480146072697607	
-1.0	4.901031763689389	pulse	0.0	t														31.18011446869059	
-1.0	5.6010188745658525	pulse	0.0	t														31.880101579567054	
0.0	6.017572673370523	face	0.0		144	27.0	female	white	4.181058495821727	smiling	039	sub-01	2.0	4.0	039_smiling	0.0		32.296655378371725	1.2333094165151124
0.0	6.301011720650422	pulse	0.0	t		27.0	female	white	4.181058495821727	smiling	039	sub-01	2.0	4.0	039_smiling	0.0		32.58009442565162	
0.0	7.000993096320599	pulse	0.0	t		27.0	female	white	4.181058495821727	smiling	039	sub-01	2.0	4.0	039_smiling	0.0		33.2800758013218	
0.0	7.250882089885636	fix	1.0		445	27.0	female	white	4.181058495821727	smiling	039	sub-01	2.0	4.0	039_smiling	0.0		33.52996479488684	3.7581843663701875
0.0	7.700974471992595	pulse	1.0	t		27.0	female	white	4.181058495821727	smiling	039	sub-01	2.0	4.0	039_smiling	0.0		33.980057176993796	
0.0	8.40096218657527	pulse	1.0	t		27.0	female	white	4.181058495821727	smiling	039	sub-01	2.0	4.0	039_smiling	0.0		34.68004489157647	
0.0	9.100927564039011	pulse	1.0	t		27.0	female	white	4.181058495821727	smiling	039	sub-01	2.0	4.0	039_smiling	0.0		35.38001026904021	
0.0	9.800925541623656	pulse	1.0	t		27.0	female	white	4.181058495821727	smiling	039	sub-01	2.0	4.0	039_smiling	0.0		36.08000824662486	
0.0	10.500897559852092	pulse	1.0	t		27.0	female	white	4.181058495821727	smiling	039	sub-01	2.0	4.0	039_smiling	0.0		36.77998026485329	
1.0	11.009066456255823	face	0.0		146	20.0	female	white	3.9502586549940313	neutral	091	sub-01	2.0	4.0	091_neutral	0.0		37.288149161257024	1.241668933080291
1.0	11.200881652199314	pulse	0.0	t		20.0	female	white	3.9502586549940313	neutral	091	sub-01	2.0	4.0	091_neutral	0.0		37.479964357200515	
1.0	11.900866348252748	pulse	0.0	t		20.0	female	white	3.9502586549940313	neutral	091	sub-01	2.0	4.0	091_neutral	0.0		38.17994905325395	
1.0	12.250735389336114	fix	1.0		445	20.0	female	white	3.9502586549940313	neutral	091	sub-01	2.0	4.0	091_neutral	0.0		38.529818094337315	3.7582190794619237
1.0	12.600834140539519	pulse	1.0	t		20.0	female	white	3.9502586549940313	neutral	091	sub-01	2.0	4.0	091_neutral	0.0		38.87991684554072	
1.0	13.300831816271966	pulse	1.0	t		20.0	female	white	3.9502586549940313	neutral	091	sub-01	2.0	4.0	091_neutral	0.0		39.57991452127317	
1.0	14.000790854821389	pulse	1.0	t		20.0	female	white	3.9502586549940313	neutral	091	sub-01	2.0	4.0	091_neutral	0.0		40.27987355982259	
1.0	14.700783700905959	pulse	1.0	t		20.0	female	white	3.9502586549940313	neutral	091	sub-01	2.0	4.0	091_neutral	0.0		40.97986640590716	
1.0	15.400769000665605	pulse	1.0	t		20.0	female	white	3.9502586549940313	neutral	091	sub-01	2.0	4.0	091_neutral	0.0		41.679851705666806	
2.0	16.008954468798038	face	0.0		146	47.0	male	east_asian	2.171110226820533	smiling	024	sub-01	2.0	4.0	024_smiling	1.0	trustworthiness	42.28803717379924	1.241648105224158
2.0	16.100754904131463	pulse	0.0	t		47.0	male	east_asian	2.171110226820533	smiling	024	sub-01	2.0	4.0	024_smiling	1.0	trustworthiness	42.379837609132665	
2.0	16.800729639035126	pulse	0.0	t		47.0	male	east_asian	2.171110226820533	smiling	024	sub-01	2.0	4.0	024_smiling	1.0	trustworthiness	43.07981234403633	
2.0	17.250602574022196	fix	1.0		177	47.0	male	east_asian	2.171110226820533	smiling	024	sub-01	2.0	4.0	024_smiling	1.0	trustworthiness	43.5296852790234	1.5083162006612838
2.0	17.500714636942575	pulse	1.0	t		47.0	male	east_asian	2.171110226820533	smiling	024	sub-01	2.0	4.0	024_smiling	1.0	trustworthiness	43.77979734194378	
2.0	18.20070325708548	pulse	1.0	t		47.0	male	east_asian	2.171110226820533	smiling	024	sub-01	2.0	4.0	024_smiling	1.0	trustworthiness	44.47978596208668	
2.0	18.75891877468348	rating	2.0		293	47.0	male	east_asian	2.171110226820533	smiling	024	sub-01	2.0	4.0	024_smiling	1.0	trustworthiness	45.03800147968468	2.491573924851764
2.0	18.900690971668155	pulse	2.0	t		47.0	male	east_asian	2.171110226820533	smiling	024	sub-01	2.0	4.0	024_smiling	1.0	trustworthiness	45.179773676669356	
2.0	19.600650312071593	pulse	2.0	t		47.0	male	east_asian	2.171110226820533	smiling	024	sub-01	2.0	4.0	024_smiling	1.0	trustworthiness	45.879733017072795	
2.0	20.08711597886031	response	2.0	g		47.0	male	east_asian	2.171110226820533	smiling	024	sub-01	2.0	4.0	024_smiling	1.0	trustworthiness	46.36619868386151	
2.0	20.300681493485172	pulse	2.0	t		47.0	male	east_asian	2.171110226820533	smiling	024	sub-01	2.0	4.0	024_smiling	1.0	trustworthiness	46.57976419848637	
2.0	21.00061366711998	pulse	2.0	t		47.0	male	east_asian	2.171110226820533	smiling	024	sub-01	2.0	4.0	024_smiling	1.0	trustworthiness	47.27969637212118	
2.0	21.250492699535243	fix	3.0		444	47.0	male	east_asian	2.171110226820533	smiling	024	sub-01	2.0	4.0	024_smiling	1.0	trustworthiness	47.529575404536445	3.7582393036136637
2.0	21.700624624381817	pulse	3.0	t		47.0	male	east_asian	2.171110226820533	smiling	024	sub-01	2.0	4.0	024_smiling	1.0	trustworthiness	47.97970732938302	
2.0	22.400557401722835	pulse	3.0	t		47.0	male	east_asian	2.171110226820533	smiling	024	sub-01	2.0	4.0	024_smiling	1.0	trustworthiness	48.67964010672404	
2.0	23.10057318863437	pulse	3.0	t		47.0	male	east_asian	2.171110226820533	smiling	024	sub-01	2.0	4.0	024_smiling	1.0	trustworthiness	49.37965589363557	
2.0	23.80054731983364	pulse	3.0	t		47.0	male	east_asian	2.171110226820533	smiling	024	sub-01	2.0	4.0	024_smiling	1.0	trustworthiness	50.07963002483484	
2.0	24.500530506622454	pulse	3.0	t		47.0	male	east_asian	2.171110226820533	smiling	024	sub-01	2.0	4.0	024_smiling	1.0	trustworthiness	50.779613211623655	
3.0	25.008732003148907	face	0.0		146	40.0	male	black	2.408674890569041	smiling	061	sub-01	2.0	4.0	061_smiling	0.0		51.28781470815011	1.2416345218389324
3.0	25.200510071173994	pulse	0.0	t		40.0	male	black	2.408674890569041	smiling	061	sub-01	2.0	4.0	061_smiling	0.0		51.479592776175195	
3.0	25.900497483904473	pulse	0.0	t		40.0	male	black	2.408674890569041	smiling	061	sub-01	2.0	4.0	061_smiling	0.0		52.179580188905675	
3.0	26.25036652498784	fix	1.0		444	40.0	male	black	2.408674890569041	smiling	061	sub-01	2.0	4.0	061_smiling	0.0		52.52944922998904	3.7582414165844966
3.0	26.600465276191244	pulse	1.0	t		40.0	male	black	2.408674890569041	smiling	061	sub-01	2.0	4.0	061_smiling	0.0		52.879547981192445	
3.0	27.300460235246646	pulse	1.0	t		40.0	male	black	2.408674890569041	smiling	061	sub-01	2.0	4.0	061_smiling	0.0		53.57954294024785	
3.0	28.000431951622886	pulse	1.0	t		40.0	male	black	2.408674890569041	smiling	061	sub-01	2.0	4.0	061_smiling	0.0		54.27951465662409	
3.0	28.70040487540973	pulse	1.0	t		40.0	male	black	2.408674890569041	smiling	061	sub-01	2.0	4.0	061_smiling	0.0		54.97948758041093	
3.0	29.400398023346497	pulse	1.0	t		40.0	male	black	2.408674890569041	smiling	061	sub-01	2.0	4.0	061_smiling	0.0		55.6794807283477	
4.0	30.008607941572336	face	0.0		146	28.0	male	east_asian	1.5563072025467568	neutral	005	sub-01	2.0	4.0	005_neutral	0.0		56.28769064657354	1.2416444829868851
4.0	30.1003993213144	pulse	0.0	t		28.0	male	east_asian	1.5563072025467568	neutral	005	sub-01	2.0	4.0	005_neutral	0.0		56.3794820263156	
4.0	30.800365604336548	pulse	0.0	t		28.0	male	east_asian	1.5563072025467568	neutral	005	sub-01	2.0	4.0	005_neutral	0.0		57.07944830933775	
4.0	31.25025242455922	fix	1.0		444	28.0	male	east_asian	1.5563072025467568	neutral	005	sub-01	2.0	4.0	005_neutral	0.0		57.52933512956042	3.766529393991732
4.0	31.500343961477483	pulse	1.0	t		28.0	male	east_asian	1.5563072025467568	neutral	005	sub-01	2.0	4.0	005_neutral	0.0		57.779426666478685	
4.0	32.20032865753092	pulse	1.0	t		28.0	male	east_asian	1.5563072025467568	neutral	005	sub-01	2.0	4.0	005_neutral	0.0		58.47941136253212	
4.0	32.90030399614261	pulse	1.0	t		28.0	male	east_asian	1.5563072025467568	neutral	005	sub-01	2.0	4.0	005_neutral	0.0		59.17938670114381	
4.0	33.60028265513574	pulse	1.0	t		28.0	male	east_asian	1.5563072025467568	neutral	005	sub-01	2.0	4.0	005_neutral	0.0		59.879365360136944	
4.0	34.30025286224554	pulse	1.0	t		28.0	male	east_asian	1.5563072025467568	neutral	005	sub-01	2.0	4.0	005_neutral	0.0		60.579335567246744	
5.0	35.01678181855095	face	0.0		146	31.0	male	west_asian	1.9538400318344609	neutral	070	sub-01	2.0	4.0	070_neutral	0.0		61.295864523552154	1.2333377906943497
5.0	35.00332460877689	pulse	0.0	t		31.0	male	west_asian	1.9538400318344609	neutral	070	sub-01	2.0	4.0	070_neutral	0.0		61.282407313778094	
5.0	35.70023885626688	pulse	0.0	t		31.0	male	west_asian	1.9538400318344609	neutral	070	sub-01	2.0	4.0	070_neutral	0.0		61.97932156126808	
5.0	36.2501196092453	fix	1.0		443	31.0	male	west_asian	1.9538400318344609	neutral	070	sub-01	2.0	4.0	070_neutral	0.0		62.529202314246504	3.766550825554077
5.0	36.400256152443035	pulse	1.0	t		31.0	male	west_asian	1.9538400318344609	neutral	070	sub-01	2.0	4.0	070_neutral	0.0		62.679338857444236	
5.0	37.10019225016731	pulse	1.0	t		31.0	male	west_asian	1.9538400318344609	neutral	070	sub-01	2.0	4.0	070_neutral	0.0		63.37927495516851	
5.0	37.800177851779154	pulse	1.0	t		31.0	male	west_asian	1.9538400318344609	neutral	070	sub-01	2.0	4.0	070_neutral	0.0		64.07926055678035	
5.0	38.500158925597134	pulse	1.0	t		31.0	male	west_asian	1.9538400318344609	neutral	070	sub-01	2.0	4.0	070_neutral	0.0		64.77924163059834	
5.0	39.20014603647542	pulse	1.0	t		31.0	male	west_asian	1.9538400318344609	neutral	070	sub-01	2.0	4.0	070_neutral	0.0		65.47922874147662	
5.0	39.900128015851806	pulse	1.0	t		31.0	male	west_asian	1.9538400318344609	neutral	070	sub-01	2.0	4.0	070_neutral	0.0		66.179210720853	
6.0	40.01667043479938	face	0.0		146	27.0	male	black	3.5523278949462798	smiling	042	sub-01	2.0	4.0	042_smiling	0.0		66.29575313980058	1.2333085109548847
6.0	40.60010818411138	pulse	0.0	t		27.0	male	black	3.5523278949462798	smiling	042	sub-01	2.0	4.0	042_smiling	0.0		66.87919088911258	
6.0	41.249978945754265	fix	1.0		443	27.0	male	black	3.5523278949462798	smiling	042	sub-01	2.0	4.0	042_smiling	0.0		67.52906165075547	3.758229946171923
6.0	41.3000986153711	pulse	1.0	t		27.0	male	black	3.5523278949462798	smiling	042	sub-01	2.0	4.0	042_smiling	0.0		67.5791813203723	
6.0	42.00006761507029	pulse	1.0	t		27.0	male	black	3.5523278949462798	smiling	042	sub-01	2.0	4.0	042_smiling	0.0		68.2791503200715	
6.0	42.70004929259267	pulse	1.0	t		27.0	male	black	3.5523278949462798	smiling	042	sub-01	2.0	4.0	042_smiling	0.0		68.97913199759387	
6.0	43.400059344297915	pulse	1.0	t		27.0	male	black	3.5523278949462798	smiling	042	sub-01	2.0	4.0	042_smiling	0.0		69.67914204929912	
6.0	44.1000026864931	pulse	1.0	t		27.0	male	black	3.5523278949462798	smiling	042	sub-01	2.0	4.0	042_smiling	0.0		70.3790853914943	
6.0	44.79998466586949	pulse	1.0	t		27.0	male	black	3.5523278949462798	smiling	042	sub-01	2.0	4.0	042_smiling	0.0		71.07906737087069	
7.0	45.00820889192619	face	0.0		146	31.0	female	white	2.1822522881018704	neutral	102	sub-01	2.0	4.0	102_neutral	0.0		71.28729159692739	1.2416242588369641
7.0	45.499975398983224	pulse	0.0	t		31.0	female	white	2.1822522881018704	neutral	102	sub-01	2.0	4.0	102_neutral	0.0		71.77905810398443	
7.0	46.199961302447264	pulse	0.0	t		31.0	female	white	2.1822522881018704	neutral	102	sub-01	2.0	4.0	102_neutral	0.0		72.47904400744846	
7.0	46.24983315076315	fix	1.0		445	31.0	female	white	2.1822522881018704	neutral	102	sub-01	2.0	4.0	102_neutral	0.0		72.52891585576435	3.766559277437409
7.0	46.89994026329441	pulse	1.0	t		31.0	female	white	2.1822522881018704	neutral	102	sub-01	2.0	4.0	102_neutral	0.0		73.17902296829561	
7.0	47.599911677816635	pulse	1.0	t		31.0	female	white	2.1822522881018704	neutral	102	sub-01	2.0	4.0	102_neutral	0.0		73.87899438281784	
7.0	48.299908447990674	pulse	1.0	t		31.0	female	white	2.1822522881018704	neutral	102	sub-01	2.0	4.0	102_neutral	0.0		74.57899115299188	
7.0	48.999880164365095	pulse	1.0	t		31.0	female	white	2.1822522881018704	neutral	102	sub-01	2.0	4.0	102_neutral	0.0		75.2789628693663	
7.0	49.699858219653834	pulse	1.0	t		31.0	female	white	2.1822522881018704	neutral	102	sub-01	2.0	4.0	102_neutral	0.0		75.97894092465503	
8.0	50.01639242820056	face	0.0		145	24.0	female	east_asian	2.9076800636689217	neutral	034	sub-01	2.0	4.0	034_neutral	1.0	trustworthiness	76.29547513320176	1.2333196795152617
8.0	50.39985921576772	pulse	0.0	t		24.0	female	east_asian	2.9076800636689217	neutral	034	sub-01	2.0	4.0	034_neutral	1.0	trustworthiness	76.67894192076892	
8.0	51.099821876554415	pulse	0.0	t		24.0	female	east_asian	2.9076800636689217	neutral	034	sub-01	2.0	4.0	034_neutral	1.0	trustworthiness	77.37890458155562	
8.0	51.24971210771582	fix	1.0		177	24.0	female	east_asian	2.9076800636689217	neutral	034	sub-01	2.0	4.0	034_neutral	1.0	trustworthiness	77.52879481271702	1.4999618155979988
8.0	51.79981049669732	pulse	1.0	t		24.0	female	east_asian	2.9076800636689217	neutral	034	sub-01	2.0	4.0	034_neutral	1.0	trustworthiness	78.07889320169852	
8.0	52.499788853838254	pulse	1.0	t		24.0	female	east_asian	2.9076800636689217	neutral	034	sub-01	2.0	4.0	034_neutral	1.0	trustworthiness	78.77887155883946	
8.0	52.74967392331382	rating	2.0		295	24.0	female	east_asian	2.9076800636689217	neutral	034	sub-01	2.0	4.0	034_neutral	1.0	trustworthiness	79.02875662831502	2.4999207635919447
8.0	53.19977354989169	pulse	2.0	t		24.0	female	east_asian	2.9076800636689217	neutral	034	sub-01	2.0	4.0	034_neutral	1.0	trustworthiness	79.47885625489289	
8.0	53.833090090136466	response	2.0	y		24.0	female	east_asian	2.9076800636689217	neutral	034	sub-01	2.0	4.0	034_neutral	1.0	trustworthiness	80.11217279513767	
8.0	53.89974979406179	pulse	2.0	t		24.0	female	east_asian	2.9076800636689217	neutral	034	sub-01	2.0	4.0	034_neutral	1.0	trustworthiness	80.17883249906299	
8.0	54.599724227113256	pulse	2.0	t		24.0	female	east_asian	2.9076800636689217	neutral	034	sub-01	2.0	4.0	034_neutral	1.0	trustworthiness	80.87880693211446	
8.0	55.249594686905766	fix	3.0		443	24.0	female	east_asian	2.9076800636689217	neutral	034	sub-01	2.0	4.0	034_neutral	1.0	trustworthiness	81.52867739190697	3.7665589755833935
8.0	55.29971103613752	pulse	3.0	t		24.0	female	east_asian	2.9076800636689217	neutral	034	sub-01	2.0	4.0	034_neutral	1.0	trustworthiness	81.57879374113872	
8.0	55.9996972414574	pulse	3.0	t		24.0	female	east_asian	2.9076800636689217	neutral	034	sub-01	2.0	4.0	034_neutral	1.0	trustworthiness	82.2787799464586	
8.0	56.699692502365	pulse	3.0	t		24.0	female	east_asian	2.9076800636689217	neutral	034	sub-01	2.0	4.0	034_neutral	1.0	trustworthiness	82.9787752073662	
8.0	57.399658785387146	pulse	3.0	t		24.0	female	east_asian	2.9076800636689217	neutral	034	sub-01	2.0	4.0	034_neutral	1.0	trustworthiness	83.67874149038835	
8.0	58.099639255498914	pulse	3.0	t		24.0	female	east_asian	2.9076800636689217	neutral	034	sub-01	2.0	4.0	034_neutral	1.0	trustworthiness	84.37872196050012	
8.0	58.79962244228773	pulse	3.0	t		24.0	female	east_asian	2.9076800636689217	neutral	034	sub-01	2.0	4.0	034_neutral	1.0	trustworthiness	85.07870514728893	
9.0	59.01615366248916	face	0.0		145	37.0	male	white	3.898925586947871	smiling	101	sub-01	2.0	4.0	101_smiling	1.0	dominance	85.29523636749036	1.233321490633898
9.0	59.4996101568704	pulse	0.0	t		37.0	male	white	3.898925586947871	smiling	101	sub-01	2.0	4.0	101_smiling	1.0	dominance	85.7786928618716	
9.0	60.199592739953005	pulse	0.0	t		37.0	male	white	3.898925586947871	smiling	101	sub-01	2.0	4.0	101_smiling	1.0	dominance	86.4786754449542	
9.0	60.24947515312306	fix	1.0		177	37.0	male	white	3.898925586947871	smiling	101	sub-01	2.0	4.0	101_smiling	1.0	dominance	86.52855785812426	1.4999627211564075
9.0	60.89958890642083	pulse	1.0	t		37.0	male	white	3.898925586947871	smiling	101	sub-01	2.0	4.0	101_smiling	1.0	dominance	87.17867161142203	
9.0	61.59954371902859	pulse	1.0	t		37.0	male	white	3.898925586947871	smiling	101	sub-01	2.0	4.0	101_smiling	1.0	dominance	87.87862642402979	
9.0	61.749437874279465	rating	2.0		295	37.0	male	white	3.898925586947871	smiling	101	sub-01	2.0	4.0	101_smiling	1.0	dominance	88.02852057928067	2.499945515535728
9.0	62.29953264102369	pulse	2.0	t		37.0	male	white	3.898925586947871	smiling	101	sub-01	2.0	4.0	101_smiling	1.0	dominance	88.57861534602489	
9.0	62.99951612966652	pulse	2.0	t		37.0	male	white	3.898925586947871	smiling	101	sub-01	2.0	4.0	101_smiling	1.0	dominance	89.27859883466772	
9.0	63.01947464902878	response	2.0	y		37.0	male	white	3.898925586947871	smiling	101	sub-01	2.0	4.0	101_smiling	1.0	dominance	89.29855735402998	
9.0	63.69950746648465	pulse	2.0	t		37.0	male	white	3.898925586947871	smiling	101	sub-01	2.0	4.0	101_smiling	1.0	dominance	89.97859017148585	
9.0	64.2493833898152	fix	3.0		443	37.0	male	white	3.898925586947871	smiling	101	sub-01	2.0	4.0	101_smiling	1.0	dominance	90.5284660948164	3.766534827345822
9.0	64.3994797865671	pulse	3.0	t		37.0	male	white	3.898925586947871	smiling	101	sub-01	2.0	4.0	101_smiling	1.0	dominance	90.6785624915683	
9.0	65.0994496918247	pulse	3.0	t		37.0	male	white	3.898925586947871	smiling	101	sub-01	2.0	4.0	101_smiling	1.0	dominance	91.3785323968259	
9.0	65.79943951937821	pulse	3.0	t		37.0	male	white	3.898925586947871	smiling	101	sub-01	2.0	4.0	101_smiling	1.0	dominance	92.07852222437941	
9.0	66.4994266302565	pulse	3.0	t		37.0	male	white	3.898925586947871	smiling	101	sub-01	2.0	4.0	101_smiling	1.0	dominance	92.7785093352577	
9.0	67.19939895033713	pulse	3.0	t		37.0	male	white	3.898925586947871	smiling	101	sub-01	2.0	4.0	101_smiling	1.0	dominance	93.47848165533833	
9.0	67.89938455194897	pulse	3.0	t		37.0	male	white	3.898925586947871	smiling	101	sub-01	2.0	4.0	101_smiling	1.0	dominance	94.17846725695017	
10.0	68.01591821716102	face	0.0		146	24.0	female	black	3.0955033824114606	neutral	099	sub-01	2.0	4.0	099_neutral	0.0		94.29500092216222	1.233319377663065
10.0	68.59937196467945	pulse	0.0	t		24.0	female	black	3.0955033824114606	neutral	099	sub-01	2.0	4.0	099_neutral	0.0		94.87845466968065	
10.0	69.24923759482408	fix	1.0		443	24.0	female	black	3.0955033824114606	neutral	099	sub-01	2.0	4.0	099_neutral	0.0		95.52832029982528	3.7583165779778938
10.0	69.29933885140781	pulse	1.0	t		24.0	female	black	3.0955033824114606	neutral	099	sub-01	2.0	4.0	099_neutral	0.0		95.57842155640901	
10.0	69.99933079193397	pulse	1.0	t		24.0	female	black	3.0955033824114606	neutral	099	sub-01	2.0	4.0	099_neutral	0.0		96.27841349693517	
10.0	70.69930552683763	pulse	1.0	t		24.0	female	black	3.0955033824114606	neutral	099	sub-01	2.0	4.0	099_neutral	0.0		96.97838823183884	
10.0	71.39929867477622	pulse	1.0	t		24.0	female	black	3.0955033824114606	neutral	099	sub-01	2.0	4.0	099_neutral	0.0		97.67838137977742	
10.0	72.09927008929844	pulse	1.0	t		24.0	female	black	3.0955033824114606	neutral	099	sub-01	2.0	4.0	099_neutral	0.0		98.37835279429964	
10.0	72.79925689832271	pulse	1.0	t		24.0	female	black	3.0955033824114606	neutral	099	sub-01	2.0	4.0	099_neutral	0.0		99.07833960332391	
11.0	73.00755417280197	face	0.0		147	22.0	male	black	2.767608436132113	neutral	044	sub-01	2.0	4.0	044_neutral	0.0		99.28663687780318	1.2498817490923102
11.0	73.49923495360963	pulse	0.0	t		22.0	male	black	2.767608436132113	neutral	044	sub-01	2.0	4.0	044_neutral	0.0		99.77831765861083	
11.0	74.19921210333996	pulse	0.0	t		22.0	male	black	2.767608436132113	neutral	044	sub-01	2.0	4.0	044_neutral	0.0		100.47829480834116	
11.0	74.25743592189428	fix	1.0		444	22.0	male	black	2.767608436132113	neutral	044	sub-01	2.0	4.0	044_neutral	0.0		100.53651862689549	3.766571049702179
11.0	74.89922577728066	pulse	1.0	t		22.0	male	black	2.767608436132113	neutral	044	sub-01	2.0	4.0	044_neutral	0.0		101.17830848228186	
11.0	75.59917636394675	pulse	1.0	t		22.0	male	black	2.767608436132113	neutral	044	sub-01	2.0	4.0	044_neutral	0.0		101.87825906894795	
11.0	76.29915985258776	pulse	1.0	t		22.0	male	black	2.767608436132113	neutral	044	sub-01	2.0	4.0	044_neutral	0.0		102.57824255758896	
11.0	76.99915209496612	pulse	1.0	t		22.0	male	black	2.767608436132113	neutral	044	sub-01	2.0	4.0	044_neutral	0.0		103.27823479996732	
11.0	77.6991328669319	pulse	1.0	t		22.0	male	black	2.767608436132113	neutral	044	sub-01	2.0	4.0	044_neutral	0.0		103.9782155719331	
12.0	78.02400697159646	face	0.0		145	21.0	male	black	2.969757262236371	smiling	137	sub-01	2.0	4.0	137_smiling	0.0		104.30308967659766	1.233298549808751
12.0	78.39912420375003	pulse	0.0	t		21.0	male	black	2.969757262236371	smiling	137	sub-01	2.0	4.0	137_smiling	0.0		104.67820690875124	
12.0	79.09907901635779	pulse	0.0	t		21.0	male	black	2.969757262236371	smiling	137	sub-01	2.0	4.0	137_smiling	0.0		105.37816172135899	
12.0	79.25730552140521	fix	1.0		445	21.0	male	black	2.969757262236371	smiling	137	sub-01	2.0	4.0	137_smiling	0.0		105.53638822640642	3.766557164464757
12.0	79.79908544582759	pulse	1.0	t		21.0	male	black	2.969757262236371	smiling	137	sub-01	2.0	4.0	137_smiling	0.0		106.07816815082879	
12.0	80.49905686034981	pulse	1.0	t		21.0	male	black	2.969757262236371	smiling	137	sub-01	2.0	4.0	137_smiling	0.0		106.77813956535101	
12.0	81.19903008598885	pulse	1.0	t		21.0	male	black	2.969757262236371	smiling	137	sub-01	2.0	4.0	137_smiling	0.0		107.47811279099005	
12.0	81.89902353577963	pulse	1.0	t		21.0	male	black	2.969757262236371	smiling	137	sub-01	2.0	4.0	137_smiling	0.0		108.17810624078083	
12.0	82.5989913280664	pulse	1.0	t		21.0	male	black	2.969757262236371	smiling	137	sub-01	2.0	4.0	137_smiling	0.0		108.8780740330676	
13.0	83.02386268586997	face	0.0		145	24.0	female	east_asian	4.409868682849185	smiling	030	sub-01	2.0	4.0	030_smiling	0.0		109.30294539087117	1.2333133406045818
13.0	83.29898145747393	pulse	0.0	t		24.0	female	east_asian	4.409868682849185	smiling	030	sub-01	2.0	4.0	030_smiling	0.0		109.57806416247513	
13.0	83.99895528681918	pulse	0.0	t		24.0	female	east_asian	4.409868682849185	smiling	030	sub-01	2.0	4.0	030_smiling	0.0		110.27803799182038	
13.0	84.25717602647455	fix	1.0		444	24.0	female	east_asian	4.409868682849185	smiling	030	sub-01	2.0	4.0	030_smiling	0.0		110.53625873147575	3.766548108875213
13.0	84.69893364396012	pulse	1.0	t		24.0	female	east_asian	4.409868682849185	smiling	030	sub-01	2.0	4.0	030_smiling	0.0		110.97801634896132	
13.0	85.3989144159259	pulse	1.0	t		24.0	female	east_asian	4.409868682849185	smiling	030	sub-01	2.0	4.0	030_smiling	0.0		111.6779971209271	
13.0	86.09890213050858	pulse	1.0	t		24.0	female	east_asian	4.409868682849185	smiling	030	sub-01	2.0	4.0	030_smiling	0.0		112.37798483550978	
13.0	86.79888682656383	pulse	1.0	t		24.0	female	east_asian	4.409868682849185	smiling	030	sub-01	2.0	4.0	030_smiling	0.0		113.07796953156503	
13.0	87.49887061705704	pulse	1.0	t		24.0	female	east_asian	4.409868682849185	smiling	030	sub-01	2.0	4.0	030_smiling	0.0		113.77795332205824	
14.0	88.02372413534977	face	0.0		145	20.0	male	black	3.1070433744528456	neutral	082	sub-01	2.0	4.0	082_neutral	0.0		114.30280684035097	1.2333172646940511
14.0	88.19886014275835	pulse	0.0	t		20.0	male	black	3.1070433744528456	neutral	082	sub-01	2.0	4.0	082_neutral	0.0		114.47794284775955	
14.0	88.89882974616376	pulse	0.0	t		20.0	male	black	3.1070433744528456	neutral	082	sub-01	2.0	4.0	082_neutral	0.0		115.17791245116496	
14.0	89.25704140004382	fix	1.0		444	20.0	male	black	3.1070433744528456	neutral	082	sub-01	2.0	4.0	082_neutral	0.0		115.53612410504502	3.766569842289755
14.0	89.59881232924636	pulse	1.0	t		20.0	male	black	3.1070433744528456	neutral	082	sub-01	2.0	4.0	082_neutral	0.0		115.87789503424756	
14.0	90.29879400677055	pulse	1.0	t		20.0	male	black	3.1070433744528456	neutral	082	sub-01	2.0	4.0	082_neutral	0.0		116.57787671177175	
14.0	90.99876964723444	pulse	1.0	t		20.0	male	black	3.1070433744528456	neutral	082	sub-01	2.0	4.0	082_neutral	0.0		117.27785235223564	
14.0	91.69876883223151	pulse	1.0	t		20.0	male	black	3.1070433744528456	neutral	082	sub-01	2.0	4.0	082_neutral	0.0		117.97785153723271	
14.0	92.39874266157676	pulse	1.0	t		20.0	male	black	3.1070433744528456	neutral	082	sub-01	2.0	4.0	082_neutral	0.0		118.67782536657796	
15.0	93.02361124233357	face	0.0		145	40.0	female	west_asian	1.5777954635893354	smiling	038	sub-01	2.0	4.0	038_smiling	0.0		119.30269394733477	1.2332973423963267
15.0	93.0987333946905	pulse	0.0	t		40.0	female	west_asian	1.5777954635893354	smiling	038	sub-01	2.0	4.0	038_smiling	0.0		119.3778160996917	
15.0	93.7987029980959	pulse	0.0	t		40.0	female	west_asian	1.5777954635893354	smiling	038	sub-01	2.0	4.0	038_smiling	0.0		120.0777857030971	
15.0	94.2569085847299	fix	1.0		444	40.0	female	west_asian	1.5777954635893354	smiling	038	sub-01	2.0	4.0	038_smiling	0.0		120.5359912897311	3.7665490144354408
15.0	94.49868618488472	pulse	1.0	t		40.0	female	west_asian	1.5777954635893354	smiling	038	sub-01	2.0	4.0	038_smiling	0.0		120.77776888988592	
15.0	95.19867329576118	pulse	1.0	t		40.0	female	west_asian	1.5777954635893354	smiling	038	sub-01	2.0	4.0	038_smiling	0.0		121.47775600076238	
15.0	95.89864350287098	pulse	1.0	t		40.0	female	west_asian	1.5777954635893354	smiling	038	sub-01	2.0	4.0	038_smiling	0.0		122.17772620787218	
15.0	96.59861853963048	pulse	1.0	t		40.0	female	west_asian	1.5777954635893354	smiling	038	sub-01	2.0	4.0	038_smiling	0.0		122.87770124463168	
15.0	97.29861440424429	pulse	1.0	t		40.0	female	west_asian	1.5777954635893354	smiling	038	sub-01	2.0	4.0	038_smiling	0.0		123.57769710924549	
15.0	97.9985915539728	pulse	1.0	t		40.0	female	west_asian	1.5777954635893354	smiling	038	sub-01	2.0	4.0	038_smiling	0.0		124.277674258974	
16.0	98.02345759916534	face	0.0		146	19.0	male	white	2.243931555909272	neutral	130	sub-01	2.0	4.0	130_neutral	0.0		124.30254030416654	1.2333248110171553
16.0	98.69857775929086	pulse	0.0	t		19.0	male	white	2.243931555909272	neutral	130	sub-01	2.0	4.0	130_neutral	0.0		124.97766046429206	
16.0	99.2567824101825	fix	1.0		443	19.0	male	white	2.243931555909272	neutral	130	sub-01	2.0	4.0	130_neutral	0.0		125.5358651151837	3.7665625978188473
16.0	99.3985690961108	pulse	1.0	t		19.0	male	white	2.243931555909272	neutral	130	sub-01	2.0	4.0	130_neutral	0.0		125.677651801112	
16.0	100.09853417172053	pulse	1.0	t		19.0	male	white	2.243931555909272	neutral	130	sub-01	2.0	4.0	130_neutral	0.0		126.37761687672173	
16.0	100.79851916962798	pulse	1.0	t		19.0	male	white	2.243931555909272	neutral	130	sub-01	2.0	4.0	130_neutral	0.0		127.07760187462918	
16.0	101.49849752676892	pulse	1.0	t		19.0	male	white	2.243931555909272	neutral	130	sub-01	2.0	4.0	130_neutral	0.0		127.77758023177012	
16.0	102.19848644876402	pulse	1.0	t		19.0	male	white	2.243931555909272	neutral	130	sub-01	2.0	4.0	130_neutral	0.0		128.47756915376522	
16.0	102.8984611836695	pulse	1.0	t		19.0	male	white	2.243931555909272	neutral	130	sub-01	2.0	4.0	130_neutral	0.0		129.1775438886707	
17.0	103.02334500800134	face	0.0		146	26.0	female	white	4.854755272582572	neutral	027	sub-01	2.0	4.0	027_neutral	0.0		129.30242771300254	1.2333181702524598
17.0	103.59843984266263	pulse	0.0	t		26.0	female	white	4.854755272582572	neutral	027	sub-01	2.0	4.0	027_neutral	0.0		129.87752254766383	
17.0	104.2566631782538	fix	1.0		443	26.0	female	white	4.854755272582572	neutral	027	sub-01	2.0	4.0	027_neutral	0.0		130.535745883255	3.7665562589063484
17.0	104.29842725539311	pulse	1.0	t		26.0	female	white	4.854755272582572	neutral	027	sub-01	2.0	4.0	027_neutral	0.0		130.5775099603943	
17.0	104.99840440512162	pulse	1.0	t		26.0	female	white	4.854755272582572	neutral	027	sub-01	2.0	4.0	027_neutral	0.0		131.27748711012282	
17.0	105.69839181785392	pulse	1.0	t		26.0	female	white	4.854755272582572	neutral	027	sub-01	2.0	4.0	027_neutral	0.0		131.97747452285512	
17.0	106.39837892873038	pulse	1.0	t		26.0	female	white	4.854755272582572	neutral	027	sub-01	2.0	4.0	027_neutral	0.0		132.67746163373158	
17.0	107.09834732472336	pulse	1.0	t		26.0	female	white	4.854755272582572	neutral	027	sub-01	2.0	4.0	027_neutral	0.0		133.37743002972456	
17.0	107.79833051151218	pulse	1.0	t		26.0	female	white	4.854755272582572	neutral	027	sub-01	2.0	4.0	027_neutral	0.0		134.07741321651338	
18.0	108.02321943716015	face	0.0		145	24.0	female	east_asian	4.409868682849185	neutral	030	sub-01	2.0	4.0	030_neutral	1.0	dominance	134.30230214216135	1.2333100202213245
18.0	108.49831067976993	pulse	0.0	t		24.0	female	east_asian	4.409868682849185	neutral	030	sub-01	2.0	4.0	030_neutral	1.0	dominance	134.77739338477113	
18.0	109.19831741109192	pulse	0.0	t		24.0	female	east_asian	4.409868682849185	neutral	030	sub-01	2.0	4.0	030_neutral	1.0	dominance	135.47740011609312	
18.0	109.25652945738148	fix	1.0		177	24.0	female	east_asian	4.409868682849185	neutral	030	sub-01	2.0	4.0	030_neutral	1.0	dominance	135.53561216238268	1.4999506470358028
18.0	109.89828037373081	pulse	1.0	t		24.0	female	east_asian	4.409868682849185	neutral	030	sub-01	2.0	4.0	030_neutral	1.0	dominance	136.17736307873201	
18.0	110.59824665675296	pulse	1.0	t		24.0	female	east_asian	4.409868682849185	neutral	030	sub-01	2.0	4.0	030_neutral	1.0	dominance	136.87732936175416	
18.0	110.75648010441728	rating	2.0		295	24.0	female	east_asian	4.409868682849185	neutral	030	sub-01	2.0	4.0	030_neutral	1.0	dominance	137.03556280941848	2.499933139564746
18.0	111.29825821772101	pulse	2.0	t		24.0	female	east_asian	4.409868682849185	neutral	030	sub-01	2.0	4.0	030_neutral	1.0	dominance	137.57734092272221	
18.0	111.99869539139945	pulse	2.0	t		24.0	female	east_asian	4.409868682849185	neutral	030	sub-01	2.0	4.0	030_neutral	1.0	dominance	138.27777809640065	
18.0	112.29302076658132	response	2.0	e		24.0	female	east_asian	4.409868682849185	neutral	030	sub-01	2.0	4.0	030_neutral	1.0	dominance	138.57210347158252	
18.0	112.69822066721099	pulse	2.0	t		24.0	female	east_asian	4.409868682849185	neutral	030	sub-01	2.0	4.0	030_neutral	1.0	dominance	138.9773033722122	
18.0	113.25641324398202	fix	3.0		443	24.0	female	east_asian	4.409868682849185	neutral	030	sub-01	2.0	4.0	030_neutral	1.0	dominance	139.53549594898323	3.7665625978188473
18.0	113.3981911761748	pulse	3.0	t		24.0	female	east_asian	4.409868682849185	neutral	030	sub-01	2.0	4.0	030_neutral	1.0	dominance	139.677273881176	
18.0	114.09817738149286	pulse	3.0	t		24.0	female	east_asian	4.409868682849185	neutral	030	sub-01	2.0	4.0	030_neutral	1.0	dominance	140.37726008649406	
18.0	114.7981442682194	pulse	3.0	t		24.0	female	east_asian	4.409868682849185	neutral	030	sub-01	2.0	4.0	030_neutral	1.0	dominance	141.0772269732206	
18.0	115.49813711430397	pulse	3.0	t		24.0	female	east_asian	4.409868682849185	neutral	030	sub-01	2.0	4.0	030_neutral	1.0	dominance	141.77721981930517	
18.0	116.19811033994483	pulse	3.0	t		24.0	female	east_asian	4.409868682849185	neutral	030	sub-01	2.0	4.0	030_neutral	1.0	dominance	142.47719304494603	
18.0	116.89809171561501	pulse	3.0	t		24.0	female	east_asian	4.409868682849185	neutral	030	sub-01	2.0	4.0	030_neutral	1.0	dominance	143.1771744206162	
19.0	117.02297584180087	face	0.0		146	19.0	male	white	3.2522881018702745	smiling	018	sub-01	2.0	4.0	018_smiling	0.0		143.30205854680207	1.2333009646317805
19.0	117.59808275058094	pulse	0.0	t		19.0	male	white	3.2522881018702745	smiling	018	sub-01	2.0	4.0	018_smiling	0.0		143.87716545558214	
19.0	118.25627680643265	fix	1.0		443	19.0	male	white	3.2522881018702745	smiling	018	sub-01	2.0	4.0	018_smiling	0.0		144.53535951143385	3.766566823760513
19.0	118.2980550706634	pulse	1.0	t		19.0	male	white	3.2522881018702745	smiling	018	sub-01	2.0	4.0	018_smiling	0.0		144.5771377756646	
19.0	118.99803916301062	pulse	1.0	t		19.0	male	white	3.2522881018702745	smiling	018	sub-01	2.0	4.0	018_smiling	0.0		145.27712186801182	
19.0	119.69801631273913	pulse	1.0	t		19.0	male	white	3.2522881018702745	smiling	018	sub-01	2.0	4.0	018_smiling	0.0		145.97709901774033	
19.0	120.39800614029446	pulse	1.0	t		19.0	male	white	3.2522881018702745	smiling	018	sub-01	2.0	4.0	018_smiling	0.0		146.67708884529566	
19.0	121.09798178075835	pulse	1.0	t		19.0	male	white	3.2522881018702745	smiling	018	sub-01	2.0	4.0	018_smiling	0.0		147.37706448575955	
19.0	121.79797613610754	pulse	1.0	t		19.0	male	white	3.2522881018702745	smiling	018	sub-01	2.0	4.0	018_smiling	0.0		148.07705884110874	
20.0	122.02284363019317	face	0.0		145	22.0	female	white	4.614007162753682	neutral	009	sub-01	2.0	4.0	009_neutral	0.0		148.30192633519437	1.2333160572816269
20.0	122.49794724877756	pulse	0.0	t		22.0	female	white	4.614007162753682	neutral	009	sub-01	2.0	4.0	009_neutral	0.0		148.77702995377877	
20.0	123.19793586891865	pulse	0.0	t		22.0	female	white	4.614007162753682	neutral	009	sub-01	2.0	4.0	009_neutral	0.0		149.47701857391985	
20.0	123.25615968747479	fix	1.0		1185	22.0	female	white	4.614007162753682	neutral	009	sub-01	2.0	4.0	009_neutral	0.0		149.535242392476	10.016377939255108
20.0	123.89792207423852	pulse	1.0	t		22.0	female	white	4.614007162753682	neutral	009	sub-01	2.0	4.0	009_neutral	0.0		150.17700477923972	
20.0	124.59787718869848	pulse	1.0	t		22.0	female	white	4.614007162753682	neutral	009	sub-01	2.0	4.0	009_neutral	0.0		150.87695989369968	
20.0	125.29785645139964	pulse	1.0	t		22.0	female	white	4.614007162753682	neutral	009	sub-01	2.0	4.0	009_neutral	0.0		151.57693915640084	
20.0	125.9978432604239	pulse	1.0	t		22.0	female	white	4.614007162753682	neutral	009	sub-01	2.0	4.0	009_neutral	0.0		152.2769259654251	
20.0	126.69783610650848	pulse	1.0	t		22.0	female	white	4.614007162753682	neutral	009	sub-01	2.0	4.0	009_neutral	0.0		152.97691881150968	
20.0	127.39831010624948	pulse	1.0	t		22.0	female	white	4.614007162753682	neutral	009	sub-01	2.0	4.0	009_neutral	0.0		153.67739281125068	
20.0	128.0977958393196	pulse	1.0	t		22.0	female	white	4.614007162753682	neutral	009	sub-01	2.0	4.0	009_neutral	0.0		154.3768785443208	
20.0	128.79778083722704	pulse	1.0	t		22.0	female	white	4.614007162753682	neutral	009	sub-01	2.0	4.0	009_neutral	0.0		155.07686354222824	
20.0	129.49776342030964	pulse	1.0	t		22.0	female	white	4.614007162753682	neutral	009	sub-01	2.0	4.0	009_neutral	0.0		155.77684612531084	
20.0	130.19773634409648	pulse	1.0	t		22.0	female	white	4.614007162753682	neutral	009	sub-01	2.0	4.0	009_neutral	0.0		156.47681904909768	
20.0	130.89771560679583	pulse	1.0	t		22.0	female	white	4.614007162753682	neutral	009	sub-01	2.0	4.0	009_neutral	0.0		157.17679831179703	
20.0	131.59772565850108	pulse	1.0	t		22.0	female	white	4.614007162753682	neutral	009	sub-01	2.0	4.0	009_neutral	0.0		157.87680836350228	
20.0	132.29768318778588	pulse	1.0	t		22.0	female	white	4.614007162753682	neutral	009	sub-01	2.0	4.0	009_neutral	0.0		158.57676589278708	
20.0	132.99766909125174	pulse	1.0	t		22.0	female	white	4.614007162753682	neutral	009	sub-01	2.0	4.0	009_neutral	0.0		159.27675179625294	
21.0	133.2725376267299	face	0.0		145	28.0	male	east_asian	1.5563072025467568	smiling	005	sub-01	2.0	4.0	005_smiling	0.0		159.5516203317311	1.2333293388128368
21.0	133.69765348545116	pulse	0.0	t		28.0	male	east_asian	1.5563072025467568	smiling	005	sub-01	2.0	4.0	005_smiling	0.0		159.97673619045236	
21.0	134.39763335185853	pulse	0.0	t		28.0	male	east_asian	1.5563072025467568	smiling	005	sub-01	2.0	4.0	005_smiling	0.0		160.67671605685973	
21.0	134.50586696554274	fix	1.0		444	28.0	male	east_asian	1.5563072025467568	smiling	005	sub-01	2.0	4.0	005_smiling	0.0		160.78494967054394	3.7665402606980933
21.0	135.0976150293809	pulse	1.0	t		28.0	male	east_asian	1.5563072025467568	smiling	005	sub-01	2.0	4.0	005_smiling	0.0		161.3766977343821	
21.0	135.7975900661404	pulse	1.0	t		28.0	male	east_asian	1.5563072025467568	smiling	005	sub-01	2.0	4.0	005_smiling	0.0		162.0766727711416	
21.0	136.49757536590005	pulse	1.0	t		28.0	male	east_asian	1.5563072025467568	smiling	005	sub-01	2.0	4.0	005_smiling	0.0		162.77665807090125	
21.0	137.19756549530757	pulse	1.0	t		28.0	male	east_asian	1.5563072025467568	smiling	005	sub-01	2.0	4.0	005_smiling	0.0		163.47664820030877	
21.0	137.8975387209466	pulse	1.0	t		28.0	male	east_asian	1.5563072025467568	smiling	005	sub-01	2.0	4.0	005_smiling	0.0		164.17662142594781	
22.0	138.27240722624083	face	0.0		145	26.0	male	white	2.7966573816155993	smiling	117	sub-01	2.0	4.0	117_smiling	0.0		164.55148993124203	1.2333088128089003
22.0	138.59751919105838	pulse	0.0	t		26.0	male	white	2.7966573816155993	smiling	117	sub-01	2.0	4.0	117_smiling	0.0		164.87660189605958	
22.0	139.29749181299303	pulse	0.0	t		26.0	male	white	2.7966573816155993	smiling	117	sub-01	2.0	4.0	117_smiling	0.0		165.57657451799423	
22.0	139.50571603904973	fix	1.0		444	26.0	male	white	2.7966573816155993	smiling	117	sub-01	2.0	4.0	117_smiling	0.0		165.78479874405093	3.766556560760364
22.0	139.9974849609298	pulse	1.0	t		26.0	male	white	2.7966573816155993	smiling	117	sub-01	2.0	4.0	117_smiling	0.0		166.276567665931	
22.0	140.6974618088061	pulse	1.0	t		26.0	male	white	2.7966573816155993	smiling	117	sub-01	2.0	4.0	117_smiling	0.0		166.9765445138073	
22.0	141.39745918268636	pulse	1.0	t		26.0	male	white	2.7966573816155993	smiling	117	sub-01	2.0	4.0	117_smiling	0.0		167.67654188768756	
22.0	142.09743089906078	pulse	1.0	t		26.0	male	white	2.7966573816155993	smiling	117	sub-01	2.0	4.0	117_smiling	0.0		168.37651360406198	
22.0	142.79740050246437	pulse	1.0	t		26.0	male	white	2.7966573816155993	smiling	117	sub-01	2.0	4.0	117_smiling	0.0		169.07648320746557	
23.0	143.2722725998101	face	0.0		145	19.0	female	white	4.298846000795861	neutral	100	sub-01	2.0	4.0	100_neutral	0.0		169.5513553048113	1.2333172646922321
23.0	143.4974081393466	pulse	0.0	t		19.0	female	white	4.298846000795861	neutral	100	sub-01	2.0	4.0	100_neutral	0.0		169.7764908443478	
23.0	144.19737321495631	pulse	0.0	t		19.0	female	white	4.298846000795861	neutral	100	sub-01	2.0	4.0	100_neutral	0.0		170.47645591995752	
23.0	144.50558986450233	fix	1.0		444	19.0	female	white	4.298846000795861	neutral	100	sub-01	2.0	4.0	100_neutral	0.0		170.78467256950353	3.766561390406423
23.0	144.89736334436202	pulse	1.0	t		19.0	female	white	4.298846000795861	neutral	100	sub-01	2.0	4.0	100_neutral	0.0		171.17644604936322	
23.0	145.59732751441334	pulse	1.0	t		19.0	female	white	4.298846000795861	neutral	100	sub-01	2.0	4.0	100_neutral	0.0		171.87641021941454	
23.0	146.29732156791033	pulse	1.0	t		19.0	female	white	4.298846000795861	neutral	100	sub-01	2.0	4.0	100_neutral	0.0		172.57640427291153	
23.0	146.99731079175763	pulse	1.0	t		19.0	female	white	4.298846000795861	neutral	100	sub-01	2.0	4.0	100_neutral	0.0		173.27639349675883	
23.0	147.69731752307962	pulse	1.0	t		19.0	female	white	4.298846000795861	neutral	100	sub-01	2.0	4.0	100_neutral	0.0		173.97640022808082	
24.0	148.27215125490875	face	0.0		145	25.0	female	black	3.858336649423	smiling	126	sub-01	2.0	4.0	126_smiling	0.0		174.55123395990995	1.233316660987839
24.0	148.397273844952	pulse	0.0	t		25.0	female	black	3.858336649423	smiling	126	sub-01	2.0	4.0	126_smiling	0.0		174.6763565499532	
24.0	149.0972371094449	pulse	0.0	t		25.0	female	black	3.858336649423	smiling	126	sub-01	2.0	4.0	126_smiling	0.0		175.3763198144461	
24.0	149.5054679158966	fix	1.0		444	25.0	female	black	3.858336649423	smiling	126	sub-01	2.0	4.0	126_smiling	0.0		175.7845506208978	3.7665520329646824
24.0	149.79722874811705	pulse	1.0	t		25.0	female	black	3.858336649423	smiling	126	sub-01	2.0	4.0	126_smiling	0.0		176.07631145311825	
24.0	150.49721072749344	pulse	1.0	t		25.0	female	black	3.858336649423	smiling	126	sub-01	2.0	4.0	126_smiling	0.0		176.77629343249464	
24.0	151.1971893864884	pulse	1.0	t		25.0	female	black	3.858336649423	smiling	126	sub-01	2.0	4.0	126_smiling	0.0		177.4762720914896	
24.0	151.89718042145432	pulse	1.0	t		25.0	female	black	3.858336649423	smiling	126	sub-01	2.0	4.0	126_smiling	0.0		178.17626312645552	
24.0	152.59715847674124	pulse	1.0	t		25.0	female	black	3.858336649423	smiling	126	sub-01	2.0	4.0	126_smiling	0.0		178.87624118174244	
25.0	153.27201994886127	face	0.0		145	20.0	female	white	3.9502586549940313	smiling	091	sub-01	2.0	4.0	091_smiling	1.0	attractiveness	179.55110265386247	1.2333030776026135
25.0	153.29715373765066	pulse	0.0	t		20.0	female	white	3.9502586549940313	smiling	091	sub-01	2.0	4.0	091_smiling	1.0	attractiveness	179.57623644265186	
25.0	153.9971260577313	pulse	0.0	t		20.0	female	white	3.9502586549940313	smiling	091	sub-01	2.0	4.0	091_smiling	1.0	attractiveness	180.2762087627325	
25.0	154.50532302646388	fix	1.0		177	20.0	female	white	3.9502586549940313	smiling	091	sub-01	2.0	4.0	091_smiling	1.0	attractiveness	180.78440573146509	1.4999618155961798
25.0	154.69711286675556	pulse	1.0	t		20.0	female	white	3.9502586549940313	smiling	091	sub-01	2.0	4.0	091_smiling	1.0	attractiveness	180.97619557175676	
25.0	155.39708005533612	pulse	1.0	t		20.0	female	white	3.9502586549940313	smiling	091	sub-01	2.0	4.0	091_smiling	1.0	attractiveness	181.67616276033732	
25.0	156.00528484206006	rating	2.0		294	20.0	female	white	3.9502586549940313	smiling	091	sub-01	2.0	4.0	091_smiling	1.0	attractiveness	182.28436754706127	2.499936459948003
25.0	156.09707622180395	pulse	2.0	t		20.0	female	white	3.9502586549940313	smiling	091	sub-01	2.0	4.0	091_smiling	1.0	attractiveness	182.37615892680515	
25.0	156.7970560882095	pulse	2.0	t		20.0	female	white	3.9502586549940313	smiling	091	sub-01	2.0	4.0	091_smiling	1.0	attractiveness	183.0761387932107	
25.0	157.0803574905276	response	2.0	b		20.0	female	white	3.9502586549940313	smiling	091	sub-01	2.0	4.0	091_smiling	1.0	attractiveness	183.3594401955288	
25.0	157.4970066748756	pulse	2.0	t		20.0	female	white	3.9502586549940313	smiling	091	sub-01	2.0	4.0	091_smiling	1.0	attractiveness	183.7760893798768	
25.0	158.19701310434357	pulse	2.0	t		20.0	female	white	3.9502586549940313	smiling	091	sub-01	2.0	4.0	091_smiling	1.0	attractiveness	184.47609580934477	
25.0	158.50522130200807	fix	3.0		444	20.0	female	white	3.9502586549940313	smiling	091	sub-01	2.0	4.0	091_smiling	1.0	attractiveness	184.78430400700927	3.766563503377256
25.0	158.89699417816155	pulse	3.0	t		20.0	female	white	3.9502586549940313	smiling	091	sub-01	2.0	4.0	091_smiling	1.0	attractiveness	185.17607688316275	
25.0	159.59697404456892	pulse	3.0	t		20.0	female	white	3.9502586549940313	smiling	091	sub-01	2.0	4.0	091_smiling	1.0	attractiveness	185.87605674957013	
25.0	160.29694183685388	pulse	3.0	t		20.0	female	white	3.9502586549940313	smiling	091	sub-01	2.0	4.0	091_smiling	1.0	attractiveness	186.57602454185508	
25.0	160.99692260881966	pulse	3.0	t		20.0	female	white	3.9502586549940313	smiling	091	sub-01	2.0	4.0	091_smiling	1.0	attractiveness	187.27600531382086	
25.0	161.69692330308135	pulse	3.0	t		20.0	female	white	3.9502586549940313	smiling	091	sub-01	2.0	4.0	091_smiling	1.0	attractiveness	187.97600600808255	
26.0	162.27178480538532	face	0.0		145	26.0	male	white	2.7966573816155993	neutral	117	sub-01	2.0	4.0	117_neutral	0.0		188.55086751038652	1.2333160572816269
26.0	162.39690799913478	pulse	0.0	t		26.0	male	white	2.7966573816155993	neutral	117	sub-01	2.0	4.0	117_neutral	0.0		188.67599070413598	
26.0	163.09687730068617	pulse	0.0	t		26.0	male	white	2.7966573816155993	neutral	117	sub-01	2.0	4.0	117_neutral	0.0		189.37596000568738	
26.0	163.50510086266695	fix	1.0		444	26.0	male	white	2.7966573816155993	neutral	117	sub-01	2.0	4.0	117_neutral	0.0		189.78418356766815	3.766543279227335
26.0	163.796860789329	pulse	1.0	t		26.0	male	white	2.7966573816155993	neutral	117	sub-01	2.0	4.0	117_neutral	0.0		190.0759434943302	
26.0	164.49683401496804	pulse	1.0	t		26.0	male	white	2.7966573816155993	neutral	117	sub-01	2.0	4.0	117_neutral	0.0		190.77591671996925	
26.0	165.1968316907005	pulse	1.0	t		26.0	male	white	2.7966573816155993	neutral	117	sub-01	2.0	4.0	117_neutral	0.0		191.4759143957017	
26.0	165.89680461448734	pulse	1.0	t		26.0	male	white	2.7966573816155993	neutral	117	sub-01	2.0	4.0	117_neutral	0.0		192.17588731948854	
26.0	166.59680108280736	pulse	1.0	t		26.0	male	white	2.7966573816155993	neutral	117	sub-01	2.0	4.0	117_neutral	0.0		192.87588378780856	
27.0	167.27164414189428	face	0.0		145	32.0	male	white	2.389176283326701	neutral	092	sub-01	2.0	4.0	092_neutral	0.0		193.5507268468955	1.233325716577383
27.0	167.29677883624208	pulse	0.0	t		32.0	male	white	2.389176283326701	neutral	092	sub-01	2.0	4.0	092_neutral	0.0		193.57586154124328	
27.0	167.99676141932468	pulse	0.0	t		32.0	male	white	2.389176283326701	neutral	092	sub-01	2.0	4.0	092_neutral	0.0		194.27584412432589	
27.0	168.50496985847167	fix	1.0		443	32.0	male	white	2.389176283326701	neutral	092	sub-01	2.0	4.0	092_neutral	0.0		194.78405256347287	3.7665493162876373
27.0	168.69673343755312	pulse	1.0	t		32.0	male	white	2.389176283326701	neutral	092	sub-01	2.0	4.0	092_neutral	0.0		194.97581614255432	
27.0	169.39671300210648	pulse	1.0	t		32.0	male	white	2.389176283326701	neutral	092	sub-01	2.0	4.0	092_neutral	0.0		195.67579570710768	
27.0	170.09669286851204	pulse	1.0	t		32.0	male	white	2.389176283326701	neutral	092	sub-01	2.0	4.0	092_neutral	0.0		196.37577557351324	
27.0	170.7966657923007	pulse	1.0	t		32.0	male	white	2.389176283326701	neutral	092	sub-01	2.0	4.0	092_neutral	0.0		197.0757484973019	
27.0	171.49666256247292	pulse	1.0	t		32.0	male	white	2.389176283326701	neutral	092	sub-01	2.0	4.0	092_neutral	0.0		197.77574526747412	
27.0	172.1966442399971	pulse	1.0	t		32.0	male	white	2.389176283326701	neutral	092	sub-01	2.0	4.0	092_neutral	0.0		198.4757269449983	
28.0	172.2715191747593	face	0.0		146	54.0	female	white	2.286908077994429	smiling	136	sub-01	2.0	4.0	136_smiling	0.0		198.5506018797605	1.2332973423945077
28.0	172.89661716378396	pulse	0.0	t		54.0	female	white	2.286908077994429	smiling	136	sub-01	2.0	4.0	136_smiling	0.0		199.17569986878516	
28.0	173.5048165171538	fix	1.0		443	54.0	female	white	2.286908077994429	smiling	136	sub-01	2.0	4.0	136_smiling	0.0		199.78389922215501	3.766562899672863
28.0	173.59670750838268	pulse	1.0	t		54.0	female	white	2.286908077994429	smiling	136	sub-01	2.0	4.0	136_smiling	0.0		199.87579021338388	
28.0	174.29658655589083	pulse	1.0	t		54.0	female	white	2.286908077994429	smiling	136	sub-01	2.0	4.0	136_smiling	0.0		200.57566926089203	
28.0	174.99656823341502	pulse	1.0	t		54.0	female	white	2.286908077994429	smiling	136	sub-01	2.0	4.0	136_smiling	0.0		201.27565093841622	
28.0	175.69655836282254	pulse	1.0	t		54.0	female	white	2.286908077994429	smiling	136	sub-01	2.0	4.0	136_smiling	0.0		201.97564106782374	
28.0	176.39652675881553	pulse	1.0	t		54.0	female	white	2.286908077994429	smiling	136	sub-01	2.0	4.0	136_smiling	0.0		202.67560946381673	
28.0	177.09649847518995	pulse	1.0	t		54.0	female	white	2.286908077994429	smiling	136	sub-01	2.0	4.0	136_smiling	0.0		203.37558118019115	
29.0	177.27137941682668	face	0.0		146	22.0	female	west_asian	3.8205332272184642	neutral	066	sub-01	2.0	4.0	066_neutral	0.0		203.55046212182788	1.241657764519914
29.0	177.79649162312853	pulse	0.0	t		22.0	female	west_asian	3.8205332272184642	neutral	066	sub-01	2.0	4.0	066_neutral	0.0		204.07557432812973	
29.0	178.49648205438825	pulse	0.0	t		22.0	female	west_asian	3.8205332272184642	neutral	066	sub-01	2.0	4.0	066_neutral	0.0		204.77556475938945	
29.0	178.5130371813466	fix	1.0		443	22.0	female	west_asian	3.8205332272184642	neutral	066	sub-01	2.0	4.0	066_neutral	0.0		204.7921198863478	3.7582193813159392
29.0	179.19645165779184	pulse	1.0	t		22.0	female	west_asian	3.8205332272184642	neutral	066	sub-01	2.0	4.0	066_neutral	0.0		205.47553436279304	
29.0	179.89643635384527	pulse	1.0	t		22.0	female	west_asian	3.8205332272184642	neutral	066	sub-01	2.0	4.0	066_neutral	0.0		206.17551905884648	
29.0	180.59642225731113	pulse	1.0	t		22.0	female	west_asian	3.8205332272184642	neutral	066	sub-01	2.0	4.0	066_neutral	0.0		206.87550496231233	
29.0	181.29639819962904	pulse	1.0	t		22.0	female	west_asian	3.8205332272184642	neutral	066	sub-01	2.0	4.0	066_neutral	0.0		207.57548090463024	
29.0	181.99637534935755	pulse	1.0	t		22.0	female	west_asian	3.8205332272184642	neutral	066	sub-01	2.0	4.0	066_neutral	0.0		208.27545805435875	
30.0	182.27125656266253	face	0.0		145	36.0	female	white	2.7548746518105847	smiling	011	sub-01	2.0	4.0	011_smiling	0.0		208.55033926766373	1.233319377663065
30.0	182.69640924744817	pulse	0.0	t		36.0	female	white	2.7548746518105847	smiling	011	sub-01	2.0	4.0	011_smiling	0.0		208.97549195244937	
30.0	183.39633357290404	pulse	0.0	t		36.0	female	white	2.7548746518105847	smiling	011	sub-01	2.0	4.0	011_smiling	0.0		209.67541627790524	
30.0	183.5045759403256	fix	1.0		444	36.0	female	white	2.7548746518105847	smiling	011	sub-01	2.0	4.0	011_smiling	0.0		209.7836586453268	3.758218777609727
30.0	184.09632068378232	pulse	1.0	t		36.0	female	white	2.7548746518105847	smiling	011	sub-01	2.0	4.0	011_smiling	0.0		210.37540338878352	
30.0	184.79629783351083	pulse	1.0	t		36.0	female	white	2.7548746518105847	smiling	011	sub-01	2.0	4.0	011_smiling	0.0		211.07538053851204	
30.0	185.49628917033078	pulse	1.0	t		36.0	female	white	2.7548746518105847	smiling	011	sub-01	2.0	4.0	011_smiling	0.0		211.77537187533198	
30.0	186.19626179226543	pulse	1.0	t		36.0	female	white	2.7548746518105847	smiling	011	sub-01	2.0	4.0	011_smiling	0.0		212.47534449726663	
30.0	186.8962549402022	pulse	1.0	t		36.0	female	white	2.7548746518105847	smiling	011	sub-01	2.0	4.0	011_smiling	0.0		213.1753376452034	
31.0	187.26279471793532	face	0.0		146	19.0	female	white	4.298846000795861	smiling	100	sub-01	2.0	4.0	100_smiling	0.0		213.54187742293652	1.2416478033701424
31.0	187.59623510846177	pulse	0.0	t		19.0	female	white	4.298846000795861	smiling	100	sub-01	2.0	4.0	100_smiling	0.0		213.87531781346297	
31.0	188.29622131377982	pulse	0.0	t		19.0	female	white	4.298846000795861	smiling	100	sub-01	2.0	4.0	100_smiling	0.0		214.57530401878103	
31.0	188.50444252130546	fix	1.0		444	19.0	female	white	4.298846000795861	smiling	100	sub-01	2.0	4.0	100_smiling	0.0		214.78352522630666	3.7665345254918066
31.0	188.99619514312508	pulse	1.0	t		19.0	female	white	4.298846000795861	smiling	100	sub-01	2.0	4.0	100_smiling	0.0		215.27527784812628	
31.0	189.69617380212003	pulse	1.0	t		19.0	female	white	4.298846000795861	smiling	100	sub-01	2.0	4.0	100_smiling	0.0		215.97525650712123	
31.0	190.3961485370255	pulse	1.0	t		19.0	female	white	4.298846000795861	smiling	100	sub-01	2.0	4.0	100_smiling	0.0		216.6752312420267	
31.0	191.0961440997853	pulse	1.0	t		19.0	female	white	4.298846000795861	smiling	100	sub-01	2.0	4.0	100_smiling	0.0		217.3752268047865	
31.0	191.79613060695738	pulse	1.0	t		19.0	female	white	4.298846000795861	smiling	100	sub-01	2.0	4.0	100_smiling	0.0		218.07521331195858	
32.0	192.27097704679727	face	0.0		145	30.0	female	black	2.7345801830481498	neutral	062	sub-01	2.0	4.0	062_neutral	0.0		218.55005975179847	1.2333317536358663
32.0	192.49610292703983	pulse	0.0	t		30.0	female	black	2.7345801830481498	neutral	062	sub-01	2.0	4.0	062_neutral	0.0		218.77518563204103	
32.0	193.19608309529758	pulse	0.0	t		30.0	female	black	2.7345801830481498	neutral	062	sub-01	2.0	4.0	062_neutral	0.0		219.47516580029878	
32.0	193.50430880043314	fix	1.0		444	30.0	female	black	2.7345801830481498	neutral	062	sub-01	2.0	4.0	062_neutral	0.0		219.78339150543434	3.7665462977583957
32.0	193.89606748949882	pulse	1.0	t		30.0	female	black	2.7345801830481498	neutral	062	sub-01	2.0	4.0	062_neutral	0.0		220.17515019450002	
32.0	194.59605218555225	pulse	1.0	t		30.0	female	black	2.7345801830481498	neutral	062	sub-01	2.0	4.0	062_neutral	0.0		220.87513489055345	
32.0	195.29602692045773	pulse	1.0	t		30.0	female	black	2.7345801830481498	neutral	062	sub-01	2.0	4.0	062_neutral	0.0		221.57510962545894	
32.0	195.996000749803	pulse	1.0	t		30.0	female	black	2.7345801830481498	neutral	062	sub-01	2.0	4.0	062_neutral	0.0		222.2750834548042	
32.0	196.6959902755043	pulse	1.0	t		30.0	female	black	2.7345801830481498	neutral	062	sub-01	2.0	4.0	062_neutral	0.0		222.9750729805055	
33.0	197.27085509819153	face	0.0		145	22.0	male	black	2.767608436132113	smiling	044	sub-01	2.0	4.0	044_smiling	0.0		223.54993780319273	1.2333079072504916
33.0	197.39597648082417	pulse	0.0	t		22.0	male	black	2.767608436132113	smiling	044	sub-01	2.0	4.0	044_smiling	0.0		223.67505918582538	
33.0	198.0959614787298	pulse	0.0	t		22.0	male	black	2.767608436132113	smiling	044	sub-01	2.0	4.0	044_smiling	0.0		224.375044183731	
33.0	198.50416300544202	fix	1.0		444	22.0	male	black	2.767608436132113	smiling	044	sub-01	2.0	4.0	044_smiling	0.0		224.78324571044323	3.7665520329646824
33.0	198.79593832660612	pulse	1.0	t		22.0	male	black	2.767608436132113	smiling	044	sub-01	2.0	4.0	044_smiling	0.0		225.07502103160732	
33.0	199.4959061188929	pulse	1.0	t		22.0	male	black	2.767608436132113	smiling	044	sub-01	2.0	4.0	044_smiling	0.0		225.7749888238941	
33.0	200.19590530388996	pulse	1.0	t		22.0	male	black	2.767608436132113	smiling	044	sub-01	2.0	4.0	044_smiling	0.0		226.47498800889116	
33.0	200.8958727943227	pulse	1.0	t		22.0	male	black	2.767608436132113	smiling	044	sub-01	2.0	4.0	044_smiling	0.0		227.17495549932391	
33.0	201.59585869778857	pulse	1.0	t		22.0	male	black	2.767608436132113	smiling	044	sub-01	2.0	4.0	044_smiling	0.0		227.87494140278977	
34.0	202.2707150384067	face	0.0		145	20.0	male	black	2.609629924393156	smiling	043	sub-01	2.0	4.0	043_smiling	0.0		228.5497977434079	1.233330546225261
34.0	202.29584761978367	pulse	0.0	t		20.0	male	black	2.609629924393156	smiling	043	sub-01	2.0	4.0	043_smiling	0.0		228.57493032478487	
34.0	202.9958323158371	pulse	0.0	t		20.0	male	black	2.609629924393156	smiling	043	sub-01	2.0	4.0	043_smiling	0.0		229.2749150208383	
34.0	203.50404558463197	fix	1.0		443	20.0	male	black	2.609629924393156	smiling	043	sub-01	2.0	4.0	043_smiling	0.0		229.78312828963317	3.7665420718149107
34.0	203.69581006927365	pulse	1.0	t		20.0	male	black	2.609629924393156	smiling	043	sub-01	2.0	4.0	043_smiling	0.0		229.97489277427485	
34.0	204.39578782270837	pulse	1.0	t		20.0	male	black	2.609629924393156	smiling	043	sub-01	2.0	4.0	043_smiling	0.0		230.67487052770957	
34.0	205.09576074649522	pulse	1.0	t		20.0	male	black	2.609629924393156	smiling	043	sub-01	2.0	4.0	043_smiling	0.0		231.37484345149642	
34.0	205.79574574440267	pulse	1.0	t		20.0	male	black	2.609629924393156	smiling	043	sub-01	2.0	4.0	043_smiling	0.0		232.07482844940387	
34.0	206.495737684927	pulse	1.0	t		20.0	male	black	2.609629924393156	smiling	043	sub-01	2.0	4.0	043_smiling	0.0		232.7748203899282	
34.0	207.19572871989294	pulse	1.0	t		20.0	male	black	2.609629924393156	smiling	043	sub-01	2.0	4.0	043_smiling	0.0		233.47481142489414	
35.0	207.27058765644688	face	0.0		146	31.0	female	west_asian	2.364902506963788	smiling	006	sub-01	2.0	4.0	006_smiling	0.0		233.54967036144808	1.2333272258420038
35.0	207.89570586962327	pulse	0.0	t		31.0	female	west_asian	2.364902506963788	smiling	006	sub-01	2.0	4.0	006_smiling	0.0		234.17478857462447	
35.0	208.50391488228888	fix	1.0		443	31.0	female	west_asian	2.364902506963788	smiling	006	sub-01	2.0	4.0	006_smiling	0.0		234.78299758729008	3.766539053285669
35.0	208.59568724529345	pulse	1.0	t		31.0	female	west_asian	2.364902506963788	smiling	006	sub-01	2.0	4.0	006_smiling	0.0		234.87476995029465	
35.0	209.29565050978454	pulse	1.0	t		31.0	female	west_asian	2.364902506963788	smiling	006	sub-01	2.0	4.0	006_smiling	0.0		235.57473321478574	
35.0	209.9956493929294	pulse	1.0	t		31.0	female	west_asian	2.364902506963788	smiling	006	sub-01	2.0	4.0	006_smiling	0.0		236.2747320979306	
35.0	210.6956180907746	pulse	1.0	t		31.0	female	west_asian	2.364902506963788	smiling	006	sub-01	2.0	4.0	006_smiling	0.0		236.9747007957758	
35.0	211.3955825626781	pulse	1.0	t		31.0	female	west_asian	2.364902506963788	smiling	006	sub-01	2.0	4.0	006_smiling	0.0		237.6746652676793	
35.0	212.09558718102926	pulse	1.0	t		31.0	female	west_asian	2.364902506963788	smiling	006	sub-01	2.0	4.0	006_smiling	0.0		238.37466988603046	
36.0	212.27045393557455	face	0.0		146	20.0	male	black	2.609629924393156	neutral	043	sub-01	2.0	4.0	043_neutral	0.0		238.54953664057575	1.2416638015783974
36.0	212.79556916040565	pulse	0.0	t		20.0	male	black	2.609629924393156	neutral	043	sub-01	2.0	4.0	043_neutral	0.0		239.07465186540685	
36.0	213.49555928981317	pulse	0.0	t		20.0	male	black	2.609629924393156	neutral	043	sub-01	2.0	4.0	043_neutral	0.0		239.77464199481437	
36.0	213.51211773715295	fix	1.0		443	20.0	male	black	2.609629924393156	neutral	043	sub-01	2.0	4.0	043_neutral	0.0		239.79120044215415	3.7581997608722304
36.0	214.1955687378122	pulse	1.0	t		20.0	male	black	2.609629924393156	neutral	043	sub-01	2.0	4.0	043_neutral	0.0		240.4746514428134	
36.0	214.89554739680534	pulse	1.0	t		20.0	male	black	2.609629924393156	neutral	043	sub-01	2.0	4.0	043_neutral	0.0		241.17463010180654	
36.0	215.59548772047128	pulse	1.0	t		20.0	male	black	2.609629924393156	neutral	043	sub-01	2.0	4.0	043_neutral	0.0		241.87457042547248	
36.0	216.29547000169987	pulse	1.0	t		20.0	male	black	2.609629924393156	neutral	043	sub-01	2.0	4.0	043_neutral	0.0		242.57455270670107	
36.0	216.9954546977533	pulse	1.0	t		20.0	male	black	2.609629924393156	neutral	043	sub-01	2.0	4.0	043_neutral	0.0		243.2745374027545	
37.0	217.27031749802518	face	0.0		145	22.0	female	white	4.614007162753682	smiling	009	sub-01	2.0	4.0	009_smiling	0.0		243.54940020302638	1.2333329610482906
37.0	217.6954879921377	pulse	0.0	t		22.0	female	white	4.614007162753682	smiling	009	sub-01	2.0	4.0	009_smiling	0.0		243.97457069713892	
37.0	218.39542076947873	pulse	0.0	t		22.0	female	white	4.614007162753682	smiling	009	sub-01	2.0	4.0	009_smiling	0.0		244.67450347447993	
37.0	218.50365045907347	fix	1.0		444	22.0	female	white	4.614007162753682	smiling	009	sub-01	2.0	4.0	009_smiling	0.0		244.78273316407467	3.7665429773751384
37.0	219.0954018432967	pulse	1.0	t		22.0	female	white	4.614007162753682	smiling	009	sub-01	2.0	4.0	009_smiling	0.0		245.37448454829791	
37.0	219.79537597449598	pulse	1.0	t		22.0	female	white	4.614007162753682	smiling	009	sub-01	2.0	4.0	009_smiling	0.0		246.07445867949718	
37.0	220.49536217981404	pulse	1.0	t		22.0	female	white	4.614007162753682	smiling	009	sub-01	2.0	4.0	009_smiling	0.0		246.77444488481524	
37.0	221.195342951778	pulse	1.0	t		22.0	female	white	4.614007162753682	smiling	009	sub-01	2.0	4.0	009_smiling	0.0		247.4744256567792	
37.0	221.89532885524386	pulse	1.0	t		22.0	female	white	4.614007162753682	smiling	009	sub-01	2.0	4.0	009_smiling	0.0		248.17441156024506	
38.0	222.2701934364486	face	0.0		145	28.0	male	white	3.9076800636689217	neutral	033	sub-01	2.0	4.0	033_neutral	0.0		248.5492761414498	1.2333151517232182
38.0	222.59531838094517	pulse	0.0	t		28.0	male	white	3.9076800636689217	neutral	033	sub-01	2.0	4.0	033_neutral	0.0		248.87440108594637	
38.0	223.29528617323194	pulse	0.0	t		28.0	male	white	3.9076800636689217	neutral	033	sub-01	2.0	4.0	033_neutral	0.0		249.57436887823314	
38.0	223.50350858817183	fix	1.0		444	28.0	male	white	3.9076800636689217	neutral	033	sub-01	2.0	4.0	033_neutral	0.0		249.78259129317303	3.7582148535202577
38.0	223.99527418966863	pulse	1.0	t		28.0	male	white	3.9076800636689217	neutral	033	sub-01	2.0	4.0	033_neutral	0.0		250.27435689466984	
38.0	224.69524952828033	pulse	1.0	t		28.0	male	white	3.9076800636689217	neutral	033	sub-01	2.0	4.0	033_neutral	0.0		250.97433223328153	
38.0	225.3952354317462	pulse	1.0	t		28.0	male	white	3.9076800636689217	neutral	033	sub-01	2.0	4.0	033_neutral	0.0		251.6743181367474	
38.0	226.09521771297477	pulse	1.0	t		28.0	male	white	3.9076800636689217	neutral	033	sub-01	2.0	4.0	033_neutral	0.0		252.37430041797597	
38.0	226.79520572941146	pulse	1.0	t		28.0	male	white	3.9076800636689217	neutral	033	sub-01	2.0	4.0	033_neutral	0.0		253.07428843441267	
39.0	227.26172344169208	face	0.0		146	47.0	male	east_asian	2.171110226820533	neutral	024	sub-01	2.0	4.0	024_neutral	0.0		253.54080614669328	1.2416653108430182
39.0	227.4951840865524	pulse	0.0	t		47.0	male	east_asian	2.171110226820533	neutral	024	sub-01	2.0	4.0	024_neutral	0.0		253.7742667915536	
39.0	228.195179649314	pulse	0.0	t		47.0	male	east_asian	2.171110226820533	neutral	024	sub-01	2.0	4.0	024_neutral	0.0		254.47426235431521	
39.0	228.5033887525351	fix	1.0		444	47.0	male	east_asian	2.171110226820533	neutral	024	sub-01	2.0	4.0	024_neutral	0.0		254.7824714575363	3.749900614906437
39.0	228.8951483471592	pulse	1.0	t		47.0	male	east_asian	2.171110226820533	neutral	024	sub-01	2.0	4.0	024_neutral	0.0		255.1742310521604	
39.0	229.59512036538763	pulse	1.0	t		47.0	male	east_asian	2.171110226820533	neutral	024	sub-01	2.0	4.0	024_neutral	0.0		255.87420307038883	
39.0	230.2950935910285	pulse	1.0	t		47.0	male	east_asian	2.171110226820533	neutral	024	sub-01	2.0	4.0	024_neutral	0.0		256.5741762960297	
39.0	230.99509277602556	pulse	1.0	t		47.0	male	east_asian	2.171110226820533	neutral	024	sub-01	2.0	4.0	024_neutral	0.0		257.27417548102676	
39.0	231.6950856221083	pulse	1.0	t		47.0	male	east_asian	2.171110226820533	neutral	024	sub-01	2.0	4.0	024_neutral	0.0		257.9741683271095	
40.0	232.25328936744154	fix	0.0		720													258.53237207244274	5.999838206798813
40.0	232.39506579036788	pulse	0.0	t														258.6741484953691	
40.0	233.09502905485897	pulse	0.0	t														259.37411175986017	
40.0	233.79500499717687	pulse	0.0	t														260.0740877021781	
40.0	234.49499059878872	pulse	0.0	t														260.7740733037899	
40.0	235.1949837467273	pulse	0.0	t														261.4740664517285	
40.0	235.89495636866195	pulse	0.0	t														262.17403907366315	
40.0	236.59494106471539	pulse	0.0	t														262.8740237697166	
40.0	237.2949305904167	pulse	0.0	t														263.5740132954179	
40.0	237.99491196608687	pulse	0.0	t														264.2739946710881	
