trial_nr	onset	event_type	phase	response	nr_frames	face_age	face_sex	face_eth	attractiveness	expression	face_id	sub_id	ses	run	trial_type	catch	rating_type	onset_abs	duration
-1.0	0.059610833020997234	fix	0.0		713													26.91222266125078	5.957901167899763
-1.0	0.7010967224505293	pulse	0.0	t														27.553708550680312	
-1.0	1.4010660240019206	pulse	0.0	t														28.253677852231704	
-1.0	2.101058568233384	pulse	0.0	t														28.953670396463167	
-1.0	2.801030888314017	pulse	0.0	t														29.6536427165438	
-1.0	3.5010107547204825	pulse	0.0	t														30.353622582950265	
-1.0	4.200997865597856	pulse	0.0	t														31.05360969382764	
-1.0	4.900986183887653	pulse	0.0	t														31.753598012117436	
-1.0	5.6009714836472995	pulse	0.0	t														32.45358331187708	
0.0	6.01751200092076	face	0.0		144	20.0	male	black	3.1070433744528456	neutral	082	sub-12	2.0	6.0	082_neutral	0.0		32.87012382915054	1.2332937201599634
0.0	6.300946822258084	pulse	0.0	t		20.0	male	black	3.1070433744528456	neutral	082	sub-12	2.0	6.0	082_neutral	0.0		33.15355865048787	
0.0	7.000934838694775	pulse	0.0	t		20.0	male	black	3.1070433744528456	neutral	082	sub-12	2.0	6.0	082_neutral	0.0		33.85354666692456	
0.0	7.250805721080724	fix	1.0		444	20.0	male	black	3.1070433744528456	neutral	082	sub-12	2.0	6.0	082_neutral	0.0		34.10341754931051	3.75823024802321
0.0	7.700905045804575	pulse	1.0	t		20.0	male	black	3.1070433744528456	neutral	082	sub-12	2.0	6.0	082_neutral	0.0		34.55351687403436	
0.0	8.400884308504828	pulse	1.0	t		20.0	male	black	3.1070433744528456	neutral	082	sub-12	2.0	6.0	082_neutral	0.0		35.25349613673461	
0.0	9.100868098999854	pulse	1.0	t		20.0	male	black	3.1070433744528456	neutral	082	sub-12	2.0	6.0	082_neutral	0.0		35.95347992722964	
0.0	9.800850078376243	pulse	1.0	t		20.0	male	black	3.1070433744528456	neutral	082	sub-12	2.0	6.0	082_neutral	0.0		36.653461906606026	
0.0	10.500823002163997	pulse	1.0	t		20.0	male	black	3.1070433744528456	neutral	082	sub-12	2.0	6.0	082_neutral	0.0		37.35343483039378	
1.0	11.009035969103934	face	0.0		146	40.0	male	white	1.868682849184242	neutral	172	sub-12	2.0	6.0	172_neutral	0.0		37.86164779733372	1.2416357292513567
1.0	11.20081947048402	pulse	0.0	t		40.0	male	white	1.868682849184242	neutral	172	sub-12	2.0	6.0	172_neutral	0.0		38.053431298713804	
1.0	11.900787866476094	pulse	0.0	t		40.0	male	white	1.868682849184242	neutral	172	sub-12	2.0	6.0	172_neutral	0.0		38.75339969470588	
1.0	12.25067169835529	fix	1.0		444	40.0	male	white	1.868682849184242	neutral	172	sub-12	2.0	6.0	172_neutral	0.0		39.103283526585074	3.7665638052312715
1.0	12.600777392177406	pulse	1.0	t		40.0	male	white	1.868682849184242	neutral	172	sub-12	2.0	6.0	172_neutral	0.0		39.45338922040719	
1.0	13.300755447465235	pulse	1.0	t		40.0	male	white	1.868682849184242	neutral	172	sub-12	2.0	6.0	172_neutral	0.0		40.15336727569502	
1.0	14.00073923796026	pulse	1.0	t		40.0	male	white	1.868682849184242	neutral	172	sub-12	2.0	6.0	172_neutral	0.0		40.853351066190044	
1.0	14.700717896954302	pulse	1.0	t		40.0	male	white	1.868682849184242	neutral	172	sub-12	2.0	6.0	172_neutral	0.0		41.553329725184085	
1.0	15.400704705978569	pulse	1.0	t		40.0	male	white	1.868682849184242	neutral	172	sub-12	2.0	6.0	172_neutral	0.0		42.25331653420835	
2.0	16.017235503586562	face	0.0		145	24.0	female	east_asian	2.9076800636689217	smiling	034	sub-12	2.0	6.0	034_smiling	0.0		42.869847331816345	1.2333018701901892
2.0	16.100684572385035	pulse	0.0	t		24.0	female	east_asian	2.9076800636689217	smiling	034	sub-12	2.0	6.0	034_smiling	0.0		42.95329640061482	
2.0	16.800664740643697	pulse	0.0	t		24.0	female	east_asian	2.9076800636689217	smiling	034	sub-12	2.0	6.0	034_smiling	0.0		43.65327656887348	
2.0	17.25053737377675	fix	1.0		444	24.0	female	east_asian	2.9076800636689217	smiling	034	sub-12	2.0	6.0	034_smiling	0.0		44.103149202006534	3.7582275313470745
2.0	17.500647323726298	pulse	1.0	t		24.0	female	east_asian	2.9076800636689217	smiling	034	sub-12	2.0	6.0	034_smiling	0.0		44.35325915195608	
2.0	18.20062205863178	pulse	1.0	t		24.0	female	east_asian	2.9076800636689217	smiling	034	sub-12	2.0	6.0	034_smiling	0.0		45.05323388686156	
2.0	18.90060705653832	pulse	1.0	t		24.0	female	east_asian	2.9076800636689217	smiling	034	sub-12	2.0	6.0	034_smiling	0.0		45.7532188847681	
2.0	19.600580584031377	pulse	1.0	t		24.0	female	east_asian	2.9076800636689217	smiling	034	sub-12	2.0	6.0	034_smiling	0.0		46.45319241226116	
2.0	20.300567393055644	pulse	1.0	t		24.0	female	east_asian	2.9076800636689217	smiling	034	sub-12	2.0	6.0	034_smiling	0.0		47.15317922128543	
3.0	21.008764905123826	face	0.0		146	22.0	female	west_asian	3.8205332272184642	smiling	066	sub-12	2.0	6.0	066_smiling	0.0		47.86137673335361	1.2416369366628714
3.0	21.00109844301278	pulse	0.0	t		22.0	female	west_asian	3.8205332272184642	smiling	066	sub-12	2.0	6.0	066_smiling	0.0		47.85371027124256	
3.0	21.700528031426984	pulse	0.0	t		22.0	female	west_asian	3.8205332272184642	smiling	066	sub-12	2.0	6.0	066_smiling	0.0		48.55313985965677	
3.0	22.250401841786697	fix	1.0		443	22.0	female	west_asian	3.8205332272184642	smiling	066	sub-12	2.0	6.0	066_smiling	0.0		49.10301367001648	3.7582314554356344
3.0	22.400516651568978	pulse	1.0	t		22.0	female	west_asian	3.8205332272184642	smiling	066	sub-12	2.0	6.0	066_smiling	0.0		49.25312847979876	
3.0	23.100490179062945	pulse	1.0	t		22.0	female	west_asian	3.8205332272184642	smiling	066	sub-12	2.0	6.0	066_smiling	0.0		49.95310200729273	
3.0	23.8004700454685	pulse	1.0	t		22.0	female	west_asian	3.8205332272184642	smiling	066	sub-12	2.0	6.0	066_smiling	0.0		50.653081873698284	
3.0	24.500453835963526	pulse	1.0	t		22.0	female	west_asian	3.8205332272184642	smiling	066	sub-12	2.0	6.0	066_smiling	0.0		51.35306566419331	
3.0	25.20043551348681	pulse	1.0	t		22.0	female	west_asian	3.8205332272184642	smiling	066	sub-12	2.0	6.0	066_smiling	0.0		52.05304734171659	
3.0	25.9004235299235	pulse	1.0	t		22.0	female	west_asian	3.8205332272184642	smiling	066	sub-12	2.0	6.0	066_smiling	0.0		52.753035358153284	
4.0	26.00863329722233	face	0.0		147	22.0	female	white	4.614007162753682	neutral	009	sub-12	2.0	6.0	009_neutral	0.0		52.861245125452115	1.2416375403690836
4.0	26.600399472240497	pulse	0.0	t		22.0	female	white	4.614007162753682	neutral	009	sub-12	2.0	6.0	009_neutral	0.0		53.45301130047028	
4.0	27.250270837591415	fix	1.0		443	22.0	female	white	4.614007162753682	neutral	009	sub-12	2.0	6.0	009_neutral	0.0		54.1028826658212	3.758232360994043
4.0	27.30039503500211	pulse	1.0	t		22.0	female	white	4.614007162753682	neutral	009	sub-12	2.0	6.0	009_neutral	0.0		54.153006863231894	
4.0	28.000361016170245	pulse	1.0	t		22.0	female	white	4.614007162753682	neutral	009	sub-12	2.0	6.0	009_neutral	0.0		54.85297284440003	
4.0	28.700338467751862	pulse	1.0	t		22.0	female	white	4.614007162753682	neutral	009	sub-12	2.0	6.0	009_neutral	0.0		55.552950295981645	
4.0	29.400321050835373	pulse	1.0	t		22.0	female	white	4.614007162753682	neutral	009	sub-12	2.0	6.0	009_neutral	0.0		56.252932879065156	
4.0	30.10030785985964	pulse	1.0	t		22.0	female	white	4.614007162753682	neutral	009	sub-12	2.0	6.0	009_neutral	0.0		56.95291968808942	
4.0	30.80030161150262	pulse	1.0	t		22.0	female	white	4.614007162753682	neutral	009	sub-12	2.0	6.0	009_neutral	0.0		57.6529134397324	
5.0	31.00850319858546	face	0.0		146	31.0	female	white	2.1822522881018704	smiling	102	sub-12	2.0	6.0	102_smiling	0.0		57.86111502681524	1.2416351255451445
5.0	31.500271214907116	pulse	0.0	t		31.0	female	white	2.1822522881018704	smiling	102	sub-12	2.0	6.0	102_smiling	0.0		58.3528830431369	
5.0	32.200242327576234	pulse	0.0	t		31.0	female	white	2.1822522881018704	smiling	102	sub-12	2.0	6.0	102_smiling	0.0		59.05285415580602	
5.0	32.2501383241306	fix	1.0		444	31.0	female	white	2.1822522881018704	smiling	102	sub-12	2.0	6.0	102_smiling	0.0		59.102750152360386	3.758268885205325
5.0	32.90021736433482	pulse	1.0	t		31.0	female	white	2.1822522881018704	smiling	102	sub-12	2.0	6.0	102_smiling	0.0		59.752829192564604	
5.0	33.60020507891841	pulse	1.0	t		31.0	female	white	2.1822522881018704	smiling	102	sub-12	2.0	6.0	102_smiling	0.0		60.45281690714819	
5.0	34.30020637688631	pulse	1.0	t		31.0	female	white	2.1822522881018704	smiling	102	sub-12	2.0	6.0	102_smiling	0.0		61.15281820511609	
5.0	35.00017537658459	pulse	1.0	t		31.0	female	white	2.1822522881018704	smiling	102	sub-12	2.0	6.0	102_smiling	0.0		61.852787204814376	
5.0	35.70016369487439	pulse	1.0	t		31.0	female	white	2.1822522881018704	smiling	102	sub-12	2.0	6.0	102_smiling	0.0		62.552775523104174	
6.0	36.00840720933593	face	0.0		146	47.0	male	east_asian	2.171110226820533	smiling	024	sub-12	2.0	6.0	024_smiling	1.0	dominance	62.86101903756571	1.2415967902161356
6.0	36.40018068919744	pulse	0.0	t		47.0	male	east_asian	2.171110226820533	smiling	024	sub-12	2.0	6.0	024_smiling	1.0	dominance	63.252792517427224	
6.0	37.10012222027399	pulse	0.0	t		47.0	male	east_asian	2.171110226820533	smiling	024	sub-12	2.0	6.0	024_smiling	1.0	dominance	63.95273404850377	
6.0	37.250003999552064	fix	1.0		177	47.0	male	east_asian	2.171110226820533	smiling	024	sub-12	2.0	6.0	024_smiling	1.0	dominance	64.10261582778185	1.508305333954013
6.0	37.800105105209695	pulse	1.0	t		47.0	male	east_asian	2.171110226820533	smiling	024	sub-12	2.0	6.0	024_smiling	1.0	dominance	64.65271693343948	
6.0	38.500076821585026	pulse	1.0	t		47.0	male	east_asian	2.171110226820533	smiling	024	sub-12	2.0	6.0	024_smiling	1.0	dominance	65.35268864981481	
6.0	38.75830933350608	rating	2.0		294	47.0	male	east_asian	2.171110226820533	smiling	024	sub-12	2.0	6.0	024_smiling	1.0	dominance	65.61092116173586	2.4915899230609284
6.0	39.200067252845656	pulse	2.0	t		47.0	male	east_asian	2.171110226820533	smiling	024	sub-12	2.0	6.0	024_smiling	1.0	dominance	66.05267908107544	
6.0	39.900045308133485	pulse	2.0	t		47.0	male	east_asian	2.171110226820533	smiling	024	sub-12	2.0	6.0	024_smiling	1.0	dominance	66.75265713636327	
6.0	40.60003694680563	pulse	2.0	t		47.0	male	east_asian	2.171110226820533	smiling	024	sub-12	2.0	6.0	024_smiling	1.0	dominance	67.45264877503541	
6.0	41.136608699825956	response	2.0	e		47.0	male	east_asian	2.171110226820533	smiling	024	sub-12	2.0	6.0	024_smiling	1.0	dominance	67.98922052805574	
6.0	41.249899256567005	fix	3.0		443	47.0	male	east_asian	2.171110226820533	smiling	024	sub-12	2.0	6.0	024_smiling	1.0	dominance	68.10251108479679	3.766548108875213
6.0	41.30002767991937	pulse	3.0	t		47.0	male	east_asian	2.171110226820533	smiling	024	sub-12	2.0	6.0	024_smiling	1.0	dominance	68.15263950814915	
6.0	41.999987322175	pulse	3.0	t		47.0	male	east_asian	2.171110226820533	smiling	024	sub-12	2.0	6.0	024_smiling	1.0	dominance	68.85259915040479	
6.0	42.699979866406466	pulse	3.0	t		47.0	male	east_asian	2.171110226820533	smiling	024	sub-12	2.0	6.0	024_smiling	1.0	dominance	69.55259169463625	
6.0	43.399960940224446	pulse	3.0	t		47.0	male	east_asian	2.171110226820533	smiling	024	sub-12	2.0	6.0	024_smiling	1.0	dominance	70.25257276845423	
6.0	44.099932656599776	pulse	3.0	t		47.0	male	east_asian	2.171110226820533	smiling	024	sub-12	2.0	6.0	024_smiling	1.0	dominance	70.95254448482956	
6.0	44.79991886191783	pulse	3.0	t		47.0	male	east_asian	2.171110226820533	smiling	024	sub-12	2.0	6.0	024_smiling	1.0	dominance	71.65253069014761	
7.0	45.01644736544222	face	0.0		145	47.0	male	east_asian	2.171110226820533	neutral	024	sub-12	2.0	6.0	024_neutral	0.0		71.869059193672	1.2333163591338234
7.0	45.49989691720566	pulse	0.0	t		47.0	male	east_asian	2.171110226820533	neutral	024	sub-12	2.0	6.0	024_neutral	0.0		72.35250874543544	
7.0	46.19987889658296	pulse	0.0	t		47.0	male	east_asian	2.171110226820533	neutral	024	sub-12	2.0	6.0	024_neutral	0.0		73.05249072481274	
7.0	46.24976372457604	fix	1.0		444	47.0	male	east_asian	2.171110226820533	neutral	024	sub-12	2.0	6.0	024_neutral	0.0		73.10237555280582	3.7582580184980543
7.0	46.899872044519725	pulse	1.0	t		47.0	male	east_asian	2.171110226820533	neutral	024	sub-12	2.0	6.0	024_neutral	0.0		73.75248387274951	
7.0	47.599839836806495	pulse	1.0	t		47.0	male	east_asian	2.171110226820533	neutral	024	sub-12	2.0	6.0	024_neutral	0.0		74.45245166503628	
7.0	48.299851397775456	pulse	1.0	t		47.0	male	east_asian	2.171110226820533	neutral	024	sub-12	2.0	6.0	024_neutral	0.0		75.15246322600524	
7.0	48.99980319185397	pulse	1.0	t		47.0	male	east_asian	2.171110226820533	neutral	024	sub-12	2.0	6.0	024_neutral	0.0		75.85241502008375	
7.0	49.69978185084801	pulse	1.0	t		47.0	male	east_asian	2.171110226820533	neutral	024	sub-12	2.0	6.0	024_neutral	0.0		76.5523936790778	
8.0	50.008021743074096	face	0.0		146	20.0	female	white	3.9502586549940313	smiling	091	sub-12	2.0	6.0	091_smiling	0.0		76.86063357130388	1.2416091661889368
8.0	50.39976262281289	pulse	0.0	t		20.0	female	white	3.9502586549940313	smiling	091	sub-12	2.0	6.0	091_smiling	0.0		77.25237445104267	
8.0	51.09974520589549	pulse	0.0	t		20.0	female	white	3.9502586549940313	smiling	091	sub-12	2.0	6.0	091_smiling	0.0		77.95235703412527	
8.0	51.24963090926303	fix	1.0		444	20.0	female	white	3.9502586549940313	smiling	091	sub-12	2.0	6.0	091_smiling	0.0		78.10224273749282	3.7665613904073325
8.0	51.799738957539375	pulse	1.0	t		20.0	female	white	3.9502586549940313	smiling	091	sub-12	2.0	6.0	091_smiling	0.0		78.65235078576916	
8.0	52.499719427651144	pulse	1.0	t		20.0	female	white	3.9502586549940313	smiling	091	sub-12	2.0	6.0	091_smiling	0.0		79.35233125588093	
8.0	53.19970291629215	pulse	1.0	t		20.0	female	white	3.9502586549940313	smiling	091	sub-12	2.0	6.0	091_smiling	0.0		80.05231474452194	
8.0	53.8996879141996	pulse	1.0	t		20.0	female	white	3.9502586549940313	smiling	091	sub-12	2.0	6.0	091_smiling	0.0		80.75229974242939	
8.0	54.59964966942607	pulse	1.0	t		20.0	female	white	3.9502586549940313	smiling	091	sub-12	2.0	6.0	091_smiling	0.0		81.45226149765585	
9.0	55.016192299670365	face	0.0		145	34.0	male	white	2.651014723438122	neutral	121	sub-12	2.0	6.0	121_neutral	0.0		81.86880412790015	1.2333006627786745
9.0	55.29963949698049	pulse	0.0	t		34.0	male	white	2.651014723438122	neutral	121	sub-12	2.0	6.0	121_neutral	0.0		82.15225132521027	
9.0	55.99961664670991	pulse	0.0	t		34.0	male	white	2.651014723438122	neutral	121	sub-12	2.0	6.0	121_neutral	0.0		82.8522284749397	
9.0	56.24949296244904	fix	1.0		444	34.0	male	white	2.651014723438122	neutral	121	sub-12	2.0	6.0	121_neutral	0.0		83.10210479067882	3.7665659182021045
9.0	56.699598927939405	pulse	1.0	t		34.0	male	white	2.651014723438122	neutral	121	sub-12	2.0	6.0	121_neutral	0.0		83.55221075616919	
9.0	57.399576983227234	pulse	1.0	t		34.0	male	white	2.651014723438122	neutral	121	sub-12	2.0	6.0	121_neutral	0.0		84.25218881145702	
9.0	58.0995695274587	pulse	1.0	t		34.0	male	white	2.651014723438122	neutral	121	sub-12	2.0	6.0	121_neutral	0.0		84.95218135568848	
9.0	58.79953822530388	pulse	1.0	t		34.0	male	white	2.651014723438122	neutral	121	sub-12	2.0	6.0	121_neutral	0.0		85.65215005353366	
9.0	59.49951778985724	pulse	1.0	t		34.0	male	white	2.651014723438122	neutral	121	sub-12	2.0	6.0	121_neutral	0.0		86.35212961808702	
10.0	60.016058880651144	face	0.0		145	19.0	female	white	4.298846000795861	smiling	100	sub-12	2.0	6.0	100_smiling	0.0		86.86867070888093	1.2333054924265525
10.0	60.19951818226582	pulse	0.0	t		19.0	female	white	4.298846000795861	smiling	100	sub-12	2.0	6.0	100_smiling	0.0		87.0521300104956	
10.0	60.89948537084638	pulse	0.0	t		19.0	female	white	4.298846000795861	smiling	100	sub-12	2.0	6.0	100_smiling	0.0		87.75209719907616	
10.0	61.2493643730777	fix	1.0		444	19.0	female	white	4.298846000795861	smiling	100	sub-12	2.0	6.0	100_smiling	0.0		88.10197620130748	3.766561994112635
10.0	61.599480631754886	pulse	1.0	t		19.0	female	white	4.298846000795861	smiling	100	sub-12	2.0	6.0	100_smiling	0.0		88.45209245998467	
10.0	62.299446311069914	pulse	1.0	t		19.0	female	white	4.298846000795861	smiling	100	sub-12	2.0	6.0	100_smiling	0.0		89.1520581392997	
10.0	62.999429799711834	pulse	1.0	t		19.0	female	white	4.298846000795861	smiling	100	sub-12	2.0	6.0	100_smiling	0.0		89.85204162794162	
10.0	63.69940634573504	pulse	1.0	t		19.0	female	white	4.298846000795861	smiling	100	sub-12	2.0	6.0	100_smiling	0.0		90.55201817396483	
10.0	64.39938289175825	pulse	1.0	t		19.0	female	white	4.298846000795861	smiling	100	sub-12	2.0	6.0	100_smiling	0.0		91.25199471998803	
11.0	65.01592636719033	face	0.0		145	40.0	male	white	1.868682849184242	smiling	172	sub-12	2.0	6.0	172_smiling	0.0		91.86853819542011	1.2333030776026135
11.0	65.09946810485599	pulse	0.0	t		40.0	male	white	1.868682849184242	smiling	172	sub-12	2.0	6.0	172_smiling	0.0		91.95207993308577	
11.0	65.79935258571822	pulse	0.0	t		40.0	male	white	1.868682849184242	smiling	172	sub-12	2.0	6.0	172_smiling	0.0		92.65196441394801	
11.0	66.24922944479295	fix	1.0		444	40.0	male	white	1.868682849184242	smiling	172	sub-12	2.0	6.0	172_smiling	0.0		93.10184127302273	3.7665469014636983
11.0	66.49934030030181	pulse	1.0	t		40.0	male	white	1.868682849184242	smiling	172	sub-12	2.0	6.0	172_smiling	0.0		93.3519521285316	
11.0	67.19930175367517	pulse	1.0	t		40.0	male	white	1.868682849184242	smiling	172	sub-12	2.0	6.0	172_smiling	0.0		94.05191358190496	
11.0	67.89929731643679	pulse	1.0	t		40.0	male	white	1.868682849184242	smiling	172	sub-12	2.0	6.0	172_smiling	0.0		94.75190914466657	
11.0	68.59929378475681	pulse	1.0	t		40.0	male	white	1.868682849184242	smiling	172	sub-12	2.0	6.0	172_smiling	0.0		95.4519056129866	
11.0	69.29925946407275	pulse	1.0	t		40.0	male	white	1.868682849184242	smiling	172	sub-12	2.0	6.0	172_smiling	0.0		96.15187129230253	
12.0	70.01577634625664	face	0.0		147	19.0	female	white	4.298846000795861	neutral	100	sub-12	2.0	6.0	100_neutral	0.0		96.86838817448643	1.2416520293127178
12.0	70.00199585193695	pulse	0.0	t		19.0	female	white	4.298846000795861	neutral	100	sub-12	2.0	6.0	100_neutral	0.0		96.85460768016674	
12.0	70.69921648020772	pulse	0.0	t		19.0	female	white	4.298846000795861	neutral	100	sub-12	2.0	6.0	100_neutral	0.0		97.5518283084375	
12.0	71.25742837556936	fix	1.0		443	19.0	female	white	4.298846000795861	neutral	100	sub-12	2.0	6.0	100_neutral	0.0		98.11004020379914	3.7665523348177885
12.0	71.3992038929382	pulse	1.0	t		19.0	female	white	4.298846000795861	neutral	100	sub-12	2.0	6.0	100_neutral	0.0		98.25181572116799	
12.0	72.0991988519927	pulse	1.0	t		19.0	female	white	4.298846000795861	neutral	100	sub-12	2.0	6.0	100_neutral	0.0		98.95181068022248	
12.0	72.79916302204401	pulse	1.0	t		19.0	female	white	4.298846000795861	neutral	100	sub-12	2.0	6.0	100_neutral	0.0		99.6517748502738	
12.0	73.49914711439123	pulse	1.0	t		19.0	female	white	4.298846000795861	neutral	100	sub-12	2.0	6.0	100_neutral	0.0		100.35175894262102	
12.0	74.19912788635611	pulse	1.0	t		19.0	female	white	4.298846000795861	neutral	100	sub-12	2.0	6.0	100_neutral	0.0		101.05173971458589	
12.0	74.89910865832098	pulse	1.0	t		19.0	female	white	4.298846000795861	neutral	100	sub-12	2.0	6.0	100_neutral	0.0		101.75172048655077	
13.0	75.02398071038715	face	0.0		146	25.0	female	west_asian	2.6756864305610826	smiling	064	sub-12	2.0	6.0	064_smiling	0.0		101.87659253861693	1.2333166609869295
13.0	75.59909878772851	pulse	0.0	t		25.0	female	west_asian	2.6756864305610826	smiling	064	sub-12	2.0	6.0	064_smiling	0.0		102.45171061595829	
13.0	76.25729737137408	fix	1.0		443	25.0	female	west_asian	2.6756864305610826	smiling	064	sub-12	2.0	6.0	064_smiling	0.0		103.10990919960386	3.7665502218469555
13.0	76.29907261707467	pulse	1.0	t		25.0	female	west_asian	2.6756864305610826	smiling	064	sub-12	2.0	6.0	064_smiling	0.0		103.15168444530445	
13.0	76.99905912424674	pulse	1.0	t		25.0	female	west_asian	2.6756864305610826	smiling	064	sub-12	2.0	6.0	064_smiling	0.0		103.85167095247652	
13.0	77.6990332554451	pulse	1.0	t		25.0	female	west_asian	2.6756864305610826	smiling	064	sub-12	2.0	6.0	064_smiling	0.0		104.55164508367488	
13.0	78.39901251814535	pulse	1.0	t		25.0	female	west_asian	2.6756864305610826	smiling	064	sub-12	2.0	6.0	064_smiling	0.0		105.25162434637514	
13.0	79.09899993087583	pulse	1.0	t		25.0	female	west_asian	2.6756864305610826	smiling	064	sub-12	2.0	6.0	064_smiling	0.0		105.95161175910562	
13.0	79.7989800991345	pulse	1.0	t		25.0	female	west_asian	2.6756864305610826	smiling	064	sub-12	2.0	6.0	064_smiling	0.0		106.65159192736428	
14.0	80.02384759322103	face	0.0		145	27.0	male	black	3.5523278949462798	smiling	042	sub-12	2.0	6.0	042_smiling	0.0		106.87645942145082	1.2333187739577625
14.0	80.4989629840702	pulse	0.0	t		27.0	male	black	3.5523278949462798	smiling	042	sub-12	2.0	6.0	042_smiling	0.0		107.35157481229999	
14.0	81.19895160421311	pulse	0.0	t		27.0	male	black	3.5523278949462798	smiling	042	sub-12	2.0	6.0	042_smiling	0.0		108.05156343244289	
14.0	81.2571663671788	fix	1.0		444	27.0	male	black	3.5523278949462798	smiling	042	sub-12	2.0	6.0	042_smiling	0.0		108.10977819540858	3.7665607867011204
14.0	81.89892362244154	pulse	1.0	t		27.0	male	black	3.5523278949462798	smiling	042	sub-12	2.0	6.0	042_smiling	0.0		108.75153545067133	
14.0	82.59890409255331	pulse	1.0	t		27.0	male	black	3.5523278949462798	smiling	042	sub-12	2.0	6.0	042_smiling	0.0		109.4515159207831	
14.0	83.29889210899	pulse	1.0	t		27.0	male	black	3.5523278949462798	smiling	042	sub-12	2.0	6.0	042_smiling	0.0		110.15150393721979	
14.0	83.99883997897905	pulse	1.0	t		27.0	male	black	3.5523278949462798	smiling	042	sub-12	2.0	6.0	042_smiling	0.0		110.85145180720883	
14.0	84.69885184180202	pulse	1.0	t		27.0	male	black	3.5523278949462798	smiling	042	sub-12	2.0	6.0	042_smiling	0.0		111.55146367003181	
15.0	85.02372715387992	face	0.0		145	19.0	male	white	3.2522881018702745	neutral	018	sub-12	2.0	6.0	018_neutral	0.0		111.8763389821097	1.2333018701901892
15.0	85.39899953846725	pulse	0.0	t		19.0	male	white	3.2522881018702745	neutral	018	sub-12	2.0	6.0	018_neutral	0.0		112.25161136669703	
15.0	86.09880976349541	pulse	0.0	t		19.0	male	white	3.2522881018702745	neutral	018	sub-12	2.0	6.0	018_neutral	0.0		112.9514215917252	
15.0	86.2570290240701	fix	1.0		444	19.0	male	white	3.2522881018702745	neutral	018	sub-12	2.0	6.0	018_neutral	0.0		113.10964085229989	3.7665511274062737
15.0	86.79879415769574	pulse	1.0	t		19.0	male	white	3.2522881018702745	neutral	018	sub-12	2.0	6.0	018_neutral	0.0		113.65140598592552	
15.0	87.49878549451569	pulse	1.0	t		19.0	male	white	3.2522881018702745	neutral	018	sub-12	2.0	6.0	018_neutral	0.0		114.35139732274547	
15.0	88.19875811644943	pulse	1.0	t		19.0	male	white	3.2522881018702745	neutral	018	sub-12	2.0	6.0	018_neutral	0.0		115.05136994467921	
15.0	88.898750962534	pulse	1.0	t		19.0	male	white	3.2522881018702745	neutral	018	sub-12	2.0	6.0	018_neutral	0.0		115.75136279076378	
15.0	89.59872811226342	pulse	1.0	t		19.0	male	white	3.2522881018702745	neutral	018	sub-12	2.0	6.0	018_neutral	0.0		116.4513399404932	
16.0	90.02358015147638	face	0.0		145	28.0	male	white	3.9076800636689217	smiling	033	sub-12	2.0	6.0	033_smiling	0.0		116.87619197970616	1.2333175665453382
16.0	90.29870254531488	pulse	0.0	t		28.0	male	white	3.9076800636689217	smiling	033	sub-12	2.0	6.0	033_smiling	0.0		117.15131437354466	
16.0	90.99868241172135	pulse	0.0	t		28.0	male	white	3.9076800636689217	smiling	033	sub-12	2.0	6.0	033_smiling	0.0		117.85129423995113	
16.0	91.25689771802172	fix	1.0		444	28.0	male	white	3.9076800636689217	smiling	033	sub-12	2.0	6.0	033_smiling	0.0		118.1095095462515	3.7665441847875627
16.0	91.69866710777478	pulse	1.0	t		28.0	male	white	3.9076800636689217	smiling	033	sub-12	2.0	6.0	033_smiling	0.0		118.55127893600456	
16.0	92.39865331309375	pulse	1.0	t		28.0	male	white	3.9076800636689217	smiling	033	sub-12	2.0	6.0	033_smiling	0.0		119.25126514132353	
16.0	93.09862412390976	pulse	1.0	t		28.0	male	white	3.9076800636689217	smiling	033	sub-12	2.0	6.0	033_smiling	0.0		119.95123595213954	
16.0	93.79860187734448	pulse	1.0	t		28.0	male	white	3.9076800636689217	smiling	033	sub-12	2.0	6.0	033_smiling	0.0		120.65121370557426	
16.0	94.49859804381231	pulse	1.0	t		28.0	male	white	3.9076800636689217	smiling	033	sub-12	2.0	6.0	033_smiling	0.0		121.35120987204209	
17.0	95.02344190280928	face	0.0		145	31.0	female	east_asian	3.395941106247513	neutral	087	sub-12	2.0	6.0	087_neutral	0.0		121.87605373103906	1.233319377663065
17.0	95.1985736842762	pulse	0.0	t		31.0	female	east_asian	3.395941106247513	neutral	087	sub-12	2.0	6.0	087_neutral	0.0		122.05118551250598	
17.0	95.89855234327024	pulse	0.0	t		31.0	female	east_asian	3.395941106247513	neutral	087	sub-12	2.0	6.0	087_neutral	0.0		122.75116417150002	
17.0	96.25676128047235	fix	1.0		444	31.0	female	east_asian	3.395941106247513	neutral	087	sub-12	2.0	6.0	087_neutral	0.0		123.10937310870213	3.758316879831
17.0	96.59853281338201	pulse	1.0	t		31.0	female	east_asian	3.395941106247513	neutral	087	sub-12	2.0	6.0	087_neutral	0.0		123.45114464161179	
17.0	97.29852022611249	pulse	1.0	t		31.0	female	east_asian	3.395941106247513	neutral	087	sub-12	2.0	6.0	087_neutral	0.0		124.15113205434227	
17.0	97.99849465916486	pulse	1.0	t		31.0	female	east_asian	3.395941106247513	neutral	087	sub-12	2.0	6.0	087_neutral	0.0		124.85110648739465	
17.0	98.6984730163058	pulse	1.0	t		31.0	female	east_asian	3.395941106247513	neutral	087	sub-12	2.0	6.0	087_neutral	0.0		125.55108484453558	
17.0	99.39845378827067	pulse	1.0	t		31.0	female	east_asian	3.395941106247513	neutral	087	sub-12	2.0	6.0	087_neutral	0.0		126.25106561650045	
18.0	100.01507816030335	face	0.0		146	31.0	female	east_asian	3.395941106247513	smiling	087	sub-12	2.0	6.0	087_smiling	0.0		126.86768998853313	1.2415512104153095
18.0	100.09844603064903	pulse	0.0	t		31.0	female	east_asian	3.395941106247513	smiling	087	sub-12	2.0	6.0	087_smiling	0.0		126.95105785887881	
18.0	100.79843102855557	pulse	0.0	t		31.0	female	east_asian	3.395941106247513	smiling	087	sub-12	2.0	6.0	087_smiling	0.0		127.65104285678535	
18.0	101.25662937071866	fix	1.0		444	31.0	female	east_asian	3.395941106247513	smiling	087	sub-12	2.0	6.0	087_smiling	0.0		128.10924119894844	3.766562295965741
18.0	101.4984024430778	pulse	1.0	t		31.0	female	east_asian	3.395941106247513	smiling	087	sub-12	2.0	6.0	087_smiling	0.0		128.35101427130758	
18.0	102.19838230948335	pulse	1.0	t		31.0	female	east_asian	3.395941106247513	smiling	087	sub-12	2.0	6.0	087_smiling	0.0		129.05099413771313	
18.0	102.89836277959512	pulse	1.0	t		31.0	female	east_asian	3.395941106247513	smiling	087	sub-12	2.0	6.0	087_smiling	0.0		129.7509746078249	
18.0	103.59834475897242	pulse	1.0	t		31.0	female	east_asian	3.395941106247513	smiling	087	sub-12	2.0	6.0	087_smiling	0.0		130.4509565872022	
18.0	104.29832553093729	pulse	1.0	t		31.0	female	east_asian	3.395941106247513	smiling	087	sub-12	2.0	6.0	087_smiling	0.0		131.15093735916707	
18.0	104.99830509548974	pulse	1.0	t		31.0	female	east_asian	3.395941106247513	smiling	087	sub-12	2.0	6.0	087_smiling	0.0		131.85091692371952	
19.0	105.0231916666844	face	0.0		146	31.0	male	west_asian	1.9538400318344609	neutral	070	sub-12	2.0	6.0	070_neutral	0.0		131.87580349491418	1.2333082091035976
19.0	105.69829220636711	pulse	0.0	t		31.0	male	west_asian	1.9538400318344609	neutral	070	sub-12	2.0	6.0	070_neutral	0.0		132.5509040345969	
19.0	106.256499875788	fix	1.0		443	31.0	male	west_asian	1.9538400318344609	neutral	070	sub-12	2.0	6.0	070_neutral	0.0		133.10911170401778	3.7665583718771813
19.0	106.39828173206934	pulse	1.0	t		31.0	male	west_asian	1.9538400318344609	neutral	070	sub-12	2.0	6.0	070_neutral	0.0		133.25089356029912	
19.0	107.09825948550406	pulse	1.0	t		31.0	male	west_asian	1.9538400318344609	neutral	070	sub-12	2.0	6.0	070_neutral	0.0		133.95087131373384	
19.0	107.79823090002628	pulse	1.0	t		31.0	male	west_asian	1.9538400318344609	neutral	070	sub-12	2.0	6.0	070_neutral	0.0		134.65084272825607	
19.0	108.49820684234328	pulse	1.0	t		31.0	male	west_asian	1.9538400318344609	neutral	070	sub-12	2.0	6.0	070_neutral	0.0		135.35081867057306	
19.0	109.19819757545702	pulse	1.0	t		31.0	male	west_asian	1.9538400318344609	neutral	070	sub-12	2.0	6.0	070_neutral	0.0		136.0508094036868	
19.0	109.8981729140678	pulse	1.0	t		31.0	male	west_asian	1.9538400318344609	neutral	070	sub-12	2.0	6.0	070_neutral	0.0		136.75078474229758	
20.0	110.02305824766518	face	0.0		146	40.0	male	black	2.408674890569041	smiling	061	sub-12	2.0	6.0	061_smiling	0.0		136.87567007589496	1.2332979461016293
20.0	110.59815972309207	pulse	0.0	t		40.0	male	black	2.408674890569041	smiling	061	sub-12	2.0	6.0	061_smiling	0.0		137.45077155132185	
20.0	111.2563561937668	fix	1.0		1184	40.0	male	black	2.408674890569041	smiling	061	sub-12	2.0	6.0	061_smiling	0.0		138.1089680219966	10.016404804171543
20.0	111.29814260802777	pulse	1.0	t		40.0	male	black	2.408674890569041	smiling	061	sub-12	2.0	6.0	061_smiling	0.0		138.15075443625756	
20.0	111.99811734293326	pulse	1.0	t		40.0	male	black	2.408674890569041	smiling	061	sub-12	2.0	6.0	061_smiling	0.0		138.85072917116304	
20.0	112.69810385010533	pulse	1.0	t		40.0	male	black	2.408674890569041	smiling	061	sub-12	2.0	6.0	061_smiling	0.0		139.5507156783351	
20.0	113.398078886863	pulse	1.0	t		40.0	male	black	2.408674890569041	smiling	061	sub-12	2.0	6.0	061_smiling	0.0		140.2506907150928	
20.0	114.09805935697477	pulse	1.0	t		40.0	male	black	2.408674890569041	smiling	061	sub-12	2.0	6.0	061_smiling	0.0		140.95067118520456	
20.0	114.79804586414684	pulse	1.0	t		40.0	male	black	2.408674890569041	smiling	061	sub-12	2.0	6.0	061_smiling	0.0		141.65065769237663	
20.0	115.49802241017005	pulse	1.0	t		40.0	male	black	2.408674890569041	smiling	061	sub-12	2.0	6.0	061_smiling	0.0		142.35063423839983	
20.0	116.19802521740257	pulse	1.0	t		40.0	male	black	2.408674890569041	smiling	061	sub-12	2.0	6.0	061_smiling	0.0		143.05063704563236	
20.0	116.89798667077594	pulse	1.0	t		40.0	male	black	2.408674890569041	smiling	061	sub-12	2.0	6.0	061_smiling	0.0		143.75059849900572	
20.0	117.59796804644702	pulse	1.0	t		40.0	male	black	2.408674890569041	smiling	061	sub-12	2.0	6.0	061_smiling	0.0		144.4505798746768	
20.0	118.29794157394008	pulse	1.0	t		40.0	male	black	2.408674890569041	smiling	061	sub-12	2.0	6.0	061_smiling	0.0		145.15055340216986	
20.0	118.99795404046836	pulse	1.0	t		40.0	male	black	2.408674890569041	smiling	061	sub-12	2.0	6.0	061_smiling	0.0		145.85056586869814	
20.0	119.69791941793119	pulse	1.0	t		40.0	male	black	2.408674890569041	smiling	061	sub-12	2.0	6.0	061_smiling	0.0		146.55053124616097	
20.0	120.39789203986584	pulse	1.0	t		40.0	male	black	2.408674890569041	smiling	061	sub-12	2.0	6.0	061_smiling	0.0		147.25050386809562	
20.0	121.09787945259632	pulse	1.0	t		40.0	male	black	2.408674890569041	smiling	061	sub-12	2.0	6.0	061_smiling	0.0		147.9504912808261	
21.0	121.27276099793835	face	0.0		146	28.0	male	white	3.9076800636689217	neutral	033	sub-12	2.0	6.0	033_neutral	0.0		148.12537282616813	1.2416348236920385
21.0	121.79787018570914	pulse	0.0	t		28.0	male	white	3.9076800636689217	neutral	033	sub-12	2.0	6.0	033_neutral	0.0		148.65048201393893	
21.0	122.49783827984902	pulse	0.0	t		28.0	male	white	3.9076800636689217	neutral	033	sub-12	2.0	6.0	033_neutral	0.0		149.3504501080788	
21.0	122.51439582163039	fix	1.0		443	28.0	male	white	3.9076800636689217	neutral	033	sub-12	2.0	6.0	033_neutral	0.0		149.36700764986017	3.7582266257877563
21.0	123.19782478702018	pulse	1.0	t		28.0	male	white	3.9076800636689217	neutral	033	sub-12	2.0	6.0	033_neutral	0.0		150.05043661524996	
21.0	123.89781129419225	pulse	1.0	t		28.0	male	white	3.9076800636689217	neutral	033	sub-12	2.0	6.0	033_neutral	0.0		150.75042312242203	
21.0	124.59779297171553	pulse	1.0	t		28.0	male	white	3.9076800636689217	neutral	033	sub-12	2.0	6.0	033_neutral	0.0		151.45040479994532	
21.0	125.29776166956162	pulse	1.0	t		28.0	male	white	3.9076800636689217	neutral	033	sub-12	2.0	6.0	033_neutral	0.0		152.1503734977914	
21.0	125.99774515820263	pulse	1.0	t		28.0	male	white	3.9076800636689217	neutral	033	sub-12	2.0	6.0	033_neutral	0.0		152.85035698643242	
22.0	126.27262244741814	face	0.0		145	40.0	female	west_asian	1.5777954635893354	neutral	038	sub-12	2.0	6.0	038_neutral	1.0	trustworthiness	153.12523427564793	1.2332985498078415
22.0	126.69772955240387	pulse	0.0	t		40.0	female	west_asian	1.5777954635893354	neutral	038	sub-12	2.0	6.0	038_neutral	1.0	trustworthiness	153.55034138063365	
22.0	127.3977079095448	pulse	0.0	t		40.0	female	west_asian	1.5777954635893354	neutral	038	sub-12	2.0	6.0	038_neutral	1.0	trustworthiness	154.2503197377746	
22.0	127.50592099722599	fix	1.0		177	40.0	female	west_asian	1.5777954635893354	neutral	038	sub-12	2.0	6.0	038_neutral	1.0	trustworthiness	154.35853282545577	1.4999666452449674
22.0	128.09769502042218	pulse	1.0	t		40.0	female	west_asian	1.5777954635893354	neutral	038	sub-12	2.0	6.0	038_neutral	1.0	trustworthiness	154.95030684865196	
22.0	128.79767096273918	pulse	1.0	t		40.0	female	west_asian	1.5777954635893354	neutral	038	sub-12	2.0	6.0	038_neutral	1.0	trustworthiness	155.65028279096896	
22.0	129.00588764247095	rating	2.0		295	40.0	female	west_asian	1.5777954635893354	neutral	038	sub-12	2.0	6.0	038_neutral	1.0	trustworthiness	155.85849947070074	2.4999337432700486
22.0	129.49765807361655	pulse	2.0	t		40.0	female	west_asian	1.5777954635893354	neutral	038	sub-12	2.0	6.0	038_neutral	1.0	trustworthiness	156.35026990184633	
22.0	130.1976442789355	pulse	2.0	t		40.0	female	west_asian	1.5777954635893354	neutral	038	sub-12	2.0	6.0	038_neutral	1.0	trustworthiness	157.0502561071653	
22.0	130.8976193156932	pulse	2.0	t		40.0	female	west_asian	1.5777954635893354	neutral	038	sub-12	2.0	6.0	038_neutral	1.0	trustworthiness	157.75023114392297	
22.0	131.13926530794652	response	2.0	b		40.0	female	west_asian	1.5777954635893354	neutral	038	sub-12	2.0	6.0	038_neutral	1.0	trustworthiness	157.9918771361763	
22.0	131.505821385741	fix	3.0		443	40.0	female	west_asian	1.5777954635893354	neutral	038	sub-12	2.0	6.0	038_neutral	1.0	trustworthiness	158.35843321397078	3.758228135052377
22.0	131.597676758317	pulse	3.0	t		40.0	female	west_asian	1.5777954635893354	neutral	038	sub-12	2.0	6.0	038_neutral	1.0	trustworthiness	158.45028858654678	
22.0	132.2975781429468	pulse	3.0	t		40.0	female	west_asian	1.5777954635893354	neutral	038	sub-12	2.0	6.0	038_neutral	1.0	trustworthiness	159.1501899711766	
22.0	132.9975604241763	pulse	3.0	t		40.0	female	west_asian	1.5777954635893354	neutral	038	sub-12	2.0	6.0	038_neutral	1.0	trustworthiness	159.85017225240608	
22.0	133.69754149799428	pulse	3.0	t		40.0	female	west_asian	1.5777954635893354	neutral	038	sub-12	2.0	6.0	038_neutral	1.0	trustworthiness	160.55015332622406	
22.0	134.39751985513522	pulse	3.0	t		40.0	female	west_asian	1.5777954635893354	neutral	038	sub-12	2.0	6.0	038_neutral	1.0	trustworthiness	161.250131683365	
22.0	135.09749247706895	pulse	3.0	t		40.0	female	west_asian	1.5777954635893354	neutral	038	sub-12	2.0	6.0	038_neutral	1.0	trustworthiness	161.95010430529874	
23.0	135.26404952079338	face	0.0		147	22.0	male	black	2.767608436132113	neutral	044	sub-12	2.0	6.0	044_neutral	0.0		162.11666134902316	1.2499723049886597
23.0	135.79749468059617	pulse	0.0	t		22.0	male	black	2.767608436132113	neutral	044	sub-12	2.0	6.0	044_neutral	0.0		162.65010650882596	
23.0	136.49745854879347	pulse	0.0	t		22.0	male	black	2.767608436132113	neutral	044	sub-12	2.0	6.0	044_neutral	0.0		163.35007037702326	
23.0	136.51402182578204	fix	1.0		443	22.0	male	black	2.767608436132113	neutral	044	sub-12	2.0	6.0	044_neutral	0.0		163.36663365401182	3.7582275313470745
23.0	137.19743479296358	pulse	1.0	t		22.0	male	black	2.767608436132113	neutral	044	sub-12	2.0	6.0	044_neutral	0.0		164.05004662119336	
23.0	137.89743427981375	pulse	1.0	t		22.0	male	black	2.767608436132113	neutral	044	sub-12	2.0	6.0	044_neutral	0.0		164.75004610804353	
23.0	138.5974078073068	pulse	1.0	t		22.0	male	black	2.767608436132113	neutral	044	sub-12	2.0	6.0	044_neutral	0.0		165.4500196355366	
23.0	139.29739159780183	pulse	1.0	t		22.0	male	black	2.767608436132113	neutral	044	sub-12	2.0	6.0	044_neutral	0.0		166.15000342603162	
23.0	139.99737297347292	pulse	1.0	t		22.0	male	black	2.767608436132113	neutral	044	sub-12	2.0	6.0	044_neutral	0.0		166.8499848017027	
24.0	140.2722493571291	face	0.0		145	25.0	female	west_asian	2.6756864305610826	neutral	064	sub-12	2.0	6.0	064_neutral	0.0		167.1248611853589	1.2333070016911734
24.0	140.69735676396704	pulse	0.0	t		25.0	female	west_asian	2.6756864305610826	neutral	064	sub-12	2.0	6.0	064_neutral	0.0		167.54996859219682	
24.0	141.39732908404858	pulse	0.0	t		25.0	female	west_asian	2.6756864305610826	neutral	064	sub-12	2.0	6.0	064_neutral	0.0		168.24994091227836	
24.0	141.5055563588203	fix	1.0		444	25.0	female	west_asian	2.6756864305610826	neutral	064	sub-12	2.0	6.0	064_neutral	0.0		168.35816818705007	3.7665601829949082
24.0	142.09732283569156	pulse	1.0	t		25.0	female	west_asian	2.6756864305610826	neutral	064	sub-12	2.0	6.0	064_neutral	0.0		168.94993466392134	
24.0	142.79729847615545	pulse	1.0	t		25.0	female	west_asian	2.6756864305610826	neutral	064	sub-12	2.0	6.0	064_neutral	0.0		169.64991030438523	
24.0	143.4972777388557	pulse	1.0	t		25.0	female	west_asian	2.6756864305610826	neutral	064	sub-12	2.0	6.0	064_neutral	0.0		170.34988956708548	
24.0	144.19725609599664	pulse	1.0	t		25.0	female	west_asian	2.6756864305610826	neutral	064	sub-12	2.0	6.0	064_neutral	0.0		171.04986792422642	
24.0	144.89723928278545	pulse	1.0	t		25.0	female	west_asian	2.6756864305610826	neutral	064	sub-12	2.0	6.0	064_neutral	0.0		171.74985111101523	
25.0	145.2721165418152	face	0.0		145	37.0	male	white	3.898925586947871	smiling	101	sub-12	2.0	6.0	101_smiling	0.0		172.12472837004498	1.2333033794557196
25.0	145.59722699736903	pulse	0.0	t		37.0	male	white	3.898925586947871	smiling	101	sub-12	2.0	6.0	101_smiling	0.0		172.44983882559882	
25.0	146.29722950274845	pulse	0.0	t		37.0	male	white	3.898925586947871	smiling	101	sub-12	2.0	6.0	101_smiling	0.0		173.14984133097823	
25.0	146.5054199212709	fix	1.0		444	37.0	male	white	3.898925586947871	smiling	101	sub-12	2.0	6.0	101_smiling	0.0		173.3580317495007	3.7665635033781655
25.0	146.99720604877166	pulse	1.0	t		37.0	male	white	3.898925586947871	smiling	101	sub-12	2.0	6.0	101_smiling	0.0		173.84981787700144	
25.0	147.6971659928804	pulse	1.0	t		37.0	male	white	3.898925586947871	smiling	101	sub-12	2.0	6.0	101_smiling	0.0		174.54977782111018	
25.0	148.3971730260555	pulse	1.0	t		37.0	male	white	3.898925586947871	smiling	101	sub-12	2.0	6.0	101_smiling	0.0		175.24978485428528	
25.0	149.09712814051636	pulse	1.0	t		37.0	male	white	3.898925586947871	smiling	101	sub-12	2.0	6.0	101_smiling	0.0		175.94973996874614	
25.0	149.7971061958042	pulse	1.0	t		37.0	male	white	3.898925586947871	smiling	101	sub-12	2.0	6.0	101_smiling	0.0		176.64971802403397	
26.0	150.27198342464908	face	0.0		145	20.0	male	black	3.1070433744528456	smiling	082	sub-12	2.0	6.0	082_smiling	0.0		177.12459525287886	1.2333039831619317
26.0	150.49709360853467	pulse	0.0	t		20.0	male	black	3.1070433744528456	smiling	082	sub-12	2.0	6.0	082_smiling	0.0		177.34970543676445	
26.0	151.19707377679424	pulse	0.0	t		20.0	male	black	3.1070433744528456	smiling	082	sub-12	2.0	6.0	082_smiling	0.0		178.04968560502402	
26.0	151.505287407811	fix	1.0		444	20.0	male	black	3.1070433744528456	smiling	082	sub-12	2.0	6.0	082_smiling	0.0		178.3578992360408	3.7583099372113793
26.0	151.89706903770184	pulse	1.0	t		20.0	male	black	3.1070433744528456	smiling	082	sub-12	2.0	6.0	082_smiling	0.0		178.74968086593162	
26.0	152.59704075407717	pulse	1.0	t		20.0	male	black	3.1070433744528456	smiling	082	sub-12	2.0	6.0	082_smiling	0.0		179.44965258230695	
26.0	153.29702122418894	pulse	1.0	t		20.0	male	black	3.1070433744528456	smiling	082	sub-12	2.0	6.0	082_smiling	0.0		180.14963305241872	
26.0	153.99699897762457	pulse	1.0	t		20.0	male	black	3.1070433744528456	smiling	082	sub-12	2.0	6.0	082_smiling	0.0		180.84961080585435	
26.0	154.6969903144436	pulse	1.0	t		20.0	male	black	3.1070433744528456	smiling	082	sub-12	2.0	6.0	082_smiling	0.0		181.5496021426734	
27.0	155.2635973450224	face	0.0		146	24.0	male	white	3.1153999204138483	smiling	012	sub-12	2.0	6.0	012_smiling	0.0		182.11620917325217	1.2415575493278084
27.0	155.39696686046682	pulse	0.0	t		24.0	male	white	3.1153999204138483	smiling	012	sub-12	2.0	6.0	012_smiling	0.0		182.2495786886966	
27.0	156.09696936584623	pulse	0.0	t		24.0	male	white	3.1153999204138483	smiling	012	sub-12	2.0	6.0	012_smiling	0.0		182.94958119407602	
27.0	156.5051548943502	fix	1.0		444	24.0	male	white	3.1153999204138483	smiling	012	sub-12	2.0	6.0	012_smiling	0.0		183.35776672257998	3.7665604848480143
27.0	156.79692659327884	pulse	1.0	t		24.0	male	white	3.1153999204138483	smiling	012	sub-12	2.0	6.0	012_smiling	0.0		183.64953842150862	
27.0	157.49690434671356	pulse	1.0	t		24.0	male	white	3.1153999204138483	smiling	012	sub-12	2.0	6.0	012_smiling	0.0		184.34951617494335	
27.0	158.19689779650344	pulse	1.0	t		24.0	male	white	3.1153999204138483	smiling	012	sub-12	2.0	6.0	012_smiling	0.0		185.04950962473322	
27.0	158.89686800361414	pulse	1.0	t		24.0	male	white	3.1153999204138483	smiling	012	sub-12	2.0	6.0	012_smiling	0.0		185.74947983184393	
27.0	159.59684998299053	pulse	1.0	t		24.0	male	white	3.1153999204138483	smiling	012	sub-12	2.0	6.0	012_smiling	0.0		186.44946181122032	
28.0	160.2717153791982	face	0.0		145	28.0	female	white	5.676880222841227	smiling	124	sub-12	2.0	6.0	124_smiling	1.0	dominance	187.124327207428	1.2333036813088256
28.0	160.2968488661345	pulse	0.0	t		28.0	female	white	5.676880222841227	smiling	124	sub-12	2.0	6.0	124_smiling	1.0	dominance	187.14946069436428	
28.0	160.99681363989112	pulse	0.0	t		28.0	female	white	5.676880222841227	smiling	124	sub-12	2.0	6.0	124_smiling	1.0	dominance	187.8494254681209	
28.0	161.50501906050704	fix	1.0		177	28.0	female	white	5.676880222841227	smiling	124	sub-12	2.0	6.0	124_smiling	1.0	dominance	188.35763088873682	1.4999597026262563
28.0	161.6967941100038	pulse	1.0	t		28.0	female	white	5.676880222841227	smiling	124	sub-12	2.0	6.0	124_smiling	1.0	dominance	188.54940593823358	
28.0	162.39678182458647	pulse	1.0	t		28.0	female	white	5.676880222841227	smiling	124	sub-12	2.0	6.0	124_smiling	1.0	dominance	189.24939365281625	
28.0	163.0049787631333	rating	2.0		294	28.0	female	white	5.676880222841227	smiling	124	sub-12	2.0	6.0	124_smiling	1.0	dominance	189.85759059136308	2.4999316302992156
28.0	163.0967595780221	pulse	2.0	t		28.0	female	white	5.676880222841227	smiling	124	sub-12	2.0	6.0	124_smiling	1.0	dominance	189.94937140625188	
28.0	163.79674517963485	pulse	2.0	t		28.0	female	white	5.676880222841227	smiling	124	sub-12	2.0	6.0	124_smiling	1.0	dominance	190.64935700786464	
28.0	164.49672082009874	pulse	2.0	t		28.0	female	white	5.676880222841227	smiling	124	sub-12	2.0	6.0	124_smiling	1.0	dominance	191.34933264832853	
28.0	164.5915784224626	response	2.0	b		28.0	female	white	5.676880222841227	smiling	124	sub-12	2.0	6.0	124_smiling	1.0	dominance	191.44419025069237	
28.0	165.19669555500423	pulse	2.0	t		28.0	female	white	5.676880222841227	smiling	124	sub-12	2.0	6.0	124_smiling	1.0	dominance	192.049307383234	
28.0	165.5049103934325	fix	3.0		444	28.0	female	white	5.676880222841227	smiling	124	sub-12	2.0	6.0	124_smiling	1.0	dominance	192.3575222216623	3.7665381477272604
28.0	165.89668447699933	pulse	3.0	t		28.0	female	white	5.676880222841227	smiling	124	sub-12	2.0	6.0	124_smiling	1.0	dominance	192.7492963052291	
28.0	166.59668245458397	pulse	3.0	t		28.0	female	white	5.676880222841227	smiling	124	sub-12	2.0	6.0	124_smiling	1.0	dominance	193.44929428281375	
28.0	167.29664360610514	pulse	3.0	t		28.0	female	white	5.676880222841227	smiling	124	sub-12	2.0	6.0	124_smiling	1.0	dominance	194.14925543433492	
28.0	167.99663494292417	pulse	3.0	t		28.0	female	white	5.676880222841227	smiling	124	sub-12	2.0	6.0	124_smiling	1.0	dominance	194.84924677115396	
28.0	168.69659669815155	pulse	3.0	t		28.0	female	white	5.676880222841227	smiling	124	sub-12	2.0	6.0	124_smiling	1.0	dominance	195.54920852638134	
29.0	169.27144854115977	face	0.0		145	30.0	female	black	2.7345801830481498	smiling	062	sub-12	2.0	6.0	062_smiling	0.0		196.12406036938955	1.2333308480774576
29.0	169.39658743126438	pulse	0.0	t		30.0	female	black	2.7345801830481498	smiling	062	sub-12	2.0	6.0	062_smiling	0.0		196.24919925949416	
29.0	170.09657997549584	pulse	0.0	t		30.0	female	black	2.7345801830481498	smiling	062	sub-12	2.0	6.0	062_smiling	0.0		196.94919180372563	
29.0	170.50477938923723	fix	1.0		444	30.0	female	black	2.7345801830481498	smiling	062	sub-12	2.0	6.0	062_smiling	0.0		197.357391217467	3.7665650126427863
29.0	170.79655621966594	pulse	1.0	t		30.0	female	black	2.7345801830481498	smiling	062	sub-12	2.0	6.0	062_smiling	0.0		197.64916804789573	
29.0	171.49654121757249	pulse	1.0	t		30.0	female	black	2.7345801830481498	smiling	062	sub-12	2.0	6.0	062_smiling	0.0		198.34915304580227	
29.0	172.1965250080675	pulse	1.0	t		30.0	female	black	2.7345801830481498	smiling	062	sub-12	2.0	6.0	062_smiling	0.0		199.0491368362973	
29.0	172.89651604303344	pulse	1.0	t		30.0	female	black	2.7345801830481498	smiling	062	sub-12	2.0	6.0	062_smiling	0.0		199.74912787126323	
29.0	173.59647236490673	pulse	1.0	t		30.0	female	black	2.7345801830481498	smiling	062	sub-12	2.0	6.0	062_smiling	0.0		200.4490841931365	
30.0	174.27134440188001	face	0.0		145	28.0	female	white	5.676880222841227	neutral	124	sub-12	2.0	6.0	124_neutral	0.0		201.1239562301098	1.2333003609255684
30.0	174.2965219593525	pulse	0.0	t		28.0	female	white	5.676880222841227	neutral	124	sub-12	2.0	6.0	124_neutral	0.0		201.1491337875823	
30.0	174.99643149401254	pulse	0.0	t		28.0	female	white	5.676880222841227	neutral	124	sub-12	2.0	6.0	124_neutral	0.0		201.84904332224232	
30.0	175.50464476280558	fix	1.0		443	28.0	female	white	5.676880222841227	neutral	124	sub-12	2.0	6.0	124_neutral	0.0		202.35725659103537	3.7583546114537967
30.0	175.69642222712628	pulse	1.0	t		28.0	female	white	5.676880222841227	neutral	124	sub-12	2.0	6.0	124_neutral	0.0		202.54903405535606	
30.0	176.39640088612032	pulse	1.0	t		28.0	female	white	5.676880222841227	neutral	124	sub-12	2.0	6.0	124_neutral	0.0		203.2490127143501	
30.0	177.0963822617905	pulse	1.0	t		28.0	female	white	5.676880222841227	neutral	124	sub-12	2.0	6.0	124_neutral	0.0		203.94899409002028	
30.0	177.79637903196362	pulse	1.0	t		28.0	female	white	5.676880222841227	neutral	124	sub-12	2.0	6.0	124_neutral	0.0		204.6489908601934	
30.0	178.49634199460252	pulse	1.0	t		28.0	female	white	5.676880222841227	neutral	124	sub-12	2.0	6.0	124_neutral	0.0		205.3489538228323	
30.0	179.1963236721267	pulse	1.0	t		28.0	female	white	5.676880222841227	neutral	124	sub-12	2.0	6.0	124_neutral	0.0		206.0489355003565	
31.0	179.26299937425938	face	0.0		147	36.0	female	white	2.7548746518105847	neutral	011	sub-12	2.0	6.0	011_neutral	1.0	trustworthiness	206.11561120248916	1.2415134787916031
31.0	179.89630836818014	pulse	0.0	t		36.0	female	white	2.7548746518105847	neutral	011	sub-12	2.0	6.0	011_neutral	1.0	trustworthiness	206.74892019640993	
31.0	180.50451285305098	fix	1.0		177	36.0	female	white	2.7548746518105847	neutral	011	sub-12	2.0	6.0	011_neutral	1.0	trustworthiness	207.35712468128077	1.5082953728051507
31.0	180.59629185682206	pulse	1.0	t		36.0	female	white	2.7548746518105847	neutral	011	sub-12	2.0	6.0	011_neutral	1.0	trustworthiness	207.44890368505185	
31.0	181.2962714213745	pulse	1.0	t		36.0	female	white	2.7548746518105847	neutral	011	sub-12	2.0	6.0	011_neutral	1.0	trustworthiness	208.1488832496043	
31.0	181.9962534007518	pulse	1.0	t		36.0	female	white	2.7548746518105847	neutral	011	sub-12	2.0	6.0	011_neutral	1.0	trustworthiness	208.8488652289816	
31.0	182.01280822585613	rating	2.0		295	36.0	female	white	2.7548746518105847	neutral	011	sub-12	2.0	6.0	011_neutral	1.0	trustworthiness	208.86542005408592	2.491598073091154
31.0	182.69624685054168	pulse	2.0	t		36.0	female	white	2.7548746518105847	neutral	011	sub-12	2.0	6.0	011_neutral	1.0	trustworthiness	209.54885867877147	
31.0	183.3962182650639	pulse	2.0	t		36.0	female	white	2.7548746518105847	neutral	011	sub-12	2.0	6.0	011_neutral	1.0	trustworthiness	210.2488300932937	
31.0	184.0962059796475	pulse	2.0	t		36.0	female	white	2.7548746518105847	neutral	011	sub-12	2.0	6.0	011_neutral	1.0	trustworthiness	210.94881780787728	
31.0	184.5044062989473	fix	3.0		443	36.0	female	white	2.7548746518105847	neutral	011	sub-12	2.0	6.0	011_neutral	1.0	trustworthiness	211.35701812717707	3.7665616922604386
31.0	184.79617950714055	pulse	3.0	t		36.0	female	white	2.7548746518105847	neutral	011	sub-12	2.0	6.0	011_neutral	1.0	trustworthiness	211.64879133537033	
31.0	185.07948724837206	response	3.0	e		36.0	female	white	2.7548746518105847	neutral	011	sub-12	2.0	6.0	011_neutral	1.0	trustworthiness	211.93209907660184	
31.0	185.49616722172414	pulse	3.0	t		36.0	female	white	2.7548746518105847	neutral	011	sub-12	2.0	6.0	011_neutral	1.0	trustworthiness	212.34877904995392	
31.0	186.19615040851295	pulse	3.0	t		36.0	female	white	2.7548746518105847	neutral	011	sub-12	2.0	6.0	011_neutral	1.0	trustworthiness	213.04876223674273	
31.0	186.89611518226957	pulse	3.0	t		36.0	female	white	2.7548746518105847	neutral	011	sub-12	2.0	6.0	011_neutral	1.0	trustworthiness	213.74872701049935	
31.0	187.59611346170732	pulse	3.0	t		36.0	female	white	2.7548746518105847	neutral	011	sub-12	2.0	6.0	011_neutral	1.0	trustworthiness	214.4487252899371	
32.0	188.27096799120773	face	0.0		145	28.0	male	east_asian	1.5563072025467568	smiling	005	sub-12	2.0	6.0	005_smiling	0.0		215.1235798194375	1.2333024738964014
32.0	188.2960942336722	pulse	0.0	t		28.0	male	east_asian	1.5563072025467568	smiling	005	sub-12	2.0	6.0	005_smiling	0.0		215.14870606190198	
32.0	188.99608164640267	pulse	0.0	t		28.0	male	east_asian	1.5563072025467568	smiling	005	sub-12	2.0	6.0	005_smiling	0.0		215.84869347463246	
32.0	189.50427046510413	fix	1.0		443	28.0	male	east_asian	1.5563072025467568	smiling	005	sub-12	2.0	6.0	005_smiling	0.0		216.3568822933339	3.7582386999074515
32.0	189.6960527590727	pulse	1.0	t		28.0	male	east_asian	1.5563072025467568	smiling	005	sub-12	2.0	6.0	005_smiling	0.0		216.54866458730248	
32.0	190.3960290032428	pulse	1.0	t		28.0	male	east_asian	1.5563072025467568	smiling	005	sub-12	2.0	6.0	005_smiling	0.0		217.24864083147258	
32.0	191.09600886964836	pulse	1.0	t		28.0	male	east_asian	1.5563072025467568	smiling	005	sub-12	2.0	6.0	005_smiling	0.0		217.94862069787814	
32.0	191.79599628237884	pulse	1.0	t		28.0	male	east_asian	1.5563072025467568	smiling	005	sub-12	2.0	6.0	005_smiling	0.0		218.64860811060862	
32.0	192.4959695080188	pulse	1.0	t		28.0	male	east_asian	1.5563072025467568	smiling	005	sub-12	2.0	6.0	005_smiling	0.0		219.34858133624857	
32.0	193.19595027998366	pulse	1.0	t		28.0	male	east_asian	1.5563072025467568	smiling	005	sub-12	2.0	6.0	005_smiling	0.0		220.04856210821345	
33.0	193.26250916501158	face	0.0		147	23.0	male	white	2.6275368085953046	smiling	141	sub-12	2.0	6.0	141_smiling	0.0		220.11512099324136	1.2416308996034786
33.0	193.89593678715573	pulse	0.0	t		23.0	male	white	2.6275368085953046	smiling	141	sub-12	2.0	6.0	141_smiling	0.0		220.74854861538552	
33.0	194.50414006461506	fix	1.0		443	23.0	male	white	2.6275368085953046	smiling	141	sub-12	2.0	6.0	141_smiling	0.0		221.35675189284484	3.75823024802321
33.0	194.59592752026856	pulse	1.0	t		23.0	male	white	2.6275368085953046	smiling	141	sub-12	2.0	6.0	141_smiling	0.0		221.44853934849834	
33.0	195.29590799038124	pulse	1.0	t		23.0	male	white	2.6275368085953046	smiling	141	sub-12	2.0	6.0	141_smiling	0.0		222.14851981861102	
33.0	195.99587910305036	pulse	1.0	t		23.0	male	white	2.6275368085953046	smiling	141	sub-12	2.0	6.0	141_smiling	0.0		222.84849093128014	
33.0	196.69586168613296	pulse	1.0	t		23.0	male	white	2.6275368085953046	smiling	141	sub-12	2.0	6.0	141_smiling	0.0		223.54847351436274	
33.0	197.39584849515722	pulse	1.0	t		23.0	male	white	2.6275368085953046	smiling	141	sub-12	2.0	6.0	141_smiling	0.0		224.248460323387	
33.0	198.0958220226512	pulse	1.0	t		23.0	male	white	2.6275368085953046	smiling	141	sub-12	2.0	6.0	141_smiling	0.0		224.94843385088097	
34.0	198.26237031263827	face	0.0		147	24.0	female	black	3.0955033824114606	smiling	099	sub-12	2.0	6.0	099_smiling	0.0		225.11498214086805	1.249969286459418
34.0	198.79580641685152	pulse	0.0	t		24.0	female	black	3.0955033824114606	smiling	099	sub-12	2.0	6.0	099_smiling	0.0		225.6484182450813	
34.0	199.4958068092601	pulse	0.0	t		24.0	female	black	3.0955033824114606	smiling	099	sub-12	2.0	6.0	099_smiling	0.0		226.34841863748989	
34.0	199.5123395990977	fix	1.0		443	24.0	female	black	3.0955033824114606	smiling	099	sub-12	2.0	6.0	099_smiling	0.0		226.36495142732747	3.7582377943481333
34.0	200.19577309228225	pulse	1.0	t		24.0	female	black	3.0955033824114606	smiling	099	sub-12	2.0	6.0	099_smiling	0.0		227.04838492051204	
34.0	200.89574843089304	pulse	1.0	t		24.0	female	black	3.0955033824114606	smiling	099	sub-12	2.0	6.0	099_smiling	0.0		227.74836025912282	
34.0	201.59572618432776	pulse	1.0	t		24.0	female	black	3.0955033824114606	smiling	099	sub-12	2.0	6.0	099_smiling	0.0		228.44833801255754	
34.0	202.29570786185195	pulse	1.0	t		24.0	female	black	3.0955033824114606	smiling	099	sub-12	2.0	6.0	099_smiling	0.0		229.14831969008173	
34.0	202.9956880301106	pulse	1.0	t		24.0	female	black	3.0955033824114606	smiling	099	sub-12	2.0	6.0	099_smiling	0.0		229.8482998583404	
35.0	203.27057739344582	face	0.0		145	28.0	male	east_asian	1.5563072025467568	neutral	005	sub-12	2.0	6.0	005_neutral	0.0		230.1231892216756	1.23329402201216
35.0	203.69566065204526	pulse	0.0	t		28.0	male	east_asian	1.5563072025467568	neutral	005	sub-12	2.0	6.0	005_neutral	0.0		230.54827248027505	
35.0	204.39566345927778	pulse	0.0	t		28.0	male	east_asian	1.5563072025467568	neutral	005	sub-12	2.0	6.0	005_neutral	0.0		231.24827528750757	
35.0	204.50387141545798	fix	1.0		444	28.0	male	east_asian	1.5563072025467568	neutral	005	sub-12	2.0	6.0	005_neutral	0.0		231.35648324368776	3.766562899672863
35.0	205.09563608121243	pulse	1.0	t		28.0	male	east_asian	1.5563072025467568	neutral	005	sub-12	2.0	6.0	005_neutral	0.0		231.94824790944222	
35.0	205.79561866429503	pulse	1.0	t		28.0	male	east_asian	1.5563072025467568	neutral	005	sub-12	2.0	6.0	005_neutral	0.0		232.64823049252482	
35.0	206.49562871599937	pulse	1.0	t		28.0	male	east_asian	1.5563072025467568	neutral	005	sub-12	2.0	6.0	005_neutral	0.0		233.34824054422916	
35.0	207.1955814156363	pulse	1.0	t		28.0	male	east_asian	1.5563072025467568	neutral	005	sub-12	2.0	6.0	005_neutral	0.0		234.04819324386608	
35.0	207.89555916907193	pulse	1.0	t		28.0	male	east_asian	1.5563072025467568	neutral	005	sub-12	2.0	6.0	005_neutral	0.0		234.7481709973017	
36.0	208.27043431513084	face	0.0		145	54.0	female	white	2.286908077994429	neutral	136	sub-12	2.0	6.0	136_neutral	0.0		235.12304614336063	1.2333027757495074
36.0	208.59554748736082	pulse	0.0	t		54.0	female	white	2.286908077994429	neutral	136	sub-12	2.0	6.0	136_neutral	0.0		235.4481593155906	
36.0	209.2955231278247	pulse	0.0	t		54.0	female	white	2.286908077994429	neutral	136	sub-12	2.0	6.0	136_neutral	0.0		236.1481349560545	
36.0	209.50373709088035	fix	1.0		444	54.0	female	white	2.286908077994429	neutral	136	sub-12	2.0	6.0	136_neutral	0.0		236.35634891911013	3.758343141039404
36.0	209.995517785027	pulse	1.0	t		54.0	female	white	2.286908077994429	neutral	136	sub-12	2.0	6.0	136_neutral	0.0		236.8481296132568	
36.0	210.69549221807938	pulse	1.0	t		54.0	female	white	2.286908077994429	neutral	136	sub-12	2.0	6.0	136_neutral	0.0		237.54810404630916	
36.0	211.39546212333698	pulse	1.0	t		54.0	female	white	2.286908077994429	neutral	136	sub-12	2.0	6.0	136_neutral	0.0		238.24807395156677	
36.0	212.09544983792057	pulse	1.0	t		54.0	female	white	2.286908077994429	neutral	136	sub-12	2.0	6.0	136_neutral	0.0		238.94806166615035	
36.0	212.7954284969146	pulse	1.0	t		54.0	female	white	2.286908077994429	neutral	136	sub-12	2.0	6.0	136_neutral	0.0		239.6480403251444	
37.0	213.26208023191975	face	0.0		146	20.0	female	white	3.9502586549940313	neutral	091	sub-12	2.0	6.0	091_neutral	1.0	attractiveness	240.11469206014954	1.2415237417935714
37.0	213.4954168152035	pulse	0.0	t		20.0	female	white	3.9502586549940313	neutral	091	sub-12	2.0	6.0	091_neutral	1.0	attractiveness	240.34802864343328	
37.0	214.1953924556683	pulse	0.0	t		20.0	female	white	3.9502586549940313	neutral	091	sub-12	2.0	6.0	091_neutral	1.0	attractiveness	241.04800428389808	
37.0	214.50360397371333	fix	1.0		177	20.0	female	white	3.9502586549940313	neutral	091	sub-12	2.0	6.0	091_neutral	1.0	attractiveness	241.3562158019431	1.499964532275044
37.0	214.89537805728014	pulse	1.0	t		20.0	female	white	3.9502586549940313	neutral	091	sub-12	2.0	6.0	091_neutral	1.0	attractiveness	241.74798988550992	
37.0	215.5953518866263	pulse	1.0	t		20.0	female	white	3.9502586549940313	neutral	091	sub-12	2.0	6.0	091_neutral	1.0	attractiveness	242.4479637148561	
37.0	216.00356850598837	rating	2.0		294	20.0	female	white	3.9502586549940313	neutral	091	sub-12	2.0	6.0	091_neutral	1.0	attractiveness	242.85618033421815	2.4999304228867913
37.0	216.2953586179483	pulse	2.0	t		20.0	female	white	3.9502586549940313	neutral	091	sub-12	2.0	6.0	091_neutral	1.0	attractiveness	243.14797044617808	
37.0	216.9953218824403	pulse	2.0	t		20.0	female	white	3.9502586549940313	neutral	091	sub-12	2.0	6.0	091_neutral	1.0	attractiveness	243.84793371067008	
37.0	217.4536479084154	response	2.0	w		20.0	female	white	3.9502586549940313	neutral	091	sub-12	2.0	6.0	091_neutral	1.0	attractiveness	244.3062597366452	
37.0	217.69528393951987	pulse	2.0	t		20.0	female	white	3.9502586549940313	neutral	091	sub-12	2.0	6.0	091_neutral	1.0	attractiveness	244.54789576774965	
37.0	218.39527980413368	pulse	2.0	t		20.0	female	white	3.9502586549940313	neutral	091	sub-12	2.0	6.0	091_neutral	1.0	attractiveness	245.24789163236346	
37.0	218.50349892887516	fix	3.0		444	20.0	female	white	3.9502586549940313	neutral	091	sub-12	2.0	6.0	091_neutral	1.0	attractiveness	245.35611075710494	3.7665610885542264
37.0	219.0952632927756	pulse	3.0	t		20.0	female	white	3.9502586549940313	neutral	091	sub-12	2.0	6.0	091_neutral	1.0	attractiveness	245.94787512100538	
37.0	219.79524044250502	pulse	3.0	t		20.0	female	white	3.9502586549940313	neutral	091	sub-12	2.0	6.0	091_neutral	1.0	attractiveness	246.6478522707348	
37.0	220.49524838123853	pulse	3.0	t		20.0	female	white	3.9502586549940313	neutral	091	sub-12	2.0	6.0	091_neutral	1.0	attractiveness	247.3478602094683	
37.0	221.19520892905348	pulse	3.0	t		20.0	female	white	3.9502586549940313	neutral	091	sub-12	2.0	6.0	091_neutral	1.0	attractiveness	248.04782075728326	
37.0	221.89518879545903	pulse	3.0	t		20.0	female	white	3.9502586549940313	neutral	091	sub-12	2.0	6.0	091_neutral	1.0	attractiveness	248.74780062368882	
38.0	222.2700600174294	face	0.0		145	30.0	female	black	2.7345801830481498	neutral	062	sub-12	2.0	6.0	062_neutral	0.0		249.12267184565917	1.2333039831610222
38.0	222.5951692655708	pulse	0.0	t		30.0	female	black	2.7345801830481498	neutral	062	sub-12	2.0	6.0	062_neutral	0.0		249.4477810938006	
38.0	223.29514701900553	pulse	0.0	t		30.0	female	black	2.7345801830481498	neutral	062	sub-12	2.0	6.0	062_neutral	0.0		250.1477588472353	
38.0	223.5033640005904	fix	1.0		444	30.0	female	black	2.7345801830481498	neutral	062	sub-12	2.0	6.0	062_neutral	0.0		250.3559758288202	3.7583108427706975
38.0	223.9951335261776	pulse	1.0	t		30.0	female	black	2.7345801830481498	neutral	062	sub-12	2.0	6.0	062_neutral	0.0		250.84774535440738	
38.0	224.69511248702474	pulse	1.0	t		30.0	female	black	2.7345801830481498	neutral	062	sub-12	2.0	6.0	062_neutral	0.0		251.54772431525453	
38.0	225.3950977867844	pulse	1.0	t		30.0	female	black	2.7345801830481498	neutral	062	sub-12	2.0	6.0	062_neutral	0.0		252.24770961501417	
38.0	226.09507916245457	pulse	1.0	t		30.0	female	black	2.7345801830481498	neutral	062	sub-12	2.0	6.0	062_neutral	0.0		252.94769099068435	
38.0	226.79505359550694	pulse	1.0	t		30.0	female	black	2.7345801830481498	neutral	062	sub-12	2.0	6.0	062_neutral	0.0		253.64766542373673	
39.0	227.2616748433611	face	0.0		146	19.0	male	white	2.243931555909272	neutral	130	sub-12	2.0	6.0	130_neutral	0.0		254.1142866715909	1.2415545307985667
39.0	227.495040102679	pulse	0.0	t		19.0	male	white	2.243931555909272	neutral	130	sub-12	2.0	6.0	130_neutral	0.0		254.3476519309088	
39.0	228.19501845981995	pulse	0.0	t		19.0	male	white	2.243931555909272	neutral	130	sub-12	2.0	6.0	130_neutral	0.0		255.04763028804973	
39.0	228.50322937415967	fix	1.0		444	19.0	male	white	2.243931555909272	neutral	130	sub-12	2.0	6.0	130_neutral	0.0		255.35584120238946	3.749901520463027
39.0	228.8950043632849	pulse	1.0	t		19.0	male	white	2.243931555909272	neutral	130	sub-12	2.0	6.0	130_neutral	0.0		255.74761619151468	
39.0	229.59499177601538	pulse	1.0	t		19.0	male	white	2.243931555909272	neutral	130	sub-12	2.0	6.0	130_neutral	0.0		256.44760360424516	
39.0	230.29496137941987	pulse	1.0	t		19.0	male	white	2.243931555909272	neutral	130	sub-12	2.0	6.0	130_neutral	0.0		257.14757320764966	
39.0	230.99494366065028	pulse	1.0	t		19.0	male	white	2.243931555909272	neutral	130	sub-12	2.0	6.0	130_neutral	0.0		257.84755548888006	
39.0	231.6949208103788	pulse	1.0	t		19.0	male	white	2.243931555909272	neutral	130	sub-12	2.0	6.0	130_neutral	0.0		258.5475326386086	
40.0	232.2531308946227	fix	0.0		720													259.1057427228525	5.999837904947526
40.0	232.39491275090404	pulse	0.0	t														259.2475245791338	
40.0	233.0948853728387	pulse	0.0	t														259.9474972010685	
40.0	233.79487580409932	pulse	0.0	t														260.6474876323291	
40.0	234.49484812417995	pulse	0.0	t														261.34745995240974	
40.0	235.19483764988126	pulse	0.0	t														262.04744947811105	
40.0	235.89481721443462	pulse	0.0	t														262.7474290426644	
40.0	236.5947925530454	pulse	0.0	t														263.4474043812752	
40.0	237.29477091018634	pulse	0.0	t														264.1473827384161	
40.0	237.99476737850637	pulse	0.0	t														264.84737920673615	
