trial_nr	onset	event_type	phase	response	nr_frames	face_age	face_sex	face_eth	attractiveness	expression	face_id	sub_id	ses	run	trial_type	catch	rating_type	onset_abs	duration
-1.0	0.061139785640079936	fix	0.0		713													20.94137949457945	5.9579054415671635
-1.0	-6.812886845801586	response	0.0	b														14.067352863137785	
-1.0	0.7026129457672141	pulse	0.0	t														21.582852654706585	
-1.0	1.402604282534412	pulse	0.0	t														22.282843991473783	
-1.0	2.1025817339805144	pulse	0.0	t														22.982821442919885	
-1.0	2.8025637132486736	pulse	0.0	t														23.682803422188044	
-1.0	3.5025484092093393	pulse	0.0	t														24.38278811814871	
-1.0	4.202551518314067	pulse	0.0	t														25.082791227253438	
-1.0	4.902534705001926	pulse	0.0	t														25.782774413941297	
-1.0	5.602510647173403	pulse	0.0	t														26.482750356112774	
0.0	6.019045227207243	face	0.0		144	26.0	female	white	4.854755272582572	smiling	027	sub-08	2.0	2.0	027_smiling	0.0		26.899284936146614	1.233331351153538
0.0	6.302507719181449	pulse	0.0	t		26.0	female	white	4.854755272582572	smiling	027	sub-08	2.0	2.0	027_smiling	0.0		27.18274742812082	
0.0	7.002485774337401	pulse	0.0	t		26.0	female	white	4.854755272582572	smiling	027	sub-08	2.0	2.0	027_smiling	0.0		27.882725483276772	
0.0	7.252376578360781	fix	1.0		444	26.0	female	white	4.854755272582572	smiling	027	sub-08	2.0	2.0	027_smiling	0.0		28.132616287300152	3.7582366366614224
0.0	7.702468659169426	pulse	1.0	t		26.0	female	white	4.854755272582572	smiling	027	sub-08	2.0	2.0	027_smiling	0.0		28.582708368108797	
0.0	8.402457581098133	pulse	1.0	t		26.0	female	white	4.854755272582572	smiling	027	sub-08	2.0	2.0	027_smiling	0.0		29.282697290037504	
0.0	9.102439560366292	pulse	1.0	t		26.0	female	white	4.854755272582572	smiling	027	sub-08	2.0	2.0	027_smiling	0.0		29.982679269305663	
0.0	9.802432406407206	pulse	1.0	t		26.0	female	white	4.854755272582572	smiling	027	sub-08	2.0	2.0	027_smiling	0.0		30.682672115346577	
0.0	10.502400802209195	pulse	1.0	t		26.0	female	white	4.854755272582572	smiling	027	sub-08	2.0	2.0	027_smiling	0.0		31.382640511148566	
1.0	11.010613215022204	face	0.0		146	24.0	female	black	3.0955033824114606	neutral	099	sub-08	2.0	2.0	099_neutral	1.0	attractiveness	31.890852923961575	1.2416242082726967
1.0	11.20239666679845	pulse	0.0	t		24.0	female	black	3.0955033824114606	neutral	099	sub-08	2.0	2.0	099_neutral	1.0	attractiveness	32.08263637573782	
1.0	11.902373212679777	pulse	0.0	t		24.0	female	black	3.0955033824114606	neutral	099	sub-08	2.0	2.0	099_neutral	1.0	attractiveness	32.78261292161915	
1.0	12.2522374232949	fix	1.0		177	24.0	female	black	3.0955033824114606	neutral	099	sub-08	2.0	2.0	099_neutral	1.0	attractiveness	33.13247713223427	1.5083660569098356
1.0	12.60234130662684	pulse	1.0	t		24.0	female	black	3.0955033824114606	neutral	099	sub-08	2.0	2.0	099_neutral	1.0	attractiveness	33.48258101556621	
1.0	13.3023727900827	pulse	1.0	t		24.0	female	black	3.0955033824114606	neutral	099	sub-08	2.0	2.0	099_neutral	1.0	attractiveness	34.18261249902207	
1.0	13.760603480204736	rating	2.0		293	24.0	female	black	3.0955033824114606	neutral	099	sub-08	2.0	2.0	099_neutral	1.0	attractiveness	34.64084318914411	2.491580212934423
1.0	14.002341789594539	pulse	2.0	t		24.0	female	black	3.0955033824114606	neutral	099	sub-08	2.0	2.0	099_neutral	1.0	attractiveness	34.88258149853391	
1.0	14.702336748619018	pulse	2.0	t		24.0	female	black	3.0955033824114606	neutral	099	sub-08	2.0	2.0	099_neutral	1.0	attractiveness	35.58257645755839	
1.0	15.40231178522663	pulse	2.0	t		24.0	female	black	3.0955033824114606	neutral	099	sub-08	2.0	2.0	099_neutral	1.0	attractiveness	36.282551494166	
1.0	16.102265691997673	pulse	2.0	t		24.0	female	black	3.0955033824114606	neutral	099	sub-08	2.0	2.0	099_neutral	1.0	attractiveness	36.98250540093704	
1.0	16.21375063351752	response	2.0	b		24.0	female	black	3.0955033824114606	neutral	099	sub-08	2.0	2.0	099_neutral	1.0	attractiveness	37.09399034245689	
1.0	16.25218369313916	fix	3.0		444	24.0	female	black	3.0955033824114606	neutral	099	sub-08	2.0	2.0	099_neutral	1.0	attractiveness	37.13242340207853	3.75824357932197
1.0	16.802267895537625	pulse	3.0	t		24.0	female	black	3.0955033824114606	neutral	099	sub-08	2.0	2.0	099_neutral	1.0	attractiveness	37.682507604476996	
1.0	17.50226376012688	pulse	3.0	t		24.0	female	black	3.0955033824114606	neutral	099	sub-08	2.0	2.0	099_neutral	1.0	attractiveness	38.38250346906625	
1.0	18.20225509689317	pulse	3.0	t		24.0	female	black	3.0955033824114606	neutral	099	sub-08	2.0	2.0	099_neutral	1.0	attractiveness	39.08249480583254	
1.0	18.902232850194196	pulse	3.0	t		24.0	female	black	3.0955033824114606	neutral	099	sub-08	2.0	2.0	099_neutral	1.0	attractiveness	39.782472559133566	
1.0	19.602229620348226	pulse	3.0	t		24.0	female	black	3.0955033824114606	neutral	099	sub-08	2.0	2.0	099_neutral	1.0	attractiveness	40.482469329287596	
2.0	20.01042727246113	face	0.0		146	31.0	female	east_asian	3.395941106247513	neutral	087	sub-08	2.0	2.0	087_neutral	0.0		40.8906669814005	1.2416595252843763
2.0	20.302217033002307	pulse	0.0	t		31.0	female	east_asian	3.395941106247513	neutral	087	sub-08	2.0	2.0	087_neutral	0.0		41.18245674194168	
2.0	21.00219267331977	pulse	0.0	t		31.0	female	east_asian	3.395941106247513	neutral	087	sub-08	2.0	2.0	087_neutral	0.0		41.88243238225914	
2.0	21.252086797745505	fix	1.0		444	31.0	female	east_asian	3.395941106247513	neutral	087	sub-08	2.0	2.0	087_neutral	0.0		42.132326506684876	3.7582360329515723
2.0	21.702187934199173	pulse	1.0	t		31.0	female	east_asian	3.395941106247513	neutral	087	sub-08	2.0	2.0	087_neutral	0.0		42.582427643138544	
2.0	22.40216266895186	pulse	1.0	t		31.0	female	east_asian	3.395941106247513	neutral	087	sub-08	2.0	2.0	087_neutral	0.0		43.28240237789123	
2.0	23.102142535235544	pulse	1.0	t		31.0	female	east_asian	3.395941106247513	neutral	087	sub-08	2.0	2.0	087_neutral	0.0		43.982382244174914	
2.0	23.802129344180685	pulse	1.0	t		31.0	female	east_asian	3.395941106247513	neutral	087	sub-08	2.0	2.0	087_neutral	0.0		44.682369053120055	
2.0	24.50212701989858	pulse	1.0	t		31.0	female	east_asian	3.395941106247513	neutral	087	sub-08	2.0	2.0	087_neutral	0.0		45.38236672883795	
3.0	25.010322830697078	face	0.0		146	22.0	male	black	2.767608436132113	neutral	044	sub-08	2.0	2.0	044_neutral	0.0		45.89056253963645	1.2416543937533788
3.0	25.202115338117437	pulse	0.0	t		22.0	male	black	2.767608436132113	neutral	044	sub-08	2.0	2.0	044_neutral	0.0		46.08235504705681	
3.0	25.902087959886558	pulse	0.0	t		22.0	male	black	2.767608436132113	neutral	044	sub-08	2.0	2.0	044_neutral	0.0		46.78232766882593	
3.0	26.251977224450457	fix	1.0		443	22.0	male	black	2.767608436132113	neutral	044	sub-08	2.0	2.0	044_neutral	0.0		47.13221693338983	3.7582426737581045
3.0	26.602088050442944	pulse	1.0	t		22.0	male	black	2.767608436132113	neutral	044	sub-08	2.0	2.0	044_neutral	0.0		47.482327759382315	
3.0	27.19373645237829	response	1.0	b		22.0	male	black	2.767608436132113	neutral	044	sub-08	2.0	2.0	044_neutral	0.0		48.07397616131766	
3.0	27.302055238825233	pulse	1.0	t		22.0	male	black	2.767608436132113	neutral	044	sub-08	2.0	2.0	044_neutral	0.0		48.1822949477646	
3.0	28.002047481157206	pulse	1.0	t		22.0	male	black	2.767608436132113	neutral	044	sub-08	2.0	2.0	044_neutral	0.0		48.88228719009658	
3.0	28.70202674373195	pulse	1.0	t		22.0	male	black	2.767608436132113	neutral	044	sub-08	2.0	2.0	044_neutral	0.0		49.58226645267132	
3.0	29.401996045097803	pulse	1.0	t		22.0	male	black	2.767608436132113	neutral	044	sub-08	2.0	2.0	044_neutral	0.0		50.282235754037174	
4.0	30.01021989820856	face	0.0		146	19.0	male	white	2.243931555909272	smiling	130	sub-08	2.0	2.0	130_smiling	0.0		50.89045960714793	1.2416453381083556
4.0	30.10202330258744	pulse	0.0	t		19.0	male	white	2.243931555909272	smiling	130	sub-08	2.0	2.0	130_smiling	0.0		50.98226301152681	
4.0	30.801995018791786	pulse	0.0	t		19.0	male	white	2.243931555909272	smiling	130	sub-08	2.0	2.0	130_smiling	0.0		51.68223472773116	
4.0	31.251865236316917	fix	1.0		444	19.0	male	white	2.243931555909272	smiling	130	sub-08	2.0	2.0	130_smiling	0.0		52.13210494525629	3.75821822351827
4.0	31.502002957573495	pulse	1.0	t		19.0	male	white	2.243931555909272	smiling	130	sub-08	2.0	2.0	130_smiling	0.0		52.382242666512866	
4.0	32.201959581037045	pulse	1.0	t		19.0	male	white	2.243931555909272	smiling	130	sub-08	2.0	2.0	130_smiling	0.0		53.082199289976415	
4.0	32.90197748102764	pulse	1.0	t		19.0	male	white	2.243931555909272	smiling	130	sub-08	2.0	2.0	130_smiling	0.0		53.782217189967014	
4.0	33.60193380263627	pulse	1.0	t		19.0	male	white	2.243931555909272	smiling	130	sub-08	2.0	2.0	130_smiling	0.0		54.48217351157564	
4.0	34.30191698932413	pulse	1.0	t		19.0	male	white	2.243931555909272	smiling	130	sub-08	2.0	2.0	130_smiling	0.0		55.1821566982635	
5.0	35.01008345983519	face	0.0		147	40.0	male	white	1.868682849184242	neutral	172	sub-08	2.0	2.0	172_neutral	0.0		55.89032316877456	1.241679749557079
5.0	35.003356625456036	pulse	0.0	t		40.0	male	white	1.868682849184242	neutral	172	sub-08	2.0	2.0	172_neutral	0.0		55.883596334395406	
5.0	35.70189905914867	pulse	0.0	t		40.0	male	white	1.868682849184242	neutral	172	sub-08	2.0	2.0	172_neutral	0.0		56.58213876808804	
5.0	36.251763209392266	fix	1.0		443	40.0	male	white	1.868682849184242	neutral	172	sub-08	2.0	2.0	172_neutral	0.0		57.13200291833164	3.7582746703674275
5.0	36.401875906884925	pulse	1.0	t		40.0	male	white	1.868682849184242	neutral	172	sub-08	2.0	2.0	172_neutral	0.0		57.282115615824296	
5.0	37.10186754550614	pulse	1.0	t		40.0	male	white	1.868682849184242	neutral	172	sub-08	2.0	2.0	172_neutral	0.0		57.98210725444551	
5.0	37.801840469130184	pulse	1.0	t		40.0	male	white	1.868682849184242	neutral	172	sub-08	2.0	2.0	172_neutral	0.0		58.682080178069555	
5.0	38.50183180589738	pulse	1.0	t		40.0	male	white	1.868682849184242	neutral	172	sub-08	2.0	2.0	172_neutral	0.0		59.38207151483675	
5.0	39.20181559629418	pulse	1.0	t		40.0	male	white	1.868682849184242	neutral	172	sub-08	2.0	2.0	172_neutral	0.0		60.08205530523355	
5.0	39.90180149967455	pulse	1.0	t		40.0	male	white	1.868682849184242	neutral	172	sub-08	2.0	2.0	172_neutral	0.0		60.78204120861392	
6.0	40.01003787975969	face	0.0		147	19.0	male	white	3.2522881018702745	neutral	018	sub-08	2.0	2.0	018_neutral	1.0	trustworthiness	60.890277588699064	1.2416344713356011
6.0	40.60178498821642	pulse	0.0	t		19.0	male	white	3.2522881018702745	neutral	018	sub-08	2.0	2.0	018_neutral	1.0	trustworthiness	61.48202469715579	
6.0	41.251672351095294	fix	1.0		176	19.0	male	white	3.2522881018702745	neutral	018	sub-08	2.0	2.0	018_neutral	1.0	trustworthiness	62.131912060034665	1.49996966359231
6.0	41.30177964538689	pulse	1.0	t		19.0	male	white	3.2522881018702745	neutral	018	sub-08	2.0	2.0	018_neutral	1.0	trustworthiness	62.18201935432626	
6.0	42.00176253021891	pulse	1.0	t		19.0	male	white	3.2522881018702745	neutral	018	sub-08	2.0	2.0	018_neutral	1.0	trustworthiness	62.88200223915828	
6.0	42.7017487354542	pulse	1.0	t		19.0	male	white	3.2522881018702745	neutral	018	sub-08	2.0	2.0	018_neutral	1.0	trustworthiness	63.58198844439357	
6.0	42.751642014687604	rating	2.0		295	19.0	male	white	3.2522881018702745	neutral	018	sub-08	2.0	2.0	018_neutral	1.0	trustworthiness	63.631881723626975	2.499927705773189
6.0	43.401729205448646	pulse	2.0	t		19.0	male	white	3.2522881018702745	neutral	018	sub-08	2.0	2.0	018_neutral	1.0	trustworthiness	64.28196891438802	
6.0	44.10172144777971	pulse	2.0	t		19.0	male	white	3.2522881018702745	neutral	018	sub-08	2.0	2.0	018_neutral	1.0	trustworthiness	64.98196115671908	
6.0	44.80169950293566	pulse	2.0	t		19.0	male	white	3.2522881018702745	neutral	018	sub-08	2.0	2.0	018_neutral	1.0	trustworthiness	65.68193921187503	
6.0	44.976680810576	response	2.0	y		19.0	male	white	3.2522881018702745	neutral	018	sub-08	2.0	2.0	018_neutral	1.0	trustworthiness	65.85692051951537	
6.0	45.25156972046079	fix	3.0		444	19.0	male	white	3.2522881018702745	neutral	018	sub-08	2.0	2.0	018_neutral	1.0	trustworthiness	66.13180942940016	3.7665853369198885
6.0	45.50168570817095	pulse	3.0	t		19.0	male	white	3.2522881018702745	neutral	018	sub-08	2.0	2.0	018_neutral	1.0	trustworthiness	66.38192541711032	
6.0	46.20165380211711	pulse	3.0	t		19.0	male	white	3.2522881018702745	neutral	018	sub-08	2.0	2.0	018_neutral	1.0	trustworthiness	67.08189351105648	
6.0	46.901669890979065	pulse	3.0	t		19.0	male	white	3.2522881018702745	neutral	018	sub-08	2.0	2.0	018_neutral	1.0	trustworthiness	67.78190959991844	
6.0	47.60164764427918	pulse	3.0	t		19.0	male	white	3.2522881018702745	neutral	018	sub-08	2.0	2.0	018_neutral	1.0	trustworthiness	68.48188735321855	
6.0	48.30161996419338	pulse	3.0	t		19.0	male	white	3.2522881018702745	neutral	018	sub-08	2.0	2.0	018_neutral	1.0	trustworthiness	69.18185967313275	
7.0	49.01815505738068	face	0.0		146	24.0	male	white	3.1153999204138483	neutral	012	sub-08	2.0	2.0	012_neutral	0.0		69.89839476632005	1.2333141454291763
7.0	49.00456012057293	pulse	0.0	t		24.0	male	white	3.1153999204138483	neutral	012	sub-08	2.0	2.0	012_neutral	0.0		69.8847998295123	
7.0	49.70160837296862	pulse	0.0	t		24.0	male	white	3.1153999204138483	neutral	012	sub-08	2.0	2.0	012_neutral	0.0		70.58184808190799	
7.0	50.25146920280986	fix	1.0		443	24.0	male	white	3.1153999204138483	neutral	012	sub-08	2.0	2.0	012_neutral	0.0		71.13170891174923	3.7665874499034544
7.0	50.4015855225598	pulse	1.0	t		24.0	male	white	3.1153999204138483	neutral	012	sub-08	2.0	2.0	012_neutral	0.0		71.28182523149917	
7.0	51.1015693129566	pulse	1.0	t		24.0	male	white	3.1153999204138483	neutral	012	sub-08	2.0	2.0	012_neutral	0.0		71.98180902189597	
7.0	51.801557631176365	pulse	1.0	t		24.0	male	white	3.1153999204138483	neutral	012	sub-08	2.0	2.0	012_neutral	0.0		72.68179734011574	
7.0	52.50154836423371	pulse	1.0	t		24.0	male	white	3.1153999204138483	neutral	012	sub-08	2.0	2.0	012_neutral	0.0		73.38178807317308	
7.0	53.20152913608217	pulse	1.0	t		24.0	male	white	3.1153999204138483	neutral	012	sub-08	2.0	2.0	012_neutral	0.0		74.08176884502154	
7.0	53.90151111535033	pulse	1.0	t		24.0	male	white	3.1153999204138483	neutral	012	sub-08	2.0	2.0	012_neutral	0.0		74.7817508242897	
8.0	54.01805665271331	face	0.0		146	25.0	female	black	3.858336649423	smiling	126	sub-08	2.0	2.0	126_smiling	1.0	dominance	74.89829636165268	1.2333253140577654
8.0	54.601503357681395	pulse	0.0	t		25.0	female	black	3.858336649423	smiling	126	sub-08	2.0	2.0	126_smiling	1.0	dominance	75.48174306662077	
8.0	55.25138196677108	fix	1.0		176	25.0	female	black	3.858336649423	smiling	126	sub-08	2.0	2.0	126_smiling	1.0	dominance	76.13162167571045	1.4999654376242688
8.0	55.3014669238064	pulse	1.0	t		25.0	female	black	3.858336649423	smiling	126	sub-08	2.0	2.0	126_smiling	1.0	dominance	76.18170663274577	
8.0	56.00146429766937	pulse	1.0	t		25.0	female	black	3.858336649423	smiling	126	sub-08	2.0	2.0	126_smiling	1.0	dominance	76.88170400660874	
8.0	56.70144899363095	pulse	1.0	t		25.0	female	black	3.858336649423	smiling	126	sub-08	2.0	2.0	126_smiling	1.0	dominance	77.58168870257032	
8.0	56.75134740439535	rating	2.0		295	25.0	female	black	3.858336649423	smiling	126	sub-08	2.0	2.0	126_smiling	1.0	dominance	77.63158711333472	2.4999476281909665
8.0	57.401449687897184	pulse	2.0	t		25.0	female	black	3.858336649423	smiling	126	sub-08	2.0	2.0	126_smiling	1.0	dominance	78.28168939683655	
8.0	58.10143045974564	pulse	2.0	t		25.0	female	black	3.858336649423	smiling	126	sub-08	2.0	2.0	126_smiling	1.0	dominance	78.98167016868501	
8.0	58.80140942046546	pulse	2.0	t		25.0	female	black	3.858336649423	smiling	126	sub-08	2.0	2.0	126_smiling	1.0	dominance	79.68164912940483	
8.0	59.1794620403989	response	2.0	y		25.0	female	black	3.858336649423	smiling	126	sub-08	2.0	2.0	126_smiling	1.0	dominance	80.05970174933827	
8.0	59.25129503258631	fix	3.0		444	25.0	female	black	3.858336649423	smiling	126	sub-08	2.0	2.0	126_smiling	1.0	dominance	80.13153474152568	3.766569338615227
8.0	59.50137902368624	pulse	3.0	t		25.0	female	black	3.858336649423	smiling	126	sub-08	2.0	2.0	126_smiling	1.0	dominance	80.38161873262561	
8.0	60.201374284565645	pulse	3.0	t		25.0	female	black	3.858336649423	smiling	126	sub-08	2.0	2.0	126_smiling	1.0	dominance	81.08161399350502	
8.0	60.90137648810651	pulse	3.0	t		25.0	female	black	3.858336649423	smiling	126	sub-08	2.0	2.0	126_smiling	1.0	dominance	81.78161619704588	
8.0	61.60135575068125	pulse	3.0	t		25.0	female	black	3.858336649423	smiling	126	sub-08	2.0	2.0	126_smiling	1.0	dominance	82.48159545962062	
8.0	62.30133440954614	pulse	3.0	t		25.0	female	black	3.858336649423	smiling	126	sub-08	2.0	2.0	126_smiling	1.0	dominance	83.18157411848551	
9.0	63.01786437120154	face	0.0		145	26.0	male	white	2.7966573816155993	neutral	117	sub-08	2.0	2.0	117_neutral	1.0	dominance	83.89810408014091	1.2333334641371039
9.0	63.004326786806814	pulse	0.0	t		26.0	male	white	2.7966573816155993	neutral	117	sub-08	2.0	2.0	117_neutral	1.0	dominance	83.88456649574618	
9.0	63.701309234855216	pulse	0.0	t		26.0	male	white	2.7966573816155993	neutral	117	sub-08	2.0	2.0	117_neutral	1.0	dominance	84.58154894379459	
9.0	64.25119783533864	fix	1.0		177	26.0	male	white	2.7966573816155993	neutral	117	sub-08	2.0	2.0	117_neutral	1.0	dominance	85.13143754427801	1.4999654376242688
9.0	64.4013054012994	pulse	1.0	t		26.0	male	white	2.7966573816155993	neutral	117	sub-08	2.0	2.0	117_neutral	1.0	dominance	85.28154511023877	
9.0	65.10128466387414	pulse	1.0	t		26.0	male	white	2.7966573816155993	neutral	117	sub-08	2.0	2.0	117_neutral	1.0	dominance	85.98152437281351	
9.0	65.75116327296291	rating	2.0		294	26.0	male	white	2.7966573816155993	neutral	117	sub-08	2.0	2.0	117_neutral	1.0	dominance	86.63140298190228	2.4999464207721758
9.0	65.80126996354466	pulse	2.0	t		26.0	male	white	2.7966573816155993	neutral	117	sub-08	2.0	2.0	117_neutral	1.0	dominance	86.68150967248403	
9.0	66.5012619040217	pulse	2.0	t		26.0	male	white	2.7966573816155993	neutral	117	sub-08	2.0	2.0	117_neutral	1.0	dominance	87.38150161296107	
9.0	67.20120856627727	pulse	2.0	t		26.0	male	white	2.7966573816155993	neutral	117	sub-08	2.0	2.0	117_neutral	1.0	dominance	88.08144827521664	
9.0	67.90122857925053	pulse	2.0	t		26.0	male	white	2.7966573816155993	neutral	117	sub-08	2.0	2.0	117_neutral	1.0	dominance	88.7814682881899	
9.0	68.10954431696427	response	2.0	e		26.0	male	white	2.7966573816155993	neutral	117	sub-08	2.0	2.0	117_neutral	1.0	dominance	88.98978402590365	
9.0	68.25110969373509	fix	3.0		444	26.0	male	white	2.7966573816155993	neutral	117	sub-08	2.0	2.0	117_neutral	1.0	dominance	89.13134940267446	3.7582191290821356
9.0	68.60121538819567	pulse	3.0	t		26.0	male	white	2.7966573816155993	neutral	117	sub-08	2.0	2.0	117_neutral	1.0	dominance	89.48145509713504	
9.0	69.30119283964177	pulse	3.0	t		26.0	male	white	2.7966573816155993	neutral	117	sub-08	2.0	2.0	117_neutral	1.0	dominance	90.18143254858114	
9.0	70.00117934673108	pulse	3.0	t		26.0	male	white	2.7966573816155993	neutral	117	sub-08	2.0	2.0	117_neutral	1.0	dominance	90.88141905567045	
9.0	70.70115468519361	pulse	3.0	t		26.0	male	white	2.7966573816155993	neutral	117	sub-08	2.0	2.0	117_neutral	1.0	dominance	91.58139439413299	
9.0	71.40115326647629	pulse	3.0	t		26.0	male	white	2.7966573816155993	neutral	117	sub-08	2.0	2.0	117_neutral	1.0	dominance	92.28139297541566	
10.0	72.00932882281722	face	0.0		146	20.0	male	black	3.1070433744528456	smiling	082	sub-08	2.0	2.0	082_smiling	1.0	trustworthiness	92.8895685317566	1.2416785421382883
10.0	72.10114369767871	pulse	0.0	t		20.0	male	black	3.1070433744528456	smiling	082	sub-08	2.0	2.0	082_smiling	1.0	trustworthiness	92.98138340661808	
10.0	72.80112477138209	pulse	0.0	t		20.0	male	black	3.1070433744528456	smiling	082	sub-08	2.0	2.0	082_smiling	1.0	trustworthiness	93.68136448032146	
10.0	73.25100736495551	fix	1.0		177	20.0	male	black	3.1070433744528456	smiling	082	sub-08	2.0	2.0	082_smiling	1.0	trustworthiness	94.13124707389488	1.4999669468979846
10.0	73.50110493952161	pulse	1.0	t		20.0	male	black	3.1070433744528456	smiling	082	sub-08	2.0	2.0	082_smiling	1.0	trustworthiness	94.38134464846098	
10.0	74.20109386145032	pulse	1.0	t		20.0	male	black	3.1070433744528456	smiling	082	sub-08	2.0	2.0	082_smiling	1.0	trustworthiness	95.08133357038969	
10.0	74.7509743118535	rating	2.0		293	20.0	male	black	3.1070433744528456	smiling	082	sub-08	2.0	2.0	082_smiling	1.0	trustworthiness	95.63121402079287	2.499935855853437
10.0	74.90108912232972	pulse	2.0	t		20.0	male	black	3.1070433744528456	smiling	082	sub-08	2.0	2.0	082_smiling	1.0	trustworthiness	95.7813288312691	
10.0	75.6010777424035	pulse	2.0	t		20.0	male	black	3.1070433744528456	smiling	082	sub-08	2.0	2.0	082_smiling	1.0	trustworthiness	96.48131745134287	
10.0	76.30104523264072	pulse	2.0	t		20.0	male	black	3.1070433744528456	smiling	082	sub-08	2.0	2.0	082_smiling	1.0	trustworthiness	97.18128494158009	
10.0	76.36769054811066	response	2.0	y		20.0	male	black	3.1070433744528456	smiling	082	sub-08	2.0	2.0	082_smiling	1.0	trustworthiness	97.24793025705003	
10.0	76.62603872012278	response	2.0	b		20.0	male	black	3.1070433744528456	smiling	082	sub-08	2.0	2.0	082_smiling	1.0	trustworthiness	97.50627842906215	
10.0	77.00102811747274	pulse	2.0	t		20.0	male	black	3.1070433744528456	smiling	082	sub-08	2.0	2.0	082_smiling	1.0	trustworthiness	97.88126782641211	
10.0	77.25091016770693	fix	3.0		443	20.0	male	black	3.1070433744528456	smiling	082	sub-08	2.0	2.0	082_smiling	1.0	trustworthiness	98.1311498766463	3.7665856387748136
10.0	77.70102850988405	pulse	3.0	t		20.0	male	black	3.1070433744528456	smiling	082	sub-08	2.0	2.0	082_smiling	1.0	trustworthiness	98.58126821882342	
10.0	78.40101048915221	pulse	3.0	t		20.0	male	black	3.1070433744528456	smiling	082	sub-08	2.0	2.0	082_smiling	1.0	trustworthiness	99.28125019809158	
10.0	78.99264711875003	response	3.0	b		20.0	male	black	3.1070433744528456	smiling	082	sub-08	2.0	2.0	082_smiling	1.0	trustworthiness	99.8728868276894	
10.0	79.10098462019505	pulse	3.0	t		20.0	male	black	3.1070433744528456	smiling	082	sub-08	2.0	2.0	082_smiling	1.0	trustworthiness	99.98122432913442	
10.0	79.80096629760828	pulse	3.0	t		20.0	male	black	3.1070433744528456	smiling	082	sub-08	2.0	2.0	082_smiling	1.0	trustworthiness	100.68120600654765	
10.0	80.50092684518495	pulse	3.0	t		20.0	male	black	3.1070433744528456	smiling	082	sub-08	2.0	2.0	082_smiling	1.0	trustworthiness	101.38116655412432	
11.0	81.01749580648175	face	0.0		145	26.0	female	white	4.854755272582572	neutral	027	sub-08	2.0	2.0	027_neutral	0.0		101.89773551542112	1.2333144472841013
11.0	81.2009480655779	pulse	0.0	t		26.0	female	white	4.854755272582572	neutral	027	sub-08	2.0	2.0	027_neutral	0.0		102.08118777451728	
11.0	81.90093064855591	pulse	0.0	t		26.0	female	white	4.854755272582572	neutral	027	sub-08	2.0	2.0	027_neutral	0.0		102.78117035749528	
11.0	82.25081025376585	fix	1.0		444	26.0	female	white	4.854755272582572	neutral	027	sub-08	2.0	2.0	027_neutral	0.0		103.13104996270522	3.7665868461936043
11.0	82.60092107975834	pulse	1.0	t		26.0	female	white	4.854755272582572	neutral	027	sub-08	2.0	2.0	027_neutral	0.0		103.48116078869771	
11.0	83.30090215346172	pulse	1.0	t		26.0	female	white	4.854755272582572	neutral	027	sub-08	2.0	2.0	027_neutral	0.0		104.18114186240109	
11.0	84.00091250708192	pulse	1.0	t		26.0	female	white	4.854755272582572	neutral	027	sub-08	2.0	2.0	027_neutral	0.0		104.88115221602129	
11.0	84.70088241215763	pulse	1.0	t		26.0	female	white	4.854755272582572	neutral	027	sub-08	2.0	2.0	027_neutral	0.0		105.581122121097	
11.0	85.4008659006995	pulse	1.0	t		26.0	female	white	4.854755272582572	neutral	027	sub-08	2.0	2.0	027_neutral	0.0		106.28110560963887	
12.0	86.01739709995945	face	0.0		145	20.0	male	black	2.609629924393156	neutral	043	sub-08	2.0	2.0	043_neutral	0.0		106.89763680889882	1.2333201825258584
12.0	86.10091036391259	pulse	0.0	t		20.0	male	black	2.609629924393156	neutral	043	sub-08	2.0	2.0	043_neutral	0.0		106.98115007285196	
12.0	86.80082804810718	pulse	0.0	t		20.0	male	black	2.609629924393156	neutral	043	sub-08	2.0	2.0	043_neutral	0.0		107.68106775704655	
12.0	87.25071728248531	fix	1.0		444	20.0	male	black	2.609629924393156	neutral	043	sub-08	2.0	2.0	043_neutral	0.0		108.13095699142468	3.766566018211961
12.0	87.50082421455045	pulse	1.0	t		20.0	male	black	2.609629924393156	neutral	043	sub-08	2.0	2.0	043_neutral	0.0		108.38106392348982	
12.0	88.20078808253038	pulse	1.0	t		20.0	male	black	2.609629924393156	neutral	043	sub-08	2.0	2.0	043_neutral	0.0		109.08102779146975	
12.0	88.90077609889431	pulse	1.0	t		20.0	male	black	2.609629924393156	neutral	043	sub-08	2.0	2.0	043_neutral	0.0		109.78101580783368	
12.0	89.60077588759577	pulse	1.0	t		20.0	male	black	2.609629924393156	neutral	043	sub-08	2.0	2.0	043_neutral	0.0		110.48101559653514	
12.0	90.30075605573529	pulse	1.0	t		20.0	male	black	2.609629924393156	neutral	043	sub-08	2.0	2.0	043_neutral	0.0		111.18099576467466	
13.0	91.01728330069727	face	0.0		146	40.0	male	white	1.868682849184242	smiling	172	sub-08	2.0	2.0	172_smiling	0.0		111.89752300963664	1.233328936315047
13.0	91.00363704857227	pulse	0.0	t		40.0	male	white	1.868682849184242	smiling	172	sub-08	2.0	2.0	172_smiling	0.0		111.88387675751164	
13.0	91.70073903112461	pulse	0.0	t		40.0	male	white	1.868682849184242	smiling	172	sub-08	2.0	2.0	172_smiling	0.0		112.58097874006398	
13.0	92.25061223701232	fix	1.0		443	40.0	male	white	1.868682849184242	smiling	172	sub-08	2.0	2.0	172_smiling	0.0		113.13085194595169	3.7582336181130813
13.0	92.4007252363599	pulse	1.0	t		40.0	male	white	1.868682849184242	smiling	172	sub-08	2.0	2.0	172_smiling	0.0		113.28096494529927	
13.0	93.10069665070932	pulse	1.0	t		40.0	male	white	1.868682849184242	smiling	172	sub-08	2.0	2.0	172_smiling	0.0		113.9809363596487	
13.0	93.80067470586437	pulse	1.0	t		40.0	male	white	1.868682849184242	smiling	172	sub-08	2.0	2.0	172_smiling	0.0		114.68091441480374	
13.0	94.5006563832776	pulse	1.0	t		40.0	male	white	1.868682849184242	smiling	172	sub-08	2.0	2.0	172_smiling	0.0		115.38089609221697	
13.0	95.20066402020439	pulse	1.0	t		40.0	male	white	1.868682849184242	smiling	172	sub-08	2.0	2.0	172_smiling	0.0		116.08090372914376	
13.0	95.9006441883439	pulse	1.0	t		40.0	male	white	1.868682849184242	smiling	172	sub-08	2.0	2.0	172_smiling	0.0		116.78088389728327	
14.0	96.0088458551254	face	0.0		147	28.0	female	white	5.676880222841227	neutral	124	sub-08	2.0	2.0	124_neutral	0.0		116.88908556406477	1.2416613364139266
14.0	96.60061801753181	pulse	0.0	t		28.0	female	white	5.676880222841227	neutral	124	sub-08	2.0	2.0	124_neutral	0.0		117.48085772647119	
14.0	97.25050719153933	fix	1.0		443	28.0	female	white	5.676880222841227	neutral	124	sub-08	2.0	2.0	124_neutral	0.0		118.1307469004787	3.7665729608725087
14.0	97.30061629695956	pulse	1.0	t		28.0	female	white	5.676880222841227	neutral	124	sub-08	2.0	2.0	124_neutral	0.0		118.18085600589893	
14.0	98.0006157838061	pulse	1.0	t		28.0	female	white	5.676880222841227	neutral	124	sub-08	2.0	2.0	124_neutral	0.0		118.88085549274547	
14.0	98.70057693509261	pulse	1.0	t		28.0	female	white	5.676880222841227	neutral	124	sub-08	2.0	2.0	124_neutral	0.0		119.58081664403198	
14.0	99.40056495145654	pulse	1.0	t		28.0	female	white	5.676880222841227	neutral	124	sub-08	2.0	2.0	124_neutral	0.0		120.28080466039592	
14.0	100.1005481381444	pulse	1.0	t		28.0	female	white	5.676880222841227	neutral	124	sub-08	2.0	2.0	124_neutral	0.0		120.98078784708377	
14.0	100.8005458138623	pulse	1.0	t		28.0	female	white	5.676880222841227	neutral	124	sub-08	2.0	2.0	124_neutral	0.0		121.68078552280167	
15.0	101.01708015241184	face	0.0		145	22.0	female	west_asian	3.8205332272184642	neutral	066	sub-08	2.0	2.0	066_neutral	0.0		121.8973198613512	1.2333126361554605
15.0	101.50053262280744	pulse	0.0	t		22.0	female	west_asian	3.8205332272184642	neutral	066	sub-08	2.0	2.0	066_neutral	0.0		122.38077233174681	
15.0	102.2005019241733	pulse	0.0	t		22.0	female	west_asian	3.8205332272184642	neutral	066	sub-08	2.0	2.0	066_neutral	0.0		123.08074163311267	
15.0	102.2503927885673	fix	1.0		444	22.0	female	west_asian	3.8205332272184642	neutral	066	sub-08	2.0	2.0	066_neutral	0.0		123.13063249750667	3.7665841295010978
15.0	102.90050563698696	pulse	1.0	t		22.0	female	west_asian	3.8205332272184642	neutral	066	sub-08	2.0	2.0	066_neutral	0.0		123.78074534592633	
15.0	103.60048882367482	pulse	1.0	t		22.0	female	west_asian	3.8205332272184642	neutral	066	sub-08	2.0	2.0	066_neutral	0.0		124.4807285326142	
15.0	104.30045299350877	pulse	1.0	t		22.0	female	west_asian	3.8205332272184642	neutral	066	sub-08	2.0	2.0	066_neutral	0.0		125.18069270244814	
15.0	105.00044070801778	pulse	1.0	t		22.0	female	west_asian	3.8205332272184642	neutral	066	sub-08	2.0	2.0	066_neutral	0.0		125.88068041695715	
15.0	105.70043174293005	pulse	1.0	t		22.0	female	west_asian	3.8205332272184642	neutral	066	sub-08	2.0	2.0	066_neutral	0.0		126.58067145186942	
16.0	106.0169769180684	face	0.0		145	19.0	male	white	3.2522881018702745	smiling	018	sub-08	2.0	2.0	018_smiling	0.0		126.89721662700777	1.2333120324456104
16.0	106.40043304090614	pulse	0.0	t		19.0	male	white	3.2522881018702745	smiling	018	sub-08	2.0	2.0	018_smiling	0.0		127.28067274984551	
16.0	107.1004126053358	pulse	0.0	t		19.0	male	white	3.2522881018702745	smiling	018	sub-08	2.0	2.0	018_smiling	0.0		127.98065231427518	
16.0	107.250288950514	fix	1.0		444	19.0	male	white	3.2522881018702745	smiling	018	sub-08	2.0	2.0	018_smiling	0.0		128.13052865945338	3.766569338615227
16.0	107.80040484766687	pulse	1.0	t		19.0	male	white	3.2522881018702745	smiling	018	sub-08	2.0	2.0	018_smiling	0.0		128.68064455660624	
16.0	108.50037143234022	pulse	1.0	t		19.0	male	white	3.2522881018702745	smiling	018	sub-08	2.0	2.0	018_smiling	0.0		129.3806111412796	
16.0	109.20035612830088	pulse	1.0	t		19.0	male	white	3.2522881018702745	smiling	018	sub-08	2.0	2.0	018_smiling	0.0		130.08059583724025	
16.0	109.90034535208451	pulse	1.0	t		19.0	male	white	3.2522881018702745	smiling	018	sub-08	2.0	2.0	018_smiling	0.0		130.78058506102388	
16.0	110.60034091481884	pulse	1.0	t		19.0	male	white	3.2522881018702745	smiling	018	sub-08	2.0	2.0	018_smiling	0.0		131.48058062375821	
17.0	111.01685828912923	face	0.0		145	21.0	male	east_asian/white	3.501790688420215	neutral	036	sub-08	2.0	2.0	036_neutral	0.0		131.8970979980686	1.2333437272000083
17.0	111.30033527013438	pulse	0.0	t		21.0	male	east_asian/white	3.501790688420215	neutral	036	sub-08	2.0	2.0	036_neutral	0.0		132.18057497907375	
17.0	112.00030577891903	pulse	0.0	t		21.0	male	east_asian/white	3.501790688420215	neutral	036	sub-08	2.0	2.0	036_neutral	0.0		132.8805454878584	
17.0	112.25020201632924	fix	1.0		444	21.0	male	east_asian/white	3.501790688420215	neutral	036	sub-08	2.0	2.0	036_neutral	0.0		133.1304417252686	3.766569942325077
17.0	112.70029560641251	pulse	1.0	t		21.0	male	east_asian/white	3.501790688420215	neutral	036	sub-08	2.0	2.0	036_neutral	0.0		133.58053531535188	
17.0	113.40028332092152	pulse	1.0	t		21.0	male	east_asian/white	3.501790688420215	neutral	036	sub-08	2.0	2.0	036_neutral	0.0		134.2805230298609	
17.0	114.10025956494883	pulse	1.0	t		21.0	male	east_asian/white	3.501790688420215	neutral	036	sub-08	2.0	2.0	036_neutral	0.0		134.9804992738882	
17.0	114.80023762010387	pulse	1.0	t		21.0	male	east_asian/white	3.501790688420215	neutral	036	sub-08	2.0	2.0	036_neutral	0.0		135.68047732904324	
17.0	115.50024525703066	pulse	1.0	t		21.0	male	east_asian/white	3.501790688420215	neutral	036	sub-08	2.0	2.0	036_neutral	0.0		136.38048496597003	
18.0	116.01677195865432	face	0.0		145	47.0	male	east_asian	2.171110226820533	smiling	024	sub-08	2.0	2.0	024_smiling	0.0		136.8970116675937	1.2333111268808352
18.0	116.20022874557253	pulse	0.0	t		47.0	male	east_asian	2.171110226820533	smiling	024	sub-08	2.0	2.0	024_smiling	0.0		137.0804684545119	
18.0	116.90020257476044	pulse	0.0	t		47.0	male	east_asian	2.171110226820533	smiling	024	sub-08	2.0	2.0	024_smiling	0.0		137.7804422836998	
18.0	117.25008308553515	fix	1.0		444	47.0	male	east_asian	2.171110226820533	smiling	024	sub-08	2.0	2.0	024_smiling	0.0		138.13032279447452	3.7665829220813976
18.0	117.60019028927036	pulse	1.0	t		47.0	male	east_asian	2.171110226820533	smiling	024	sub-08	2.0	2.0	024_smiling	0.0		138.48042999820973	
18.0	118.30017257039253	pulse	1.0	t		47.0	male	east_asian	2.171110226820533	smiling	024	sub-08	2.0	2.0	024_smiling	0.0		139.1804122793319	
18.0	119.00016149232124	pulse	1.0	t		47.0	male	east_asian	2.171110226820533	smiling	024	sub-08	2.0	2.0	024_smiling	0.0		139.8804012012606	
18.0	119.70015041424995	pulse	1.0	t		47.0	male	east_asian	2.171110226820533	smiling	024	sub-08	2.0	2.0	024_smiling	0.0		140.58039012318932	
18.0	120.40013058238947	pulse	1.0	t		47.0	male	east_asian	2.171110226820533	smiling	024	sub-08	2.0	2.0	024_smiling	0.0		141.28037029132884	
19.0	121.01666600761655	face	0.0		145	47.0	male	east_asian	2.171110226820533	neutral	024	sub-08	2.0	2.0	024_neutral	0.0		141.89690571655592	1.233326219621631
19.0	121.10013188036464	pulse	0.0	t		47.0	male	east_asian	2.171110226820533	neutral	024	sub-08	2.0	2.0	024_neutral	0.0		141.980371589304	
19.0	121.8001063132624	pulse	0.0	t		47.0	male	east_asian	2.171110226820533	neutral	024	sub-08	2.0	2.0	024_neutral	0.0		142.68034602220177	
19.0	122.24999222723818	fix	1.0		444	47.0	male	east_asian	2.171110226820533	neutral	024	sub-08	2.0	2.0	024_neutral	0.0		143.13023193617755	3.7665491143434338
19.0	122.50008557583715	pulse	1.0	t		47.0	male	east_asian	2.171110226820533	neutral	024	sub-08	2.0	2.0	024_neutral	0.0		143.38032528477652	
19.0	123.20007842187897	pulse	1.0	t		47.0	male	east_asian	2.171110226820533	neutral	024	sub-08	2.0	2.0	024_neutral	0.0		144.08031813081834	
19.0	123.90006462711426	pulse	1.0	t		47.0	male	east_asian	2.171110226820533	neutral	024	sub-08	2.0	2.0	024_neutral	0.0		144.78030433605363	
19.0	124.60004238041438	pulse	1.0	t		47.0	male	east_asian	2.171110226820533	neutral	024	sub-08	2.0	2.0	024_neutral	0.0		145.48028208935375	
19.0	125.30002828379475	pulse	1.0	t		47.0	male	east_asian	2.171110226820533	neutral	024	sub-08	2.0	2.0	024_neutral	0.0		146.18026799273412	
20.0	126.01654134158161	face	0.0		146	28.0	male	east_asian	1.5563072025467568	smiling	005	sub-08	2.0	2.0	005_smiling	0.0		146.89678105052099	1.2333334641371039
20.0	126.00274144535888	pulse	0.0	t		28.0	male	east_asian	1.5563072025467568	smiling	005	sub-08	2.0	2.0	005_smiling	0.0		146.88298115429825	
20.0	126.69999918499161	pulse	0.0	t		28.0	male	east_asian	1.5563072025467568	smiling	005	sub-08	2.0	2.0	005_smiling	0.0		147.58023889393098	
20.0	127.24987480571872	fix	1.0		1184	28.0	male	east_asian	1.5563072025467568	smiling	005	sub-08	2.0	2.0	005_smiling	0.0		148.1301145146581	10.016455916670566
20.0	127.39999595514564	pulse	1.0	t		28.0	male	east_asian	1.5563072025467568	smiling	005	sub-08	2.0	2.0	005_smiling	0.0		148.280235664085	
20.0	128.0999616342533	pulse	1.0	t		28.0	male	east_asian	1.5563072025467568	smiling	005	sub-08	2.0	2.0	005_smiling	0.0		148.98020134319268	
20.0	128.79995780069748	pulse	1.0	t		28.0	male	east_asian	1.5563072025467568	smiling	005	sub-08	2.0	2.0	005_smiling	0.0		149.68019750963686	
20.0	129.49993947811072	pulse	1.0	t		28.0	male	east_asian	1.5563072025467568	smiling	005	sub-08	2.0	2.0	005_smiling	0.0		150.3801791870501	
20.0	130.19993111673284	pulse	1.0	t		28.0	male	east_asian	1.5563072025467568	smiling	005	sub-08	2.0	2.0	005_smiling	0.0		151.0801708256722	
20.0	130.89990917188788	pulse	1.0	t		28.0	male	east_asian	1.5563072025467568	smiling	005	sub-08	2.0	2.0	005_smiling	0.0		151.78014888082726	
20.0	131.59987243615797	pulse	1.0	t		28.0	male	east_asian	1.5563072025467568	smiling	005	sub-08	2.0	2.0	005_smiling	0.0		152.48011214509734	
20.0	132.29987645082747	pulse	1.0	t		28.0	male	east_asian	1.5563072025467568	smiling	005	sub-08	2.0	2.0	005_smiling	0.0		153.18011615976684	
20.0	132.9998632597717	pulse	1.0	t		28.0	male	east_asian	1.5563072025467568	smiling	005	sub-08	2.0	2.0	005_smiling	0.0		153.88010296871107	
20.0	133.69984795573328	pulse	1.0	t		28.0	male	east_asian	1.5563072025467568	smiling	005	sub-08	2.0	2.0	005_smiling	0.0		154.58008766467265	
20.0	134.3998420091939	pulse	1.0	t		28.0	male	east_asian	1.5563072025467568	smiling	005	sub-08	2.0	2.0	005_smiling	0.0		155.28008171813326	
20.0	135.0999157523229	pulse	1.0	t		28.0	male	east_asian	1.5563072025467568	smiling	005	sub-08	2.0	2.0	005_smiling	0.0		155.98015546126226	
20.0	135.79981834377668	pulse	1.0	t		28.0	male	east_asian	1.5563072025467568	smiling	005	sub-08	2.0	2.0	005_smiling	0.0		156.68005805271605	
20.0	136.49980907683403	pulse	1.0	t		28.0	male	east_asian	1.5563072025467568	smiling	005	sub-08	2.0	2.0	005_smiling	0.0		157.3800487857734	
20.0	137.19977415223275	pulse	1.0	t		28.0	male	east_asian	1.5563072025467568	smiling	005	sub-08	2.0	2.0	005_smiling	0.0		158.08001386117212	
21.0	137.26633072238928	face	0.0		146	31.0	male	west_asian	1.9538400318344609	smiling	070	sub-08	2.0	2.0	070_smiling	0.0		158.14657043132866	1.2333120324456104
21.0	137.8997751483539	pulse	0.0	t		31.0	male	west_asian	1.9538400318344609	smiling	070	sub-08	2.0	2.0	070_smiling	0.0		158.78001485729328	
21.0	138.4996427548349	fix	1.0		443	31.0	male	west_asian	1.9538400318344609	smiling	070	sub-08	2.0	2.0	070_smiling	0.0		159.37988246377427	3.7665684330513614
21.0	138.59975531649252	pulse	1.0	t		31.0	male	west_asian	1.9538400318344609	smiling	070	sub-08	2.0	2.0	070_smiling	0.0		159.4799950254319	
21.0	139.29973306979355	pulse	1.0	t		31.0	male	west_asian	1.9538400318344609	smiling	070	sub-08	2.0	2.0	070_smiling	0.0		160.17997277873292	
21.0	139.9997213880124	pulse	1.0	t		31.0	male	west_asian	1.9538400318344609	smiling	070	sub-08	2.0	2.0	070_smiling	0.0		160.87996109695177	
21.0	140.6997027635707	pulse	1.0	t		31.0	male	west_asian	1.9538400318344609	smiling	070	sub-08	2.0	2.0	070_smiling	0.0		161.57994247251008	
21.0	141.39970134485338	pulse	1.0	t		31.0	male	west_asian	1.9538400318344609	smiling	070	sub-08	2.0	2.0	070_smiling	0.0		162.27994105379275	
21.0	142.0996712499291	pulse	1.0	t		31.0	male	west_asian	1.9538400318344609	smiling	070	sub-08	2.0	2.0	070_smiling	0.0		162.97991095886846	
22.0	142.26621118788626	face	0.0		146	31.0	female	west_asian	2.364902506963788	smiling	006	sub-08	2.0	2.0	006_smiling	0.0		163.14645089682563	1.2333370863943856
22.0	142.79967647201738	pulse	0.0	t		31.0	female	west_asian	2.364902506963788	smiling	006	sub-08	2.0	2.0	006_smiling	0.0		163.67991618095675	
22.0	143.49954827428064	fix	1.0		444	31.0	female	west_asian	2.364902506963788	smiling	006	sub-08	2.0	2.0	006_smiling	0.0		164.37978798322	3.766574470147134
22.0	143.50716497663143	pulse	1.0	t		31.0	female	west_asian	2.364902506963788	smiling	006	sub-08	2.0	2.0	006_smiling	0.0		164.3874046855708	
22.0	144.19964284539128	pulse	1.0	t		31.0	female	west_asian	2.364902506963788	smiling	006	sub-08	2.0	2.0	006_smiling	0.0		165.07988255433065	
22.0	144.89962150425708	pulse	1.0	t		31.0	female	west_asian	2.364902506963788	smiling	006	sub-08	2.0	2.0	006_smiling	0.0		165.77986121319645	
22.0	145.59960499279896	pulse	1.0	t		31.0	female	west_asian	2.364902506963788	smiling	006	sub-08	2.0	2.0	006_smiling	0.0		166.47984470173833	
22.0	146.299602064807	pulse	1.0	t		31.0	female	west_asian	2.364902506963788	smiling	006	sub-08	2.0	2.0	006_smiling	0.0		167.17984177374638	
22.0	146.99957770512447	pulse	1.0	t		31.0	female	west_asian	2.364902506963788	smiling	006	sub-08	2.0	2.0	006_smiling	0.0		167.87981741406384	
23.0	147.26612274442778	face	0.0		145	24.0	female	east_asian	2.9076800636689217	smiling	034	sub-08	2.0	2.0	034_smiling	0.0		168.14636245336715	1.2333069009137034
23.0	147.69956028810157	pulse	0.0	t		24.0	female	east_asian	2.9076800636689217	smiling	034	sub-08	2.0	2.0	034_smiling	0.0		168.57979999704094	
23.0	148.39954890817535	pulse	0.0	t		24.0	female	east_asian	2.9076800636689217	smiling	034	sub-08	2.0	2.0	034_smiling	0.0		169.27978861711472	
23.0	148.49942964534148	fix	1.0		444	24.0	female	east_asian	2.9076800636689217	smiling	034	sub-08	2.0	2.0	034_smiling	0.0		169.37966935428085	3.76658835546732
23.0	149.0995320948632	pulse	1.0	t		24.0	female	east_asian	2.9076800636689217	smiling	034	sub-08	2.0	2.0	034_smiling	0.0		169.97977180380258	
23.0	149.79951497969523	pulse	1.0	t		24.0	female	east_asian	2.9076800636689217	smiling	034	sub-08	2.0	2.0	034_smiling	0.0		170.6797546886346	
23.0	150.49949937380188	pulse	1.0	t		24.0	female	east_asian	2.9076800636689217	smiling	034	sub-08	2.0	2.0	034_smiling	0.0		171.37973908274125	
23.0	151.19950459589018	pulse	1.0	t		24.0	female	east_asian	2.9076800636689217	smiling	034	sub-08	2.0	2.0	034_smiling	0.0		172.07974430482955	
23.0	151.89948416031984	pulse	1.0	t		24.0	female	east_asian	2.9076800636689217	smiling	034	sub-08	2.0	2.0	034_smiling	0.0		172.77972386925921	
24.0	152.2660180008088	face	0.0		145	25.0	female	black	3.858336649423	neutral	126	sub-08	2.0	2.0	126_neutral	0.0		173.14625770974817	1.2333189751070677
24.0	152.5994359541064	pulse	0.0	t		25.0	female	black	3.858336649423	neutral	126	sub-08	2.0	2.0	126_neutral	0.0		173.47967566304578	
24.0	153.2994460058717	pulse	0.0	t		25.0	female	black	3.858336649423	neutral	126	sub-08	2.0	2.0	126_neutral	0.0		174.17968571481106	
24.0	153.49933697591587	fix	1.0		444	25.0	female	black	3.858336649423	neutral	126	sub-08	2.0	2.0	126_neutral	0.0		174.37957668485524	3.7665623959537697
24.0	153.9994412667511	pulse	1.0	t		25.0	female	black	3.858336649423	neutral	126	sub-08	2.0	2.0	126_neutral	0.0		174.87968097569046	
24.0	154.6994214348906	pulse	1.0	t		25.0	female	black	3.858336649423	neutral	126	sub-08	2.0	2.0	126_neutral	0.0		175.57966114382998	
24.0	155.3994139790766	pulse	1.0	t		25.0	female	black	3.858336649423	neutral	126	sub-08	2.0	2.0	126_neutral	0.0		176.27965368801597	
24.0	156.0993890156842	pulse	1.0	t		25.0	female	black	3.858336649423	neutral	126	sub-08	2.0	2.0	126_neutral	0.0		176.97962872462358	
24.0	156.79937159866222	pulse	1.0	t		25.0	female	black	3.858336649423	neutral	126	sub-08	2.0	2.0	126_neutral	0.0		177.6796113076016	
25.0	157.26589937186964	face	0.0		145	54.0	female	white	2.286908077994429	smiling	136	sub-08	2.0	2.0	136_smiling	0.0		178.146139080809	1.2333225973643493
25.0	157.49936474655806	pulse	0.0	t		54.0	female	white	2.286908077994429	smiling	136	sub-08	2.0	2.0	136_smiling	0.0		178.37960445549743	
25.0	158.19934823509993	pulse	0.0	t		54.0	female	white	2.286908077994429	smiling	136	sub-08	2.0	2.0	136_smiling	0.0		179.0795879440393	
25.0	158.499221969234	fix	1.0		444	54.0	female	white	2.286908077994429	smiling	136	sub-08	2.0	2.0	136_smiling	0.0		179.37946167817336	3.766591675870586
25.0	158.89933142178688	pulse	1.0	t		54.0	female	white	2.286908077994429	smiling	136	sub-08	2.0	2.0	136_smiling	0.0		179.77957113072625	
25.0	159.59932275855408	pulse	1.0	t		54.0	female	white	2.286908077994429	smiling	136	sub-08	2.0	2.0	136_smiling	0.0		180.47956246749345	
25.0	160.29930141741897	pulse	1.0	t		54.0	female	white	2.286908077994429	smiling	136	sub-08	2.0	2.0	136_smiling	0.0		181.17954112635834	
25.0	160.999298187573	pulse	1.0	t		54.0	female	white	2.286908077994429	smiling	136	sub-08	2.0	2.0	136_smiling	0.0		181.87953789651237	
25.0	161.69927533716418	pulse	1.0	t		54.0	female	white	2.286908077994429	smiling	136	sub-08	2.0	2.0	136_smiling	0.0		182.57951504610355	
26.0	162.26581364510457	face	0.0		145	21.0	male	black	2.969757262236371	smiling	137	sub-08	2.0	2.0	137_smiling	0.0		183.14605335404394	1.2333219936544992
26.0	162.399273314737	pulse	0.0	t		21.0	male	black	2.969757262236371	smiling	137	sub-08	2.0	2.0	137_smiling	0.0		183.27951302367637	
26.0	163.09924352166763	pulse	0.0	t		21.0	male	black	2.969757262236371	smiling	137	sub-08	2.0	2.0	137_smiling	0.0		183.979483230607	
26.0	163.49913563875907	fix	1.0		445	21.0	male	black	2.969757262236371	smiling	137	sub-08	2.0	2.0	137_smiling	0.0		184.37937534769844	3.7749047572624477
26.0	163.79923938625598	pulse	1.0	t		21.0	male	black	2.969757262236371	smiling	137	sub-08	2.0	2.0	137_smiling	0.0		184.67947909519535	
26.0	164.49918393552798	pulse	1.0	t		21.0	male	black	2.969757262236371	smiling	137	sub-08	2.0	2.0	137_smiling	0.0		185.37942364446735	
26.0	165.1992009299538	pulse	1.0	t		21.0	male	black	2.969757262236371	smiling	137	sub-08	2.0	2.0	137_smiling	0.0		186.07944063889317	
26.0	165.89917596656142	pulse	1.0	t		21.0	male	black	2.969757262236371	smiling	137	sub-08	2.0	2.0	137_smiling	0.0		186.7794156755008	
26.0	166.59918028308493	pulse	1.0	t		21.0	male	black	2.969757262236371	smiling	137	sub-08	2.0	2.0	137_smiling	0.0		187.4794199920243	
27.0	167.27404039602152	face	0.0		145	24.0	female	east_asian	4.409868682849185	smiling	030	sub-08	2.0	2.0	030_smiling	0.0		188.1542801049609	1.2333020712367215
27.0	167.2991713179972	pulse	0.0	t		24.0	female	east_asian	4.409868682849185	smiling	030	sub-08	2.0	2.0	030_smiling	0.0		188.17941102693658	
27.0	167.99916869186018	pulse	0.0	t		24.0	female	east_asian	4.409868682849185	smiling	030	sub-08	2.0	2.0	030_smiling	0.0		188.87940840079955	
27.0	168.50734246725824	fix	1.0		443	24.0	female	east_asian	4.409868682849185	smiling	030	sub-08	2.0	2.0	030_smiling	0.0		189.3875821761976	3.766596203692643
27.0	168.69914342661286	pulse	1.0	t		24.0	female	east_asian	4.409868682849185	smiling	030	sub-08	2.0	2.0	030_smiling	0.0		189.57938313555223	
27.0	169.39912480217117	pulse	1.0	t		24.0	female	east_asian	4.409868682849185	smiling	030	sub-08	2.0	2.0	030_smiling	0.0		190.27936451111054	
27.0	170.09910104619848	pulse	1.0	t		24.0	female	east_asian	4.409868682849185	smiling	030	sub-08	2.0	2.0	030_smiling	0.0		190.97934075513786	
27.0	170.7990950996582	pulse	1.0	t		24.0	female	east_asian	4.409868682849185	smiling	030	sub-08	2.0	2.0	030_smiling	0.0		191.67933480859756	
27.0	171.49907587150756	pulse	1.0	t		24.0	female	east_asian	4.409868682849185	smiling	030	sub-08	2.0	2.0	030_smiling	0.0		192.37931558044693	
27.0	172.19905785077572	pulse	1.0	t		24.0	female	east_asian	4.409868682849185	smiling	030	sub-08	2.0	2.0	030_smiling	0.0		193.0792975597151	
28.0	172.27393867095088	face	0.0		146	24.0	female	east_asian	4.409868682849185	neutral	030	sub-08	2.0	2.0	030_neutral	0.0		193.15417837989025	1.2333213899446491
28.0	172.89904948939693	pulse	0.0	t		24.0	female	east_asian	4.409868682849185	neutral	030	sub-08	2.0	2.0	030_neutral	0.0		193.7792891983363	
28.0	173.50726006089553	fix	1.0		443	24.0	female	east_asian	4.409868682849185	neutral	030	sub-08	2.0	2.0	030_neutral	0.0		194.3874997698349	3.766573866437284
28.0	173.59903720390685	pulse	1.0	t		24.0	female	east_asian	4.409868682849185	neutral	030	sub-08	2.0	2.0	030_neutral	0.0		194.47927691284622	
28.0	174.29901254236847	pulse	1.0	t		24.0	female	east_asian	4.409868682849185	neutral	030	sub-08	2.0	2.0	030_neutral	0.0		195.17925225130784	
28.0	174.99900508655537	pulse	1.0	t		24.0	female	east_asian	4.409868682849185	neutral	030	sub-08	2.0	2.0	030_neutral	0.0		195.87924479549474	
28.0	175.6989780101785	pulse	1.0	t		24.0	female	east_asian	4.409868682849185	neutral	030	sub-08	2.0	2.0	030_neutral	0.0		196.57921771911788	
28.0	176.3989781007349	pulse	1.0	t		24.0	female	east_asian	4.409868682849185	neutral	030	sub-08	2.0	2.0	030_neutral	0.0		197.27921780967426	
28.0	177.09895585403592	pulse	1.0	t		24.0	female	east_asian	4.409868682849185	neutral	030	sub-08	2.0	2.0	030_neutral	0.0		197.9791955629753	
29.0	177.27383392733282	face	0.0		146	20.0	female	white	3.9502586549940313	neutral	091	sub-08	2.0	2.0	091_neutral	0.0		198.1540736362722	1.2416414139970584
29.0	177.79894990749654	pulse	0.0	t		20.0	female	white	3.9502586549940313	neutral	091	sub-08	2.0	2.0	091_neutral	0.0		198.6791896164359	
29.0	178.49892917007128	pulse	0.0	t		20.0	female	white	3.9502586549940313	neutral	091	sub-08	2.0	2.0	091_neutral	0.0		199.37916887901065	
29.0	178.51547534132987	fix	1.0		443	20.0	female	white	3.9502586549940313	neutral	091	sub-08	2.0	2.0	091_neutral	0.0		199.39571505026925	3.7582586720618565
29.0	179.19892533651455	pulse	1.0	t		20.0	female	white	3.9502586549940313	neutral	091	sub-08	2.0	2.0	091_neutral	0.0		200.07916504545392	
29.0	179.89893931239294	pulse	1.0	t		20.0	female	white	3.9502586549940313	neutral	091	sub-08	2.0	2.0	091_neutral	0.0		200.7791790213323	
29.0	180.59888657835745	pulse	1.0	t		20.0	female	white	3.9502586549940313	neutral	091	sub-08	2.0	2.0	091_neutral	0.0		201.47912628729682	
29.0	181.29886493536833	pulse	1.0	t		20.0	female	white	3.9502586549940313	neutral	091	sub-08	2.0	2.0	091_neutral	0.0		202.1791046443077	
29.0	181.99885808326417	pulse	1.0	t		20.0	female	white	3.9502586549940313	neutral	091	sub-08	2.0	2.0	091_neutral	0.0		202.87909779220354	
30.0	182.27373401339173	face	0.0		145	37.0	male	white	3.898925586947871	smiling	101	sub-08	2.0	2.0	101_smiling	0.0		203.1539737223311	1.2333186732512331
30.0	182.69884006253233	pulse	0.0	t		37.0	male	white	3.898925586947871	smiling	101	sub-08	2.0	2.0	101_smiling	0.0		203.5790797714717	
30.0	183.3988350215568	pulse	0.0	t		37.0	male	white	3.898925586947871	smiling	101	sub-08	2.0	2.0	101_smiling	0.0		204.27907473049618	
30.0	183.50705268664296	fix	1.0		444	37.0	male	white	3.898925586947871	smiling	101	sub-08	2.0	2.0	101_smiling	0.0		204.38729239558234	3.7583788102756444
30.0	184.0988124730029	pulse	1.0	t		37.0	male	white	3.898925586947871	smiling	101	sub-08	2.0	2.0	101_smiling	0.0		204.97905218194228	
30.0	184.79882101549356	pulse	1.0	t		37.0	male	white	3.898925586947871	smiling	101	sub-08	2.0	2.0	101_smiling	0.0		205.67906072443293	
30.0	185.49878065750545	pulse	1.0	t		37.0	male	white	3.898925586947871	smiling	101	sub-08	2.0	2.0	101_smiling	0.0		206.37902036644482	
30.0	186.19876656088672	pulse	1.0	t		37.0	male	white	3.898925586947871	smiling	101	sub-08	2.0	2.0	101_smiling	0.0		207.0790062698261	
30.0	186.8987476345901	pulse	1.0	t		37.0	male	white	3.898925586947871	smiling	101	sub-08	2.0	2.0	101_smiling	0.0		207.77898734352948	
31.0	187.2654314969186	face	0.0		146	27.0	female	white	3.504576203740549	smiling	144	sub-08	2.0	2.0	144_smiling	0.0		208.14567120585798	1.2414959199795703
31.0	187.59874742329157	pulse	0.0	t		27.0	female	white	3.504576203740549	smiling	144	sub-08	2.0	2.0	144_smiling	0.0		208.47898713223094	
31.0	188.29871159312552	pulse	0.0	t		27.0	female	white	3.504576203740549	smiling	144	sub-08	2.0	2.0	144_smiling	0.0		209.1789513020649	
31.0	188.50692741689818	fix	1.0		444	27.0	female	white	3.504576203740549	smiling	144	sub-08	2.0	2.0	144_smiling	0.0		209.38716712583755	3.758245692305536
31.0	188.99871500408517	pulse	1.0	t		27.0	female	white	3.504576203740549	smiling	144	sub-08	2.0	2.0	144_smiling	0.0		209.87895471302454	
31.0	189.69870090746554	pulse	1.0	t		27.0	female	white	3.504576203740549	smiling	144	sub-08	2.0	2.0	144_smiling	0.0		210.5789406164049	
31.0	190.3986816793149	pulse	1.0	t		27.0	female	white	3.504576203740549	smiling	144	sub-08	2.0	2.0	144_smiling	0.0		211.27892138825428	
31.0	191.09867603462953	pulse	1.0	t		27.0	female	white	3.504576203740549	smiling	144	sub-08	2.0	2.0	144_smiling	0.0		211.9789157435689	
31.0	191.79865197680192	pulse	1.0	t		27.0	female	white	3.504576203740549	smiling	144	sub-08	2.0	2.0	144_smiling	0.0		212.6788916857413	
32.0	192.26517310920372	face	0.0		146	20.0	male	black	3.1070433744528456	neutral	082	sub-08	2.0	2.0	082_neutral	0.0		213.1454128181431	1.2416685809293995
32.0	192.4986445209879	pulse	0.0	t		20.0	male	black	3.1070433744528456	neutral	082	sub-08	2.0	2.0	082_neutral	0.0		213.37888422992728	
32.0	193.1986216705791	pulse	0.0	t		20.0	male	black	3.1070433744528456	neutral	082	sub-08	2.0	2.0	082_neutral	0.0		214.07886137951846	
32.0	193.50684169013311	fix	1.0		444	20.0	male	black	3.1070433744528456	neutral	082	sub-08	2.0	2.0	082_neutral	0.0		214.38708139907249	3.7665789979682813
32.0	193.89861361105523	pulse	1.0	t		20.0	male	black	3.1070433744528456	neutral	082	sub-08	2.0	2.0	082_neutral	0.0		214.7788533199946	
32.0	194.59859015693655	pulse	1.0	t		20.0	male	black	3.1070433744528456	neutral	082	sub-08	2.0	2.0	082_neutral	0.0		215.47882986587592	
32.0	195.29858390854224	pulse	1.0	t		20.0	male	black	3.1070433744528456	neutral	082	sub-08	2.0	2.0	082_neutral	0.0		216.1788236174816	
32.0	195.99857011377753	pulse	1.0	t		20.0	male	black	3.1070433744528456	neutral	082	sub-08	2.0	2.0	082_neutral	0.0		216.8788098227169	
32.0	196.69854303740158	pulse	1.0	t		20.0	male	black	3.1070433744528456	neutral	082	sub-08	2.0	2.0	082_neutral	0.0		217.57878274634095	
33.0	197.2734206881014	face	0.0		145	24.0	female	east_asian	2.9076800636689217	neutral	034	sub-08	2.0	2.0	034_neutral	0.0		218.15366039704077	1.2333180695422925
33.0	197.39855399473072	pulse	0.0	t		24.0	female	east_asian	2.9076800636689217	neutral	034	sub-08	2.0	2.0	034_neutral	0.0		218.2787937036701	
33.0	198.09851997569422	pulse	0.0	t		24.0	female	east_asian	2.9076800636689217	neutral	034	sub-08	2.0	2.0	034_neutral	0.0		218.9787596846336	
33.0	198.5067387576437	fix	1.0		444	24.0	female	east_asian	2.9076800636689217	neutral	034	sub-08	2.0	2.0	034_neutral	0.0		219.38697846658306	3.766576281275775
33.0	198.79851402915483	pulse	1.0	t		24.0	female	east_asian	2.9076800636689217	neutral	034	sub-08	2.0	2.0	034_neutral	0.0		219.6787537380942	
33.0	199.49849540471314	pulse	1.0	t		24.0	female	east_asian	2.9076800636689217	neutral	034	sub-08	2.0	2.0	034_neutral	0.0		220.3787351136525	
33.0	200.19847949696486	pulse	1.0	t		24.0	female	east_asian	2.9076800636689217	neutral	034	sub-08	2.0	2.0	034_neutral	0.0		221.07871920590424	
33.0	200.89845574099127	pulse	1.0	t		24.0	female	east_asian	2.9076800636689217	neutral	034	sub-08	2.0	2.0	034_neutral	0.0		221.77869544993064	
33.0	201.59844466291997	pulse	1.0	t		24.0	female	east_asian	2.9076800636689217	neutral	034	sub-08	2.0	2.0	034_neutral	0.0		222.47868437185934	
34.0	202.27331503891946	face	0.0		145	23.0	male	white	2.6275368085953046	neutral	141	sub-08	2.0	2.0	141_neutral	0.0		223.15355474785883	1.2333081083334037
34.0	202.2984628647646	pulse	0.0	t		23.0	male	white	2.6275368085953046	neutral	141	sub-08	2.0	2.0	141_neutral	0.0		223.17870257370396	
34.0	202.99842220492246	pulse	0.0	t		23.0	male	white	2.6275368085953046	neutral	141	sub-08	2.0	2.0	141_neutral	0.0		223.87866191386183	
34.0	203.50662314725287	fix	1.0		443	23.0	male	white	2.6275368085953046	neutral	141	sub-08	2.0	2.0	141_neutral	0.0		224.38686285619224	3.766588053612395
34.0	203.6984038823357	pulse	1.0	t		23.0	male	white	2.6275368085953046	neutral	141	sub-08	2.0	2.0	141_neutral	0.0		224.57864359127507	
34.0	204.39841393410097	pulse	1.0	t		23.0	male	white	2.6275368085953046	neutral	141	sub-08	2.0	2.0	141_neutral	0.0		225.27865364304034	
34.0	205.09837840578984	pulse	1.0	t		23.0	male	white	2.6275368085953046	neutral	141	sub-08	2.0	2.0	141_neutral	0.0		225.97861811472922	
34.0	205.79836581844393	pulse	1.0	t		23.0	male	white	2.6275368085953046	neutral	141	sub-08	2.0	2.0	141_neutral	0.0		226.6786055273833	
34.0	206.4983417606163	pulse	1.0	t		23.0	male	white	2.6275368085953046	neutral	141	sub-08	2.0	2.0	141_neutral	0.0		227.37858146955568	
34.0	207.19832464544834	pulse	1.0	t		23.0	male	white	2.6275368085953046	neutral	141	sub-08	2.0	2.0	141_neutral	0.0		228.0785643543877	
35.0	207.27321120086526	face	0.0		146	28.0	female	white	5.676880222841227	smiling	124	sub-08	2.0	2.0	124_smiling	0.0		228.15345090980463	1.2333213899455586
35.0	207.89832775455307	pulse	0.0	t		28.0	female	white	5.676880222841227	smiling	124	sub-08	2.0	2.0	124_smiling	0.0		228.77856746349244	
35.0	208.50653259081082	fix	1.0		443	28.0	female	white	5.676880222841227	smiling	124	sub-08	2.0	2.0	124_smiling	0.0		229.3867722997502	3.7665771868396405
35.0	208.598296754064	pulse	1.0	t		28.0	female	white	5.676880222841227	smiling	124	sub-08	2.0	2.0	124_smiling	0.0		229.47853646300337	
35.0	209.29829412792787	pulse	1.0	t		28.0	female	white	5.676880222841227	smiling	124	sub-08	2.0	2.0	124_smiling	0.0		230.17853383686725	
35.0	209.99826644784207	pulse	1.0	t		28.0	female	white	5.676880222841227	smiling	124	sub-08	2.0	2.0	124_smiling	0.0		230.87850615678144	
35.0	210.6982620105764	pulse	1.0	t		28.0	female	white	5.676880222841227	smiling	124	sub-08	2.0	2.0	124_smiling	0.0		231.57850171951577	
35.0	211.39825304548867	pulse	1.0	t		28.0	female	white	5.676880222841227	smiling	124	sub-08	2.0	2.0	124_smiling	0.0		232.27849275442804	
35.0	212.09823170435357	pulse	1.0	t		28.0	female	white	5.676880222841227	smiling	124	sub-08	2.0	2.0	124_smiling	0.0		232.97847141329294	
36.0	212.27310977765046	face	0.0		146	19.0	female	white	4.298846000795861	smiling	100	sub-08	2.0	2.0	100_smiling	0.0		233.15334948658983	1.241650167786247
36.0	212.79822304112076	pulse	0.0	t		19.0	female	white	4.298846000795861	smiling	100	sub-08	2.0	2.0	100_smiling	0.0		233.67846275006013	
36.0	213.4981971721636	pulse	0.0	t		19.0	female	white	4.298846000795861	smiling	100	sub-08	2.0	2.0	100_smiling	0.0		234.37843688110297	
36.0	213.5147599454367	fix	1.0		443	19.0	female	white	4.298846000795861	smiling	100	sub-08	2.0	2.0	100_smiling	0.0		234.39499965437608	3.758238145935138
36.0	214.1981833773989	pulse	1.0	t		19.0	female	white	4.298846000795861	smiling	100	sub-08	2.0	2.0	100_smiling	0.0		235.07842308633826	
36.0	214.89818075126186	pulse	1.0	t		19.0	female	white	4.298846000795861	smiling	100	sub-08	2.0	2.0	100_smiling	0.0		235.77842046020123	
36.0	215.5981560897244	pulse	1.0	t		19.0	female	white	4.298846000795861	smiling	100	sub-08	2.0	2.0	100_smiling	0.0		236.47839579866377	
36.0	216.29814470979818	pulse	1.0	t		19.0	female	white	4.298846000795861	smiling	100	sub-08	2.0	2.0	100_smiling	0.0		237.17838441873755	
36.0	216.99812729277528	pulse	1.0	t		19.0	female	white	4.298846000795861	smiling	100	sub-08	2.0	2.0	100_smiling	0.0		237.87836700171465	
37.0	217.27299809137185	face	0.0		145	25.0	female	west_asian	2.6756864305610826	neutral	064	sub-08	2.0	2.0	064_neutral	0.0		238.15323780031122	1.2333171639775173
37.0	217.69812708147765	pulse	0.0	t		25.0	female	west_asian	2.6756864305610826	neutral	064	sub-08	2.0	2.0	064_neutral	0.0		238.57836679041702	
37.0	218.398098797682	pulse	0.0	t		25.0	female	west_asian	2.6756864305610826	neutral	064	sub-08	2.0	2.0	064_neutral	0.0		239.27833850662137	
37.0	218.50631525534936	fix	1.0		444	25.0	female	west_asian	2.6756864305610826	neutral	064	sub-08	2.0	2.0	064_neutral	0.0		239.38655496428873	3.758395412290156
37.0	219.0980599489685	pulse	1.0	t		25.0	female	west_asian	2.6756864305610826	neutral	064	sub-08	2.0	2.0	064_neutral	0.0		239.97829965790788	
37.0	219.79808116936147	pulse	1.0	t		25.0	female	west_asian	2.6756864305610826	neutral	064	sub-08	2.0	2.0	064_neutral	0.0		240.67832087830084	
37.0	220.49804986701747	pulse	1.0	t		25.0	female	west_asian	2.6756864305610826	neutral	064	sub-08	2.0	2.0	064_neutral	0.0		241.37828957595684	
37.0	221.19803969451095	pulse	1.0	t		25.0	female	west_asian	2.6756864305610826	neutral	064	sub-08	2.0	2.0	064_neutral	0.0		242.07827940345032	
37.0	221.89802499418147	pulse	1.0	t		25.0	female	west_asian	2.6756864305610826	neutral	064	sub-08	2.0	2.0	064_neutral	0.0		242.77826470312084	
38.0	222.26471066763952	face	0.0		146	24.0	female	black	3.0955033824114606	smiling	099	sub-08	2.0	2.0	099_smiling	0.0		243.1449503765789	1.241502258930268
38.0	222.59801210498154	pulse	0.0	t		24.0	female	black	3.0955033824114606	smiling	099	sub-08	2.0	2.0	099_smiling	0.0		243.4782518139209	
38.0	223.29800163061918	pulse	0.0	t		24.0	female	black	3.0955033824114606	smiling	099	sub-08	2.0	2.0	099_smiling	0.0		244.17824133955855	
38.0	223.5062129265698	fix	1.0		444	24.0	female	black	3.0955033824114606	smiling	099	sub-08	2.0	2.0	099_smiling	0.0		244.38645263550916	3.7665871480485293
38.0	223.99798874141925	pulse	1.0	t		24.0	female	black	3.0955033824114606	smiling	099	sub-08	2.0	2.0	099_smiling	0.0		244.87822845035862	
38.0	224.697963174317	pulse	1.0	t		24.0	female	black	3.0955033824114606	smiling	099	sub-08	2.0	2.0	099_smiling	0.0		245.57820288325638	
38.0	225.39796235930862	pulse	1.0	t		24.0	female	black	3.0955033824114606	smiling	099	sub-08	2.0	2.0	099_smiling	0.0		246.278202068248	
38.0	226.09794524414156	pulse	1.0	t		24.0	female	black	3.0955033824114606	smiling	099	sub-08	2.0	2.0	099_smiling	0.0		246.97818495308093	
38.0	226.79791001768535	pulse	1.0	t		24.0	female	black	3.0955033824114606	smiling	099	sub-08	2.0	2.0	099_smiling	0.0		247.67814972662472	
39.0	227.27280007461832	face	0.0		145	34.0	male	white	2.651014723438122	smiling	121	sub-08	2.0	2.0	121_smiling	0.0		248.1530397835577	1.2333038823662719
39.0	227.49791161751546	pulse	0.0	t		34.0	male	white	2.651014723438122	smiling	121	sub-08	2.0	2.0	121_smiling	0.0		248.37815132645483	
39.0	228.19789540791226	pulse	0.0	t		34.0	male	white	2.651014723438122	smiling	121	sub-08	2.0	2.0	121_smiling	0.0		249.07813511685163	
39.0	228.5061039569846	fix	1.0		444	34.0	male	white	2.651014723438122	smiling	121	sub-08	2.0	2.0	121_smiling	0.0		249.38634366592396	3.7499356294620156
39.0	228.89788765024423	pulse	1.0	t		34.0	male	white	2.651014723438122	smiling	121	sub-08	2.0	2.0	121_smiling	0.0		249.7781273591836	
39.0	229.59787385547952	pulse	1.0	t		34.0	male	white	2.651014723438122	smiling	121	sub-08	2.0	2.0	121_smiling	0.0		250.4781135644189	
39.0	230.2978525143444	pulse	1.0	t		34.0	male	white	2.651014723438122	smiling	121	sub-08	2.0	2.0	121_smiling	0.0		251.17809222328378	
39.0	230.99783902143463	pulse	1.0	t		34.0	male	white	2.651014723438122	smiling	121	sub-08	2.0	2.0	121_smiling	0.0		251.878078730374	
39.0	231.69783277304032	pulse	1.0	t		34.0	male	white	2.651014723438122	smiling	121	sub-08	2.0	2.0	121_smiling	0.0		252.5780724819797	
40.0	232.2560395864466	fix	0.0		720													253.13627929538598	5.999862354207835
40.0	232.39782441166244	pulse	0.0	t														253.2780641206018	
40.0	233.09777952585227	pulse	0.0	t														253.97801923479165	
40.0	233.79775788286224	pulse	0.0	t														254.6779975918016	
40.0	234.4977600864022	pulse	0.0	t														255.37799979534157	
40.0	235.1977474990572	pulse	0.0	t														256.07798720799656	
40.0	235.89772796905072	pulse	0.0	t														256.7779676779901	
40.0	236.59773017259158	pulse	0.0	t														257.47796988153095	
40.0	237.29770641661798	pulse	0.0	t														258.17794612555736	
40.0	237.99768749032137	pulse	0.0	t														258.87792719926074	
