trial_nr	onset	event_type	phase	response	nr_frames	rating_type	face_id	repetition	session	rating	onset_abs	duration
0.0	0.009704848953106193	cue	0.0		479						789.8344431431261	3.9920839269759654
0.0	4.001788775929072	fix	1.0		120						793.8265270701021	1.0251376445871756
0.0	5.026926420516247	face	0.0		146	attractiveness	005	1.0	2		794.8516647146893	1.2753595059284635
0.0	6.302285926444711	rating	1.0		232	attractiveness	005	1.0	2		796.1270242206177	1.9416236024244427
0.0	8.243909528869153	fix	2.0		60	attractiveness	005	1.0	2	-2.63	798.0686478230422	0.5167425321774317
1.0	8.760652061046585	face	0.0		147	attractiveness	038	1.0	2		798.5853903552196	1.2334422013475432
1.0	9.994094262394128	rating	1.0		213	attractiveness	038	1.0	2		799.8188325565671	1.7835194755016346
1.0	11.777613737895763	fix	2.0		60	attractiveness	038	1.0	2	-3.12	801.6023520320688	0.516746758107729
2.0	12.294360496003492	face	0.0		147	attractiveness	061	1.0	2		802.1190987901765	1.2334412957909535
2.0	13.527801791794445	rating	1.0		158	attractiveness	061	1.0	2		803.3525400859675	1.3167965637151156
2.0	14.84459835550956	fix	2.0		60	attractiveness	061	1.0	2	-0.7799999999999998	804.6693366496826	0.5167521914465851
3.0	15.361350546956146	face	0.0		147	attractiveness	039	1.0	2		805.1860888411292	1.2334422013475432
3.0	16.59479274830369	rating	1.0		69	attractiveness	039	1.0	2		806.4195310424767	0.5750594648764036
3.0	17.169852213180093	fix	2.0		60	attractiveness	039	1.0	2	0.17999999999999972	806.9945905073531	0.5167446451425803
4.0	17.686596858322673	face	0.0		147	attractiveness	070	1.0	2		807.5113351524957	1.2334406920867877
4.0	18.92003755040946	rating	1.0		111	attractiveness	070	1.0	2		808.7447758445825	0.9250990075099708
4.0	19.84513655791943	fix	2.0		60	attractiveness	070	1.0	2	-0.8500000000000001	809.6698748520924	0.5167793581415481
5.0	20.36191591606098	face	0.0		147	attractiveness	091	1.0	2		810.186654210234	1.233407790200772
5.0	21.595323706261752	rating	1.0		117	attractiveness	091	1.0	2		811.4200620004348	0.9751011204750739
5.0	22.570424826736826	fix	2.0		60	attractiveness	091	1.0	2	0.7400000000000002	812.3951631209098	0.516743739586218
6.0	23.087168566323044	face	0.0		147	attractiveness	126	1.0	2		812.9119068604961	1.2334449180168576
6.0	24.3206134843399	rating	1.0		159	attractiveness	126	1.0	2		814.1453517785129	1.3251367390307678
6.0	25.64575022337067	fix	2.0		60	attractiveness	126	1.0	2	0.9500000000000002	815.4704885175437	0.5167428340296283
7.0	26.162493057400297	face	0.0		147	attractiveness	117	1.0	2		815.9872313515733	1.2334494457993515
7.0	27.39594250319965	rating	1.0		116	attractiveness	117	1.0	2		817.2206807973727	0.975105044553402
7.0	28.37104754775305	fix	2.0		60	attractiveness	117	1.0	2	0.4400000000000004	818.1957858419261	0.5167380043949379
8.0	28.88778555214799	face	0.0		147	attractiveness	092	1.0	2		818.712523846321	1.2334488420951857
8.0	30.121234394243174	rating	1.0		87	attractiveness	092	1.0	2		819.9459726884162	0.725069124145648
8.0	30.846303518388822	fix	2.0		60	attractiveness	092	1.0	2	-0.5299999999999998	820.6710418125618	0.5167434377340214
9.0	31.363046956122844	face	0.0		147	attractiveness	101	1.0	2		821.1877852502959	1.2334425031995124
9.0	32.596489459322356	rating	1.0		226	attractiveness	101	1.0	2		822.4212277534954	1.8835306440319073
9.0	34.48002010335426	fix	2.0		60	attractiveness	101	1.0	2	1.4000000000000004	824.3047583975273	0.5167479655162879
10.0	34.99676806887055	face	0.0		147	attractiveness	030	1.0	2		824.8215063630436	1.233439786530198
10.0	36.23020785540075	rating	1.0		123	attractiveness	030	1.0	2		826.0549461495738	1.0251059501099462
10.0	37.255313805510696	fix	2.0		61	attractiveness	030	1.0	2	0.5300000000000002	827.0800520996837	0.5250808963801319
11.0	37.78039470189083	face	0.0		146	attractiveness	082	1.0	2		827.6051329960638	1.225106855666354
11.0	39.00550155755718	rating	1.0		134	attractiveness	082	1.0	2		828.8302398517302	1.1167929414889386
11.0	40.12229449904612	fix	2.0		60	attractiveness	082	1.0	2	1.0099999999999998	829.9470327932191	0.5167364951341824
12.0	40.6390309941803	face	0.0		147	attractiveness	136	1.0	2		830.4637692883533	1.233446125425644
12.0	41.872477119605946	rating	1.0		134	attractiveness	136	1.0	2		831.697215413779	1.125111685300908
12.0	42.997588804906854	fix	2.0		60	attractiveness	136	1.0	2	-1.3399999999999999	832.8223270990799	0.5167449469947769
13.0	43.51433375190163	face	0.0		147	attractiveness	042	1.0	2		833.3390720460746	1.2334437106082987
13.0	44.74777746250993	rating	1.0		185	attractiveness	042	1.0	2		834.572515756683	1.5418285600444506
13.0	46.28960602255438	fix	2.0		60	attractiveness	042	1.0	2	1.38	836.1143443167274	0.5167470599599255
14.0	46.806353082514306	face	0.0		147	attractiveness	044	1.0	2		836.6310913766873	1.2334406920867877
14.0	48.039793774601094	rating	1.0		118	attractiveness	044	1.0	2		837.8645320687741	0.9834385791214117
14.0	49.023232353722506	fix	2.0		60	attractiveness	044	1.0	2	0.3600000000000003	838.8479706478955	0.5167422303252351
15.0	49.53997458404774	face	0.0		147	attractiveness	144	1.0	2		839.3647128782208	1.23344159764315
15.0	50.77341618169089	rating	1.0		256	attractiveness	144	1.0	2		840.5981544758639	2.1418922508512424
15.0	52.91530843254213	fix	2.0		61	attractiveness	144	1.0	2	1.2400000000000002	842.7400467267151	0.5250833111974771
16.0	53.44039174373961	face	0.0		146	attractiveness	033	1.0	2		843.2651300379126	1.2251041389968123
16.0	54.66549588273642	rating	1.0		246	attractiveness	033	1.0	2		844.4902341769094	2.0502155224457965
16.0	56.71571140518222	fix	2.0		60	attractiveness	033	1.0	2	1.83	846.5404496993552	0.5167473618121221
17.0	57.23245876699434	face	0.0		147	attractiveness	087	1.0	2		847.0571970611674	1.2334406920865604
17.0	58.4658994590809	rating	1.0		160	attractiveness	087	1.0	2		848.2906377532539	1.3418056192799668
17.0	59.80770507836087	fix	2.0		60	attractiveness	087	1.0	2	1.0300000000000002	849.6324433725339	0.5167452488469735
18.0	60.32445032720784	face	0.0		147	attractiveness	043	1.0	2		850.1491886213809	1.2334431069039056
18.0	61.55789343411175	rating	1.0		153	attractiveness	043	1.0	2		851.3826317282848	1.2834681606336744
18.0	62.84136159474542	fix	2.0		60	attractiveness	043	1.0	2	0.03000000000000025	852.6660998889184	0.5167449469947769
19.0	63.3581065417402	face	0.0		147	attractiveness	012	1.0	2		853.1828448359132	1.2334412957909535
19.0	64.59154783753115	rating	1.0		173	attractiveness	012	1.0	2		854.4162861317042	1.4418176933663744
19.0	66.03336553089753	fix	2.0		60	attractiveness	012	1.0	2	1.5199999999999996	855.8581038250705	0.5167470599599255
20.0	66.55011259085745	face	0.0		147	attractiveness	062	1.0	2		856.3748508850305	1.23344159764315
20.0	67.7835541885006	rating	1.0		134	attractiveness	062	1.0	2		857.6082924826736	1.1167820748112263
20.0	68.90033626331183	fix	2.0		60	attractiveness	062	1.0	2	-1.12	858.7250745574848	0.5167440414381872
21.0	69.41708030475002	face	0.0		147	attractiveness	018	1.0	2		859.241818598923	1.2334449180168576
21.0	70.65052522276687	rating	1.0		196	attractiveness	018	1.0	2		860.4752635169399	1.6418379174615438
21.0	72.29236314022842	fix	2.0		60	attractiveness	018	1.0	2	-0.16999999999999993	862.1171014344014	0.516743739586218
22.0	72.80910687981464	face	0.0		147	attractiveness	009	1.0	2		862.6338451739877	1.2334527661732864
22.0	74.04255964598792	rating	1.0		169	attractiveness	009	1.0	2		863.8672979401609	1.4168050155753917
22.0	75.45936466156331	fix	2.0		60	attractiveness	009	1.0	2	2.51	865.2841029557363	0.5167476636643187
23.0	75.97611232522763	face	0.0		147	attractiveness	172	1.0	2		865.8008506194006	1.2334418994953467
23.0	77.20955422472298	rating	1.0		117	attractiveness	172	1.0	2		867.034292518896	0.9750996112143184
23.0	78.1846538359373	fix	2.0		60	attractiveness	172	1.0	2	-1.27	868.0093921301103	0.5167458525513666
24.0	78.70139968848866	face	0.0		147	attractiveness	141	1.0	2		868.5261379826617	1.2334714810074274
24.0	79.93487116949609	rating	1.0		134	attractiveness	141	1.0	2		869.7596094636691	1.1250893482408628
24.0	81.05996051773695	fix	2.0		60	attractiveness	141	1.0	2	-0.20000000000000018	870.88469881191	0.5167437395859906
25.0	81.57670425732294	face	0.0		147	attractiveness	100	1.0	2		871.401442551496	1.2334509550603343
25.0	82.81015521238328	rating	1.0		120	attractiveness	100	1.0	2		872.6348935065563	1.0084340513390089
25.0	83.81858926372229	fix	2.0		60	attractiveness	100	1.0	2	1.38	873.6433275578953	0.5167449469947769
26.0	84.33533421071706	face	0.0		147	attractiveness	006	1.0	2		874.1600725048901	1.233437673564822
26.0	85.56877188428189	rating	1.0		331	attractiveness	006	1.0	2		875.3935101784549	2.7669589601798634
26.0	88.33573084446175	fix	2.0		60	attractiveness	006	1.0	2	-1.0099999999999998	878.1604691386348	0.5167446451425803
27.0	88.85247548960433	face	0.0		147	attractiveness	066	1.0	2		878.6772137837773	1.2334434087561021
27.0	90.08591889836043	rating	1.0		126	attractiveness	066	1.0	2		879.9106571925334	1.050110176040107
27.0	91.13602907440054	fix	2.0		60	attractiveness	066	1.0	2	1.0199999999999996	880.9607673685736	0.5167503803338604
28.0	91.6527794547344	face	0.0		147	attractiveness	064	1.0	2		881.4775177489074	1.2334826495375637
28.0	92.88626210427196	rating	1.0		67	attractiveness	064	1.0	2		882.711000398445	0.5666776339619446
28.0	93.45293973823391	fix	2.0		60	attractiveness	064	1.0	2	0.6699999999999999	883.2776780324069	0.5167446451425803
29.0	93.96968438337649	face	0.0		147	attractiveness	011	1.0	2		883.7944226775495	1.2334418994953467
29.0	95.20312628287184	rating	1.0		80	attractiveness	011	1.0	2		885.0278645770449	0.675072444519401
29.0	95.87819872739124	fix	2.0		60	attractiveness	011	1.0	2	-0.18999999999999995	885.7029370215643	0.5167446451425803
30.0	96.39494337253382	face	0.0		147	attractiveness	121	1.0	2		886.2196816667068	1.23344159764315
30.0	97.62838497017697	rating	1.0		68	attractiveness	121	1.0	2		887.45312326435	0.575059464876631
30.0	98.2034444350536	fix	2.0		60	attractiveness	121	1.0	2	0.4900000000000002	888.0281827292266	0.5167422303252351
31.0	98.72018666537883	face	0.0		147	attractiveness	124	1.0	2		888.5449249595518	1.2334434087561021
31.0	99.95363007413494	rating	1.0		194	attractiveness	124	1.0	2		889.778368368308	1.6168364082006974
31.0	101.57046648233563	fix	2.0		60	attractiveness	124	1.0	2	3.26	891.3952047765086	0.5167470599599255
32.0	102.08721354229556	face	0.0		147	attractiveness	024	1.0	2		891.9119518364686	1.2334482383907925
32.0	103.32066178068635	rating	1.0		140	attractiveness	024	1.0	2		893.1454000748594	1.175115307526994
32.0	104.49577708821334	fix	2.0		60	attractiveness	024	1.0	2	-0.79	894.3205153823864	0.51674555069917
33.0	105.01252263891251	face	0.0		147	attractiveness	130	1.0	2		894.8372609330855	1.2334425031995124
33.0	106.24596514211203	rating	1.0		62	attractiveness	130	1.0	2		896.070703436285	0.5250543333897895
33.0	106.77101947550182	fix	2.0		61	attractiveness	130	1.0	2	-0.56	896.5957577696748	0.5250808963801319
34.0	107.29610037188195	face	0.0		146	attractiveness	036	1.0	2		897.120838666055	1.2251153075269485
34.0	108.5212156794089	rating	1.0		95	attractiveness	036	1.0	2		898.3459539735819	0.8000709352586455
34.0	109.32128661466754	fix	2.0		60	attractiveness	036	1.0	2	0.8200000000000003	899.1460249088406	0.5167503803338604
35.0	109.8380369950014	face	0.0		147	attractiveness	034	1.0	2		899.6627752891744	1.2334388809736083
35.0	111.07147587597501	rating	1.0		70	attractiveness	034	1.0	2		900.896214170148	0.5917437395860361
35.0	111.66321961556105	fix	2.0		60	attractiveness	034	1.0	2	0.45999999999999996	901.4879579097341	0.5167313636475228
36.0	112.17995097920857	face	0.0		147	attractiveness	027	1.0	2		902.0046892733816	1.233439182825805
36.0	113.41339016203437	rating	1.0		105	attractiveness	027	1.0	2		903.2381284562074	0.8834274105913664
36.0	114.29681757262574	fix	2.0		60	attractiveness	027	1.0	2	1.29	904.1215558667988	0.5167473618121221
37.0	114.81356493443786	face	0.0		147	attractiveness	099	1.0	2		904.6383032286109	1.2334403902343638
37.0	116.04700532467223	rating	1.0		102	attractiveness	099	1.0	2		905.8717436188452	0.8584210716958296
37.0	116.90542639636806	fix	2.0		60	attractiveness	099	1.0	2	-0.6499999999999999	906.7301646905411	0.5167440414384146
38.0	117.42217043780647	face	0.0		147	attractiveness	102	1.0	2		907.2469087319795	1.2334431069039056
38.0	118.65561354471038	rating	1.0		177	attractiveness	102	1.0	2		908.4803518388834	1.4834892902852062
38.0	120.13910283499558	fix	2.0		60	attractiveness	102	1.0	2	-0.8999999999999999	909.9638411291686	0.5167458525511393
39.0	120.65584868754672	face	0.0		147	attractiveness	137	1.0	2		910.4805869817197	1.233450049503972
39.0	121.8892987370507	rating	1.0		83	attractiveness	137	1.0	2		911.7140370312237	0.7000621815459454
39.0	122.58936091859664	fix	2.0		60	attractiveness	137	1.0	2	-0.31000000000000005	912.4140992127697	0.5000546352416677
40.0	123.08941555383831	cue	0.0		480						912.9141538480113	4.000424102291845
40.0	127.08983965613015	fix	1.0		120						916.9145779503032	1.0168016952015932
40.0	128.10664135133175	face	0.0		147	trustworthiness	011	1.0	2		917.9313796455048	1.2334911013981582
40.0	129.3401324527299	rating	1.0		141	trustworthiness	011	1.0	2		919.1648707469029	1.1834026587139306
40.0	130.52353511144383	fix	2.0		61	trustworthiness	011	1.0	2	0.8099999999999996	920.3482734056169	0.5250863297192154
41.0	131.04862144116305	face	0.0		146	trustworthiness	102	1.0	2		920.8733597353361	1.2251047427012054
41.0	132.27372618386426	rating	1.0		152	trustworthiness	102	1.0	2		922.0984644780373	1.2751316075439263
41.0	133.54885779140818	fix	2.0		60	trustworthiness	102	1.0	2	1.1799999999999997	923.3735960855812	0.5167455506989427
42.0	134.06560334210712	face	0.0		147	trustworthiness	121	1.0	2		923.8903416362801	1.2334412957909535
42.0	135.29904463789808	rating	1.0		84	trustworthiness	121	1.0	2		925.1237829320711	0.7084578976600824
42.0	136.00750253555816	fix	2.0		60	trustworthiness	121	1.0	2	-0.81	925.8322408297312	0.5167020839874112
43.0	136.52420461954557	face	0.0		147	trustworthiness	101	1.0	2		926.3489429137186	1.2334331457825556
43.0	137.75763776532813	rating	1.0		128	trustworthiness	101	1.0	2		927.5823760595011	1.0751144019704952
43.0	138.83275216729862	fix	2.0		60	trustworthiness	101	1.0	2	-1.2400000000000002	928.6574904614716	0.5167482673684844
44.0	139.3495004346671	face	0.0		147	trustworthiness	030	1.0	2		929.1742387288401	1.2334455217212508
44.0	140.58294595638836	rating	1.0		88	trustworthiness	030	1.0	2		930.4076842505614	0.7417355895777291
44.0	141.3246815459661	fix	2.0		60	trustworthiness	030	1.0	2	0.6500000000000004	931.1494198401391	0.5167452488469735
45.0	141.84142679481306	face	0.0		147	trustworthiness	064	1.0	2		931.6661650889861	1.2334437106082987
45.0	143.07487050542136	rating	1.0		170	trustworthiness	064	1.0	2		932.8996087995944	1.425147907560813
45.0	144.50001841298217	fix	2.0		60	trustworthiness	064	1.0	2	0.8700000000000001	934.3247567071552	0.5167470599599255
46.0	145.0167654729421	face	0.0		147	trustworthiness	091	1.0	2		934.8415037671151	1.2334443143124645
46.0	146.25020978725456	rating	1.0		97	trustworthiness	091	1.0	2		936.0749480814276	0.8167479655164698
46.0	147.06695775277103	fix	2.0		60	trustworthiness	091	1.0	2	0.8899999999999997	936.891696046944	0.51674555069917
47.0	147.5837033034702	face	0.0		147	trustworthiness	009	1.0	2		937.4084415976432	1.2334412957909535
47.0	148.81714459926116	rating	1.0		98	trustworthiness	009	1.0	2		938.6418828934342	0.8250869334233357
47.0	149.6422315326845	fix	2.0		60	trustworthiness	009	1.0	2	1.2599999999999998	939.4669698268575	0.5167434377340214
48.0	150.1589749704185	face	0.0		147	trustworthiness	066	1.0	2		939.9837132645915	1.233446729130037
48.0	151.39242169954855	rating	1.0		128	trustworthiness	066	1.0	2		941.2171599937216	1.0751116853009535
48.0	152.4675333848495	fix	2.0		61	trustworthiness	066	1.0	2	-1.3900000000000001	942.2922716790225	0.5250781797105901
49.0	152.9926115645601	face	0.0		146	trustworthiness	024	1.0	2		942.8173498587331	1.225106855666354
49.0	154.21771842022645	rating	1.0		104	trustworthiness	024	1.0	2		944.0424567143995	0.8750908575018457
49.0	155.0928092777283	fix	2.0		60	trustworthiness	024	1.0	2	-0.4700000000000002	944.9175475719013	0.5167437395859906
50.0	155.60955301731428	face	0.0		147	trustworthiness	043	1.0	2		945.4342913114873	1.2334437106082987
50.0	156.84299672792258	rating	1.0		136	trustworthiness	043	1.0	2		946.6677350220956	1.1417878100021426
50.0	157.98478453792472	fix	2.0		60	trustworthiness	043	1.0	2	0.040000000000000036	947.8095228320977	0.5167431358818249
51.0	158.50152767380655	face	0.0		147	trustworthiness	038	1.0	2		948.3262659679796	1.23344159764315
51.0	159.7349692714497	rating	1.0		71	trustworthiness	038	1.0	2		949.5597075656227	0.6000615778416432
51.0	160.33503084929134	fix	2.0		60	trustworthiness	038	1.0	2	0.21999999999999975	950.1597691434644	0.516748569220681
52.0	160.85177941851202	face	0.0		147	trustworthiness	082	1.0	2		950.676517712685	1.233439786530198
52.0	162.08521920504222	rating	1.0		84	trustworthiness	082	1.0	2		951.9099574992152	0.7084059790877291
52.0	162.79362518412995	fix	2.0		60	trustworthiness	082	1.0	2	0.6200000000000001	952.618363478303	0.5167497766292399
53.0	163.3103749607592	face	0.0		147	trustworthiness	034	1.0	2		953.1351132549322	1.2334382772694426
53.0	164.54381323802863	rating	1.0		177	trustworthiness	034	1.0	2		954.3685515322016	1.4834892902852062
53.0	166.02730252831384	fix	2.0		60	trustworthiness	034	1.0	2	0.8200000000000003	955.8520408224869	0.5167398155078899
54.0	166.54404234382173	face	0.0		147	trustworthiness	117	1.0	2		956.3687806379947	1.2334473328342028
54.0	167.77748967665593	rating	1.0		95	trustworthiness	117	1.0	2		957.602227970829	0.8000830093453715
54.0	168.5775726860013	fix	2.0		60	trustworthiness	117	1.0	2	-0.7200000000000002	958.4023109801743	0.5167446451425803
55.0	169.09431733114388	face	0.0		147	trustworthiness	136	1.0	2		958.9190556253169	1.2334422013475432
55.0	170.32775953249143	rating	1.0		122	trustworthiness	136	1.0	2		960.1524978266644	1.0251062519619154
55.0	171.35286578445334	fix	2.0		60	trustworthiness	136	1.0	2	0.5199999999999996	961.1776040786264	0.5167452488469735
56.0	171.86961103330032	face	0.0		147	trustworthiness	126	1.0	2		961.6943493274733	1.2334428050519364
56.0	173.10305383835225	rating	1.0		158	trustworthiness	126	1.0	2		962.9277921325253	1.3251394557000822
56.0	174.42819329405233	fix	2.0		60	trustworthiness	126	1.0	2	0.7400000000000002	964.2529315882254	0.5167446451425803
57.0	174.94493793919492	face	0.0		147	trustworthiness	033	1.0	2		964.7696762333679	1.233448540242989
57.0	176.1783864794379	rating	1.0		179	trustworthiness	033	1.0	2		966.0031247736109	1.5001500205260072
57.0	177.6785364999639	fix	2.0		60	trustworthiness	033	1.0	2	-1.3900000000000001	967.5032747941369	0.5167452488467461
58.0	178.19528174881066	face	0.0		147	trustworthiness	062	1.0	2		968.0200200429837	1.2334394846780015
58.0	179.42872123348866	rating	1.0		157	trustworthiness	062	1.0	2		969.2534595276617	1.316808034097221
58.0	180.74552926758588	fix	2.0		60	trustworthiness	062	1.0	2	-0.8900000000000001	970.5702675617589	0.516746758107729
59.0	181.2622760256936	face	0.0		147	trustworthiness	006	1.0	2		971.0870143198666	1.233439182825805
59.0	182.4957152085194	rating	1.0		158	trustworthiness	006	1.0	2		972.3204535026924	1.3251400594047027
59.0	183.82085526792412	fix	2.0		60	trustworthiness	006	1.0	2	-0.3999999999999999	973.6455935620971	0.5167440414381872
60.0	184.3375993093623	face	0.0		147	trustworthiness	039	1.0	2		974.1623376035353	1.2334425031995124
60.0	185.57104181256182	rating	1.0		299	trustworthiness	039	1.0	2		975.3957801067348	2.5002653280530467
60.0	188.07130714061486	fix	2.0		60	trustworthiness	039	1.0	2	1.1100000000000003	977.8960454347879	0.5167434377340214
61.0	188.58805057834888	face	0.0		147	trustworthiness	144	1.0	2		978.4127888725219	1.2334437106082987
61.0	189.82149428895718	rating	1.0		124	trustworthiness	144	1.0	2		979.6462325831302	1.0417745285067213
61.0	190.8632688174639	fix	2.0		61	trustworthiness	144	1.0	2	1.25	980.6880071116369	0.5250811982325558
62.0	191.38835001569646	face	0.0		146	trustworthiness	130	1.0	2		981.2130883098695	1.2251065538141575
62.0	192.61345656951062	rating	1.0		83	trustworthiness	130	1.0	2		982.4381948636836	0.700071237110933
62.0	193.31352780662155	fix	2.0		60	trustworthiness	130	1.0	2	0.5800000000000001	983.1382661007946	0.5167446451425803
63.0	193.83027245176413	face	0.0		147	trustworthiness	042	1.0	2		983.6550107459371	1.2334412957909535
63.0	195.06371374755508	rating	1.0		104	trustworthiness	042	1.0	2		984.8884520417281	0.8751228538310443
63.0	195.93883660138613	fix	2.0		60	trustworthiness	042	1.0	2	-0.8399999999999999	985.7635748955591	0.5167150636304996
64.0	196.45555166501663	face	0.0		147	trustworthiness	092	1.0	2		986.2802899591896	1.233442805051709
64.0	197.68899447006834	rating	1.0		76	trustworthiness	092	1.0	2		987.5137327642414	0.6417328729082783
64.0	198.33072734297662	fix	2.0		60	trustworthiness	092	1.0	2	-0.3500000000000001	988.1554656371496	0.5167443432903838
65.0	198.847471686267	face	0.0		147	trustworthiness	070	1.0	2		988.67220998044	1.2334437106082987
65.0	200.0809153968753	rating	1.0		158	trustworthiness	070	1.0	2		989.9056536910483	1.3251584723866472
65.0	201.40607386926195	fix	2.0		60	trustworthiness	070	1.0	2	-1.44	991.230812163435	0.5167259303082119
66.0	201.92279979957016	face	0.0		147	trustworthiness	099	1.0	2		991.7475380937432	1.2334425031997398
66.0	203.1562423027699	rating	1.0		136	trustworthiness	099	1.0	2		992.9809805969429	1.1417832822196488
66.0	204.29802558498955	fix	2.0		60	trustworthiness	099	1.0	2	-0.77	994.1227638791626	0.5167549081161269
67.0	204.81478049310567	face	0.0		147	trustworthiness	005	1.0	2		994.6395187872787	1.2334331457825556
67.0	206.04821363888823	rating	1.0		107	trustworthiness	005	1.0	2		995.8729519330612	0.9000923667624647
67.0	206.9483060056507	fix	2.0		60	trustworthiness	005	1.0	2	0.7800000000000002	996.7730442998237	0.5167482673684844
68.0	207.46505427301918	face	0.0		147	trustworthiness	087	1.0	2		997.2897925671922	1.2334425031997398
68.0	208.69849677621892	rating	1.0		111	trustworthiness	087	1.0	2		998.5232350703919	0.9334385791214572
68.0	209.63193535534037	fix	2.0		60	trustworthiness	087	1.0	2	0.40000000000000036	999.4566736495134	0.5167322692038852
69.0	210.14866762454426	face	0.0		147	trustworthiness	100	1.0	2		999.9734059187173	1.2334464272778405
69.0	211.3821140518221	rating	1.0		129	trustworthiness	100	1.0	2		1001.2068523459951	1.0834464272777495
69.0	212.46556047909985	fix	2.0		60	trustworthiness	100	1.0	2	0.8799999999999999	1002.2902987732729	0.5167440414381872
70.0	212.98230452053804	face	0.0		147	trustworthiness	172	1.0	2		1002.807042814711	1.2334428050519364
70.0	214.21574732558997	rating	1.0		105	trustworthiness	172	1.0	2		1004.040485619763	0.8834246939218247
70.0	215.0991720195118	fix	2.0		60	trustworthiness	172	1.0	2	1.2199999999999998	1004.9239103136848	0.5167419284730386
71.0	215.61591394798484	face	0.0		147	trustworthiness	061	1.0	2		1005.4406522421579	1.2334443143126919
71.0	216.84935826229753	rating	1.0		87	trustworthiness	061	1.0	2		1006.6740965564705	0.7334111105744796
71.0	217.582769372872	fix	2.0		60	trustworthiness	061	1.0	2	0.4500000000000002	1007.407507667045	0.5167449469947769
72.0	218.09951431986678	face	0.0		147	trustworthiness	027	1.0	2		1007.9242526140398	1.2334412957909535
72.0	219.33295561565774	rating	1.0		137	trustworthiness	027	1.0	2		1009.1576939098308	1.1501219482745455
72.0	220.48307756393228	fix	2.0		60	trustworthiness	027	1.0	2	1.38	1010.3078158581053	0.5167570210815029
73.0	220.9998345850138	face	0.0		147	trustworthiness	018	1.0	2		1010.8245728791868	1.233428919852031
73.0	222.23326350486582	rating	1.0		117	trustworthiness	018	1.0	2		1012.0580017990388	0.9834334476347522
73.0	223.21669695250057	fix	2.0		60	trustworthiness	018	1.0	2	1.79	1013.0414352466736	0.5167473618121221
74.0	223.7334443143127	face	0.0		147	trustworthiness	036	1.0	2		1013.5581826084857	1.2334434087561021
74.0	224.9668877230688	rating	1.0		128	trustworthiness	036	1.0	2		1014.7916260172418	1.0751116853009535
74.0	226.04199940836975	fix	2.0		60	trustworthiness	036	1.0	2	1.3899999999999997	1015.8667377025428	0.516743739586218
75.0	226.55874314795597	face	0.0		147	trustworthiness	124	1.0	2		1016.383481442129	1.233444616164661
75.0	227.79218776412063	rating	1.0		174	trustworthiness	124	1.0	2		1017.6169260582936	1.4585200792059823
75.0	229.2507078433266	fix	2.0		60	trustworthiness	124	1.0	2	1.7000000000000002	1019.0754461374996	0.5167105358480057
76.0	229.76741837917461	face	0.0		147	trustworthiness	012	1.0	2		1019.5921566733476	1.2334428050519364
76.0	231.00086118422655	rating	1.0		168	trustworthiness	012	1.0	2		1020.8255994783996	1.4501494168214322
76.0	232.45101060104798	fix	2.0		60	trustworthiness	012	1.0	2	2.05	1022.275748895221	0.5167473618121221
77.0	232.9677579628601	face	0.0		147	trustworthiness	044	1.0	2		1022.7924962570331	1.233440993938757
77.0	234.20119895679886	rating	1.0		426	trustworthiness	044	1.0	2		1024.0259372509718	3.558708133104801
77.0	237.75990708990366	fix	2.0		60	trustworthiness	044	1.0	2	0.6200000000000001	1027.5846453840768	0.5167473618121221
78.0	238.27665445171579	face	0.0		147	trustworthiness	141	1.0	2		1028.101392745889	1.2334400883823946
78.0	239.51009454009818	rating	1.0		188	trustworthiness	141	1.0	2		1029.3348328342713	1.5751623964645205
78.0	241.0852569365627	fix	2.0		60	trustworthiness	141	1.0	2	0.8600000000000003	1030.9099952307356	0.516753700707568
79.0	241.60201063727027	face	0.0		147	trustworthiness	137	1.0	2		1031.4267489314434	1.2334367680084597
79.0	242.83544740527873	rating	1.0		110	trustworthiness	137	1.0	2		1032.6601856994516	0.92513734273507
79.0	243.7605847480138	fix	2.0		60	trustworthiness	137	1.0	2	-0.48	1033.5853230421867	0.5000129796430883
80.0	244.2605977276569	cue	0.0		480						1034.0853360218298	4.000429837482898
80.0	248.26102756513978	fix	1.0		120						1038.0857658593127	1.016797469271296
80.0	249.27782503441108	face	0.0		147	dominance	039	1.0	2		1039.102563328584	1.2334349568955076
80.0	250.5112599913066	rating	1.0		142	dominance	039	1.0	2		1040.3359982854795	1.1917923377848183
80.0	251.7030523290914	fix	2.0		60	dominance	039	1.0	2	-1.29	1041.5277906232645	0.5167440414381872
81.0	252.2197963705296	face	0.0		147	dominance	144	1.0	2		1042.0445346647025	1.2334434087561021
81.0	253.4532397792857	rating	1.0		61	dominance	144	1.0	2		1043.2779780734586	0.5167183840042071
81.0	253.9699581632899	fix	2.0		60	dominance	144	1.0	2	0.5099999999999998	1043.794696457463	0.5167461544035632
82.0	254.48670431769347	face	0.0		147	dominance	030	1.0	2		1044.3114426118664	1.2334418994953467
82.0	255.7201462171888	rating	1.0		61	dominance	030	1.0	2		1045.544884511362	0.5167198932649626
82.0	256.2368661104538	fix	2.0		61	dominance	030	1.0	2	0.5300000000000002	1046.061604404627	0.5250793871193764
83.0	256.76194549757315	face	0.0		146	dominance	042	1.0	2		1046.586683791746	1.2251098741880924
83.0	257.98705537176124	rating	1.0		76	dominance	042	1.0	2		1047.8117936659341	0.6417543044117338
83.0	258.628809676173	fix	2.0		61	dominance	042	1.0	2	0.8499999999999996	1048.4535479703459	0.5250573519113004
84.0	259.1538670280843	face	0.0		146	dominance	036	1.0	2		1048.9786053222574	1.2251092704836992
84.0	260.378976298568	rating	1.0		104	dominance	036	1.0	2		1050.203714592741	0.8750905556496491
84.0	261.2540668542176	fix	2.0		60	dominance	036	1.0	2	0.16999999999999993	1051.0788051483905	0.5167663784984597
85.0	261.7708332327161	face	0.0		147	dominance	082	1.0	2		1051.5955715268892	1.2334198642872707
85.0	263.00425309700336	rating	1.0		57	dominance	082	1.0	2		1052.8289913911763	0.4833824346187612
85.0	263.4876355316221	fix	2.0		60	dominance	082	1.0	2	-0.43999999999999995	1053.312373825795	0.5167437395859906
86.0	264.0043792712081	face	0.0		147	dominance	136	1.0	2		1053.8291175653812	1.2334428050519364
86.0	265.23782207626004	rating	1.0		78	dominance	136	1.0	2		1055.062560370433	0.6584092994614821
86.0	265.8962313757215	fix	2.0		60	dominance	136	1.0	2	-0.8300000000000001	1055.7209696698947	0.5167349858731995
87.0	266.4129663615947	face	0.0		147	dominance	009	1.0	2		1056.2377046557676	1.2334741976769692
87.0	267.6464405592717	rating	1.0		106	dominance	009	1.0	2		1057.4711788534446	0.8917289488299502
87.0	268.53816950810165	fix	2.0		60	dominance	009	1.0	2	0.4400000000000004	1058.3629078022745	0.516750682186057
88.0	269.0549201902877	face	0.0		147	dominance	034	1.0	2		1058.8796584844608	1.2334367680084597
88.0	270.28835695829616	rating	1.0		77	dominance	034	1.0	2		1060.113095252469	0.6500691241458298
88.0	270.938426082442	fix	2.0		60	dominance	034	1.0	2	0.40000000000000036	1060.763164376615	0.5167473618118947
89.0	271.4551734442539	face	0.0		147	dominance	121	1.0	2		1061.279911738427	1.233439786530198
89.0	272.6886132307841	rating	1.0		89	dominance	121	1.0	2		1062.5133515249572	0.7500763685977745
89.0	273.43868959938186	fix	2.0		60	dominance	121	1.0	2	1.08	1063.2634278935548	0.5167971674193268
90.0	273.9554867668012	face	0.0		147	dominance	101	1.0	2		1063.7802250609743	1.2333911883315523
90.0	275.18887795513274	rating	1.0		89	dominance	101	1.0	2		1065.0136162493059	0.7500754630411848
90.0	275.9389534181739	fix	2.0		60	dominance	101	1.0	2	1.1500000000000004	1065.7636917123468	0.5167564173771098
91.0	276.45570983555103	face	0.0		147	dominance	062	1.0	2		1066.280448129724	1.233434655043311
91.0	277.68914449059434	rating	1.0		215	dominance	062	1.0	2		1067.5138827847672	1.8001883557508336
91.0	279.4893328463452	fix	2.0		60	dominance	062	1.0	2	1.2199999999999998	1069.314071140518	0.5167452488469735
92.0	280.00607809519215	face	0.0		147	dominance	011	1.0	2		1069.8308163893653	1.233444616164661
92.0	281.2395227113568	rating	1.0		67	dominance	011	1.0	2		1071.0642610055297	0.5667204969695376
92.0	281.80624320832635	fix	2.0		60	dominance	011	1.0	2	0.4500000000000002	1071.6309815024993	0.5167443432906111
93.0	282.32298755161696	face	0.0		147	dominance	064	1.0	2		1072.1477258457899	1.2334434087561021
93.0	283.55643096037306	rating	1.0		166	dominance	064	1.0	2		1073.381169254546	1.3918137692880919
93.0	284.94824472966116	fix	2.0		60	dominance	064	1.0	2	-0.7400000000000002	1074.772983023834	0.5167440414384146
94.0	285.46498877109957	face	0.0		147	dominance	091	1.0	2		1075.2897270652725	1.2334431069039056
94.0	286.6984318780035	rating	1.0		91	dominance	091	1.0	2		1076.5231701721764	0.7667537007073406
94.0	287.4651855787108	fix	2.0		60	dominance	091	1.0	2	-0.8300000000000001	1077.2899238728837	0.5167374006909995
95.0	287.9819229794018	face	0.0		147	dominance	005	1.0	2		1077.8066612735747	1.233440692086333
95.0	289.21536367148815	rating	1.0		81	dominance	005	1.0	2		1079.040101965661	0.6834047716793066
95.0	289.89876844316746	fix	2.0		60	dominance	005	1.0	2	-1.4	1079.7235067373404	0.5167458525511393
96.0	290.4155142957186	face	0.0		147	dominance	117	1.0	2		1080.2402525898915	1.2334403902345912
96.0	291.6489546859532	rating	1.0		73	dominance	117	1.0	2		1081.473692980126	0.6167325710557634
96.0	292.26568725700895	fix	2.0		60	dominance	117	1.0	2	1.2599999999999998	1082.0904255511819	0.5167452488472009
97.0	292.78243250585615	face	0.0		147	dominance	024	1.0	2		1082.607170800029	1.233440692086333
97.0	294.0158731979425	rating	1.0		74	dominance	024	1.0	2		1083.8406114921154	0.6250648982154416
97.0	294.6409380961579	fix	2.0		60	dominance	024	1.0	2	-0.6200000000000001	1084.4656763903308	0.5167452488472009
98.0	295.1576833450051	face	0.0		147	dominance	130	1.0	2		1084.982421639178	1.2334434087561021
98.0	296.3911267537612	rating	1.0		123	dominance	130	1.0	2		1086.2158650479341	1.0334385791215936
98.0	297.4245653328828	fix	2.0		60	dominance	130	1.0	2	-1.8399999999999999	1087.2493036270557	0.5167479655160605
99.0	297.9413132983989	face	0.0		147	dominance	137	1.0	2		1087.7660515925718	1.2334415976433775
99.0	299.17475489604226	rating	1.0		95	dominance	137	1.0	2		1088.9994931902152	0.800081500084616
99.0	299.9748363961269	fix	2.0		60	dominance	137	1.0	2	0.8799999999999999	1089.7995746902998	0.5167506821858296
100.0	300.4915870783127	face	0.0		147	dominance	018	1.0	2		1090.3163253724856	1.2334500495035172
100.0	301.7250371278162	rating	1.0		97	dominance	018	1.0	2		1091.5497754219891	0.8167757359155985
100.0	302.5418128637318	fix	2.0		60	dominance	018	1.0	2	-2.25	1092.3665511579047	0.5167138562219407
101.0	303.05852671995376	face	0.0		147	dominance	012	1.0	2		1092.8832650141267	1.2334443143126919
101.0	304.29197103426645	rating	1.0		89	dominance	012	1.0	2		1094.1167093284394	0.7500709352584636
101.0	305.0420419695249	fix	2.0		60	dominance	012	1.0	2	0.29000000000000004	1094.8667802636978	0.5167431358818249
102.0	305.55878510540674	face	0.0		147	dominance	033	1.0	2		1095.3835233995796	1.233442805051709
102.0	306.79222791045845	rating	1.0		130	dominance	033	1.0	2		1096.6169662046314	1.0917853951850702
102.0	307.8840133056435	fix	2.0		60	dominance	033	1.0	2	1.6900000000000004	1097.7087515998164	0.516743739586218
103.0	308.40075704522974	face	0.0		147	dominance	061	1.0	2		1098.2254953394026	1.2334409939385296
103.0	309.63419803916827	rating	1.0		103	dominance	061	1.0	2		1099.4589363333412	0.8667621525682989
103.0	310.50096019173657	fix	2.0		60	dominance	061	1.0	2	0.5	1100.3256984859095	0.516738608099331
104.0	311.0176987998359	face	0.0		147	dominance	126	1.0	2		1100.8424370940088	1.2334409939385296
104.0	312.2511397937744	rating	1.0		137	dominance	126	1.0	2		1102.0758780879473	1.150119533457655
104.0	313.4012593272321	fix	2.0		60	dominance	126	1.0	2	0.8300000000000001	1103.225997621405	0.5167464562555324
105.0	313.9180057834876	face	0.0		147	dominance	066	1.0	2		1103.7427440776605	1.2334418994951193
105.0	315.15144768298273	rating	1.0		158	dominance	066	1.0	2		1104.9761859771556	1.3251400594044753
105.0	316.4765877423872	fix	2.0		60	dominance	066	1.0	2	1.5899999999999999	1106.30132603656	0.5167434377340214
106.0	316.99333118012123	face	0.0		147	dominance	038	1.0	2		1106.8180694742941	1.2334886865810404
106.0	318.2268198667023	rating	1.0		94	dominance	038	1.0	2		1108.0515581608752	0.7917546062640213
106.0	319.0185744729663	fix	2.0		60	dominance	038	1.0	2	-1.5499999999999998	1108.8433127671392	0.5166960469437072
107.0	319.53527051991	face	0.0		147	dominance	092	1.0	2		1109.360008814083	1.233439182825805
107.0	320.7687097027358	rating	1.0		198	dominance	092	1.0	2		1110.5934479969087	1.6585058921546079
107.0	322.4272155948904	fix	2.0		60	dominance	092	1.0	2	-0.7200000000000002	1112.2519538890633	0.5167485692204536
108.0	322.94396416411087	face	0.0		147	dominance	099	1.0	2		1112.7687024582838	1.2334431069039056
108.0	324.1774072710148	rating	1.0		123	dominance	099	1.0	2		1114.0021455651877	1.0334388809737902
108.0	325.21084615198856	fix	2.0		60	dominance	099	1.0	2	0.3600000000000003	1115.0355844461615	0.516743739586218
109.0	325.7275898915748	face	0.0		147	dominance	102	1.0	2		1115.5523281857477	1.233444918017085
109.0	326.96103480959187	rating	1.0		241	dominance	102	1.0	2		1116.7857731037648	2.0168744415732363
109.0	328.9779092511651	fix	2.0		60	dominance	102	1.0	2	-2.7800000000000002	1118.802647545338	0.5167503803336331
110.0	329.49465963149873	face	0.0		147	dominance	043	1.0	2		1119.3193979256716	1.2334394846780015
110.0	330.72809911617674	rating	1.0		106	dominance	043	1.0	2		1120.5528374103496	0.8917588321946823
110.0	331.6198579483714	fix	2.0		60	dominance	043	1.0	2	-0.5	1121.4445962425443	0.5167470599599255
111.0	332.13660500833134	face	0.0		147	dominance	044	1.0	2		1121.9613433025042	1.2334422013473159
111.0	333.37004720967866	rating	1.0		221	dominance	044	1.0	2		1123.1947855038516	1.8501928835335093
111.0	335.22024009321217	fix	2.0		60	dominance	044	1.0	2	0.3799999999999999	1125.044978387385	0.5167479655160605
112.0	335.73698805872823	face	0.0		147	dominance	124	1.0	2		1125.5617263529011	1.233441295791181
112.0	336.9704293545194	rating	1.0		127	dominance	124	1.0	2		1126.7951676486923	1.0667766414721882
112.0	338.0372059959916	fix	2.0		60	dominance	124	1.0	2	0.8399999999999999	1127.8619442901645	0.5167443432901564
113.0	338.55395033928176	face	0.0		147	dominance	141	1.0	2		1128.3786886334547	1.2334923088069445
113.0	339.7874426480887	rating	1.0		270	dominance	141	1.0	2		1129.6121809422616	2.258521890319116
113.0	342.0459645384078	fix	2.0		60	dominance	141	1.0	2	-1.7200000000000002	1131.8707028325807	0.5167458525511393
114.0	342.56271039095896	face	0.0		147	dominance	027	1.0	2		1132.3874486851319	1.2334403902345912
114.0	343.79615078119355	rating	1.0		78	dominance	027	1.0	2		1133.6208890753664	0.6584014513050533
114.0	344.4545522324986	fix	2.0		60	dominance	027	1.0	2	0.9900000000000002	1134.2792905266715	0.5167452488472009
115.0	344.9712974813458	face	0.0		147	dominance	087	1.0	2		1134.7960357755187	1.2334418994951193
115.0	346.2047393808409	rating	1.0		91	dominance	087	1.0	2		1136.0294776750138	0.7667552099683235
115.0	346.97149459080924	fix	2.0		60	dominance	087	1.0	2	0.3700000000000001	1136.7962328849821	0.5167425321774317
116.0	347.4882371229867	face	0.0		147	dominance	172	1.0	2		1137.3129754171596	1.2334373717126255
116.0	348.7216744946993	rating	1.0		139	dominance	172	1.0	2		1138.5464127888722	1.1667899229673822
116.0	349.8884644176667	fix	2.0		60	dominance	172	1.0	2	-1.7400000000000002	1139.7132027118396	0.5167428340296283
117.0	350.4052072516963	face	0.0		147	dominance	070	1.0	2		1140.2299455458692	1.233441295791181
117.0	351.6386485474875	rating	1.0		147	dominance	070	1.0	2		1141.4633868416604	1.2334639347031953
117.0	352.8721124821907	fix	2.0		60	dominance	070	1.0	2	1.83	1142.6968507763636	0.5167479655165153
118.0	353.3888604477072	face	0.0		147	dominance	100	1.0	2		1143.21359874188	1.2334394846780015
118.0	354.6222999323852	rating	1.0		134	dominance	100	1.0	2		1144.447038226558	1.1251162130834018
118.0	355.7474161454686	fix	2.0		60	dominance	100	1.0	2	0.7300000000000004	1145.5721544396415	0.5167449469950043
119.0	356.2641610924636	face	0.0		147	dominance	006	1.0	2		1146.0888993866365	1.2334412957907261
119.0	357.49760238825434	rating	1.0		106	dominance	006	1.0	2		1147.3223406824272	0.8917597377508173
119.0	358.38936212600515	fix	2.0		60	dominance	006	1.0	2	0.15000000000000036	1148.214100420178	0.5000564463548471
120.0	358.88941857236	cue	0.0		3600						1148.714156866533	30.00318544589618
120.0	388.8926040182562	fix	1.0		120						1178.717342312429	1.0001071575184142
120.0	389.8927111757746	cue	0.0		480						1179.7174494699475	4.00041595228322
120.0	393.8931271280578	fix	1.0		120						1183.7178654222307	1.016797469271296
120.0	394.9099245973291	face	0.0		147	attractiveness	137	2.0	2		1184.734662891502	1.2334425031999672
120.0	396.1433671005291	rating	1.0		173	attractiveness	137	2.0	2		1185.968105394702	1.4501596797949787
120.0	397.59352678032405	fix	2.0		60	attractiveness	137	2.0	2	-1.83	1187.418265074497	0.5167413247686454
121.0	398.1102681050927	face	0.0		147	attractiveness	038	2.0	2		1187.9350063992656	1.2334403902345912
121.0	399.3437084953273	rating	1.0		147	attractiveness	038	2.0	2		1189.1684467895002	1.2334612180338809
121.0	400.5771697133612	fix	2.0		60	attractiveness	038	2.0	2	-3.2199999999999998	1190.401908007534	0.5167446451428077
122.0	401.093914358504	face	0.0		147	attractiveness	102	2.0	2		1190.9186526526769	1.2334422013473159
122.0	402.3273565598513	rating	1.0		156	attractiveness	102	2.0	2		1192.1520948540242	1.308472084711866
122.0	403.63582864456316	fix	2.0		60	attractiveness	102	2.0	2	-3.15	1193.460566938736	0.5167401173598591
123.0	404.152568761923	face	0.0		147	attractiveness	099	2.0	2		1193.977307056096	1.2334633309992569
123.0	405.3860320929223	rating	1.0		99	attractiveness	099	2.0	2		1195.2107703870952	0.8334008476008421
123.0	406.2194329405231	fix	2.0		60	attractiveness	099	2.0	2	-1.5899999999999999	1196.044171234696	0.5167482673687118
124.0	406.73618120789183	face	0.0		147	attractiveness	061	2.0	2		1196.5609195020647	1.2334844606502884
124.0	407.9696656685421	rating	1.0		63	attractiveness	061	2.0	2		1197.794403962715	0.5333453068028575
124.0	408.503010975345	fix	2.0		60	attractiveness	061	2.0	2	-0.6600000000000001	1198.3277492695179	0.5167428340291735
125.0	409.01975380937415	face	0.0		147	attractiveness	121	2.0	2		1198.844492103547	1.2334428050521637
125.0	410.2531966144263	rating	1.0		80	attractiveness	121	2.0	2		1200.0779349085992	0.6750697278498592
125.0	410.9282663422762	fix	2.0		60	attractiveness	121	2.0	2	0.0	1200.753004636449	0.5167449469950043
126.0	411.4450112892712	face	0.0		147	attractiveness	027	2.0	2		1201.269749583444	1.2334418994951193
126.0	412.6784531887663	rating	1.0		101	attractiveness	027	2.0	2		1202.5031914829392	0.8500884426844095
126.0	413.5285416314507	fix	2.0		60	attractiveness	027	2.0	2	1.7599999999999998	1203.3532799256236	0.5167452488467461
127.0	414.04528688029745	face	0.0		147	attractiveness	024	2.0	2		1203.8700251744704	1.2334440124604953
127.0	415.27873089275795	rating	1.0		317	attractiveness	024	2.0	2		1205.1034691869309	2.6502786095484225
127.0	417.92900950230637	fix	2.0		60	attractiveness	024	2.0	2	-0.6600000000000001	1207.7537477964793	0.5167452488467461
128.0	418.4457547511531	face	0.0		147	attractiveness	117	2.0	2		1208.270493045326	1.2334403902345912
128.0	419.6791951413877	rating	1.0		102	attractiveness	117	2.0	2		1209.5039334355606	0.8584252976261268
128.0	420.53762043901384	fix	2.0		60	attractiveness	117	2.0	2	0.7699999999999996	1210.3623587331867	0.5167422303252351
129.0	421.05436266933907	face	0.0		147	attractiveness	064	2.0	2		1210.879100963512	1.2334437106082987
129.0	422.28780637994737	rating	1.0		81	attractiveness	064	2.0	2		1212.1125446741203	0.68340446982711
129.0	422.9712108497745	fix	2.0		60	attractiveness	064	2.0	2	0.20000000000000018	1212.7959491439474	0.5167437395857633
130.0	423.48795458936024	face	0.0		147	attractiveness	042	2.0	2		1213.3126928835331	1.2334422013477706
130.0	424.721396790708	rating	1.0		87	attractiveness	042	2.0	2		1214.546135084881	0.7334102050176625
130.0	425.4548069957257	fix	2.0		60	attractiveness	042	2.0	2	0.96	1215.2795452898986	0.516743739586218
131.0	425.9715507353119	face	0.0		147	attractiveness	043	2.0	2		1215.7962890294848	1.2334440124604953
131.0	427.2049947477724	rating	1.0		108	attractiveness	043	2.0	2		1217.0297330419453	0.9084307309653923
131.0	428.1134254787378	fix	2.0		60	attractiveness	043	2.0	2	-0.27	1217.9381637729107	0.5167503803336331
132.0	428.6301758590714	face	0.0		147	attractiveness	070	2.0	2		1218.4549141532443	1.2334307309652104
132.0	429.8636065900366	rating	1.0		75	attractiveness	070	2.0	2		1219.6883448842095	0.6334029605659452
132.0	430.49700955060257	fix	2.0		60	attractiveness	070	2.0	2	-0.5	1220.3217478447755	0.5167413247686454
133.0	431.0137508753712	face	0.0		147	attractiveness	141	2.0	2		1220.8384891695441	1.2334452198692816
133.0	432.2471960952405	rating	1.0		46	attractiveness	141	2.0	2		1222.0719343894134	0.391705706213088
133.0	432.6389018014536	fix	2.0		60	attractiveness	141	2.0	2	0.009999999999999787	1222.4636400956265	0.5167485692209084
134.0	433.1556503706745	face	0.0		147	attractiveness	136	2.0	2		1222.9803886648474	1.2334382772692152
134.0	434.3890886479437	rating	1.0		101	attractiveness	136	2.0	2		1224.2138269421166	0.8500872352756232
134.0	435.23917588321933	fix	2.0		60	attractiveness	136	2.0	2	-1.2799999999999998	1225.0639141773922	0.5167452488472009
135.0	435.75592113206653	face	0.0		147	attractiveness	044	2.0	2		1225.5806594262394	1.2334521624688932
135.0	436.9893732945354	rating	1.0		197	attractiveness	044	2.0	2		1226.8141115887083	1.6501723575861433
135.0	438.63954565212157	fix	2.0		60	attractiveness	044	2.0	2	0.7400000000000002	1228.4642839462945	0.5167440414379598
136.0	439.15628969355953	face	0.0		147	attractiveness	091	2.0	2		1228.9810279877324	1.2334364661564905
136.0	440.389726159716	rating	1.0		208	attractiveness	091	2.0	2		1230.214464453889	1.741855424887035
136.0	442.13158158460305	fix	2.0		60	attractiveness	091	2.0	2	0.8399999999999999	1231.956319878776	0.5167395136559207
137.0	442.648321098259	face	0.0		147	attractiveness	087	2.0	2		1232.4730593924319	1.2334388809736083
137.0	443.8817599792326	rating	1.0		101	attractiveness	087	2.0	2		1233.7064982734055	0.8500899519453924
137.0	444.731849931178	fix	2.0		60	attractiveness	087	2.0	2	1.2800000000000002	1234.5565882253509	0.5167443432901564
138.0	445.24859427446813	face	0.0		147	attractiveness	101	2.0	2		1235.073332568641	1.2334422013473159
138.0	446.48203647581545	rating	1.0		176	attractiveness	101	2.0	2		1236.3067747699884	1.4751536427520477
138.0	447.9571901185675	fix	2.0		60	attractiveness	101	2.0	2	1.7599999999999998	1237.7819284127404	0.5167524932990091
139.0	448.4739426118665	face	0.0		147	attractiveness	009	2.0	2		1238.2986809060394	1.2334367680082323
139.0	449.70737937987474	rating	1.0		251	attractiveness	009	2.0	2		1239.5321176740476	2.10022820023687
139.0	451.8076075801116	fix	2.0		60	attractiveness	009	2.0	2	2.46	1241.6323458742845	0.5167407210642523
140.0	452.32434830117586	face	0.0		147	attractiveness	092	2.0	2		1242.1490865953488	1.2334494457995788
140.0	453.55779774697544	rating	1.0		103	attractiveness	092	2.0	2		1243.3825360411483	0.866743739586127
140.0	454.42454148656157	fix	2.0		60	attractiveness	092	2.0	2	-0.6000000000000001	1244.2492797807345	0.5167494747770434
141.0	454.9412909613386	face	0.0		147	attractiveness	124	2.0	2		1244.7660292555115	1.2334853662073328
141.0	456.17477632754594	rating	1.0		143	attractiveness	124	2.0	2		1245.9995146217188	1.2000787834149378
141.0	457.3748551109609	fix	2.0		60	attractiveness	124	2.0	2	3.42	1247.1995934051338	0.5167455506989427
142.0	457.8916006616598	face	0.0		147	attractiveness	036	2.0	2		1247.7163389558327	1.2334422013477706
142.0	459.1250428630076	rating	1.0		144	attractiveness	036	2.0	2		1248.9497811571805	1.2084621235903796
142.0	460.333504986598	fix	2.0		60	attractiveness	036	2.0	2	2.26	1250.1582432807709	0.5167657747938392
143.0	460.8502707613918	face	0.0		147	attractiveness	144	2.0	2		1250.6750090555647	1.2334225809568125
143.0	462.0836933423486	rating	1.0		92	attractiveness	144	2.0	2		1251.9084316365215	0.7750872352758051
143.0	462.85878057762443	fix	2.0		60	attractiveness	144	2.0	2	0.9699999999999998	1252.6835188717973	0.516743739586218
144.0	463.37552431721065	face	0.0		147	attractiveness	126	2.0	2		1253.2002626113836	1.2334331457823282
144.0	464.608957462993	rating	1.0		101	attractiveness	126	2.0	2		1254.4336957571659	0.8500896500927411
144.0	465.4590471130857	fix	2.0		60	attractiveness	126	2.0	2	1.0099999999999998	1255.2837854072586	0.516745852551594
145.0	465.9757929656373	face	0.0		147	attractiveness	062	2.0	2		1255.8005312598102	1.233440692086333
145.0	467.20923365772364	rating	1.0		98	attractiveness	062	2.0	2		1257.0339719518965	0.8250863297193973
145.0	468.03431998744304	fix	2.0		60	attractiveness	062	2.0	2	-0.98	1257.859058281616	0.5167425321774317
146.0	468.5510625196205	face	0.0		147	attractiveness	030	2.0	2		1258.3758008137934	1.2334467291298097
146.0	469.7845092487503	rating	1.0		53	attractiveness	030	2.0	2		1259.6092475429232	0.45004497597255977
146.0	470.23455422472284	fix	2.0		60	attractiveness	030	2.0	2	1.0300000000000002	1260.0592925188957	0.5167455506993974
147.0	470.75129977542224	face	0.0		147	attractiveness	082	2.0	2		1260.5760380695951	1.233440692086333
147.0	471.9847404675086	rating	1.0		81	attractiveness	082	2.0	2		1261.8094787616815	0.683405375383245
147.0	472.6681458428918	fix	2.0		60	attractiveness	082	2.0	2	0.40000000000000036	1262.4928841370647	0.5167455506993974
148.0	473.1848913935912	face	0.0		147	attractiveness	039	2.0	2		1263.0096296877641	1.2334394846780015
148.0	474.4183308782692	rating	1.0		120	attractiveness	039	2.0	2		1264.2430691724421	1.0084391828258958
148.0	475.4267700610951	fix	2.0		60	attractiveness	039	2.0	2	0.8600000000000003	1265.251508355268	0.5167428340296283
149.0	475.94351289512474	face	0.0		147	attractiveness	130	2.0	2		1265.7682511892976	1.2334440124600405
149.0	477.1769569075848	rating	1.0		113	attractiveness	130	2.0	2		1267.0016952017577	0.9500993093624857
149.0	478.12705621694727	fix	2.0		61	attractiveness	130	2.0	2	-0.2999999999999998	1267.9517945111202	0.5250805945279353
150.0	478.6521368114752	face	0.0		146	attractiveness	011	2.0	2		1268.476875105648	1.2251068556665814
150.0	479.8772436671418	rating	1.0		90	attractiveness	011	2.0	2		1269.7019819613147	0.7584123179831295
150.0	480.6356559851249	fix	2.0		60	attractiveness	011	2.0	2	-0.1200000000000001	1270.4603942792978	0.5167518895946159
151.0	481.15240787471953	face	0.0		147	attractiveness	033	2.0	2		1270.9771461688924	1.2334337494867214
151.0	482.38584162420625	rating	1.0		141	attractiveness	033	2.0	2		1272.2105799183792	1.1834575958077949
151.0	483.56929922001405	fix	2.0		60	attractiveness	033	2.0	2	2.2199999999999998	1273.394037514187	0.5167476636643187
152.0	484.08604688367836	face	0.0		147	attractiveness	012	2.0	2		1273.9107851778513	1.2334422013473159
152.0	485.3194890850257	rating	1.0		263	attractiveness	012	2.0	2		1275.1442273791986	2.200267139166044
152.0	487.5197562241917	fix	2.0		60	attractiveness	012	2.0	2	1.9100000000000001	1277.3444945183646	0.5167087247350537
153.0	488.0364649489268	face	0.0		147	attractiveness	034	2.0	2		1277.8612032430997	1.2334400883823946
153.0	489.2699050373092	rating	1.0		113	attractiveness	034	2.0	2		1279.094643331482	0.9501014223274069
153.0	490.2200064596366	fix	2.0		60	attractiveness	034	2.0	2	0.6600000000000001	1280.0447447538095	0.5167440414379598
154.0	490.73675050107454	face	0.0		147	attractiveness	018	2.0	2		1280.5614887952474	1.2334431069039056
154.0	491.97019360797844	rating	1.0		219	attractiveness	018	2.0	2		1281.7949319021513	1.8335732051873492
154.0	493.8037668131658	fix	2.0		60	attractiveness	018	2.0	2	0.41999999999999993	1283.6285051073387	0.5166993673178695
155.0	494.32046618048366	face	0.0		147	attractiveness	172	2.0	2		1284.1452044746566	1.2334455217210234
155.0	495.5539117022047	rating	1.0		389	attractiveness	172	2.0	2		1285.3786499963776	3.2503368670159034
155.0	498.8042485692206	fix	2.0		60	attractiveness	172	2.0	2	-1.21	1288.6289868633935	0.5167537007077954
156.0	499.3210022699284	face	0.0		147	attractiveness	005	2.0	2		1289.1457405641013	1.2334343531911145
156.0	500.5544366231195	rating	1.0		119	attractiveness	005	2.0	2		1290.3791749172924	1.0001032334403135
156.0	501.5545398565598	fix	2.0		60	attractiveness	005	2.0	2	-3.2199999999999998	1291.3792781507327	0.5167449469950043
157.0	502.0712848035548	face	0.0		147	attractiveness	100	2.0	2		1291.8960230977277	1.233442805051709
157.0	503.3047276086065	rating	1.0		83	attractiveness	100	2.0	2		1293.1294659027794	0.7000730482236577
157.0	504.0048006568302	fix	2.0		61	attractiveness	100	2.0	2	1.5700000000000003	1293.829538951003	0.525083613049901
158.0	504.5298842698801	face	0.0		146	attractiveness	066	2.0	2		1294.354622564053	1.2251098741880924
158.0	505.7549941440682	rating	1.0		166	attractiveness	066	2.0	2		1295.579732438241	1.3918044118709076
158.0	507.1467985559391	fix	2.0		60	attractiveness	066	2.0	2	0.8300000000000001	1296.971536850112	0.5167491729253015
159.0	507.6635477288644	face	0.0		147	attractiveness	006	2.0	2		1297.4882860230373	1.233439182825805
159.0	508.8969869116902	rating	1.0		89	attractiveness	006	2.0	2		1298.721725205863	0.7500769723019403
159.0	509.64706388399213	fix	2.0		60	attractiveness	006	2.0	2	-0.9900000000000002	1299.471802178165	0.500055842650454
160.0	510.1471197266426	cue	0.0		480						1299.9718580208155	4.0004216874745
160.0	514.1475414141171	fix	1.0		120						1303.97227970829	1.0167968655669029
160.0	515.164338279684	face	0.0		147	trustworthiness	172	2.0	2		1304.989076573857	1.2334503513561685
160.0	516.3977886310402	rating	1.0		171	trustworthiness	172	2.0	2		1306.222526925213	1.4334829513895784
160.0	517.8312715824297	fix	2.0		60	trustworthiness	172	2.0	2	0.8300000000000001	1307.6560098766026	0.5167446451428077
161.0	518.3480162275725	face	0.0		147	trustworthiness	036	2.0	2		1308.1727545217454	1.2334358624520974
161.0	519.5814520900246	rating	1.0		188	trustworthiness	036	2.0	2		1309.4061903841975	1.5751672260989835
161.0	521.1566193161236	fix	2.0		60	trustworthiness	036	2.0	2	0.8200000000000003	1310.9813576102965	0.5167503803340878
162.0	521.6733696964577	face	0.0		147	trustworthiness	033	2.0	2		1311.4981079906306	1.2334418994951193
162.0	522.9068115959528	rating	1.0		75	trustworthiness	033	2.0	2		1312.7315498901257	0.6333996401922377
162.0	523.5402112361451	fix	2.0		60	trustworthiness	033	2.0	2	-0.8199999999999998	1313.364949530318	0.5167389099515276
163.0	524.0569501460966	face	0.0		147	trustworthiness	062	2.0	2		1313.8816884402695	1.2334415976429227
163.0	525.2903917437395	rating	1.0		102	trustworthiness	062	2.0	2		1315.1151300379124	0.8584222791046159
163.0	526.1488140228441	fix	2.0		60	trustworthiness	062	2.0	2	-1.04	1315.973552317017	0.5167461544033358
164.0	526.6655601772475	face	0.0		147	trustworthiness	100	2.0	2		1316.4902984714204	1.2334403902345912
164.0	527.8990005674821	rating	1.0		150	trustworthiness	100	2.0	2		1317.723738861655	1.2584720847116841
164.0	529.1574726521937	fix	2.0		60	trustworthiness	100	2.0	2	0.6500000000000004	1318.9822109463666	0.5167449469950043
165.0	529.6742175991888	face	0.0		147	trustworthiness	066	2.0	2		1319.4989558933617	1.2334422013473159
165.0	530.9076598005361	rating	1.0		87	trustworthiness	066	2.0	2		1320.732398094709	0.7334047716790337
165.0	531.6410645722151	fix	2.0		60	trustworthiness	066	2.0	2	-1.17	1321.465802866388	0.516741626620842
166.0	532.1578061988359	face	0.0		147	trustworthiness	091	2.0	2		1321.9825444930088	1.2334428050521637
166.0	533.3912490038881	rating	1.0		66	trustworthiness	091	2.0	2		1323.215987298061	0.5583896790703875
166.0	533.9496386829585	fix	2.0		60	trustworthiness	091	2.0	2	0.5199999999999996	1323.7743769771314	0.5167509840380262
167.0	534.4663896669965	face	0.0		147	trustworthiness	121	2.0	2		1324.2911279611694	1.2334627272948637
167.0	535.6998523942914	rating	1.0		146	trustworthiness	121	2.0	2		1325.5245906884643	1.2251110815968786
167.0	536.9249634758883	fix	2.0		60	trustworthiness	121	2.0	2	-0.5800000000000001	1326.7497017700612	0.5167361932817585
168.0	537.44169966917	face	0.0		147	trustworthiness	141	2.0	2		1327.266437963343	1.2334425031995124
168.0	538.6751421723695	rating	1.0		105	trustworthiness	141	2.0	2		1328.4998804665424	0.8834249957740212
168.0	539.5585671681436	fix	2.0		60	trustworthiness	141	2.0	2	1.12	1329.3833054623165	0.5167449469950043
169.0	540.0753121151386	face	0.0		147	trustworthiness	136	2.0	2		1329.9000504093115	1.2334488420951857
169.0	541.3087609572337	rating	1.0		177	trustworthiness	136	2.0	2		1331.1334992514066	1.4834835550941534
169.0	542.7922445123279	fix	2.0		60	trustworthiness	136	2.0	2	0.2699999999999996	1332.6169828065008	0.5167434377335667
170.0	543.3089879500615	face	0.0		147	trustworthiness	144	2.0	2		1333.1337262442344	1.2334440124604953
170.0	544.542431962522	rating	1.0		93	trustworthiness	144	2.0	2		1334.3671702566949	0.7834138272442033
170.0	545.3258457897662	fix	2.0		60	trustworthiness	144	2.0	2	1.04	1335.150584083939	0.5167452488467461
171.0	545.8425910386129	face	0.0		147	trustworthiness	039	2.0	2		1335.6673293327858	1.2334482383907925
171.0	547.0760392770037	rating	1.0		126	trustworthiness	039	2.0	2		1336.9007775711766	1.0584379754172915
171.0	548.134477252421	fix	2.0		60	trustworthiness	039	2.0	2	1.46	1337.959215546594	0.5167772451763994
172.0	548.6512544975974	face	0.0		147	trustworthiness	064	2.0	2		1338.4759927917703	1.2334114124264488
172.0	549.8846659100238	rating	1.0		126	trustworthiness	064	2.0	2		1339.7094042041967	1.058441295790999
172.0	550.9431072058148	fix	2.0		60	trustworthiness	064	2.0	2	0.9400000000000004	1340.7678454999877	0.5167482673687118
173.0	551.4598554731836	face	0.0		147	trustworthiness	011	2.0	2		1341.2845937673565	1.2334388809736083
173.0	552.6932943541572	rating	1.0		80	trustworthiness	011	2.0	2		1342.51803264833	0.6750706334064489
173.0	553.3683649875636	fix	2.0		60	trustworthiness	011	2.0	2	0.34999999999999964	1343.1931032817365	0.5167452488472009
174.0	553.8851102364108	face	0.0		147	trustworthiness	012	2.0	2		1343.7098485305837	1.233442805051709
174.0	555.1185530414625	rating	1.0		120	trustworthiness	012	2.0	2		1344.9432913356354	1.0084385791215027
174.0	556.126991620584	fix	2.0		60	trustworthiness	012	2.0	2	1.5599999999999996	1345.951729914757	0.5167473618121221
175.0	556.6437389823961	face	0.0		147	trustworthiness	018	2.0	2		1346.468477276569	1.2334470309820063
175.0	557.8771860133782	rating	1.0		119	trustworthiness	018	2.0	2		1347.701924307551	1.000094781579719
175.0	558.8772807949579	fix	2.0		60	trustworthiness	018	2.0	2	1.4000000000000004	1348.7020190891308	0.5167452488467461
176.0	559.3940260438046	face	0.0		147	trustworthiness	005	2.0	2		1349.2187643379775	1.2334446161648884
176.0	560.6274706599695	rating	1.0		118	trustworthiness	005	2.0	2		1350.4522089541424	0.991768793315714
176.0	561.6192394532852	fix	2.0		59	trustworthiness	005	2.0	2	0.4800000000000004	1351.4439777474581	0.5167440414384146
177.0	562.1359834947236	face	0.0		147	trustworthiness	027	2.0	2		1351.9607217888965	1.2334452198692816
177.0	563.3694287145929	rating	1.0		154	trustworthiness	027	2.0	2		1353.1941670087658	1.291801091497291
177.0	564.6612298060902	fix	2.0		60	trustworthiness	027	2.0	2	1.7599999999999998	1354.485968100263	0.5167443432906111
178.0	565.1779741493808	face	0.0		147	trustworthiness	137	2.0	2		1355.0027124435537	1.2334425031995124
178.0	566.4114166525803	rating	1.0		141	trustworthiness	137	2.0	2		1356.2361549467532	1.1834575958077949
178.0	567.5948742483881	fix	2.0		60	trustworthiness	137	2.0	2	-0.56	1357.419612542561	0.5167479655165153
179.0	568.1116222139046	face	0.0		147	trustworthiness	099	2.0	2		1357.9363605080775	1.2334400883823946
179.0	569.345062302287	rating	1.0		110	trustworthiness	099	2.0	2		1359.16980059646	0.9250929704667215
179.0	570.2701552727538	fix	2.0		60	trustworthiness	099	2.0	2	0.15000000000000036	1360.0948935669267	0.5167518895946159
180.0	570.7869071623484	face	0.0		147	trustworthiness	117	2.0	2		1360.6116454565213	1.2334358624516426
180.0	572.0203430248	rating	1.0		90	trustworthiness	117	2.0	2		1361.845081318973	0.7584120161313876
180.0	572.7787550409314	fix	2.0		60	trustworthiness	117	2.0	2	-0.5800000000000001	1362.6034933351043	0.5167473618116674
181.0	573.2955024027431	face	0.0		147	trustworthiness	043	2.0	2		1363.120240696916	1.2334856680595294
181.0	574.5289880708026	rating	1.0		109	trustworthiness	043	2.0	2		1364.3537263649755	0.9167250247519405
181.0	575.4457130955545	fix	2.0		60	trustworthiness	043	2.0	2	0.4900000000000002	1365.2704513897274	0.5167422303252351
182.0	575.9624553258798	face	0.0		147	trustworthiness	124	2.0	2		1365.7871936200527	1.2334379754170186
182.0	577.1958933012968	rating	1.0		117	trustworthiness	124	2.0	2		1367.0206315954697	0.9834370698608836
182.0	578.1793303711577	fix	2.0		60	trustworthiness	124	2.0	2	1.33	1368.0040686653306	0.5167431358813701
183.0	578.696073507039	face	0.0		147	trustworthiness	092	2.0	2		1368.520811801212	1.2334425031999672
183.0	579.929516010239	rating	1.0		93	trustworthiness	092	2.0	2		1369.754254304412	0.7834147328003382
183.0	580.7129307430394	fix	2.0		60	trustworthiness	092	2.0	2	-0.43000000000000016	1370.5376690372123	0.5167458525511393
184.0	581.2296765955905	face	0.0		147	trustworthiness	061	2.0	2		1371.0544148897634	1.2334403902345912
184.0	582.4631169858251	rating	1.0		70	trustworthiness	061	2.0	2		1372.287855279998	0.5917286469780265
184.0	583.0548456328031	fix	2.0		60	trustworthiness	061	2.0	2	0.2999999999999998	1372.879583926976	0.5167449469945495
185.0	583.5715905797977	face	0.0		147	trustworthiness	070	2.0	2		1373.3963288739706	1.2334415976433775
185.0	584.805032177441	rating	1.0		124	trustworthiness	070	2.0	2		1374.629770471614	1.0417724155413453
185.0	585.8468045929824	fix	2.0		60	trustworthiness	070	2.0	2	-1.06	1375.6715428871553	0.5167482673687118
186.0	586.3635528603511	face	0.0		147	trustworthiness	006	2.0	2		1376.188291154524	1.2334409939389843
186.0	587.5969938542901	rating	1.0		112	trustworthiness	006	2.0	2		1377.421732148463	0.9417700007243184
186.0	588.5387638550144	fix	2.0		60	trustworthiness	006	2.0	2	-0.56	1378.3635021491873	0.5167401173603139
187.0	589.0555039723747	face	0.0		147	trustworthiness	101	2.0	2		1378.8802422665476	1.2334431069039056
187.0	590.2889470792786	rating	1.0		164	trustworthiness	101	2.0	2		1380.1136853734515	1.3751436816305613
187.0	591.6640907609092	fix	2.0		60	trustworthiness	101	2.0	2	-1.56	1381.488829055082	0.5167455506989427
188.0	592.1808363116081	face	0.0		147	trustworthiness	038	2.0	2		1382.005574605781	1.2334409939389843
188.0	593.4142773055471	rating	1.0		91	trustworthiness	038	2.0	2		1383.23901559972	0.7667473618116674
188.0	594.1810246673588	fix	2.0		60	trustworthiness	038	2.0	2	0.3600000000000003	1384.0057629615317	0.5167461544037906
189.0	594.6977708217626	face	0.0		147	trustworthiness	009	2.0	2		1384.5225091159355	1.233439182825805
189.0	595.9312100045884	rating	1.0		234	trustworthiness	009	2.0	2		1385.7559482987613	1.9585421144138309
189.0	597.8897521190022	fix	2.0		60	trustworthiness	009	2.0	2	1.4400000000000004	1387.714490413175	0.5167419284730386
190.0	598.4064940474752	face	0.0		147	trustworthiness	034	2.0	2		1388.2312323416481	1.2334452198692816
190.0	599.6399392673445	rating	1.0		181	trustworthiness	034	2.0	2		1389.4646775615174	1.5168261452272418
190.0	601.1567654125718	fix	2.0		60	trustworthiness	034	2.0	2	-0.16000000000000014	1390.9815037067447	0.516741626620842
191.0	601.6735070391926	face	0.0		147	trustworthiness	130	2.0	2		1391.4982453333655	1.2334409939385296
191.0	602.9069480331311	rating	1.0		133	trustworthiness	130	2.0	2		1392.731686327304	1.1167881118544756
191.0	604.0237361449856	fix	2.0		60	trustworthiness	130	2.0	2	1.2300000000000004	1393.8484744391585	0.5167449469950043
192.0	604.5404810919806	face	0.0		147	trustworthiness	024	2.0	2		1394.3652193861535	1.233440692086333
192.0	605.7739217840669	rating	1.0		134	trustworthiness	024	2.0	2		1395.5986600782398	1.1251180241965812
192.0	606.8990398082635	fix	2.0		60	trustworthiness	024	2.0	2	-0.33999999999999986	1396.7237781024364	0.516743739586218
193.0	607.4157835478497	face	0.0		147	trustworthiness	042	2.0	2		1397.2405218420226	1.2334425031995124
193.0	608.6492260510493	rating	1.0		238	trustworthiness	042	2.0	2		1398.4739643452222	1.9918771582429144
193.0	610.6411032092922	fix	2.0		60	trustworthiness	042	2.0	2	-0.3700000000000001	1400.465841503465	0.5167458525511393
194.0	611.1578490618433	face	0.0		147	trustworthiness	044	2.0	2		1400.9825873560162	1.2334403902345912
194.0	612.3912894520779	rating	1.0		124	trustworthiness	044	2.0	2		1402.2160277462508	1.0417778488808835
194.0	613.4330673009588	fix	2.0		60	trustworthiness	044	2.0	2	0.9000000000000004	1403.2578055951317	0.5167404192120557
195.0	613.9498077201708	face	0.0		147	trustworthiness	030	2.0	2		1403.7745460143437	1.2334455217214781
195.0	615.1832532418923	rating	1.0		131	trustworthiness	030	2.0	2		1405.0079915360652	1.1001213445701978
195.0	616.2833745864625	fix	2.0		60	trustworthiness	030	2.0	2	0.9800000000000004	1406.1081128806354	0.5167398155081173
196.0	616.8001144019706	face	0.0		147	trustworthiness	087	2.0	2		1406.6248526961435	1.2334914032503548
196.0	618.033605805221	rating	1.0		174	trustworthiness	087	2.0	2		1407.858344099394	1.4584364661563995
196.0	619.4920422713774	fix	2.0		60	trustworthiness	087	2.0	2	1.0999999999999996	1409.3167805655503	0.5167431358818249
197.0	620.0087854072592	face	0.0		147	trustworthiness	082	2.0	2		1409.8335237014321	1.2334422013473159
197.0	621.2422276086065	rating	1.0		98	trustworthiness	082	2.0	2		1411.0669659027794	0.825085122310611
197.0	622.0673127309171	fix	2.0		60	trustworthiness	082	2.0	2	0.3700000000000001	1411.89205102509	0.5167452488467461
198.0	622.5840579797639	face	0.0		147	trustworthiness	126	2.0	2		1412.4087962739368	1.2334422013473159
198.0	623.8175001811112	rating	1.0		145	trustworthiness	126	2.0	2		1413.642238475284	1.2167944507500579
198.0	625.0342946318613	fix	2.0		60	trustworthiness	126	2.0	2	0.5300000000000002	1414.8590329260342	0.5167506821858296
199.0	625.5510453140471	face	0.0		147	trustworthiness	102	2.0	2		1415.37578360822	1.233437069860429
199.0	626.7844823839075	rating	1.0		95	trustworthiness	102	2.0	2		1416.6092206780804	0.8000827074934023
199.0	627.5845650914009	fix	2.0		60	trustworthiness	102	2.0	2	1.3200000000000003	1417.4093033855738	0.5000534278333362
200.0	628.0846185192343	cue	0.0		480						1417.9093568134072	4.000431346743426
200.0	632.0850498659777	fix	1.0		120						1421.9097881601506	1.0167947526019816
200.0	633.1018446185797	face	0.0		147	dominance	092	2.0	2		1422.9265829127526	1.2334446161648884
200.0	634.3352892347446	rating	1.0		211	dominance	092	2.0	2		1424.1600275289175	1.7668457656177452
200.0	636.1021350003623	fix	2.0		60	dominance	092	2.0	2	-1.94	1425.9268732945352	0.5167434377340214
201.0	636.6188784380963	face	0.0		147	dominance	036	2.0	2		1426.4436167322692	1.2334437106082987
201.0	637.8523221487046	rating	1.0		87	dominance	036	2.0	2		1427.6770604428775	0.7334096013137241
201.0	638.5857317500183	fix	2.0		60	dominance	036	2.0	2	-0.31000000000000005	1428.4104700441912	0.5167437395857633
202.0	639.1024754896041	face	0.0		147	dominance	011	2.0	2		1428.927213783777	1.2334603124772912
202.0	640.3359358020814	rating	1.0		67	dominance	011	2.0	2		1430.1606740962543	0.5667075173264493
202.0	640.9026433194078	fix	2.0		60	dominance	011	2.0	2	0.28000000000000025	1430.7273816135807	0.5167428340296283
203.0	641.4193861534375	face	0.0		147	dominance	043	2.0	2		1431.2441244476104	1.2334512569123035
203.0	642.6528374103498	rating	1.0		71	dominance	043	2.0	2		1432.4775757045227	0.6000549370942281
203.0	643.252892347444	fix	2.0		60	dominance	043	2.0	2	-0.56	1433.077630641617	0.5167449469945495
204.0	643.7696372944386	face	0.0		147	dominance	064	2.0	2		1433.5943755886115	1.233441899495574
204.0	645.0030791939341	rating	1.0		93	dominance	064	2.0	2		1434.827817488107	0.783415638356928
204.0	645.786494832291	fix	2.0		60	dominance	064	2.0	2	-1.0099999999999998	1435.611233126464	0.5167425321774317
205.0	646.3032373644685	face	0.0		147	dominance	099	2.0	2		1436.1279756586414	1.233442805051709
205.0	647.5366801695202	rating	1.0		188	dominance	099	2.0	2		1437.361418463693	1.5751675279516348
205.0	649.1118476974718	fix	2.0		60	dominance	099	2.0	2	0.5800000000000001	1438.9365859916447	0.516746758107729
206.0	649.6285944555796	face	0.0		147	dominance	061	2.0	2		1439.4533327497525	1.2334385791214117
206.0	650.862033034701	rating	1.0		80	dominance	061	2.0	2		1440.6867713288739	0.6750736519284146
206.0	651.5371066866294	fix	2.0		60	dominance	061	2.0	2	0.3799999999999999	1441.3618449808023	0.516741626620842
207.0	652.0538483132502	face	0.0		147	dominance	039	2.0	2		1441.8785866074231	1.2334775180506767
207.0	653.2873258313009	rating	1.0		108	dominance	039	2.0	2		1443.1120641254738	0.9083917920361273
207.0	654.195717623337	fix	2.0		60	dominance	039	2.0	2	-0.96	1444.02045591751	0.5167470599599255
208.0	654.712464683297	face	0.0		147	dominance	066	2.0	2		1444.5372029774699	1.2334409939385296
208.0	655.9459056772355	rating	1.0		123	dominance	066	2.0	2		1445.7706439714084	1.0334418994953012
208.0	656.9793475767308	fix	2.0		60	dominance	066	2.0	2	1.4500000000000002	1446.8040858709037	0.5167428340296283
209.0	657.4960904107604	face	0.0		147	dominance	101	2.0	2		1447.3208287049333	1.2334437106082987
209.0	658.7295341213687	rating	1.0		114	dominance	101	2.0	2		1448.5542724155416	0.9584343531910235
209.0	659.6879684745597	fix	2.0		60	dominance	101	2.0	2	1.0999999999999996	1449.5127067687326	0.5167446451428077
210.0	660.2047131197025	face	0.0		147	dominance	121	2.0	2		1450.0294514138754	1.2334488420951857
210.0	661.4381619617977	rating	1.0		130	dominance	121	2.0	2		1451.2629002559706	1.0917748303590997
210.0	662.5299367921568	fix	2.0		60	dominance	121	2.0	2	1.8399999999999999	1452.3546750863297	0.5167422303252351
211.0	663.0466790224821	face	0.0		147	dominance	070	2.0	2		1452.871417316655	1.2334418994951193
211.0	664.2801209219772	rating	1.0		117	dominance	070	2.0	2		1454.10485921615	0.9834373717130802
211.0	665.2635582936903	fix	2.0		60	dominance	070	2.0	2	2.01	1455.0882965878632	0.5167458525511393
212.0	665.7803041462414	face	0.0		147	dominance	062	2.0	2		1455.6050424404143	1.2334425031995124
212.0	667.0137466494409	rating	1.0		76	dominance	062	2.0	2		1456.8384849436138	0.6417328729080509
212.0	667.655479522349	fix	2.0		60	dominance	062	2.0	2	0.6200000000000001	1457.4802178165219	0.5167449469950043
213.0	668.172224469344	face	0.0		147	dominance	102	2.0	2		1457.9969627635169	1.2334409939389843
213.0	669.405665463283	rating	1.0		250	dominance	102	2.0	2		1459.2304037574559	2.0918868175122043
213.0	671.4975522807952	fix	2.0		60	dominance	102	2.0	2	-2.54	1461.322290574968	0.5167428340296283
214.0	672.0142951148248	face	0.0		147	dominance	044	2.0	2		1461.8390334089977	1.2334431069039056
214.0	673.2477382217287	rating	1.0		64	dominance	044	2.0	2		1463.0724765159016	0.5417271377168618
214.0	673.7894653594456	fix	2.0		60	dominance	044	2.0	2	0.5199999999999996	1463.6142036536185	0.516740721064707
215.0	674.3062060805103	face	0.0		147	dominance	144	2.0	2		1464.1309443746832	1.233442805051709
215.0	675.539648885562	rating	1.0		89	dominance	144	2.0	2		1465.3643871797349	0.7500793871190581
215.0	676.289728272681	fix	2.0		60	dominance	144	2.0	2	0.7800000000000002	1466.114466566854	0.516743739586218
216.0	676.8064720122672	face	0.0		147	dominance	117	2.0	2		1466.6312103064402	1.2334415976433775
216.0	678.0399136099106	rating	1.0		95	dominance	117	2.0	2		1467.8646519040835	0.8000842167539304
216.0	678.8399978266646	fix	2.0		60	dominance	117	2.0	2	1.5599999999999996	1468.6647361208375	0.5167434377340214
217.0	679.3567412643986	face	0.0		147	dominance	087	2.0	2		1469.1814795585715	1.2334470309820063
217.0	680.5901882953806	rating	1.0		149	dominance	087	2.0	2		1470.4149265895535	1.2501279853177039
217.0	681.8403162806983	fix	2.0		60	dominance	087	2.0	2	0.7199999999999998	1471.6650545748712	0.5167422303252351
218.0	682.3570585110235	face	0.0		147	dominance	082	2.0	2		1472.1817968051964	1.233444918017085
218.0	683.5905034290406	rating	1.0		127	dominance	082	2.0	2		1473.4152417232135	1.0668240322620477
218.0	684.6573274613027	fix	2.0		60	dominance	082	2.0	2	0.3600000000000003	1474.4820657554756	0.5166990654656729
219.0	685.1740265267683	face	0.0		147	dominance	091	2.0	2		1474.9987648209412	1.2334473328342028
219.0	686.4074738596025	rating	1.0		86	dominance	091	2.0	2		1476.2322121537754	0.7250676148851198
219.0	687.1325414744877	fix	2.0		60	dominance	091	2.0	2	-0.4500000000000002	1476.9572797686606	0.5167476636638639
220.0	687.6492891381515	face	0.0		147	dominance	009	2.0	2		1477.4740274323244	1.2334409939389843
220.0	688.8827301320905	rating	1.0		81	dominance	009	2.0	2		1478.7074684262634	0.6834038661227169
220.0	689.5661339982132	fix	2.0		60	dominance	009	2.0	2	0.9000000000000004	1479.3908722923861	0.516741626620842
221.0	690.0828756248341	face	0.0		147	dominance	126	2.0	2		1479.907613919007	1.23344582357322
221.0	691.3163214484073	rating	1.0		88	dominance	126	2.0	2		1481.1410597425802	0.7417422303255989
221.0	692.0580636787329	fix	2.0		60	dominance	126	2.0	2	0.9199999999999999	1481.8828019729058	0.5167485692204536
222.0	692.5748122479533	face	0.0		147	dominance	130	2.0	2		1482.3995505421262	1.2334415976433775
222.0	693.8082538455967	rating	1.0		93	dominance	130	2.0	2		1483.6329921397696	0.783413525391552
222.0	694.5916673709883	fix	2.0		60	dominance	130	2.0	2	-1.21	1484.4164056651612	0.5167422303252351
223.0	695.1084096013135	face	0.0		147	dominance	042	2.0	2		1484.9331478954864	1.2334452198692816
223.0	696.3418548211828	rating	1.0		60	dominance	042	2.0	2		1486.1665931153557	0.5083851512881665
223.0	696.850239972471	fix	2.0		60	dominance	042	2.0	2	0.5700000000000003	1486.6749782666438	0.5167446451428077
224.0	697.3669846176138	face	0.0		147	dominance	018	2.0	2		1487.1917229117867	1.2334437106082987
224.0	698.600428328222	rating	1.0		134	dominance	018	2.0	2		1488.425166622395	1.1251237593874066
224.0	699.7255520876095	fix	2.0		60	dominance	018	2.0	2	-2.0700000000000003	1489.5502903817824	0.5167422303252351
225.0	700.2422943179347	face	0.0		147	dominance	038	2.0	2		1490.0670326121076	1.233441295791181
225.0	701.4757356137259	rating	1.0		97	dominance	038	2.0	2		1491.3004739078988	0.816748267368439
225.0	702.2924838810943	fix	2.0		61	dominance	038	2.0	2	-0.4700000000000002	1492.1172221752672	0.5250784815630141
226.0	702.8175623626573	face	0.0		146	dominance	137	2.0	2		1492.6423006568302	1.2251077612227164
226.0	704.04267012388	rating	1.0		201	dominance	137	2.0	2		1493.867408418053	1.6835095143801482
226.0	705.7261796382602	fix	2.0		60	dominance	137	2.0	2	0.41999999999999993	1495.550917932433	0.5167449469950043
227.0	706.2429245852552	face	0.0		147	dominance	136	2.0	2		1496.067662879428	1.233442805051709
227.0	707.4763673903069	rating	1.0		108	dominance	136	2.0	2		1497.3011056844798	0.908429523556606
227.0	708.3847969138635	fix	2.0		60	dominance	136	2.0	2	-1.0499999999999998	1498.2095352080364	0.516746758107729
228.0	708.9015436719712	face	0.0		147	dominance	030	2.0	2		1498.7262819661441	1.2334415976433775
228.0	710.1349852696146	rating	1.0		114	dominance	030	2.0	2		1499.9597235637875	0.9584307309651194
228.0	711.0934160005797	fix	2.0		60	dominance	030	2.0	2	0.3799999999999999	1500.9181542947526	0.5167449469945495
229.0	711.6101609475743	face	0.0		147	dominance	024	2.0	2		1501.4348992417472	1.2334406920867877
229.0	712.8436016396611	rating	1.0		148	dominance	024	2.0	2		1502.668339933834	1.2417956581584804
229.0	714.0853972978196	fix	2.0		60	dominance	024	2.0	2	0.8300000000000001	1503.9101355919925	0.5167458525511393
230.0	714.6021431503707	face	0.0		147	dominance	141	2.0	2		1504.4268814445436	1.2334440124604953
230.0	715.8355871628312	rating	1.0		235	dominance	141	2.0	2		1505.660325457004	1.9668729323125262
230.0	717.8024600951437	fix	2.0		60	dominance	141	2.0	2	-1.9500000000000002	1507.6271983893166	0.5167497766296947
231.0	718.3192098717734	face	0.0		147	dominance	006	2.0	2		1508.1439481659463	1.2334382772692152
231.0	719.5526481490426	rating	1.0		109	dominance	006	2.0	2		1509.3773864432155	0.916760643307498
231.0	720.4694087923501	fix	2.0		60	dominance	006	2.0	2	-0.5299999999999998	1510.294147086523	0.5167527951507509
232.0	720.9861615875009	face	0.0		147	dominance	100	2.0	2		1510.8108998816738	1.2334355605999008
232.0	722.2195971481008	rating	1.0		80	dominance	100	2.0	2		1512.0443354422737	0.6750688222937242
232.0	722.8946659703945	fix	2.0		60	dominance	100	2.0	2	0.7300000000000004	1512.7194042645674	0.5167530970029475
233.0	723.4114190673974	face	0.0		147	dominance	034	2.0	2		1513.2361573615703	1.233433749487176
233.0	724.6448528168846	rating	1.0		169	dominance	034	2.0	2		1514.4695911110575	1.4168161841053006
233.0	726.0616690009899	fix	2.0		60	dominance	034	2.0	2	0.20999999999999996	1515.8864072951628	0.51678781000237
234.0	726.5784568109923	face	0.0		147	dominance	124	2.0	2		1516.4031951051652	1.2334080920527413
234.0	727.811864903045	rating	1.0		297	dominance	124	2.0	2		1517.636603197218	2.4835934292823367
234.0	730.2954583323274	fix	2.0		60	dominance	124	2.0	2	1.25	1520.1201966265003	0.516736495133955
235.0	730.8121948274613	face	0.0		147	dominance	033	2.0	2		1520.6369331216342	1.2334711791554582
235.0	732.0456660066168	rating	1.0		142	dominance	033	2.0	2		1521.8704043007897	1.191762152568117
235.0	733.2374281591849	fix	2.0		60	dominance	033	2.0	2	2.3	1523.0621664533578	0.5167482673682571
236.0	733.7541764265532	face	0.0		147	dominance	172	2.0	2		1523.578914720726	1.2334406920867877
236.0	734.98761711864	rating	1.0		71	dominance	172	2.0	2		1524.8123554128128	0.60006097413725
236.0	735.5876780927772	fix	2.0		60	dominance	172	2.0	2	-1.0899999999999999	1525.41241638695	0.5167518895946159
237.0	736.1044299823718	face	0.0		147	dominance	012	2.0	2		1525.9291682765447	1.233434655043311
237.0	737.3378646374151	rating	1.0		78	dominance	012	2.0	2		1527.162602931588	0.6584023568616431
237.0	737.9962669942768	fix	2.0		60	dominance	012	2.0	2	0.7599999999999998	1527.8210052884497	0.5167443432906111
238.0	738.5130113375674	face	0.0		147	dominance	005	2.0	2		1528.3377496317403	1.2334415976429227
238.0	739.7464529352103	rating	1.0		205	dominance	005	2.0	2		1529.5711912293832	1.716848784139529
238.0	741.4633017193498	fix	2.0		60	dominance	005	2.0	2	-2.4299999999999997	1531.2880400135227	0.5167434377340214
239.0	741.9800451570839	face	0.0		147	dominance	027	2.0	2		1531.8047834512568	1.2334415976433775
239.0	743.2134867547272	rating	1.0		431	dominance	027	2.0	2		1533.0382250489001	3.6003824466929473
239.0	746.8138692014202	fix	2.0		60	dominance	027	2.0	2	-0.20999999999999996	1536.638607495593	0.5000510130157636
