trial_nr	onset	event_type	phase	response	nr_frames	trial_type	stim_name	task_probe	onset_abs	duration
0.0	0.056797865054249996	baseline	0.0		701		baseline	0.0	14.491536495081164	5.849563113080876
0.0	0.7066293858097197	pulse	0.0	t			baseline	0.0	15.141368015836633	
0.0	1.406600800331944	pulse	0.0	t			baseline	0.0	15.841339430358857	
0.0	2.106571611147956	pulse	0.0	t			baseline	0.0	16.54131024117487	
0.0	2.806550873849119	pulse	0.0	t			baseline	0.0	17.241289503876033	
0.0	3.5065358717547497	pulse	0.0	t			baseline	0.0	17.941274501781663	
0.0	4.206513625191292	pulse	0.0	t			baseline	0.0	18.641252255218205	
0.0	4.906495604567681	pulse	0.0	t			baseline	0.0	19.341234234594594	
0.0	5.606476074679449	pulse	0.0	t			baseline	0.0	20.041214704706363	
0.0	5.906360978135126	ISI	1.0		4		baseline	0.0	20.34109960816204	0.13333842458814615
1.0	6.039699402723272	number	0.0		44	character	number-20.jpg	0.0	20.474438032750186	0.36662399471606477
1.0	6.306442961405992	pulse	0.0	t		character	number-20.jpg	0.0	20.741181591432905	
1.0	6.406323397439337	ISI	1.0		234	character	number-20.jpg	0.0	20.84106202746625	2.0166477958246105
1.0	7.006465690936238	pulse	1.0	t		character	number-20.jpg	0.0	21.441204320963152	
1.0	7.706437407312478	pulse	1.0	t		character	number-20.jpg	0.0	22.14117603733939	
2.0	8.422971193263947	number	0.0		45	character	number-48.jpg	0.0	22.85770982329086	0.3832850720718852
2.0	8.415040307938398	pulse	0.0	t		character	number-48.jpg	0.0	22.84977893796531	
2.0	8.806256265335833	ISI	1.0		236	character	number-48.jpg	0.0	23.240994895362746	2.0166583606787754
2.0	9.10640257347768	pulse	1.0	t		character	number-48.jpg	0.0	23.541141203504594	
2.0	9.806385760266494	pulse	1.0	t		character	number-48.jpg	0.0	24.241124390293407	
2.0	10.506363513701217	pulse	1.0	t		character	number-48.jpg	0.0	24.94110214372813	
3.0	10.822914626014608	car	0.0		46	object	car-12.jpg	0.0	25.25765325604152	0.3832497552721179
3.0	11.206164381286726	ISI	1.0		236	object	car-12.jpg	0.0	25.64090301131364	2.0166490032370348
3.0	11.238407713430206	pulse	1.0	t		object	car-12.jpg	0.0	25.67314634345712	
3.0	11.906252009208401	pulse	1.0	t		object	car-12.jpg	0.0	26.340990639235315	
3.0	12.606239120086684	pulse	1.0	t		object	car-12.jpg	0.0	27.040977750113598	
4.0	13.22281338452376	limb	0.0		46	body	limb-75.jpg	0.0	27.657552014550674	0.3832826572470367
4.0	13.306223212433906	pulse	0.0	t		body	limb-75.jpg	0.0	27.74096184246082	
4.0	13.606096041770797	ISI	1.0		355	body	limb-75.jpg	0.0	28.04083467179771	3.016625156849841
4.0	14.006199456604008	pulse	1.0	t		body	limb-75.jpg	0.0	28.440938086630922	
4.0	14.706182341538806	pulse	1.0	t		body	limb-75.jpg	0.0	29.14092097156572	
4.0	15.406159491269136	pulse	1.0	t		body	limb-75.jpg	0.0	29.84089812129605	
4.0	16.10614509288098	pulse	1.0	t		body	limb-75.jpg	0.0	30.540883722907893	
5.0	16.62272119862064	car	0.0		46	object	car-57.jpg	0.0	31.057459828647552	0.38332672778415144
5.0	16.80613220375926	pulse	0.0	t		object	car-57.jpg	0.0	31.240870833786175	
5.0	17.00604792640479	ISI	1.0		355	object	car-57.jpg	0.0	31.440786556431704	3.0165901419040893
5.0	17.506178779674883	pulse	1.0	t		object	car-57.jpg	0.0	31.940917409701797	
5.0	18.206153514578546	pulse	1.0	t		object	car-57.jpg	0.0	32.64089214460546	
5.0	18.906140927309025	pulse	1.0	t		object	car-57.jpg	0.0	33.34087955733594	
5.0	19.60612864189352	pulse	1.0	t		object	car-57.jpg	0.0	34.04086727192043	
6.0	20.02263806830888	house	0.0		46	place	house-113.jpg	0.0	34.45737669833579	0.38328658133650606
6.0	20.306042402495223	pulse	0.0	t		place	house-113.jpg	0.0	34.740781032522136	
6.0	20.405924649645385	ISI	1.0		351	place	house-113.jpg	0.0	34.8406632796723	3.0166130827310553
6.0	21.00601502442987	pulse	1.0	t		place	house-113.jpg	0.0	35.440753654456785	
6.0	21.706000626041714	pulse	1.0	t		place	house-113.jpg	0.0	36.14073925606863	
6.0	22.405974455388787	pulse	1.0	t		place	house-113.jpg	0.0	36.8407130854157	
6.0	23.10594979400048	pulse	1.0	t		place	house-113.jpg	0.0	37.540688424027394	
7.0	23.42253773237644	number	0.0		46	character	number-17.jpg	0.0	37.857276362403354	0.3832944295154448
7.0	23.805832161891885	ISI	1.0		235	character	number-17.jpg	0.0	38.2405707919188	2.0166435698829446
7.0	23.83841326752554	pulse	1.0	t		character	number-17.jpg	0.0	38.27315189755245	
7.0	24.505920997225985	pulse	1.0	t		character	number-17.jpg	0.0	38.9406596272529	
7.0	25.20589150618798	pulse	1.0	t		character	number-17.jpg	0.0	39.640630136214895	
8.0	25.82247573177483	adult	0.0		46	face	adult-119.jpg	0.0	40.25721436180174	0.3833191814592283
8.0	25.905884654126567	pulse	0.0	t		face	adult-119.jpg	0.0	40.34062328415348	
8.0	26.205794913234058	ISI	1.0		595	face	adult-119.jpg	0.0	40.64053354326097	5.016566899223108
8.0	26.605933644865218	pulse	1.0	t		face	adult-119.jpg	0.0	41.04067227489213	
8.0	27.305918944624864	pulse	1.0	t		face	adult-119.jpg	0.0	41.74065757465178	
8.0	28.00590182956148	pulse	1.0	t		face	adult-119.jpg	0.0	42.440640459588394	
8.0	28.70589769417529	pulse	1.0	t		face	adult-119.jpg	0.0	43.140636324202205	
8.0	29.405863675343426	pulse	1.0	t		face	adult-119.jpg	0.0	43.84060230537034	
8.0	30.105845352867618	pulse	1.0	t		face	adult-119.jpg	0.0	44.54058398289453	
8.0	30.80582250259613	pulse	1.0	t		face	adult-119.jpg	0.0	45.24056113262304	
9.0	31.222361812457166	car	0.0		46	object	car-40.jpg	0.0	45.65710044248408	0.38325549048022367
9.0	31.505732037256166	pulse	0.0	t		object	car-40.jpg	0.0	45.94047066728308	
9.0	31.60561730293739	ISI	1.0		235	object	car-40.jpg	0.0	46.0403559329643	2.0166414569102926
9.0	32.20571522404498	pulse	1.0	t		object	car-40.jpg	0.0	46.64045385407189	
9.0	32.90568362003796	pulse	1.0	t		object	car-40.jpg	0.0	47.340422250064876	
10.0	33.62225875984768	house	0.0		45	place	house-3.jpg	0.0	48.056997389874596	0.38329412766142923
10.0	33.61180257245178	pulse	0.0	t		place	house-3.jpg	0.0	48.04654120247869	
10.0	34.00555288750911	ISI	1.0		475	place	house-3.jpg	0.0	48.440291517536025	4.016625760557872
10.0	34.30565904920513	pulse	1.0	t		place	house-3.jpg	0.0	48.740397679232046	
10.0	35.00563589708145	pulse	1.0	t		place	house-3.jpg	0.0	49.44037452710836	
10.0	35.705625724634956	pulse	1.0	t		place	house-3.jpg	0.0	50.14036435466187	
10.0	36.4055986484218	pulse	1.0	t		place	house-3.jpg	0.0	50.840337278448715	
10.0	37.10558787227092	pulse	1.0	t		place	house-3.jpg	0.0	51.54032650229783	
10.0	37.805625392596994	pulse	1.0	t		place	house-3.jpg	0.0	52.24036402262391	
11.0	38.02217864806698	car	0.0		46	object	car-124.jpg	0.0	52.4569172780939	0.38329382580741367
11.0	38.4054724738744	ISI	1.0		232	object	car-124.jpg	0.0	52.84021110390131	2.0166429661767324
11.0	38.50563001094815	pulse	1.0	t		object	car-124.jpg	0.0	52.940368640975066	
11.0	39.205602331028786	pulse	1.0	t		object	car-124.jpg	0.0	53.6403409610557	
11.0	39.905574047405025	pulse	1.0	t		object	car-124.jpg	0.0	54.34031267743194	
12.0	40.42211544005113	limb	0.0		46	body	limb-30.jpg	0.0	54.85685407007804	0.3832853739259008
12.0	40.60551829515862	pulse	0.0	t		body	limb-30.jpg	0.0	55.04025692518553	
12.0	40.80540081397703	ISI	1.0		474	body	limb-30.jpg	0.0	55.240139444003944	4.0165913493146945
12.0	41.30554525062871	pulse	1.0	t		body	limb-30.jpg	0.0	55.740283880655625	
12.0	42.00551485403412	pulse	1.0	t		body	limb-30.jpg	0.0	56.44025348406103	
12.0	42.70550739826467	pulse	1.0	t		body	limb-30.jpg	0.0	57.140246028291585	
12.0	43.40549028320129	pulse	1.0	t		body	limb-30.jpg	0.0	57.8402289132282	
12.0	44.10545898104647	pulse	1.0	t		body	limb-30.jpg	0.0	58.54019761107338	
13.0	44.821992163291725	number	0.0		45	character	number-24.jpg	0.0	59.25673079331864	0.3832899017197633
13.0	44.80901610717592	pulse	0.0	t		character	number-24.jpg	0.0	59.243754737202835	
13.0	45.20528206501149	ISI	1.0		232	character	number-24.jpg	0.0	59.6400206950384	2.016650210649459
13.0	45.505425354624094	pulse	1.0	t		character	number-24.jpg	0.0	59.94016398465101	
13.0	46.20540703214829	pulse	1.0	t		character	number-24.jpg	0.0	60.6401456621752	
13.0	46.90538780411225	pulse	1.0	t		character	number-24.jpg	0.0	61.340126434139165	
14.0	47.22193227566095	limb	0.0		46	body	limb-69.jpg	0.0	61.65667090568786	0.38328929801355116
14.0	47.6052215736745	ISI	1.0		232	body	limb-69.jpg	0.0	62.03996020370141	2.0166441735873377
14.0	47.66765322283936	pulse	1.0	t		body	limb-69.jpg	0.0	62.102391852866276	
14.0	48.30535417768988	pulse	1.0	t		body	limb-69.jpg	0.0	62.74009280771679	
14.0	49.00533434594945	pulse	1.0	t		body	limb-69.jpg	0.0	63.44007297597636	
15.0	49.621865747261836	limb	0.0		46	body	limb-51.jpg	0.0	64.05660437728875	0.38329412766142923
15.0	49.70528734743857	pulse	0.0	t		body	limb-51.jpg	0.0	64.14002597746548	
15.0	50.005159874923265	ISI	1.0		234	body	limb-51.jpg	0.0	64.43989850495018	2.0166420606183237
15.0	50.40529196578973	pulse	1.0	t		body	limb-51.jpg	0.0	64.84003059581664	
15.0	51.105268813666044	pulse	1.0	t		body	limb-51.jpg	0.0	65.54000744369296	
15.0	51.80525743380895	pulse	1.0	t		body	limb-51.jpg	0.0	66.23999606383586	
16.0	52.02180193554159	car	0.0		46	object	car-46.jpg	0.0	66.4565405655685	0.38329110913036857
16.0	52.40509304467196	ISI	1.0		232	object	car-46.jpg	0.0	66.83983167469887	2.016634816147416
16.0	52.505248166920865	pulse	1.0	t		object	car-46.jpg	0.0	66.93998679694778	
16.0	53.20520720547211	pulse	1.0	t		object	car-46.jpg	0.0	67.63994583549902	
16.0	53.90519250523175	pulse	1.0	t		object	car-46.jpg	0.0	68.33993113525867	
17.0	54.421727860819374	number	0.0		46	character	number-3.jpg	0.0	68.85646649084629	0.38329654248445877
17.0	54.60514399745625	pulse	0.0	t		character	number-3.jpg	0.0	69.03988262748317	
17.0	54.80502440330383	ISI	1.0		354	character	number-3.jpg	0.0	69.23976303333075	3.016621534614387
17.0	55.30516280289703	pulse	1.0	t		character	number-3.jpg	0.0	69.73990143292394	
17.0	56.0051432730088	pulse	1.0	t		character	number-3.jpg	0.0	70.43988190303571	
17.0	56.70512132829754	pulse	1.0	t		character	number-3.jpg	0.0	71.13985995832445	
17.0	57.40509666690923	pulse	1.0	t		character	number-3.jpg	0.0	71.83983529693614	
18.0	57.82164593791822	house	0.0		46	place	house-50.jpg	0.0	72.25638456794513	0.3832962406322622
18.0	58.10505751657729	pulse	0.0	t		place	house-50.jpg	0.0	72.5397961466042	
18.0	58.20494217855048	ISI	1.0		353	place	house-50.jpg	0.0	72.6396808085774	3.0166157994081004
18.0	58.805067870134735	pulse	1.0	t		place	house-50.jpg	0.0	73.23980650016165	
18.0	59.50505950880688	pulse	1.0	t		place	house-50.jpg	0.0	73.9397981388338	
18.0	60.20502277329797	pulse	1.0	t		place	house-50.jpg	0.0	74.63976140332488	
18.0	60.90500082858671	pulse	1.0	t		place	house-50.jpg	0.0	75.33973945861362	
19.0	61.22155797795858	number	0.0		46	character	number-14.jpg	0.0	75.6562966079855	0.3832588108616619
19.0	61.604816788820244	ISI	1.0		595	character	number-14.jpg	0.0	76.03955541884716	5.016556938076974
19.0	61.64150188763779	pulse	1.0	t		character	number-14.jpg	0.0	76.0762405176647	
19.0	62.304943053924944	pulse	1.0	t		character	number-14.jpg	0.0	76.73968168395186	
19.0	63.004873416441114	pulse	1.0	t		character	number-14.jpg	0.0	77.43961204646803	
19.0	63.70487229958417	pulse	1.0	t		character	number-14.jpg	0.0	78.13961092961108	
19.0	64.40485699563942	pulse	1.0	t		character	number-14.jpg	0.0	78.83959562566633	
19.0	65.10482810830763	pulse	1.0	t		character	number-14.jpg	0.0	79.53956673833454	
19.0	65.80480344691932	pulse	1.0	t		character	number-14.jpg	0.0	80.23954207694624	
19.0	66.50482527088934	pulse	1.0	t		character	number-14.jpg	0.0	80.93956390091626	
20.0	66.62137372689722	limb	0.0		46	body	limb-16.jpg	0.0	81.05611235692413	0.383290807278172
20.0	67.00466453417539	ISI	1.0		475	body	limb-16.jpg	0.0	81.4394031642023	4.016598593787421
20.0	67.20483954853626	pulse	1.0	t		body	limb-16.jpg	0.0	81.63957817856317	
20.0	67.90481458529393	pulse	1.0	t		body	limb-16.jpg	0.0	82.33955321532085	
20.0	68.60479988505358	pulse	1.0	t		body	limb-16.jpg	0.0	83.0395385150805	
20.0	69.30477220513421	pulse	1.0	t		body	limb-16.jpg	0.0	83.73951083516113	
20.0	70.00476384380818	pulse	1.0	t		body	limb-16.jpg	0.0	84.43950247383509	
20.0	70.70473767315343	pulse	1.0	t		body	limb-16.jpg	0.0	85.13947630318034	
21.0	71.02126312796281	limb	0.0		46	body	limb-58.jpg	0.0	85.45600175798972	0.3832823553948401
21.0	71.40454548335765	ISI	1.0		355	body	limb-58.jpg	0.0	85.83928411338456	3.016618817937342
21.0	71.43739312517755	pulse	1.0	t		body	limb-58.jpg	0.0	85.87213175520446	
21.0	72.10467325772697	pulse	1.0	t		body	limb-58.jpg	0.0	86.53941188775389	
21.0	72.80461478880352	pulse	1.0	t		body	limb-58.jpg	0.0	87.23935341883043	
21.0	73.50460280524021	pulse	1.0	t		body	limb-58.jpg	0.0	87.93934143526712	
21.0	74.20456818270213	pulse	1.0	t		body	limb-58.jpg	0.0	88.63930681272905	
22.0	74.421164301295	adult	0.0		46	face	adult-34.jpg	0.0	88.8559029313219	0.383297749898702
22.0	74.8044620511937	ISI	1.0		476	face	adult-34.jpg	0.0	89.23920068122061	4.016619119789539
22.0	74.90456616028678	pulse	1.0	t		face	adult-34.jpg	0.0	89.33930479031369	
22.0	75.60454180075249	pulse	1.0	t		face	adult-34.jpg	0.0	90.0392804307794	
22.0	76.30453917463092	pulse	1.0	t		face	adult-34.jpg	0.0	90.73927780465783	
22.0	77.00451662621344	pulse	1.0	t		face	adult-34.jpg	0.0	91.43925525624036	
22.0	77.70455142986248	pulse	1.0	t		face	adult-34.jpg	0.0	92.13929005988939	
22.0	78.40452374994311	pulse	1.0	t		face	adult-34.jpg	0.0	92.83926237997002	
23.0	78.82108117098323	adult	0.0		46	face	adult-34.jpg	1.0	93.25581980101015	0.38325277380317857
23.0	79.10451629417366	pulse	0.0	t		face	adult-34.jpg	1.0	93.53925492420058	
23.0	79.20433394478641	ISI	1.0		236	face	adult-34.jpg	1.0	93.63907257481333	2.0166423624705203
23.0	79.80443880851271	pulse	1.0	t		face	adult-34.jpg	1.0	94.23917743853963	
23.0	79.87942180664322	response	1.0	b		face	adult-34.jpg	1.0	94.31416043667014	
23.0	80.50440660079948	pulse	1.0	t		face	adult-34.jpg	1.0	94.9391452308264	
24.0	81.22097630725693	car	0.0		45	object	car-33.jpg	0.0	95.65571493728385	0.38329412766142923
24.0	81.21305115713767	pulse	0.0	t		object	car-33.jpg	0.0	95.64778978716458	
24.0	81.60427043491836	ISI	1.0		836	object	car-33.jpg	0.0	96.03900906494528	7.016535506514629
24.0	81.90439017999779	pulse	1.0	t		object	car-33.jpg	0.0	96.3391288100247	
24.0	82.6043537463429	pulse	1.0	t		object	car-33.jpg	0.0	97.03909237636981	
24.0	83.30433814054231	pulse	1.0	t		object	car-33.jpg	0.0	97.73907677056923	
24.0	84.00433068477469	pulse	1.0	t		object	car-33.jpg	0.0	98.4390693148016	
24.0	84.70429908076585	pulse	1.0	t		object	car-33.jpg	0.0	99.13903771079276	
24.0	85.4043408270336	pulse	1.0	t		object	car-33.jpg	0.0	99.8390794570605	
24.0	86.104335786089	pulse	1.0	t		object	car-33.jpg	0.0	100.53907441611591	
24.0	86.80431685990698	pulse	1.0	t		object	car-33.jpg	0.0	101.23905548993389	
24.0	87.50428404848753	pulse	1.0	t		object	car-33.jpg	0.0	101.93902267851445	
24.0	88.2042708575118	pulse	1.0	t		object	car-33.jpg	0.0	102.63900948753871	
25.0	88.62080594143299	car	0.0		46	object	car-127.jpg	0.0	103.0555445714599	0.383261527538707
25.0	88.90418280699669	pulse	0.0	t		object	car-127.jpg	0.0	103.3389214370236	
25.0	89.0040674689717	ISI	1.0		716	object	car-127.jpg	0.0	103.43880609899861	6.016578671489697
25.0	89.60416991787497	pulse	1.0	t		object	car-127.jpg	0.0	104.03890854790188	
25.0	90.30415038798674	pulse	1.0	t		object	car-127.jpg	0.0	104.73888901801365	
25.0	91.0041184821257	pulse	1.0	t		object	car-127.jpg	0.0	105.43885711215262	
25.0	91.70410830967921	pulse	1.0	t		object	car-127.jpg	0.0	106.13884693970613	
25.0	92.40408666682197	pulse	1.0	t		object	car-127.jpg	0.0	106.83882529684888	
25.0	93.10405566651934	pulse	1.0	t		object	car-127.jpg	0.0	107.53879429654626	
25.0	93.80402768474778	pulse	1.0	t		object	car-127.jpg	0.0	108.2387663147747	
25.0	94.5040365290406	pulse	1.0	t		object	car-127.jpg	0.0	108.93877515906752	
26.0	95.0206461404614	car	0.0		46	object	car-127.jpg	1.0	109.45538477048831	0.3832597164218896
26.0	95.20401699915237	pulse	0.0	t		object	car-127.jpg	1.0	109.63875562917929	
26.0	95.40390585688328	ISI	1.0		236	object	car-127.jpg	1.0	109.8386444869102	2.016620930908175
26.0	95.90399626185172	pulse	1.0	t		object	car-127.jpg	1.0	110.33873489187863	
26.0	96.1123077234206	response	1.0	b		object	car-127.jpg	1.0	110.54704635344751	
26.0	96.60397401528644	pulse	1.0	t		object	car-127.jpg	1.0	111.03871264531335	
26.0	97.30396323913556	pulse	1.0	t		object	car-127.jpg	1.0	111.73870186916247	
27.0	97.42052678779146	house	0.0		46	place	house-126.jpg	0.0	111.85526541781837	0.38330680548642704
27.0	97.80383359327789	ISI	1.0		235	place	house-126.jpg	0.0	112.2385722233048	2.016629986499538
27.0	98.00395155742444	pulse	1.0	t		place	house-126.jpg	0.0	112.43869018745136	
27.0	98.70401564081294	pulse	1.0	t		place	house-126.jpg	0.0	113.13875427083985	
27.0	99.40399248868925	pulse	1.0	t		place	house-126.jpg	0.0	113.83873111871617	
28.0	99.82046357977742	house	0.0		46	place	house-104.jpg	0.0	114.25520220980434	0.3833016739845334
28.0	100.1038830066118	pulse	0.0	t		place	house-104.jpg	0.0	114.53862163663871	
28.0	100.20376525376196	ISI	1.0		236	place	house-104.jpg	0.0	114.63850388378887	2.0166806977995293
28.0	100.80388581384432	pulse	1.0	t		place	house-104.jpg	0.0	115.23862444387123	
28.0	101.50391427858085	pulse	1.0	t		place	house-104.jpg	0.0	115.93865290860776	
29.0	102.22044595156149	adult	0.0		45	face	adult-2.jpg	0.0	116.6551845815884	0.3832971461924899
29.0	102.21251355697132	pulse	0.0	t		face	adult-2.jpg	0.0	116.64725218699823	
29.0	102.60374309775398	ISI	1.0		473	face	adult-2.jpg	0.0	117.03848172778089	4.016588632639468
29.0	102.90388578366037	pulse	1.0	t		face	adult-2.jpg	0.0	117.33862441368728	
29.0	103.60385659447638	pulse	1.0	t		face	adult-2.jpg	0.0	118.0385952245033	
29.0	104.30384461091307	pulse	1.0	t		face	adult-2.jpg	0.0	118.73858324093999	
29.0	105.00381240319984	pulse	1.0	t		face	adult-2.jpg	0.0	119.43855103322676	
29.0	105.70378291216184	pulse	1.0	t		face	adult-2.jpg	0.0	120.13852154218876	
29.0	106.4037872286608	pulse	1.0	t		face	adult-2.jpg	0.0	120.83852585868772	
30.0	106.62033173039345	house	0.0		46	place	house-24.jpg	0.0	121.05507036042036	0.3832627349511313
30.0	107.00359446534458	ISI	1.0		355	place	house-24.jpg	0.0	121.43833309537149	3.0165913493146945
30.0	107.10371185596887	pulse	1.0	t		place	house-24.jpg	0.0	121.53845048599578	
30.0	107.8036763278742	pulse	1.0	t		place	house-24.jpg	0.0	122.23841495790111	
30.0	108.50367068322339	pulse	1.0	t		place	house-24.jpg	0.0	122.9384093132503	
30.0	109.20363606068531	pulse	1.0	t		place	house-24.jpg	0.0	123.63837469071223	
30.0	109.90361683264928	pulse	1.0	t		place	house-24.jpg	0.0	124.33835546267619	
31.0	110.02018581465927	adult	0.0		46	face	adult-47.jpg	0.0	124.45492444468618	0.38330107028014027
31.0	110.40348688493941	ISI	1.0		233	face	adult-47.jpg	0.0	124.83822551496633	2.0166414569121116
31.0	110.60362446952968	pulse	1.0	t		face	adult-47.jpg	0.0	125.03836309955659	
31.0	111.30359135625804	pulse	1.0	t		face	adult-47.jpg	0.0	125.73832998628495	
31.0	112.003559450397	pulse	1.0	t		face	adult-47.jpg	0.0	126.43829808042392	
32.0	112.42012834185152	limb	0.0		46	body	limb-4.jpg	0.0	126.85486697187844	0.383336085225892
32.0	112.70358399104589	pulse	0.0	t		body	limb-4.jpg	0.0	127.1383226210728	
32.0	112.80346442707742	ISI	1.0		236	body	limb-4.jpg	0.0	127.23820305710433	2.0166399476474908
32.0	113.40360400389909	pulse	1.0	t		body	limb-4.jpg	0.0	127.838342633926	
32.0	114.10358175733381	pulse	1.0	t		body	limb-4.jpg	0.0	128.53832038736073	
33.0	114.8201043747249	number	0.0		45	character	number-108.jpg	0.0	129.25484300475182	0.38329412766142923
33.0	114.81219431725549	pulse	0.0	t		character	number-108.jpg	0.0	129.2469329472824	
33.0	115.20339850238634	ISI	1.0		235	character	number-108.jpg	0.0	129.63813713241325	2.016645984705974
33.0	115.50354360311576	pulse	1.0	t		character	number-108.jpg	0.0	129.93828223314267	
33.0	116.20352618619836	pulse	1.0	t		character	number-108.jpg	0.0	130.63826481622527	
33.0	116.90349518589755	pulse	1.0	t		character	number-108.jpg	0.0	131.33823381592447	
34.0	117.22004448709231	car	0.0		46	object	car-62.jpg	0.0	131.65478311711922	0.3832443219198467
34.0	117.60328880901216	ISI	1.0		593	object	car-62.jpg	0.0	132.03802743903907	5.016556032516746
34.0	117.65939965667167	pulse	1.0	t		object	car-62.jpg	0.0	132.09413828669858	
34.0	118.30339394440671	pulse	1.0	t		object	car-62.jpg	0.0	132.73813257443362	
34.0	119.00337713119552	pulse	1.0	t		object	car-62.jpg	0.0	133.43811576122243	
34.0	119.70335518648244	pulse	1.0	t		object	car-62.jpg	0.0	134.13809381650935	
34.0	120.40333203435875	pulse	1.0	t		object	car-62.jpg	0.0	134.83807066438567	
34.0	121.10329620441007	pulse	1.0	t		object	car-62.jpg	0.0	135.53803483443698	
34.0	121.80329599311153	pulse	1.0	t		object	car-62.jpg	0.0	136.23803462313845	
34.0	122.50327404840027	pulse	1.0	t		object	car-62.jpg	0.0	136.93801267842719	
35.0	122.6198448415289	house	0.0		46	place	house-124.jpg	0.0	137.05458347155582	0.38331042772188084
35.0	123.00315526925078	ISI	1.0		235	place	house-124.jpg	0.0	137.4378938992777	2.016681603357938
35.0	123.20326478151401	pulse	1.0	t		place	house-124.jpg	0.0	137.63800341154092	
35.0	123.90330864075258	pulse	1.0	t		place	house-124.jpg	0.0	138.3380472707795	
35.0	124.6032921293936	pulse	1.0	t		place	house-124.jpg	0.0	139.0380307594205	
36.0	125.01983687260872	car	0.0		46	object	car-42.jpg	0.0	139.45457550263563	0.3832533775093907
36.0	125.30320377702628	pulse	0.0	t		object	car-42.jpg	0.0	139.7379424070532	
36.0	125.40309025011811	ISI	1.0		235	object	car-42.jpg	0.0	139.83782888014503	2.0166423624705203
36.0	126.0031945101382	pulse	1.0	t		object	car-42.jpg	0.0	140.43793314016511	
36.0	126.70316894319149	pulse	1.0	t		object	car-42.jpg	0.0	141.1379075732184	
37.0	127.41973261258863	car	0.0		45	object	car-10.jpg	0.0	141.85447124261555	0.38329774989688303
37.0	127.41106309300812	pulse	0.0	t		object	car-10.jpg	0.0	141.84580172303504	
37.0	127.80303036248552	ISI	1.0		235	object	car-10.jpg	0.0	142.23776899251243	2.016642664322717
37.0	128.10313984456297	pulse	1.0	t		object	car-10.jpg	0.0	142.5378784745899	
37.0	128.8031058257311	pulse	1.0	t		object	car-10.jpg	0.0	143.23784445575802	
37.0	129.50309052178636	pulse	1.0	t		object	car-10.jpg	0.0	143.93782915181328	
38.0	129.81967302680823	adult	0.0		46	face	adult-129.jpg	0.0	144.25441165683515	0.38328748689673375
38.0	130.20296051370497	ISI	1.0		355	face	adult-129.jpg	0.0	144.63769914373188	3.0166535310308973
38.0	130.24114793482659	pulse	1.0	t		face	adult-129.jpg	0.0	144.6758865648535	
38.0	130.9030523675683	pulse	1.0	t		face	adult-129.jpg	0.0	145.33779099759522	
38.0	131.60310226386719	pulse	1.0	t		face	adult-129.jpg	0.0	146.0378408938941	
38.0	132.30308333768517	pulse	1.0	t		face	adult-129.jpg	0.0	146.73782196771208	
38.0	133.00304660217625	pulse	1.0	t		face	adult-129.jpg	0.0	147.43778523220317	
39.0	133.21961404473586	adult	0.0		46	face	adult-131.jpg	0.0	147.65435267476278	0.38328295910105226
39.0	133.60289700383692	ISI	1.0		474	face	adult-131.jpg	0.0	148.03763563386383	4.0165970845228
39.0	133.70304820199635	pulse	1.0	t		face	adult-131.jpg	0.0	148.13778683202327	
39.0	134.4030389351101	pulse	1.0	t		face	adult-131.jpg	0.0	148.837777565137	
39.0	135.10300370886762	pulse	1.0	t		face	adult-131.jpg	0.0	149.53774233889453	
39.0	135.8029923290087	pulse	1.0	t		face	adult-131.jpg	0.0	150.23773095903562	
39.0	136.5029737046807	pulse	1.0	t		face	adult-131.jpg	0.0	150.9377123347076	
39.0	137.20294753402595	pulse	1.0	t		face	adult-131.jpg	0.0	151.63768616405287	
40.0	137.61949408835972	house	0.0		46	place	house-143.jpg	0.0	152.05423271838663	0.38328748689491476
40.0	137.90289751698765	pulse	0.0	t		place	house-143.jpg	0.0	152.33763614701456	
40.0	138.00278157525463	ISI	1.0		594	place	house-143.jpg	0.0	152.43752020528154	5.0165662955187145
40.0	138.6029154168682	pulse	1.0	t		place	house-143.jpg	0.0	153.0376540468951	
40.0	139.30288984992148	pulse	1.0	t		place	house-143.jpg	0.0	153.7376284799484	
40.0	140.00288511082908	pulse	1.0	t		place	house-143.jpg	0.0	154.437623740856	
40.0	140.70286075129297	pulse	1.0	t		place	house-143.jpg	0.0	155.1375993813199	
40.0	141.40284665475883	pulse	1.0	t		place	house-143.jpg	0.0	155.83758528478575	
40.0	142.10282863413522	pulse	1.0	t		place	house-143.jpg	0.0	156.53756726416213	
40.0	142.80280578386555	pulse	1.0	t		place	house-143.jpg	0.0	157.23754441389246	
41.0	143.01934787077334	house	0.0		46	place	house-117.jpg	0.0	157.45408650080026	0.38328114798423485
41.0	143.40262901875758	ISI	1.0		354	place	house-117.jpg	0.0	157.8373676487845	3.0166281753790827
41.0	143.50280587442103	pulse	1.0	t		place	house-117.jpg	0.0	157.93754450444794	
41.0	144.2027682333537	pulse	1.0	t		place	house-117.jpg	0.0	158.63750686338062	
41.0	144.90273512008025	pulse	1.0	t		place	house-117.jpg	0.0	159.33747375010716	
41.0	145.6027327958127	pulse	1.0	t		place	house-117.jpg	0.0	160.0374714258396	
41.0	146.30271326592447	pulse	1.0	t		place	house-117.jpg	0.0	160.73745189595138	
42.0	146.41925719413666	car	0.0		46	object	car-104.jpg	0.0	160.85399582416358	0.3832944295154448
42.0	146.8025516236521	ISI	1.0		954	object	car-104.jpg	0.0	161.23729025367902	8.01648238038797
42.0	147.00268800082995	pulse	1.0	t		object	car-104.jpg	0.0	161.43742663085686	
42.0	147.70266484870626	pulse	1.0	t		object	car-104.jpg	0.0	162.13740347873318	
42.0	148.40264773364106	pulse	1.0	t		object	car-104.jpg	0.0	162.83738636366797	
42.0	149.1026254870776	pulse	1.0	t		object	car-104.jpg	0.0	163.53736411710452	
42.0	149.80261501277892	pulse	1.0	t		object	car-104.jpg	0.0	164.23735364280583	
42.0	150.50259850141993	pulse	1.0	t		object	car-104.jpg	0.0	164.93733713144684	
42.0	151.20256810482533	pulse	1.0	t		object	car-104.jpg	0.0	165.63730673485225	
42.0	151.90254676381846	pulse	1.0	t		object	car-104.jpg	0.0	166.33728539384538	
42.0	152.60254202472606	pulse	1.0	t		object	car-104.jpg	0.0	167.03728065475298	
42.0	153.30252309854404	pulse	1.0	t		object	car-104.jpg	0.0	167.73726172857096	
42.0	154.0025029649496	pulse	1.0	t		object	car-104.jpg	0.0	168.4372415949765	
42.0	154.70248403876758	pulse	1.0	t		object	car-104.jpg	0.0	169.1372226687945	
43.0	154.81903400404008	house	0.0		46	place	house-17.jpg	0.0	169.253772634067	0.38329201469059626
43.0	155.20232601873067	ISI	1.0		234	place	house-17.jpg	0.0	169.6370646487576	2.016641758764308
43.0	155.4024732626167	pulse	1.0	t		place	house-17.jpg	0.0	169.8372118926436	
43.0	156.1024495067868	pulse	1.0	t		place	house-17.jpg	0.0	170.5371881368137	
43.0	156.80243058060478	pulse	1.0	t		place	house-17.jpg	0.0	171.2371692106317	
44.0	157.21896777749498	number	0.0		46	character	number-96.jpg	0.0	171.6537064075219	0.38328869430733903
44.0	157.50237905430004	pulse	0.0	t		character	number-96.jpg	0.0	171.93711768432695	
44.0	157.60225647180232	ISI	1.0		234	character	number-96.jpg	0.0	172.03699510182923	2.016640551353703
44.0	158.20240661347816	pulse	1.0	t		character	number-96.jpg	0.0	172.63714524350507	
44.0	158.90235931311508	pulse	1.0	t		character	number-96.jpg	0.0	173.337097943142	
45.0	159.61889702315602	limb	0.0		45	body	limb-52.jpg	0.0	174.05363565318294	0.38329110913036857
45.0	159.60662760487685	pulse	0.0	t		body	limb-52.jpg	0.0	174.04136623490376	
45.0	160.0021881322864	ISI	1.0		232	body	limb-52.jpg	0.0	174.4369267623133	2.016650814355671
45.0	160.3023428923134	pulse	1.0	t		body	limb-52.jpg	0.0	174.7370815223403	
45.0	161.00231491054	pulse	1.0	t		body	limb-52.jpg	0.0	175.43705354056692	
45.0	161.70227304353102	pulse	1.0	t		body	limb-52.jpg	0.0	176.13701167355794	
46.0	162.01883894664206	number	0.0		46	character	number-111.jpg	0.0	176.45357757666898	0.3832989573074883
46.0	162.40213790394955	ISI	1.0		715	character	number-111.jpg	0.0	176.83687653397646	6.016527658337509
46.0	162.44192212736198	pulse	1.0	t		character	number-111.jpg	0.0	176.8766607573889	
46.0	163.10226326349584	pulse	1.0	t		character	number-111.jpg	0.0	177.53700189352276	
46.0	163.80224192248897	pulse	1.0	t		character	number-111.jpg	0.0	178.2369805525159	
46.0	164.5022193740715	pulse	1.0	t		character	number-111.jpg	0.0	178.93695800409841	
46.0	165.20220557938956	pulse	1.0	t		character	number-111.jpg	0.0	179.63694420941647	
46.0	165.90217548464716	pulse	1.0	t		character	number-111.jpg	0.0	180.33691411467407	
46.0	166.60215716217135	pulse	1.0	t		character	number-111.jpg	0.0	181.03689579219827	
46.0	167.3021364248707	pulse	1.0	t		character	number-111.jpg	0.0	181.7368750548976	
46.0	168.0021199135117	pulse	1.0	t		character	number-111.jpg	0.0	182.43685854353862	
47.0	168.41866556228706	adult	0.0		46	face	adult-32.jpg	0.0	182.85340419231397	0.38328205354082456
47.0	168.70206808535477	pulse	0.0	t		face	adult-32.jpg	0.0	183.13680671538168	
47.0	168.80194761582788	ISI	1.0		235	face	adult-32.jpg	0.0	183.2366862458548	2.0166477958246105
47.0	169.4020832685601	pulse	1.0	t		face	adult-32.jpg	0.0	183.836821898587	
47.0	170.10207490723224	pulse	1.0	t		face	adult-32.jpg	0.0	184.53681353725915	
48.0	170.8185954116525	adult	0.0		45	face	adult-92.jpg	0.0	185.2533340416794	0.38329110913218756
48.0	170.8093472399014	pulse	0.0	t		face	adult-92.jpg	0.0	185.2440858699283	
48.0	171.20188652078468	ISI	1.0		353	face	adult-92.jpg	0.0	185.6366251508116	3.0166212327621906
48.0	171.5020379604266	pulse	1.0	t		face	adult-92.jpg	0.0	185.93677659045352	
48.0	172.20200273418413	pulse	1.0	t		face	adult-92.jpg	0.0	186.63674136421105	
48.0	172.9019895432084	pulse	1.0	t		face	adult-92.jpg	0.0	187.33672817323531	
48.0	173.60196367440767	pulse	1.0	t		face	adult-92.jpg	0.0	188.03670230443458	
49.0	174.21850775354687	number	0.0		46	character	number-52.jpg	0.0	188.6532463835738	0.3832551886262081
49.0	174.30188135909884	pulse	0.0	t		character	number-52.jpg	0.0	188.73661998912576	
49.0	174.60176294217308	ISI	1.0		353	character	number-52.jpg	0.0	189.0365015722	3.0166073475229496
49.0	175.00186394218144	pulse	1.0	t		character	number-52.jpg	0.0	189.43660257220836	
49.0	175.70184109190996	pulse	1.0	t		character	number-52.jpg	0.0	190.13657972193687	
49.0	176.40182397684657	pulse	1.0	t		character	number-52.jpg	0.0	190.83656260687349	
49.0	177.10179780619183	pulse	1.0	t		character	number-52.jpg	0.0	191.53653643621874	
50.0	177.61837028969603	limb	0.0		46	body	limb-92.jpg	0.0	192.05310891972294	0.38330288139877666
50.0	177.80178853930556	pulse	0.0	t		body	limb-92.jpg	0.0	192.23652716933248	
50.0	178.0016731710948	ISI	1.0		472	body	limb-92.jpg	0.0	192.43641180112172	4.016622138320599
50.0	178.50175180379665	pulse	1.0	t		body	limb-92.jpg	0.0	192.93649043382356	
50.0	179.20175219620614	pulse	1.0	t		body	limb-92.jpg	0.0	193.63649082623306	
50.0	179.90172934593465	pulse	1.0	t		body	limb-92.jpg	0.0	194.33646797596157	
50.0	180.6017780348211	pulse	1.0	t		body	limb-92.jpg	0.0	195.03651666484802	
50.0	181.3017603160515	pulse	1.0	t		body	limb-92.jpg	0.0	195.73649894607843	
51.0	182.0182953094154	number	0.0		45	character	number-135.jpg	0.0	196.45303393944232	0.38329684433847433
51.0	182.01028413119639	pulse	0.0	t		character	number-135.jpg	0.0	196.4450227612233	
51.0	182.40159215375388	ISI	1.0		233	character	number-135.jpg	0.0	196.8363307837808	2.0166444754413533
51.0	182.70173333039565	pulse	1.0	t		character	number-135.jpg	0.0	197.13647196042257	
51.0	183.40170776344712	pulse	1.0	t		character	number-135.jpg	0.0	197.83644639347403	
51.0	184.101683403911	pulse	1.0	t		character	number-135.jpg	0.0	198.53642203393792	
52.0	184.41823662919523	limb	0.0		46	body	limb-129.jpg	0.0	198.85297525922215	0.3832600182740862
52.0	184.80149664746932	ISI	1.0		235	body	limb-129.jpg	0.0	199.23623527749623	2.016639947645672
52.0	184.83540801920753	pulse	1.0	t		body	limb-129.jpg	0.0	199.27014664923445	
52.0	185.5015912180097	pulse	1.0	t		body	limb-129.jpg	0.0	199.93632984803662	
52.0	186.20156233067792	pulse	1.0	t		body	limb-129.jpg	0.0	200.63630096070483	
53.0	186.818136595115	house	0.0		46	place	house-37.jpg	0.0	201.2528752251419	0.383288694309158
53.0	186.90154551746673	pulse	0.0	t		place	house-37.jpg	0.0	201.33628414749364	
53.0	187.20142528942415	ISI	1.0		353	place	house-37.jpg	0.0	201.63616391945106	3.016609762347798
53.0	187.6015256857263	pulse	1.0	t		place	house-37.jpg	0.0	202.03626431575321	
53.0	188.301501024338	pulse	1.0	t		place	house-37.jpg	0.0	202.7362396543649	
53.0	189.00148722965605	pulse	1.0	t		place	house-37.jpg	0.0	203.43622585968296	
53.0	189.70147645350517	pulse	1.0	t		place	house-37.jpg	0.0	204.13621508353208	
54.0	190.21803505177195	limb	0.0		46	body	limb-104.jpg	0.0	204.65277368179886	0.3833372926383163
54.0	190.40151518124185	pulse	0.0	t		body	limb-104.jpg	0.0	204.83625381126876	
54.0	190.60137234441027	ISI	1.0		475	body	limb-104.jpg	0.0	205.03611097443718	4.016582595579166
54.0	191.10150259397233	pulse	1.0	t		body	limb-104.jpg	0.0	205.53624122399924	
54.0	191.8014827622319	pulse	1.0	t		body	limb-104.jpg	0.0	206.2362213922588	
54.0	192.50146866569776	pulse	1.0	t		body	limb-104.jpg	0.0	206.93620729572467	
54.0	193.20143313760127	pulse	1.0	t		body	limb-104.jpg	0.0	207.63617176762818	
54.0	193.90142447442122	pulse	1.0	t		body	limb-104.jpg	0.0	208.33616310444813	
55.0	194.61795493998943	limb	0.0		45	body	limb-104.jpg	1.0	209.05269357001634	0.38330107028014027
55.0	194.60978498710028	pulse	0.0	t		body	limb-104.jpg	1.0	209.0445236171272	
55.0	195.00125601026957	ISI	1.0		235	body	limb-104.jpg	1.0	209.43599464029649	2.0166375328226422
55.0	195.30138571649695	pulse	1.0	t		body	limb-104.jpg	1.0	209.73612434652387	
55.0	196.00136165881486	pulse	1.0	t		body	limb-104.jpg	1.0	210.43610028884177	
55.0	196.7013463548683	pulse	1.0	t		body	limb-104.jpg	1.0	211.1360849848952	
56.0	197.0178935430922	house	0.0		46	place	house-90.jpg	0.0	211.45263217311913	0.38325850900946534
56.0	197.40115205210168	ISI	1.0		235	place	house-90.jpg	0.0	211.8358906821286	2.0166441735891567
56.0	197.43440176209697	pulse	1.0	t		place	house-90.jpg	0.0	211.86914039212388	
56.0	198.10124420781722	pulse	1.0	t		place	house-90.jpg	0.0	212.53598283784413	
56.0	198.8012186408705	pulse	1.0	t		place	house-90.jpg	0.0	213.23595727089742	
57.0	199.41779622569084	adult	0.0		46	face	adult-85.jpg	0.0	213.85253485571775	0.3832899017197633
57.0	199.50124287966537	pulse	0.0	t		face	adult-85.jpg	0.0	213.93598150969228	
57.0	199.8010861274106	ISI	1.0		235	face	adult-85.jpg	0.0	214.2358247574375	2.0166462865581707
57.0	200.20119316447744	pulse	1.0	t		face	adult-85.jpg	0.0	214.63593179450436	
57.0	200.9011597493536	pulse	1.0	t		face	adult-85.jpg	0.0	215.33589837938052	
57.0	201.60115199173197	pulse	1.0	t		face	adult-85.jpg	0.0	216.03589062175888	
58.0	201.81773241396877	number	0.0		46	character	number-114.jpg	0.0	216.25247104399568	0.38328477021968865
58.0	202.20101718418846	ISI	1.0		355	character	number-114.jpg	0.0	216.63575581421537	3.016655945853927
58.0	202.30113910260843	pulse	1.0	t		character	number-114.jpg	0.0	216.73587773263534	
58.0	203.00110236709952	pulse	1.0	t		character	number-114.jpg	0.0	217.43584099712643	
58.0	203.70122561367498	pulse	1.0	t		character	number-114.jpg	0.0	218.1359642437019	
58.0	204.40114963727865	pulse	1.0	t		character	number-114.jpg	0.0	218.83588826730556	
58.0	205.101116222153	pulse	1.0	t		character	number-114.jpg	0.0	219.5358548521799	
59.0	205.21767313004239	adult	0.0		46	face	adult-72.jpg	0.0	219.6524117600693	0.3832627349511313
59.0	205.60093586499352	ISI	1.0		355	face	adult-72.jpg	0.0	220.03567449502043	3.0166067438185564
59.0	205.80104869764	pulse	1.0	t		face	adult-72.jpg	0.0	220.2357873276669	
59.0	206.50101498066033	pulse	1.0	t		face	adult-72.jpg	0.0	220.93575361068724	
59.0	207.20098518777195	pulse	1.0	t		face	adult-72.jpg	0.0	221.63572381779886	
59.0	207.9009704875316	pulse	1.0	t		face	adult-72.jpg	0.0	222.3357091175585	
60.0	208.61754260881207	adult	0.0		45	face	adult-139.jpg	0.0	223.052281238839	0.38328114798241586
60.0	208.60920573122166	pulse	0.0	t		face	adult-139.jpg	0.0	223.04394436124858	
60.0	209.0008237567945	ISI	1.0		233	face	adult-139.jpg	0.0	223.4355623868214	2.0166601717974117
60.0	209.3009410870509	pulse	1.0	t		face	adult-139.jpg	0.0	223.7356797170778	
60.0	210.00092668866273	pulse	1.0	t		face	adult-139.jpg	0.0	224.43566531868964	
60.0	210.70089659392033	pulse	1.0	t		face	adult-139.jpg	0.0	225.13563522394725	
61.0	211.0174839285919	house	0.0		46	place	house-96.jpg	0.0	225.45222255861881	0.38331948331142485
61.0	211.40080341190333	ISI	1.0		355	place	house-96.jpg	0.0	225.83554204193024	3.0166221383205993
61.0	211.43600973294633	pulse	1.0	t		place	house-96.jpg	0.0	225.87074836297325	
61.0	212.1009474863331	pulse	1.0	t		place	house-96.jpg	0.0	226.53568611636	
61.0	212.80088267849715	pulse	1.0	t		place	house-96.jpg	0.0	227.23562130852406	
61.0	213.5008924283502	pulse	1.0	t		place	house-96.jpg	0.0	227.9356310583771	
61.0	214.20087984108068	pulse	1.0	t		place	house-96.jpg	0.0	228.6356184711076	
62.0	214.41742555022392	adult	0.0		46	face	adult-140.jpg	0.0	228.85216418025084	0.38325488677401154
62.0	214.80068043699794	ISI	1.0		355	face	adult-140.jpg	0.0	229.23541906702485	3.0166218364684028
62.0	214.90090498543395	pulse	1.0	t		face	adult-140.jpg	0.0	229.33564361546087	
62.0	215.600765921763	pulse	1.0	t		face	adult-140.jpg	0.0	230.03550455178993	
62.0	216.30078774573485	pulse	1.0	t		face	adult-140.jpg	0.0	230.73552637576176	
62.0	217.00073501201769	pulse	1.0	t		face	adult-140.jpg	0.0	231.4354736420446	
62.0	217.70071699139407	pulse	1.0	t		face	adult-140.jpg	0.0	232.135455621421	
63.0	217.81730227346634	car	0.0		46	object	car-84.jpg	0.0	232.25204090349325	0.38329382580741367
63.0	218.20059609927375	ISI	1.0		233	object	car-84.jpg	0.0	232.63533472930067	2.01663843838287
63.0	218.40069957447668	pulse	1.0	t		object	car-84.jpg	0.0	232.8354382045036	
63.0	219.1006709889989	pulse	1.0	t		object	car-84.jpg	0.0	233.5354096190258	
63.0	219.80066262767104	pulse	1.0	t		object	car-84.jpg	0.0	234.23540125769796	
64.0	220.21723453765662	number	0.0		46	character	number-36.jpg	0.0	234.65197316768354	0.38332763334256015
64.0	220.50067539605334	pulse	0.0	t		character	number-36.jpg	0.0	234.93541402608025	
64.0	220.60056217099918	ISI	1.0		235	character	number-36.jpg	0.0	235.0353008010261	2.0166360235580214
64.0	221.2006987292898	pulse	1.0	t		character	number-36.jpg	0.0	235.6354373593167	
64.0	221.90065776783922	pulse	1.0	t		character	number-36.jpg	0.0	236.33539639786613	
65.0	222.6171981945572	limb	0.0		45	body	limb-135.jpg	0.0	237.05193682458412	0.38329382580741367
65.0	222.60743808014195	pulse	0.0	t		body	limb-135.jpg	0.0	237.04217671016886	
65.0	223.00049202036462	ISI	1.0		239	body	limb-135.jpg	0.0	237.43523065039153	1.999979172143867
65.0	223.29262594287502	pulse	1.0	t		body	limb-135.jpg	0.0	237.72736457290193	
65.0	224.00061245970574	pulse	1.0	t		body	limb-135.jpg	0.0	238.43535108973265	
65.0	224.70059323167152	pulse	1.0	t		body	limb-135.jpg	0.0	239.13533186169843	
66.0	225.00047119250848	baseline	0.0		708		baseline	0.0	239.4352098225354	5.899850914811395
66.0	225.39251815117495	pulse	0.0	t			baseline	0.0	239.82725678120187	
66.0	226.10055477560127	pulse	0.0	t			baseline	0.0	240.53529340562818	
66.0	226.80054701797962	pulse	0.0	t			baseline	0.0	241.23528564800654	
66.0	227.5005229602957	pulse	0.0	t			baseline	0.0	241.93526159032263	
66.0	228.2005046378199	pulse	0.0	t			baseline	0.0	242.63524326784682	
66.0	228.90047756160675	pulse	0.0	t			baseline	0.0	243.33521619163366	
66.0	229.60046708730806	pulse	0.0	t			baseline	0.0	244.03520571733497	
66.0	230.3004508778031	pulse	0.0	t			baseline	0.0	244.73518950783	
66.0	230.90032210731988	ISI	1.0		12		baseline	0.0	245.3350607373468	0.0999912160787062
