trial_nr	onset	event_type	phase	response	nr_frames	rating_type	face_id	repetition	session	rating	onset_abs	duration
0.0	0.006132517434707552	cue	0.0		480						38.212944996908845	4.000521909954841
0.0	-2.2870323638508125	response	0.0	space							35.919780115623325	
0.0	4.006654427389549	fix	1.0		120						42.21346690686369	1.0251102380079828
0.0	5.031764665397532	face	0.0		146	attractiveness	024	1.0	2		43.23857714487167	1.27536259007411
0.0	6.3071272554716415	rating	1.0		3381	attractiveness	024	1.0	2		44.51393973494578	28.194842358441747
0.0	6.423701232057283	response	1.0	escape		attractiveness	024	1.0	2		44.63051371153142	
0.0	34.50196961391339	fix	2.0		60	attractiveness	024	1.0	2	-1.38	72.70878209338753	0.5167192299513772
1.0	35.018688843864766	face	0.0		147	attractiveness	064	1.0	2		73.2255013233389	1.2334941826211434
1.0	36.25218302648591	rating	1.0		121	attractiveness	064	1.0	2		74.45899550596005	1.0167862421030804
1.0	37.26896926858899	fix	2.0		60	attractiveness	064	1.0	2	-1.4900000000000002	75.47578174806313	0.5167533397407169
2.0	37.785722608329706	face	0.0		147	attractiveness	102	1.0	2		75.99253508780384	1.233455544984281
2.0	39.01917815331399	rating	1.0		109	attractiveness	102	1.0	2		77.22599063278813	0.9084466100302961
2.0	39.927624763344284	fix	2.0		60	attractiveness	102	1.0	2	-1.7000000000000002	78.13443724281842	0.5167512267444181
3.0	40.4443759900887	face	0.0		147	attractiveness	006	1.0	2		78.65118846956284	1.233455544984281
3.0	41.67783153507298	rating	1.0		68	attractiveness	006	1.0	2		79.88464401454712	0.5750729285400666
3.0	42.25290446361305	fix	2.0		60	attractiveness	006	1.0	2	-1.62	80.45971694308719	0.5167527360272288
4.0	42.76965719964028	face	0.0		147	attractiveness	027	1.0	2		80.97646967911442	1.233462487683937
4.0	44.003119687324215	rating	1.0		93	attractiveness	027	1.0	2		82.20993216679835	0.7834248763601863
4.0	44.7865445636844	fix	2.0		60	attractiveness	027	1.0	2	1.2800000000000002	82.99335704315854	0.5167512267444181
5.0	45.30329579042882	face	0.0		147	attractiveness	039	1.0	2		83.51010826990296	1.233458865405737
5.0	46.53675465583456	rating	1.0		121	attractiveness	039	1.0	2		84.7435671353087	1.0084661703340316
5.0	47.54522082616859	fix	2.0		60	attractiveness	039	1.0	2	0.8799999999999999	85.75203330564273	0.5167448877582501
6.0	48.06196571392684	face	0.0		147	attractiveness	062	1.0	2		86.26877819340098	1.2334534319879822
6.0	49.29541914591482	rating	1.0		95	attractiveness	062	1.0	2		87.50223162538896	0.8000942999824474
6.0	50.09551344589727	fix	2.0		60	attractiveness	062	1.0	2	-1.79	88.3023259253714	0.516756962018917
7.0	50.612270407916185	face	0.0		147	attractiveness	144	1.0	2		88.81908288739032	1.2334639969676573
7.0	51.84573440488384	rating	1.0		40	attractiveness	144	1.0	2		90.05254688435798	0.3333709647813521
7.0	52.179105369665194	fix	2.0		60	attractiveness	144	1.0	2	0.0	90.38591784913933	0.5167470007536394
8.0	52.695852370418834	face	0.0		147	attractiveness	126	1.0	2		90.90266484989297	1.2334694303845026
8.0	53.929321800803336	rating	1.0		108	attractiveness	126	1.0	2		92.13613428027747	0.900104502733484
8.0	54.82942630353682	fix	2.0		60	attractiveness	126	1.0	2	0.6699999999999999	93.03623878301096	0.516753641597461
9.0	55.34617994513428	face	0.0		147	attractiveness	043	1.0	2		93.55299242460842	1.2334609784011263
9.0	56.57964092353541	rating	1.0		111	attractiveness	043	1.0	2		94.78645340300955	0.9334418406970144
9.0	57.51308276423242	fix	2.0		60	attractiveness	043	1.0	2	-0.6299999999999999	95.71989524370656	0.5167554527370157
10.0	58.02983821696944	face	0.0		147	attractiveness	018	1.0	2		96.23665069644358	1.2334878436331564
10.0	59.263326060602594	rating	1.0		72	attractiveness	018	1.0	2		97.47013854007673	0.6083680065876251
10.0	59.87169406719022	fix	2.0		60	attractiveness	018	1.0	2	0.8899999999999997	98.07850654666436	0.5167533397407169
11.0	60.388447406930936	face	0.0		147	attractiveness	137	1.0	2		98.59525988640507	1.2334600728327132
11.0	61.62190747976365	rating	1.0		87	attractiveness	137	1.0	2		99.82871995923779	0.7250871761680173
11.0	62.34699465593167	fix	2.0		60	attractiveness	137	1.0	2	-1.9	100.5538071354058	0.5167581694449837
12.0	62.86375282537665	face	0.0		147	attractiveness	117	1.0	2		101.07056530485079	1.2334621858281025
12.0	64.09721501120475	rating	1.0		73	attractiveness	117	1.0	2		102.30402749067889	0.6084039275156101
12.0	64.70561893872036	fix	2.0		60	attractiveness	117	1.0	2	-1.9900000000000002	102.9124314181945	0.516744284044762
13.0	65.22236322276513	face	0.0		147	attractiveness	066	1.0	2		103.42917570223926	1.233462487683937
13.0	66.45582571044906	rating	1.0		101	attractiveness	066	1.0	2		104.6626381899232	0.8501067968436473
13.0	67.30593250729271	fix	2.0		60	attractiveness	066	1.0	2	1.1500000000000004	105.51274498676685	0.5167518304579062
14.0	67.82268433775062	face	0.0		147	attractiveness	099	1.0	2		106.02949681722475	1.2334543375573048
14.0	69.05613867530792	rating	1.0		43	attractiveness	099	1.0	2		107.26295115478206	0.3583764585710014
14.0	69.41451513387892	fix	2.0		60	attractiveness	099	1.0	2	0.0	107.62132761335306	0.5167560564495943
15.0	69.93127119032852	face	0.0		147	attractiveness	070	1.0	2		108.13808366980265	1.233458563548993
15.0	71.16472975387751	rating	1.0		82	attractiveness	070	1.0	2		109.37154223335165	0.691747121496519
15.0	71.85647687537403	fix	2.0		60	attractiveness	070	1.0	2	-2.8	110.06328935484817	0.516756962018917
16.0	72.37323383739295	face	0.0		147	attractiveness	011	1.0	2		110.58004631686708	1.233455846841025
16.0	73.60668968423397	rating	1.0		55	attractiveness	011	1.0	2		111.81350216370811	0.46671941106524173
16.0	74.07340909529921	fix	2.0		60	attractiveness	011	1.0	2	-1.52	112.28022157477335	0.5167578675891491
17.0	74.59016696288836	face	0.0		147	attractiveness	130	1.0	2		112.7969794423625	1.2334573561229263
17.0	75.82362431901129	rating	1.0		99	attractiveness	130	1.0	2		114.03043679848543	0.8250976807757979
17.0	76.64872199978709	fix	2.0		60	attractiveness	130	1.0	2	-1.7999999999999998	114.85553447926122	0.5167587731584717
18.0	77.16548077294556	face	0.0		147	attractiveness	087	1.0	2		115.3722932524197	1.2334534319879822
18.0	78.39893420493354	rating	1.0		706	attractiveness	087	1.0	2		116.60574668440768	5.892382710623679
18.0	84.29131691555722	fix	2.0		60	attractiveness	087	1.0	2	-1.6400000000000001	122.49812939503136	0.5167518304579062
19.0	84.80806874601512	face	0.0		147	attractiveness	042	1.0	2		123.01488122548926	1.2334612802578704
19.0	86.041530026273	rating	1.0		166	attractiveness	042	1.0	2		124.24834250574713	1.3918282001623083
19.0	87.4333582264353	fix	2.0		60	attractiveness	042	1.0	2	1.38	125.64017070590944	0.5167506230318395
20.0	87.95010884946714	face	0.0		147	attractiveness	061	1.0	2		126.15692132894128	1.233468222958436
20.0	89.18357707242558	rating	1.0		43	attractiveness	061	1.0	2		127.39038955189972	0.36671041574118135
20.0	89.55028748816676	fix	2.0		60	attractiveness	061	1.0	2	-1.67	127.7570999676409	0.5167460951843168
21.0	90.06703358335108	face	0.0		147	attractiveness	082	1.0	2		128.2738460628252	1.2334600728318037
21.0	91.30049365618288	rating	1.0		66	attractiveness	082	1.0	2		129.50730613565702	0.5583974677856531
21.0	91.85889112396853	fix	2.0		60	attractiveness	082	1.0	2	1.3600000000000003	130.06570360344267	0.5167542453100396
22.0	92.37564536927857	face	0.0		147	attractiveness	092	1.0	2		130.5824578487527	1.233458865405737
22.0	93.60910423468431	rating	1.0		84	attractiveness	092	1.0	2		131.81591671415845	0.7000831916620882
22.0	94.3091874263464	fix	2.0		60	attractiveness	092	1.0	2	-2.23	132.51599990582054	0.516753943454205
23.0	94.8259413698006	face	0.0		147	attractiveness	124	1.0	2		133.03275384927474	1.2334615821146144
23.0	96.05940295191522	rating	1.0		83	attractiveness	124	1.0	2		134.26621543138936	0.7000868139402883
23.0	96.7594897658555	fix	2.0		60	attractiveness	124	1.0	2	3.4000000000000004	134.96630224532964	0.5167853365337578
24.0	97.27627510238926	face	0.0		147	attractiveness	033	1.0	2		135.4830875818634	1.233428679752251
24.0	98.50970378214151	rating	1.0		73	attractiveness	033	1.0	2		136.71651626161565	0.616733960550846
24.0	99.12643774269236	fix	2.0		60	attractiveness	033	1.0	2	1.79	137.3332502221665	0.516756962018917
25.0	99.64319470471128	face	0.0		147	attractiveness	038	1.0	2		137.85000718418542	1.2334615821146144
25.0	100.87665628682589	rating	1.0		51	attractiveness	038	1.0	2		139.08346876630003	0.4333775452541886
25.0	101.31003383208008	fix	2.0		60	attractiveness	038	1.0	2	-2.19	139.51684631155422	0.5167593768719598
26.0	101.82679320895204	face	0.0		147	attractiveness	044	1.0	2		140.03360568842618	1.2334537338447262
26.0	103.06024694279677	rating	1.0		210	attractiveness	044	1.0	2		141.2670594222709	1.7502088847240884
26.0	104.81045582752085	fix	2.0		60	attractiveness	044	1.0	2	-0.8399999999999999	143.017268306995	0.5167524341713943
27.0	105.32720826169225	face	0.0		147	attractiveness	009	1.0	2		143.5340207411664	1.2334615821146144
27.0	106.56066984380686	rating	1.0		112	attractiveness	009	1.0	2		144.767482323281	0.9334478778282573
27.0	107.49411772163512	fix	2.0		60	attractiveness	009	1.0	2	1.62	145.70093020110926	0.5167551508793622
28.0	108.01087287251448	face	0.0		147	attractiveness	005	1.0	2		146.21768535198862	1.2334615821146144
28.0	109.2443344546291	rating	1.0		88	attractiveness	005	1.0	2		147.45114693410324	0.7417532793697319
28.0	109.98608773399883	fix	2.0		60	attractiveness	005	1.0	2	-2.62	148.19290021347297	0.5167530378839729
29.0	110.5028407718828	face	0.0		147	attractiveness	100	1.0	2		148.70965325135694	1.2334476967143928
29.0	111.7362884685972	rating	1.0		90	attractiveness	100	1.0	2		149.94310094807133	0.7584281364097478
29.0	112.49471660500694	fix	2.0		60	attractiveness	100	1.0	2	2.76	150.70152908448108	0.5167548490235276
30.0	113.01147145403047	face	0.0		147	attractiveness	036	1.0	2		151.2182839335046	1.2334658081063026
30.0	114.24493726213677	rating	1.0		61	attractiveness	036	1.0	2		152.4517497416109	0.5167189280955427
30.0	114.76165619023232	fix	2.0		60	attractiveness	036	1.0	2	-1.3900000000000001	152.96846866970645	0.5167602824412825
31.0	115.2784164726736	face	0.0		147	attractiveness	121	1.0	2		153.48522895214774	1.2334552431266275
31.0	116.51187171580023	rating	1.0		59	attractiveness	121	1.0	2		154.71868419527436	0.5000573527422603
31.0	117.01192906854249	fix	2.0		60	attractiveness	121	1.0	2	-1.4900000000000002	155.21874154801662	0.5167521323146502
32.0	117.52868120085714	face	0.0		147	attractiveness	030	1.0	2		155.73549368033127	1.2334639969676573
32.0	118.7621451978248	rating	1.0		135	attractiveness	030	1.0	2		156.96895767729893	1.1334643591944769
32.0	119.89560955701927	fix	2.0		60	attractiveness	030	1.0	2	1.5300000000000002	158.1024220364934	0.5167620935799278
33.0	120.4123716505992	face	0.0		147	attractiveness	034	1.0	2		158.61918413007334	1.2334510171358488
33.0	121.64582266773505	rating	1.0		229	attractiveness	034	1.0	2		159.85263514720918	1.9085646359371822
33.0	123.55438730367223	fix	2.0		60	attractiveness	034	1.0	2	-1.2200000000000002	161.76119978314637	0.5167506230318395
34.0	124.07113792670407	face	0.0		147	attractiveness	136	1.0	2		162.2779504061782	1.2334703359547348
34.0	125.3046082626588	rating	1.0		81	attractiveness	136	1.0	2		163.51142074213294	0.6834068253383521
34.0	125.98801508799716	fix	2.0		60	attractiveness	136	1.0	2	-2.76	164.1948275674713	0.5167542453100396
35.0	126.5047693333072	face	0.0		147	attractiveness	012	1.0	2		164.71158181278133	1.2334655062495585
35.0	127.73823483955675	rating	1.0		183	attractiveness	012	1.0	2		165.9450473190309	1.533507585051666
35.0	129.27174242460842	fix	2.0		60	attractiveness	012	1.0	2	0.96	167.47855490408256	0.5167593768710503
36.0	129.78850180147947	face	0.0		147	attractiveness	091	1.0	2		167.9953142809536	1.2334615821146144
36.0	131.02196338359408	rating	1.0		1723	attractiveness	091	1.0	2		169.22877586306822	14.368400510499669
36.0	145.39036389409375	fix	2.0		60	attractiveness	091	1.0	2	-1.08	183.5971763735679	0.5167515286020716
37.0	145.90711542269582	face	0.0		147	attractiveness	101	1.0	2		184.11392790216996	1.2334612802578704
37.0	147.1405767029537	rating	1.0		91	attractiveness	101	1.0	2		185.34738918242783	0.7667521323146502
37.0	147.90732883526834	fix	2.0		60	attractiveness	101	1.0	2	2.7300000000000004	186.11414131474248	0.516756962018917
38.0	148.42408579728726	face	0.0		147	attractiveness	172	1.0	2		186.6308982767614	1.2334621858281025
38.0	149.65754798311536	rating	1.0		80	attractiveness	172	1.0	2		187.8643604625895	0.6750755848770496
38.0	150.3326235679924	fix	2.0		60	attractiveness	172	1.0	2	-3.08	188.53943604746655	0.5167482081797061
39.0	150.84937177617212	face	0.0		147	attractiveness	141	1.0	2		189.05618425564626	1.23346852481518
39.0	152.0828403009873	rating	1.0		126	attractiveness	141	1.0	2		190.28965278046144	1.0501196559316668
39.0	153.13295995691897	fix	2.0		60	attractiveness	141	1.0	2	-1.5899999999999999	191.3397724363931	0.5000658047247271
40.0	153.6330257616437	cue	0.0		480						191.83983824111783	4.0004826686054
40.0	157.6335084302491	fix	1.0		120						195.84032090972323	1.0168115980522998
40.0	158.6503200283014	face	0.0		147	dominance	091	1.0	2		196.85713250777553	1.2334618839713585
40.0	159.88378191227275	rating	1.0		397	dominance	091	1.0	2		198.0905943917469	3.3170604485831063
40.0	163.20084236085586	fix	2.0		60	dominance	091	1.0	2	-1.2200000000000002	201.40765484033	0.5167521323146502
41.0	163.7175944931705	face	0.0		147	dominance	082	1.0	2		201.92440697264465	1.233468222958436
41.0	164.95106271612894	rating	1.0		128	dominance	082	1.0	2		203.15787519560308	1.0751266590032174
41.0	166.02618937513216	fix	2.0		60	dominance	082	1.0	2	1.0300000000000002	204.2330018546063	0.5167457933275728
42.0	166.54293516845973	face	0.0		147	dominance	009	1.0	2		204.74974764793387	1.2334670155323693
42.0	167.7764021839921	rating	1.0		349	dominance	009	1.0	2		205.98321466346624	2.917011185595584
42.0	170.6934133695877	fix	2.0		60	dominance	009	1.0	2	1.5999999999999996	208.90022584906183	0.5167584713026372
43.0	171.21017184089033	face	0.0		147	dominance	070	1.0	2		209.41698432036446	1.233454941270793
43.0	172.44362678216112	rating	1.0		87	dominance	070	1.0	2		210.65043926163526	0.7334193221986425
43.0	173.17704610435976	fix	2.0		60	dominance	070	1.0	2	2.8099999999999996	211.3838585838339	0.5167518304579062
44.0	173.69379793481767	face	0.0		147	dominance	130	1.0	2		211.9006104142918	1.233469128528668
44.0	174.92726706334633	rating	1.0		62	dominance	130	1.0	2		213.13407954282047	0.5250610353914453
44.0	175.45232809873778	fix	2.0		59	dominance	130	1.0	2	-2.12	213.65914057821192	0.516753943454205
45.0	175.96908204219199	face	0.0		147	dominance	087	1.0	2		214.17589452166612	1.2334582616931584
45.0	177.20254030388514	rating	1.0		105	dominance	087	1.0	2		215.40935278335928	0.8834374939624468
45.0	178.0859777978476	fix	2.0		60	dominance	087	1.0	2	1.8099999999999996	216.29279027732173	0.516757263875661
46.0	178.60273506172325	face	0.0		147	dominance	066	1.0	2		216.8095475411974	1.2334498097097821
46.0	179.83618487143303	rating	1.0		232	dominance	066	1.0	2		218.04299735090717	1.9335646963081672
46.0	181.7697495677412	fix	2.0		60	dominance	066	1.0	2	2.33	219.97656204721534	0.516753943454205
47.0	182.2865035111954	face	0.0		147	dominance	092	1.0	2		220.49331599066954	1.2335162181479973
47.0	183.5200197293434	rating	1.0		161	dominance	092	1.0	2		221.72683220881754	1.3501101172651033
47.0	184.8701298466085	fix	2.0		60	dominance	092	1.0	2	-1.5899999999999999	223.07694232608264	0.5167533397407169
48.0	185.38688318634922	face	0.0		147	dominance	042	1.0	2		223.59369566582336	1.2334540357005608
48.0	186.62033722204978	rating	1.0		161	dominance	042	1.0	2		224.82714970152392	1.3501608291644516
48.0	187.97049805121424	fix	2.0		60	dominance	042	1.0	2	1.5	226.17731053068837	0.5167575657314956
49.0	188.48725561694573	face	0.0		147	dominance	011	1.0	2		226.69406809641987	1.233454941270793
49.0	189.72071055821652	rating	1.0		126	dominance	011	1.0	2		227.92752303769066	1.0584656873643326
49.0	190.77917624558086	fix	2.0		60	dominance	011	1.0	2	1.3499999999999996	228.985988725055	0.5167479063229621
50.0	191.29592415190382	face	0.0		147	dominance	044	1.0	2		229.50273663137796	1.2334667136756252
50.0	192.52939086557944	rating	1.0		79	dominance	044	1.0	2		230.73620334505358	0.6667452499850697
50.0	193.1961361155645	fix	2.0		60	dominance	044	1.0	2	1.1500000000000004	231.40294859503865	0.5167424729061167
51.0	193.71287858847063	face	0.0		147	dominance	172	1.0	2		231.91969106794477	1.2334703359538253
51.0	194.94634892442446	rating	1.0		86	dominance	172	1.0	2		233.1531614038986	0.7250871761680173
51.0	195.67143610059247	fix	2.0		60	dominance	172	1.0	2	2.8899999999999997	233.8782485800666	0.5167515286020716
52.0	196.18818762919454	face	0.0		147	dominance	024	1.0	2		234.39500010866868	1.2334531301312381
52.0	197.42164075932578	rating	1.0		175	dominance	024	1.0	2		235.62845323879992	1.4668428703898826
52.0	198.88848362971567	fix	2.0		60	dominance	024	1.0	2	1.29	237.0952961091898	0.5167530378848824
53.0	199.40523666760055	face	0.0		147	dominance	124	1.0	2		237.61204914707469	1.2334664118188812
53.0	200.63870307941943	rating	1.0		101	dominance	124	1.0	2		238.84551555889357	0.8500998541430818
53.0	201.4888029335625	fix	2.0		60	dominance	124	1.0	2	1.0999999999999996	239.69561541303665	0.5167509248885835
54.0	202.0055538584511	face	0.0		147	dominance	012	1.0	2		240.21236633792523	1.2334630913965157
54.0	203.2390169498476	rating	1.0		129	dominance	012	1.0	2		241.44582942932175	1.083454880899808
54.0	204.32247183074742	fix	2.0		60	dominance	012	1.0	2	2.1500000000000004	242.52928431022156	0.5167590750152158
55.0	204.83923090576263	face	0.0		147	dominance	141	1.0	2		243.04604338523677	1.2334594691183156
55.0	206.07269037488095	rating	1.0		88	dominance	141	1.0	2		244.2795028543551	0.7417478459519771
55.0	206.81443822083293	fix	2.0		60	dominance	141	1.0	2	-2.09	245.02125070030706	0.5167614898673492
56.0	207.33119971070028	face	0.0		147	dominance	038	1.0	2		245.5380121901744	1.2334528282754036
56.0	208.56465253897568	rating	1.0		103	dominance	038	1.0	2		246.77146501844982	0.866770183335575
56.0	209.43142272231125	fix	2.0		60	dominance	038	1.0	2	-2.17	247.6382352017854	0.5167509248885835
57.0	209.94817364719984	face	0.0		147	dominance	117	1.0	2		248.15498612667398	1.2334676192449479
57.0	211.18164126644479	rating	1.0		125	dominance	117	1.0	2		249.38845374591892	1.050127806058299
57.0	212.23176907250308	fix	2.0		60	dominance	117	1.0	2	-1.0299999999999998	250.43858155197722	0.5167506230318395
58.0	212.74851969553492	face	0.0		147	dominance	136	1.0	2		250.95533217500906	1.2334546394140489
58.0	213.98197433494897	rating	1.0		56	dominance	136	1.0	2		252.1887868144231	0.4750989485737591
58.0	214.45707328352273	fix	2.0		60	dominance	136	1.0	2	1.67	252.66388576299687	0.5167165132434093
59.0	214.97378979676614	face	0.0		147	dominance	061	1.0	2		253.18060227624028	1.2334522245619155
59.0	216.20724202132806	rating	1.0		193	dominance	061	1.0	2		254.4140545008022	1.6168640607183988
59.0	217.82410608204646	fix	2.0		60	dominance	061	1.0	2	1.0499999999999998	256.0309185615206	0.5167548490235276
60.0	218.34086093106998	face	0.0		147	dominance	121	1.0	2		256.5476734105441	1.2334612802578704
60.0	219.57432221132785	rating	1.0		49	dominance	121	1.0	2		257.781134690802	0.4167135550496823
60.0	219.99103576637754	fix	2.0		60	dominance	121	1.0	2	-1.44	258.1978482458517	0.5167539434532955
61.0	220.50778970983083	face	0.0		147	dominance	126	1.0	2		258.71460218930497	1.233459469119225
61.0	221.74124917895006	rating	1.0		166	dominance	126	1.0	2		259.9480616584242	1.3918275964488203
61.0	223.13307677539888	fix	2.0		60	dominance	126	1.0	2	2.1500000000000004	261.339889254873	0.5167602824412825
62.0	223.64983705784016	face	0.0		147	dominance	005	1.0	2		261.8566495373143	1.233459469119225
62.0	224.88329652695938	rating	1.0		56	dominance	005	1.0	2		263.0901090064335	0.4750536700921657
62.0	225.35835019705155	fix	2.0		60	dominance	005	1.0	2	-2.2800000000000002	263.5651626765257	0.5167548490235276
63.0	225.87510504607508	face	0.0		147	dominance	030	1.0	2		264.0819175255492	1.2334516208484274
63.0	227.1085566669235	rating	1.0		106	dominance	030	1.0	2		265.31536914639764	0.8917735641289255
63.0	228.00033023105243	fix	2.0		60	dominance	030	1.0	2	2.38	266.20714271052657	0.5167527360281383
64.0	228.51708296708057	face	0.0		147	dominance	101	1.0	2		266.7238954465547	1.2334603746885477
64.0	229.75054334176912	rating	1.0		114	dominance	101	1.0	2		267.95735582124325	0.9584509567639543
64.0	230.70899429853307	fix	2.0		60	dominance	101	1.0	2	3.0300000000000002	268.9158067780072	0.5167557545937598
65.0	231.22575005312683	face	0.0		147	dominance	036	1.0	2		269.43256253260097	1.2334573561229263
65.0	232.45920740924976	rating	1.0		101	dominance	036	1.0	2		270.6660198887239	0.8501034764212818
65.0	233.30931088567104	fix	2.0		60	dominance	036	1.0	2	-1.56	271.5161233651452	0.5167466988968954
66.0	233.82605758456793	face	0.0		147	dominance	006	1.0	2		272.0328700640421	1.233458261692249
66.0	235.05951584626018	rating	1.0		40	dominance	006	1.0	2		273.2663283257343	0.3417067330919963
66.0	235.40122257935218	fix	2.0		60	dominance	006	1.0	2	-1.12	273.6080350588263	0.5167530378839729
67.0	235.91797561723615	face	0.0		147	dominance	102	1.0	2		274.1247880967103	1.2334615821146144
67.0	237.15143719935077	rating	1.0		62	dominance	102	1.0	2		275.3582496788249	0.5250613372481894
67.0	237.67649853659896	fix	2.0		60	dominance	102	1.0	2	-1.8900000000000001	275.8833110160731	0.5167545471667836
68.0	238.19325308376574	face	0.0		147	dominance	100	1.0	2		276.4000655632399	1.2334585635499025
68.0	239.42671164731564	rating	1.0		54	dominance	100	1.0	2		277.6335241267898	0.45838303904292843
68.0	239.88509468635857	fix	2.0		60	dominance	100	1.0	2	1.5300000000000002	278.0919071658327	0.5167642065762266
69.0	240.4018588929348	face	0.0		147	dominance	018	1.0	2		278.60867137240893	1.2334525264186595
69.0	241.63531141935346	rating	1.0		285	dominance	018	1.0	2		279.8421238988276	2.3836237394471027
69.0	244.01893515880056	fix	2.0		60	dominance	018	1.0	2	-0.94	282.2257476382747	0.5167518304579062
70.0	244.53568698925847	face	0.0		147	dominance	034	1.0	2		282.7424994687326	1.2334621858281025
70.0	245.76914917508657	rating	1.0		144	dominance	034	1.0	2		283.9759616545607	1.2084995556670037
70.0	246.97764873075357	fix	2.0		60	dominance	034	1.0	2	1.5099999999999998	285.1844612102277	0.5167255689393642
71.0	247.49437429969294	face	0.0		147	dominance	039	1.0	2		285.7011867791671	1.2334655062495585
71.0	248.7278398059425	rating	1.0		87	dominance	039	1.0	2		286.93465228541663	0.7334199259121306
71.0	249.46125973185462	fix	2.0		60	dominance	039	1.0	2	-1.87	287.66807221132876	0.5167479063229621
72.0	249.9780076381776	face	0.0		147	dominance	043	1.0	2		288.1848201176517	1.2334642988234918
72.0	251.21147193700108	rating	1.0		110	dominance	043	1.0	2		289.4182844164752	0.9251099965222238
72.0	252.1365819335233	fix	2.0		60	dominance	043	1.0	2	1.8899999999999997	290.34339441299744	0.5167473026103835
73.0	252.6533292361337	face	0.0		147	dominance	027	1.0	2		290.8601417156078	1.2334597709750597
73.0	253.88678900710875	rating	1.0		69	dominance	027	1.0	2		292.0936014865829	0.5834032634320465
73.0	254.4701922705408	fix	2.0		60	dominance	027	1.0	2	0.6100000000000003	292.67700475001493	0.5167578675882396
74.0	254.98695013812903	face	0.0		147	dominance	144	1.0	2		293.19376261760317	1.2334600728318037
74.0	256.22041021096084	rating	1.0		141	dominance	144	1.0	2		294.427222690435	1.1834674985029778
74.0	257.4038777094638	fix	2.0		60	dominance	144	1.0	2	1.0999999999999996	295.61069018893795	0.5167524341713943
75.0	257.9206301436352	face	0.0		147	dominance	099	1.0	2		296.12744262310935	1.233467921101692
75.0	259.1540980647369	rating	1.0		75	dominance	099	1.0	2		297.36091054421104	0.6334051953135713
75.0	259.78750326005047	fix	2.0		60	dominance	099	1.0	2	1.8200000000000003	297.9943157395246	0.5167581694449837
76.0	260.30426142949545	face	0.0		147	dominance	062	1.0	2		298.5110739089696	1.233451922706081
76.0	261.53771335220154	rating	1.0		132	dominance	062	1.0	2		299.7445258316757	1.108461883970449
76.0	262.646175236172	fix	2.0		60	dominance	062	1.0	2	2.1900000000000004	300.8529877156461	0.5167557545937598
77.0	263.16293099076574	face	0.0		147	dominance	064	1.0	2		301.3697434702399	1.2334664118188812
77.0	264.3963974025846	rating	1.0		140	dominance	064	1.0	2		302.60320988205876	1.175140785889198
77.0	265.5715381884738	fix	2.0		60	dominance	064	1.0	2	-0.6499999999999999	303.77835066794796	0.5167506230318395
78.0	266.08828881150566	face	0.0		147	dominance	033	1.0	2		304.2951012909798	1.2334600728327132
78.0	267.3217488843384	rating	1.0		107	dominance	033	1.0	2		305.5285613638125	0.9001072194423614
78.0	268.22185610378074	fix	2.0		60	dominance	033	1.0	2	3.2800000000000002	306.4286685832549	0.5167494156057728
79.0	268.7386055193865	face	0.0		147	dominance	137	1.0	2		306.94541799886065	1.2334567524094382
79.0	269.97206227179595	rating	1.0		205	dominance	137	1.0	2		308.1788747512701	1.7168812061709104
79.0	271.68894347796686	fix	2.0		60	dominance	137	1.0	2	1.5899999999999999	309.895755957441	0.5000594657376496
80.0	272.1890029437045	cue	0.0		480						310.39581542317865	4.000479951896523
80.0	276.18948289560103	fix	1.0		120						314.39629537507517	1.0168103906262331
80.0	277.20629328622726	face	0.0		147	trustworthiness	126	1.0	2		315.4131057657014	1.2334639969667478
80.0	278.439757283194	rating	1.0		2477	trustworthiness	126	1.0	2		316.64656976266815	20.694161671947768
80.0	299.1339189551418	fix	2.0		60	trustworthiness	126	1.0	2	1.1600000000000001	337.3407314346159	0.5167497174616074
81.0	299.6506686726034	face	0.0		147	trustworthiness	117	1.0	2		337.8574811520775	1.2334585635499025
81.0	300.8841272361533	rating	1.0		67	trustworthiness	117	1.0	2		339.0909397156274	0.5667299156730223
81.0	301.4508571518263	fix	2.0		60	trustworthiness	117	1.0	2	1.4699999999999998	339.65766963130045	0.5167608861538611
82.0	301.9676180379802	face	0.0		147	trustworthiness	144	1.0	2		340.1744305174543	1.2334609784020358
82.0	303.2010790163822	rating	1.0		67	trustworthiness	144	1.0	2		341.40789149585635	0.5667265952515663
82.0	303.7678056116338	fix	2.0		60	trustworthiness	144	1.0	2	1.5599999999999996	341.9746180911079	0.5167521323146502
83.0	304.2845577439484	face	0.0		147	trustworthiness	070	1.0	2		342.49137022342256	1.233458865405737
83.0	305.51801660935416	rating	1.0		93	trustworthiness	070	1.0	2		343.7248290888283	0.7834284986374769
83.0	306.30144510799164	fix	2.0		60	trustworthiness	070	1.0	2	-2.96	344.5082575874658	0.516750321176005
84.0	306.81819542916764	face	0.0		147	trustworthiness	124	1.0	2		345.0250079086418	1.2334685248142705
84.0	308.0516639539819	rating	1.0		92	trustworthiness	124	1.0	2		346.25847643345605	0.7750836746326968
84.0	308.8267476286146	fix	2.0		60	trustworthiness	124	1.0	2	2.09	347.03356010808875	0.5167566601630824
85.0	309.3435042887777	face	0.0		147	trustworthiness	044	1.0	2		347.55031676825183	1.2334636951100038
85.0	310.5769679838877	rating	1.0		72	trustworthiness	044	1.0	2		348.78378046336184	0.6084054367984209
85.0	311.1853734206861	fix	2.0		60	trustworthiness	044	1.0	2	-1.31	349.39218590016026	0.516754245310949
86.0	311.70212766599707	face	0.0		147	trustworthiness	033	1.0	2		349.9089401454712	1.233458865405737
86.0	312.9355865314028	rating	1.0		69	trustworthiness	033	1.0	2		351.14239901087694	0.5833942077351821
86.0	313.518980739138	fix	2.0		60	trustworthiness	033	1.0	2	-2.8899999999999997	351.7257932186121	0.5167536415965515
87.0	314.03573438073454	face	0.0		147	trustworthiness	024	1.0	2		352.2425468602087	1.2334676192458573
87.0	315.2692019999804	rating	1.0		140	trustworthiness	024	1.0	2		353.47601447945453	1.1751287116276217
87.0	316.444330711608	fix	2.0		60	trustworthiness	024	1.0	2	1.5300000000000002	354.65114319108216	0.5167569620198265
88.0	316.96108767362784	face	0.0		147	trustworthiness	092	1.0	2		355.167900153102	1.2334600728318037
88.0	318.19454774645965	rating	1.0		39	trustworthiness	092	1.0	2		356.4013602259338	0.33337005921202945
88.0	318.5279178056717	fix	2.0		60	trustworthiness	092	1.0	2	0.03000000000000025	356.7347302851458	0.5167530378839729
89.0	319.04467084355565	face	0.0		147	trustworthiness	101	1.0	2		357.2514833230298	1.2334582616931584
89.0	320.2781291052488	rating	1.0		63	trustworthiness	101	1.0	2		358.48494158472295	0.533396501844436
89.0	320.81152560709324	fix	2.0		60	trustworthiness	101	1.0	2	-2.65	359.0183380865674	0.5167524341713943
90.0	321.32827804126464	face	0.0		147	trustworthiness	006	1.0	2		359.5350905207388	1.2334612802578704
90.0	322.5617393215225	rating	1.0		202	trustworthiness	006	1.0	2		360.76855180099665	1.6918754105254266
90.0	324.25361473204794	fix	2.0		60	trustworthiness	006	1.0	2	-1.63	362.4604272115221	0.5167497174616074
91.0	324.77036444950954	face	0.0		147	trustworthiness	012	1.0	2		362.9771769289837	1.23346490253698
91.0	326.0038293520465	rating	1.0		65	trustworthiness	012	1.0	2		364.21064183152066	0.550104864961213
91.0	326.55393421700774	fix	2.0		60	trustworthiness	012	1.0	2	-2.4	364.7607466964819	0.5167113816823985
92.0	327.07064559869013	face	0.0		147	trustworthiness	039	1.0	2		365.2774580781643	1.2334597709750597
92.0	328.3041053696652	rating	1.0		434	trustworthiness	039	1.0	2		366.51091784913933	3.6254358808419056
92.0	331.9295412505071	fix	2.0		60	trustworthiness	039	1.0	2	-2.4299999999999997	370.13635372998124	0.5167524341704848
93.0	332.4462936846776	face	0.0		147	trustworthiness	011	1.0	2		370.6531061641517	1.2334531301321476
93.0	333.67974681480973	rating	1.0		65	trustworthiness	011	1.0	2		371.88655929428387	0.5500719625988495
93.0	334.2298187774086	fix	2.0		60	trustworthiness	011	1.0	2	-1.6400000000000001	372.4366312568827	0.5167521323146502
94.0	334.74657090972323	face	0.0		147	trustworthiness	136	1.0	2		372.95338338919737	1.2334555449833715
94.0	335.9800264547066	rating	1.0		48	trustworthiness	136	1.0	2		374.18683893418074	0.4083789941660143
94.0	336.3884054488726	fix	2.0		60	trustworthiness	136	1.0	2	1.9500000000000002	374.59521792834676	0.5167533397407169
95.0	336.90515878861333	face	0.0		147	trustworthiness	027	1.0	2		375.1119712680875	1.2334655062495585
95.0	338.1386242948629	rating	1.0		287	trustworthiness	027	1.0	2		376.34543677433703	2.400288937078585
95.0	340.5389132319415	fix	2.0		60	trustworthiness	027	1.0	2	0.009999999999999787	378.7457257114156	0.5167500193183514
96.0	341.05566325125983	face	0.0		147	trustworthiness	034	1.0	2		379.26247573073397	1.2334573561238358
96.0	342.28912060738367	rating	1.0		36	trustworthiness	034	1.0	2		380.4959330868578	0.3083971659289091
96.0	342.5975177733126	fix	2.0		60	trustworthiness	034	1.0	2	0.0	380.8043302527867	0.516730700500375
97.0	343.11424847381295	face	0.0		147	trustworthiness	121	1.0	2		381.3210609532871	1.2334567524103477
97.0	344.3477052262233	rating	1.0		228	trustworthiness	121	1.0	2		382.55451770569744	1.908564032223694
97.0	346.256269258447	fix	2.0		60	trustworthiness	121	1.0	2	0.96	384.46308173792113	0.5167521323146502
98.0	346.77302139076164	face	0.0		147	trustworthiness	137	1.0	2		384.9798338702358	1.2334540357005608
98.0	348.0064754264622	rating	1.0		69	trustworthiness	137	1.0	2		386.21328790593634	0.5834005467231691
98.0	348.58987597318537	fix	2.0		60	trustworthiness	137	1.0	2	1.08	386.7966884526595	0.516753641597461
99.0	349.10662961478283	face	0.0		147	trustworthiness	102	1.0	2		387.31344209425697	1.2334670155323693
99.0	350.3400966303152	rating	1.0		134	trustworthiness	102	1.0	2		388.54690910978934	1.125124968606542
99.0	351.46522159892174	fix	2.0		60	trustworthiness	102	1.0	2	2.74	389.6720340783959	0.5167614898673492
100.0	351.9819830887891	face	0.0		147	trustworthiness	064	1.0	2		390.18879556826323	1.2334543375573048
100.0	353.2154374263464	rating	1.0		119	trustworthiness	064	1.0	2		391.42224990582054	1.0001195351896968
100.0	354.2155569615361	fix	2.0		60	trustworthiness	064	1.0	2	3.09	392.42236944101023	0.5167633010059944
101.0	354.7323202625421	face	0.0		147	trustworthiness	043	1.0	2		392.9391327420162	1.233449507853038
101.0	355.9657697703951	rating	1.0		121	trustworthiness	043	1.0	2		394.17258224986927	1.0167925810910674
101.0	356.9825623514862	fix	2.0		61	trustworthiness	043	1.0	2	1.38	395.18937483096033	0.525081863493142
102.0	357.50764421497934	face	0.0		146	trustworthiness	042	1.0	2		395.7144566944535	1.225124908235557
102.0	358.7327691232149	rating	1.0		92	trustworthiness	042	1.0	2		396.93958160268903	0.775101484168772
102.0	359.50787060738367	fix	2.0		60	trustworthiness	042	1.0	2	1.7199999999999998	397.7146830868578	0.5167418691917192
103.0	360.0246124765754	face	0.0		147	trustworthiness	141	1.0	2		398.2314249560495	1.23346852481518
103.0	361.25808100139056	rating	1.0		66	trustworthiness	141	1.0	2		399.4648934808647	0.5583977696423972
103.0	361.81647877103296	fix	2.0		60	trustworthiness	141	1.0	2	1.7599999999999998	400.0232912505071	0.516753641597461
104.0	362.3332324126304	face	0.0		147	trustworthiness	066	1.0	2		400.54004489210456	1.233458563548993
104.0	363.5666909761794	rating	1.0		98	trustworthiness	066	1.0	2		401.77350345565355	0.825097982632542
104.0	364.39178895881196	fix	2.0		60	trustworthiness	066	1.0	2	-0.6699999999999999	402.5986014382861	0.5167527360281383
105.0	364.9085416948401	face	0.0		147	trustworthiness	100	1.0	2		403.11535417431423	1.2334612802578704
105.0	366.14200297509797	rating	1.0		134	trustworthiness	100	1.0	2		404.3488154545721	1.1251267797460969
105.0	367.26712975484406	fix	2.0		60	trustworthiness	100	1.0	2	-2.12	405.4739422343182	0.5167599805845384
106.0	367.7838897354286	face	0.0		147	trustworthiness	009	1.0	2		405.99070221490274	1.2334600728318037
106.0	369.0173498082604	rating	1.0		113	trustworthiness	009	1.0	2		407.22416228773454	0.9501157921686172
106.0	369.967465600429	fix	2.0		60	trustworthiness	009	1.0	2	-1.5899999999999999	408.17427807990316	0.516750924887674
107.0	370.4842165253167	face	0.0		147	trustworthiness	062	1.0	2		408.69102900479083	1.2334504134232702
107.0	371.71766693873997	rating	1.0		199	trustworthiness	062	1.0	2		409.9244794182141	1.6668659926008331
107.0	373.3845329313408	fix	2.0		60	trustworthiness	062	1.0	2	-1.9	411.59134541081494	0.5167494156057728
108.0	373.9012823469466	face	0.0		147	trustworthiness	082	1.0	2		412.1080948264207	1.2334658081063026
108.0	375.1347481550529	rating	1.0		65	trustworthiness	082	1.0	2		413.341560634527	0.5500607939065958
108.0	375.68480894895947	fix	2.0		60	trustworthiness	082	1.0	2	1.4400000000000004	413.8916214284336	0.5167566601621729
109.0	376.20156560912164	face	0.0		147	trustworthiness	172	1.0	2		414.4083780885958	1.2334576579796703
109.0	377.4350232671013	rating	1.0		98	trustworthiness	172	1.0	2		415.64183574657545	0.8251230367250173
109.0	378.26014630382633	fix	2.0		60	trustworthiness	172	1.0	2	-3.17	416.46695878330047	0.5167291912184737
110.0	378.7768754950448	face	0.0		147	trustworthiness	038	1.0	2		416.98368797451894	1.2334655062495585
110.0	380.01034100129436	rating	1.0		178	trustworthiness	038	1.0	2		418.2171534807685	1.4918441381869343
110.0	381.5021851394813	fix	2.0		60	trustworthiness	038	1.0	2	1.38	419.70899761895544	0.5167466988968954
111.0	382.0189318383782	face	0.0		147	trustworthiness	036	1.0	2		420.22574431785233	1.2334673173891133
111.0	383.2523991557673	rating	1.0		85	trustworthiness	036	1.0	2		421.45921163524145	0.7167435595893039
111.0	383.9691427153566	fix	2.0		60	trustworthiness	036	1.0	2	0.0	422.17595519483075	0.5167599805845384
112.0	384.48590269594115	face	0.0		147	trustworthiness	130	1.0	2		422.6927151754153	1.2334968993291113
112.0	385.71939959527026	rating	1.0		64	trustworthiness	130	1.0	2		423.9262120747444	0.541691821378663
112.0	386.2610914166489	fix	2.0		60	trustworthiness	130	1.0	2	0.9299999999999997	424.46790389612306	0.516756962018917
113.0	386.77784837866784	face	0.0		147	trustworthiness	087	1.0	2		424.984660858142	1.2334564505536036
113.0	388.01130482922144	rating	1.0		136	trustworthiness	087	1.0	2		426.2181173086956	1.1417952977990353
113.0	389.1531001270205	fix	2.0		60	trustworthiness	087	1.0	2	1.0999999999999996	427.3599126064946	0.5167545471676931
114.0	389.6698546741882	face	0.0		147	trustworthiness	005	1.0	2		427.8766671536623	1.2334579598355049
114.0	390.9033126340237	rating	1.0		94	trustworthiness	005	1.0	2		429.1101251134978	0.7917703040784545
114.0	391.69508293810213	fix	2.0		60	trustworthiness	005	1.0	2	1.7800000000000002	429.90189541757627	0.5167524341713943
115.0	392.2118353722735	face	0.0		147	trustworthiness	061	1.0	2		430.41864785174766	1.2334534319879822
115.0	393.4452888042615	rating	1.0		132	trustworthiness	061	1.0	2		431.65210128373565	1.1084627895406811
115.0	394.5537515938022	fix	2.0		60	trustworthiness	061	1.0	2	-1.15	432.7605640732763	0.5167527360281383
116.0	395.0705043298303	face	0.0		147	trustworthiness	099	1.0	2		433.27731680930447	1.233462185827193
116.0	396.3039665156575	rating	1.0		105	trustworthiness	099	1.0	2		434.51077899513166	0.8834380976759348
116.0	397.18740461333346	fix	2.0		60	trustworthiness	099	1.0	2	-0.8900000000000001	435.3942170928076	0.5167482081797061
117.0	397.70415282151316	face	0.0		147	trustworthiness	018	1.0	2		435.9109653009873	1.23346490253698
117.0	398.93761772405014	rating	1.0		60	trustworthiness	018	1.0	2		437.1444302035243	0.5083955359032188
117.0	399.44601325995336	fix	2.0		60	trustworthiness	018	1.0	2	1.2800000000000002	437.6528257394275	0.5167554527370157
118.0	399.9627687126904	face	0.0		147	trustworthiness	091	1.0	2		438.1695811921645	1.2334609784011263
118.0	401.1962296910915	rating	1.0		67	trustworthiness	091	1.0	2		439.40304217056564	0.5667456122137082
118.0	401.7629753033052	fix	2.0		60	trustworthiness	091	1.0	2	1.5300000000000002	439.96978778277935	0.5167382469135191
119.0	402.27971355021873	face	0.0		147	trustworthiness	030	1.0	2		440.48652602969287	1.2334612802587799
119.0	403.5131748304775	rating	1.0		202	trustworthiness	030	1.0	2		441.71998730995165	1.6918687696806956
119.0	405.2050436001582	fix	2.0		60	trustworthiness	030	1.0	2	-0.9300000000000002	443.41185607963234	0.5000615787339484
120.0	405.70510517889215	cue	0.0		3600						443.9119176583663	30.003615939474003
120.0	435.70872111836616	fix	1.0		120						473.9155335978403	1.0001228556111528
120.0	436.7088439739773	cue	0.0		480						474.91565645345145	4.000478744469547
120.0	440.70932271844686	fix	1.0		120						478.916135197921	1.0168112961964653
120.0	441.7261340146433	face	0.0		147	trustworthiness	006	2.0	2		479.93294649411746	1.233464600680236
120.0	442.95959861532356	rating	1.0		328	trustworthiness	006	2.0	2		481.1664110947977	2.7420448727853
120.0	445.70164348810886	fix	2.0		60	trustworthiness	006	2.0	2	-0.6000000000000001	483.908455967583	0.5167020241296996
121.0	446.21834551223856	face	0.0		147	trustworthiness	042	2.0	2		484.4251579917127	1.2334600728318037
121.0	447.45180558507036	rating	1.0		51	trustworthiness	042	2.0	2		485.6586180645445	0.43338509166733274
121.0	447.8851906767377	fix	2.0		60	trustworthiness	042	2.0	2	1.4900000000000002	486.09200315621183	0.5167460951843168
122.0	448.401936771922	face	0.0		147	trustworthiness	039	2.0	2		486.60874925139615	1.2334649025360704
122.0	449.6354016744581	rating	1.0		114	trustworthiness	039	2.0	2		487.8422141539322	0.9584406936428422
122.0	450.5938423681009	fix	2.0		60	trustworthiness	039	2.0	2	1.7699999999999996	488.80065484757506	0.5167551508793622
123.0	451.1105975189803	face	0.0		147	trustworthiness	102	2.0	2		489.3174099984544	1.2335023327477757
123.0	452.34409985172806	rating	1.0		81	trustworthiness	102	2.0	2		490.5509123312022	0.6833709044103671
123.0	453.0274707561384	fix	2.0		60	trustworthiness	102	2.0	2	2.8600000000000003	491.23428323561257	0.5168034479256676
124.0	453.5442742040641	face	0.0		147	trustworthiness	136	2.0	2		491.75108668353823	1.2334147943511198
124.0	454.7776889984152	rating	1.0		74	trustworthiness	136	2.0	2		492.98450147788935	0.6250670121517032
124.0	455.4027560105669	fix	2.0		60	trustworthiness	136	2.0	2	1.6600000000000001	493.60956849004106	0.5167581694458931
125.0	455.9195141800128	face	0.0		147	trustworthiness	137	2.0	2		494.12632665948695	1.2334522245619155
125.0	457.1529664045747	rating	1.0		193	trustworthiness	137	2.0	2		495.35977888404886	1.616868286710087
125.0	458.7698346912848	fix	2.0		60	trustworthiness	137	2.0	2	0.0	496.97664717075895	0.5167518304579062
126.0	459.2865865217427	face	0.0		147	trustworthiness	064	2.0	2		497.49339900121686	1.233455243127537
126.0	460.52004176487026	rating	1.0		57	trustworthiness	064	2.0	2		498.7268542443444	0.48339698481595406
126.0	461.0034387496862	fix	2.0		60	trustworthiness	064	2.0	2	0.8300000000000001	499.21025122916035	0.5167448877573406
127.0	461.52018363744355	face	0.0		147	trustworthiness	009	2.0	2		499.7269961169177	1.2334652043928145
127.0	462.75364884183637	rating	1.0		164	trustworthiness	009	2.0	2		500.9604613213105	1.3751645118136366
127.0	464.12881335365	fix	2.0		60	trustworthiness	009	2.0	2	1.37	502.33562583312414	0.5167548490235276
128.0	464.64556820267353	face	0.0		147	trustworthiness	082	2.0	2		502.85238068214767	1.2334531301312381
128.0	465.87902133280477	rating	1.0		62	trustworthiness	082	2.0	2		504.0858338122789	0.5250661669533656
128.0	466.40408749975813	fix	2.0		61	trustworthiness	082	2.0	2	1.8499999999999996	504.6108999792323	0.5250797504977527
129.0	466.9291672502559	face	0.0		146	trustworthiness	117	2.0	2		505.13597972973	1.2251276249444345
129.0	468.1542948752003	rating	1.0		56	trustworthiness	117	2.0	2		506.36110735467446	0.4750542738056538
129.0	468.629349149006	fix	2.0		60	trustworthiness	117	2.0	2	1.5099999999999998	506.8361616284801	0.5167596787277944
130.0	469.14610882773377	face	0.0		147	trustworthiness	070	2.0	2		507.3529213072079	1.2335020308910316
130.0	470.3796108586248	rating	1.0		84	trustworthiness	070	2.0	2		508.58642333809894	0.7083742852037176
130.0	471.0879851438285	fix	2.0		60	trustworthiness	070	2.0	2	-3.37	509.29479762330266	0.5167460951834073
131.0	471.6047312390119	face	0.0		147	trustworthiness	092	2.0	2		509.81154371848606	1.2334612802578704
131.0	472.8381925192698	rating	1.0		363	trustworthiness	092	2.0	2		511.04500499874393	3.0337451461473393
131.0	475.87193766541714	fix	2.0		60	trustworthiness	092	2.0	2	-0.04999999999999982	514.0787501448913	0.5167047408376675
132.0	476.3886424062548	face	0.0		147	trustworthiness	100	2.0	2		514.5954548857289	1.2334661099630466
132.0	477.62210851621785	rating	1.0		66	trustworthiness	100	2.0	2		515.828920995692	0.5583998826377865
132.0	478.18050839885564	fix	2.0		60	trustworthiness	100	2.0	2	-1.2799999999999998	516.3873208783298	0.5167497174625169
133.0	478.69725811631815	face	0.0		147	trustworthiness	044	2.0	2		516.9040705957923	1.2334567524103477
133.0	479.9307148687285	rating	1.0		62	trustworthiness	044	2.0	2		518.1375273482026	0.5250601298221227
133.0	480.4557749985506	fix	2.0		60	trustworthiness	044	2.0	2	-1.5299999999999998	518.6625874780248	0.5167599805845384
134.0	480.97253497913516	face	0.0		147	trustworthiness	066	2.0	2		519.1793474586093	1.233459167262481
134.0	482.20599414639764	rating	1.0		79	trustworthiness	066	2.0	2		520.4128066258718	0.6667383072854136
134.0	482.87273245368306	fix	2.0		60	trustworthiness	066	2.0	2	-1.2400000000000002	521.0795449331572	0.5167539434532955
135.0	483.38948639713635	face	0.0		147	trustworthiness	038	2.0	2		521.5962988766105	1.2334661099630466
135.0	484.6229525070994	rating	1.0		102	trustworthiness	038	2.0	2		522.8297649865735	0.8584286797522509
135.0	485.48138118685165	fix	2.0		60	trustworthiness	038	2.0	2	1.3499999999999996	523.6881936663258	0.5167581694449837
136.0	485.99813935629663	face	0.0		147	trustworthiness	034	2.0	2		524.2049518357708	1.233462487683937
136.0	487.23160184398057	rating	1.0		190	trustworthiness	034	2.0	2		525.4384143234547	1.5918540390821363
136.0	488.8234558830627	fix	2.0		60	trustworthiness	034	2.0	2	0.019999999999999574	527.0302683625368	0.5167548490235276
137.0	489.34021073208623	face	0.0		147	trustworthiness	144	2.0	2		527.5470232115604	1.2334597709750597
137.0	490.5736705030613	rating	1.0		244	trustworthiness	144	2.0	2		528.7804829825354	2.0419034228125383
137.0	492.61557392587383	fix	2.0		60	trustworthiness	144	2.0	2	1.6399999999999997	530.822386405348	0.5167533397407169
138.0	493.13232726561455	face	0.0		147	trustworthiness	005	2.0	2		531.3391397450887	1.2334600728318037
138.0	494.36578733844635	rating	1.0		243	trustworthiness	005	2.0	2		532.5725998179205	2.0335752009150383
138.0	496.3993625393614	fix	2.0		60	trustworthiness	005	2.0	2	2.0700000000000003	534.6061750188355	0.5167608861547706
139.0	496.91612342551616	face	0.0		147	trustworthiness	091	2.0	2		535.1229359049903	1.2334570542661822
139.0	498.14958047978234	rating	1.0		337	trustworthiness	091	2.0	2		536.3563929592565	2.817007925545113
139.0	500.96658840532746	fix	2.0		61	trustworthiness	091	2.0	2	0.96	539.1734008848016	0.5250848820587635
140.0	501.4916732873862	face	0.0		146	trustworthiness	101	2.0	2		539.6984857668604	1.2251276249444345
140.0	502.71680091233065	rating	1.0		84	trustworthiness	101	2.0	2		540.9236133918048	0.7084074894228252
140.0	503.4252084017535	fix	2.0		60	trustworthiness	101	2.0	2	-3.23	541.6320208812276	0.516757565732405
141.0	503.9419659674859	face	0.0		147	trustworthiness	172	2.0	2		542.14877844696	1.2334624876848466
141.0	505.17542845517073	rating	1.0		66	trustworthiness	172	2.0	2		543.3822409346449	0.5583914306544102
141.0	505.73381988582514	fix	2.0		60	trustworthiness	172	2.0	2	-3.24	543.9406323652993	0.516753641597461
142.0	506.2505735274226	face	0.0		147	trustworthiness	036	2.0	2		544.4573860068967	1.2334615821146144
142.0	507.4840351095372	rating	1.0		257	trustworthiness	036	2.0	2		545.6908475890114	2.1502611662772324
142.0	509.63429627581445	fix	2.0		60	trustworthiness	036	2.0	2	0.009999999999999787	547.8411087552886	0.5167554527361062
143.0	510.15105172855056	face	0.0		147	trustworthiness	062	2.0	2		548.3578642080247	1.2334528282754036
143.0	511.38450455682596	rating	1.0		209	trustworthiness	062	2.0	2		549.5913170363001	1.7502094884375765
143.0	513.1347140452635	fix	2.0		60	trustworthiness	062	2.0	2	0.0	551.3415265247377	0.5167512267453276
144.0	513.6514652720089	face	0.0		147	trustworthiness	043	2.0	2		551.858277751483	1.2334600728318037
144.0	514.8849253448407	rating	1.0		321	trustworthiness	043	2.0	2		553.0917378243148	2.683655856983023
144.0	517.5685812018237	fix	2.0		60	trustworthiness	043	2.0	2	1.1399999999999997	555.7753936812978	0.5167617917231837
145.0	518.0853429935469	face	0.0		147	trustworthiness	141	2.0	2		556.292155473021	1.233455846841025
145.0	519.3187988403879	rating	1.0		367	trustworthiness	141	2.0	2		557.525611319862	3.067034488920399
145.0	522.3858333293083	fix	2.0		60	trustworthiness	141	2.0	2	-1.44	560.5926458087824	0.5168067683480331
146.0	522.9026400976563	face	0.0		147	trustworthiness	126	2.0	2		561.1094525771305	1.2334066442244875
146.0	524.1360467418808	rating	1.0		57	trustworthiness	126	2.0	2		562.342859221355	0.48338913654515636
146.0	524.619435878426	fix	2.0		60	trustworthiness	126	2.0	2	-1.44	562.8262483579001	0.5167551508802717
147.0	525.1361910293062	face	0.0		147	trustworthiness	011	2.0	2		563.3430035087804	1.233458865405737
147.0	526.369649894712	rating	1.0		87	trustworthiness	011	2.0	2		564.5764623741861	0.7334187184860639
147.0	527.103068613198	fix	2.0		60	trustworthiness	011	2.0	2	-0.8999999999999999	565.3098810926722	0.5167527360281383
148.0	527.6198213492262	face	0.0		147	trustworthiness	121	2.0	2		565.8266338287003	1.2334606765443823
148.0	528.8532820257706	rating	1.0		69	trustworthiness	121	2.0	2		567.0600945052447	0.583400244866425
148.0	529.436682270637	fix	2.0		60	trustworthiness	121	2.0	2	0.0	567.6434947501111	0.5167940903738781
149.0	529.9534763610109	face	0.0		147	trustworthiness	033	2.0	2		568.160288840485	1.2334208314814532
149.0	531.1868971924923	rating	1.0		132	trustworthiness	033	2.0	2		569.3937096719665	1.1084630913974252
149.0	532.2953602838897	fix	2.0		60	trustworthiness	033	2.0	2	-3.34	570.5021727633639	0.5167563583063384
150.0	532.8121166421961	face	0.0		147	trustworthiness	018	2.0	2		571.0189291216702	1.2334519227051715
150.0	534.0455685649013	rating	1.0		227	trustworthiness	018	2.0	2		572.2523810443754	1.900236112184757
150.0	535.945804677086	fix	2.0		60	trustworthiness	018	2.0	2	1.5999999999999996	574.1526171565602	0.51674700075273
151.0	536.4625516778387	face	0.0		147	trustworthiness	030	2.0	2		574.6693641573129	1.2334579598364144
151.0	537.6960096376752	rating	1.0		76	trustworthiness	030	2.0	2		575.9028221171493	0.6417473026103835
151.0	538.3377569402855	fix	2.0		60	trustworthiness	030	2.0	2	-0.6699999999999999	576.5445694197597	0.5167527360272288
152.0	538.8545096763128	face	0.0		147	trustworthiness	130	2.0	2		577.0613221557869	1.233459469119225
152.0	540.087969145432	rating	1.0		53	trustworthiness	130	2.0	2		578.2947816249061	0.45005270415094856
152.0	540.538021849583	fix	2.0		60	trustworthiness	130	2.0	2	1.4000000000000004	578.7448343290571	0.5167521323146502
153.0	541.0547739818976	face	0.0		147	trustworthiness	012	2.0	2		579.2615864613717	1.233459167262481
153.0	542.2882331491601	rating	1.0		54	trustworthiness	012	2.0	2		580.4950456286342	0.4583881706048487
153.0	542.7466213197649	fix	2.0		60	trustworthiness	012	2.0	2	-1.42	580.9534337992391	0.5167862421030804
154.0	543.263407561868	face	0.0		147	trustworthiness	124	2.0	2		581.4702200413421	1.233419322199552
154.0	544.4968268840676	rating	1.0		119	trustworthiness	124	2.0	2		582.7036393635417	1.000118025906886
154.0	545.4969449099744	fix	2.0		60	trustworthiness	124	2.0	2	2.4699999999999998	583.7037573894486	0.5167533397407169
155.0	546.0136982497152	face	0.0		147	trustworthiness	087	2.0	2		584.2205107291893	1.2334600728318037
155.0	547.247158322547	rating	1.0		93	trustworthiness	087	2.0	2		585.4539708020211	0.7834257819285995
155.0	548.0305841044756	fix	2.0		60	trustworthiness	087	2.0	2	0.9800000000000004	586.2373965839497	0.5167557545937598
156.0	548.5473398590693	face	0.0		147	trustworthiness	099	2.0	2		586.7541523385435	1.2334564505526942
156.0	549.780796309622	rating	1.0		62	trustworthiness	099	2.0	2		587.9876087890962	0.5250616391058429
156.0	550.3058579487279	fix	2.0		60	trustworthiness	099	2.0	2	0.0	588.512670428202	0.5167512267444181
157.0	550.8226091754723	face	0.0		147	trustworthiness	027	2.0	2		589.0294216549464	1.2334624876848466
157.0	552.0560716631571	rating	1.0		87	trustworthiness	027	2.0	2		590.2628841426313	0.7334187184860639
157.0	552.7894903816432	fix	2.0		60	trustworthiness	027	2.0	2	0.9000000000000004	590.9963028611173	0.516760584297117
158.0	553.3062509659403	face	0.0		147	trustworthiness	024	2.0	2		591.5130634454144	1.2334615821146144
158.0	554.5397125480549	rating	1.0		127	trustworthiness	024	2.0	2		592.7465250275291	1.0667908906943921
158.0	555.6065034387493	fix	2.0		60	trustworthiness	024	2.0	2	1.1799999999999997	593.8133159182235	0.5167479063229621
159.0	556.1232513450723	face	0.0		147	trustworthiness	061	2.0	2		594.3300638245464	1.2334579598364144
159.0	557.3567093049087	rating	1.0		82	trustworthiness	061	2.0	2		595.5635217843828	0.6917462159262868
159.0	558.048455520835	fix	2.0		60	trustworthiness	061	2.0	2	-1.2400000000000002	596.2552680003091	0.5000709362866473
160.0	558.5485264571216	cue	0.0		480						596.7553389365958	4.000481461178424
160.0	562.5490079183	fix	1.0		120						600.7558203977742	1.016803749783321
160.0	563.5658116680834	face	0.0		147	attractiveness	042	2.0	2		601.7726241475575	1.2334854287801136
160.0	564.7992970968635	rating	1.0		101	attractiveness	042	2.0	2		603.0061095763376	0.8500748000515159
160.0	565.649371896915	fix	2.0		60	attractiveness	042	2.0	2	1.9800000000000004	603.8561843763891	0.5167545471667836
161.0	566.1661264440818	face	0.0		147	attractiveness	172	2.0	2		604.3729389235559	1.2334661099630466
161.0	567.3995925540448	rating	1.0		84	attractiveness	172	2.0	2		605.606405033519	0.7084183562583348
161.0	568.1080109103032	fix	2.0		60	attractiveness	172	2.0	2	-3.31	606.3148233897773	0.5167506230318395
162.0	568.624761533335	face	0.0		147	attractiveness	006	2.0	2		606.8315740128091	1.2334564505526942
162.0	569.8582179838877	rating	1.0		61	attractiveness	006	2.0	2		608.0650304633618	0.5167319079264416
162.0	570.3749498918141	fix	2.0		60	attractiveness	006	2.0	2	-1.94	608.5817623712883	0.5167545471667836
163.0	570.8917044389809	face	0.0		147	attractiveness	043	2.0	2		609.0985169184551	1.2334528282754036
163.0	572.1251572672563	rating	1.0		42	attractiveness	043	2.0	2		610.3319697467305	0.3583788734231348
163.0	572.4835361406795	fix	2.0		60	attractiveness	043	2.0	2	-0.8199999999999998	610.6903486201536	0.5167521323146502
164.0	573.0002882729941	face	0.0		147	attractiveness	121	2.0	2		611.2071007524682	1.2334540357005608
164.0	574.2337423086947	rating	1.0		60	attractiveness	121	2.0	2		612.4405547881688	0.5084003656083951
164.0	574.7421426743031	fix	2.0		60	attractiveness	121	2.0	2	-1.67	612.9489551537772	0.5167454914717382
165.0	575.2588881657748	face	0.0		147	attractiveness	101	2.0	2		613.465700645249	1.2334603746876383
165.0	576.4923485404624	rating	1.0		109	attractiveness	101	2.0	2		614.6991610199366	0.9167826801967749
165.0	577.4091312206592	fix	2.0		60	attractiveness	101	2.0	2	1.71	615.6159437001334	0.516750924887674
166.0	577.9258821455469	face	0.0		147	attractiveness	027	2.0	2		616.132694625021	1.2334615821146144
166.0	579.1593437276615	rating	1.0		87	attractiveness	027	2.0	2		617.3661562071356	0.7334184166302293
166.0	579.8927621442917	fix	2.0		60	attractiveness	027	2.0	2	0.8799999999999999	618.0995746237659	0.5167524341704848
167.0	580.4095145784622	face	0.0		147	attractiveness	062	2.0	2		618.6163270579364	1.2334615821146144
167.0	581.6429761605768	rating	1.0		74	attractiveness	062	2.0	2		619.849788640051	0.6250676158651913
167.0	582.268043776442	fix	2.0		60	attractiveness	062	2.0	2	-0.9199999999999999	620.4748562559162	0.5167587731593812
168.0	582.7848025496014	face	0.0		147	attractiveness	091	2.0	2		620.9916150290755	1.2334588654048275
168.0	584.0182614150062	rating	1.0		153	attractiveness	091	2.0	2		622.2250738944804	1.2834870588067133
168.0	585.301748473813	fix	2.0		60	attractiveness	091	2.0	2	0.0	623.5085609532871	0.5167560564495943
169.0	585.8185045302625	face	0.0		147	attractiveness	036	2.0	2		624.0253170097367	1.2334564505526942
169.0	587.0519609808152	rating	1.0		107	attractiveness	036	2.0	2		625.2587734602894	0.9000999748859613
169.0	587.9520609557012	fix	2.0		60	attractiveness	036	2.0	2	-1.7799999999999998	626.1588734351753	0.516750321176005
170.0	588.4688112768772	face	0.0		147	attractiveness	099	2.0	2		626.6756237563513	1.2334670155323693
170.0	589.7022782924096	rating	1.0		159	attractiveness	099	2.0	2		627.9090907718837	1.3334892925449822
170.0	591.0357675849546	fix	2.0		60	attractiveness	099	2.0	2	-1.5699999999999998	629.2425800644287	0.5167545471667836
171.0	591.5525221321213	face	0.0		147	attractiveness	012	2.0	2		629.7593346115955	1.2334636951109132
171.0	592.7859858272323	rating	1.0		241	attractiveness	012	2.0	2		630.9927983067064	2.0169060791486118
171.0	594.8028919063809	fix	2.0		60	attractiveness	012	2.0	2	-1.6099999999999999	633.009704385855	0.5167545471667836
172.0	595.3196464535476	face	0.0		147	attractiveness	144	2.0	2		633.5264589330218	1.233478486081367
172.0	596.553124939629	rating	1.0		178	attractiveness	144	2.0	2		634.7599374191032	1.4918175748116482
172.0	598.0449425144407	fix	2.0		60	attractiveness	144	2.0	2	-0.009999999999999787	636.2517549939148	0.5167527360281383
173.0	598.5616952504688	face	0.0		147	attractiveness	130	2.0	2		636.7685077299429	1.2334676192440384
173.0	599.7951628697128	rating	1.0		165	attractiveness	130	2.0	2		638.001975349187	1.3834963559893367
173.0	601.1786592257022	fix	2.0		60	attractiveness	130	2.0	2	-2.5300000000000002	639.3854717051763	0.5167430766177858
174.0	601.69540230232	face	0.0		147	attractiveness	136	2.0	2		639.9022147817941	1.233472448950124
174.0	602.9288747512701	rating	1.0		145	attractiveness	136	2.0	2		641.1356872307442	1.216809968027519
174.0	604.1456847192976	fix	2.0		60	attractiveness	136	2.0	2	-1.85	642.3524971987717	0.5167466988968954
175.0	604.6624314181945	face	0.0		147	attractiveness	137	2.0	2		642.8692438976686	1.2334573561220168
175.0	605.8958887743165	rating	1.0		271	attractiveness	137	2.0	2		644.1027012537907	2.2669456223557063
175.0	608.1628343966722	fix	2.0		60	attractiveness	137	2.0	2	0.9100000000000001	646.3696468761464	0.5167551508802717
176.0	608.6795895475525	face	0.0		147	attractiveness	082	2.0	2		646.8864020270266	1.233504445743165
176.0	609.9130939932957	rating	1.0		73	attractiveness	082	2.0	2		648.1199064727698	0.6166938136320823
176.0	610.5297878069277	fix	2.0		60	attractiveness	082	2.0	2	1.62	648.7366002864019	0.5167506230318395
177.0	611.0465384299596	face	0.0		147	attractiveness	009	2.0	2		649.2533509094337	1.2334621858281025
177.0	612.2800006157877	rating	1.0		50	attractiveness	009	2.0	2		650.4868130952618	0.4250466066496301
177.0	612.7050472224373	fix	2.0		60	attractiveness	009	2.0	2	0.8399999999999999	650.9118597019115	0.5167584713017277
178.0	613.221805693739	face	0.0		147	attractiveness	038	2.0	2		651.4286181732132	1.2334479985693179
178.0	614.4552536923084	rating	1.0		66	attractiveness	038	2.0	2		652.6620661717825	0.558399882638696
178.0	615.013653574947	fix	2.0		60	attractiveness	038	2.0	2	-2.84	653.2204660544212	0.516760282440373
179.0	615.5304138573874	face	0.0		147	attractiveness	092	2.0	2		653.7372263368616	1.2334603746894572
179.0	616.7638742320769	rating	1.0		72	attractiveness	092	2.0	2		654.970686711551	0.6084021163769648
179.0	617.3722763484539	fix	2.0		60	attractiveness	092	2.0	2	-2.69	655.579088827928	0.5167554527361062
180.0	617.88903180119	face	0.0		147	attractiveness	141	2.0	2		656.0958442806641	1.2334543375582143
180.0	619.1224861387482	rating	1.0		44	attractiveness	141	2.0	2		657.3292986182223	0.37503954320527555
180.0	619.4975256819534	fix	2.0		60	attractiveness	141	2.0	2	-1.71	657.7043381614276	0.5167533397416264
181.0	620.0142790216951	face	0.0		147	attractiveness	087	2.0	2		658.2210915011692	1.233461280256961
181.0	621.247740301952	rating	1.0		80	attractiveness	087	2.0	2		659.4545527814262	0.6750801127254817
181.0	621.9228204146775	fix	2.0		60	attractiveness	087	2.0	2	0.9299999999999997	660.1296328941517	0.5167590750152158
182.0	622.4395794896927	face	0.0		147	attractiveness	030	2.0	2		660.6463919691669	1.2334513189925929
182.0	623.6730308086853	rating	1.0		94	attractiveness	030	2.0	2		661.8798432881595	0.7917687947956438
182.0	624.464799603481	fix	2.0		60	attractiveness	030	2.0	2	1.5499999999999998	662.6716120829551	0.5167527360281383
183.0	624.9815523395091	face	0.0		147	attractiveness	102	2.0	2		663.1883648189832	1.233459167262481
183.0	626.2150115067716	rating	1.0		50	attractiveness	102	2.0	2		664.4218239862457	0.4250484177882754
183.0	626.6400599245599	fix	2.0		60	attractiveness	102	2.0	2	-1.46	664.846872404034	0.5168040516382462
184.0	627.1568639761981	face	0.0		147	attractiveness	100	2.0	2		665.3636764556722	1.233409964646853
184.0	628.390273940845	rating	1.0		75	attractiveness	100	2.0	2		666.5970864203191	0.6334070064531261
184.0	629.0236809472981	fix	2.0		60	attractiveness	100	2.0	2	1.3499999999999996	667.2304934267722	0.5167518304588157
185.0	629.5404327777569	face	0.0		147	attractiveness	018	2.0	2		667.747245257231	1.2334546394140489
185.0	630.773887417171	rating	1.0		57	attractiveness	018	2.0	2		668.9806998966451	0.4833882309758337
185.0	631.2572756481468	fix	2.0		60	attractiveness	018	2.0	2	1.2999999999999998	669.4640881276209	0.5167608861538611
186.0	631.7740365343006	face	0.0		147	attractiveness	066	2.0	2		669.9808490137748	1.2334953900463006
186.0	633.007531924347	rating	1.0		82	attractiveness	066	2.0	2		671.2143444038211	0.6917115024243685
186.0	633.6992434267713	fix	2.0		60	attractiveness	066	2.0	2	0.9900000000000002	671.9060559062455	0.5167533397416264
187.0	634.215996766513	face	0.0		147	attractiveness	024	2.0	2		672.4228092459871	1.2334594691183156
187.0	635.4494562356313	rating	1.0		320	attractiveness	024	2.0	2		673.6562687151054	2.6753203905300325
187.0	638.1247766261613	fix	2.0		61	attractiveness	024	2.0	2	-1.19	676.3315891056354	0.5250839764885313
188.0	638.6498606026498	face	0.0		146	attractiveness	011	2.0	2		676.856673082124	1.2251237008094904
188.0	639.8749843034593	rating	1.0		104	attractiveness	011	2.0	2		678.0817967829335	0.8751026312238537
188.0	640.7500869346832	fix	2.0		60	attractiveness	011	2.0	2	-1.88	678.9568994141573	0.5167518304569967
189.0	641.2668387651402	face	0.0		147	attractiveness	124	2.0	2		679.4736512446143	1.233467921103511
189.0	642.5003066862437	rating	1.0		106	attractiveness	124	2.0	2		680.7071191657178	0.8917663195716159
189.0	643.3920730058153	fix	2.0		60	attractiveness	124	2.0	2	3.4800000000000004	681.5988854852894	0.5167563583054289
190.0	643.9088293641207	face	0.0		147	attractiveness	064	2.0	2		682.1156418435949	1.2334742600887694
190.0	645.1423036242095	rating	1.0		148	attractiveness	064	2.0	2		683.3491161036836	1.2417949355731253
190.0	646.3840985597826	fix	2.0		60	attractiveness	064	2.0	2	-1.25	684.5909110392568	0.5167563583054289
191.0	646.900854918088	face	0.0		147	attractiveness	070	2.0	2		685.1076673975622	1.2334781842237135
191.0	648.1343331023118	rating	1.0		75	attractiveness	070	2.0	2		686.3411455817859	0.6333852727821068
191.0	648.7677183750939	fix	2.0		60	attractiveness	070	2.0	2	-3.46	686.974530854568	0.5167629991501599
192.0	649.284481374244	face	0.0		147	attractiveness	126	2.0	2		687.4912938537182	1.2334510171349393
192.0	650.517932391379	rating	1.0		74	attractiveness	126	2.0	2		688.7247448708531	0.6250733511387807
192.0	651.1430057425177	fix	2.0		60	attractiveness	126	2.0	2	1.9400000000000004	689.3498182219919	0.5167533397416264
193.0	651.6597590822594	face	0.0		147	attractiveness	005	2.0	2		689.8665715617335	1.233467921101692
193.0	652.8932270033611	rating	1.0		163	attractiveness	005	2.0	2		691.1000394828352	1.3668272342220007
193.0	654.2600542375831	fix	2.0		60	attractiveness	005	2.0	2	-3.04	692.4668667170572	0.5167524341704848
194.0	654.7768066717535	face	0.0		147	attractiveness	044	2.0	2		692.9836191512277	1.2334531301312381
194.0	656.0102598018848	rating	1.0		134	attractiveness	044	2.0	2		694.2170722813589	1.1251352317303827
194.0	657.1353950336152	fix	2.0		60	attractiveness	044	2.0	2	0.03000000000000025	695.3422075130893	0.5167488118913752
195.0	657.6521438455065	face	0.0		147	attractiveness	039	2.0	2		695.8589563249807	1.2335128977265413
195.0	658.8856567432331	rating	1.0		98	attractiveness	039	2.0	2		697.0924692227072	0.8250527041509486
195.0	659.710709447384	fix	2.0		60	attractiveness	039	2.0	2	0.5599999999999996	697.9175219268582	0.5167560564495943
196.0	660.2274655038336	face	0.0		147	attractiveness	034	2.0	2		698.4342779833078	1.2334516208502464
196.0	661.4609171246839	rating	1.0		97	attractiveness	034	2.0	2		699.667729604158	0.8167694588792074
196.0	662.2776865835631	fix	2.0		60	attractiveness	034	2.0	2	-1.17	700.4844990630372	0.5167792994034244
197.0	662.7944658829665	face	0.0		147	attractiveness	033	2.0	2		701.0012783624406	1.2334347168816748
197.0	664.0279005998482	rating	1.0		190	attractiveness	033	2.0	2		702.2347130793223	1.5918480019518029
197.0	665.6197486018	fix	2.0		60	attractiveness	033	2.0	2	2.2800000000000002	703.8265610812741	0.516760282442192
198.0	666.1365088842422	face	0.0		147	attractiveness	061	2.0	2		704.3433213637163	1.2334555449833715
198.0	667.3699644292255	rating	1.0		200	attractiveness	061	2.0	2		705.5767769086997	1.6752044776185357
198.0	669.0451689068441	fix	2.0		60	attractiveness	061	2.0	2	-1.83	707.2519813863182	0.5167521323146502
199.0	669.5619210391587	face	0.0		147	attractiveness	117	2.0	2		707.7687335186329	1.2334609784011263
199.0	670.7953820175599	rating	1.0		124	attractiveness	117	2.0	2		709.002194497034	1.0417802653446415
199.0	671.8371622829045	fix	2.0		60	attractiveness	117	2.0	2	-1.38	710.0439747623786	0.5000700307173247
200.0	672.3372323136218	cue	0.0		480						710.544044793096	4.000474820333693
200.0	676.3377071339555	fix	1.0		120						714.5445196134297	1.016820050037495
200.0	677.354527183993	face	0.0		147	dominance	030	2.0	2		715.5613396634672	1.2334576579778513
200.0	678.5879848419709	rating	1.0		103	dominance	030	2.0	2		716.794797321445	0.8667641462052416
200.0	679.4547489881761	fix	2.0		60	dominance	030	2.0	2	1.2000000000000002	717.6615614676502	0.5167494156066823
201.0	679.9714984037828	face	0.0		147	dominance	005	2.0	2		718.1783108832569	1.233462487683937
201.0	681.2049608914667	rating	1.0		71	dominance	005	2.0	2		719.4117733709409	0.6000781204711529
201.0	681.8050390119379	fix	2.0		60	dominance	005	2.0	2	-2.81	720.011851491412	0.5167497174625169
202.0	682.3217887294004	face	0.0		147	dominance	092	2.0	2		720.5286012088745	1.2334633932550787
202.0	683.5552521226555	rating	1.0		94	dominance	092	2.0	2		721.7620646021296	0.7917594372429448
202.0	684.3470115598984	fix	2.0		60	dominance	092	2.0	2	-2.09	722.5538240393726	0.5167466988968954
203.0	684.8637582587953	face	0.0		147	dominance	043	2.0	2		723.0705707382695	1.233464600678417
203.0	686.0972228594737	rating	1.0		70	dominance	043	2.0	2		724.3040353389479	0.5917311834709835
203.0	686.6889540429447	fix	2.0		60	dominance	043	2.0	2	1.2599999999999998	724.8957665224189	0.5167515286029811
204.0	687.2057055715477	face	0.0		147	dominance	039	2.0	2		725.4125180510218	1.2334606765434728
204.0	688.4391662480912	rating	1.0		259	dominance	039	2.0	2		726.6459787275653	2.1669257601970457
204.0	690.6060920082882	fix	2.0		60	dominance	039	2.0	2	1.5899999999999999	728.8129044877624	0.5167524341704848
205.0	691.1228444424587	face	0.0		147	dominance	064	2.0	2		729.3296569219328	1.2334655062495585
205.0	692.3563099487083	rating	1.0		125	dominance	064	2.0	2		730.5631224281824	1.050127202344811
205.0	693.4064371510531	fix	2.0		60	dominance	064	2.0	2	-1.92	731.6132496305272	0.5167530378839729
206.0	693.923190188937	face	0.0		147	dominance	136	2.0	2		732.1300026684112	1.233459167262481
206.0	695.1566493561995	rating	1.0		131	dominance	136	2.0	2		733.3634618356737	1.1001221915266797
206.0	696.2567715477262	fix	2.0		60	dominance	136	2.0	2	-0.020000000000000018	734.4635840272003	0.5167605842980265
207.0	696.7735321320242	face	0.0		147	dominance	141	2.0	2		734.9803446114984	1.2334543375582143
207.0	698.0069864695824	rating	1.0		153	dominance	141	2.0	2		736.2137989490566	1.2834828328141157
207.0	699.2904693023966	fix	2.0		60	dominance	141	2.0	2	-2.49	737.4972817818707	0.5167611880115146
208.0	699.8072304904081	face	0.0		147	dominance	091	2.0	2		738.0140429698822	1.2334534319870727
208.0	701.0406839223951	rating	1.0		159	dominance	091	2.0	2		739.2474964018693	1.3334977445283585
208.0	702.3741816669235	fix	2.0		60	dominance	091	2.0	2	-1.4	740.5809941463976	0.5167539434551145
209.0	702.8909356103786	face	0.0		147	dominance	082	2.0	2		741.0977480898528	1.2334531301312381
209.0	704.1243887405099	rating	1.0		53	dominance	082	2.0	2		742.331201219984	0.45005330786443665
209.0	704.5744420483743	fix	2.0		60	dominance	082	2.0	2	1.33	742.7812545278484	0.5167521323146502
210.0	705.091194180689	face	0.0		147	dominance	011	2.0	2		743.2980066601631	1.2334600728318037
210.0	706.3246542535207	rating	1.0		63	dominance	011	2.0	2		744.5314667329949	0.5334013315496122
210.0	706.8580555850704	fix	2.0		60	dominance	011	2.0	2	-1.5099999999999998	745.0648680645445	0.5167460951834073
211.0	707.3748016802538	face	0.0		147	dominance	038	2.0	2		745.5816141597279	1.2334670155323693
211.0	708.6082686957861	rating	1.0		50	dominance	038	2.0	2		746.8150811752603	0.4250831312911032
211.0	709.0333518270772	fix	2.0		60	dominance	038	2.0	2	-2.13	747.2401643065514	0.5167198336639558
212.0	709.5500716607412	face	0.0		147	dominance	101	2.0	2		747.7568841402153	1.2334609784029453
212.0	710.7835326391441	rating	1.0		86	dominance	101	2.0	2		748.9903451186183	0.7250778186153184
212.0	711.5086104577595	fix	2.0		60	dominance	101	2.0	2	2.51	749.7154229372336	0.5167485100355407
213.0	712.025358967795	face	0.0		147	dominance	144	2.0	2		750.2321714472691	1.2334621858281025
213.0	713.2588211536231	rating	1.0		101	dominance	144	2.0	2		751.4656336330972	0.850108004269714
213.0	714.1089291578928	fix	2.0		60	dominance	144	2.0	2	-0.6600000000000001	752.315741637367	0.516753641597461
214.0	714.6256827994903	face	0.0		147	dominance	137	2.0	2		752.8324952789644	1.233461280256961
214.0	715.8591440797472	rating	1.0		68	dominance	137	2.0	2		754.0659565592214	0.5750596468533331
214.0	716.4342037266006	fix	2.0		60	dominance	137	2.0	2	1.6500000000000004	754.6410162060747	0.51674700075273
215.0	716.9509507273533	face	0.0		147	dominance	009	2.0	2		755.1577632068274	1.233464600680236
215.0	718.1844153280335	rating	1.0		90	dominance	009	2.0	2		756.3912278075077	0.7584284382664919
215.0	718.9428437663	fix	2.0		60	dominance	009	2.0	2	1.3399999999999999	757.1496562457742	0.516754245310949
216.0	719.459598011611	face	0.0		147	dominance	006	2.0	2		757.6664104910851	1.2334606765434728
216.0	720.6930586881545	rating	1.0		82	dominance	006	2.0	2		758.8998711676286	0.6917413862229296
216.0	721.3848000743774	fix	2.0		60	dominance	006	2.0	2	2.49	759.5916125538515	0.5167521323146502
217.0	721.901552206692	face	0.0		147	dominance	044	2.0	2		760.1083646861662	1.2334908621978684
217.0	723.1350430688899	rating	1.0		47	dominance	044	2.0	2		761.341855548364	0.4000236051815591
217.0	723.5350666740715	fix	2.0		60	dominance	044	2.0	2	1.3899999999999997	761.7418791535456	0.5167515286011621
218.0	724.0518182026726	face	0.0		147	dominance	036	2.0	2		762.2586306821468	1.233451922706081
218.0	725.2852701253787	rating	1.0		48	dominance	036	2.0	2		763.4920826048528	0.40837929602275835
218.0	725.6936494214015	fix	2.0		60	dominance	036	2.0	2	-0.9700000000000002	763.9004619008756	0.5167605842980265
219.0	726.2104100056995	face	0.0		147	dominance	033	2.0	2		764.4172224851736	1.2334528282735846
219.0	727.4438628339731	rating	1.0		84	dominance	033	2.0	2		765.6506753134472	0.7084274119551992
219.0	728.1522902459283	fix	2.0		60	dominance	033	2.0	2	3.0599999999999996	766.3591027254024	0.51674700075273
220.0	728.669037246681	face	0.0		147	dominance	124	2.0	2		766.8758497261551	1.233462487685756
220.0	729.9024997343668	rating	1.0		127	dominance	124	2.0	2		768.1093122138409	1.0667942111158482
220.0	730.9692939454826	fix	2.0		60	dominance	124	2.0	2	1.2699999999999996	769.1761064249567	0.5167451896140847
221.0	731.4860391350967	face	0.0		147	dominance	042	2.0	2		769.6928516145708	1.2334667136747157
221.0	732.7195058487714	rating	1.0		150	dominance	042	2.0	2		770.9263183282455	1.2584773390262853
221.0	733.9779831877977	fix	2.0		60	dominance	042	2.0	2	1.6399999999999997	772.1847956672718	0.516757565732405
222.0	734.4947407535301	face	0.0		147	dominance	062	2.0	2		772.7015532330042	1.2334621858281025
222.0	735.7282029393582	rating	1.0		89	dominance	062	2.0	2		773.9350154188323	0.7500875383957464
222.0	736.478290477754	fix	2.0		60	dominance	062	2.0	2	2.26	774.6851029572281	0.5167524341704848
223.0	736.9950429119244	face	0.0		147	dominance	087	2.0	2		775.2018553913986	1.233462487685756
223.0	738.2285053996102	rating	1.0		82	dominance	087	2.0	2		776.4353178790843	0.6917465177830309
223.0	738.9202519173932	fix	2.0		60	dominance	087	2.0	2	1.1600000000000001	777.1270643968674	0.5167457933257538
224.0	739.436997710719	face	0.0		147	dominance	117	2.0	2		777.6438101901931	1.233458563550812
224.0	740.6704562742698	rating	1.0		79	dominance	117	2.0	2		778.8772687537439	0.6667552112503472
224.0	741.3372114855201	fix	2.0		60	dominance	117	2.0	2	0.5800000000000001	779.5440239649943	0.5167439821889275
225.0	741.853955467709	face	0.0		147	dominance	066	2.0	2		780.0607679471832	1.233461883970449
225.0	743.0874173516795	rating	1.0		337	dominance	066	2.0	2		781.2942298311536	2.8170073218316247
225.0	745.9044246735111	fix	2.0		61	dominance	066	2.0	2	1.92	784.1112371529853	0.5250803542112408
226.0	746.4295050277224	face	0.0		146	dominance	172	2.0	2		784.6363175071965	1.2251333602180239
226.0	747.6546383879404	rating	1.0		135	dominance	172	2.0	2		785.8614508674145	1.133462246199997
226.0	748.7881006341404	fix	2.0		60	dominance	172	2.0	2	3.3099999999999996	786.9949131136145	0.5167599805845384
227.0	749.3048606147249	face	0.0		147	dominance	012	2.0	2		787.5116730941991	1.233461280256961
227.0	750.5383218949819	rating	1.0		67	dominance	012	2.0	2		788.745134374456	0.5667217655482091
227.0	751.1050436605301	fix	2.0		60	dominance	012	2.0	2	1.42	789.3118561400042	0.5167554527361062
228.0	751.6217991132662	face	0.0		147	dominance	027	2.0	2		789.8286115927403	1.2334588654048275
228.0	752.855257978671	rating	1.0		72	dominance	027	2.0	2		791.0620704581452	0.6084051349425863
228.0	753.4636631136136	fix	2.0		60	dominance	027	2.0	2	0.0	791.6704755930878	0.5167527360281383
229.0	753.9804158496418	face	0.0		147	dominance	121	2.0	2		792.1872283291159	1.2334664118188812
229.0	755.2138822614606	rating	1.0		98	dominance	121	2.0	2		793.4206947409348	0.8250985863451206
229.0	756.0389808478058	fix	2.0		60	dominance	121	2.0	2	0.79	794.2457933272799	0.5167466988968954
230.0	756.5557275467027	face	0.0		147	dominance	102	2.0	2		794.7625400261768	1.233475165659911
230.0	757.7892027123626	rating	1.0		61	dominance	102	2.0	2		795.9960151918367	0.5167104761112569
230.0	758.3059131884738	fix	2.0		60	dominance	102	2.0	2	-1.81	796.512725667948	0.5168109943406307
231.0	758.8227241828145	face	0.0		147	dominance	034	2.0	2		797.0295366622886	1.2334006070923351
231.0	760.0561247899068	rating	1.0		36	dominance	034	2.0	2		798.2629372693809	0.3083703006977885
231.0	760.3644950906046	fix	2.0		60	dominance	034	2.0	2	0.0	798.5713075700787	0.5167551508802717
232.0	760.8812502414848	face	0.0		147	dominance	130	2.0	2		799.088062720959	1.2334573561238358
232.0	762.1147075976087	rating	1.0		100	dominance	130	2.0	2		800.3215200770828	0.8417713303897472
232.0	762.9564789279984	fix	2.0		60	dominance	130	2.0	2	-1.79	801.1632914074726	0.5167512267453276
233.0	763.4732301547438	face	0.0		147	dominance	099	2.0	2		801.6800426342179	1.2334615821146144
233.0	764.7066917368584	rating	1.0		71	dominance	099	2.0	2		802.9135042163325	0.6000726870533981
233.0	765.3067644239118	fix	2.0		60	dominance	099	2.0	2	1.25	803.5135769033859	0.5167473026103835
234.0	765.8235117265222	face	0.0		147	dominance	070	2.0	2		804.0303242059963	1.233458563548993
234.0	767.0569702900711	rating	1.0		90	dominance	070	2.0	2		805.2637827695453	0.75845228493381
234.0	767.815422575005	fix	2.0		60	dominance	070	2.0	2	3.1799999999999997	806.0222350544791	0.5167228522295773
235.0	768.3321454272345	face	0.0		147	dominance	024	2.0	2		806.5389579067087	1.2334576579796703
235.0	769.5656030852142	rating	1.0		57	dominance	024	2.0	2		807.7724155646883	0.48339034397213254
235.0	770.0489934291863	fix	2.0		60	dominance	024	2.0	2	1.0300000000000002	808.2558059086605	0.5167530378839729
236.0	770.5657464670703	face	0.0		147	dominance	061	2.0	2		808.7725589465445	1.233459167262481
236.0	771.7992056343328	rating	1.0		137	dominance	061	2.0	2		810.0060181138069	1.1501395180930558
236.0	772.9493451524258	fix	2.0		60	dominance	061	2.0	2	1.5099999999999998	811.1561576319	0.516750924887674
237.0	773.4660960773135	face	0.0		147	dominance	018	2.0	2		811.6729085567877	1.233465204393724
237.0	774.6995612817072	rating	1.0		66	dominance	018	2.0	2		812.9063737611814	0.5583926380804769
237.0	775.2579539197877	fix	2.0		60	dominance	018	2.0	2	1.33	813.4647663992619	0.5167533397416264
238.0	775.7747072595294	face	0.0		147	dominance	100	2.0	2		813.9815197390035	1.233467921101692
238.0	777.008175180631	rating	1.0		64	dominance	100	2.0	2		815.2149876601052	0.5417295534443838
238.0	777.5499047340754	fix	2.0		60	dominance	100	2.0	2	1.9699999999999998	815.7567172135496	0.5167488118931942
239.0	778.0666535459686	face	0.0		147	dominance	126	2.0	2		816.2734660254428	1.2334564505545131
239.0	779.3001099965231	rating	1.0		88	dominance	126	2.0	2		817.5069224759973	0.7417550905083772
239.0	780.0418650870315	fix	2.0		60	dominance	126	2.0	2	-1.0499999999999998	818.2486775665056	0.5000655028688925
