trial_nr	onset	event_type	phase	response	nr_frames	face_age	face_sex	face_eth	attractiveness	expression	face_id	sub_id	ses	run	trial_type	catch	rating_type	onset_abs	duration
-1.0	0.06061614063946763	fix	0.0		713													90.88325384559721	5.957912752648554
-1.0	0.7021712226196541	pulse	0.0	t														91.5248089275774	
-1.0	1.4021265484989271	pulse	0.0	t														92.22476425345667	
-1.0	2.102107229962712	pulse	0.0	t														92.92474493492045	
-1.0	2.8020854966052866	pulse	0.0	t														93.62472320156303	
-1.0	3.5020513873096206	pulse	0.0	t														94.32468909226736	
-1.0	4.202043841007253	pulse	0.0	t														95.024681545965	
-1.0	4.902031766920118	pulse	0.0	t														95.72466947187786	
-1.0	5.602000072442024	pulse	0.0	t														96.42463777739977	
0.0	6.018528893288021	face	0.0		144	24.0	female	east_asian	4.409868682849185	smiling	030	sub-11	2.0	5.0	030_smiling	1.0	attractiveness	96.84116659824576	1.2332924826732778
0.0	6.301994639103214	pulse	0.0	t		24.0	female	east_asian	4.409868682849185	smiling	030	sub-11	2.0	5.0	030_smiling	1.0	attractiveness	97.12463234406096	
0.0	7.001969283523067	pulse	0.0	t		24.0	female	east_asian	4.409868682849185	smiling	030	sub-11	2.0	5.0	030_smiling	1.0	attractiveness	97.82460698848081	
0.0	7.251821375961299	fix	1.0		177	24.0	female	east_asian	4.409868682849185	smiling	030	sub-11	2.0	5.0	030_smiling	1.0	attractiveness	98.07445908091904	1.508323573445523
0.0	7.701939702008531	pulse	1.0	t		24.0	female	east_asian	4.409868682849185	smiling	030	sub-11	2.0	5.0	030_smiling	1.0	attractiveness	98.52457740696627	
0.0	8.401913742723991	pulse	1.0	t		24.0	female	east_asian	4.409868682849185	smiling	030	sub-11	2.0	5.0	030_smiling	1.0	attractiveness	99.22455144768173	
0.0	8.760144949406822	rating	2.0		293	24.0	female	east_asian	4.409868682849185	smiling	030	sub-11	2.0	5.0	030_smiling	1.0	attractiveness	99.58278265436456	2.4915867764611903
0.0	9.101901366786478	pulse	2.0	t		24.0	female	east_asian	4.409868682849185	smiling	030	sub-11	2.0	5.0	030_smiling	1.0	attractiveness	99.92453907174422	
0.0	9.801887179732148	pulse	2.0	t		24.0	female	east_asian	4.409868682849185	smiling	030	sub-11	2.0	5.0	030_smiling	1.0	attractiveness	100.62452488468989	
0.0	10.501869672309113	pulse	2.0	t		24.0	female	east_asian	4.409868682849185	smiling	030	sub-11	2.0	5.0	030_smiling	1.0	attractiveness	101.32450737726685	
0.0	11.01851651734978	response	2.0	b		24.0	female	east_asian	4.409868682849185	smiling	030	sub-11	2.0	5.0	030_smiling	1.0	attractiveness	101.84115422230752	
0.0	11.201835563013447	pulse	2.0	t		24.0	female	east_asian	4.409868682849185	smiling	030	sub-11	2.0	5.0	030_smiling	1.0	attractiveness	102.02447326797119	
0.0	11.251731725868012	fix	3.0		444	24.0	female	east_asian	4.409868682849185	smiling	030	sub-11	2.0	5.0	030_smiling	1.0	attractiveness	102.07436943082575	3.758205247399019
0.0	11.901824092630704	pulse	3.0	t		24.0	female	east_asian	4.409868682849185	smiling	030	sub-11	2.0	5.0	030_smiling	1.0	attractiveness	102.72446179758845	
0.0	12.601784248145123	pulse	3.0	t		24.0	female	east_asian	4.409868682849185	smiling	030	sub-11	2.0	5.0	030_smiling	1.0	attractiveness	103.42442195310286	
0.0	13.301771570353594	pulse	3.0	t		24.0	female	east_asian	4.409868682849185	smiling	030	sub-11	2.0	5.0	030_smiling	1.0	attractiveness	104.12440927531134	
0.0	14.001742290693073	pulse	3.0	t		24.0	female	east_asian	4.409868682849185	smiling	030	sub-11	2.0	5.0	030_smiling	1.0	attractiveness	104.82437999565082	
0.0	14.701737159208278	pulse	3.0	t		24.0	female	east_asian	4.409868682849185	smiling	030	sub-11	2.0	5.0	030_smiling	1.0	attractiveness	105.52437486416602	
1.0	15.009936973267031	face	0.0		146	40.0	male	white	1.868682849184242	smiling	172	sub-11	2.0	5.0	172_smiling	0.0		105.83257467822477	1.2416450339260336
1.0	15.401704559175414	pulse	0.0	t		40.0	male	white	1.868682849184242	smiling	172	sub-11	2.0	5.0	172_smiling	0.0		106.22434226413316	
1.0	16.10169339064305	pulse	0.0	t		40.0	male	white	1.868682849184242	smiling	172	sub-11	2.0	5.0	172_smiling	0.0		106.92433109560079	
1.0	16.251582007193065	fix	1.0		445	40.0	male	white	1.868682849184242	smiling	172	sub-11	2.0	5.0	172_smiling	0.0		107.0742197121508	3.76654119678642
1.0	16.801681014705537	pulse	1.0	t		40.0	male	white	1.868682849184242	smiling	172	sub-11	2.0	5.0	172_smiling	0.0		107.62431871966328	
1.0	17.50164871652305	pulse	1.0	t		40.0	male	white	1.868682849184242	smiling	172	sub-11	2.0	5.0	172_smiling	0.0		108.32428642148079	
1.0	18.201634529472358	pulse	1.0	t		40.0	male	white	1.868682849184242	smiling	172	sub-11	2.0	5.0	172_smiling	0.0		109.0242722344301	
1.0	18.90161038129736	pulse	1.0	t		40.0	male	white	1.868682849184242	smiling	172	sub-11	2.0	5.0	172_smiling	0.0		109.7242480862551	
1.0	19.601594684987504	pulse	1.0	t		40.0	male	white	1.868682849184242	smiling	172	sub-11	2.0	5.0	172_smiling	0.0		110.42423238994525	
2.0	20.018123203979485	face	0.0		145	31.0	male	west_asian	1.9538400318344609	smiling	070	sub-11	2.0	5.0	070_smiling	0.0		110.84076090893723	1.2332936900820641
2.0	20.301566310881753	pulse	0.0	t		31.0	male	west_asian	1.9538400318344609	smiling	070	sub-11	2.0	5.0	070_smiling	0.0		111.1242040158395	
2.0	21.00155846272537	pulse	0.0	t		31.0	male	west_asian	1.9538400318344609	smiling	070	sub-11	2.0	5.0	070_smiling	0.0		111.82419616768311	
2.0	21.25141689406155	fix	1.0		445	31.0	male	west_asian	1.9538400318344609	smiling	070	sub-11	2.0	5.0	070_smiling	0.0		112.07405459901929	3.7665571949473815
2.0	21.701534012699994	pulse	1.0	t		31.0	male	west_asian	1.9538400318344609	smiling	070	sub-11	2.0	5.0	070_smiling	0.0		112.52417171765774	
2.0	22.401508657119848	pulse	1.0	t		31.0	male	west_asian	1.9538400318344609	smiling	070	sub-11	2.0	5.0	070_smiling	0.0		113.22414636207759	
2.0	23.10147998116372	pulse	1.0	t		31.0	male	west_asian	1.9538400318344609	smiling	070	sub-11	2.0	5.0	070_smiling	0.0		113.92411768612146	
2.0	23.80145854966031	pulse	1.0	t		31.0	male	west_asian	1.9538400318344609	smiling	070	sub-11	2.0	5.0	070_smiling	0.0		114.62409625461805	
2.0	24.50143198666774	pulse	1.0	t		31.0	male	west_asian	1.9538400318344609	smiling	070	sub-11	2.0	5.0	070_smiling	0.0		115.32406969162548	
3.0	25.01797408900893	face	0.0		145	20.0	male	black	3.1070433744528456	neutral	082	sub-11	2.0	5.0	082_neutral	0.0		115.84061179396667	1.2333018400895526
3.0	25.201444362606708	pulse	0.0	t		20.0	male	black	3.1070433744528456	neutral	082	sub-11	2.0	5.0	082_neutral	0.0		116.02408206756445	
3.0	25.901407838497107	pulse	0.0	t		20.0	male	black	3.1070433744528456	neutral	082	sub-11	2.0	5.0	082_neutral	0.0		116.72404554345485	
3.0	26.251275929098483	fix	1.0		444	20.0	male	black	3.1070433744528456	neutral	082	sub-11	2.0	5.0	082_neutral	0.0		117.07391363405623	3.75821581222408
3.0	26.601379766245373	pulse	1.0	t		20.0	male	black	3.1070433744528456	neutral	082	sub-11	2.0	5.0	082_neutral	0.0		117.42401747120311	
3.0	27.30134897732205	pulse	1.0	t		20.0	male	black	3.1070433744528456	neutral	082	sub-11	2.0	5.0	082_neutral	0.0		118.12398668227979	
3.0	28.001349279176793	pulse	1.0	t		20.0	male	black	3.1070433744528456	neutral	082	sub-11	2.0	5.0	082_neutral	0.0		118.82398698413454	
3.0	28.701326640264597	pulse	1.0	t		20.0	male	black	3.1070433744528456	neutral	082	sub-11	2.0	5.0	082_neutral	0.0		119.52396434522234	
3.0	29.401312755064282	pulse	1.0	t		20.0	male	black	3.1070433744528456	neutral	082	sub-11	2.0	5.0	082_neutral	0.0		120.22395046002202	
4.0	30.009491741322563	face	0.0		146	20.0	male	black	2.609629924393156	neutral	043	sub-11	2.0	5.0	043_neutral	1.0	trustworthiness	120.8321294462803	1.2416456376340648
4.0	30.101277136509452	pulse	0.0	t		20.0	male	black	2.609629924393156	neutral	043	sub-11	2.0	5.0	043_neutral	1.0	trustworthiness	120.9239148414672	
4.0	30.80126204390035	pulse	0.0	t		20.0	male	black	2.609629924393156	neutral	043	sub-11	2.0	5.0	043_neutral	1.0	trustworthiness	121.6238997488581	
4.0	31.251137378956628	fix	1.0		177	20.0	male	black	2.609629924393156	neutral	043	sub-11	2.0	5.0	043_neutral	1.0	trustworthiness	122.07377508391437	1.4999420443818963
4.0	31.501244536473678	pulse	1.0	t		20.0	male	black	2.609629924393156	neutral	043	sub-11	2.0	5.0	043_neutral	1.0	trustworthiness	122.32388224143142	
4.0	32.201211030882405	pulse	1.0	t		20.0	male	black	2.609629924393156	neutral	043	sub-11	2.0	5.0	043_neutral	1.0	trustworthiness	123.02384873584015	
4.0	32.751079423338524	rating	2.0		294	20.0	male	black	2.609629924393156	neutral	043	sub-11	2.0	5.0	043_neutral	1.0	trustworthiness	123.57371712829627	2.499941440681141
4.0	32.9011980512405	pulse	2.0	t		20.0	male	black	2.609629924393156	neutral	043	sub-11	2.0	5.0	043_neutral	1.0	trustworthiness	123.72383575619824	
4.0	33.6011914104929	pulse	2.0	t		20.0	male	black	2.609629924393156	neutral	043	sub-11	2.0	5.0	043_neutral	1.0	trustworthiness	124.42382911545064	
4.0	34.30114884933937	pulse	2.0	t		20.0	male	black	2.609629924393156	neutral	043	sub-11	2.0	5.0	043_neutral	1.0	trustworthiness	125.12378655429711	
4.0	34.68771220207054	response	2.0	e		20.0	male	black	2.609629924393156	neutral	043	sub-11	2.0	5.0	043_neutral	1.0	trustworthiness	125.51034990702829	
4.0	35.0011307382083	pulse	2.0	t		20.0	male	black	2.609629924393156	neutral	043	sub-11	2.0	5.0	043_neutral	1.0	trustworthiness	125.82376844316605	
4.0	35.251020864019665	fix	3.0		444	20.0	male	black	2.609629924393156	neutral	043	sub-11	2.0	5.0	043_neutral	1.0	trustworthiness	126.07365856897741	3.7665227838006103
4.0	35.70111956967958	pulse	3.0	t		20.0	male	black	2.609629924393156	neutral	043	sub-11	2.0	5.0	043_neutral	1.0	trustworthiness	126.52375727463732	
4.0	36.40109089372345	pulse	3.0	t		20.0	male	black	2.609629924393156	neutral	043	sub-11	2.0	5.0	043_neutral	1.0	trustworthiness	127.22372859868119	
4.0	37.10108093259987	pulse	3.0	t		20.0	male	black	2.609629924393156	neutral	043	sub-11	2.0	5.0	043_neutral	1.0	trustworthiness	127.92371863755761	
4.0	37.801055577019724	pulse	3.0	t		20.0	male	black	2.609629924393156	neutral	043	sub-11	2.0	5.0	043_neutral	1.0	trustworthiness	128.62369328197747	
4.0	38.50102056216929	pulse	3.0	t		20.0	male	black	2.609629924393156	neutral	043	sub-11	2.0	5.0	043_neutral	1.0	trustworthiness	129.32365826712703	
5.0	39.017543647820276	face	0.0		145	36.0	female	white	2.7548746518105847	neutral	011	sub-11	2.0	5.0	011_neutral	0.0		129.84018135277802	1.2333072734327288
5.0	39.201007280673366	pulse	0.0	t		36.0	female	white	2.7548746518105847	neutral	011	sub-11	2.0	5.0	011_neutral	0.0		130.0236449856311	
5.0	39.90099430103146	pulse	0.0	t		36.0	female	white	2.7548746518105847	neutral	011	sub-11	2.0	5.0	011_neutral	0.0		130.7236320059892	
5.0	40.250850921253004	fix	1.0		444	36.0	female	white	2.7548746518105847	neutral	011	sub-11	2.0	5.0	011_neutral	0.0		131.07348862621075	3.7665771171887172
5.0	40.60098766028386	pulse	1.0	t		36.0	female	white	2.7548746518105847	neutral	011	sub-11	2.0	5.0	011_neutral	0.0		131.4236253652416	
5.0	41.300937854673975	pulse	1.0	t		36.0	female	white	2.7548746518105847	neutral	011	sub-11	2.0	5.0	011_neutral	0.0		132.12357555963172	
5.0	42.000913706502615	pulse	1.0	t		36.0	female	white	2.7548746518105847	neutral	011	sub-11	2.0	5.0	011_neutral	0.0		132.82355141146036	
5.0	42.700909178718575	pulse	1.0	t		36.0	female	white	2.7548746518105847	neutral	011	sub-11	2.0	5.0	011_neutral	0.0		133.52354688367632	
5.0	43.40088714351077	pulse	1.0	t		36.0	female	white	2.7548746518105847	neutral	011	sub-11	2.0	5.0	011_neutral	0.0		134.22352484846851	
6.0	44.01742803844172	face	0.0		145	28.0	male	white	3.9076800636689217	neutral	033	sub-11	2.0	5.0	033_neutral	0.0		134.84006574339946	1.2332970104580454
6.0	44.1008711453469	pulse	0.0	t		28.0	male	white	3.9076800636689217	neutral	033	sub-11	2.0	5.0	033_neutral	0.0		134.92350885030464	
6.0	44.800844884208345	pulse	0.0	t		28.0	male	white	3.9076800636689217	neutral	033	sub-11	2.0	5.0	033_neutral	0.0		135.6234825891661	
6.0	45.25072504889977	fix	1.0		444	28.0	male	white	3.9076800636689217	neutral	033	sub-11	2.0	5.0	033_neutral	0.0		136.0733627538575	3.766533650479687
6.0	45.50083220641682	pulse	1.0	t		28.0	male	white	3.9076800636689217	neutral	033	sub-11	2.0	5.0	033_neutral	0.0		136.32346991137456	
6.0	46.20080141749713	pulse	1.0	t		28.0	male	white	3.9076800636689217	neutral	033	sub-11	2.0	5.0	033_neutral	0.0		137.02343912245487	
6.0	46.90077817488054	pulse	1.0	t		28.0	male	white	3.9076800636689217	neutral	033	sub-11	2.0	5.0	033_neutral	0.0		137.72341587983829	
6.0	47.60074889522002	pulse	1.0	t		28.0	male	white	3.9076800636689217	neutral	033	sub-11	2.0	5.0	033_neutral	0.0		138.42338660017776	
6.0	48.30073380261092	pulse	1.0	t		28.0	male	white	3.9076800636689217	neutral	033	sub-11	2.0	5.0	033_neutral	0.0		139.12337150756866	
7.0	49.017258699379454	face	0.0		146	54.0	female	white	2.286908077994429	smiling	136	sub-11	2.0	5.0	136_smiling	1.0	attractiveness	139.8398964043372	1.2332997271259956
7.0	49.00348759991175	pulse	0.0	t		54.0	female	white	2.286908077994429	smiling	136	sub-11	2.0	5.0	136_smiling	1.0	attractiveness	139.8261253048695	
7.0	49.70069365627205	pulse	0.0	t		54.0	female	white	2.286908077994429	smiling	136	sub-11	2.0	5.0	136_smiling	1.0	attractiveness	140.5233313612298	
7.0	50.25055842650545	fix	1.0		177	54.0	female	white	2.286908077994429	smiling	136	sub-11	2.0	5.0	136_smiling	1.0	attractiveness	141.0731961314632	1.4999743425651104
7.0	50.40066769698751	pulse	1.0	t		54.0	female	white	2.286908077994429	smiling	136	sub-11	2.0	5.0	136_smiling	1.0	attractiveness	141.22330540194525	
7.0	51.10065622660477	pulse	1.0	t		54.0	female	white	2.286908077994429	smiling	136	sub-11	2.0	5.0	136_smiling	1.0	attractiveness	141.9232939315625	
7.0	51.75053276907056	rating	2.0		294	54.0	female	white	2.286908077994429	smiling	136	sub-11	2.0	5.0	136_smiling	1.0	attractiveness	142.5731704740283	2.4999103499067132
7.0	51.80064264325847	pulse	2.0	t		54.0	female	white	2.286908077994429	smiling	136	sub-11	2.0	5.0	136_smiling	1.0	attractiveness	142.6232803482162	
7.0	52.500616382119915	pulse	2.0	t		54.0	female	white	2.286908077994429	smiling	136	sub-11	2.0	5.0	136_smiling	1.0	attractiveness	143.32325408707766	
7.0	53.20059223394492	pulse	2.0	t		54.0	female	white	2.286908077994429	smiling	136	sub-11	2.0	5.0	136_smiling	1.0	attractiveness	144.02322993890266	
7.0	53.633906449977076	response	2.0	b		54.0	female	white	2.286908077994429	smiling	136	sub-11	2.0	5.0	136_smiling	1.0	attractiveness	144.45654415493482	
7.0	53.900545145010256	pulse	2.0	t		54.0	female	white	2.286908077994429	smiling	136	sub-11	2.0	5.0	136_smiling	1.0	attractiveness	144.723182849968	
7.0	54.25044311897727	fix	3.0		444	54.0	female	white	2.286908077994429	smiling	136	sub-11	2.0	5.0	136_smiling	1.0	attractiveness	145.07308082393502	3.7665502523486794
7.0	54.60054454130295	pulse	3.0	t		54.0	female	white	2.286908077994429	smiling	136	sub-11	2.0	5.0	136_smiling	1.0	attractiveness	145.4231822462607	
7.0	55.300523713503935	pulse	3.0	t		54.0	female	white	2.286908077994429	smiling	136	sub-11	2.0	5.0	136_smiling	1.0	attractiveness	146.12316141846168	
7.0	56.000572009852476	pulse	3.0	t		54.0	female	white	2.286908077994429	smiling	136	sub-11	2.0	5.0	136_smiling	1.0	attractiveness	146.82320971481022	
7.0	56.70048235975992	pulse	3.0	t		54.0	female	white	2.286908077994429	smiling	136	sub-11	2.0	5.0	136_smiling	1.0	attractiveness	147.52312006471766	
7.0	57.400467267150816	pulse	3.0	t		54.0	female	white	2.286908077994429	smiling	136	sub-11	2.0	5.0	136_smiling	1.0	attractiveness	148.22310497210856	
8.0	58.01699337132595	face	0.0		145	30.0	female	black	2.7345801830481498	neutral	062	sub-11	2.0	5.0	062_neutral	0.0		148.8396310762837	1.2333145178818086
8.0	58.1004609282536	pulse	0.0	t		30.0	female	black	2.7345801830481498	neutral	062	sub-11	2.0	5.0	062_neutral	0.0		148.92309863321134	
8.0	58.80041957450885	pulse	0.0	t		30.0	female	black	2.7345801830481498	neutral	062	sub-11	2.0	5.0	062_neutral	0.0		149.6230572794666	
8.0	59.25030788920776	fix	1.0		444	30.0	female	black	2.7345801830481498	neutral	062	sub-11	2.0	5.0	062_neutral	0.0		150.0729455941655	3.7665366690016526
8.0	59.50040478375013	pulse	1.0	t		30.0	female	black	2.7345801830481498	neutral	062	sub-11	2.0	5.0	062_neutral	0.0		150.32304248870787	
8.0	60.20038063557877	pulse	1.0	t		30.0	female	black	2.7345801830481498	neutral	062	sub-11	2.0	5.0	062_neutral	0.0		151.0230183405365	
8.0	60.90037218371799	pulse	1.0	t		30.0	female	black	2.7345801830481498	neutral	062	sub-11	2.0	5.0	062_neutral	0.0		151.72300988867573	
8.0	61.60033475404998	pulse	1.0	t		30.0	female	black	2.7345801830481498	neutral	062	sub-11	2.0	5.0	062_neutral	0.0		152.42297245900772	
8.0	62.30032147255406	pulse	1.0	t		30.0	female	black	2.7345801830481498	neutral	062	sub-11	2.0	5.0	062_neutral	0.0		153.1229591775118	
9.0	63.016844558209414	face	0.0		146	25.0	female	west_asian	2.6756864305610826	smiling	064	sub-11	2.0	5.0	064_smiling	0.0		153.83948226316716	1.2333154234365793
9.0	63.002981695684866	pulse	0.0	t		25.0	female	west_asian	2.6756864305610826	smiling	064	sub-11	2.0	5.0	064_smiling	0.0		153.8256194006426	
9.0	63.70027951510201	pulse	0.0	t		25.0	female	west_asian	2.6756864305610826	smiling	064	sub-11	2.0	5.0	064_smiling	0.0		154.52291722005975	
9.0	64.250159981646	fix	1.0		443	25.0	female	west_asian	2.6756864305610826	smiling	064	sub-11	2.0	5.0	064_smiling	0.0		155.07279768660374	3.7665402912280115
9.0	64.40027136509525	pulse	1.0	t		25.0	female	west_asian	2.6756864305610826	smiling	064	sub-11	2.0	5.0	064_smiling	0.0		155.222909070053	
9.0	65.1002451039567	pulse	1.0	t		25.0	female	west_asian	2.6756864305610826	smiling	064	sub-11	2.0	5.0	064_smiling	0.0		155.92288280891444	
9.0	65.80022487986207	pulse	1.0	t		25.0	female	west_asian	2.6756864305610826	smiling	064	sub-11	2.0	5.0	064_smiling	0.0		156.6228625848198	
9.0	66.50019680761034	pulse	1.0	t		25.0	female	west_asian	2.6756864305610826	smiling	064	sub-11	2.0	5.0	064_smiling	0.0		157.32283451256808	
9.0	67.20017054647178	pulse	1.0	t		25.0	female	west_asian	2.6756864305610826	smiling	064	sub-11	2.0	5.0	064_smiling	0.0		158.02280825142952	
9.0	67.90016390572418	pulse	1.0	t		25.0	female	west_asian	2.6756864305610826	smiling	064	sub-11	2.0	5.0	064_smiling	0.0		158.72280161068193	
10.0	68.016700272874	face	0.0		146	22.0	female	white	4.614007162753682	neutral	009	sub-11	2.0	5.0	009_neutral	0.0		158.83933797783175	1.2333127067686291
10.0	68.60014579459312	pulse	0.0	t		22.0	female	white	4.614007162753682	neutral	009	sub-11	2.0	5.0	009_neutral	0.0		159.42278349955086	
10.0	69.25001297964263	fix	1.0		443	22.0	female	white	4.614007162753682	neutral	009	sub-11	2.0	5.0	009_neutral	0.0		160.07265068460038	3.766522180096217
10.0	69.30012919272485	pulse	1.0	t		22.0	female	white	4.614007162753682	neutral	009	sub-11	2.0	5.0	009_neutral	0.0		160.1227668976826	
10.0	70.00010776122144	pulse	1.0	t		22.0	female	white	4.614007162753682	neutral	009	sub-11	2.0	5.0	009_neutral	0.0		160.82274546617919	
10.0	70.70008300934569	pulse	1.0	t		22.0	female	white	4.614007162753682	neutral	009	sub-11	2.0	5.0	009_neutral	0.0		161.52272071430343	
10.0	71.40005312598078	pulse	1.0	t		22.0	female	white	4.614007162753682	neutral	009	sub-11	2.0	5.0	009_neutral	0.0		162.22269083093852	
10.0	72.10002686484222	pulse	1.0	t		22.0	female	white	4.614007162753682	neutral	009	sub-11	2.0	5.0	009_neutral	0.0		162.92266456979996	
10.0	72.80000573518919	pulse	1.0	t		22.0	female	white	4.614007162753682	neutral	009	sub-11	2.0	5.0	009_neutral	0.0		163.62264344014693	
11.0	73.01653515973885	face	0.0		145	22.0	male	black	2.767608436132113	neutral	044	sub-11	2.0	5.0	044_neutral	0.0		163.8391728646966	1.2333102919510566
11.0	73.49998792591214	pulse	0.0	t		22.0	male	black	2.767608436132113	neutral	044	sub-11	2.0	5.0	044_neutral	0.0		164.32262563086988	
11.0	74.19997283330304	pulse	0.0	t		22.0	male	black	2.767608436132113	neutral	044	sub-11	2.0	5.0	044_neutral	0.0		165.02261053826078	
11.0	74.24984545168991	fix	1.0		445	22.0	male	black	2.767608436132113	neutral	044	sub-11	2.0	5.0	044_neutral	0.0		165.07248315664765	3.766546931976336
11.0	74.8999607592159	pulse	1.0	t		22.0	male	black	2.767608436132113	neutral	044	sub-11	2.0	5.0	044_neutral	0.0		165.72259846417364	
11.0	75.59991699065358	pulse	1.0	t		22.0	male	black	2.767608436132113	neutral	044	sub-11	2.0	5.0	044_neutral	0.0		166.42255469561132	
11.0	76.29990521842046	pulse	1.0	t		22.0	male	black	2.767608436132113	neutral	044	sub-11	2.0	5.0	044_neutral	0.0		167.1225429233782	
11.0	76.99989465359249	pulse	1.0	t		22.0	male	black	2.767608436132113	neutral	044	sub-11	2.0	5.0	044_neutral	0.0		167.82253235855023	
11.0	77.69986205355963	pulse	1.0	t		22.0	male	black	2.767608436132113	neutral	044	sub-11	2.0	5.0	044_neutral	0.0		168.52249975851737	
12.0	78.01639238366624	face	0.0		145	24.0	male	white	3.1153999204138483	neutral	012	sub-11	2.0	5.0	012_neutral	0.0		168.83903008862399	1.233312103064236
12.0	78.39985179058567	pulse	0.0	t		24.0	male	white	3.1153999204138483	neutral	012	sub-11	2.0	5.0	012_neutral	0.0		169.2224894955434	
12.0	79.0998351887174	pulse	0.0	t		24.0	male	white	3.1153999204138483	neutral	012	sub-11	2.0	5.0	012_neutral	0.0		169.92247289367515	
12.0	79.24970448673048	fix	1.0		444	24.0	male	white	3.1153999204138483	neutral	012	sub-11	2.0	5.0	012_neutral	0.0		170.07234219168822	3.7665345560344576
12.0	79.79981707758634	pulse	1.0	t		24.0	male	white	3.1153999204138483	neutral	012	sub-11	2.0	5.0	012_neutral	0.0		170.62245478254408	
12.0	80.49979202385657	pulse	1.0	t		24.0	male	white	3.1153999204138483	neutral	012	sub-11	2.0	5.0	012_neutral	0.0		171.3224297288143	
12.0	81.19976787568521	pulse	1.0	t		24.0	male	white	3.1153999204138483	neutral	012	sub-11	2.0	5.0	012_neutral	0.0		172.02240558064295	
12.0	81.89974463306862	pulse	1.0	t		24.0	male	white	3.1153999204138483	neutral	012	sub-11	2.0	5.0	012_neutral	0.0		172.72238233802636	
12.0	82.5997153534081	pulse	1.0	t		24.0	male	white	3.1153999204138483	neutral	012	sub-11	2.0	5.0	012_neutral	0.0		173.42235305836584	
13.0	83.01623904276494	face	0.0		145	21.0	male	east_asian/white	3.501790688420215	neutral	036	sub-11	2.0	5.0	036_neutral	0.0		173.83887674772268	1.2333127067686291
13.0	83.29969814783544	pulse	0.0	t		21.0	male	east_asian/white	3.501790688420215	neutral	036	sub-11	2.0	5.0	036_neutral	0.0		174.12233585279319	
13.0	83.9996866774527	pulse	0.0	t		21.0	male	east_asian/white	3.501790688420215	neutral	036	sub-11	2.0	5.0	036_neutral	0.0		174.82232438241044	
13.0	84.24955174953357	fix	1.0		444	21.0	male	east_asian/white	3.501790688420215	neutral	036	sub-11	2.0	5.0	036_neutral	0.0		175.0721894544913	3.758227584457927
13.0	84.69965830334695	pulse	1.0	t		21.0	male	east_asian/white	3.501790688420215	neutral	036	sub-11	2.0	5.0	036_neutral	0.0		175.5222960083047	
13.0	85.39965136074898	pulse	1.0	t		21.0	male	east_asian/white	3.501790688420215	neutral	036	sub-11	2.0	5.0	036_neutral	0.0		176.22228906570672	
13.0	86.09962660886958	pulse	1.0	t		21.0	male	east_asian/white	3.501790688420215	neutral	036	sub-11	2.0	5.0	036_neutral	0.0		176.92226431382733	
13.0	86.7995964236543	pulse	1.0	t		21.0	male	east_asian/white	3.501790688420215	neutral	036	sub-11	2.0	5.0	036_neutral	0.0		177.62223412861204	
13.0	87.49957710511444	pulse	1.0	t		21.0	male	east_asian/white	3.501790688420215	neutral	036	sub-11	2.0	5.0	036_neutral	0.0		178.32221481007218	
14.0	88.0077793339915	face	0.0		146	40.0	female	west_asian	1.5777954635893354	smiling	038	sub-11	2.0	5.0	038_smiling	0.0		178.83041703894924	1.2416205839035683
14.0	88.19955567361103	pulse	0.0	t		40.0	female	west_asian	1.5777954635893354	smiling	038	sub-11	2.0	5.0	038_smiling	0.0		179.02219337856877	
14.0	88.89952337542854	pulse	0.0	t		40.0	female	west_asian	1.5777954635893354	smiling	038	sub-11	2.0	5.0	038_smiling	0.0		179.7221610803863	
14.0	89.24939991789506	fix	1.0		444	40.0	female	west_asian	1.5777954635893354	smiling	038	sub-11	2.0	5.0	038_smiling	0.0		180.0720376228528	3.7665523653122364
14.0	89.599530921736	pulse	1.0	t		40.0	female	west_asian	1.5777954635893354	smiling	038	sub-11	2.0	5.0	038_smiling	0.0		180.42216862669375	
14.0	90.29948866243285	pulse	1.0	t		40.0	female	west_asian	1.5777954635893354	smiling	038	sub-11	2.0	5.0	038_smiling	0.0		181.1221263673906	
14.0	90.99948654946638	pulse	1.0	t		40.0	female	west_asian	1.5777954635893354	smiling	038	sub-11	2.0	5.0	038_smiling	0.0		181.82212425442412	
14.0	91.69945606239708	pulse	1.0	t		40.0	female	west_asian	1.5777954635893354	smiling	038	sub-11	2.0	5.0	038_smiling	0.0		182.52209376735482	
14.0	92.3994225568058	pulse	1.0	t		40.0	female	west_asian	1.5777954635893354	smiling	038	sub-11	2.0	5.0	038_smiling	0.0		183.22206026176354	
15.0	93.0159522832073	face	0.0		145	24.0	female	black	3.0955033824114606	smiling	099	sub-11	2.0	5.0	099_smiling	0.0		183.83858998816504	1.2333202530753624
15.0	93.09941953828456	pulse	0.0	t		24.0	female	black	3.0955033824114606	smiling	099	sub-11	2.0	5.0	099_smiling	0.0		183.9220572432423	
15.0	93.79938905121526	pulse	0.0	t		24.0	female	black	3.0955033824114606	smiling	099	sub-11	2.0	5.0	099_smiling	0.0		184.622026756173	
15.0	94.24927253628266	fix	1.0		444	24.0	female	black	3.0955033824114606	smiling	099	sub-11	2.0	5.0	099_smiling	0.0		185.0719102412404	3.7665354615892284
15.0	94.49946632537103	pulse	1.0	t		24.0	female	black	3.0955033824114606	smiling	099	sub-11	2.0	5.0	099_smiling	0.0		185.32210403032877	
15.0	95.19939569196504	pulse	1.0	t		24.0	female	black	3.0955033824114606	smiling	099	sub-11	2.0	5.0	099_smiling	0.0		186.02203339692278	
15.0	95.89933743449728	pulse	1.0	t		24.0	female	black	3.0955033824114606	smiling	099	sub-11	2.0	5.0	099_smiling	0.0		186.72197513945503	
15.0	96.59930302335124	pulse	1.0	t		24.0	female	black	3.0955033824114606	smiling	099	sub-11	2.0	5.0	099_smiling	0.0		187.42194072830898	
15.0	97.29929034555971	pulse	1.0	t		24.0	female	black	3.0955033824114606	smiling	099	sub-11	2.0	5.0	099_smiling	0.0		188.12192805051745	
16.0	98.01580799787189	face	0.0		147	54.0	female	white	2.286908077994429	neutral	136	sub-11	2.0	5.0	136_neutral	0.0		188.83844570282963	1.2416477505976218
16.0	98.00205017990083	pulse	0.0	t		54.0	female	white	2.286908077994429	neutral	136	sub-11	2.0	5.0	136_neutral	0.0		188.82468788485858	
16.0	98.69925533070636	pulse	0.0	t		54.0	female	white	2.286908077994429	neutral	136	sub-11	2.0	5.0	136_neutral	0.0		189.5218930356641	
16.0	99.25745574846951	fix	1.0		443	54.0	female	white	2.286908077994429	neutral	136	sub-11	2.0	5.0	136_neutral	0.0		190.08009345342725	3.7665439134543703
16.0	99.3992317862394	pulse	1.0	t		54.0	female	white	2.286908077994429	neutral	136	sub-11	2.0	5.0	136_neutral	0.0		190.22186949119714	
16.0	100.09921005288197	pulse	1.0	t		54.0	female	white	2.286908077994429	neutral	136	sub-11	2.0	5.0	136_neutral	0.0		190.9218477578397	
16.0	100.79917775470312	pulse	1.0	t		54.0	female	white	2.286908077994429	neutral	136	sub-11	2.0	5.0	136_neutral	0.0		191.62181545966087	
16.0	101.49915119171055	pulse	1.0	t		54.0	female	white	2.286908077994429	neutral	136	sub-11	2.0	5.0	136_neutral	0.0		192.3217888966683	
16.0	102.19914394725856	pulse	1.0	t		54.0	female	white	2.286908077994429	neutral	136	sub-11	2.0	5.0	136_neutral	0.0		193.0217816522163	
16.0	102.89912251575515	pulse	1.0	t		54.0	female	white	2.286908077994429	neutral	136	sub-11	2.0	5.0	136_neutral	0.0		193.7217602207129	
17.0	103.02399966192388	face	0.0		146	25.0	female	west_asian	2.6756864305610826	neutral	064	sub-11	2.0	5.0	064_neutral	0.0		193.84663736688162	1.2333090845422703
17.0	103.59909866943417	pulse	0.0	t		25.0	female	west_asian	2.6756864305610826	neutral	064	sub-11	2.0	5.0	064_neutral	0.0		194.4217363743919	
17.0	104.25730874646615	fix	1.0		444	25.0	female	west_asian	2.6756864305610826	neutral	064	sub-11	2.0	5.0	064_neutral	0.0		195.0799464514239	3.7665245949137898
17.0	104.29908297312068	pulse	1.0	t		25.0	female	west_asian	2.6756864305610826	neutral	064	sub-11	2.0	5.0	064_neutral	0.0		195.12172067807842	
17.0	104.99906576754802	pulse	1.0	t		25.0	female	west_asian	2.6756864305610826	neutral	064	sub-11	2.0	5.0	064_neutral	0.0		195.82170347250576	
17.0	105.69903316751515	pulse	1.0	t		25.0	female	west_asian	2.6756864305610826	neutral	064	sub-11	2.0	5.0	064_neutral	0.0		196.5216708724729	
17.0	106.39900418970501	pulse	1.0	t		25.0	female	west_asian	2.6756864305610826	neutral	064	sub-11	2.0	5.0	064_neutral	0.0		197.22164189466275	
17.0	107.09898758783675	pulse	1.0	t		25.0	female	west_asian	2.6756864305610826	neutral	064	sub-11	2.0	5.0	064_neutral	0.0		197.9216252927945	
17.0	107.79896947670932	pulse	1.0	t		25.0	female	west_asian	2.6756864305610826	neutral	064	sub-11	2.0	5.0	064_neutral	0.0		198.62160718166706	
18.0	108.02383334137994	face	0.0		145	25.0	female	black	3.858336649423	neutral	126	sub-11	2.0	5.0	126_neutral	0.0		198.84647104633768	1.2333262901192938
18.0	108.49896676003846	pulse	0.0	t		25.0	female	black	3.858336649423	neutral	126	sub-11	2.0	5.0	126_neutral	0.0		199.3216044649962	
18.0	109.19891212479706	pulse	0.0	t		25.0	female	black	3.858336649423	neutral	126	sub-11	2.0	5.0	126_neutral	0.0		200.0215498297548	
18.0	109.25715963149923	fix	1.0		445	25.0	female	black	3.858336649423	neutral	126	sub-11	2.0	5.0	126_neutral	0.0		200.07979733645698	3.76654149863316
18.0	109.89893053777996	pulse	1.0	t		25.0	female	black	3.858336649423	neutral	126	sub-11	2.0	5.0	126_neutral	0.0		200.7215682427377	
18.0	110.59890910627655	pulse	1.0	t		25.0	female	black	3.858336649423	neutral	126	sub-11	2.0	5.0	126_neutral	0.0		201.4215468112343	
18.0	111.29886926178733	pulse	1.0	t		25.0	female	black	3.858336649423	neutral	126	sub-11	2.0	5.0	126_neutral	0.0		202.12150696674507	
18.0	111.99885507473664	pulse	1.0	t		25.0	female	black	3.858336649423	neutral	126	sub-11	2.0	5.0	126_neutral	0.0		202.82149277969438	
18.0	112.69883786916398	pulse	1.0	t		25.0	female	black	3.858336649423	neutral	126	sub-11	2.0	5.0	126_neutral	0.0		203.52147557412172	
19.0	113.0237011301324	face	0.0		145	37.0	male	white	3.898925586947871	neutral	101	sub-11	2.0	5.0	101_neutral	0.0		203.84633883509014	1.2332964067536523
19.0	113.39881915432852	pulse	0.0	t		37.0	male	white	3.898925586947871	neutral	101	sub-11	2.0	5.0	101_neutral	0.0		204.22145685928626	
19.0	114.09878896911323	pulse	0.0	t		37.0	male	white	3.898925586947871	neutral	101	sub-11	2.0	5.0	101_neutral	0.0		204.92142667407097	
19.0	114.25699753688605	fix	1.0		444	37.0	male	white	3.898925586947871	neutral	101	sub-11	2.0	5.0	101_neutral	0.0		205.0796352418438	3.7582076622129534
19.0	114.79876482093823	pulse	1.0	t		37.0	male	white	3.898925586947871	neutral	101	sub-11	2.0	5.0	101_neutral	0.0		205.62140252589597	
19.0	115.49875335055913	pulse	1.0	t		37.0	male	white	3.898925586947871	neutral	101	sub-11	2.0	5.0	101_neutral	0.0		206.32139105551687	
19.0	116.19872980608852	pulse	1.0	t		37.0	male	white	3.898925586947871	neutral	101	sub-11	2.0	5.0	101_neutral	0.0		207.02136751104626	
19.0	116.89869750790604	pulse	1.0	t		37.0	male	white	3.898925586947871	neutral	101	sub-11	2.0	5.0	101_neutral	0.0		207.72133521286378	
19.0	117.59868181159618	pulse	1.0	t		37.0	male	white	3.898925586947871	neutral	101	sub-11	2.0	5.0	101_neutral	0.0		208.42131951655392	
20.0	118.015205199099	face	0.0		146	22.0	male	black	2.767608436132113	smiling	044	sub-11	2.0	5.0	044_smiling	0.0		208.83784290405674	1.2416389968857402
20.0	118.29867275603101	pulse	0.0	t		22.0	male	black	2.767608436132113	smiling	044	sub-11	2.0	5.0	044_smiling	0.0		209.12131046098875	
20.0	118.99865283378676	pulse	0.0	t		22.0	male	black	2.767608436132113	smiling	044	sub-11	2.0	5.0	044_smiling	0.0		209.8212905387445	
20.0	119.25684419598474	fix	1.0		1185	22.0	male	black	2.767608436132113	smiling	044	sub-11	2.0	5.0	044_smiling	0.0		210.07948190094248	10.016379102173232
20.0	119.6986187244911	pulse	1.0	t		22.0	male	black	2.767608436132113	smiling	044	sub-11	2.0	5.0	044_smiling	0.0		210.52125642944884	
20.0	120.39861329115229	pulse	1.0	t		22.0	male	black	2.767608436132113	smiling	044	sub-11	2.0	5.0	044_smiling	0.0		211.22125099611003	
20.0	121.09857586148428	pulse	1.0	t		22.0	male	black	2.767608436132113	smiling	044	sub-11	2.0	5.0	044_smiling	0.0		211.92121356644202	
20.0	121.79856197628396	pulse	1.0	t		22.0	male	black	2.767608436132113	smiling	044	sub-11	2.0	5.0	044_smiling	0.0		212.6211996812417	
20.0	122.49853662070382	pulse	1.0	t		22.0	male	black	2.767608436132113	smiling	044	sub-11	2.0	5.0	044_smiling	0.0		213.32117432566156	
20.0	123.19852665958024	pulse	1.0	t		22.0	male	black	2.767608436132113	smiling	044	sub-11	2.0	5.0	044_smiling	0.0		214.02116436453798	
20.0	123.89850190770449	pulse	1.0	t		22.0	male	black	2.767608436132113	smiling	044	sub-11	2.0	5.0	044_smiling	0.0		214.72113961266223	
20.0	124.59847987249668	pulse	1.0	t		22.0	male	black	2.767608436132113	smiling	044	sub-11	2.0	5.0	044_smiling	0.0		215.42111757745442	
20.0	125.29845119654055	pulse	1.0	t		22.0	male	black	2.767608436132113	smiling	044	sub-11	2.0	5.0	044_smiling	0.0		216.1210889014983	
20.0	125.9984493854281	pulse	1.0	t		22.0	male	black	2.767608436132113	smiling	044	sub-11	2.0	5.0	044_smiling	0.0		216.82108709038584	
20.0	126.69839927796784	pulse	1.0	t		22.0	male	black	2.767608436132113	smiling	044	sub-11	2.0	5.0	044_smiling	0.0		217.52103698292558	
20.0	127.39838478906313	pulse	1.0	t		22.0	male	black	2.767608436132113	smiling	044	sub-11	2.0	5.0	044_smiling	0.0		218.22102249402087	
20.0	128.0983805631331	pulse	1.0	t		22.0	male	black	2.767608436132113	smiling	044	sub-11	2.0	5.0	044_smiling	0.0		218.92101826809085	
20.0	128.79835309458576	pulse	1.0	t		22.0	male	black	2.767608436132113	smiling	044	sub-11	2.0	5.0	044_smiling	0.0		219.6209907995435	
21.0	129.27322329815797	face	0.0		145	27.0	male	black	3.5523278949462798	smiling	042	sub-11	2.0	5.0	042_smiling	0.0		220.09586100311571	1.2333108956554497
21.0	129.49834102050227	pulse	0.0	t		27.0	male	black	3.5523278949462798	smiling	042	sub-11	2.0	5.0	042_smiling	0.0		220.32097872546	
21.0	130.1983150612141	pulse	0.0	t		27.0	male	black	3.5523278949462798	smiling	042	sub-11	2.0	5.0	042_smiling	0.0		221.02095276617183	
21.0	130.50653419381342	fix	1.0		444	27.0	male	black	3.5523278949462798	smiling	042	sub-11	2.0	5.0	042_smiling	0.0		221.32917189877116	3.758207360362576
21.0	130.89828849822516	pulse	1.0	t		27.0	male	black	3.5523278949462798	smiling	042	sub-11	2.0	5.0	042_smiling	0.0		221.7209262031829	
21.0	131.598262840791	pulse	1.0	t		27.0	male	black	3.5523278949462798	smiling	042	sub-11	2.0	5.0	042_smiling	0.0		222.42090054574874	
21.0	132.29825016299947	pulse	1.0	t		27.0	male	black	3.5523278949462798	smiling	042	sub-11	2.0	5.0	042_smiling	0.0		223.1208878679572	
21.0	132.9982326555728	pulse	1.0	t		27.0	male	black	3.5523278949462798	smiling	042	sub-11	2.0	5.0	042_smiling	0.0		223.82087036053053	
21.0	133.69819613145955	pulse	1.0	t		27.0	male	black	3.5523278949462798	smiling	042	sub-11	2.0	5.0	042_smiling	0.0		224.5208338364173	
22.0	134.264741554176	face	0.0		146	19.0	male	white	3.2522881018702745	smiling	018	sub-11	2.0	5.0	018_smiling	0.0		225.08737925913374	1.2416266209438618
22.0	134.3981964333143	pulse	0.0	t		19.0	male	white	3.2522881018702745	smiling	018	sub-11	2.0	5.0	018_smiling	0.0		225.22083413827204	
22.0	135.09816805920855	pulse	0.0	t		19.0	male	white	3.2522881018702745	smiling	018	sub-11	2.0	5.0	018_smiling	0.0		225.9208057641663	
22.0	135.50636817511986	fix	1.0		444	19.0	male	white	3.2522881018702745	smiling	018	sub-11	2.0	5.0	018_smiling	0.0		226.3290058800776	3.75830153824063
22.0	135.79815477771626	pulse	1.0	t		19.0	male	white	3.2522881018702745	smiling	018	sub-11	2.0	5.0	018_smiling	0.0		226.620792482674	
22.0	136.49812217767976	pulse	1.0	t		19.0	male	white	3.2522881018702745	smiling	018	sub-11	2.0	5.0	018_smiling	0.0		227.3207598826375	
22.0	137.19811100915103	pulse	1.0	t		19.0	male	white	3.2522881018702745	smiling	018	sub-11	2.0	5.0	018_smiling	0.0		228.02074871410878	
22.0	137.89807629615098	pulse	1.0	t		19.0	male	white	3.2522881018702745	smiling	018	sub-11	2.0	5.0	018_smiling	0.0		228.72071400110872	
22.0	138.59805939243233	pulse	1.0	t		19.0	male	white	3.2522881018702745	smiling	018	sub-11	2.0	5.0	018_smiling	0.0		229.42069709739008	
23.0	139.2646697133605	face	0.0		146	28.0	male	east_asian	1.5563072025467568	smiling	005	sub-11	2.0	5.0	005_smiling	0.0		230.08730741831823	1.2415641375482664
23.0	139.29805335538913	pulse	0.0	t		28.0	male	east_asian	1.5563072025467568	smiling	005	sub-11	2.0	5.0	005_smiling	0.0		230.12069106034687	
23.0	139.99803584796246	pulse	0.0	t		28.0	male	east_asian	1.5563072025467568	smiling	005	sub-11	2.0	5.0	005_smiling	0.0		230.8206735529202	
23.0	140.50623385090876	fix	1.0		443	28.0	male	east_asian	1.5563072025467568	smiling	005	sub-11	2.0	5.0	005_smiling	0.0		231.3288715558665	3.7665375745564234
23.0	140.6980014368164	pulse	1.0	t		28.0	male	east_asian	1.5563072025467568	smiling	005	sub-11	2.0	5.0	005_smiling	0.0		231.52063914177415	
23.0	141.3979703460427	pulse	1.0	t		28.0	male	east_asian	1.5563072025467568	smiling	005	sub-11	2.0	5.0	005_smiling	0.0		232.22060805100045	
23.0	142.0979495182437	pulse	1.0	t		28.0	male	east_asian	1.5563072025467568	smiling	005	sub-11	2.0	5.0	005_smiling	0.0		232.92058722320144	
23.0	142.79794559416405	pulse	1.0	t		28.0	male	east_asian	1.5563072025467568	smiling	005	sub-11	2.0	5.0	005_smiling	0.0		233.6205832991218	
23.0	143.49789699596658	pulse	1.0	t		28.0	male	east_asian	1.5563072025467568	smiling	005	sub-11	2.0	5.0	005_smiling	0.0		234.32053470092433	
23.0	144.19790484412079	pulse	1.0	t		28.0	male	east_asian	1.5563072025467568	smiling	005	sub-11	2.0	5.0	005_smiling	0.0		235.02054254907853	
24.0	144.27277142546518	face	0.0		146	27.0	female	white	3.504576203740549	smiling	144	sub-11	2.0	5.0	144_smiling	0.0		235.09540913042292	1.2333145178818086
24.0	144.8978900533657	pulse	0.0	t		27.0	female	white	3.504576203740549	smiling	144	sub-11	2.0	5.0	144_smiling	0.0		235.72052775832344	
24.0	145.506085943347	fix	1.0		443	27.0	female	white	3.504576203740549	smiling	144	sub-11	2.0	5.0	144_smiling	0.0		236.32872364830473	3.766543611600355
24.0	145.59786530148995	pulse	1.0	t		27.0	female	white	3.504576203740549	smiling	144	sub-11	2.0	5.0	144_smiling	0.0		236.4205030064477	
24.0	146.29783511627102	pulse	1.0	t		27.0	female	white	3.504576203740549	smiling	144	sub-11	2.0	5.0	144_smiling	0.0		237.12047282122876	
24.0	146.99781972181154	pulse	1.0	t		27.0	female	white	3.504576203740549	smiling	144	sub-11	2.0	5.0	144_smiling	0.0		237.82045742676928	
24.0	147.6978001014213	pulse	1.0	t		27.0	female	white	3.504576203740549	smiling	144	sub-11	2.0	5.0	144_smiling	0.0		238.52043780637905	
24.0	148.3977705199104	pulse	1.0	t		27.0	female	white	3.504576203740549	smiling	144	sub-11	2.0	5.0	144_smiling	0.0		239.22040822486815	
24.0	149.0977560310057	pulse	1.0	t		27.0	female	white	3.504576203740549	smiling	144	sub-11	2.0	5.0	144_smiling	0.0		239.92039373596344	
25.0	149.27262955494734	face	0.0		146	19.0	female	white	4.298846000795861	neutral	100	sub-11	2.0	5.0	100_neutral	0.0		240.09526725990509	1.241642619112099
25.0	149.7977409383966	pulse	0.0	t		19.0	female	white	4.298846000795861	neutral	100	sub-11	2.0	5.0	100_neutral	0.0		240.62037864335434	
25.0	150.49772161985675	pulse	0.0	t		19.0	female	white	4.298846000795861	neutral	100	sub-11	2.0	5.0	100_neutral	0.0		241.3203593248145	
25.0	150.51427217405944	fix	1.0		443	19.0	female	white	4.298846000795861	neutral	100	sub-11	2.0	5.0	100_neutral	0.0		241.33690987901718	3.758208567771362
25.0	151.19769294390426	pulse	1.0	t		19.0	female	white	4.298846000795861	neutral	100	sub-11	2.0	5.0	100_neutral	0.0		242.020330648862	
25.0	151.89766698461608	pulse	1.0	t		19.0	female	white	4.298846000795861	neutral	100	sub-11	2.0	5.0	100_neutral	0.0		242.72030468957382	
25.0	152.5976425345907	pulse	1.0	t		19.0	female	white	4.298846000795861	neutral	100	sub-11	2.0	5.0	100_neutral	0.0		243.42028023954845	
25.0	153.29763347902554	pulse	1.0	t		19.0	female	white	4.298846000795861	neutral	100	sub-11	2.0	5.0	100_neutral	0.0		244.12027118398328	
25.0	153.99761536789447	pulse	1.0	t		19.0	female	white	4.298846000795861	neutral	100	sub-11	2.0	5.0	100_neutral	0.0		244.8202530728522	
26.0	154.2724807418308	face	0.0		145	19.0	male	white	2.243931555909272	smiling	130	sub-11	2.0	5.0	130_smiling	0.0		245.09511844678855	1.2332982178631937
26.0	154.69759604935825	pulse	0.0	t		19.0	male	white	2.243931555909272	smiling	130	sub-11	2.0	5.0	130_smiling	0.0		245.520233754316	
26.0	155.3975634493254	pulse	0.0	t		19.0	male	white	2.243931555909272	smiling	130	sub-11	2.0	5.0	130_smiling	0.0		246.22020115428313	
26.0	155.505778959694	fix	1.0		445	19.0	male	white	2.243931555909272	smiling	130	sub-11	2.0	5.0	130_smiling	0.0		246.32841666465174	3.758205247399019
26.0	156.09753688633282	pulse	1.0	t		19.0	male	white	2.243931555909272	smiling	130	sub-11	2.0	5.0	130_smiling	0.0		246.92017459129056	
26.0	156.79753416966196	pulse	1.0	t		19.0	male	white	2.243931555909272	smiling	130	sub-11	2.0	5.0	130_smiling	0.0		247.6201718746197	
26.0	157.49750821037742	pulse	1.0	t		19.0	male	white	2.243931555909272	smiling	130	sub-11	2.0	5.0	130_smiling	0.0		248.32014591533516	
26.0	158.19749009924635	pulse	1.0	t		19.0	male	white	2.243931555909272	smiling	130	sub-11	2.0	5.0	130_smiling	0.0		249.0201278042041	
26.0	158.89745146216956	pulse	1.0	t		19.0	male	white	2.243931555909272	smiling	130	sub-11	2.0	5.0	130_smiling	0.0		249.7200891671273	
27.0	159.26398420709302	face	0.0		146	21.0	male	black	2.969757262236371	smiling	137	sub-11	2.0	5.0	137_smiling	0.0		250.08662191205076	1.2416444302252785
27.0	159.59746474366693	pulse	0.0	t		21.0	male	black	2.969757262236371	smiling	137	sub-11	2.0	5.0	137_smiling	0.0		250.42010244862468	
27.0	160.2974197676922	pulse	0.0	t		21.0	male	black	2.969757262236371	smiling	137	sub-11	2.0	5.0	137_smiling	0.0		251.12005747264993	
27.0	160.5056286373183	fix	1.0		444	21.0	male	black	2.969757262236371	smiling	137	sub-11	2.0	5.0	137_smiling	0.0		251.32826634227604	3.758300934532599
27.0	160.99741433435338	pulse	1.0	t		21.0	male	black	2.969757262236371	smiling	137	sub-11	2.0	5.0	137_smiling	0.0		251.82005203931112	
27.0	161.69737056579106	pulse	1.0	t		21.0	male	black	2.969757262236371	smiling	137	sub-11	2.0	5.0	137_smiling	0.0		252.5200082707488	
27.0	162.39735788799953	pulse	1.0	t		21.0	male	black	2.969757262236371	smiling	137	sub-11	2.0	5.0	137_smiling	0.0		253.21999559295728	
27.0	163.09734370094884	pulse	1.0	t		21.0	male	black	2.969757262236371	smiling	137	sub-11	2.0	5.0	137_smiling	0.0		253.91998140590658	
27.0	163.79730747868962	pulse	1.0	t		21.0	male	black	2.969757262236371	smiling	137	sub-11	2.0	5.0	137_smiling	0.0		254.61994518364736	
28.0	164.2639295718509	face	0.0		146	30.0	female	black	2.7345801830481498	smiling	062	sub-11	2.0	5.0	062_smiling	0.0		255.08656727680864	1.2415478375332896
28.0	164.49730596942754	pulse	0.0	t		30.0	female	black	2.7345801830481498	smiling	062	sub-11	2.0	5.0	062_smiling	0.0		255.31994367438529	
28.0	165.19726974716832	pulse	0.0	t		30.0	female	black	2.7345801830481498	smiling	062	sub-11	2.0	5.0	062_smiling	0.0		256.01990745212606	
28.0	165.50547740938418	fix	1.0		444	30.0	female	black	2.7345801830481498	smiling	062	sub-11	2.0	5.0	062_smiling	0.0		256.3281151143419	3.7665587042065454
28.0	165.8972495230737	pulse	1.0	t		30.0	female	black	2.7345801830481498	smiling	062	sub-11	2.0	5.0	062_smiling	0.0		256.71988722803144	
28.0	166.5972332230558	pulse	1.0	t		30.0	female	black	2.7345801830481498	smiling	062	sub-11	2.0	5.0	062_smiling	0.0		257.41987092801355	
28.0	167.29721330081156	pulse	1.0	t		30.0	female	black	2.7345801830481498	smiling	062	sub-11	2.0	5.0	062_smiling	0.0		258.1198510057693	
28.0	167.99720394339602	pulse	1.0	t		30.0	female	black	2.7345801830481498	smiling	062	sub-11	2.0	5.0	062_smiling	0.0		258.81984164835376	
28.0	168.69717073965876	pulse	1.0	t		30.0	female	black	2.7345801830481498	smiling	062	sub-11	2.0	5.0	062_smiling	0.0		259.5198084446165	
29.0	169.27203611359073	face	0.0		145	20.0	female	white	3.9502586549940313	neutral	091	sub-11	2.0	5.0	091_neutral	1.0	dominance	260.0946738185485	1.2333102919510566
29.0	169.39716349520677	pulse	0.0	t		20.0	female	white	3.9502586549940313	neutral	091	sub-11	2.0	5.0	091_neutral	1.0	dominance	260.2198012001645	
29.0	170.09713995073616	pulse	0.0	t		20.0	female	white	3.9502586549940313	neutral	091	sub-11	2.0	5.0	091_neutral	1.0	dominance	260.9197776556939	
29.0	170.5053464055418	fix	1.0		177	20.0	female	white	3.9502586549940313	neutral	091	sub-11	2.0	5.0	091_neutral	1.0	dominance	261.32798411049953	1.4999613629224768
29.0	170.79712002849192	pulse	1.0	t		20.0	female	white	3.9502586549940313	neutral	091	sub-11	2.0	5.0	091_neutral	1.0	dominance	261.61975773344966	
29.0	171.49708652290428	pulse	1.0	t		20.0	female	white	3.9502586549940313	neutral	091	sub-11	2.0	5.0	091_neutral	1.0	dominance	262.319724227862	
29.0	172.00530776846426	rating	2.0		295	20.0	female	white	3.9502586549940313	neutral	091	sub-11	2.0	5.0	091_neutral	1.0	dominance	262.827945473422	2.4999200091770035
29.0	172.19709135253652	pulse	2.0	t		20.0	female	white	3.9502586549940313	neutral	091	sub-11	2.0	5.0	091_neutral	1.0	dominance	263.01972905749426	
29.0	172.89704577286102	pulse	2.0	t		20.0	female	white	3.9502586549940313	neutral	091	sub-11	2.0	5.0	091_neutral	1.0	dominance	263.71968347781876	
29.0	173.59702735987958	pulse	2.0	t		20.0	female	white	3.9502586549940313	neutral	091	sub-11	2.0	5.0	091_neutral	1.0	dominance	264.4196650648373	
29.0	174.2970167950516	pulse	2.0	t		20.0	female	white	3.9502586549940313	neutral	091	sub-11	2.0	5.0	091_neutral	1.0	dominance	265.11965450000935	
29.0	174.50522777764127	fix	3.0		444	20.0	female	white	3.9502586549940313	neutral	091	sub-11	2.0	5.0	091_neutral	1.0	dominance	265.327865482599	3.766523689359019
29.0	174.99697423389807	pulse	3.0	t		20.0	female	white	3.9502586549940313	neutral	091	sub-11	2.0	5.0	091_neutral	1.0	dominance	265.8196119388558	
29.0	175.69697181908123	pulse	3.0	t		20.0	female	white	3.9502586549940313	neutral	091	sub-11	2.0	5.0	091_neutral	1.0	dominance	266.51960952403897	
29.0	176.39694284127108	pulse	3.0	t		20.0	female	white	3.9502586549940313	neutral	091	sub-11	2.0	5.0	091_neutral	1.0	dominance	267.2195805462288	
29.0	177.09692201347207	pulse	3.0	t		20.0	female	white	3.9502586549940313	neutral	091	sub-11	2.0	5.0	091_neutral	1.0	dominance	267.9195597184298	
29.0	177.79690963753455	pulse	3.0	t		20.0	female	white	3.9502586549940313	neutral	091	sub-11	2.0	5.0	091_neutral	1.0	dominance	268.6195473424923	
30.0	178.27175146700029	face	0.0		145	37.0	male	white	3.898925586947871	smiling	101	sub-11	2.0	5.0	101_smiling	0.0		269.094389171958	1.233331119750801
30.0	178.49689363937068	pulse	0.0	t		37.0	male	white	3.898925586947871	smiling	101	sub-11	2.0	5.0	101_smiling	0.0		269.3195313443284	
30.0	179.19685953007502	pulse	0.0	t		37.0	male	white	3.898925586947871	smiling	101	sub-11	2.0	5.0	101_smiling	0.0		270.01949723503276	
30.0	179.5050825867511	fix	1.0		444	37.0	male	white	3.898925586947871	smiling	101	sub-11	2.0	5.0	101_smiling	0.0		270.32772029170883	3.7582767863605113
30.0	179.89684896525068	pulse	1.0	t		37.0	male	white	3.898925586947871	smiling	101	sub-11	2.0	5.0	101_smiling	0.0		270.7194866702084	
30.0	180.59681696891857	pulse	1.0	t		37.0	male	white	3.898925586947871	smiling	101	sub-11	2.0	5.0	101_smiling	0.0		271.4194546738763	
30.0	181.2967925188932	pulse	1.0	t		37.0	male	white	3.898925586947871	smiling	101	sub-11	2.0	5.0	101_smiling	0.0		272.11943022385094	
30.0	181.99677169109418	pulse	1.0	t		37.0	male	white	3.898925586947871	smiling	101	sub-11	2.0	5.0	101_smiling	0.0		272.8194093960519	
30.0	182.69675327811274	pulse	1.0	t		37.0	male	white	3.898925586947871	smiling	101	sub-11	2.0	5.0	101_smiling	0.0		273.5193909830705	
31.0	183.2633593731116	face	0.0		146	47.0	male	east_asian	2.171110226820533	neutral	024	sub-11	2.0	5.0	024_neutral	0.0		274.08599707806934	1.2415722875557549
31.0	183.39674693921916	pulse	0.0	t		47.0	male	east_asian	2.171110226820533	neutral	024	sub-11	2.0	5.0	024_neutral	0.0		274.2193846441769	
31.0	184.09671433918265	pulse	0.0	t		47.0	male	east_asian	2.171110226820533	neutral	024	sub-11	2.0	5.0	024_neutral	0.0		274.9193520441404	
31.0	184.50493166066735	fix	1.0		444	47.0	male	east_asian	2.171110226820533	neutral	024	sub-11	2.0	5.0	024_neutral	0.0		275.3275693656251	3.7665414986367978
31.0	184.79670588732188	pulse	1.0	t		47.0	male	east_asian	2.171110226820533	neutral	024	sub-11	2.0	5.0	024_neutral	0.0		275.6193435922796	
31.0	185.4966823428549	pulse	1.0	t		47.0	male	east_asian	2.171110226820533	neutral	024	sub-11	2.0	5.0	024_neutral	0.0		276.31932004781265	
31.0	186.19664581874167	pulse	1.0	t		47.0	male	east_asian	2.171110226820533	neutral	024	sub-11	2.0	5.0	024_neutral	0.0		277.0192835236994	
31.0	186.89663404650855	pulse	1.0	t		47.0	male	east_asian	2.171110226820533	neutral	024	sub-11	2.0	5.0	024_neutral	0.0		277.7192717514663	
31.0	187.59661140759636	pulse	1.0	t		47.0	male	east_asian	2.171110226820533	neutral	024	sub-11	2.0	5.0	024_neutral	0.0		278.4192491125541	
32.0	188.27147315930415	face	0.0		145	27.0	female	white	4.181058495821727	smiling	039	sub-11	2.0	5.0	039_smiling	0.0		279.0941108642619	1.233312103064236
32.0	188.29660506869914	pulse	0.0	t		27.0	female	white	4.181058495821727	smiling	039	sub-11	2.0	5.0	039_smiling	0.0		279.1192427736569	
32.0	188.99658061867376	pulse	0.0	t		27.0	female	white	4.181058495821727	smiling	039	sub-11	2.0	5.0	039_smiling	0.0		279.8192183236315	
32.0	189.5047852623684	fix	1.0		443	27.0	female	white	4.181058495821727	smiling	039	sub-11	2.0	5.0	039_smiling	0.0		280.32742296732613	3.766524293063412
32.0	189.69656130013755	pulse	1.0	t		27.0	female	white	4.181058495821727	smiling	039	sub-11	2.0	5.0	039_smiling	0.0		280.5191990050953	
32.0	190.39653715196255	pulse	1.0	t		27.0	female	white	4.181058495821727	smiling	039	sub-11	2.0	5.0	039_smiling	0.0		281.2191748569203	
32.0	191.09650575933847	pulse	1.0	t		27.0	female	white	4.181058495821727	smiling	039	sub-11	2.0	5.0	039_smiling	0.0		281.9191434642962	
32.0	191.79649217599217	pulse	1.0	t		27.0	female	white	4.181058495821727	smiling	039	sub-11	2.0	5.0	039_smiling	0.0		282.6191298809499	
32.0	192.4964683296712	pulse	1.0	t		27.0	female	white	4.181058495821727	smiling	039	sub-11	2.0	5.0	039_smiling	0.0		283.31910603462893	
32.0	193.19644086112385	pulse	1.0	t		27.0	female	white	4.181058495821727	smiling	039	sub-11	2.0	5.0	039_smiling	0.0		284.0190785660816	
33.0	193.2713095554318	face	0.0		146	28.0	male	east_asian	1.5563072025467568	neutral	005	sub-11	2.0	5.0	005_neutral	0.0		284.09394726038954	1.2333111975058273
33.0	193.89643422037625	pulse	0.0	t		28.0	male	east_asian	1.5563072025467568	neutral	005	sub-11	2.0	5.0	005_neutral	0.0		284.719071925334	
33.0	194.50462075293763	fix	1.0		443	28.0	male	east_asian	1.5563072025467568	neutral	005	sub-11	2.0	5.0	005_neutral	0.0		285.32725845789537	3.766544215304748
33.0	194.5964046388617	pulse	1.0	t		28.0	male	east_asian	1.5563072025467568	neutral	005	sub-11	2.0	5.0	005_neutral	0.0		285.41904234381946	
33.0	195.29637928328157	pulse	1.0	t		28.0	male	east_asian	1.5563072025467568	neutral	005	sub-11	2.0	5.0	005_neutral	0.0		286.1190169882393	
33.0	195.99637294438435	pulse	1.0	t		28.0	male	east_asian	1.5563072025467568	neutral	005	sub-11	2.0	5.0	005_neutral	0.0		286.8190106493421	
33.0	196.69633672212512	pulse	1.0	t		28.0	male	east_asian	1.5563072025467568	neutral	005	sub-11	2.0	5.0	005_neutral	0.0		287.51897442708287	
33.0	197.39631981840284	pulse	1.0	t		28.0	male	east_asian	1.5563072025467568	neutral	005	sub-11	2.0	5.0	005_neutral	0.0		288.2189575233606	
33.0	198.0963104609873	pulse	1.0	t		28.0	male	east_asian	1.5563072025467568	neutral	005	sub-11	2.0	5.0	005_neutral	0.0		288.91894816594504	
34.0	198.27116496824237	face	0.0		146	22.0	female	west_asian	3.8205332272184642	neutral	066	sub-11	2.0	5.0	066_neutral	0.0		289.0938026732001	1.2416712950689544
34.0	198.79629144430146	pulse	0.0	t		22.0	female	west_asian	3.8205332272184642	neutral	066	sub-11	2.0	5.0	066_neutral	0.0		289.6189291492592	
34.0	199.49626789983085	pulse	0.0	t		22.0	female	west_asian	3.8205332272184642	neutral	066	sub-11	2.0	5.0	066_neutral	0.0		290.3189056047886	
34.0	199.51283626331133	fix	1.0		443	22.0	female	west_asian	3.8205332272184642	neutral	066	sub-11	2.0	5.0	066_neutral	0.0		290.33547396826907	3.758193777015549
34.0	200.1962494868494	pulse	1.0	t		22.0	female	west_asian	3.8205332272184642	neutral	066	sub-11	2.0	5.0	066_neutral	0.0		291.01888719180715	
34.0	200.89622473497366	pulse	1.0	t		22.0	female	west_asian	3.8205332272184642	neutral	066	sub-11	2.0	5.0	066_neutral	0.0		291.7188624399314	
34.0	201.59619153123276	pulse	1.0	t		22.0	female	west_asian	3.8205332272184642	neutral	066	sub-11	2.0	5.0	066_neutral	0.0		292.4188292361905	
34.0	202.29617402380973	pulse	1.0	t		22.0	female	west_asian	3.8205332272184642	neutral	066	sub-11	2.0	5.0	066_neutral	0.0		293.11881172876747	
34.0	202.99616376083577	pulse	1.0	t		22.0	female	west_asian	3.8205332272184642	neutral	066	sub-11	2.0	5.0	066_neutral	0.0		293.8188014657935	
35.0	203.27103004032688	face	0.0		145	36.0	female	white	2.7548746518105847	smiling	011	sub-11	2.0	5.0	011_smiling	1.0	dominance	294.0936677452846	1.2333111975058273
35.0	203.69613387747086	pulse	0.0	t		36.0	female	white	2.7548746518105847	smiling	011	sub-11	2.0	5.0	011_smiling	1.0	dominance	294.5187715824286	
35.0	204.39612119967933	pulse	0.0	t		36.0	female	white	2.7548746518105847	smiling	011	sub-11	2.0	5.0	011_smiling	1.0	dominance	295.21875890463707	
35.0	204.5043412378327	fix	1.0		177	36.0	female	white	2.7548746518105847	smiling	011	sub-11	2.0	5.0	011_smiling	1.0	dominance	295.32697894279045	1.499942949943943
35.0	205.09610882374182	pulse	1.0	t		36.0	female	white	2.7548746518105847	smiling	011	sub-11	2.0	5.0	011_smiling	1.0	dominance	295.91874652869956	
35.0	205.79608316630765	pulse	1.0	t		36.0	female	white	2.7548746518105847	smiling	011	sub-11	2.0	5.0	011_smiling	1.0	dominance	296.6187208712654	
35.0	206.00428418777665	rating	2.0		295	36.0	female	white	2.7548746518105847	smiling	011	sub-11	2.0	5.0	011_smiling	1.0	dominance	296.8269218927344	2.4999236313997244
35.0	206.49606626258537	pulse	2.0	t		36.0	female	white	2.7548746518105847	smiling	011	sub-11	2.0	5.0	011_smiling	1.0	dominance	297.3187039675431	
35.0	207.196042114414	pulse	2.0	t		36.0	female	white	2.7548746518105847	smiling	011	sub-11	2.0	5.0	011_smiling	1.0	dominance	298.01867981937176	
35.0	207.59601645697694	response	2.0	b		36.0	female	white	2.7548746518105847	smiling	011	sub-11	2.0	5.0	011_smiling	1.0	dominance	298.4186541619347	
35.0	207.89600015696124	pulse	2.0	t		36.0	female	white	2.7548746518105847	smiling	011	sub-11	2.0	5.0	011_smiling	1.0	dominance	298.718637861919	
35.0	208.50420781917637	fix	3.0		443	36.0	female	white	2.7548746518105847	smiling	011	sub-11	2.0	5.0	011_smiling	1.0	dominance	299.3268455241341	3.766542706045584
35.0	208.59599110139607	pulse	3.0	t		36.0	female	white	2.7548746518105847	smiling	011	sub-11	2.0	5.0	011_smiling	1.0	dominance	299.4186288063538	
35.0	209.29596876433789	pulse	3.0	t		36.0	female	white	2.7548746518105847	smiling	011	sub-11	2.0	5.0	011_smiling	1.0	dominance	300.1186064692956	
35.0	209.9959515587616	pulse	3.0	t		36.0	female	white	2.7548746518105847	smiling	011	sub-11	2.0	5.0	011_smiling	1.0	dominance	300.81858926371933	
35.0	210.69593465504295	pulse	3.0	t		36.0	female	white	2.7548746518105847	smiling	011	sub-11	2.0	5.0	011_smiling	1.0	dominance	301.5185723600007	
35.0	211.3958996401925	pulse	3.0	t		36.0	female	white	2.7548746518105847	smiling	011	sub-11	2.0	5.0	011_smiling	1.0	dominance	302.21853734515025	
35.0	212.09588032165266	pulse	3.0	t		36.0	female	white	2.7548746518105847	smiling	011	sub-11	2.0	5.0	011_smiling	1.0	dominance	302.9185180266104	
36.0	212.27075052522196	face	0.0		146	24.0	female	east_asian	2.9076800636689217	smiling	034	sub-11	2.0	5.0	034_smiling	0.0		303.0933882301797	1.241644732075656
36.0	212.79586975682832	pulse	0.0	t		24.0	female	east_asian	2.9076800636689217	smiling	034	sub-11	2.0	5.0	034_smiling	0.0		303.61850746178607	
36.0	213.4958474197665	pulse	0.0	t		24.0	female	east_asian	2.9076800636689217	smiling	034	sub-11	2.0	5.0	034_smiling	0.0		304.31848512472425	
36.0	213.5123952572976	fix	1.0		443	24.0	female	east_asian	2.9076800636689217	smiling	034	sub-11	2.0	5.0	034_smiling	0.0		304.33503296225535	3.7582230566767976
36.0	214.1958244790003	pulse	1.0	t		24.0	female	east_asian	2.9076800636689217	smiling	034	sub-11	2.0	5.0	034_smiling	0.0		305.01846218395804	
36.0	214.89581451788035	pulse	1.0	t		24.0	female	east_asian	2.9076800636689217	smiling	034	sub-11	2.0	5.0	034_smiling	0.0		305.7184522228381	
36.0	215.59578463451544	pulse	1.0	t		24.0	female	east_asian	2.9076800636689217	smiling	034	sub-11	2.0	5.0	034_smiling	0.0		306.4184223394732	
36.0	216.29576229745726	pulse	1.0	t		24.0	female	east_asian	2.9076800636689217	smiling	034	sub-11	2.0	5.0	034_smiling	0.0		307.118400002415	
36.0	216.99574871410732	pulse	1.0	t		24.0	female	east_asian	2.9076800636689217	smiling	034	sub-11	2.0	5.0	034_smiling	0.0		307.81838641906506	
37.0	217.2706183139744	face	0.0		145	19.0	male	white	2.243931555909272	neutral	130	sub-11	2.0	5.0	130_neutral	0.0		308.09325601893215	1.233293086377671
37.0	217.6957293955711	pulse	0.0	t		19.0	male	white	2.243931555909272	neutral	130	sub-11	2.0	5.0	130_neutral	0.0		308.51836710052885	
37.0	218.3956913621987	pulse	0.0	t		19.0	male	white	2.243931555909272	neutral	130	sub-11	2.0	5.0	130_neutral	0.0		309.21832906715645	
37.0	218.50391140035208	fix	1.0		444	19.0	male	white	2.243931555909272	neutral	130	sub-11	2.0	5.0	130_neutral	0.0		309.3265491053098	3.758279201178084
37.0	219.09567777884877	pulse	1.0	t		19.0	male	white	2.243931555909272	neutral	130	sub-11	2.0	5.0	130_neutral	0.0		309.9183154838065	
37.0	219.79566570476163	pulse	1.0	t		19.0	male	white	2.243931555909272	neutral	130	sub-11	2.0	5.0	130_neutral	0.0		310.6183034097194	
37.0	220.4956469899298	pulse	1.0	t		19.0	male	white	2.243931555909272	neutral	130	sub-11	2.0	5.0	130_neutral	0.0		311.31828469488755	
37.0	221.19562133249565	pulse	1.0	t		19.0	male	white	2.243931555909272	neutral	130	sub-11	2.0	5.0	130_neutral	0.0		312.0182590374534	
37.0	221.89559597691186	pulse	1.0	t		19.0	male	white	2.243931555909272	neutral	130	sub-11	2.0	5.0	130_neutral	0.0		312.7182336818696	
38.0	222.26219060153016	face	0.0		146	26.0	female	white	4.854755272582572	neutral	027	sub-11	2.0	5.0	027_neutral	0.0		313.0848283064879	1.2415879838699766
38.0	222.5955857139379	pulse	0.0	t		26.0	female	white	4.854755272582572	neutral	027	sub-11	2.0	5.0	027_neutral	0.0		313.41822341889565	
38.0	223.29556126391253	pulse	0.0	t		26.0	female	white	4.854755272582572	neutral	027	sub-11	2.0	5.0	027_neutral	0.0		314.1181989688703	
38.0	223.50377858540014	fix	1.0		444	26.0	female	white	4.854755272582572	neutral	027	sub-11	2.0	5.0	027_neutral	0.0		314.3264162903579	3.76652731158174
38.0	223.99555401946054	pulse	1.0	t		26.0	female	white	4.854755272582572	neutral	027	sub-11	2.0	5.0	027_neutral	0.0		314.8181917244183	
38.0	224.695511156453	pulse	1.0	t		26.0	female	white	4.854755272582572	neutral	027	sub-11	2.0	5.0	027_neutral	0.0		315.51814886141074	
38.0	225.395503912001	pulse	1.0	t		26.0	female	white	4.854755272582572	neutral	027	sub-11	2.0	5.0	027_neutral	0.0		316.21814161695875	
38.0	226.09547463234412	pulse	1.0	t		26.0	female	white	4.854755272582572	neutral	027	sub-11	2.0	5.0	027_neutral	0.0		316.91811233730186	
38.0	226.79545561565465	pulse	1.0	t		26.0	female	white	4.854755272582572	neutral	027	sub-11	2.0	5.0	027_neutral	0.0		317.6180933206124	
39.0	227.27030589698188	face	0.0		145	20.0	male	black	2.609629924393156	smiling	043	sub-11	2.0	5.0	043_smiling	0.0		318.0929436019396	1.2333244790024764
39.0	227.49544535268433	pulse	0.0	t		20.0	male	black	2.609629924393156	smiling	043	sub-11	2.0	5.0	043_smiling	0.0		318.31808305764207	
39.0	228.1954070174579	pulse	0.0	t		20.0	male	black	2.609629924393156	smiling	043	sub-11	2.0	5.0	043_smiling	0.0		319.01804472241565	
39.0	228.50363037598436	fix	1.0		444	20.0	male	black	2.609629924393156	smiling	043	sub-11	2.0	5.0	043_smiling	0.0		319.3262680809421	3.7498883147018205
39.0	228.89539132114442	pulse	1.0	t		20.0	male	black	2.609629924393156	smiling	043	sub-11	2.0	5.0	043_smiling	0.0		319.71802902610216	
39.0	229.59540158411983	pulse	1.0	t		20.0	male	black	2.609629924393156	smiling	043	sub-11	2.0	5.0	043_smiling	0.0		320.41803928907757	
39.0	230.29535389147713	pulse	1.0	t		20.0	male	black	2.609629924393156	smiling	043	sub-11	2.0	5.0	043_smiling	0.0		321.1179915964349	
39.0	230.9953427229484	pulse	1.0	t		20.0	male	black	2.609629924393156	smiling	043	sub-11	2.0	5.0	043_smiling	0.0		321.81798042790615	
39.0	231.6953134432879	pulse	1.0	t		20.0	male	black	2.609629924393156	smiling	043	sub-11	2.0	5.0	043_smiling	0.0		322.51795114824563	
40.0	232.25351869068618	fix	0.0		720													323.0761563956439	5.999811342397152
40.0	232.39530831179945	pulse	0.0	t														323.2179460167572	
40.0	233.09526454323714	pulse	0.0	t														323.9179022481949	
40.0	233.79524673396008	pulse	0.0	t														324.6178844389178	
40.0	234.49522862282902	pulse	0.0	t														325.31786632778676	
40.0	235.19520779503	pulse	0.0	t														326.01784549998774	
40.0	235.89518666537697	pulse	0.0	t														326.7178243703347	
40.0	236.59516130979682	pulse	0.0	t														327.41779901475456	
40.0	237.29514500977893	pulse	0.0	t														328.1177827147367	
40.0	237.99512146530833	pulse	0.0	t														328.8177591702661	
