trial_nr	onset	event_type	phase	response	nr_frames	trial_type	stim_name	task_probe	onset_abs	duration
0.0	0.057521250393619994	baseline	0.0		41.0		baseline	0.0	124.77452699765854	0.3496993552435015
0.0	0.4072206056371215	ISI	1.0		11.0		baseline	0.0	125.12422635290204	0.09999547221741523
1.0	0.5072160778545367	baseline	0.0		48.0		baseline	0.0	125.22422182511946	0.3999882277676079
1.0	0.7073238390767074	pulse	0.0	t			baseline	0.0	125.42432958634163	
1.0	0.9072043056221446	ISI	1.0		11.0		baseline	0.0	125.62421005288707	0.09999547221741523
2.0	1.0071997778395598	baseline	0.0		48.0		baseline	0.0	125.72420552510448	0.39996649440945475
2.0	1.4071662722490146	ISI	1.0		11.0		baseline	0.0	126.12417201951394	0.09999728333059466
2.0	1.4117348047620908	pulse	1.0	t			baseline	0.0	126.12874055202701	
3.0	1.5071635555796092	baseline	0.0		48.0		baseline	0.0	126.22416930284453	0.39998883146836306
3.0	1.9071523870479723	ISI	1.0		11.0		baseline	0.0	126.62415813431289	0.09999426480862894
4.0	2.0071466518566012	baseline	0.0		48.0		baseline	0.0	126.72415239912152	0.3999912462895736
4.0	2.107271316803235	pulse	0.0	t			baseline	0.0	126.82427706406816	
4.0	2.407137898146175	ISI	1.0		11.0		baseline	0.0	127.1241436454111	0.09999517036339967
5.0	2.5071330685095745	baseline	0.0		48.0		baseline	0.0	127.2241388157745	0.39998973702677176
5.0	2.807240829733928	pulse	0.0	t			baseline	0.0	127.52424657699885	
5.0	2.9071228055363463	ISI	1.0		11.0		baseline	0.0	127.62412855280127	0.09999547221741523
6.0	3.0071182777537615	baseline	0.0		48.0		baseline	0.0	127.72412402501868	0.3999873222091992
6.0	3.4071055999629607	ISI	1.0		11.0		baseline	0.0	128.12411134722788	0.09998430368796107
7.0	3.5070899036509218	baseline	0.0		47.0		baseline	0.0	128.22409565091584	0.40000181111099664
7.0	3.5112442949939577	pulse	0.0	t			baseline	0.0	128.22825004225888	
7.0	3.9070917147619184	ISI	1.0		11.0		baseline	0.0	128.62409746202684	0.09999637777582393
8.0	4.007088092537742	baseline	0.0		48.0		baseline	0.0	128.72409383980266	0.39998973702677176
8.0	4.207194646351127	pulse	0.0	t			baseline	0.0	128.92420039361605	
8.0	4.407077829564514	ISI	1.0		11.0		baseline	0.0	129.12408357682943	0.09998400183394551
9.0	4.50706183139846	baseline	0.0		48.0		baseline	0.0	129.22406757866338	0.4000003018518328
9.0	4.907062133250292	ISI	1.0		11.0		baseline	0.0	129.6240678805152	0.09999577407143079
9.0	4.911560334210662	pulse	1.0	t			baseline	0.0	129.62856608147558	
10.0	5.007057907321723	baseline	0.0		48.0		baseline	0.0	129.72406365458664	0.3999891333223786
10.0	5.407047040644102	ISI	1.0		11.0		baseline	0.0	130.12405278790902	0.09999758518097224
11.0	5.507044625825074	baseline	0.0		48.0		baseline	0.0	130.22405037309	0.3999900388807873
11.0	5.607153594457486	pulse	0.0	t			baseline	0.0	130.3241593417224	
11.0	5.907034664705861	ISI	1.0		5.0		baseline	0.0	130.62404041197078	0.1249990944415913
12.0	6.032033759147453	house	0.0		45.0	place	house-106.jpg	0.0	130.74903950641237	0.3749375166007667
12.0	6.3070868851282285	pulse	0.0	t		place	house-106.jpg	0.0	131.02409263239315	
12.0	6.406971275748219	ISI	1.0		6.0	place	house-106.jpg	0.0	131.12397702301314	0.11668427471158793
13.0	6.523655550459807	house	0.0		46.0	place	house-127.jpg	0.0	131.24066129772473	0.3833003308282059
13.0	6.906955881288013	ISI	1.0		7.0	place	house-127.jpg	0.0	131.62396162855293	0.11668035063121351
14.0	7.023636231919227	house	0.0		45.0	place	house-62.jpg	0.0	131.74064197918415	0.3833066697261529
14.0	7.015472338269319	pulse	0.0	t		place	house-62.jpg	0.0	131.73247808553424	
14.0	7.40694290164538	ISI	1.0		5.0	place	house-62.jpg	0.0	132.1239486489103	0.11668276544878609
15.0	7.523625667094166	house	0.0		46.0	place	house-55.jpg	0.0	132.2406314143591	0.3833054623173666
15.0	7.707046436938981	pulse	0.0	t		place	house-55.jpg	0.0	132.4240521842039	
15.0	7.906931129411532	ISI	1.0		4.0	place	house-55.jpg	0.0	132.62393687667645	0.11668065248522907
16.0	8.023611781896761	house	0.0		46.0	place	house-133.jpg	0.0	132.74061752916168	0.3832964067514695
16.0	8.40690818864823	ISI	1.0		6.0	place	house-133.jpg	0.0	133.12391393591315	0.11668850063870195
16.0	8.454484919468086	pulse	1.0	t		place	house-133.jpg	0.0	133.171490666733	
17.0	8.523596689286933	house	0.0		46.0	place	house-94.jpg	0.0	133.24060243655185	0.3833015382406302
17.0	8.906898227527563	ISI	1.0		8.0	place	house-94.jpg	0.0	133.62390397479248	0.11668548211673624
18.0	9.0235837096443	house	0.0		46.0	place	house-81.jpg	0.0	133.74058945690922	0.3832994252734352
18.0	9.107020779505547	pulse	0.0	t		place	house-81.jpg	0.0	133.82402652677047	
18.0	9.406883134917734	ISI	1.0		5.0	place	house-81.jpg	0.0	134.12388888218265	0.11667521914569079
19.0	9.523558354063425	house	0.0		46.0	place	house-5.jpg	0.0	134.24056410132835	0.3833111975072825
19.0	9.806984255392308	pulse	0.0	t		place	house-5.jpg	0.0	134.52399000265723	
19.0	9.906869551570708	ISI	1.0		6.0	place	house-5.jpg	0.0	134.62387529883563	0.11668638767514494
20.0	10.023555939245853	house	0.0		46.0	place	house-88.jpg	0.0	134.74056168651077	0.38330002897782833
20.0	10.406855968223681	ISI	1.0		6.0	place	house-88.jpg	0.0	135.1238617154886	0.1166764265508391
21.0	10.52353239477452	house	0.0		45.0	place	house-80.jpg	0.0	135.24053814203944	0.3833048586129735
21.0	10.515710499628767	pulse	0.0	t		place	house-80.jpg	0.0	135.2327162468937	
21.0	10.906837253387494	ISI	1.0		6.0	place	house-80.jpg	0.0	135.6238430006524	0.11668548212037422
22.0	11.023522735507868	house	0.0		46.0	place	house-26.jpg	0.0	135.7405284827728	0.38330002897782833
22.0	11.206944712757831	pulse	0.0	t		place	house-26.jpg	0.0	135.92395046002275	
22.0	11.406822764485696	ISI	1.0		7.0	place	house-26.jpg	0.0	136.12382851175062	0.11668668952552252
23.0	11.523509454011219	house	0.0		46.0	place	house-83.jpg	0.0	136.24051520127614	0.38329761416025576
23.0	11.906807068171474	ISI	1.0		7.0	place	house-83.jpg	0.0	136.6238128154364	0.11668487841598107
23.0	11.939531465071923	pulse	1.0	t		place	house-83.jpg	0.0	136.65653721233684	
24.0	12.023491946587455	adult	0.0		46.0	face	adult-23.jpg	0.0	136.74049769385238	0.3833323271574045
24.0	12.40682427374486	ISI	1.0		7.0	face	adult-23.jpg	0.0	137.12383002100978	0.1166891043430951
25.0	12.523513378087955	adult	0.0		46.0	face	adult-100.jpg	0.0	137.24051912535288	0.3832644104222709
25.0	12.606899434933439	pulse	0.0	t		face	adult-100.jpg	0.0	137.32390518219836	
25.0	12.906777788510226	ISI	1.0		7.0	face	adult-100.jpg	0.0	137.62378353577515	0.11667853952167206
26.0	13.023456328031898	adult	0.0		46.0	face	adult-35.jpg	0.0	137.74046207529682	0.38330727342690807
26.0	13.30688132380601	pulse	0.0	t		face	adult-35.jpg	0.0	138.02388707107093	
26.0	13.406763601458806	ISI	1.0		7.0	face	adult-35.jpg	0.0	138.12376934872373	0.11668548212037422
27.0	13.52344908357918	adult	0.0		46.0	face	adult-33.jpg	0.0	138.2404548308441	0.38329912341941963
27.0	13.9067482069986	ISI	1.0		8.0	face	adult-33.jpg	0.0	138.62375395426352	0.11667793581364094
28.0	14.02342614281224	adult	0.0		45.0	face	adult-105.jpg	0.0	138.74043189007716	0.3833063678757753
28.0	14.015195841686364	pulse	0.0	t		face	adult-105.jpg	0.0	138.73220158895128	
28.0	14.406732510688016	ISI	1.0		7.0	face	adult-105.jpg	0.0	139.12373825795294	0.11668819878832437
29.0	14.52342070947634	adult	0.0		46.0	face	adult-44.jpg	0.0	139.24042645674126	0.38329882156904205
29.0	14.706839366353961	pulse	0.0	t		face	adult-44.jpg	0.0	139.42384511361888	
29.0	14.906719531045383	ISI	1.0		7.0	face	adult-44.jpg	0.0	139.6237252783103	0.11668699137953809
30.0	15.02340652242492	adult	0.0		46.0	face	adult-55.jpg	0.0	139.74041226968984	0.38329670860184706
30.0	15.406703231026768	ISI	1.0		7.0	face	adult-55.jpg	0.0	140.1237089782917	0.10834681606502272
30.0	15.44559627876879	pulse	1.0	t		face	adult-55.jpg	0.0	140.1626020260337	
31.0	15.51505004709179	adult	0.0		47.0	face	adult-37.jpg	0.0	140.2320557943567	0.3916380913287867
31.0	15.906688138420577	ISI	1.0		6.0	face	adult-37.jpg	0.0	140.6236938856855	0.10835526792288874
32.0	16.015043406343466	adult	0.0		47.0	face	adult-37.jpg	1.0	140.7320491536084	0.39163084687606897
32.0	16.106797710755927	pulse	0.0	t		face	adult-37.jpg	1.0	140.82380345802085	
32.0	16.406674253219535	ISI	1.0		6.0	face	adult-37.jpg	1.0	141.12368000048446	0.11668880249271751
32.0	16.481778694069362	response	1.0	b		face	adult-37.jpg	1.0	141.19878444133428	
33.0	16.523363055712252	adult	0.0		46.0	face	adult-87.jpg	0.0	141.24036880297717	0.3832964067514695
33.0	16.806751829226414	pulse	0.0	t		face	adult-87.jpg	0.0	141.52375757649133	
33.0	16.906659462463722	ISI	1.0		4.0	face	adult-87.jpg	0.0	141.62366520972864	0.10835164569652989
34.0	17.01501110816025	adult	0.0		47.0	face	adult-113.jpg	0.0	141.73201685542517	0.39163295984326396
34.0	17.406644068003516	ISI	1.0		6.0	face	adult-113.jpg	0.0	142.12364981526844	0.10834802347017103
35.0	17.514992091473687	adult	0.0		46.0	face	adult-126.jpg	0.0	142.2319978387386	0.3916377894784091
35.0	17.510490570140973	pulse	0.0	t		face	adult-126.jpg	0.0	142.2274963174059	
35.0	17.906629880952096	ISI	1.0		6.0	face	adult-126.jpg	0.0	142.62363562821702	0.10835285310531617
36.0	18.014982734057412	car	0.0		47.0	object	car-22.jpg	0.0	142.73198848132233	0.39163326169364154
36.0	18.206734019946452	pulse	0.0	t		object	car-22.jpg	0.0	142.92373976721137	
36.0	18.406615995751054	ISI	1.0		5.0	object	car-22.jpg	0.0	143.12362174301597	0.10852007920766482
37.0	18.51513607495872	car	0.0		47.0	object	car-79.jpg	0.0	143.23214182222364	0.3914968245153432
37.0	18.90663289947406	ISI	1.0		6.0	object	car-79.jpg	0.0	143.62363864673898	0.11669091545627452
37.0	18.947511530754127	pulse	1.0	t		object	car-79.jpg	0.0	143.66451727801905	
38.0	19.023323814930336	car	0.0		46.0	object	car-79.jpg	1.0	143.74032956219526	0.3832961049010919
38.0	19.39840320204894	response	0.0	b		object	car-79.jpg	1.0	144.11540894931386	
38.0	19.406619919831428	ISI	1.0		7.0	object	car-79.jpg	1.0	144.12362566709635	0.1166562024554878
39.0	19.523276122286916	car	0.0		46.0	object	car-53.jpg	0.0	144.24028186955184	0.3833265919711266
39.0	19.606692666202434	pulse	0.0	t		object	car-53.jpg	0.0	144.32369841346735	
39.0	19.906602714258042	ISI	1.0		5.0	object	car-53.jpg	0.0	144.62360846152296	0.11667944507280481
40.0	20.023282159330847	car	0.0		46.0	object	car-28.jpg	0.0	144.74028790659577	0.38327316413415247
40.0	20.30667244210781	pulse	0.0	t		object	car-28.jpg	0.0	145.02367818937273	
40.0	20.406555323465	ISI	1.0		7.0	object	car-28.jpg	0.0	145.12356107072992	0.1166866895291605
41.0	20.52324201299416	car	0.0		46.0	object	car-33.jpg	0.0	145.24024776025908	0.38330214194138534
41.0	20.906544154935546	ISI	1.0		7.0	object	car-33.jpg	0.0	145.62354990220047	0.1166773321092478
42.0	21.023221487044793	car	0.0		45.0	object	car-87.jpg	0.0	145.7402272343097	0.3833054623173666
42.0	21.015294849195925	pulse	0.0	t		object	car-87.jpg	0.0	145.73230059646085	
42.0	21.40652694936216	ISI	1.0		7.0	object	car-87.jpg	0.0	146.12353269662708	0.11668638767514494
43.0	21.523213337037305	car	0.0		46.0	object	car-104.jpg	0.0	146.24021908430223	0.3832979160142713
43.0	21.706631692064548	pulse	0.0	t		object	car-104.jpg	0.0	146.42363743932947	
43.0	21.906511253051576	ISI	1.0		7.0	object	car-104.jpg	0.0	146.6235170003165	0.11668638767514494
44.0	22.02319764072672	car	0.0		46.0	object	car-84.jpg	0.0	146.74020338799164	0.38330184009100776
44.0	22.40649948081773	ISI	1.0		7.0	object	car-84.jpg	0.0	147.12350522808265	0.11668759508029325
44.0	22.439803132019733	pulse	1.0	t		object	car-84.jpg	0.0	147.15680887928465	
45.0	22.523187075898022	car	0.0		46.0	object	car-85.jpg	0.0	147.24019282316294	0.3832948974923056
45.0	22.906481973390328	ISI	1.0		7.0	object	car-85.jpg	0.0	147.62348772065525	0.11668548211673624
46.0	23.023167455507064	car	0.0		46.0	object	car-63.jpg	0.0	147.74017320277198	0.38330093453623704
46.0	23.106595167952037	pulse	0.0	t		object	car-63.jpg	0.0	147.82360091521696	
46.0	23.4064683900433	ISI	1.0		7.0	object	car-63.jpg	0.0	148.12347413730822	0.11668397285757237
47.0	23.523152362900873	car	0.0		46.0	object	car-62.jpg	0.0	148.2401581101658	0.38330002897782833
47.0	23.806570114222268	pulse	0.0	t		object	car-62.jpg	0.0	148.5235758614872	
47.0	23.9064523918787	ISI	1.0		11.0	object	car-62.jpg	0.0	148.62345813914362	0.09999849073938094
48.0	24.006450882618083	baseline	0.0		48.0		baseline	0.0	148.723456629883	0.3999864166507905
48.0	24.406437299268873	ISI	1.0		11.0		baseline	0.0	149.1234430465338	0.09999818888900336
49.0	24.506435488157877	baseline	0.0		47.0		baseline	0.0	149.2234412354228	0.3999924536947219
49.0	24.51064481659705	pulse	0.0	t			baseline	0.0	149.22765056386197	
49.0	24.9064279418526	ISI	1.0		11.0		baseline	0.0	149.62343368911752	0.09999245369544951
50.0	25.006420395548048	baseline	0.0		48.0		baseline	0.0	149.72342614281297	0.3999843036872335
50.0	25.206511554901226	pulse	0.0	t			baseline	0.0	149.92351730216615	
50.0	25.40640469923528	ISI	1.0		11.0		baseline	0.0	150.1234104465002	0.0999903407318925
51.0	25.506395039967174	baseline	0.0		48.0		baseline	0.0	150.2234007872321	0.4000000000014552
51.0	25.90639503996863	ISI	1.0		11.0		baseline	0.0	150.62340078723355	0.10000452777967439
51.0	25.910884789067495	pulse	1.0	t			baseline	0.0	150.62789053633242	
52.0	26.006399567748304	baseline	0.0		48.0		baseline	0.0	150.72340531501322	0.4000485981996462
52.0	26.40644816594795	ISI	1.0		11.0		baseline	0.0	151.12345391321287	0.09999607592180837
53.0	26.506444241869758	baseline	0.0		48.0		baseline	0.0	151.22344998913468	0.3999882277639699
53.0	26.606552003093384	pulse	0.0	t			baseline	0.0	151.3235577503583	
53.0	26.906432469633728	ISI	1.0		11.0		baseline	0.0	151.62343821689865	0.09999637777582393
54.0	27.006428847409552	baseline	0.0		48.0		baseline	0.0	151.72343459467447	0.3999882277639699
54.0	27.30653540122512	pulse	0.0	t			baseline	0.0	152.02354114849004	
54.0	27.406417075173522	ISI	1.0		11.0		baseline	0.0	152.12342282243844	0.09999818888900336
55.0	27.506415264062525	baseline	0.0		48.0		baseline	0.0	152.22342101132745	0.39998581294639735
55.0	27.906401077008923	ISI	1.0		11.0		baseline	0.0	152.62340682427384	0.09999909444377408
56.0	28.006400171452697	baseline	0.0		47.0		baseline	0.0	152.72340591871762	0.3999900388807873
56.0	28.01060949989187	pulse	0.0	t			baseline	0.0	152.7276152471568	
56.0	28.406390210333484	ISI	1.0		11.0		baseline	0.0	153.1233959575984	0.09999667962620151
57.0	28.506386889959686	baseline	0.0		48.0		baseline	0.0	153.2233926372246	0.3999849073916266
57.0	28.706491934510268	pulse	0.0	t			baseline	0.0	153.4234976817752	
57.0	28.906371797351312	ISI	1.0		11.0		baseline	0.0	153.62337754461623	0.09999728333059466
58.0	29.006369080681907	baseline	0.0		48.0		baseline	0.0	153.72337482794683	0.39999003887714935
58.0	29.406359119559056	ISI	1.0		11.0		baseline	0.0	154.12336486682398	0.09999486851302208
58.0	29.410882676103938	pulse	1.0	t			baseline	0.0	154.12788842336886	
59.0	29.506353988072078	baseline	0.0		48.0		baseline	0.0	154.223359735337	0.3999894351763942
59.0	29.906343423248472	ISI	1.0		7.0		baseline	0.0	154.6233491705134	0.11665046726557193
60.0	30.022993890514044	body	0.0		46.0	body	body-16.jpg	0.0	154.73999963777896	0.38329761416025576
60.0	30.106415867765463	pulse	0.0	t		body	body-16.jpg	0.0	154.82342161503038	
60.0	30.4062915046743	ISI	1.0		7.0	body	body-16.jpg	0.0	155.12329725193922	0.11668729322991567
61.0	30.522978797904216	body	0.0		46.0	body	body-2.jpg	0.0	155.23998454516914	0.3832970104558626
61.0	30.806394134411676	pulse	0.0	t		body	body-2.jpg	0.0	155.5233998816766	
61.0	30.90627580836008	ISI	1.0		7.0	body	body-2.jpg	0.0	155.623281555625	0.11668729323355365
62.0	31.022963101593632	body	0.0		46.0	body	body-117.jpg	0.0	155.73996884885855	0.38329912341941963
62.0	31.40626222501305	ISI	1.0		5.0	body	body-117.jpg	0.0	156.12326797227797	0.11668306730280165
63.0	31.522945292315853	body	0.0		45.0	body	body-3.jpg	0.0	156.23995103958077	0.3833108956569049
63.0	31.513155924756575	pulse	0.0	t		body	body-3.jpg	0.0	156.2301616720215	
63.0	31.906256187972758	ISI	1.0		7.0	body	body-3.jpg	0.0	156.62326193523768	0.11668035063121351
64.0	32.02293653860397	body	0.0		46.0	body	body-67.jpg	0.0	156.7399422858689	0.38329489748866763
64.0	32.20635519548159	pulse	0.0	t		body	body-67.jpg	0.0	156.9233609427465	
64.0	32.40623143609264	ISI	1.0		7.0	body	body-67.jpg	0.0	157.12323718335756	0.11668759508393123
65.0	32.52291903117657	body	0.0		46.0	body	body-84.jpg	0.0	157.2399247784415	0.38329882156904205
65.0	32.90621785274561	ISI	1.0		7.0	body	body-84.jpg	0.0	157.62322360001053	0.11668880249271751
65.0	32.94138574292083	pulse	1.0	t		body	body-84.jpg	0.0	157.65839149018575	
66.0	33.02290665523833	body	0.0		46.0	body	body-84.jpg	1.0	157.73991240250325	0.38329670860548504
66.0	33.406203363843815	ISI	1.0		5.0	body	body-84.jpg	1.0	158.12320911110874	0.11668819878468639
66.0	33.460393977446074	response	1.0	b		body	body-84.jpg	1.0	158.177399724711	
67.0	33.5228915626285	body	0.0		46.0	body	body-87.jpg	0.0	158.23989730989342	0.38329670860548504
67.0	33.606279430587165	pulse	0.0	t		body	body-87.jpg	0.0	158.32328517785209	
67.0	33.90618827123399	ISI	1.0		6.0	body	body-87.jpg	0.0	158.6231940184989	0.11668850063870195
68.0	34.02287677187269	body	0.0		46.0	body	body-51.jpg	0.0	158.7398825191376	0.38329670860548504
68.0	34.30628878800417	pulse	0.0	t		body	body-51.jpg	0.0	159.0232945352691	
68.0	34.406173480478174	ISI	1.0		7.0	body	body-51.jpg	0.0	159.1231792277431	0.1166891043430951
69.0	34.52286258482127	body	0.0		46.0	body	body-95.jpg	0.0	159.2398683320862	0.383265014126664
69.0	34.90612759894793	ISI	1.0		7.0	body	body-95.jpg	0.0	159.62313334621285	0.11667914322242723
70.0	35.02280674217036	body	0.0		45.0	body	body-96.jpg	0.0	159.73981248943528	0.38330697158016847
70.0	35.013024015359406	pulse	0.0	t		body	body-96.jpg	0.0	159.73002976262433	
70.0	35.40611371375053	ISI	1.0		7.0	body	body-96.jpg	0.0	160.12311946101545	0.11668638767514494
71.0	35.52280010142567	body	0.0		46.0	body	body-8.jpg	0.0	160.2398058486906	0.38329912341941963
71.0	35.70622207867564	pulse	0.0	t		body	body-8.jpg	0.0	160.42322782594056	
71.0	35.90609922484509	ISI	1.0		7.0	body	body-8.jpg	0.0	160.62310497211	0.11668789693430881
72.0	36.0227871217794	car	0.0		46.0	object	car-100.jpg	0.0	160.73979286904432	0.3832961049010919
72.0	36.406083226680494	ISI	1.0		7.0	object	car-100.jpg	0.0	161.1230889739454	0.1166549950503395
72.0	36.441559609767864	pulse	1.0	t		object	car-100.jpg	0.0	161.15856535703278	
73.0	36.52273822173083	car	0.0		46.0	object	car-82.jpg	0.0	161.23974396899575	0.38332991233983194
73.0	36.906068134070665	ISI	1.0		7.0	object	car-82.jpg	0.0	161.62307388133559	0.11667582285008393
74.0	37.02274395692075	car	0.0		46.0	object	car-133.jpg	0.0	161.73974970418567	0.3833078771349392
74.0	37.10616382120861	pulse	0.0	t		object	car-133.jpg	0.0	161.82316956847353	
74.0	37.40605183405569	ISI	1.0		7.0	object	car-133.jpg	0.0	162.1230575813206	0.11668608582112938
75.0	37.52273791987682	car	0.0		46.0	object	car-27.jpg	0.0	162.23974366714174	0.38330274564941647
75.0	37.80615386008867	pulse	0.0	t		object	car-27.jpg	0.0	162.5231596073536	
75.0	37.906040665526234	ISI	1.0		7.0	object	car-27.jpg	0.0	162.62304641279115	0.11669514138702652
76.0	38.02273580691326	car	0.0		46.0	object	car-75.jpg	0.0	162.73974155417818	0.38328614377678605
76.0	38.40602195069005	ISI	1.0		7.0	object	car-75.jpg	0.0	163.12302769795497	0.11667853951803409
77.0	38.52270049020808	car	0.0		45.0	object	car-31.jpg	0.0	163.239706237473	0.38330938639774104
77.0	38.51284562073124	pulse	0.0	t		object	car-31.jpg	0.0	163.22985136799616	
77.0	38.90600987660582	ISI	1.0		7.0	object	car-31.jpg	0.0	163.62301562387074	0.11668518026635866
78.0	39.02269505687218	car	0.0		46.0	object	car-8.jpg	0.0	163.7397008041371	0.38330002897782833
78.0	39.206114317454194	pulse	0.0	t		object	car-8.jpg	0.0	163.92312006471911	
78.0	39.40599508585001	ISI	1.0		7.0	object	car-8.jpg	0.0	164.12300083311493	0.11668397285757237
79.0	39.52267905870758	car	0.0		46.0	object	car-114.jpg	0.0	164.2396848059725	0.3832994252734352
79.0	39.905978483981016	ISI	1.0		7.0	object	car-114.jpg	0.0	164.62298423124594	0.11668608582112938
79.0	39.94155055420197	pulse	1.0	t		object	car-114.jpg	0.0	164.6585563014669	
80.0	40.022664569802146	car	0.0		45.0	object	car-114.jpg	1.0	164.73967031706707	0.3749692110795877
80.0	40.389408913091756	response	0.0	b		object	car-114.jpg	1.0	165.10641466035668	
80.0	40.39763378088173	ISI	1.0		6.0	object	car-114.jpg	1.0	165.11463952814665	0.125014790755813
81.0	40.522648571637546	car	0.0		46.0	object	car-102.jpg	0.0	165.23965431890247	0.3833344401245995
81.0	40.60607326556055	pulse	0.0	t		object	car-102.jpg	0.0	165.32307901282547	
81.0	40.905983011762146	ISI	1.0		7.0	object	car-102.jpg	0.0	165.62298875902707	0.11668427470794995
82.0	41.022667286470096	car	0.0		46.0	object	car-144.jpg	0.0	165.73967303373502	0.38329882156904205
82.0	41.306081113714754	pulse	0.0	t		object	car-144.jpg	0.0	166.02308686097967	
82.0	41.40596610803914	ISI	1.0		7.0	object	car-144.jpg	0.0	166.12297185530406	0.11669031175551936
83.0	41.52265641979466	car	0.0		46.0	object	car-74.jpg	0.0	166.23966216705958	0.38326591968143475
83.0	41.90592233947609	ISI	1.0		0.0	object	car-74.jpg	0.0	166.622928086741	0.11667884137204965
84.0	42.02260118084814	word	0.0		45.0	character	word-106.jpg	0.0	166.73960692811306	0.3832982178646489
84.0	42.01587742387346	pulse	0.0	t		character	word-106.jpg	0.0	166.73288317113838	
84.0	42.40589939871279	ISI	1.0		4.0	character	word-106.jpg	0.0	167.1229051459777	0.11668819878832437
85.0	42.522587597501115	word	0.0		46.0	character	word-21.jpg	0.0	167.23959334476604	0.38330304749979405
85.0	42.70599961363041	pulse	0.0	t		character	word-21.jpg	0.0	167.42300536089533	
85.0	42.90589064500091	ISI	1.0		7.0	character	word-21.jpg	0.0	167.62289639226583	0.11668397285757237
86.0	43.02257461785848	word	0.0		46.0	character	word-11.jpg	0.0	167.7395803651234	0.3833003308282059
86.0	43.40587494868669	ISI	1.0		6.0	character	word-11.jpg	0.0	168.1228806959516	0.11668427470794995
86.0	43.45248726183854	pulse	1.0	t		character	word-11.jpg	0.0	168.16949300910346	
87.0	43.52255922339464	word	0.0		46.0	character	word-90.jpg	0.0	168.23956497065956	0.38330093453623704
87.0	43.905860157930874	ISI	1.0		4.0	character	word-90.jpg	0.0	168.6228659051958	0.11668397285757237
88.0	44.02254413078845	word	0.0		46.0	character	word-135.jpg	0.0	168.73954987805337	0.38330184009100776
88.0	44.10597365434296	pulse	0.0	t		character	word-135.jpg	0.0	168.82297940160788	
88.0	44.405845970879454	ISI	1.0		6.0	character	word-135.jpg	0.0	169.12285171814437	0.11668457656196551
89.0	44.52253054744142	word	0.0		46.0	character	word-104.jpg	0.0	169.23953629470634	0.38330093453259906
89.0	44.805946487649635	pulse	0.0	t		character	word-104.jpg	0.0	169.52295223491456	
89.0	44.90583148197402	ISI	1.0		7.0	character	word-104.jpg	0.0	169.62283722923894	0.11668910434673307
90.0	45.02252058632075	word	0.0		46.0	character	word-131.jpg	0.0	169.73952633358567	0.3832964067514695
90.0	45.40581699307222	ISI	1.0		6.0	character	word-131.jpg	0.0	170.12282274033714	0.11667763395962538
91.0	45.52249462703185	word	0.0		45.0	character	word-127.jpg	0.0	170.23950037429677	0.3833057641713822
91.0	45.51253833522787	pulse	0.0	t		character	word-127.jpg	0.0	170.2295440824928	
91.0	45.90580039120323	ISI	1.0		6.0	character	word-127.jpg	0.0	170.62280613846815	0.1166848784123431
92.0	46.02248526961557	word	0.0		46.0	character	word-85.jpg	0.0	170.7394910168805	0.3833012363866146
92.0	46.205905435755994	pulse	0.0	t		character	word-85.jpg	0.0	170.92291118302091	
92.0	46.40578650600219	ISI	1.0		7.0	character	word-85.jpg	0.0	171.1227922532671	0.11668276544878609
93.0	46.52246927145097	word	0.0		46.0	character	word-85.jpg	1.0	171.2394750187159	0.3833021419450233
93.0	46.905771413395996	ISI	1.0		6.0	character	word-85.jpg	1.0	171.62277716066092	0.11668427470794995
93.0	46.946593900174776	pulse	1.0	t		character	word-85.jpg	1.0	171.6635996474397	
94.0	47.022455688103946	word	0.0		46.0	character	word-13.jpg	0.0	171.73946143536887	0.38329912341941963
94.0	47.07254503634613	response	0.0	b		character	word-13.jpg	0.0	171.78955078361105	
94.0	47.405754811523366	ISI	1.0		2.0	character	word-13.jpg	0.0	172.1227605587883	0.11670148028497351
95.0	47.52245629180834	word	0.0		46.0	character	word-62.jpg	0.0	172.23946203907326	0.3833172345512139
95.0	47.605912982060545	pulse	0.0	t		character	word-62.jpg	0.0	172.32291872932547	
95.0	47.90577352635955	ISI	1.0		7.0	character	word-62.jpg	0.0	172.62277927362447	0.11668759508393123
96.0	48.022461121443484	body	0.0		46.0	body	body-105.jpg	0.0	172.7394668687084	0.3832970104558626
96.0	48.305871326461784	pulse	0.0	t		body	body-105.jpg	0.0	173.0228770737267	
96.0	48.40575813189935	ISI	1.0		7.0	body	body-105.jpg	0.0	173.12276387916427	0.11669091545627452
97.0	48.52244904735562	body	0.0		46.0	body	body-94.jpg	0.0	173.23945479462054	0.3832961049010919
97.0	48.90574515225671	ISI	1.0		7.0	body	body-94.jpg	0.0	173.62275089952163	0.11667974692682037
98.0	49.022424899183534	body	0.0		45.0	body	body-114.jpg	0.0	173.73943064644845	0.38330395305456477
98.0	49.012543466713396	pulse	0.0	t		body	body-114.jpg	0.0	173.72954921397832	
98.0	49.4057288522381	ISI	1.0		7.0	body	body-114.jpg	0.0	174.12273459950302	0.11668729323355365
99.0	49.52241614547165	body	0.0		46.0	body	body-15.jpg	0.0	174.23942189273657	0.3832985197150265
99.0	49.705832085677685	pulse	0.0	t		body	body-15.jpg	0.0	174.4228378329426	
99.0	49.90571466518668	ISI	1.0		6.0	body	body-15.jpg	0.0	174.6227204124516	0.11668457656196551
100.0	50.022399241748644	body	0.0		46.0	body	body-90.jpg	0.0	174.73940498901356	0.3833003308318439
100.0	50.40569957258049	ISI	1.0		7.0	body	body-90.jpg	0.0	175.1227053198454	0.1166869913759001
100.0	50.4424624495914	pulse	1.0	t		body	body-90.jpg	0.0	175.15946819685632	
101.0	50.52238656395639	body	0.0		46.0	body	body-135.jpg	0.0	175.2393923112213	0.3832979160142713
101.0	50.90568447997066	ISI	1.0		5.0	body	body-135.jpg	0.0	175.62269022723558	0.11668850063870195
102.0	51.02237298060936	body	0.0		46.0	body	body-5.jpg	0.0	175.73937872787428	0.3832961049010919
102.0	51.10579495786442	pulse	0.0	t		body	body-5.jpg	0.0	175.82280070512934	
102.0	51.40566908551045	ISI	1.0		7.0	body	body-5.jpg	0.0	176.12267483277537	0.11668880249271751
103.0	51.52235788800317	body	0.0		46.0	body	body-22.jpg	0.0	176.2393636352681	0.38329761416025576
103.0	51.80577443191578	pulse	0.0	t		body	body-22.jpg	0.0	176.5227801791807	
103.0	51.90565550216343	ISI	1.0		7.0	body	body-22.jpg	0.0	176.62266124942835	0.11669151916066767
104.0	52.022347021324094	body	0.0		46.0	body	body-56.jpg	0.0	176.73935276858901	0.38329338822950376
104.0	52.4056404095536	ISI	1.0		7.0	body	body-56.jpg	0.0	177.12264615681852	0.11667944507644279
105.0	52.52231985463004	body	0.0		45.0	body	body-23.jpg	0.0	177.23932560189496	0.3833057641677442
105.0	52.512240105286764	pulse	0.0	t		body	body-23.jpg	0.0	177.22924585255168	
105.0	52.905625618797785	ISI	1.0		7.0	body	body-23.jpg	0.0	177.6226313660627	0.11669272656945395
106.0	53.02231834536724	body	0.0		46.0	body	body-108.jpg	0.0	177.73932409263216	0.38329218082435546
106.0	53.20573247446373	pulse	0.0	t		body	body-108.jpg	0.0	177.92273822172865	
106.0	53.405610526191595	ISI	1.0		7.0	body	body-108.jpg	0.0	178.12261627345652	0.11665590060511022
107.0	53.522266426796705	body	0.0		46.0	body	body-76.jpg	0.0	178.23927217406163	0.3833299123434699
107.0	53.905596339140175	ISI	1.0		7.0	body	body-76.jpg	0.0	178.6226020864051	0.11667672840485466
107.0	53.9409543961774	pulse	1.0	t		body	body-76.jpg	0.0	178.65796014344232	
108.0	54.02227306754503	body	0.0		46.0	body	body-106.jpg	0.0	178.73927881480995	0.3833099900984962
108.0	54.405583057643526	ISI	1.0		5.0	body	body-106.jpg	0.0	179.12258880490845	0.11668668952552252
109.0	54.52226974716905	body	0.0		46.0	body	body-59.jpg	0.0	179.23927549443397	0.38329550119669875
109.0	54.60568870590214	pulse	0.0	t		body	body-59.jpg	0.0	179.32269445316706	
109.0	54.90556524836575	ISI	1.0		7.0	body	body-59.jpg	0.0	179.62257099563067	0.11668850063870195
110.0	55.02225374900445	body	0.0		46.0	body	body-62.jpg	0.0	179.73925949626937	0.38329761416025576
110.0	55.30566425587676	pulse	0.0	t		body	body-62.jpg	0.0	180.02267000314168	
110.0	55.405551363164705	ISI	1.0		5.0	body	body-62.jpg	0.0	180.12255711042963	0.11668759508393123
111.0	55.522238958248636	body	0.0		46.0	body	body-124.jpg	0.0	180.23924470551356	0.3832961049010919
111.0	55.90553506314973	ISI	1.0		7.0	body	body-124.jpg	0.0	180.62254081041465	0.11668427470794995
112.0	56.02221933785768	body	0.0		45.0	body	body-43.jpg	0.0	180.7392250851226	0.38330184009100776
112.0	56.01237201468393	pulse	0.0	t		body	body-43.jpg	0.0	180.72937776194885	
112.0	56.405521177948685	ISI	1.0		7.0	body	body-43.jpg	0.0	181.1225269252136	0.11668819878832437
113.0	56.52220937673701	body	0.0		46.0	body	body-21.jpg	0.0	181.23921512400193	0.3832991234230576
113.0	56.70562773176425	pulse	0.0	t		body	body-21.jpg	0.0	181.42263347902917	
113.0	56.90550850016007	ISI	1.0		7.0	body	body-21.jpg	0.0	181.622514247425	0.11669906546376296
114.0	57.02220756562383	body	0.0		46.0	body	body-101.jpg	0.0	181.73921331288875	0.38328493637163774
114.0	57.40549250199547	ISI	1.0		7.0	body	body-101.jpg	0.0	182.1224982492604	0.11668759508029325
114.0	57.441779961845896	pulse	1.0	t		body	body-101.jpg	0.0	182.15878570911082	
115.0	57.52218009707576	body	0.0		46.0	body	body-141.jpg	0.0	182.23918584434068	0.3833003308318439
115.0	57.905480427907605	ISI	1.0		7.0	body	body-141.jpg	0.0	182.62248617517253	0.11668306729916367
116.0	58.02216349520677	body	0.0		46.0	body	body-107.jpg	0.0	182.7391692424717	0.38329972712745075
116.0	58.105585472461826	pulse	0.0	t		body	body-107.jpg	0.0	182.82259121972675	
116.0	58.40546322233422	ISI	1.0		7.0	body	body-107.jpg	0.0	183.12246896959914	0.11668608582112938
117.0	58.52214930815535	body	0.0		46.0	body	body-107.jpg	1.0	183.23915505542027	0.3833003308318439
117.0	58.80556555021758	pulse	0.0	t		body	body-107.jpg	1.0	183.5225712974825	
117.0	58.90544963898719	ISI	1.0		7.0	body	body-107.jpg	1.0	183.6224553862521	0.1250193185369426
117.0	58.99725374900663	response	1.0	b		body	body-107.jpg	1.0	183.71425949627155	
118.0	59.030468957524135	body	0.0		45.0	body	body-75.jpg	0.0	183.74747470478906	0.374957740696118
118.0	59.40542669822025	ISI	1.0		7.0	body	body-75.jpg	0.0	184.12243244548517	0.1166857839707518
119.0	59.522112482191005	body	0.0		45.0	body	body-66.jpg	0.0	184.23911822945593	0.38330606602175976
119.0	59.512211731183925	pulse	0.0	t		body	body-66.jpg	0.0	184.22921747844885	
119.0	59.905418548212765	ISI	1.0		7.0	body	body-66.jpg	0.0	184.62242429547769	0.11669182101468323
120.0	60.02211036922745	adult	0.0		46.0	face	adult-110.jpg	0.0	184.73911611649237	0.38329429378791247
120.0	60.205523894619546	pulse	0.0	t		face	adult-110.jpg	0.0	184.92252964188447	
120.0	60.40540466301536	ISI	1.0		7.0	face	adult-110.jpg	0.0	185.12241041028028	0.1166933302738471
121.0	60.52209799328921	adult	0.0		46.0	face	adult-127.jpg	0.0	185.23910374055413	0.3832897660031449
121.0	60.90538775929235	ISI	1.0		7.0	face	adult-127.jpg	0.0	185.62239350655727	0.11668789693430881
121.0	60.94197888242343	pulse	1.0	t		face	adult-127.jpg	0.0	185.65898462968835	
122.0	61.02207565622666	adult	0.0		46.0	face	adult-72.jpg	0.0	185.73908140349158	0.38329640675510745
122.0	61.40537206298177	ISI	1.0		7.0	face	adult-72.jpg	0.0	186.1223778102467	0.11668970804748824
123.0	61.52206177102926	adult	0.0		46.0	face	adult-45.jpg	0.0	186.23906751829418	0.3832997271238128
123.0	61.6055398927856	pulse	0.0	t		face	adult-45.jpg	0.0	186.32254564005052	
123.0	61.90536149815307	ISI	1.0		7.0	face	adult-45.jpg	0.0	186.622367245418	0.11668336915317923
124.0	62.02204486730625	adult	0.0		46.0	face	adult-62.jpg	0.0	186.73905061457117	0.3832982178646489
124.0	62.305461411222495	pulse	0.0	t		face	adult-62.jpg	0.0	187.02246715848742	
124.0	62.4053430851709	ISI	1.0		7.0	face	adult-62.jpg	0.0	187.12234883243582	0.11668850064233993
125.0	62.52203158581324	adult	0.0		46.0	face	adult-143.jpg	0.0	187.23903733307816	0.3832985197150265
125.0	62.905330105528265	ISI	1.0		7.0	face	adult-143.jpg	0.0	187.62233585279319	0.11668065248522907
126.0	63.022010758013494	adult	0.0		45.0	face	adult-52.jpg	0.0	187.7390165052784	0.3833036512041872
126.0	63.012186979307444	pulse	0.0	t		face	adult-52.jpg	0.0	187.72919272657236	
126.0	63.40531440921768	ISI	1.0		7.0	face	adult-52.jpg	0.0	188.1223201564826	0.11668668952552252
127.0	63.5220010987432	adult	0.0		46.0	face	adult-122.jpg	0.0	188.23900684600812	0.3832973123098782
127.0	63.70541854821204	pulse	0.0	t		face	adult-122.jpg	0.0	188.42242429547696	
127.0	63.90529841105308	ISI	1.0		7.0	face	adult-122.jpg	0.0	188.622304158318	0.11668970804748824
128.0	64.02198811910057	adult	0.0		46.0	face	adult-122.jpg	1.0	188.7389938663655	0.383265014126664
128.0	64.40525313322723	ISI	1.0		6.0	face	adult-122.jpg	1.0	189.12225888049215	0.11668457656196551
128.0	64.4407684552425	pulse	1.0	t		face	adult-122.jpg	1.0	189.15777420250743	
128.0	64.4470641858461	response	1.0	b		face	adult-122.jpg	1.0	189.16406993311102	
129.0	64.5219377097892	adult	0.0		46.0	face	adult-99.jpg	0.0	189.23894345705412	0.3832994252734352
129.0	64.90523713506263	ISI	1.0		7.0	face	adult-99.jpg	0.0	189.62224288232755	0.11668457656196551
130.0	65.0219217116246	adult	0.0		46.0	face	adult-64.jpg	0.0	189.73892745888952	0.3833003308282059
130.0	65.10540315375329	pulse	0.0	t		face	adult-64.jpg	0.0	189.8224089010182	
130.0	65.4052220424528	ISI	1.0		7.0	face	adult-64.jpg	0.0	190.12222778971773	0.11668608582476736
131.0	65.52190812827757	adult	0.0		46.0	face	adult-136.jpg	0.0	190.2389138755425	0.3832994252734352
131.0	65.80532376663541	pulse	0.0	t		face	adult-136.jpg	0.0	190.52232951390033	
131.0	65.90520755355101	ISI	1.0		5.0	face	adult-136.jpg	0.0	190.62221330081593	0.11668608582112938
132.0	66.02189363937214	word	0.0		46.0	character	word-122.jpg	0.0	190.73889938663706	0.38330002897782833
132.0	66.40519366834997	ISI	1.0		7.0	character	word-122.jpg	0.0	191.1221994156149	0.11667944507644279
133.0	66.52187311342641	word	0.0		45.0	character	word-105.jpg	0.0	191.23887886069133	0.3833048586129735
133.0	66.51199017169347	pulse	0.0	t		character	word-105.jpg	0.0	191.2289959189584	
133.0	66.90517797203938	ISI	1.0		7.0	character	word-105.jpg	0.0	191.6221837193043	0.11668729322991567
134.0	67.0218652652693	word	0.0		46.0	character	word-65.jpg	0.0	191.73887101253422	0.3832991234230576
134.0	67.20528211103374	pulse	0.0	t		character	word-65.jpg	0.0	191.92228785829866	
134.0	67.40516438869236	ISI	1.0		5.0	character	word-65.jpg	0.0	192.12217013595728	0.11668578396711382
135.0	67.52185017265947	word	0.0		46.0	character	word-73.jpg	0.0	192.2388559199244	0.38330002897782833
135.0	67.9051502016373	ISI	1.0		6.0	character	word-73.jpg	0.0	192.62215594890222	0.11668427471158793
135.0	67.94999245369763	pulse	1.0	t		character	word-73.jpg	0.0	192.66699820096255	
136.0	68.02183447634889	word	0.0		46.0	character	word-111.jpg	0.0	192.7388402236138	0.38330002897782833
136.0	68.40513450532671	ISI	1.0		4.0	character	word-111.jpg	0.0	193.12214025259163	0.11668548211673624
137.0	68.52181998744345	word	0.0		46.0	character	word-82.jpg	0.0	193.23882573470837	0.38329670860548504
137.0	68.60524468136646	pulse	0.0	t		character	word-82.jpg	0.0	193.32225042863138	
137.0	68.90511669604894	ISI	1.0		5.0	character	word-82.jpg	0.0	193.62212244331386	0.11668729322991567
138.0	69.02180398927885	word	0.0		46.0	character	word-54.jpg	0.0	193.73880973654377	0.3833033493538096
138.0	69.30521751467313	pulse	0.0	t		character	word-54.jpg	0.0	194.02222326193805	
138.0	69.40510733863266	ISI	1.0		6.0	character	word-54.jpg	0.0	194.12211308589758	0.11668306729916367
139.0	69.52179040593182	word	0.0		46.0	character	word-23.jpg	0.0	194.23879615319674	0.38329761416025576
139.0	69.90508802009208	ISI	1.0		6.0	character	word-23.jpg	0.0	194.622093767357	0.11668185989401536
140.0	70.0217698799861	word	0.0		45.0	character	word-89.jpg	0.0	194.73877562725102	0.3833353456793702
140.0	70.0122636497581	pulse	0.0	t		character	word-89.jpg	0.0	194.72926939702302	
140.0	70.40510522566547	ISI	1.0		7.0	character	word-89.jpg	0.0	195.1221109729304	0.11666495617100736
141.0	70.52177018183647	word	0.0		46.0	character	word-89.jpg	1.0	195.2387759291014	0.38332296974476776
141.0	70.70521177948103	pulse	0.0	t		character	word-89.jpg	1.0	195.42221752674595	
141.0	70.90509315158124	ISI	1.0		6.0	character	word-89.jpg	1.0	195.62209889884616	0.1166722006200871
141.0	70.96357519741287	response	1.0	b		character	word-89.jpg	1.0	195.68058094467779	
142.0	71.02176535220133	word	0.0		46.0	character	word-97.jpg	0.0	195.73877109946625	0.3833090845437255
142.0	71.40507443674505	ISI	1.0		6.0	character	word-97.jpg	0.0	196.12208018400997	0.11669121731029009
142.0	71.45084971384495	pulse	1.0	t		character	word-97.jpg	0.0	196.16785546110987	
143.0	71.52176565405534	word	0.0		46.0	character	word-12.jpg	0.0	196.23877140132026	0.3832970104558626
143.0	71.9050626645112	ISI	1.0		7.0	character	word-12.jpg	0.0	196.62206841177613	0.11668638767514494
144.0	72.02174905218635	word	0.0		46.0	character	word-96.jpg	0.0	196.73875479945127	0.38329670860184706
144.0	72.10517133129179	pulse	0.0	t		character	word-96.jpg	0.0	196.8221770785567	
144.0	72.4050457607882	ISI	1.0		4.0	character	word-96.jpg	0.0	197.12205150805312	0.11668789693794679
145.0	72.52173365772614	word	0.0		46.0	character	word-50.jpg	0.0	197.23873940499107	0.38330727343054605
145.0	72.80514778682118	pulse	0.0	t		character	word-50.jpg	0.0	197.5221535340861	
145.0	72.90504093115669	ISI	1.0		6.0	character	word-50.jpg	0.0	197.6220466784216	0.11667763395962538
146.0	73.02171856511632	word	0.0		46.0	character	word-77.jpg	0.0	197.73872431238124	0.38329761416025576
146.0	73.40501617927657	ISI	1.0		5.0	character	word-77.jpg	0.0	198.1220219265415	0.11668699137953809
147.0	73.52170317065611	word	0.0		45.0	character	word-64.jpg	0.0	198.23870891792103	0.38329851971866447
147.0	73.51249879259194	pulse	0.0	t		character	word-64.jpg	0.0	198.22950453985686	
147.0	73.90500169037477	ISI	1.0		7.0	character	word-64.jpg	0.0	198.6220074376397	0.11668940619711066
148.0	74.02169109657189	word	0.0		46.0	character	word-22.jpg	0.0	198.7386968438368	0.3832955011930608
148.0	74.20510794233633	pulse	0.0	t		character	word-22.jpg	0.0	198.92211368960125	
148.0	74.40498659776495	ISI	1.0		4.0	character	word-22.jpg	0.0	199.12199234502987	0.11668940619711066
149.0	74.52167600396206	word	0.0		46.0	character	word-7.jpg	0.0	199.23868175122698	0.3832964067514695
149.0	74.90497241071353	ISI	1.0		5.0	character	word-7.jpg	0.0	199.62197815797845	0.11668789693430881
149.0	74.95490207916009	pulse	1.0	t		character	word-7.jpg	0.0	199.671907826425	
150.0	75.02166030764783	word	0.0		46.0	character	word-143.jpg	0.0	199.73866605491276	0.3832979160142713
150.0	75.4049582236621	ISI	1.0		6.0	character	word-143.jpg	0.0	200.12196397092703	0.11668880249271751
151.0	75.52164702615482	word	0.0		46.0	character	word-120.jpg	0.0	200.23865277341974	0.38329882156904205
151.0	75.60507141822382	pulse	0.0	t		character	word-120.jpg	0.0	200.32207716548874	
151.0	75.90494584772387	ISI	1.0		6.0	character	word-120.jpg	0.0	200.6219515949888	0.11669815990899224
152.0	76.02164400763286	word	0.0		46.0	character	word-39.jpg	0.0	200.73864975489778	0.3832795030284615
152.0	76.3050330829974	pulse	0.0	t		character	word-39.jpg	0.0	201.02203883026232	
152.0	76.40492351066132	ISI	1.0		7.0	character	word-39.jpg	0.0	201.12192925792624	0.11669212286869879
153.0	76.52161563353002	word	0.0		46.0	character	word-26.jpg	0.0	201.23862138079494	0.3833102919488738
153.0	76.90492592547889	ISI	1.0		6.0	character	word-26.jpg	0.0	201.6219316727438	0.11667038951054565
154.0	77.02159631498944	word	0.0		45.0	character	word-129.jpg	0.0	201.73860206225436	0.3833024437954009
154.0	77.01335786385607	pulse	0.0	t		character	word-129.jpg	0.0	201.730363611121	
154.0	77.40489875878484	ISI	1.0		6.0	character	word-129.jpg	0.0	202.12190450604976	0.11669061360589694
155.0	77.52158937239074	word	0.0		46.0	character	word-110.jpg	0.0	202.23859511965566	0.3832632030134846
155.0	77.70497784405234	pulse	0.0	t		character	word-110.jpg	0.0	202.42198359131726	
155.0	77.90485257540422	ISI	1.0		7.0	character	word-110.jpg	0.0	202.62185832266914	0.11668367100719479
156.0	78.02153624641142	car	0.0		46.0	object	car-80.jpg	0.0	202.73854199367634	0.3833024437917629
156.0	78.40483869020318	ISI	1.0		7.0	object	car-80.jpg	0.0	203.1218444374681	0.11668336915317923
156.0	78.4406821255252	pulse	1.0	t		object	car-80.jpg	0.0	203.15768787279012	
157.0	78.52152205935636	car	0.0		46.0	object	car-37.jpg	0.0	203.23852780662128	0.3833015382406302
157.0	78.90482359759699	ISI	1.0		7.0	object	car-37.jpg	0.0	203.6218293448619	0.11668276544878609
158.0	79.02150636304577	car	0.0		46.0	object	car-76.jpg	0.0	203.7385121103107	0.38329882156904205
158.0	79.09706931733308	pulse	0.0	t		object	car-76.jpg	0.0	203.814075064598	
158.0	79.40480518461482	ISI	1.0		7.0	object	car-76.jpg	0.0	204.12181093187974	0.1166933302738471
159.0	79.52149851488866	car	0.0		46.0	object	car-17.jpg	0.0	204.23850426215358	0.3832951993426832
159.0	79.80491053102014	pulse	0.0	t		object	car-17.jpg	0.0	204.52191627828506	
159.0	79.90479371423135	ISI	1.0		7.0	object	car-17.jpg	0.0	204.62179946149627	0.11668367100719479
160.0	80.02147738523854	car	0.0		46.0	object	car-128.jpg	0.0	204.73848313250346	0.3833024437954009
160.0	80.40477982903394	ISI	1.0		7.0	object	car-128.jpg	0.0	205.12178557629886	0.1166773321092478
161.0	80.52145716114319	car	0.0		45.0	object	car-128.jpg	1.0	205.2384629084081	0.3833054623173666
161.0	80.51172423993921	pulse	0.0	t		object	car-128.jpg	1.0	205.22872998720413	
161.0	80.90476262346056	ISI	1.0		7.0	object	car-128.jpg	1.0	205.62176837072548	0.1166848784123431
162.0	81.0214475018729	car	0.0		46.0	object	car-34.jpg	0.0	205.73845324913782	0.38330093453623704
162.0	81.04662317983457	response	0.0	b		object	car-34.jpg	0.0	205.7636289270995	
162.0	81.2048359735345	pulse	0.0	t		object	car-34.jpg	0.0	205.92184172079942	
162.0	81.40474843640914	ISI	1.0		4.0	object	car-34.jpg	0.0	206.12175418367406	0.11668759508029325
163.0	81.52143603148943	car	0.0		46.0	object	car-30.jpg	0.0	206.23844177875435	0.38329670860548504
163.0	81.90473274009491	ISI	1.0		7.0	object	car-30.jpg	0.0	206.62173848735983	0.11668699137953809
163.0	81.94166374876295	pulse	1.0	t		object	car-30.jpg	0.0	206.65866949602787	
164.0	82.02141973147445	car	0.0		46.0	object	car-23.jpg	0.0	206.73842547873937	0.3832985197150265
164.0	82.40471825118948	ISI	1.0		7.0	object	car-23.jpg	0.0	207.1217239984544	0.1166866895291605
165.0	82.52140494071864	car	0.0		46.0	object	car-65.jpg	0.0	207.23841068798356	0.3832973123062402
165.0	82.60483204945558	pulse	0.0	t		object	car-65.jpg	0.0	207.3218377967205	
165.0	82.90470225302488	ISI	1.0		5.0	object	car-65.jpg	0.0	207.6217080002898	0.11668819878832437
166.0	83.0213904518132	car	0.0		46.0	object	car-108.jpg	0.0	207.73839619907812	0.3832994252734352
166.0	83.30480609017104	pulse	0.0	t		object	car-108.jpg	0.0	208.02181183743596	
166.0	83.40468987708664	ISI	1.0		7.0	object	car-108.jpg	0.0	208.12169562435156	0.11668397285757237
167.0	83.52137384994421	car	0.0		46.0	object	car-57.jpg	0.0	208.23837959720913	0.3833311197522562
167.0	83.90470496969647	ISI	1.0		7.0	object	car-57.jpg	0.0	208.6217107169614	0.1166815580399998
168.0	84.02138652773647	car	0.0		45.0	object	car-119.jpg	0.0	208.7383922750014	0.38330757528092363
168.0	84.0116759435914	pulse	0.0	t		object	car-119.jpg	0.0	208.72868169085632	
168.0	84.40469410301739	ISI	1.0		7.0	object	car-119.jpg	0.0	209.1216998502823	0.11668427471158793
169.0	84.52137837772898	car	0.0		46.0	object	car-94.jpg	0.0	209.2383841249939	0.3832964067514695
169.0	84.70479612904819	pulse	0.0	t		object	car-94.jpg	0.0	209.4218018763131	
169.0	84.90467478448045	ISI	1.0		7.0	object	car-94.jpg	0.0	209.62168053174537	0.11668789693430881
170.0	85.02136268141476	car	0.0		46.0	object	car-3.jpg	0.0	209.73836842867968	0.38329972712745075
170.0	85.40466240854221	ISI	1.0		7.0	object	car-3.jpg	0.0	210.12166815580713	0.11668729322991567
170.0	85.44114395933502	pulse	1.0	t		object	car-3.jpg	0.0	210.15814970659994	
171.0	85.52134970177212	car	0.0		46.0	object	car-36.jpg	0.0	210.23835544903704	0.38329761416025576
171.0	85.90464731593238	ISI	1.0		7.0	object	car-36.jpg	0.0	210.6216530631973	0.11668759508393123
172.0	86.02133491101631	car	0.0		46.0	object	car-6.jpg	0.0	210.73834065828123	0.3832973123062402
172.0	86.10477228272794	pulse	0.0	t		object	car-6.jpg	0.0	210.82177802999286	
172.0	86.40463222332255	ISI	1.0		7.0	object	car-6.jpg	0.0	211.12163797058747	0.11668789693794679
173.0	86.5213201202605	car	0.0		46.0	object	car-54.jpg	0.0	211.23832586752542	0.38326380671787774
173.0	86.80470134746793	pulse	0.0	t		object	car-54.jpg	0.0	211.52170709473285	
173.0	86.90458392697838	ISI	1.0		7.0	object	car-54.jpg	0.0	211.6215896742433	0.11668397285757237
174.0	87.02126789983595	car	0.0		46.0	object	car-118.jpg	0.0	211.73827364710087	0.3833024437954009
174.0	87.40457034363135	ISI	1.0		7.0	object	car-118.jpg	0.0	212.12157609089627	0.11666073024025536
175.0	87.5212310738716	car	0.0		45.0	object	car-125.jpg	0.0	212.23823682113652	0.38332236603673664
175.0	87.51142902852007	pulse	0.0	t		object	car-125.jpg	0.0	212.228434775785	
175.0	87.90455343990834	ISI	1.0		5.0	object	car-125.jpg	0.0	212.62155918717326	0.11668880249271751
176.0	88.02124224240106	car	0.0		46.0	object	car-106.jpg	0.0	212.73824798966598	0.3832982178646489
176.0	88.20465788075671	pulse	0.0	t		object	car-106.jpg	0.0	212.92166362802163	
176.0	88.40454046026571	ISI	1.0		7.0	object	car-106.jpg	0.0	213.12154620753063	0.11668518026635866
177.0	88.52122564053207	car	0.0		46.0	object	car-136.jpg	0.0	213.238231387797	0.38329851971866447
177.0	88.90452416025073	ISI	1.0		7.0	object	car-136.jpg	0.0	213.62152990751565	0.1166869913759001
177.0	88.94055534761355	pulse	1.0	t		object	car-136.jpg	0.0	213.65756109487847	
178.0	89.02121115162663	car	0.0		46.0	object	car-107.jpg	0.0	213.73821689889155	0.3832991234230576
178.0	89.40451027504969	ISI	1.0		7.0	object	car-107.jpg	0.0	214.1215160223146	0.11668608582112938
179.0	89.52119636087082	car	0.0		46.0	object	car-97.jpg	0.0	214.23820210813574	0.38329882156904205
179.0	89.60462105479382	pulse	0.0	t		object	car-97.jpg	0.0	214.32162680205874	
179.0	89.90449518243986	ISI	1.0		5.0	object	car-97.jpg	0.0	214.62150092970478	0.1166866895291605
180.0	90.02118187196902	adult	0.0		46.0	face	adult-12.jpg	0.0	214.73818761923394	0.3832985197150265
180.0	90.30459901958602	pulse	0.0	t		face	adult-12.jpg	0.0	215.02160476685094	
180.0	90.40448039168405	ISI	1.0		7.0	face	adult-12.jpg	0.0	215.12148613894897	0.11668487841598107
181.0	90.52116527010003	adult	0.0		46.0	face	adult-12.jpg	1.0	215.23817101736495	0.38330184009100776
181.0	90.90446711019104	ISI	1.0		7.0	face	adult-12.jpg	1.0	215.62147285745596	0.11667763395962538
182.0	91.02114474415066	adult	0.0		45.0	face	adult-103.jpg	0.0	215.73815049141558	0.38330938639774104
182.0	91.01142238777174	pulse	0.0	t		face	adult-103.jpg	0.0	215.72842813503667	
182.0	91.03792530970168	response	0.0	b		face	adult-103.jpg	0.0	215.7549310569666	
182.0	91.4044541305484	ISI	1.0		7.0	face	adult-103.jpg	0.0	216.12145987781332	0.11670480065367883
183.0	91.52115893120208	adult	0.0		45.0	face	adult-1.jpg	0.0	216.238164678467	0.38327618265975616
183.0	91.70458392697765	pulse	0.0	t		face	adult-1.jpg	0.0	216.42158967424257	
183.0	91.90443511386184	ISI	1.0		7.0	face	adult-1.jpg	0.0	216.62144086112676	0.11668668952552252
184.0	92.02112180338736	adult	0.0		46.0	face	adult-70.jpg	0.0	216.73812755065228	0.3832994252734352
184.0	92.4044212286608	ISI	1.0		7.0	face	adult-70.jpg	0.0	217.12142697592571	0.11668699137953809
184.0	92.44110200188516	pulse	1.0	t		face	adult-70.jpg	0.0	217.15810774915008	
185.0	92.52110822004033	adult	0.0		46.0	face	adult-132.jpg	0.0	217.23811396730525	0.3833344401245995
185.0	92.90444266016493	ISI	1.0		7.0	face	adult-132.jpg	0.0	217.62144840742985	0.11668306729916367
186.0	93.0211257274641	adult	0.0		46.0	face	adult-90.jpg	0.0	217.73813147472902	0.38329338823314174
186.0	93.1045579676902	pulse	0.0	t		face	adult-90.jpg	0.0	217.82156371495512	
186.0	93.40441911569724	ISI	1.0		7.0	face	adult-90.jpg	0.0	218.12142486296216	0.11669423582861782
187.0	93.52111335152586	adult	0.0		46.0	face	adult-36.jpg	0.0	218.23811909879078	0.38329670860548504
187.0	93.80452808432528	pulse	0.0	t		face	adult-36.jpg	0.0	218.5215338315902	
187.0	93.90441006013134	ISI	1.0		7.0	face	adult-36.jpg	0.0	218.62141580739626	0.11668699137953809
188.0	94.02109705151088	adult	0.0		46.0	face	adult-24.jpg	0.0	218.7381027987758	0.3832973123062402
188.0	94.40439436381712	ISI	1.0		5.0	face	adult-24.jpg	0.0	219.12140011108204	0.11668457656196551
189.0	94.52107894037908	adult	0.0		45.0	face	adult-26.jpg	0.0	219.238084687644	0.3832994252734352
189.0	94.51137409142757	pulse	0.0	t		face	adult-26.jpg	0.0	219.2283798386925	
189.0	94.90437836565252	ISI	1.0		7.0	face	adult-26.jpg	0.0	219.62138411291744	0.11668819878832437
190.0	95.02106656444084	adult	0.0		46.0	face	adult-17.jpg	0.0	219.73807231170576	0.38330093453623704
190.0	95.2044837120593	pulse	0.0	t		face	adult-17.jpg	0.0	219.92148945932422	
190.0	95.40436749897708	ISI	1.0		7.0	face	adult-17.jpg	0.0	220.121373246242	0.11668729322991567
191.0	95.521054792207	adult	0.0		46.0	face	adult-56.jpg	0.0	220.23806053947192	0.3832619956046983
191.0	95.9043167878117	ISI	1.0		5.0	face	adult-56.jpg	0.0	220.62132253507662	0.11668789693430881
191.0	95.95823965854652	pulse	1.0	t		face	adult-56.jpg	0.0	220.67524540581144	
192.0	96.021004684746	house	0.0		46.0	place	house-109.jpg	0.0	220.73801043201092	0.38329882156904205
192.0	96.40430350631505	ISI	1.0		4.0	place	house-109.jpg	0.0	221.12130925357997	0.11668457656196551
193.0	96.52098808287701	house	0.0		46.0	place	house-6.jpg	0.0	221.23799383014193	0.3833006326822215
193.0	96.60441307865403	pulse	0.0	t		place	house-6.jpg	0.0	221.32141882591895	
193.0	96.90428871555923	ISI	1.0		2.0	place	house-6.jpg	0.0	221.62129446282415	0.11668608582476736
194.0	97.020974801384	house	0.0		46.0	place	house-18.jpg	0.0	221.73798054864892	0.3833003308282059
194.0	97.3043904397382	pulse	0.0	t		place	house-18.jpg	0.0	222.02139618700312	
194.0	97.4042751322122	ISI	1.0		6.0	place	house-18.jpg	0.0	222.12128087947713	0.11668306730280165
195.0	97.52095819951501	house	0.0		46.0	place	house-142.jpg	0.0	222.23796394677993	0.38330002897782833
195.0	97.90425822849284	ISI	1.0		6.0	place	house-142.jpg	0.0	222.62126397575776	0.11667884136841167
196.0	98.02093706986125	house	0.0		45.0	place	house-104.jpg	0.0	222.73794281712617	0.38330516046698904
196.0	98.01120294124848	pulse	0.0	t		place	house-104.jpg	0.0	222.7282086885134	
196.0	98.40424223032824	ISI	1.0		6.0	place	house-104.jpg	0.0	223.12124797759316	0.11667884136841167
197.0	98.52092107169665	house	0.0		46.0	place	house-98.jpg	0.0	223.23792681896157	0.38330727343054605
197.0	98.70435301007092	pulse	0.0	t		place	house-98.jpg	0.0	223.42135875733584	
197.0	98.9042283451272	ISI	1.0		7.0	place	house-98.jpg	0.0	223.62123409239211	0.11668608582112938
198.0	99.02091443094832	house	0.0		46.0	place	house-98.jpg	1.0	223.73792017821324	0.3832994252734352
198.0	99.40421385622176	ISI	1.0		6.0	place	house-98.jpg	1.0	224.12121960348668	0.11668759508393123
198.0	99.44591020502048	pulse	1.0	t		place	house-98.jpg	1.0	224.1629159522854	
198.0	99.47929203593594	response	1.0	b		place	house-98.jpg	1.0	224.19629778320086	
199.0	99.52090145130569	house	0.0		46.0	place	house-16.jpg	0.0	224.2379071985706	0.3832982178646489
199.0	99.90419966917034	ISI	1.0		6.0	place	house-16.jpg	0.0	224.62120541643526	0.11668518026635866
200.0	100.0208848494367	house	0.0		46.0	place	house-38.jpg	0.0	224.73789059670162	0.38329882156904205
200.0	100.10430743039615	pulse	0.0	t		place	house-38.jpg	0.0	224.82131317766107	
200.0	100.40418367100574	ISI	1.0		6.0	place	house-38.jpg	0.0	225.12118941827066	0.11668608582476736
201.0	100.5208697568305	house	0.0		46.0	place	house-116.jpg	0.0	225.23787550409543	0.3833003308282059
201.0	100.8042859988891	pulse	0.0	t		place	house-116.jpg	0.0	225.52129174615402	
201.0	100.90417008765871	ISI	1.0		6.0	place	house-116.jpg	0.0	225.62117583492363	0.1166866895291605
202.0	101.02085677718787	house	0.0		46.0	place	house-2.jpg	0.0	225.7378625244528	0.3832973123062402
202.0	101.40415408949411	ISI	1.0		6.0	place	house-2.jpg	0.0	226.12115983675903	0.1166824635984085
203.0	101.52083655309252	house	0.0		45.0	place	house-10.jpg	0.0	226.23784230035744	0.3833344401245995
203.0	101.51111600782679	pulse	0.0	t		place	house-10.jpg	0.0	226.2281217550917	
203.0	101.90417099321712	ISI	1.0		2.0	place	house-10.jpg	0.0	226.62117674048204	0.11669000989786582
204.0	102.02086100311499	word	0.0		46.0	character	word-46.jpg	0.0	226.7378667503799	0.383265014130302
204.0	102.20424404144069	pulse	0.0	t		character	word-46.jpg	0.0	226.9212497887056	
204.0	102.40412601724529	ISI	1.0		6.0	character	word-46.jpg	0.0	227.1211317645102	0.11668397285393439
205.0	102.52080999009922	word	0.0		46.0	character	word-107.jpg	0.0	227.23781573736414	0.38330002897782833
205.0	102.90411001907705	ISI	1.0		6.0	character	word-107.jpg	0.0	227.62111576634197	0.11668457656196551
205.0	102.94994325179505	pulse	1.0	t		character	word-107.jpg	0.0	227.66694899905997	
206.0	103.02079459563902	word	0.0		46.0	character	word-137.jpg	0.0	227.73780034290394	0.3833006326822215
206.0	103.40409522832124	ISI	1.0		6.0	character	word-137.jpg	0.0	228.12110097558616	0.11668608582476736
207.0	103.520781314146	word	0.0		46.0	character	word-58.jpg	0.0	228.23778706141093	0.3832985197150265
207.0	103.60420329139743	pulse	0.0	t		character	word-58.jpg	0.0	228.32120903866235	
207.0	103.90407983386103	ISI	1.0		6.0	character	word-58.jpg	0.0	228.62108558112595	0.11668608582476736
208.0	104.0207659196858	word	0.0		46.0	character	word-141.jpg	0.0	228.73777166695072	0.38329912341941963
208.0	104.30418155804	pulse	0.0	t		character	word-141.jpg	0.0	229.02118730530492	
208.0	104.40406504310522	ISI	1.0		6.0	character	word-141.jpg	0.0	229.12107079037014	0.11665831542268279
209.0	104.5207233585279	word	0.0		46.0	character	word-33.jpg	0.0	229.23772910579282	0.38332840308430605
209.0	104.90405176161221	ISI	1.0		6.0	character	word-33.jpg	0.0	229.62105750887713	0.11666767283895751
210.0	105.02071943445117	word	0.0		45.0	character	word-84.jpg	0.0	229.7377251817161	0.38331693270083633
210.0	105.01100492622936	pulse	0.0	t		character	word-84.jpg	0.0	229.72801067349428	
210.0	105.404036367152	ISI	1.0		6.0	character	word-84.jpg	0.0	230.12104211441692	0.1166857839707518
211.0	105.52072215112275	word	0.0		46.0	character	word-30.jpg	0.0	230.23772789838767	0.38329791601063334
211.0	105.70414080800037	pulse	0.0	t		character	word-30.jpg	0.0	230.4211465552653	
211.0	105.90402006713339	ISI	1.0		6.0	character	word-30.jpg	0.0	230.6210258143983	0.11668367100719479
212.0	106.02070373814058	word	0.0		46.0	character	word-67.jpg	0.0	230.7377094854055	0.38330093453259906
212.0	106.40400467267318	ISI	1.0		6.0	character	word-67.jpg	0.0	231.1210104199381	0.1166857839707518
212.0	106.44872014682187	pulse	1.0	t		character	word-67.jpg	0.0	231.1657258940868	
213.0	106.52069045664393	word	0.0		46.0	character	word-100.jpg	0.0	231.23769620390885	0.3833015382369922
213.0	106.90399199488093	ISI	1.0		6.0	character	word-100.jpg	0.0	231.62099774214585	0.11668427471158793
214.0	107.02067626959251	word	0.0		46.0	character	word-125.jpg	0.0	231.73768201685743	0.3833006326822215
214.0	107.10410186907029	pulse	0.0	t		character	word-125.jpg	0.0	231.8211076163352	
214.0	107.40397690227474	ISI	1.0		6.0	character	word-125.jpg	0.0	232.12098264953966	0.11668276544878609
215.0	107.52065966772352	word	0.0		46.0	character	word-35.jpg	0.0	232.23766541498844	0.38330334935017163
215.0	107.80407953200847	pulse	0.0	t		character	word-35.jpg	0.0	232.5210852792734	
215.0	107.90396301707369	ISI	1.0		11.0	character	word-35.jpg	0.0	232.6209687643386	0.09999698148021707
216.0	108.00395999855391	baseline	0.0		48.0		baseline	0.0	232.72096574581883	0.40005493709395523
216.0	108.40401493564787	ISI	1.0		11.0		baseline	0.0	233.12102068291279	0.10833353456837358
216.0	108.49588575499365	response	1.0	b			baseline	0.0	233.21289150225857	
216.0	108.4960173625368	pulse	1.0	t			baseline	0.0	233.21302310980172	
217.0	108.51234847021624	baseline	0.0		47.0		baseline	0.0	233.22935421748116	0.39165137282179785
217.0	108.90399984303804	ISI	1.0		11.0		baseline	0.0	233.62100559030296	0.10000000000218279
218.0	109.00399984304022	baseline	0.0		48.0		baseline	0.0	233.72100559030514	0.39998369998284033
218.0	109.19596966989775	pulse	0.0	t			baseline	0.0	233.91297541716267	
218.0	109.40398354302306	ISI	1.0		11.0		baseline	0.0	234.12098929028798	0.09999969814816723
219.0	109.50398324117123	baseline	0.0		48.0		baseline	0.0	234.22098898843615	0.39998671850480605
219.0	109.90396995967603	ISI	1.0		11.0		baseline	0.0	234.62097570694095	0.09999728332695668
219.0	109.89594854024472	pulse	1.0	t			baseline	0.0	234.61295428750964	
220.0	110.00396724300299	baseline	0.0		48.0		baseline	0.0	234.7209729902679	0.39998128516890574
220.0	110.4039485281719	ISI	1.0		11.0		baseline	0.0	235.12095427543682	0.0999885296150751
221.0	110.50393705778697	baseline	0.0		48.0		baseline	0.0	235.2209428050519	0.4000084518629592
221.0	110.59592348651495	pulse	0.0	t			baseline	0.0	235.31292923377987	
221.0	110.90394550964993	ISI	1.0		11.0		baseline	0.0	235.62095125691485	0.0999936611042358
222.0	111.00393917075417	baseline	0.0		48.0		baseline	0.0	235.7209449180191	0.39998702035518363
222.0	111.29589933833995	pulse	0.0	t			baseline	0.0	236.01290508560487	
222.0	111.40392619110935	ISI	1.0		11.0		baseline	0.0	236.12093193837427	0.09999637777582393
223.0	111.50392256888517	baseline	0.0		48.0		baseline	0.0	236.2209283161501	0.39998883146836306
223.0	111.90391140035354	ISI	1.0		11.0		baseline	0.0	236.62091714761846	0.09999577407143079
224.0	112.00390717442497	baseline	0.0		47.0		baseline	0.0	236.7209129216899	0.3999906425815425
224.0	111.99594672913008	pulse	0.0	t			baseline	0.0	236.712952476395	
224.0	112.40389781700651	ISI	1.0		11.0		baseline	0.0	237.12090356427143	0.09998702035591123
225.0	112.50388483736242	baseline	0.0		48.0		baseline	0.0	237.22089058462734	0.39999728333350504
225.0	112.69586492719463	pulse	0.0	t			baseline	0.0	237.41287067445955	
225.0	112.90388212069593	ISI	1.0		11.0		baseline	0.0	237.62088786796085	0.09999637777218595
226.0	113.00387849846811	baseline	0.0		48.0		baseline	0.0	237.72088424573303	0.3999885296179855
226.0	113.4038670280861	ISI	1.0		11.0		baseline	0.0	238.12087277535102	0.10000030185256037
226.0	113.39584953273516	pulse	1.0	t			baseline	0.0	238.11285528000008	
227.0	113.50386732993866	baseline	0.0		48.0		baseline	0.0	238.22087307720358	0.3999861148004129
227.0	113.90385344473907	ISI	1.0		11.0		baseline	0.0	238.620859192004	0.09999396295461338
228.0	114.00384740769368	baseline	0.0		48.0		baseline	0.0	238.7208531549586	0.39999215184434433
228.0	114.095823875301	pulse	0.0	t			baseline	0.0	238.8128296225659	
228.0	114.40383955953803	ISI	1.0		11.0		baseline	0.0	239.12084530680295	0.09999607592180837
229.0	114.50383563545984	baseline	0.0		48.0		baseline	0.0	239.22084138272476	0.39998762406321475
229.0	114.79580033083039	pulse	0.0	t			baseline	0.0	239.5128060780953	
229.0	114.90382325952305	ISI	1.0		11.0		baseline	0.0	239.62082900678797	0.10001780927632353
230.0	115.00384106879937	baseline	0.0		48.0		baseline	0.0	239.7208468160643	0.39996739996786346
230.0	115.40380846876724	ISI	1.0		11.0		baseline	0.0	240.12081421603216	0.09999667962620151
231.0	115.50380514839344	baseline	0.0		47.0		baseline	0.0	240.22081089565836	0.3999876240595768
231.0	115.49586583275232	pulse	0.0	t			baseline	0.0	240.21287158001724	
231.0	115.90379277245302	ISI	1.0		11.0		baseline	0.0	240.62079851971794	0.0999978870349878
232.0	116.003790659488	baseline	0.0		48.0		baseline	0.0	240.72079640675292	0.39998671850480605
232.0	116.19575958079076	pulse	0.0	t			baseline	0.0	240.91276532805568	
232.0	116.40377737799281	ISI	1.0		11.0		baseline	0.0	241.12078312525773	0.0999978870349878
233.0	116.5037752650278	baseline	0.0		48.0		baseline	0.0	241.22078101229272	0.3999873222091992
233.0	116.903762587237	ISI	1.0		11.0		baseline	0.0	241.62076833450192	0.09999818888536538
233.0	116.89573875299175	pulse	1.0	t			baseline	0.0	241.61274450025667	
234.0	117.00376077612236	baseline	0.0		48.0		baseline	0.0	241.72076652338728	0.3999885296179855
234.0	117.40374930574035	ISI	1.0		11.0		baseline	0.0	242.12075505300527	0.09999577407143079
235.0	117.50374507981178	baseline	0.0		48.0		baseline	0.0	242.2207508270767	0.3999885296179855
235.0	117.59572486779143	pulse	0.0	t			baseline	0.0	242.31273061505635	
235.0	117.90373360942976	ISI	1.0		11.0		baseline	0.0	242.62073935669468	0.09999456665900652
236.0	118.00372817608877	baseline	0.0		48.0		baseline	0.0	242.7207339233537	0.3999894351763942
236.0	118.29569588998129	pulse	0.0	t			baseline	0.0	243.0127016372462	
236.0	118.40371761126517	ISI	1.0		11.0		baseline	0.0	243.12072335853009	0.10000603704247624
237.0	118.50372364830764	baseline	0.0		48.0		baseline	0.0	243.22072939557256	0.3999797759061039
237.0	118.90370342421375	ISI	1.0		11.0		baseline	0.0	243.62070917147867	0.09999667962620151
238.0	119.00370010383995	baseline	0.0		47.0		baseline	0.0	243.72070585110487	0.39998792591359233
238.0	118.99574177151226	pulse	0.0	t			baseline	0.0	243.71274751877718	
238.0	119.40368802975354	ISI	1.0		11.0		baseline	0.0	244.12069377701846	0.0999978870349878
239.0	119.50368591678853	baseline	0.0		48.0		baseline	0.0	244.22069166405345	0.39998702035518363
239.0	119.69565544179204	pulse	0.0	t			baseline	0.0	244.41266118905696	
239.0	119.90367293714371	ISI	1.0		5.0		baseline	0.0	244.62067868440863	0.11665318393716007
240.0	120.02032612108087	word	0.0		46.0	character	word-78.jpg	0.0	244.7373318683458	0.3832973123098782
240.0	120.40362343339075	ISI	1.0		6.0	character	word-78.jpg	0.0	245.12062918065567	0.11668578396711382
240.0	120.44895227113739	pulse	1.0	t		character	word-78.jpg	0.0	245.1659580184023	
241.0	120.52030921735786	word	0.0		46.0	character	word-113.jpg	0.0	245.23731496462278	0.3832982178646489
241.0	120.90360743522251	ISI	1.0		6.0	character	word-113.jpg	0.0	245.62061318248743	0.11668970805112622
242.0	121.02029714327364	word	0.0		46.0	character	word-16.jpg	0.0	245.73730289053856	0.3832641085682553
242.0	121.09553922871055	pulse	0.0	t		character	word-16.jpg	0.0	245.81254497597547	
242.0	121.4035612518419	ISI	1.0		7.0	character	word-16.jpg	0.0	246.1205669991068	0.11665801357230521
243.0	121.5202192654142	word	0.0		46.0	character	word-16.jpg	1.0	246.23722501267912	0.38332749752589734
243.0	121.79548368791075	pulse	0.0	t		character	word-16.jpg	1.0	246.51248943517567	
243.0	121.9035467629401	ISI	1.0		7.0	character	word-16.jpg	1.0	246.62055251020502	0.11667370988288894
244.0	122.02022047282298	word	0.0		46.0	character	word-108.jpg	0.0	246.7372262200879	0.38331240491606877
244.0	122.06198564391161	response	0.0	b		character	word-108.jpg	0.0	246.77899139117653	
244.0	122.40353287773905	ISI	1.0		7.0	character	word-108.jpg	0.0	247.12053862500397	0.11668035063121351
245.0	122.52021322837027	word	0.0		45.0	character	word-102.jpg	0.0	247.2372189756352	0.3833024437954009
245.0	122.51254557967695	pulse	0.0	t		character	word-102.jpg	0.0	247.22955132694187	
245.0	122.90351567216567	ISI	1.0		5.0	character	word-102.jpg	0.0	247.6205214194306	0.11668759508393123
246.0	123.0202032672496	word	0.0		46.0	character	word-53.jpg	0.0	247.73720901451452	0.38329761416025576
246.0	123.19542754340728	pulse	0.0	t		character	word-53.jpg	0.0	247.9124332906722	
246.0	123.40350088140985	ISI	1.0		7.0	character	word-53.jpg	0.0	248.12050662867478	0.11668548211673624
247.0	123.52018636352659	word	0.0		46.0	character	word-103.jpg	0.0	248.2371921107915	0.38329851971866447
247.0	123.90348488324526	ISI	1.0		6.0	character	word-103.jpg	0.0	248.62049063051018	0.1166891043430951
247.0	123.94493975030855	pulse	1.0	t		character	word-103.jpg	0.0	248.66194549757347	
248.0	124.02017398758835	word	0.0		46.0	character	word-14.jpg	0.0	248.73717973485327	0.3832982178646489
248.0	124.403472205453	ISI	1.0		6.0	character	word-14.jpg	0.0	249.12047795271792	0.11668789693794679
249.0	124.52016010239095	word	0.0		46.0	character	word-74.jpg	0.0	249.23716584965587	0.38329791601063334
249.0	124.59539222670355	pulse	0.0	t		character	word-74.jpg	0.0	249.31239797396847	
249.0	124.90345801840158	ISI	1.0		6.0	character	word-74.jpg	0.0	249.6204637656665	0.11668367100719479
250.0	125.02014168940877	word	0.0		46.0	character	word-3.jpg	0.0	249.7371474366737	0.3833027456457785
250.0	125.29536355074742	pulse	0.0	t		character	word-3.jpg	0.0	250.01236929801235	
250.0	125.40344443505455	ISI	1.0		6.0	character	word-3.jpg	0.0	250.12045018231947	0.1166824635984085
251.0	125.52012689865296	word	0.0		46.0	character	word-66.jpg	0.0	250.23713264591788	0.3833006326822215
251.0	125.90342753133518	ISI	1.0		2.0	character	word-66.jpg	0.0	250.6204332786001	0.11667884136841167
252.0	126.0201063727036	house	0.0		45.0	place	house-28.jpg	0.0	250.73711211996851	0.38331240491606877
252.0	126.01030644031925	pulse	0.0	t		place	house-28.jpg	0.0	250.72731218758418	
252.0	126.40341877761966	ISI	1.0		6.0	place	house-28.jpg	0.0	251.12042452488458	0.11667944507644279
253.0	126.5200982226961	house	0.0		46.0	place	house-71.jpg	0.0	251.23710396996103	0.3833015382369922
253.0	126.69532672478454	pulse	0.0	t		place	house-71.jpg	0.0	251.41233247204946	
253.0	126.9033997609331	ISI	1.0		6.0	place	house-71.jpg	0.0	251.62040550819802	0.11669393398187822
254.0	127.02009369491498	house	0.0		46.0	place	house-11.jpg	0.0	251.7370994421799	0.3833090845400875
254.0	127.40340277945506	ISI	1.0		6.0	place	house-11.jpg	0.0	252.12040852671998	0.11669997102217167
254.0	127.45070814518112	pulse	1.0	t		place	house-11.jpg	0.0	252.16771389244605	
255.0	127.52010275047724	house	0.0		46.0	place	house-7.jpg	0.0	252.23710849774216	0.38331029195251176
255.0	127.90341304242975	ISI	1.0		4.0	place	house-7.jpg	0.0	252.62041878969467	0.11667461544129765
256.0	128.02008765787104	house	0.0		46.0	place	house-96.jpg	0.0	252.73709340513597	0.3832662215354503
256.0	128.09528325807332	pulse	0.0	t		place	house-96.jpg	0.0	252.81228900533824	
256.0	128.4033538794065	ISI	1.0		2.0	place	house-96.jpg	0.0	253.12035962667142	0.11668548211673624
257.0	128.52003936152323	house	0.0		46.0	place	house-47.jpg	0.0	253.23704510878815	0.38329882156904205
257.0	128.79525609138	pulse	0.0	t		place	house-47.jpg	0.0	253.51226183864492	
257.0	128.90333818309227	ISI	1.0		7.0	place	house-47.jpg	0.0	253.6203439303572	0.11668819878832437
258.0	129.0200263818806	house	0.0		46.0	place	house-93.jpg	0.0	253.73703212914552	0.3832982178646489
258.0	129.40332459974525	ISI	1.0		6.0	place	house-93.jpg	0.0	254.12033034701017	0.11667853951803409
259.0	129.52000313926328	house	0.0		45.0	place	house-43.jpg	0.0	254.2370088865282	0.38330395305820275
259.0	129.51015340127196	pulse	0.0	t		place	house-43.jpg	0.0	254.22715914853688	
259.0	129.90330709232148	ISI	1.0		6.0	place	house-43.jpg	0.0	254.6203128395864	0.11668668952552252
260.0	130.019993781847	house	0.0		46.0	place	house-134.jpg	0.0	254.73699952911193	0.38330002897782833
260.0	130.19522500060702	pulse	0.0	t		place	house-134.jpg	0.0	254.91223074787194	
260.0	130.40329381082483	ISI	1.0		6.0	place	house-134.jpg	0.0	255.12029955808976	0.11668789693430881
261.0	130.51998170775914	house	0.0		46.0	place	house-15.jpg	0.0	255.23698745502406	0.38329882156904205
261.0	130.90328052932819	ISI	1.0		6.0	place	house-15.jpg	0.0	255.6202862765931	0.11668427471158793
261.0	130.94951462171957	pulse	1.0	t		place	house-15.jpg	0.0	255.6665203689845	
262.0	131.01996480403977	house	0.0		46.0	place	house-84.jpg	0.0	255.7369705513047	0.3833003308282059
262.0	131.40326513486798	ISI	1.0		6.0	place	house-84.jpg	0.0	256.1202708821329	0.11668638767514494
263.0	131.51995152254312	house	0.0		46.0	place	house-143.jpg	0.0	256.23695726980804	0.38329851971866447
263.0	131.5952216802325	pulse	0.0	t		place	house-143.jpg	0.0	256.3122274274974	
263.0	131.9032500422618	ISI	1.0		7.0	place	house-143.jpg	0.0	256.6202557895267	0.11668336915317923
264.0	132.01993341141497	car	0.0		46.0	object	car-26.jpg	0.0	256.7369391586799	0.38330214194138534
264.0	132.2951585931296	pulse	0.0	t		object	car-26.jpg	0.0	257.0121643403945	
264.0	132.40323555335635	ISI	1.0		7.0	object	car-26.jpg	0.0	257.1202413006213	0.1166866895291605
265.0	132.5199222428855	car	0.0		46.0	object	car-67.jpg	0.0	257.23692799015043	0.38329761416025576
265.0	132.90321985704577	ISI	1.0		7.0	object	car-67.jpg	0.0	257.6202256043107	0.11667853951803409
266.0	133.0198983965638	car	0.0		45.0	object	car-51.jpg	0.0	257.7369041438287	0.3833066697261529
266.0	133.01009574750788	pulse	0.0	t		object	car-51.jpg	0.0	257.7271014947728	
266.0	133.40320506628996	ISI	1.0		7.0	object	car-51.jpg	0.0	258.1202108135549	0.11668578396711382
267.0	133.51989085025707	car	0.0		46.0	object	car-61.jpg	0.0	258.236896597522	0.3833003308318439
267.0	133.6951133153052	pulse	0.0	t		object	car-61.jpg	0.0	258.4121190625701	
267.0	133.9031911810889	ISI	1.0		7.0	object	car-61.jpg	0.0	258.62019692835383	0.11668699137953809
268.0	134.01987817246845	car	0.0		46.0	object	car-16.jpg	0.0	258.7368839197334	0.38332930863907677
268.0	134.40320748110753	ISI	1.0		7.0	object	car-16.jpg	0.0	259.12021322837245	0.11668970804748824
268.0	134.3950185337235	pulse	1.0	t		object	car-16.jpg	0.0	259.1120242809884	
269.0	134.51989718915502	car	0.0		46.0	object	car-15.jpg	0.0	259.23690293641994	0.3832951993426832
269.0	134.9031923884977	ISI	1.0		7.0	object	car-15.jpg	0.0	259.6201981357626	0.11668699137953809
270.0	135.01987937987724	car	0.0		46.0	object	car-91.jpg	0.0	259.73688512714216	0.3832985197150265
270.0	135.0951561783113	pulse	0.0	t		object	car-91.jpg	0.0	259.8121619255762	
270.0	135.40317789959227	ISI	1.0		7.0	object	car-91.jpg	0.0	260.1201836468572	0.1166866895291605
271.0	135.51986458912143	car	0.0		46.0	object	car-91.jpg	1.0	260.23687033638635	0.38329761416025576
271.0	135.79508252638334	pulse	0.0	t		object	car-91.jpg	1.0	260.51208827364826	
271.0	135.90316220328168	ISI	1.0		7.0	object	car-91.jpg	1.0	260.6201679505466	0.11668850063870195
271.0	135.93955078360887	response	1.0	b		object	car-91.jpg	1.0	260.6565565308738	
272.0	136.01985070392038	car	0.0		46.0	object	car-19.jpg	0.0	260.7368564511853	0.3832970104558626
272.0	136.40314771437625	ISI	1.0		7.0	object	car-19.jpg	0.0	261.12015346164117	0.12502897780723288
272.0	136.49496269107476	pulse	1.0	t		object	car-19.jpg	0.0	261.2119684383397	
273.0	136.52817669218348	car	0.0		45.0	object	car-73.jpg	0.0	261.2451824394484	0.3749550240281678
273.0	136.90313171621165	ISI	1.0		7.0	object	car-73.jpg	0.0	261.62013746347657	0.11668608582476736
274.0	137.0198178020364	car	0.0		46.0	object	car-29.jpg	0.0	261.73682354930133	0.3833015382369922
274.0	137.19504479486204	pulse	0.0	t		object	car-29.jpg	0.0	261.91205054212696	
274.0	137.4031193402734	ISI	1.0		7.0	object	car-29.jpg	0.0	262.1201250875383	0.11668789693430881
275.0	137.51980723720771	car	0.0		46.0	object	car-66.jpg	0.0	262.23681298447264	0.38329519934632117
275.0	137.90310243655404	ISI	1.0		7.0	object	car-66.jpg	0.0	262.62010818381896	0.11667461543765967
275.0	137.8949282799258	pulse	1.0	t		object	car-66.jpg	0.0	262.6119340271907	
276.0	138.0197770519917	body	0.0		46.0	body	body-1.jpg	0.0	262.7367827992566	0.3833121030656912
276.0	138.4030891550574	ISI	1.0		7.0	body	body-1.jpg	0.0	263.1200949023223	0.11666435246661422
277.0	138.519753507524	body	0.0		46.0	body	body-31.jpg	0.0	263.2367592547889	0.38331995121916407
277.0	138.59494578735394	pulse	0.0	t		body	body-31.jpg	0.0	263.31195153461886	
277.0	138.90307345874317	ISI	1.0		7.0	body	body-31.jpg	0.0	263.6200792060081	0.11667310618213378
278.0	139.0197465649253	body	0.0		46.0	body	body-36.jpg	0.0	263.7367523121902	0.38331149935766007
278.0	139.2948452705823	pulse	0.0	t		body	body-36.jpg	0.0	264.0118510178472	
278.0	139.40305806428296	ISI	1.0		6.0	body	body-36.jpg	0.0	264.1200638115479	0.11668880249271751
279.0	139.51974686677568	body	0.0		46.0	body	body-119.jpg	0.0	264.2367526140406	0.38329550119669875
279.0	139.90304236797238	ISI	1.0		7.0	body	body-119.jpg	0.0	264.6200481152373	0.12502414817208773
279.0	139.9948775687626	pulse	1.0	t		body	body-119.jpg	0.0	264.7118833160275	
280.0	140.02806651614446	body	0.0		45.0	body	body-69.jpg	0.0	264.7450722634094	0.37496196662687
280.0	140.40302848277133	ISI	1.0		7.0	body	body-69.jpg	0.0	265.12003423003625	0.11668819878832437
281.0	140.51971668155966	body	0.0		46.0	body	body-71.jpg	0.0	265.2367224288246	0.38326591968143475
281.0	140.6949119799101	pulse	0.0	t		body	body-71.jpg	0.0	265.411917727175	
281.0	140.9029826012411	ISI	1.0		7.0	body	body-71.jpg	0.0	265.619988348506	0.11668699137953809
282.0	141.01966959262063	body	0.0		46.0	body	body-54.jpg	0.0	265.73667533988555	0.3832973123098782
282.0	141.4029669049305	ISI	1.0		7.0	body	body-54.jpg	0.0	266.11997265219543	0.11668608582112938
282.0	141.39478037236768	pulse	1.0	t		body	body-54.jpg	0.0	266.1117861196326	
283.0	141.51965299075164	body	0.0		46.0	body	body-136.jpg	0.0	266.23665873801656	0.38330093453623704
283.0	141.90295392528787	ISI	1.0		7.0	body	body-136.jpg	0.0	266.6199596725528	0.11668548211673624
284.0	142.0196394074046	body	0.0		46.0	body	body-140.jpg	0.0	266.73664515466953	0.3832991234230576
284.0	142.09474505566322	pulse	0.0	t		body	body-140.jpg	0.0	266.81175080292815	
284.0	142.40293853082767	ISI	1.0		5.0	body	body-140.jpg	0.0	267.1199442780926	0.11668336915317923
285.0	142.51962189998085	body	0.0		46.0	body	body-103.jpg	0.0	267.23662764724577	0.38330184009100776
285.0	142.79484496872828	pulse	0.0	t		body	body-103.jpg	0.0	267.5118507159932	
285.0	142.90292374007186	ISI	1.0		7.0	body	body-103.jpg	0.0	267.6199294873368	0.11668427470794995
286.0	143.0196080147798	body	0.0		46.0	body	body-132.jpg	0.0	267.7366137620447	0.38330002897782833
286.0	143.40290804375763	ISI	1.0		7.0	body	body-132.jpg	0.0	268.11991379102255	0.11668065248522907
287.0	143.51958869624286	body	0.0		45.0	body	body-74.jpg	0.0	268.2365944435078	0.38330848083569435
287.0	143.51102454662032	pulse	0.0	t		body	body-74.jpg	0.0	268.22803029388524	
287.0	143.90289717707856	ISI	1.0		7.0	body	body-74.jpg	0.0	268.6199029243435	0.11668035063485149
288.0	144.0195775277134	house	0.0		46.0	place	house-44.jpg	0.0	268.73658327497833	0.38329036970753805
288.0	144.1948096520282	pulse	0.0	t		place	house-44.jpg	0.0	268.9118153992931	
288.0	144.40286789742095	ISI	1.0		7.0	place	house-44.jpg	0.0	269.11987364468587	0.11669483953301096
289.0	144.51956273695396	house	0.0		46.0	place	house-128.jpg	0.0	269.2365684842189	0.3833036512041872
289.0	144.89464574630256	pulse	0.0	t		place	house-128.jpg	0.0	269.6116514935675	
289.0	144.90286638815815	ISI	1.0		7.0	place	house-128.jpg	0.0	269.61987213542307	0.11668004878083593
290.0	145.01954643693898	house	0.0		46.0	place	house-74.jpg	0.0	269.7365521842039	0.38330304749979405
290.0	145.40284948443878	ISI	1.0		7.0	place	house-74.jpg	0.0	270.1198552317037	0.11668276544878609
291.0	145.51953224988756	house	0.0		46.0	place	house-74.jpg	1.0	270.2365379971525	0.38330093453259906
291.0	145.5946508777888	pulse	0.0	t		place	house-74.jpg	1.0	270.31165662505373	
291.0	145.90283318442016	ISI	1.0		5.0	place	house-74.jpg	1.0	270.6198389316851	0.11669363212786266
291.0	145.99460710922358	response	1.0	b		place	house-74.jpg	1.0	270.7116128564885	
292.0	146.01952681654802	house	0.0		46.0	place	house-24.jpg	0.0	270.73653256381294	0.38329157711632433
292.0	146.29459231846704	pulse	0.0	t		place	house-24.jpg	0.0	271.01159806573196	
292.0	146.40281839366435	ISI	1.0		6.0	place	house-24.jpg	0.0	271.11982414092927	0.11668638767514494
293.0	146.5195047813395	house	0.0		46.0	place	house-122.jpg	0.0	271.2365105286044	0.38333262901142007
293.0	146.9028374103509	ISI	1.0		5.0	place	house-122.jpg	0.0	271.61984315761583	0.12501811113179429
293.0	146.99470611673314	pulse	1.0	t		place	house-122.jpg	0.0	271.71171186399806	
294.0	147.0278555214827	house	0.0		45.0	place	house-8.jpg	0.0	271.7448612687476	0.3749695129299653
294.0	147.40282503441267	ISI	1.0		7.0	place	house-8.jpg	0.0	272.1198307816776	0.1166815580399998
295.0	147.51950659245267	house	0.0		46.0	place	house-12.jpg	0.0	272.2365123397176	0.3832991234230576
295.0	147.69460046847598	pulse	0.0	t		place	house-12.jpg	0.0	272.4116062157409	
295.0	147.90280571587573	ISI	1.0		7.0	place	house-12.jpg	0.0	272.61981146314065	0.1166891043430951
296.0	148.01949482021882	house	0.0		46.0	place	house-29.jpg	0.0	272.73650056748374	0.3832970104558626
296.0	148.39457933882295	pulse	0.0	t		place	house-29.jpg	0.0	273.11158508608787	
296.0	148.4027918306747	ISI	1.0		4.0	place	house-29.jpg	0.0	273.1197975779396	0.11668729322991567
297.0	148.5194791239046	house	0.0		46.0	place	house-4.jpg	0.0	273.2364848711695	0.38329761416025576
297.0	148.90277673806486	ISI	1.0		7.0	place	house-4.jpg	0.0	273.6197824853298	0.11668880249271751
298.0	149.01946554055758	house	0.0		46.0	place	house-3.jpg	0.0	273.7364712878225	0.3832653159806796
298.0	149.09453466470586	pulse	0.0	t		place	house-3.jpg	0.0	273.8115404119708	
298.0	149.40273085653826	ISI	1.0		6.0	place	house-3.jpg	0.0	274.1197366038032	0.11666525802138494
299.0	149.51939611455964	house	0.0		46.0	place	house-103.jpg	0.0	274.23640186182456	0.3833175364052295
299.0	149.7945222887647	pulse	0.0	t		place	house-103.jpg	0.0	274.51152803602963	
299.0	149.90271365096487	ISI	1.0		6.0	place	house-103.jpg	0.0	274.6197193982298	0.11668668952552252
300.0	150.0194003404904	house	0.0		46.0	place	house-19.jpg	0.0	274.7364060877553	0.3832994252734352
300.0	150.40269976576383	ISI	1.0		7.0	place	house-19.jpg	0.0	275.11970551302875	0.11668850063870195
300.0	150.49456273695614	pulse	1.0	t		place	house-19.jpg	0.0	275.21156848422106	
301.0	150.51938826640253	house	0.0		46.0	place	house-40.jpg	0.0	275.23639401366745	0.38329640675510745
301.0	150.90268467315764	ISI	1.0		6.0	place	house-40.jpg	0.0	275.61969042042256	0.11668427470794995
302.0	151.0193689478656	house	0.0		46.0	place	house-45.jpg	0.0	275.7363746951305	0.3833003308318439
302.0	151.1944691627832	pulse	0.0	t		place	house-45.jpg	0.0	275.9114749100481	
302.0	151.40266927869743	ISI	1.0		7.0	place	house-45.jpg	0.0	276.11967502596235	0.11668850063870195
303.0	151.51935777933613	house	0.0		46.0	place	house-126.jpg	0.0	276.23636352660105	0.3833024437954009
303.0	151.89445074980176	pulse	0.0	t		place	house-126.jpg	0.0	276.6114564970667	
303.0	151.90266022313153	ISI	1.0		7.0	place	house-126.jpg	0.0	276.61966597039645	0.11667974692682037
304.0	152.01933997005835	house	0.0		46.0	place	house-53.jpg	0.0	276.7363457173233	0.3833015382369922
304.0	152.40264150829535	ISI	1.0		6.0	place	house-53.jpg	0.0	277.11964725556027	0.11668518026635866
305.0	152.5193266885617	house	0.0		46.0	place	house-115.jpg	0.0	277.2363324358266	0.3833003308318439
305.0	152.59442992200275	pulse	0.0	t		place	house-115.jpg	0.0	277.31143566926767	
305.0	152.90262701939355	ISI	1.0		6.0	place	house-115.jpg	0.0	277.61963276665847	0.11668880249271751
306.0	153.01931582188627	house	0.0		46.0	place	house-41.jpg	0.0	277.7363215691512	0.3832939919338969
306.0	153.2943961145611	pulse	0.0	t		place	house-41.jpg	0.0	278.011401861826	
306.0	153.40260981382016	ISI	1.0		5.0	place	house-41.jpg	0.0	278.1196155610851	0.11668427470794995
307.0	153.5192940885281	house	0.0		46.0	place	house-113.jpg	0.0	278.23629983579303	0.38330184009100776
307.0	153.90259592861912	ISI	1.0		3.0	place	house-113.jpg	0.0	278.61960167588404	0.11668638767514494
307.0	153.99438554973312	pulse	1.0	t		place	house-113.jpg	0.0	278.71139129699804	
308.0	154.01928231629427	house	0.0		46.0	place	house-66.jpg	0.0	278.7362880635592	0.3833006326822215
308.0	154.4025829489765	ISI	1.0		6.0	place	house-66.jpg	0.0	279.1195886962414	0.11668336915317923
309.0	154.51926631812967	house	0.0		46.0	place	house-97.jpg	0.0	279.2362720653946	0.3833012363866146
309.0	154.69435627007624	pulse	0.0	t		place	house-97.jpg	0.0	279.41136201734116	
309.0	154.90256755451628	ISI	1.0		6.0	place	house-97.jpg	0.0	279.6195733017812	0.11668457656196551
310.0	155.01925213107825	house	0.0		46.0	place	house-58.jpg	0.0	279.73625787834317	0.38333293086179765
310.0	155.39434178117153	pulse	0.0	t		place	house-58.jpg	0.0	280.11134752843645	
310.0	155.40258506194004	ISI	1.0		6.0	place	house-58.jpg	0.0	280.11959080920496	0.11667370988652692
311.0	155.51925877182657	house	0.0		46.0	place	house-37.jpg	0.0	280.2362645190915	0.3832782956196752
311.0	155.90253706744625	ISI	1.0		7.0	place	house-37.jpg	0.0	280.61954281471117	0.11668518026635866
312.0	156.0192222477126	body	0.0		46.0	body	body-128.jpg	0.0	280.7362279949775	0.3832991234230576
312.0	156.09430374779913	pulse	0.0	t		body	body-128.jpg	0.0	280.81130949506405	
312.0	156.40252137113566	ISI	1.0		7.0	body	body-128.jpg	0.0	281.1195271184006	0.11668819878832437
313.0	156.519209569924	body	0.0		46.0	body	body-89.jpg	0.0	281.2362153171889	0.3832973123062402
313.0	156.79428231629572	pulse	0.0	t		body	body-89.jpg	0.0	281.51128806356064	
313.0	156.90250688223023	ISI	1.0		7.0	body	body-89.jpg	0.0	281.61951262949515	0.11668457656196551
314.0	157.0191914587922	body	0.0		46.0	body	body-99.jpg	0.0	281.7361972060571	0.3833003308318439
314.0	157.40249178962404	ISI	1.0		7.0	body	body-99.jpg	0.0	282.11949753688896	0.1166891043430951
314.0	157.4943079737277	pulse	1.0	t		body	body-99.jpg	0.0	282.2113137209926	
315.0	157.51918089396713	body	0.0		46.0	body	body-39.jpg	0.0	282.23618664123205	0.3832951993426832
315.0	157.90247609330982	ISI	1.0		7.0	body	body-39.jpg	0.0	282.61948184057474	0.11668729322991567
316.0	158.01916338653973	body	0.0		46.0	body	body-50.jpg	0.0	282.73616913380465	0.3832991234230576
316.0	158.19424730144237	pulse	0.0	t		body	body-50.jpg	0.0	282.9112530487073	
316.0	158.4024625099628	ISI	1.0		7.0	body	body-50.jpg	0.0	283.1194682572277	0.1166857839707518
317.0	158.51914829393354	body	0.0		46.0	body	body-123.jpg	0.0	283.23615404119846	0.38330516046335106
317.0	158.89421892734026	pulse	0.0	t		body	body-123.jpg	0.0	283.6112246746052	
317.0	158.9024534543969	ISI	1.0		7.0	body	body-123.jpg	0.0	283.6194592016618	0.11668035063121351
318.0	159.0191338050281	body	0.0		46.0	body	body-9.jpg	0.0	283.736139552293	0.3832991234230576
318.0	159.40243292845116	ISI	1.0		7.0	body	body-9.jpg	0.0	284.1194386757161	0.11668367100355681
319.0	159.51911659945472	body	0.0		46.0	body	body-63.jpg	0.0	284.23612234671964	0.3833006326822215
319.0	159.59424307551308	pulse	0.0	t		body	body-63.jpg	0.0	284.311248822778	
319.0	159.90241723213694	ISI	1.0		7.0	body	body-63.jpg	0.0	284.61942297940186	0.11668638767514494
320.0	160.01910361981209	body	0.0		46.0	body	body-63.jpg	1.0	284.736109367077	0.38330002897782833
320.0	160.29421530511536	pulse	0.0	t		body	body-63.jpg	1.0	285.0112210523803	
320.0	160.4024036487899	ISI	1.0		7.0	body	body-63.jpg	1.0	285.11940939605483	0.11668729323355365
321.0	160.51909094202347	body	0.0		46.0	body	body-34.jpg	0.0	285.2360966892884	0.3833006326822215
321.0	160.5275491415341	response	0.0	b		body	body-34.jpg	0.0	285.24455488879903	
321.0	160.9023915747057	ISI	1.0		7.0	body	body-34.jpg	0.0	285.6193973219706	0.11668185989037738
321.0	160.9941971939843	pulse	1.0	t		body	body-34.jpg	0.0	285.7112029412492	
322.0	161.01907343459607	body	0.0		46.0	body	body-144.jpg	0.0	285.736079181861	0.38329882156904205
322.0	161.4023722561651	ISI	1.0		7.0	body	body-144.jpg	0.0	286.11937800343003	0.11668759508393123
323.0	161.51905985124904	body	0.0		46.0	body	body-4.jpg	0.0	286.23606559851396	0.3833428919861035
323.0	161.69421077733205	pulse	0.0	t		body	body-4.jpg	0.0	286.41121652459697	
323.0	161.90240274323514	ISI	1.0		11.0	body	body-4.jpg	0.0	286.61940849050006	0.10001690372155281
324.0	162.0024196469567	baseline	0.0		48.0		baseline	0.0	286.7194253942216	0.3999939629538858
324.0	162.39420474028884	pulse	0.0	t			baseline	0.0	287.11121048755376	
324.0	162.40241360991058	ISI	1.0		11.0		baseline	0.0	287.1194193571755	0.09998339813319035
325.0	162.50239700804377	baseline	0.0		48.0		baseline	0.0	287.2194027553087	0.3999999999978172
325.0	162.9023970080416	ISI	1.0		11.0		baseline	0.0	287.6194027553065	0.09999667962620151
326.0	163.0023936876678	baseline	0.0		48.0		baseline	0.0	287.7193994349327	0.39998973702677176
326.0	163.0942162106694	pulse	0.0	t			baseline	0.0	287.8112219579343	
326.0	163.40238342469456	ISI	1.0		11.0		baseline	0.0	288.1193891719595	0.09999698148021707
327.0	163.50238040617478	baseline	0.0		48.0		baseline	0.0	288.2193861534397	0.3999876240595768
327.0	163.79415282171612	pulse	0.0	t			baseline	0.0	288.51115856898105	
327.0	163.90236803023436	ISI	1.0		11.0		baseline	0.0	288.6193737774993	0.0999978870349878
328.0	164.00236591726934	baseline	0.0		48.0		baseline	0.0	288.71937166453426	0.3999849073916266
328.0	164.40235082466097	ISI	1.0		11.0		baseline	0.0	289.1193565719259	0.10000150926134665
328.0	164.49414829393208	pulse	1.0	t			baseline	0.0	289.211154041197	
329.0	164.50235233392232	baseline	0.0		48.0		baseline	0.0	289.21935808118724	0.3999852092456422
329.0	164.90233754316796	ISI	1.0		11.0		baseline	0.0	289.6193432904329	0.09999667962620151
330.0	165.00233422279416	baseline	0.0		48.0		baseline	0.0	289.7193399700591	0.3999882277639699
330.0	165.1941096568553	pulse	0.0	t			baseline	0.0	289.9111154041202	
330.0	165.40232245055813	ISI	1.0		11.0		baseline	0.0	290.11932819782305	0.09999909444377408
331.0	165.5023215450019	baseline	0.0		48.0		baseline	0.0	290.2193272922668	0.3999873222091992
331.0	165.89408098089916	pulse	0.0	t			baseline	0.0	290.6110867281641	
331.0	165.9023088672111	ISI	1.0		11.0		baseline	0.0	290.619314614476	0.09999607592180837
332.0	166.0023049431329	baseline	0.0		48.0		baseline	0.0	290.71931069039783	0.39998792591359233
332.0	166.4022928690465	ISI	1.0		11.0		baseline	0.0	291.1192986163114	0.09999667962620151
333.0	166.5022895486727	baseline	0.0		48.0		baseline	0.0	291.2192952959376	0.3999876240595768
333.0	166.5940565308738	pulse	0.0	t			baseline	0.0	291.3110622781387	
333.0	166.90227717273228	ISI	1.0		11.0		baseline	0.0	291.6192829199972	0.09999728333059466
334.0	167.00227445606288	baseline	0.0		48.0		baseline	0.0	291.7192802033278	0.3999891333223786
334.0	167.29404596604945	pulse	0.0	t			baseline	0.0	292.0110517133144	
334.0	167.40226358938526	ISI	1.0		11.0		baseline	0.0	292.1192693366502	0.09999637777582393
335.0	167.50225996716108	baseline	0.0		48.0		baseline	0.0	292.219265714426	0.39998792591359233
335.0	167.90224789307467	ISI	1.0		7.0		baseline	0.0	292.6192536403396	0.12498611479895771
335.0	167.9940200067649	pulse	1.0	t			baseline	0.0	292.71102575402983	
336.0	168.02723400787363	house	0.0		45.0	place	house-92.jpg	0.0	292.74423975513855	0.37496558885322884
336.0	168.40219959672686	ISI	1.0		6.0	place	house-92.jpg	0.0	293.1192053439918	0.11668759508393123
337.0	168.5188871918108	house	0.0		46.0	place	house-48.jpg	0.0	293.2358929390757	0.38326380671787774
337.0	168.69393397889507	pulse	0.0	t		place	house-48.jpg	0.0	293.41093972616	
337.0	168.90215099852867	ISI	1.0		6.0	place	house-48.jpg	0.0	293.6191567457936	0.11668336915317923
338.0	169.01883436768185	house	0.0		46.0	place	house-32.jpg	0.0	293.73584011494677	0.3833045567589579
338.0	169.39390107701183	pulse	0.0	t		place	house-32.jpg	0.0	294.11090682427675	
338.0	169.4021389244408	ISI	1.0		6.0	place	house-32.jpg	0.0	294.1191446717057	0.11666827654698864
339.0	169.5188072009878	house	0.0		46.0	place	house-101.jpg	0.0	294.2358129482527	0.38331270676644635
339.0	169.90211990775424	ISI	1.0		6.0	place	house-101.jpg	0.0	294.61912565501916	0.11668729323355365
340.0	170.0188072009878	house	0.0		46.0	place	house-14.jpg	0.0	294.7358129482527	0.3832982178646489
340.0	170.09388658810713	pulse	0.0	t		place	house-14.jpg	0.0	294.81089233537205	
340.0	170.40210541885244	ISI	1.0		6.0	place	house-14.jpg	0.0	295.11911116611736	0.11668729322991567
341.0	170.51879271208236	house	0.0		46.0	place	house-25.jpg	0.0	295.2357984593473	0.38329761416025576
341.0	170.79385972326418	pulse	0.0	t		place	house-25.jpg	0.0	295.5108654705291	
341.0	170.90209032624261	ISI	1.0		7.0	place	house-25.jpg	0.0	295.61909607350754	0.11668729323355365
342.0	171.01877761947617	house	0.0		46.0	place	house-102.jpg	0.0	295.7357833667411	0.3832994252734352
342.0	171.4020770447496	ISI	1.0		0.0	place	house-102.jpg	0.0	296.1190827920145	0.11668397285757237
343.0	171.51876101760718	house	0.0		45.0	place	house-89.jpg	0.0	296.2357667648721	0.3833012363866146
343.0	171.51338442684573	pulse	0.0	t		place	house-89.jpg	0.0	296.23039017411065	
343.0	171.9020622539938	ISI	1.0		6.0	place	house-89.jpg	0.0	296.6190680012587	0.11669031175188138
344.0	172.01875256574567	house	0.0		46.0	place	house-46.jpg	0.0	296.7357583130106	0.3832939919338969
344.0	172.19381655840334	pulse	0.0	t		place	house-46.jpg	0.0	296.91082230566826	
344.0	172.40204655767957	ISI	1.0		6.0	place	house-46.jpg	0.0	297.1190523049445	0.11667280432811822
345.0	172.5187193620077	house	0.0		46.0	place	house-125.jpg	0.0	297.2357251092726	0.38331572528841207
345.0	172.89379965468106	pulse	0.0	t		place	house-125.jpg	0.0	297.610805401946	
345.0	172.9020350872961	ISI	1.0		7.0	place	house-125.jpg	0.0	297.619040834561	0.11668397285757237
346.0	173.01871906015367	house	0.0		46.0	place	house-31.jpg	0.0	297.7357248074186	0.38329761416025576
346.0	173.40201667431393	ISI	1.0		6.0	place	house-31.jpg	0.0	298.11902242157885	0.11668759508393123
347.0	173.51870426939786	house	0.0		46.0	place	house-136.jpg	0.0	298.2357100166628	0.3832973123098782
347.0	173.59377822317765	pulse	0.0	t		place	house-136.jpg	0.0	298.31078397044257	
347.0	173.90200158170774	ISI	1.0		11.0	place	house-136.jpg	0.0	298.61900732897266	0.09999667962620151
348.0	174.00199826133394	baseline	0.0		48.0		baseline	0.0	298.71900400859886	0.39999094443555805
348.0	174.29392733814893	pulse	0.0	t			baseline	0.0	299.01093308541385	
348.0	174.4019892057695	ISI	1.0		11.0		baseline	0.0	299.1189949530344	0.09999426480862894
349.0	174.50198347057812	baseline	0.0		48.0		baseline	0.0	299.21898921784305	0.4000585593203141
349.0	174.90204202989844	ISI	1.0		11.0		baseline	0.0	299.61904777716336	0.09999818888536538
349.0	174.99380418246437	pulse	1.0	t			baseline	0.0	299.7108099297293	
350.0	175.0020402187838	baseline	0.0		48.0		baseline	0.0	299.7190459660487	0.39998883147200104
350.0	175.4020290502558	ISI	1.0		11.0		baseline	0.0	300.1190347975207	0.10000935741481953
351.0	175.50203840767063	baseline	0.0		48.0		baseline	0.0	300.21904415493555	0.3999755499753519
351.0	175.69378727874573	pulse	0.0	t			baseline	0.0	300.41079302601065	
351.0	175.90201395764598	ISI	1.0		11.0		baseline	0.0	300.6190197049109	0.0999969814765791
352.0	176.00201093912256	baseline	0.0		48.0		baseline	0.0	300.7190166863875	0.3999885296179855
352.0	176.39377701577178	pulse	0.0	t			baseline	0.0	301.1107827630367	
352.0	176.40199946874054	ISI	1.0		11.0		baseline	0.0	301.11900521600546	0.09999607592180837
353.0	176.50199554466235	baseline	0.0		48.0		baseline	0.0	301.21900129192727	0.3999882277676079
353.0	176.90198377242996	ISI	1.0		11.0		baseline	0.0	301.6189895196949	0.0999978870349878
354.0	177.00198165946495	baseline	0.0		48.0		baseline	0.0	301.71898740672987	0.3999861148004129
354.0	177.09378999541514	pulse	0.0	t			baseline	0.0	301.81079574268006	
354.0	177.40196777426536	ISI	1.0		11.0		baseline	0.0	302.1189735215303	0.09999637777218595
355.0	177.50196415203754	baseline	0.0		48.0		baseline	0.0	302.21896989930246	0.39998883147200104
355.0	177.7937353601701	pulse	0.0	t			baseline	0.0	302.510741107435	
355.0	177.90195298350955	ISI	1.0		11.0		baseline	0.0	302.61895873077447	0.10000030185256037
356.0	178.0019532853621	baseline	0.0		48.0		baseline	0.0	302.718959032627	0.39996679625983234
356.0	178.40192008162194	ISI	1.0		11.0		baseline	0.0	303.11892582888686	0.10000452778331237
356.0	178.49372358793698	pulse	1.0	t			baseline	0.0	303.2107293352019	
357.0	178.50192460940525	baseline	0.0		48.0		baseline	0.0	303.21893035667017	0.39998973702677176
357.0	178.90191434643202	ISI	1.0		11.0		baseline	0.0	303.61892009369694	0.1000054333380831
358.0	179.0019197797701	baseline	0.0		48.0		baseline	0.0	303.718925527035	0.39998883146836306
358.0	179.19369732679843	pulse	0.0	t			baseline	0.0	303.91070307406335	
358.0	179.40190861123847	ISI	1.0		11.0		baseline	0.0	304.1189143585034	0.09999698148021707
359.0	179.50190559271869	baseline	0.0		48.0		baseline	0.0	304.2189113399836	0.39999003887714935
359.0	179.89367408418184	pulse	0.0	t			baseline	0.0	304.61067983144676	
359.0	179.90189563159583	ISI	1.0		7.0		baseline	0.0	304.61890137886076	0.1166474487472442
360.0	180.01854308034308	adult	0.0		46.0	face	adult-133.jpg	0.0	304.735548827608	0.38329761416025576
360.0	180.40184069450333	ISI	1.0		7.0	face	adult-133.jpg	0.0	305.11884644176826	0.11668819878832437
361.0	180.51852889329166	adult	0.0		46.0	face	adult-10.jpg	0.0	305.2355346405566	0.3832677307946142
361.0	180.59358745261125	pulse	0.0	t		face	adult-10.jpg	0.0	305.31059319987617	
361.0	180.90179662408627	ISI	1.0		7.0	face	adult-10.jpg	0.0	305.6188023713512	0.11668397285757237
362.0	181.01848059694385	adult	0.0		46.0	face	adult-19.jpg	0.0	305.73548634420877	0.38329851971866447
362.0	181.2935599840639	pulse	0.0	t		face	adult-19.jpg	0.0	306.0105657313288	
362.0	181.4017791166625	ISI	1.0		5.0	face	adult-19.jpg	0.0	306.11878486392743	0.11668819878832437
363.0	181.51846731545083	adult	0.0		46.0	face	adult-81.jpg	0.0	306.23547306271576	0.38329791601063334
363.0	181.90176523146147	ISI	1.0		7.0	face	adult-81.jpg	0.0	306.6187709787264	0.11668457656196551
363.0	181.99354157108246	pulse	1.0	t		face	adult-81.jpg	0.0	306.7105473183474	
364.0	182.01844980802343	adult	0.0		46.0	face	adult-91.jpg	0.0	306.73545555528835	0.3832994252734352
364.0	182.40174923329687	ISI	1.0		5.0	face	adult-91.jpg	0.0	307.1187549805618	0.11668789693430881
365.0	182.51843713023118	adult	0.0		46.0	face	adult-46.jpg	0.0	307.2354428774961	0.3832973123098782
365.0	182.6935216488382	pulse	0.0	t		face	adult-46.jpg	0.0	307.41052739610313	
365.0	182.90173444254106	ISI	1.0		7.0	face	adult-46.jpg	0.0	307.618740189806	0.1166857839707518
366.0	183.0184202265118	adult	0.0		46.0	face	adult-46.jpg	1.0	307.7354259737767	0.38330425490858033
366.0	183.3935014247436	pulse	0.0	t		face	adult-46.jpg	1.0	308.1105071720085	
366.0	183.4017244814204	ISI	1.0		7.0	face	adult-46.jpg	1.0	308.1187302286853	0.11668125618598424
367.0	183.51840573760637	adult	0.0		45.0	face	adult-14.jpg	0.0	308.2354114848713	0.38329851971866447
367.0	183.52301230349622	response	0.0	b		face	adult-14.jpg	0.0	308.24001805076114	
367.0	183.90170425732504	ISI	1.0		7.0	face	adult-14.jpg	0.0	308.61871000458996	0.11671174325601896
368.0	184.01841600058106	adult	0.0		46.0	face	adult-125.jpg	0.0	308.735421747846	0.3832746733969543
368.0	184.09348120064897	pulse	0.0	t		face	adult-125.jpg	0.0	308.8104869479139	
368.0	184.401690673978	ISI	1.0		7.0	face	adult-125.jpg	0.0	309.11869642124293	0.11668668952552252
369.0	184.51837736350353	adult	0.0		46.0	face	adult-60.jpg	0.0	309.23538311076845	0.3832979160142713
369.0	184.79345765617836	pulse	0.0	t		face	adult-60.jpg	0.0	309.5104634034433	
369.0	184.9016752795178	ISI	1.0		7.0	face	adult-60.jpg	0.0	309.6186810267827	0.11668880249271751
370.0	185.01836408201052	adult	0.0		46.0	face	adult-128.jpg	0.0	309.73536982927544	0.38329761416025576
370.0	185.40166169617078	ISI	1.0		7.0	face	adult-128.jpg	0.0	310.1186674434357	0.1166857839707518
370.0	185.49343803578813	pulse	1.0	t		face	adult-128.jpg	0.0	310.21044378305305	
371.0	185.51834748014153	adult	0.0		46.0	face	adult-16.jpg	0.0	310.23535322740645	0.38329791601063334
371.0	185.90164539615216	ISI	1.0		7.0	face	adult-16.jpg	0.0	310.6186511434171	0.11669363212786266
372.0	186.01833902828002	body	0.0		46.0	body	body-61.jpg	0.0	310.73534477554495	0.3832921808207175
372.0	186.1934193209563	pulse	0.0	t		body	body-61.jpg	0.0	310.91042506822123	
372.0	186.40163120910074	ISI	1.0		7.0	body	body-61.jpg	0.0	311.11863695636566	0.1166857839707518
373.0	186.5183169930715	body	0.0		46.0	body	body-100.jpg	0.0	311.2353227403364	0.38333262901142007
373.0	186.8934286783733	pulse	0.0	t		body	body-100.jpg	0.0	311.61043442563823	
373.0	186.9016496220829	ISI	1.0		7.0	body	body-100.jpg	0.0	311.61865536934783	0.1166857839707518
374.0	187.01833540605367	body	0.0		46.0	body	body-77.jpg	0.0	311.7353411533186	0.38326561783105717
374.0	187.40160102388472	ISI	1.0		7.0	body	body-77.jpg	0.0	312.11860677114964	0.11670329139451496
375.0	187.51830431527924	body	0.0		46.0	body	body-133.jpg	0.0	312.23531006254416	0.38328161599565647
375.0	187.5933806838766	pulse	0.0	t		body	body-133.jpg	0.0	312.3103864311415	
375.0	187.9015859312749	ISI	1.0		7.0	body	body-133.jpg	0.0	312.6185916785398	0.11668699137953809
376.0	188.01827292265443	body	0.0		46.0	body	body-37.jpg	0.0	312.73527866991935	0.38330395305820275
376.0	188.29337132646106	pulse	0.0	t		body	body-37.jpg	0.0	313.010377073726	
376.0	188.40157687571264	ISI	1.0		7.0	body	body-37.jpg	0.0	313.11858262297756	0.11668125618598424
377.0	188.51825813189862	body	0.0		46.0	body	body-131.jpg	0.0	313.23526387916354	0.3832970104558626
377.0	188.90155514235448	ISI	1.0		5.0	body	body-131.jpg	0.0	313.6185608896194	0.11669151916066767
377.0	188.99333148197547	pulse	1.0	t		body	body-131.jpg	0.0	313.7103372292404	
378.0	189.01824666151515	body	0.0		46.0	body	body-38.jpg	0.0	313.73525240878007	0.3832936900835193
378.0	189.40154035159867	ISI	1.0		7.0	body	body-38.jpg	0.0	314.1185460988636	0.11666495617100736
379.0	189.51820530776968	body	0.0		46.0	body	body-88.jpg	0.0	314.2352110550346	0.3833217623323435
379.0	189.69331276714001	pulse	0.0	t		body	body-88.jpg	0.0	314.41031851440493	
379.0	189.90152707010202	ISI	1.0		7.0	body	body-88.jpg	0.0	314.61853281736694	0.11667582285008393
380.0	190.0182028929521	body	0.0		46.0	body	body-121.jpg	0.0	314.735208640217	0.38331180121167563
380.0	190.39328922267305	pulse	0.0	t		body	body-121.jpg	0.0	315.11029496993797	
380.0	190.40151469416378	ISI	1.0		5.0	body	body-121.jpg	0.0	315.1185204414287	0.11668457656196551
381.0	190.51819927072575	body	0.0		46.0	body	body-73.jpg	0.0	315.23520501799067	0.38329761416025576
381.0	190.901496884886	ISI	1.0		6.0	body	body-73.jpg	0.0	315.6185026321509	0.11668940619711066
382.0	191.0181862910831	body	0.0		46.0	body	body-98.jpg	0.0	315.73519203834803	0.38329459563829005
382.0	191.0933034097252	pulse	0.0	t		body	body-98.jpg	0.0	315.8103091569901	
382.0	191.4014808867214	ISI	1.0		7.0	body	body-98.jpg	0.0	316.1184866339863	0.11668608582476736
383.0	191.51816697254617	body	0.0		46.0	body	body-47.jpg	0.0	316.2351727198111	0.3833015382369922
383.0	191.79325088744736	pulse	0.0	t		body	body-47.jpg	0.0	316.5102566347123	
383.0	191.90146851078316	ISI	1.0		7.0	body	body-47.jpg	0.0	316.6184742580481	0.11668518026635866
384.0	192.01815369104952	word	0.0		46.0	character	word-98.jpg	0.0	316.73515943831444	0.3832979160142713
384.0	192.4014516070638	ISI	1.0		4.0	character	word-98.jpg	0.0	317.1184573543287	0.1166891043430951
384.0	192.49324273743696	pulse	1.0	t		character	word-98.jpg	0.0	317.2102484847019	
385.0	192.5181407114069	word	0.0		46.0	character	word-40.jpg	0.0	317.2351464586718	0.38329882156904205
385.0	192.90143953297593	ISI	1.0		7.0	character	word-40.jpg	0.0	317.61844528024085	0.1166848784123431
386.0	193.01812441138827	word	0.0		46.0	character	word-41.jpg	0.0	317.7351301586532	0.3833308179018786
386.0	193.19324454855087	pulse	0.0	t		character	word-41.jpg	0.0	317.9102502958158	
386.0	193.40145522929015	ISI	1.0		6.0	character	word-41.jpg	0.0	318.11846097655507	0.11670751732526696
387.0	193.51816274661542	word	0.0		46.0	character	word-71.jpg	0.0	318.23516849388034	0.38327980488247704
387.0	193.8932210040839	pulse	0.0	t		character	word-71.jpg	0.0	318.6102267513488	
387.0	193.9014425514979	ISI	1.0		6.0	character	word-71.jpg	0.0	318.6184482987628	0.11668608582112938
388.0	194.01812863731902	word	0.0		46.0	character	word-32.jpg	0.0	318.73513438458394	0.38329972712745075
388.0	194.40142836444647	ISI	1.0		6.0	character	word-32.jpg	0.0	319.1184341117114	0.1166848784123431
389.0	194.51811324285882	word	0.0		46.0	character	word-91.jpg	0.0	319.23511899012374	0.38325927893674816
389.0	194.59318266885748	pulse	0.0	t		character	word-91.jpg	0.0	319.3101884161224	
389.0	194.90137252179557	ISI	1.0		5.0	character	word-91.jpg	0.0	319.6183782690605	0.11668970804748824
