trial_nr	onset	event_type	phase	response	nr_frames	face_age	face_sex	face_eth	attractiveness	expression	face_id	sub_id	ses	run	trial_type	catch	rating_type	onset_abs	duration
-1.0	0.05563485952188785	fix	0.0		714													24.680291386483077	5.965647413662737
-1.0	0.7048524065830861	pulse	0.0	t														25.329508933544275	
-1.0	1.4048256320620567	pulse	0.0	t														26.029482159023246	
-1.0	2.104812742862123	pulse	0.0	t														26.729469269823312	
-1.0	2.804818266804432	pulse	0.0	t														27.42947479376562	
-1.0	3.5047848514768702	pulse	0.0	t														28.12944137843806	
-1.0	4.204770151147386	pulse	0.0	t														28.829426678108575	
-1.0	4.904757563803287	pulse	0.0	t														29.529414090764476	
-1.0	5.604742863473803	pulse	0.0	t														30.229399390434992	
0.0	6.0212822731846245	face	0.0		144	30.0	female	black	2.7345801830481498	smiling	062	sub-04	2.0	2.0	062_smiling	0.0		30.645938800145814	1.2333165602685767
0.0	6.304736615078582	pulse	0.0	t		30.0	female	black	2.7345801830481498	smiling	062	sub-04	2.0	2.0	062_smiling	0.0		30.92939314203977	
0.0	7.004709236847702	pulse	0.0	t		30.0	female	black	2.7345801830481498	smiling	062	sub-04	2.0	2.0	062_smiling	0.0		31.62936576380889	
0.0	7.254598833453201	fix	1.0		446	30.0	female	black	2.7345801830481498	smiling	062	sub-04	2.0	2.0	062_smiling	0.0		31.87925536041439	3.7582526349651744
0.0	7.704702988454301	pulse	1.0	t		30.0	female	black	2.7345801830481498	smiling	062	sub-04	2.0	2.0	062_smiling	0.0		32.32935951541549	
0.0	8.404679836190553	pulse	1.0	t		30.0	female	black	2.7345801830481498	smiling	062	sub-04	2.0	2.0	062_smiling	0.0		33.02933636315174	
0.0	9.1046693618282	pulse	1.0	t		30.0	female	black	2.7345801830481498	smiling	062	sub-04	2.0	2.0	062_smiling	0.0		33.72932588878939	
0.0	9.804669754239512	pulse	1.0	t		30.0	female	black	2.7345801830481498	smiling	062	sub-04	2.0	2.0	062_smiling	0.0		34.4293262812007	
0.0	10.504641470442948	pulse	1.0	t		30.0	female	black	2.7345801830481498	smiling	062	sub-04	2.0	2.0	062_smiling	0.0		35.12929799740414	
1.0	11.012851468418376	face	0.0		146	22.0	male	black	2.767608436132113	smiling	044	sub-04	2.0	2.0	044_smiling	0.0		35.637507995379565	1.2416429232707742
1.0	11.204660879708172	pulse	0.0	t		22.0	male	black	2.767608436132113	smiling	044	sub-04	2.0	2.0	044_smiling	0.0		35.82931740666936	
1.0	11.904607541962832	pulse	0.0	t		22.0	male	black	2.767608436132113	smiling	044	sub-04	2.0	2.0	044_smiling	0.0		36.52926406892402	
1.0	12.25449439168915	fix	1.0		445	22.0	male	black	2.767608436132113	smiling	044	sub-04	2.0	2.0	044_smiling	0.0		36.87915091865034	3.758256257224275
1.0	12.604605821390578	pulse	1.0	t		22.0	male	black	2.767608436132113	smiling	044	sub-04	2.0	2.0	044_smiling	0.0		37.22926234835177	
1.0	13.304580857999099	pulse	1.0	t		22.0	male	black	2.767608436132113	smiling	044	sub-04	2.0	2.0	044_smiling	0.0		37.92923738496029	
1.0	14.004572194766297	pulse	1.0	t		22.0	male	black	2.767608436132113	smiling	044	sub-04	2.0	2.0	044_smiling	0.0		38.629228721727486	
1.0	14.704547835082849	pulse	1.0	t		22.0	male	black	2.767608436132113	smiling	044	sub-04	2.0	2.0	044_smiling	0.0		39.32920436204404	
1.0	15.404530719915783	pulse	1.0	t		22.0	male	black	2.767608436132113	smiling	044	sub-04	2.0	2.0	044_smiling	0.0		40.02918724687697	
2.0	16.012750648913425	face	0.0		146	28.0	male	east_asian	1.5563072025467568	smiling	005	sub-04	2.0	2.0	005_smiling	0.0		40.637407175874614	1.2416411121412239
2.0	16.104527490067994	pulse	0.0	t		28.0	male	east_asian	1.5563072025467568	smiling	005	sub-04	2.0	2.0	005_smiling	0.0		40.72918401702918	
2.0	16.8044998099831	pulse	0.0	t		28.0	male	east_asian	1.5563072025467568	smiling	005	sub-04	2.0	2.0	005_smiling	0.0		41.42915633694429	
2.0	17.25439176105465	fix	1.0		445	28.0	male	east_asian	1.5563072025467568	smiling	005	sub-04	2.0	2.0	005_smiling	0.0		41.87904828801584	3.7582462960144767
2.0	17.504499900538576	pulse	1.0	t		28.0	male	east_asian	1.5563072025467568	smiling	005	sub-04	2.0	2.0	005_smiling	0.0		42.129156427499765	
2.0	18.20447795569453	pulse	1.0	t		28.0	male	east_asian	1.5563072025467568	smiling	005	sub-04	2.0	2.0	005_smiling	0.0		42.82913448265572	
2.0	18.90447351842886	pulse	1.0	t		28.0	male	east_asian	1.5563072025467568	smiling	005	sub-04	2.0	2.0	005_smiling	0.0		43.52913004539005	
2.0	19.60445157358481	pulse	1.0	t		28.0	male	east_asian	1.5563072025467568	smiling	005	sub-04	2.0	2.0	005_smiling	0.0		44.229108100546	
2.0	20.304438684384877	pulse	1.0	t		28.0	male	east_asian	1.5563072025467568	smiling	005	sub-04	2.0	2.0	005_smiling	0.0		44.929095211346066	
3.0	21.012638057069125	face	0.0		146	31.0	female	east_asian	3.395941106247513	neutral	087	sub-04	2.0	2.0	087_neutral	1.0	trustworthiness	45.637294584030315	1.2416465455280559
3.0	21.00540923814515	pulse	0.0	t		31.0	female	east_asian	3.395941106247513	neutral	087	sub-04	2.0	2.0	087_neutral	1.0	trustworthiness	45.63006576510634	
3.0	21.704406265178477	pulse	0.0	t		31.0	female	east_asian	3.395941106247513	neutral	087	sub-04	2.0	2.0	087_neutral	1.0	trustworthiness	46.329062792139666	
3.0	22.25428460259718	fix	1.0		177	31.0	female	east_asian	3.395941106247513	neutral	087	sub-04	2.0	2.0	087_neutral	1.0	trustworthiness	46.87894112955837	1.5083346640112723
3.0	22.404400922347122	pulse	1.0	t		31.0	female	east_asian	3.395941106247513	neutral	087	sub-04	2.0	2.0	087_neutral	1.0	trustworthiness	47.02905744930831	
3.0	23.104375355245793	pulse	1.0	t		31.0	female	east_asian	3.395941106247513	neutral	087	sub-04	2.0	2.0	087_neutral	1.0	trustworthiness	47.72903188220698	
3.0	23.762619266608453	rating	2.0		293	31.0	female	east_asian	3.395941106247513	neutral	087	sub-04	2.0	2.0	087_neutral	1.0	trustworthiness	48.38727579356964	2.491582929627839
3.0	23.804369710560422	pulse	2.0	t		31.0	female	east_asian	3.395941106247513	neutral	087	sub-04	2.0	2.0	087_neutral	1.0	trustworthiness	48.42902623752161	
3.0	24.50435168982949	pulse	2.0	t		31.0	female	east_asian	3.395941106247513	neutral	087	sub-04	2.0	2.0	087_neutral	1.0	trustworthiness	49.12900821679068	
3.0	25.204336385790157	pulse	2.0	t		31.0	female	east_asian	3.395941106247513	neutral	087	sub-04	2.0	2.0	087_neutral	1.0	trustworthiness	49.828992912751346	
3.0	25.5324069811777	response	2.0	y		31.0	female	east_asian	3.395941106247513	neutral	087	sub-04	2.0	2.0	087_neutral	1.0	trustworthiness	50.15706350813889	
3.0	25.904307800139577	pulse	2.0	t		31.0	female	east_asian	3.395941106247513	neutral	087	sub-04	2.0	2.0	087_neutral	1.0	trustworthiness	50.528964327100766	
3.0	26.254202196236292	fix	3.0		444	31.0	female	east_asian	3.395941106247513	neutral	087	sub-04	2.0	2.0	087_neutral	1.0	trustworthiness	50.87885872319748	3.766585035064054
3.0	26.604307890696873	pulse	3.0	t		31.0	female	east_asian	3.395941106247513	neutral	087	sub-04	2.0	2.0	087_neutral	1.0	trustworthiness	51.22896441765806	
3.0	27.304302547865518	pulse	3.0	t		31.0	female	east_asian	3.395941106247513	neutral	087	sub-04	2.0	2.0	087_neutral	1.0	trustworthiness	51.92895907482671	
3.0	28.004272754797057	pulse	3.0	t		31.0	female	east_asian	3.395941106247513	neutral	087	sub-04	2.0	2.0	087_neutral	1.0	trustworthiness	52.628929281758246	
3.0	28.704257148903707	pulse	3.0	t		31.0	female	east_asian	3.395941106247513	neutral	087	sub-04	2.0	2.0	087_neutral	1.0	trustworthiness	53.3289136758649	
3.0	29.404249089380755	pulse	3.0	t		31.0	female	east_asian	3.395941106247513	neutral	087	sub-04	2.0	2.0	087_neutral	1.0	trustworthiness	54.028905616341945	
4.0	30.020787231300346	face	0.0		145	27.0	male	black	3.5523278949462798	smiling	042	sub-04	2.0	2.0	042_smiling	0.0		54.645443758261536	1.2333108250259102
4.0	30.10424193542167	pulse	0.0	t		27.0	male	black	3.5523278949462798	smiling	042	sub-04	2.0	2.0	042_smiling	0.0		54.72889846238286	
4.0	30.80421153864154	pulse	0.0	t		27.0	male	black	3.5523278949462798	smiling	042	sub-04	2.0	2.0	042_smiling	0.0		55.42886806560273	
4.0	31.254098056326256	fix	1.0		446	27.0	male	black	3.5523278949462798	smiling	042	sub-04	2.0	2.0	042_smiling	0.0		55.878754583287446	3.7665805072429066
4.0	31.504205290248137	pulse	1.0	t		27.0	male	black	3.5523278949462798	smiling	042	sub-04	2.0	2.0	042_smiling	0.0		56.12886181720933	
4.0	32.20418334540227	pulse	1.0	t		27.0	male	black	3.5523278949462798	smiling	042	sub-04	2.0	2.0	042_smiling	0.0		56.82883987236346	
4.0	32.90417770071872	pulse	1.0	t		27.0	male	black	3.5523278949462798	smiling	042	sub-04	2.0	2.0	042_smiling	0.0		57.52883422767991	
4.0	33.60414911506814	pulse	1.0	t		27.0	male	black	3.5523278949462798	smiling	042	sub-04	2.0	2.0	042_smiling	0.0		58.22880564202933	
4.0	34.3041413573992	pulse	1.0	t		27.0	male	black	3.5523278949462798	smiling	042	sub-04	2.0	2.0	042_smiling	0.0		58.92879788436039	
5.0	35.02067856356916	face	0.0		146	19.0	male	white	3.2522881018702745	neutral	018	sub-04	2.0	2.0	018_neutral	0.0		59.64533509053035	1.2333132398653106
5.0	35.00679626098463	pulse	0.0	t		19.0	male	white	3.2522881018702745	neutral	018	sub-04	2.0	2.0	018_neutral	0.0		59.63145278794582	
5.0	35.70411467343365	pulse	0.0	t		19.0	male	white	3.2522881018702745	neutral	018	sub-04	2.0	2.0	018_neutral	0.0		60.32877120039484	
5.0	36.253991803434474	fix	1.0		444	19.0	male	white	3.2522881018702745	neutral	018	sub-04	2.0	2.0	018_neutral	0.0		60.87864833039566	3.7582526349669934
5.0	36.40410450092713	pulse	1.0	t		19.0	male	white	3.2522881018702745	neutral	018	sub-04	2.0	2.0	018_neutral	0.0		61.02876102788832	
5.0	37.104080141243685	pulse	1.0	t		19.0	male	white	3.2522881018702745	neutral	018	sub-04	2.0	2.0	018_neutral	0.0		61.728736668204874	
5.0	37.8040741947043	pulse	1.0	t		19.0	male	white	3.2522881018702745	neutral	018	sub-04	2.0	2.0	018_neutral	0.0		62.42873072166549	
5.0	38.50405526840768	pulse	1.0	t		19.0	male	white	3.2522881018702745	neutral	018	sub-04	2.0	2.0	018_neutral	0.0		63.12871179536887	
5.0	39.2040405680782	pulse	1.0	t		19.0	male	white	3.2522881018702745	neutral	018	sub-04	2.0	2.0	018_neutral	0.0		63.82869709503939	
5.0	39.90402284920128	pulse	1.0	t		19.0	male	white	3.2522881018702745	neutral	018	sub-04	2.0	2.0	018_neutral	0.0		64.52867937616247	
6.0	40.01224443840147	face	0.0		147	24.0	female	east_asian	4.409868682849185	smiling	030	sub-04	2.0	2.0	030_smiling	0.0		64.63690096536266	1.24164503625434
6.0	40.60401780822576	pulse	0.0	t		24.0	female	east_asian	4.409868682849185	smiling	030	sub-04	2.0	2.0	030_smiling	0.0		65.22867433518695	
6.0	41.25388947465581	fix	1.0		445	24.0	female	east_asian	4.409868682849185	smiling	030	sub-04	2.0	2.0	030_smiling	0.0		65.878546001617	3.7665865443377697
6.0	41.30399858007513	pulse	1.0	t		24.0	female	east_asian	4.409868682849185	smiling	030	sub-04	2.0	2.0	030_smiling	0.0		65.92865510703632	
6.0	42.00398720014891	pulse	1.0	t		24.0	female	east_asian	4.409868682849185	smiling	030	sub-04	2.0	2.0	030_smiling	0.0		66.6286437271101	
6.0	42.70396857570813	pulse	1.0	t		24.0	female	east_asian	4.409868682849185	smiling	030	sub-04	2.0	2.0	030_smiling	0.0		67.32862510266932	
6.0	43.4039544790885	pulse	1.0	t		24.0	female	east_asian	4.409868682849185	smiling	030	sub-04	2.0	2.0	030_smiling	0.0		68.02861100604969	
6.0	44.10393766577545	pulse	1.0	t		24.0	female	east_asian	4.409868682849185	smiling	030	sub-04	2.0	2.0	030_smiling	0.0		68.72859419273664	
6.0	44.80392387100983	pulse	1.0	t		24.0	female	east_asian	4.409868682849185	smiling	030	sub-04	2.0	2.0	030_smiling	0.0		69.42858039797102	
7.0	45.02047601899358	face	0.0		145	54.0	female	white	2.286908077994429	neutral	136	sub-04	2.0	2.0	136_neutral	0.0		69.64513254595477	1.2333084101883287
7.0	45.503909774392014	pulse	0.0	t		54.0	female	white	2.286908077994429	neutral	136	sub-04	2.0	2.0	136_neutral	0.0		70.1285663013532	
7.0	46.203893564788814	pulse	0.0	t		54.0	female	white	2.286908077994429	neutral	136	sub-04	2.0	2.0	136_neutral	0.0		70.82855009175	
7.0	46.253784429181906	fix	1.0		445	54.0	female	white	2.286908077994429	neutral	136	sub-04	2.0	2.0	136_neutral	0.0		70.8784409561431	3.758322967136337
7.0	46.903880977442896	pulse	1.0	t		54.0	female	white	2.286908077994429	neutral	136	sub-04	2.0	2.0	136_neutral	0.0		71.52853750440408	
7.0	47.60386778638713	pulse	1.0	t		54.0	female	white	2.286908077994429	neutral	136	sub-04	2.0	2.0	136_neutral	0.0		72.22852431334832	
7.0	48.30385429347734	pulse	1.0	t		54.0	female	white	2.286908077994429	neutral	136	sub-04	2.0	2.0	136_neutral	0.0		72.92851082043853	
7.0	49.00384744137409	pulse	1.0	t		54.0	female	white	2.286908077994429	neutral	136	sub-04	2.0	2.0	136_neutral	0.0		73.62850396833528	
7.0	49.70382459096436	pulse	1.0	t		54.0	female	white	2.286908077994429	neutral	136	sub-04	2.0	2.0	136_neutral	0.0		74.32848111792555	
8.0	50.01210739631824	face	0.0		146	25.0	female	black	3.858336649423	neutral	126	sub-04	2.0	2.0	126_neutral	1.0	attractiveness	74.63676392327943	1.2415710818277148
8.0	50.40381622958557	pulse	0.0	t		25.0	female	black	3.858336649423	neutral	126	sub-04	2.0	2.0	126_neutral	1.0	attractiveness	75.02847275654676	
8.0	51.10379156804811	pulse	0.0	t		25.0	female	black	3.858336649423	neutral	126	sub-04	2.0	2.0	126_neutral	1.0	attractiveness	75.7284480950093	
8.0	51.25367847814596	fix	1.0		177	25.0	female	black	3.858336649423	neutral	126	sub-04	2.0	2.0	126_neutral	1.0	attractiveness	75.87833500510715	1.4999711728651164
8.0	51.80378501779887	pulse	1.0	t		25.0	female	black	3.858336649423	neutral	126	sub-04	2.0	2.0	126_neutral	1.0	attractiveness	76.42844154476006	
8.0	52.50376911005151	pulse	1.0	t		25.0	female	black	3.858336649423	neutral	126	sub-04	2.0	2.0	126_neutral	1.0	attractiveness	77.1284256370127	
8.0	52.753649651011074	rating	2.0		295	25.0	female	black	3.858336649423	neutral	126	sub-04	2.0	2.0	126_neutral	1.0	attractiveness	77.37830617797226	2.4999467226261913
8.0	53.19850515462349	pulse	2.0	t		25.0	female	black	3.858336649423	neutral	126	sub-04	2.0	2.0	126_neutral	1.0	attractiveness	77.82316168158468	
8.0	53.89848532276301	pulse	2.0	t		25.0	female	black	3.858336649423	neutral	126	sub-04	2.0	2.0	126_neutral	1.0	attractiveness	78.5231418497242	
8.0	54.598484205900604	pulse	2.0	t		25.0	female	black	3.858336649423	neutral	126	sub-04	2.0	2.0	126_neutral	1.0	attractiveness	79.2231407328618	
8.0	55.08182106590357	response	2.0	b		25.0	female	black	3.858336649423	neutral	126	sub-04	2.0	2.0	126_neutral	1.0	attractiveness	79.70647759286476	
8.0	55.253596373637265	fix	3.0		443	25.0	female	black	3.858336649423	neutral	126	sub-04	2.0	2.0	126_neutral	1.0	attractiveness	79.87825290059845	3.7665880536133045
8.0	55.30369793268801	pulse	3.0	t		25.0	female	black	3.858336649423	neutral	126	sub-04	2.0	2.0	126_neutral	1.0	attractiveness	79.9283544596492	
8.0	56.00368836388952	pulse	3.0	t		25.0	female	black	3.858336649423	neutral	126	sub-04	2.0	2.0	126_neutral	1.0	attractiveness	80.62834489085071	
8.0	56.703668230175026	pulse	3.0	t		25.0	female	black	3.858336649423	neutral	126	sub-04	2.0	2.0	126_neutral	1.0	attractiveness	81.32832475713622	
8.0	57.40366167992579	pulse	3.0	t		25.0	female	black	3.858336649423	neutral	126	sub-04	2.0	2.0	126_neutral	1.0	attractiveness	82.02831820688698	
8.0	58.103643357339024	pulse	3.0	t		25.0	female	black	3.858336649423	neutral	126	sub-04	2.0	2.0	126_neutral	1.0	attractiveness	82.72829988430021	
8.0	58.80363167555697	pulse	3.0	t		25.0	female	black	3.858336649423	neutral	126	sub-04	2.0	2.0	126_neutral	1.0	attractiveness	83.42828820251816	
9.0	59.02018442725057	face	0.0		145	22.0	female	white	4.614007162753682	neutral	009	sub-04	2.0	2.0	009_neutral	0.0		83.64484095421176	1.2333090138981788
9.0	59.503623314178185	pulse	0.0	t		22.0	female	white	4.614007162753682	neutral	009	sub-04	2.0	2.0	009_neutral	0.0		84.12827984113937	
9.0	60.20359986006042	pulse	0.0	t		22.0	female	white	4.614007162753682	neutral	009	sub-04	2.0	2.0	009_neutral	0.0		84.82825638702161	
9.0	60.25349344114875	fix	1.0		445	22.0	female	white	4.614007162753682	neutral	009	sub-04	2.0	2.0	009_neutral	0.0		84.87814996810994	3.766585035064054
9.0	60.903590894973604	pulse	1.0	t		22.0	female	white	4.614007162753682	neutral	009	sub-04	2.0	2.0	009_neutral	0.0		85.5282474219348	
9.0	61.60356804456387	pulse	1.0	t		22.0	female	white	4.614007162753682	neutral	009	sub-04	2.0	2.0	009_neutral	0.0		86.22822457152506	
9.0	62.30356300358835	pulse	1.0	t		22.0	female	white	4.614007162753682	neutral	009	sub-04	2.0	2.0	009_neutral	0.0		86.92821953054954	
9.0	63.003543473581885	pulse	1.0	t		22.0	female	white	4.614007162753682	neutral	009	sub-04	2.0	2.0	009_neutral	0.0		87.62820000054307	
9.0	63.703523038011554	pulse	1.0	t		22.0	female	white	4.614007162753682	neutral	009	sub-04	2.0	2.0	009_neutral	0.0		88.32817956497274	
10.0	64.0200784762128	face	0.0		145	20.0	female	white	3.9502586549940313	neutral	091	sub-04	2.0	2.0	091_neutral	0.0		88.64473500317399	1.2333084101883287
10.0	64.40352312856885	pulse	0.0	t		20.0	female	white	3.9502586549940313	neutral	091	sub-04	2.0	2.0	091_neutral	0.0		89.02817965553004	
10.0	65.1034987688854	pulse	0.0	t		20.0	female	white	3.9502586549940313	neutral	091	sub-04	2.0	2.0	091_neutral	0.0		89.72815529584659	
10.0	65.25338688640113	fix	1.0		445	20.0	female	white	3.9502586549940313	neutral	091	sub-04	2.0	2.0	091_neutral	0.0		89.87804341336232	3.7582580683520064
10.0	65.80348648339532	pulse	1.0	t		20.0	female	white	3.9502586549940313	neutral	091	sub-04	2.0	2.0	091_neutral	0.0		90.42814301035651	
10.0	66.50346725524287	pulse	1.0	t		20.0	female	white	3.9502586549940313	neutral	091	sub-04	2.0	2.0	091_neutral	0.0		91.12812378220406	
10.0	67.20345164934952	pulse	1.0	t		20.0	female	white	3.9502586549940313	neutral	091	sub-04	2.0	2.0	091_neutral	0.0		91.8281081763107	
10.0	67.9034426842627	pulse	1.0	t		20.0	female	white	3.9502586549940313	neutral	091	sub-04	2.0	2.0	091_neutral	0.0		92.52809921122389	
10.0	68.60341983385297	pulse	1.0	t		20.0	female	white	3.9502586549940313	neutral	091	sub-04	2.0	2.0	091_neutral	0.0		93.22807636081416	
11.0	69.01164495475314	face	0.0		146	47.0	male	east_asian	2.171110226820533	smiling	024	sub-04	2.0	2.0	024_smiling	0.0		93.63630148171433	1.241634169482495
11.0	69.30342022626428	pulse	0.0	t		47.0	male	east_asian	2.171110226820533	smiling	024	sub-04	2.0	2.0	024_smiling	0.0		93.92807675322547	
11.0	70.0034028092432	pulse	0.0	t		47.0	male	east_asian	2.171110226820533	smiling	024	sub-04	2.0	2.0	024_smiling	0.0		94.62805933620439	
11.0	70.25327912423563	fix	1.0		445	47.0	male	east_asian	2.171110226820533	smiling	024	sub-04	2.0	2.0	024_smiling	0.0		94.87793565119682	3.7665750738560746
11.0	70.7033853922203	pulse	1.0	t		47.0	male	east_asian	2.171110226820533	smiling	024	sub-04	2.0	2.0	024_smiling	0.0		95.32804191918149	
11.0	71.40336978632695	pulse	1.0	t		47.0	male	east_asian	2.171110226820533	smiling	024	sub-04	2.0	2.0	024_smiling	0.0		96.02802631328814	
11.0	72.10335025632048	pulse	1.0	t		47.0	male	east_asian	2.171110226820533	smiling	024	sub-04	2.0	2.0	024_smiling	0.0		96.72800678328167	
11.0	72.80333917824828	pulse	1.0	t		47.0	male	east_asian	2.171110226820533	smiling	024	sub-04	2.0	2.0	024_smiling	0.0		97.42799570520947	
11.0	73.50332145937136	pulse	1.0	t		47.0	male	east_asian	2.171110226820533	smiling	024	sub-04	2.0	2.0	024_smiling	0.0		98.12797798633255	
12.0	74.0198541980917	face	0.0		145	22.0	male	black	2.767608436132113	neutral	044	sub-04	2.0	2.0	044_neutral	0.0		98.6445107250529	1.2333241066371556
12.0	74.20331460726811	pulse	0.0	t		22.0	male	black	2.767608436132113	neutral	044	sub-04	2.0	2.0	044_neutral	0.0		98.8279711342293	
12.0	74.90329507726165	pulse	0.0	t		22.0	male	black	2.767608436132113	neutral	044	sub-04	2.0	2.0	044_neutral	0.0		99.52795160422284	
12.0	75.25317830472886	fix	1.0		445	22.0	male	black	2.767608436132113	neutral	044	sub-04	2.0	2.0	044_neutral	0.0		99.87783483169005	3.766587751759289
12.0	75.60328339548141	pulse	1.0	t		22.0	male	black	2.767608436132113	neutral	044	sub-04	2.0	2.0	044_neutral	0.0		100.2279399224426	
12.0	76.30326477103881	pulse	1.0	t		22.0	male	black	2.767608436132113	neutral	044	sub-04	2.0	2.0	044_neutral	0.0		100.927921298	
12.0	77.00324373175863	pulse	1.0	t		22.0	male	black	2.767608436132113	neutral	044	sub-04	2.0	2.0	044_neutral	0.0		101.62790025871982	
12.0	77.70323748336523	pulse	1.0	t		22.0	male	black	2.767608436132113	neutral	044	sub-04	2.0	2.0	044_neutral	0.0		102.32789401032642	
12.0	78.40322006634233	pulse	1.0	t		22.0	male	black	2.767608436132113	neutral	044	sub-04	2.0	2.0	044_neutral	0.0		103.02787659330352	
13.0	79.01976605648815	face	0.0		145	21.0	male	east_asian/white	3.501790688420215	neutral	036	sub-04	2.0	2.0	036_neutral	0.0		103.64442258344934	1.233307504622644
13.0	79.10321713835037	pulse	0.0	t		21.0	male	east_asian/white	3.501790688420215	neutral	036	sub-04	2.0	2.0	036_neutral	0.0		103.72787366531156	
13.0	79.80320666398802	pulse	0.0	t		21.0	male	east_asian/white	3.501790688420215	neutral	036	sub-04	2.0	2.0	036_neutral	0.0		104.42786319094921	
13.0	80.2530735611108	fix	1.0		445	21.0	male	east_asian/white	3.501790688420215	neutral	036	sub-04	2.0	2.0	036_neutral	0.0		104.87773008807198	3.7665826202264725
13.0	80.50317988946699	pulse	1.0	t		21.0	male	east_asian/white	3.501790688420215	neutral	036	sub-04	2.0	2.0	036_neutral	0.0		105.12783641642818	
13.0	81.20315673720324	pulse	1.0	t		21.0	male	east_asian/white	3.501790688420215	neutral	036	sub-04	2.0	2.0	036_neutral	0.0		105.82781326416443	
13.0	81.90314052760004	pulse	1.0	t		21.0	male	east_asian/white	3.501790688420215	neutral	036	sub-04	2.0	2.0	036_neutral	0.0		106.52779705456123	
13.0	82.60313427920664	pulse	1.0	t		21.0	male	east_asian/white	3.501790688420215	neutral	036	sub-04	2.0	2.0	036_neutral	0.0		107.22779080616783	
13.0	83.30311354178048	pulse	1.0	t		21.0	male	east_asian/white	3.501790688420215	neutral	036	sub-04	2.0	2.0	036_neutral	0.0		107.92777006874167	
14.0	84.01965618133727	face	0.0		146	31.0	male	west_asian	1.9538400318344609	smiling	070	sub-04	2.0	2.0	070_smiling	0.0		108.64431270829846	1.2333138435751607
14.0	84.00577236947902	pulse	0.0	t		31.0	male	west_asian	1.9538400318344609	smiling	070	sub-04	2.0	2.0	070_smiling	0.0		108.63042889644021	
14.0	84.70309742273457	pulse	0.0	t		31.0	male	west_asian	1.9538400318344609	smiling	070	sub-04	2.0	2.0	070_smiling	0.0		109.32775394969576	
14.0	85.25297002491243	fix	1.0		443	31.0	male	west_asian	1.9538400318344609	smiling	070	sub-04	2.0	2.0	070_smiling	0.0		109.87762655187362	3.7665895628870203
14.0	85.40308091127554	pulse	1.0	t		31.0	male	west_asian	1.9538400318344609	smiling	070	sub-04	2.0	2.0	070_smiling	0.0		110.02773743823673	
14.0	86.10306077756104	pulse	1.0	t		31.0	male	west_asian	1.9538400318344609	smiling	070	sub-04	2.0	2.0	070_smiling	0.0		110.72771730452223	
14.0	86.80304004013487	pulse	1.0	t		31.0	male	west_asian	1.9538400318344609	smiling	070	sub-04	2.0	2.0	070_smiling	0.0		111.42769656709606	
14.0	87.50303530101519	pulse	1.0	t		31.0	male	west_asian	1.9538400318344609	smiling	070	sub-04	2.0	2.0	070_smiling	0.0		112.12769182797638	
14.0	88.20301365802516	pulse	1.0	t		31.0	male	west_asian	1.9538400318344609	smiling	070	sub-04	2.0	2.0	070_smiling	0.0		112.82767018498635	
14.0	88.90299352430884	pulse	1.0	t		31.0	male	west_asian	1.9538400318344609	smiling	070	sub-04	2.0	2.0	070_smiling	0.0		113.52765005127003	
15.0	89.01955958779945	face	0.0		146	36.0	female	white	2.7548746518105847	smiling	011	sub-04	2.0	2.0	011_smiling	0.0		113.64421611476064	1.2333053916408971
15.0	89.60299633155955	pulse	0.0	t		36.0	female	white	2.7548746518105847	smiling	011	sub-04	2.0	2.0	011_smiling	0.0		114.22765285852074	
15.0	90.25286497944035	fix	1.0		443	36.0	female	white	2.7548746518105847	smiling	011	sub-04	2.0	2.0	011_smiling	0.0		114.87752150640154	3.7665886573213356
15.0	90.30298525348735	pulse	1.0	t		36.0	female	white	2.7548746518105847	smiling	011	sub-04	2.0	2.0	011_smiling	0.0		114.92764178044854	
15.0	91.00295244186964	pulse	1.0	t		36.0	female	white	2.7548746518105847	smiling	011	sub-04	2.0	2.0	011_smiling	0.0		115.62760896883083	
15.0	91.70293804339599	pulse	1.0	t		36.0	female	white	2.7548746518105847	smiling	011	sub-04	2.0	2.0	011_smiling	0.0		116.32759457035718	
15.0	92.4029360209679	pulse	1.0	t		36.0	female	white	2.7548746518105847	smiling	011	sub-04	2.0	2.0	011_smiling	0.0		117.02759254792909	
15.0	93.10291166128627	pulse	1.0	t		36.0	female	white	2.7548746518105847	smiling	011	sub-04	2.0	2.0	011_smiling	0.0		117.72756818824746	
15.0	93.80289001829624	pulse	1.0	t		36.0	female	white	2.7548746518105847	smiling	011	sub-04	2.0	2.0	011_smiling	0.0		118.42754654525743	
16.0	94.01945363676168	face	0.0		145	27.0	male	black	3.5523278949462798	neutral	042	sub-04	2.0	2.0	042_neutral	0.0		118.64411016372287	1.2333081083343131
16.0	94.5028898069977	pulse	0.0	t		27.0	male	black	3.5523278949462798	neutral	042	sub-04	2.0	2.0	042_neutral	0.0		119.12754633395889	
16.0	95.2028735973945	pulse	0.0	t		27.0	male	black	3.5523278949462798	neutral	042	sub-04	2.0	2.0	042_neutral	0.0		119.82753012435569	
16.0	95.252761745096	fix	1.0		445	27.0	male	black	3.5523278949462798	neutral	042	sub-04	2.0	2.0	042_neutral	0.0		119.87741827205718	3.7665874499034544
16.0	95.90285829335517	pulse	1.0	t		27.0	male	black	3.5523278949462798	neutral	042	sub-04	2.0	2.0	042_neutral	0.0		120.52751482031636	
16.0	96.60286562842703	pulse	1.0	t		27.0	male	black	3.5523278949462798	neutral	042	sub-04	2.0	2.0	042_neutral	0.0		121.22752215538821	
16.0	97.30285817261392	pulse	1.0	t		27.0	male	black	3.5523278949462798	neutral	042	sub-04	2.0	2.0	042_neutral	0.0		121.92751469957511	
16.0	98.00280574043427	pulse	1.0	t		27.0	male	black	3.5523278949462798	neutral	042	sub-04	2.0	2.0	042_neutral	0.0		122.62746226739546	
16.0	98.70279345494237	pulse	1.0	t		27.0	male	black	3.5523278949462798	neutral	042	sub-04	2.0	2.0	042_neutral	0.0		123.32744998190356	
17.0	99.01934919499945	face	0.0		145	19.0	female	white	4.298846000795861	neutral	100	sub-04	2.0	2.0	100_neutral	0.0		123.64400572196064	1.2333065990587784
17.0	99.40279052695223	pulse	0.0	t		19.0	female	white	4.298846000795861	neutral	100	sub-04	2.0	2.0	100_neutral	0.0		124.02744705391342	
17.0	100.10276586541295	pulse	0.0	t		19.0	female	white	4.298846000795861	neutral	100	sub-04	2.0	2.0	100_neutral	0.0		124.72742239237414	
17.0	100.25265579405823	fix	1.0		445	19.0	female	white	4.298846000795861	neutral	100	sub-04	2.0	2.0	100_neutral	0.0		124.87731232101942	3.76658895917717
17.0	100.8027590133097	pulse	1.0	t		19.0	female	white	4.298846000795861	neutral	100	sub-04	2.0	2.0	100_neutral	0.0		125.42741554027089	
17.0	101.50273223878867	pulse	1.0	t		19.0	female	white	4.298846000795861	neutral	100	sub-04	2.0	2.0	100_neutral	0.0		126.12738876574986	
17.0	102.20271934958873	pulse	1.0	t		19.0	female	white	4.298846000795861	neutral	100	sub-04	2.0	2.0	100_neutral	0.0		126.82737587654992	
17.0	102.90271279933768	pulse	1.0	t		19.0	female	white	4.298846000795861	neutral	100	sub-04	2.0	2.0	100_neutral	0.0		127.52736932629887	
17.0	103.60269206191333	pulse	1.0	t		19.0	female	white	4.298846000795861	neutral	100	sub-04	2.0	2.0	100_neutral	0.0		128.22734858887452	
18.0	104.0192447532354	face	0.0		145	19.0	male	white	2.243931555909272	neutral	130	sub-04	2.0	2.0	130_neutral	0.0		128.6439012801966	1.2333038823653624
18.0	104.3026867190838	pulse	0.0	t		19.0	male	white	2.243931555909272	neutral	130	sub-04	2.0	2.0	130_neutral	0.0		128.92734324604498	
18.0	105.00266507609376	pulse	0.0	t		19.0	male	white	2.243931555909272	neutral	130	sub-04	2.0	2.0	130_neutral	0.0		129.62732160305495	
18.0	105.25254863560076	fix	1.0		445	19.0	male	white	2.243931555909272	neutral	130	sub-04	2.0	2.0	130_neutral	0.0		129.87720516256195	3.7665946944198367
18.0	105.70265369616754	pulse	1.0	t		19.0	male	white	2.243931555909272	neutral	130	sub-04	2.0	2.0	130_neutral	0.0		130.32731022312873	
18.0	106.40263446801691	pulse	1.0	t		19.0	male	white	2.243931555909272	neutral	130	sub-04	2.0	2.0	130_neutral	0.0		131.0272909949781	
18.0	107.10263033260526	pulse	1.0	t		19.0	male	white	2.243931555909272	neutral	130	sub-04	2.0	2.0	130_neutral	0.0		131.72728685956645	
18.0	107.8026068784875	pulse	1.0	t		19.0	male	white	2.243931555909272	neutral	130	sub-04	2.0	2.0	130_neutral	0.0		132.42726340544868	
18.0	108.50258855590073	pulse	1.0	t		19.0	male	white	2.243931555909272	neutral	130	sub-04	2.0	2.0	130_neutral	0.0		133.12724508286192	
19.0	109.0191433300206	face	0.0		145	25.0	female	black	3.858336649423	smiling	126	sub-04	2.0	2.0	126_smiling	0.0		133.6437998569818	1.233302071237631
19.0	109.2025974002463	pulse	0.0	t		25.0	female	black	3.858336649423	smiling	126	sub-04	2.0	2.0	126_smiling	0.0		133.8272539272075	
19.0	109.90256338120889	pulse	0.0	t		25.0	female	black	3.858336649423	smiling	126	sub-04	2.0	2.0	126_smiling	0.0		134.52721990817008	
19.0	110.25244540125823	fix	1.0		445	25.0	female	black	3.858336649423	smiling	126	sub-04	2.0	2.0	126_smiling	0.0		134.87710192821942	3.76658895917717
19.0	110.60255471797609	pulse	1.0	t		25.0	female	black	3.858336649423	smiling	126	sub-04	2.0	2.0	126_smiling	0.0		135.22721124493728	
19.0	111.30253639538932	pulse	1.0	t		25.0	female	black	3.858336649423	smiling	126	sub-04	2.0	2.0	126_smiling	0.0		135.9271929223505	
19.0	112.00252048764014	pulse	1.0	t		25.0	female	black	3.858336649423	smiling	126	sub-04	2.0	2.0	126_smiling	0.0		136.62717701460133	
19.0	112.70250669287634	pulse	1.0	t		25.0	female	black	3.858336649423	smiling	126	sub-04	2.0	2.0	126_smiling	0.0		137.32716321983753	
19.0	113.40248716286987	pulse	1.0	t		25.0	female	black	3.858336649423	smiling	126	sub-04	2.0	2.0	126_smiling	0.0		138.02714368983106	
20.0	114.0190343604354	face	0.0		145	31.0	female	white	2.1822522881018704	smiling	102	sub-04	2.0	2.0	102_smiling	0.0		138.6436908873966	1.2333081083324942
20.0	114.10250053503842	pulse	0.0	t		31.0	female	white	2.1822522881018704	smiling	102	sub-04	2.0	2.0	102_smiling	0.0		138.7271570619996	
20.0	114.80245504551931	pulse	0.0	t		31.0	female	white	2.1822522881018704	smiling	102	sub-04	2.0	2.0	102_smiling	0.0		139.4271115724805	
20.0	115.25234246876789	fix	1.0		1185	31.0	female	white	2.1822522881018704	smiling	102	sub-04	2.0	2.0	102_smiling	0.0		139.87699899572908	10.016455312961625
20.0	115.50245121196167	pulse	1.0	t		31.0	female	white	2.1822522881018704	smiling	102	sub-04	2.0	2.0	102_smiling	0.0		140.12710773892286	
20.0	116.20243107824717	pulse	1.0	t		31.0	female	white	2.1822522881018704	smiling	102	sub-04	2.0	2.0	102_smiling	0.0		140.82708760520836	
20.0	116.90241124638669	pulse	1.0	t		31.0	female	white	2.1822522881018704	smiling	102	sub-04	2.0	2.0	102_smiling	0.0		141.52706777334788	
20.0	117.60241012952247	pulse	1.0	t		31.0	female	white	2.1822522881018704	smiling	102	sub-04	2.0	2.0	102_smiling	0.0		142.22706665648366	
20.0	118.30238878838827	pulse	1.0	t		31.0	female	white	2.1822522881018704	smiling	102	sub-04	2.0	2.0	102_smiling	0.0		142.92704531534946	
20.0	119.00236473056066	pulse	1.0	t		31.0	female	white	2.1822522881018704	smiling	102	sub-04	2.0	2.0	102_smiling	0.0		143.62702125752185	
20.0	119.70235848216544	pulse	1.0	t		31.0	female	white	2.1822522881018704	smiling	102	sub-04	2.0	2.0	102_smiling	0.0		144.32701500912663	
20.0	120.40234468740164	pulse	1.0	t		31.0	female	white	2.1822522881018704	smiling	102	sub-04	2.0	2.0	102_smiling	0.0		145.02700121436283	
20.0	121.10232847779844	pulse	1.0	t		31.0	female	white	2.1822522881018704	smiling	102	sub-04	2.0	2.0	102_smiling	0.0		145.72698500475963	
20.0	121.80230592924454	pulse	1.0	t		31.0	female	white	2.1822522881018704	smiling	102	sub-04	2.0	2.0	102_smiling	0.0		146.42696245620573	
20.0	122.50230239754273	pulse	1.0	t		31.0	female	white	2.1822522881018704	smiling	102	sub-04	2.0	2.0	102_smiling	0.0		147.12695892450392	
20.0	123.2022807545527	pulse	1.0	t		31.0	female	white	2.1822522881018704	smiling	102	sub-04	2.0	2.0	102_smiling	0.0		147.8269372815139	
20.0	123.9022645449495	pulse	1.0	t		31.0	female	white	2.1822522881018704	smiling	102	sub-04	2.0	2.0	102_smiling	0.0		148.5269210719107	
20.0	124.60225769284625	pulse	1.0	t		31.0	female	white	2.1822522881018704	smiling	102	sub-04	2.0	2.0	102_smiling	0.0		149.22691421980744	
21.0	125.26879778172952	face	0.0		145	24.0	female	black	3.0955033824114606	smiling	099	sub-04	2.0	2.0	099_smiling	0.0		149.8934543086907	1.233309617608029
21.0	125.30225385929043	pulse	0.0	t		24.0	female	black	3.0955033824114606	smiling	099	sub-04	2.0	2.0	099_smiling	0.0		149.92691038625162	
21.0	126.00222829218728	pulse	0.0	t		24.0	female	black	3.0955033824114606	smiling	099	sub-04	2.0	2.0	099_smiling	0.0		150.62688481914847	
21.0	126.50210739933755	fix	1.0		443	24.0	female	black	3.0955033824114606	smiling	099	sub-04	2.0	2.0	099_smiling	0.0		151.12676392629874	3.766595901837718
21.0	126.70221902524463	pulse	1.0	t		24.0	female	black	3.0955033824114606	smiling	099	sub-04	2.0	2.0	099_smiling	0.0		151.32687555220582	
21.0	127.40220009894801	pulse	1.0	t		24.0	female	black	3.0955033824114606	smiling	099	sub-04	2.0	2.0	099_smiling	0.0		152.0268566259092	
21.0	128.10217875781382	pulse	1.0	t		24.0	female	black	3.0955033824114606	smiling	099	sub-04	2.0	2.0	099_smiling	0.0		152.726835284775	
21.0	128.80216043522705	pulse	1.0	t		24.0	female	black	3.0955033824114606	smiling	099	sub-04	2.0	2.0	099_smiling	0.0		153.42681696218824	
21.0	129.50215599796138	pulse	1.0	t		24.0	female	black	3.0955033824114606	smiling	099	sub-04	2.0	2.0	099_smiling	0.0		154.12681252492257	
21.0	130.20214552359903	pulse	1.0	t		24.0	female	black	3.0955033824114606	smiling	099	sub-04	2.0	2.0	099_smiling	0.0		154.82680205056022	
22.0	130.26870330117526	face	0.0		146	31.0	female	east_asian	3.395941106247513	smiling	087	sub-04	2.0	2.0	087_smiling	0.0		154.89335982813645	1.2332996563982306
22.0	130.90212448431885	pulse	0.0	t		31.0	female	east_asian	3.395941106247513	smiling	087	sub-04	2.0	2.0	087_smiling	0.0		155.52678101128004	
22.0	131.5020029575735	fix	1.0		444	31.0	female	east_asian	3.395941106247513	smiling	087	sub-04	2.0	2.0	087_smiling	0.0		156.12665948453468	3.766578092405325
22.0	131.60211612294188	pulse	1.0	t		31.0	female	east_asian	3.395941106247513	smiling	087	sub-04	2.0	2.0	087_smiling	0.0		156.22677264990307	
22.0	132.30209870591898	pulse	1.0	t		31.0	female	east_asian	3.395941106247513	smiling	087	sub-04	2.0	2.0	087_smiling	0.0		156.92675523288017	
22.0	133.0020752517994	pulse	1.0	t		31.0	female	east_asian	3.395941106247513	smiling	087	sub-04	2.0	2.0	087_smiling	0.0		157.6267317787606	
22.0	133.70205783477832	pulse	1.0	t		31.0	female	east_asian	3.395941106247513	smiling	087	sub-04	2.0	2.0	087_smiling	0.0		158.3267143617395	
22.0	134.40205490678636	pulse	1.0	t		31.0	female	east_asian	3.395941106247513	smiling	087	sub-04	2.0	2.0	087_smiling	0.0		159.02671143374755	
22.0	135.10203507492588	pulse	1.0	t		31.0	female	east_asian	3.395941106247513	smiling	087	sub-04	2.0	2.0	087_smiling	0.0		159.72669160188707	
23.0	135.26858104997882	face	0.0		146	23.0	male	white	2.6275368085953046	smiling	141	sub-04	2.0	2.0	141_smiling	0.0		159.89323757694	1.2333201825258584
23.0	135.8020279209668	pulse	0.0	t		23.0	male	white	2.6275368085953046	smiling	141	sub-04	2.0	2.0	141_smiling	0.0		160.42668444792798	
23.0	136.50190123250468	fix	1.0		444	23.0	male	white	2.6275368085953046	smiling	141	sub-04	2.0	2.0	141_smiling	0.0		161.12655775946587	3.7665771868396405
23.0	136.50928580850814	pulse	1.0	t		23.0	male	white	2.6275368085953046	smiling	141	sub-04	2.0	2.0	141_smiling	0.0		161.13394233546933	
23.0	137.2019958036144	pulse	1.0	t		23.0	male	white	2.6275368085953046	smiling	141	sub-04	2.0	2.0	141_smiling	0.0		161.8266523305756	
23.0	137.9019795940112	pulse	1.0	t		23.0	male	white	2.6275368085953046	smiling	141	sub-04	2.0	2.0	141_smiling	0.0		162.5266361209724	
23.0	138.60195855473103	pulse	1.0	t		23.0	male	white	2.6275368085953046	smiling	141	sub-04	2.0	2.0	141_smiling	0.0		163.22661508169222	
23.0	139.30194928778837	pulse	1.0	t		23.0	male	white	2.6275368085953046	smiling	141	sub-04	2.0	2.0	141_smiling	0.0		163.92660581474956	
23.0	140.00192794665418	pulse	1.0	t		23.0	male	white	2.6275368085953046	smiling	141	sub-04	2.0	2.0	141_smiling	0.0		164.62658447361537	
24.0	140.26847841934432	face	0.0		145	28.0	male	east_asian	1.5563072025467568	neutral	005	sub-04	2.0	2.0	005_neutral	0.0		164.8931349463055	1.2333165602667577
24.0	140.7019271316458	pulse	0.0	t		28.0	male	east_asian	1.5563072025467568	neutral	005	sub-04	2.0	2.0	005_neutral	0.0		165.32658365860698	
24.0	141.40190186639848	pulse	0.0	t		28.0	male	east_asian	1.5563072025467568	neutral	005	sub-04	2.0	2.0	005_neutral	0.0		166.02655839335966	
24.0	141.50179497961108	fix	1.0		445	28.0	male	east_asian	1.5563072025467568	neutral	005	sub-04	2.0	2.0	005_neutral	0.0		166.12645150657227	3.7665847332100384
24.0	142.1018986365525	pulse	1.0	t		28.0	male	east_asian	1.5563072025467568	neutral	005	sub-04	2.0	2.0	005_neutral	0.0		166.7265551635137	
24.0	142.8018745787249	pulse	1.0	t		28.0	male	east_asian	1.5563072025467568	neutral	005	sub-04	2.0	2.0	005_neutral	0.0		167.42653110568608	
24.0	143.50185927468556	pulse	1.0	t		28.0	male	east_asian	1.5563072025467568	neutral	005	sub-04	2.0	2.0	005_neutral	0.0		168.12651580164675	
24.0	144.2018500077429	pulse	1.0	t		28.0	male	east_asian	1.5563072025467568	neutral	005	sub-04	2.0	2.0	005_neutral	0.0		168.8265065347041	
24.0	144.9018310814463	pulse	1.0	t		28.0	male	east_asian	1.5563072025467568	neutral	005	sub-04	2.0	2.0	005_neutral	0.0		169.52648760840748	
25.0	145.26837971282112	face	0.0		145	24.0	female	east_asian	2.9076800636689217	neutral	034	sub-04	2.0	2.0	034_neutral	0.0		169.8930362397823	1.2333108250277292
25.0	145.60182422934304	pulse	0.0	t		24.0	female	east_asian	2.9076800636689217	neutral	034	sub-04	2.0	2.0	034_neutral	0.0		170.22648075630423	
25.0	146.3018013789333	pulse	0.0	t		24.0	female	east_asian	2.9076800636689217	neutral	034	sub-04	2.0	2.0	034_neutral	0.0		170.9264579058945	
25.0	146.50169053784884	fix	1.0		445	24.0	female	east_asian	2.9076800636689217	neutral	034	sub-04	2.0	2.0	034_neutral	0.0		171.12634706481003	3.7665946944180178
25.0	147.00179211199065	pulse	1.0	t		24.0	female	east_asian	2.9076800636689217	neutral	034	sub-04	2.0	2.0	034_neutral	0.0		171.62644863895184	
25.0	147.70178133577429	pulse	1.0	t		24.0	female	east_asian	2.9076800636689217	neutral	034	sub-04	2.0	2.0	034_neutral	0.0		172.32643786273547	
25.0	148.4017551649631	pulse	1.0	t		24.0	female	east_asian	2.9076800636689217	neutral	034	sub-04	2.0	2.0	034_neutral	0.0		173.0264116919243	
25.0	149.10174469060075	pulse	1.0	t		24.0	female	east_asian	2.9076800636689217	neutral	034	sub-04	2.0	2.0	034_neutral	0.0		173.72640121756194	
25.0	149.80172848099755	pulse	1.0	t		24.0	female	east_asian	2.9076800636689217	neutral	034	sub-04	2.0	2.0	034_neutral	0.0		174.42638500795874	
26.0	150.26828523226686	face	0.0		145	40.0	male	white	1.868682849184242	neutral	172	sub-04	2.0	2.0	172_neutral	0.0		174.89294175922805	1.2332996563982306
26.0	150.50172102518445	pulse	0.0	t		40.0	male	white	1.868682849184242	neutral	172	sub-04	2.0	2.0	172_neutral	0.0		175.12637755214564	
26.0	151.20170058961412	pulse	0.0	t		40.0	male	white	1.868682849184242	neutral	172	sub-04	2.0	2.0	172_neutral	0.0		175.8263571165753	
26.0	151.5015848886651	fix	1.0		445	40.0	male	white	1.868682849184242	neutral	172	sub-04	2.0	2.0	172_neutral	0.0		176.12624141562628	3.7583525489080785
26.0	151.90169162452548	pulse	1.0	t		40.0	male	white	1.868682849184242	neutral	172	sub-04	2.0	2.0	172_neutral	0.0		176.52634815148667	
26.0	152.60167511306827	pulse	1.0	t		40.0	male	white	1.868682849184242	neutral	172	sub-04	2.0	2.0	172_neutral	0.0		177.22633164002946	
26.0	153.30165347007824	pulse	1.0	t		40.0	male	white	1.868682849184242	neutral	172	sub-04	2.0	2.0	172_neutral	0.0		177.92630999703943	
26.0	154.0016445049896	pulse	1.0	t		40.0	male	white	1.868682849184242	neutral	172	sub-04	2.0	2.0	172_neutral	0.0		178.6263010319508	
26.0	154.70162557869298	pulse	1.0	t		40.0	male	white	1.868682849184242	neutral	172	sub-04	2.0	2.0	172_neutral	0.0		179.32628210565417	
27.0	155.25993743757317	face	0.0		146	27.0	female	white	3.504576203740549	smiling	144	sub-04	2.0	2.0	144_smiling	1.0	dominance	179.88459396453436	1.241545726023105
27.0	155.40164770465162	pulse	0.0	t		27.0	female	white	3.504576203740549	smiling	144	sub-04	2.0	2.0	144_smiling	1.0	dominance	180.0263042316128	
27.0	156.10160040400297	pulse	0.0	t		27.0	female	white	3.504576203740549	smiling	144	sub-04	2.0	2.0	144_smiling	1.0	dominance	180.72625693096415	
27.0	156.50148316359628	fix	1.0		177	27.0	female	white	3.504576203740549	smiling	144	sub-04	2.0	2.0	144_smiling	1.0	dominance	181.12613969055747	1.4999699654454162
27.0	156.80158660923735	pulse	1.0	t		27.0	female	white	3.504576203740549	smiling	144	sub-04	2.0	2.0	144_smiling	1.0	dominance	181.42624313619854	
27.0	157.50157130519983	pulse	1.0	t		27.0	female	white	3.504576203740549	smiling	144	sub-04	2.0	2.0	144_smiling	1.0	dominance	182.12622783216102	
27.0	158.0014531290417	rating	2.0		295	27.0	female	white	3.504576203740549	smiling	144	sub-04	2.0	2.0	144_smiling	1.0	dominance	182.62610965600288	2.4999452133524755
27.0	158.19632395178633	pulse	2.0	t		27.0	female	white	3.504576203740549	smiling	144	sub-04	2.0	2.0	144_smiling	1.0	dominance	182.82098047874752	
27.0	158.89629023460475	pulse	2.0	t		27.0	female	white	3.504576203740549	smiling	144	sub-04	2.0	2.0	144_smiling	1.0	dominance	183.52094676156594	
27.0	159.59627613798511	pulse	2.0	t		27.0	female	white	3.504576203740549	smiling	144	sub-04	2.0	2.0	144_smiling	1.0	dominance	184.2209326649463	
27.0	160.2962520801575	pulse	2.0	t		27.0	female	white	3.504576203740549	smiling	144	sub-04	2.0	2.0	144_smiling	1.0	dominance	184.9209086071187	
27.0	160.50139834239417	fix	3.0		443	27.0	female	white	3.504576203740549	smiling	144	sub-04	2.0	2.0	144_smiling	1.0	dominance	185.12605486935536	3.766588355469139
27.0	160.66816859557002	response	3.0	n		27.0	female	white	3.504576203740549	smiling	144	sub-04	2.0	2.0	144_smiling	1.0	dominance	185.2928251225312	
27.0	161.0014784848463	pulse	3.0	t		27.0	female	white	3.504576203740549	smiling	144	sub-04	2.0	2.0	144_smiling	1.0	dominance	185.6261350118075	
27.0	161.7014776698379	pulse	3.0	t		27.0	female	white	3.504576203740549	smiling	144	sub-04	2.0	2.0	144_smiling	1.0	dominance	186.3261341967991	
27.0	162.4014687047511	pulse	3.0	t		27.0	female	white	3.504576203740549	smiling	144	sub-04	2.0	2.0	144_smiling	1.0	dominance	187.02612523171229	
27.0	163.10145068401835	pulse	3.0	t		27.0	female	white	3.504576203740549	smiling	144	sub-04	2.0	2.0	144_smiling	1.0	dominance	187.72610721097954	
27.0	163.80142843731846	pulse	3.0	t		27.0	female	white	3.504576203740549	smiling	144	sub-04	2.0	2.0	144_smiling	1.0	dominance	188.42608496427965	
28.0	164.2679866978633	face	0.0		145	25.0	female	west_asian	2.6756864305610826	neutral	064	sub-04	2.0	2.0	064_neutral	1.0	dominance	188.8926432248245	1.2333053916390782
28.0	164.50142943343963	pulse	0.0	t		25.0	female	west_asian	2.6756864305610826	neutral	064	sub-04	2.0	2.0	064_neutral	1.0	dominance	189.12608596040081	
28.0	165.20140869601528	pulse	0.0	t		25.0	female	west_asian	2.6756864305610826	neutral	064	sub-04	2.0	2.0	064_neutral	1.0	dominance	189.82606522297647	
28.0	165.50129208950239	fix	1.0		177	25.0	female	west_asian	2.6756864305610826	neutral	064	sub-04	2.0	2.0	064_neutral	1.0	dominance	190.12594861646357	1.4999705691570853
28.0	165.90139852350694	pulse	1.0	t		25.0	female	west_asian	2.6756864305610826	neutral	064	sub-04	2.0	2.0	064_neutral	1.0	dominance	190.52605505046813	
28.0	166.60137506938918	pulse	1.0	t		25.0	female	west_asian	2.6756864305610826	neutral	064	sub-04	2.0	2.0	064_neutral	1.0	dominance	191.22603159635037	
28.0	167.00126265865947	rating	2.0		294	25.0	female	west_asian	2.6756864305610826	neutral	064	sub-04	2.0	2.0	064_neutral	1.0	dominance	191.62591918562066	2.4999464207721758
28.0	167.2961403938789	pulse	2.0	t		25.0	female	west_asian	2.6756864305610826	neutral	064	sub-04	2.0	2.0	064_neutral	1.0	dominance	191.92079692084008	
28.0	167.99612327871182	pulse	2.0	t		25.0	female	west_asian	2.6756864305610826	neutral	064	sub-04	2.0	2.0	064_neutral	1.0	dominance	192.620779805673	
28.0	168.25442315395412	response	2.0	n		25.0	female	west_asian	2.6756864305610826	neutral	064	sub-04	2.0	2.0	064_neutral	1.0	dominance	192.8790796809153	
28.0	168.70131979977486	pulse	2.0	t		25.0	female	west_asian	2.6756864305610826	neutral	064	sub-04	2.0	2.0	064_neutral	1.0	dominance	193.32597632673605	
28.0	169.40132290887777	pulse	2.0	t		25.0	female	west_asian	2.6756864305610826	neutral	064	sub-04	2.0	2.0	064_neutral	1.0	dominance	194.02597943583896	
28.0	169.50120907943165	fix	3.0		444	25.0	female	west_asian	2.6756864305610826	neutral	064	sub-04	2.0	2.0	064_neutral	1.0	dominance	194.12586560639284	3.76658775175747
28.0	170.10131152895156	pulse	3.0	t		25.0	female	west_asian	2.6756864305610826	neutral	064	sub-04	2.0	2.0	064_neutral	1.0	dominance	194.72596805591274	
28.0	170.8012880748338	pulse	3.0	t		25.0	female	west_asian	2.6756864305610826	neutral	064	sub-04	2.0	2.0	064_neutral	1.0	dominance	195.42594460179498	
28.0	171.5012730726503	pulse	3.0	t		25.0	female	west_asian	2.6756864305610826	neutral	064	sub-04	2.0	2.0	064_neutral	1.0	dominance	196.12592959961148	
28.0	172.20126501312734	pulse	3.0	t		25.0	female	west_asian	2.6756864305610826	neutral	064	sub-04	2.0	2.0	064_neutral	1.0	dominance	196.82592154008853	
28.0	172.90124940723217	pulse	3.0	t		25.0	female	west_asian	2.6756864305610826	neutral	064	sub-04	2.0	2.0	064_neutral	1.0	dominance	197.52590593419336	
29.0	173.26779683118912	face	0.0		145	34.0	male	white	2.651014723438122	neutral	121	sub-04	2.0	2.0	121_neutral	0.0		197.8924533581503	1.233306900914613
29.0	173.60125281819273	pulse	0.0	t		34.0	male	white	2.651014723438122	neutral	121	sub-04	2.0	2.0	121_neutral	0.0		198.22590934515392	
29.0	174.3012197047192	pulse	0.0	t		34.0	male	white	2.651014723438122	neutral	121	sub-04	2.0	2.0	121_neutral	0.0		198.92587623168038	
29.0	174.50110373210373	fix	1.0		444	34.0	male	white	2.651014723438122	neutral	121	sub-04	2.0	2.0	121_neutral	0.0		199.12576025906492	3.758331117214766
29.0	175.00120892850282	pulse	1.0	t		34.0	male	white	2.651014723438122	neutral	121	sub-04	2.0	2.0	121_neutral	0.0		199.625865455464	
29.0	175.70118305954566	pulse	1.0	t		34.0	male	white	2.651014723438122	neutral	121	sub-04	2.0	2.0	121_neutral	0.0		200.32583958650685	
29.0	176.4011722833293	pulse	1.0	t		34.0	male	white	2.651014723438122	neutral	121	sub-04	2.0	2.0	121_neutral	0.0		201.02582881029048	
29.0	177.1011584885655	pulse	1.0	t		34.0	male	white	2.651014723438122	neutral	121	sub-04	2.0	2.0	121_neutral	0.0		201.72581501552668	
29.0	177.801143486382	pulse	1.0	t		34.0	male	white	2.651014723438122	neutral	121	sub-04	2.0	2.0	121_neutral	0.0		202.42580001334318	
30.0	178.2594348493185	face	0.0		146	24.0	female	east_asian	4.409868682849185	neutral	030	sub-04	2.0	2.0	030_neutral	0.0		202.88409137627968	1.241566855860583
30.0	178.50113784169662	pulse	0.0	t		24.0	female	east_asian	4.409868682849185	neutral	030	sub-04	2.0	2.0	030_neutral	0.0		203.1257943686578	
30.0	179.20112465064085	pulse	0.0	t		24.0	female	east_asian	4.409868682849185	neutral	030	sub-04	2.0	2.0	030_neutral	0.0		203.82578117760204	
30.0	179.50100170517908	fix	1.0		444	24.0	female	east_asian	4.409868682849185	neutral	030	sub-04	2.0	2.0	030_neutral	0.0		204.12565823214027	3.766589864741036
30.0	179.90110572434423	pulse	1.0	t		24.0	female	east_asian	4.409868682849185	neutral	030	sub-04	2.0	2.0	030_neutral	0.0		204.52576225130542	
30.0	180.60108921288702	pulse	1.0	t		24.0	female	east_asian	4.409868682849185	neutral	030	sub-04	2.0	2.0	030_neutral	0.0		205.2257457398482	
30.0	181.30106545691342	pulse	1.0	t		24.0	female	east_asian	4.409868682849185	neutral	030	sub-04	2.0	2.0	030_neutral	0.0		205.9257219838746	
30.0	182.0010513602938	pulse	1.0	t		24.0	female	east_asian	4.409868682849185	neutral	030	sub-04	2.0	2.0	030_neutral	0.0		206.62570788725498	
30.0	182.7010466211741	pulse	1.0	t		24.0	female	east_asian	4.409868682849185	neutral	030	sub-04	2.0	2.0	030_neutral	0.0		207.3257031481353	
31.0	183.2675915699201	face	0.0		145	40.0	male	black	2.408674890569041	smiling	061	sub-04	2.0	2.0	061_smiling	0.0		207.8922480968813	1.233304787931047
31.0	183.4010355431019	pulse	0.0	t		40.0	male	black	2.408674890569041	smiling	061	sub-04	2.0	2.0	061_smiling	0.0		208.0256920700631	
31.0	184.10101450382172	pulse	0.0	t		40.0	male	black	2.408674890569041	smiling	061	sub-04	2.0	2.0	061_smiling	0.0		208.7256710307829	
31.0	184.50089635785116	fix	1.0		444	40.0	male	black	2.408674890569041	smiling	061	sub-04	2.0	2.0	061_smiling	0.0		209.12555288481235	3.7665901665968704
31.0	184.80100825542831	pulse	1.0	t		40.0	male	black	2.408674890569041	smiling	061	sub-04	2.0	2.0	061_smiling	0.0		209.4256647823895	
31.0	185.50098419759888	pulse	1.0	t		40.0	male	black	2.408674890569041	smiling	061	sub-04	2.0	2.0	061_smiling	0.0		210.12564072456007	
31.0	186.20096527130227	pulse	1.0	t		40.0	male	black	2.408674890569041	smiling	061	sub-04	2.0	2.0	061_smiling	0.0		210.82562179826346	
31.0	186.90095389137605	pulse	1.0	t		40.0	male	black	2.408674890569041	smiling	061	sub-04	2.0	2.0	061_smiling	0.0		211.52561041833724	
31.0	187.60094341701551	pulse	1.0	t		40.0	male	black	2.408674890569041	smiling	061	sub-04	2.0	2.0	061_smiling	0.0		212.2255999439767	
32.0	188.26748652444803	face	0.0		145	26.0	male	white	2.7966573816155993	smiling	117	sub-04	2.0	2.0	117_smiling	0.0		212.89214305140922	1.2333044860752125
32.0	188.30093565934658	pulse	0.0	t		26.0	male	white	2.7966573816155993	smiling	117	sub-04	2.0	2.0	117_smiling	0.0		212.92559218630777	
32.0	189.00091311079268	pulse	0.0	t		26.0	male	white	2.7966573816155993	smiling	117	sub-04	2.0	2.0	117_smiling	0.0		213.62556963775387	
32.0	189.50079101052324	fix	1.0		443	26.0	male	white	2.7966573816155993	smiling	117	sub-04	2.0	2.0	117_smiling	0.0		214.12544753748443	3.758382130678001
32.0	189.70090505126973	pulse	1.0	t		26.0	male	white	2.7966573816155993	smiling	117	sub-04	2.0	2.0	117_smiling	0.0		214.32556157823092	
32.0	190.400887332391	pulse	1.0	t		26.0	male	white	2.7966573816155993	smiling	117	sub-04	2.0	2.0	117_smiling	0.0		215.02554385935218	
32.0	191.10086418012725	pulse	1.0	t		26.0	male	white	2.7966573816155993	smiling	117	sub-04	2.0	2.0	117_smiling	0.0		215.72552070708844	
32.0	191.80084404641275	pulse	1.0	t		26.0	male	white	2.7966573816155993	smiling	117	sub-04	2.0	2.0	117_smiling	0.0		216.42550057337394	
32.0	192.50084021285693	pulse	1.0	t		26.0	male	white	2.7966573816155993	smiling	117	sub-04	2.0	2.0	117_smiling	0.0		217.12549673981812	
32.0	193.2008185698669	pulse	1.0	t		26.0	male	white	2.7966573816155993	smiling	117	sub-04	2.0	2.0	117_smiling	0.0		217.8254750968281	
33.0	193.25917314120125	face	0.0		147	23.0	male	white	2.6275368085953046	neutral	141	sub-04	2.0	2.0	141_neutral	0.0		217.88382966816243	1.2415149368316634
33.0	193.90081684929464	pulse	0.0	t		23.0	male	white	2.6275368085953046	neutral	141	sub-04	2.0	2.0	141_neutral	0.0		218.52547337625583	
33.0	194.5006880780329	fix	1.0		443	23.0	male	white	2.6275368085953046	neutral	141	sub-04	2.0	2.0	141_neutral	0.0		219.1253446049941	3.766588355469139
33.0	194.60080245081917	pulse	1.0	t		23.0	male	white	2.6275368085953046	neutral	141	sub-04	2.0	2.0	141_neutral	0.0		219.22545897778036	
33.0	195.3007774874277	pulse	1.0	t		23.0	male	white	2.6275368085953046	neutral	141	sub-04	2.0	2.0	141_neutral	0.0		219.92543401438888	
33.0	196.00076067411464	pulse	1.0	t		23.0	male	white	2.6275368085953046	neutral	141	sub-04	2.0	2.0	141_neutral	0.0		220.62541720107583	
33.0	196.70076136837997	pulse	1.0	t		23.0	male	white	2.6275368085953046	neutral	141	sub-04	2.0	2.0	141_neutral	0.0		221.32541789534116	
33.0	197.40074123466547	pulse	1.0	t		23.0	male	white	2.6275368085953046	neutral	141	sub-04	2.0	2.0	141_neutral	0.0		222.02539776162666	
33.0	198.100721402805	pulse	1.0	t		23.0	male	white	2.6275368085953046	neutral	141	sub-04	2.0	2.0	141_neutral	0.0		222.72537792976618	
34.0	198.26727643350205	face	0.0		146	40.0	female	west_asian	1.5777954635893354	neutral	038	sub-04	2.0	2.0	038_neutral	0.0		222.89193296046324	1.2333090138963598
34.0	198.80070096723466	pulse	0.0	t		40.0	female	west_asian	1.5777954635893354	neutral	038	sub-04	2.0	2.0	038_neutral	0.0		223.42535749419585	
34.0	199.5005854473984	fix	1.0		444	40.0	female	west_asian	1.5777954635893354	neutral	038	sub-04	2.0	2.0	038_neutral	0.0		224.1252419743596	3.758226373598518
34.0	199.50831021377053	pulse	1.0	t		40.0	female	west_asian	1.5777954635893354	neutral	038	sub-04	2.0	2.0	038_neutral	0.0		224.13296674073172	
34.0	200.2006806222198	pulse	1.0	t		40.0	female	west_asian	1.5777954635893354	neutral	038	sub-04	2.0	2.0	038_neutral	0.0		224.825337149181	
34.0	200.90066109221334	pulse	1.0	t		40.0	female	west_asian	1.5777954635893354	neutral	038	sub-04	2.0	2.0	038_neutral	0.0		225.52531761917453	
34.0	201.60065152341667	pulse	1.0	t		40.0	female	west_asian	1.5777954635893354	neutral	038	sub-04	2.0	2.0	038_neutral	0.0		226.22530805037786	
34.0	202.30063772865105	pulse	1.0	t		40.0	female	west_asian	1.5777954635893354	neutral	038	sub-04	2.0	2.0	038_neutral	0.0		226.92529425561224	
34.0	203.000615481953	pulse	1.0	t		40.0	female	west_asian	1.5777954635893354	neutral	038	sub-04	2.0	2.0	038_neutral	0.0		227.62527200891418	
35.0	203.25881182099693	face	0.0		146	24.0	male	white	3.1153999204138483	neutral	012	sub-04	2.0	2.0	012_neutral	0.0		227.88346834795811	1.2416685809293995
35.0	203.70060983726762	pulse	0.0	t		24.0	male	white	3.1153999204138483	neutral	012	sub-04	2.0	2.0	012_neutral	0.0		228.3252663642288	
35.0	204.40059634435784	pulse	0.0	t		24.0	male	white	3.1153999204138483	neutral	012	sub-04	2.0	2.0	012_neutral	0.0		229.02525287131903	
35.0	204.50048040192632	fix	1.0		445	24.0	male	white	3.1153999204138483	neutral	012	sub-04	2.0	2.0	012_neutral	0.0		229.1251369288875	3.76658714804762
35.0	205.10058043660865	pulse	1.0	t		24.0	male	white	3.1153999204138483	neutral	012	sub-04	2.0	2.0	012_neutral	0.0		229.72523696356984	
35.0	205.8005497379745	pulse	1.0	t		24.0	male	white	3.1153999204138483	neutral	012	sub-04	2.0	2.0	012_neutral	0.0		230.4252062649357	
35.0	206.50053926361397	pulse	1.0	t		24.0	male	white	3.1153999204138483	neutral	012	sub-04	2.0	2.0	012_neutral	0.0		231.12519579057516	
35.0	207.2005284873976	pulse	1.0	t		24.0	male	white	3.1153999204138483	neutral	012	sub-04	2.0	2.0	012_neutral	0.0		231.8251850143588	
35.0	207.9005171074714	pulse	1.0	t		24.0	male	white	3.1153999204138483	neutral	012	sub-04	2.0	2.0	012_neutral	0.0		232.52517363443258	
36.0	208.26706754997394	face	0.0		145	40.0	female	west_asian	1.5777954635893354	smiling	038	sub-04	2.0	2.0	038_smiling	0.0		232.89172407693513	1.233304184221197
36.0	208.60050965165647	pulse	0.0	t		40.0	female	west_asian	1.5777954635893354	smiling	038	sub-04	2.0	2.0	038_smiling	0.0		233.22516617861766	
36.0	209.3004913290697	pulse	0.0	t		40.0	female	west_asian	1.5777954635893354	smiling	038	sub-04	2.0	2.0	038_smiling	0.0		233.9251478560309	
36.0	209.50037173419514	fix	1.0		444	40.0	female	west_asian	1.5777954635893354	smiling	038	sub-04	2.0	2.0	038_smiling	0.0		234.12502826115633	3.7665811109527567
36.0	210.00047813801575	pulse	1.0	t		40.0	female	west_asian	1.5777954635893354	smiling	038	sub-04	2.0	2.0	038_smiling	0.0		234.62513466497694	
36.0	210.70045709873557	pulse	1.0	t		40.0	female	west_asian	1.5777954635893354	smiling	038	sub-04	2.0	2.0	038_smiling	0.0		235.32511362569676	
36.0	211.40044451138965	pulse	1.0	t		40.0	female	west_asian	1.5777954635893354	smiling	038	sub-04	2.0	2.0	038_smiling	0.0		236.02510103835084	
36.0	212.10043041477002	pulse	1.0	t		40.0	female	west_asian	1.5777954635893354	smiling	038	sub-04	2.0	2.0	038_smiling	0.0		236.7250869417312	
36.0	212.80041631815038	pulse	1.0	t		40.0	female	west_asian	1.5777954635893354	smiling	038	sub-04	2.0	2.0	038_smiling	0.0		237.42507284511157	
37.0	213.2669528451479	face	0.0		145	25.0	female	west_asian	2.6756864305610826	smiling	064	sub-04	2.0	2.0	064_smiling	0.0		237.8916093721091	1.2333171639784268
37.0	213.50040373080446	pulse	0.0	t		25.0	female	west_asian	2.6756864305610826	smiling	064	sub-04	2.0	2.0	064_smiling	0.0		238.12506025776565	
37.0	214.20038601192755	pulse	0.0	t		25.0	female	west_asian	2.6756864305610826	smiling	064	sub-04	2.0	2.0	064_smiling	0.0		238.82504253888874	
37.0	214.50027000912633	fix	1.0		444	25.0	female	west_asian	2.6756864305610826	smiling	064	sub-04	2.0	2.0	064_smiling	0.0		239.12492653608751	3.7665880536114855
37.0	214.90037433014732	pulse	1.0	t		25.0	female	west_asian	2.6756864305610826	smiling	064	sub-04	2.0	2.0	064_smiling	0.0		239.5250308571085	
37.0	215.60035057417372	pulse	1.0	t		25.0	female	west_asian	2.6756864305610826	smiling	064	sub-04	2.0	2.0	064_smiling	0.0		240.2250071011349	
37.0	216.3003404016672	pulse	1.0	t		25.0	female	west_asian	2.6756864305610826	smiling	064	sub-04	2.0	2.0	064_smiling	0.0		240.9249969286284	
37.0	217.00031724940345	pulse	1.0	t		25.0	female	west_asian	2.6756864305610826	smiling	064	sub-04	2.0	2.0	064_smiling	0.0		241.62497377636464	
37.0	217.7003119065721	pulse	1.0	t		25.0	female	west_asian	2.6756864305610826	smiling	064	sub-04	2.0	2.0	064_smiling	0.0		242.3249684335333	
38.0	218.2668580627378	face	0.0		145	20.0	male	black	2.609629924393156	smiling	043	sub-04	2.0	2.0	043_smiling	0.0		242.891514589699	1.2333072027704475
38.0	218.4003056581787	pulse	0.0	t		20.0	male	black	2.609629924393156	smiling	043	sub-04	2.0	2.0	043_smiling	0.0		243.02496218513988	
38.0	219.10028763744594	pulse	0.0	t		20.0	male	black	2.609629924393156	smiling	043	sub-04	2.0	2.0	043_smiling	0.0		243.72494416440713	
38.0	219.50016526550826	fix	1.0		444	20.0	male	black	2.609629924393156	smiling	043	sub-04	2.0	2.0	043_smiling	0.0		244.12482179246945	3.7665771868396405
38.0	219.80027384268215	pulse	1.0	t		20.0	male	black	2.609629924393156	smiling	043	sub-04	2.0	2.0	043_smiling	0.0		244.42493036964333	
38.0	220.5002546145297	pulse	1.0	t		20.0	male	black	2.609629924393156	smiling	043	sub-04	2.0	2.0	043_smiling	0.0		245.12491114149088	
38.0	221.2002332733955	pulse	1.0	t		20.0	male	black	2.609629924393156	smiling	043	sub-04	2.0	2.0	043_smiling	0.0		245.8248898003567	
38.0	221.90021615822843	pulse	1.0	t		20.0	male	black	2.609629924393156	smiling	043	sub-04	2.0	2.0	043_smiling	0.0		246.52487268518962	
38.0	222.6002123246726	pulse	1.0	t		20.0	male	black	2.609629924393156	smiling	043	sub-04	2.0	2.0	043_smiling	0.0		247.2248688516338	
39.0	223.2667424523479	face	0.0		145	28.0	male	white	3.9076800636689217	smiling	033	sub-04	2.0	2.0	033_smiling	1.0	attractiveness	247.8913989793091	1.2333189751061582
39.0	223.30020335958397	pulse	0.0	t		28.0	male	white	3.9076800636689217	smiling	033	sub-04	2.0	2.0	033_smiling	1.0	attractiveness	247.92485988654516	
39.0	224.00017145353013	pulse	0.0	t		28.0	male	white	3.9076800636689217	smiling	033	sub-04	2.0	2.0	033_smiling	1.0	attractiveness	248.62482798049132	
39.0	224.50006142745406	fix	1.0		177	28.0	male	white	3.9076800636689217	smiling	033	sub-04	2.0	2.0	033_smiling	1.0	attractiveness	249.12471795441525	1.4999696635914006
39.0	224.70017305336114	pulse	1.0	t		28.0	male	white	3.9076800636689217	smiling	033	sub-04	2.0	2.0	033_smiling	1.0	attractiveness	249.32482958032233	
39.0	225.40015714561378	pulse	1.0	t		28.0	male	white	3.9076800636689217	smiling	033	sub-04	2.0	2.0	033_smiling	1.0	attractiveness	250.02481367257496	
39.0	226.00003109104546	rating	2.0		294	28.0	male	white	3.9076800636689217	smiling	033	sub-04	2.0	2.0	033_smiling	1.0	attractiveness	250.62468761800665	2.49994551520831
39.0	226.09491432002324	pulse	2.0	t		28.0	male	white	3.9076800636689217	smiling	033	sub-04	2.0	2.0	033_smiling	1.0	attractiveness	250.71957084698442	
39.0	226.79487667872854	pulse	2.0	t		28.0	male	white	3.9076800636689217	smiling	033	sub-04	2.0	2.0	033_smiling	1.0	attractiveness	251.41953320568973	
39.0	227.49488129710699	pulse	2.0	t		28.0	male	white	3.9076800636689217	smiling	033	sub-04	2.0	2.0	033_smiling	1.0	attractiveness	252.11953782406817	
39.0	227.54179557124735	response	2.0	y		28.0	male	white	3.9076800636689217	smiling	033	sub-04	2.0	2.0	033_smiling	1.0	attractiveness	252.16645209820854	
39.0	228.20009079792726	pulse	2.0	t		28.0	male	white	3.9076800636689217	smiling	033	sub-04	2.0	2.0	033_smiling	1.0	attractiveness	252.82474732488845	
39.0	228.49997660625377	fix	3.0		444	28.0	male	white	3.9076800636689217	smiling	033	sub-04	2.0	2.0	033_smiling	1.0	attractiveness	253.12463313321496	3.7499223478498607
39.0	228.90008092727476	pulse	3.0	t		28.0	male	white	3.9076800636689217	smiling	033	sub-04	2.0	2.0	033_smiling	1.0	attractiveness	253.52473745423595	
39.0	229.600067736219	pulse	3.0	t		28.0	male	white	3.9076800636689217	smiling	033	sub-04	2.0	2.0	033_smiling	1.0	attractiveness	254.22472426318018	
39.0	230.30005122476177	pulse	3.0	t		28.0	male	white	3.9076800636689217	smiling	033	sub-04	2.0	2.0	033_smiling	1.0	attractiveness	254.92470775172296	
39.0	231.00002988362576	pulse	3.0	t		28.0	male	white	3.9076800636689217	smiling	033	sub-04	2.0	2.0	033_smiling	1.0	attractiveness	255.62468641058695	
39.0	231.70002272966667	pulse	3.0	t		28.0	male	white	3.9076800636689217	smiling	033	sub-04	2.0	2.0	033_smiling	1.0	attractiveness	256.32467925662786	
40.0	232.24989895410363	fix	0.0		720													256.8745554810648	5.9998738246904395
40.0	232.40001014232257	pulse	0.0	t														257.02466666928376	
40.0	233.09998729191284	pulse	0.0	t														257.72464381887403	
40.0	233.79996232852136	pulse	0.0	t														258.42461885548255	
40.0	234.4999630227867	pulse	0.0	t														259.1246195497479	
40.0	235.19994590761962	pulse	0.0	t														259.8246024345808	
40.0	235.89992517019346	pulse	0.0	t														260.52458169715464	
40.0	236.59991228099352	pulse	0.0	t														261.2245688079547	
40.0	237.29990814558187	pulse	0.0	t														261.92456467254306	
40.0	237.99988016364114	pulse	0.0	t														262.6245366906023	
