trial_nr	onset	event_type	phase	response	nr_frames	face_age	face_sex	face_eth	attractiveness	expression	face_id	sub_id	ses	run	trial_type	catch	rating_type	onset_abs	duration
-1.0	0.05756328178540571	fix	0.0		714													35.520720131145936	5.964719103634707
-1.0	0.7058343578792119	pulse	0.0	t														36.16899120723974	
-1.0	1.4058160352396953	pulse	0.0	t														36.868972884600225	
-1.0	2.1058079756912775	pulse	0.0	t														37.56896482505181	
-1.0	2.8057947845954914	pulse	0.0	t														38.26895163395602	
-1.0	3.505780386076367	pulse	0.0	t														38.9689372354369	
-1.0	4.205769911684911	pulse	0.0	t														39.66892676104544	
-1.0	4.905759135435801	pulse	0.0	t														40.36891598479633	
-1.0	5.605735681245278	pulse	0.0	t														41.06889253060581	
0.0	6.022282385420112	face	0.0		144	40.0	female	west_asian	1.5777954635893354	neutral	038	sub-10	2.0	5.0	038_neutral	0.0		41.48543923478064	1.2333223960922624
0.0	6.305739997784258	pulse	0.0	t		40.0	female	west_asian	1.5777954635893354	neutral	038	sub-10	2.0	5.0	038_neutral	0.0		41.76889684714479	
0.0	7.005719260294427	pulse	0.0	t		40.0	female	west_asian	1.5777954635893354	neutral	038	sub-10	2.0	5.0	038_neutral	0.0		42.46887610965496	
0.0	7.255604781512375	fix	1.0		445	40.0	female	west_asian	1.5777954635893354	neutral	038	sub-10	2.0	5.0	038_neutral	0.0		42.718761630872905	3.758252207095211
0.0	7.705711200746009	pulse	1.0	t		40.0	female	west_asian	1.5777954635893354	neutral	038	sub-10	2.0	5.0	038_neutral	0.0		43.16886805010654	
0.0	8.405677785318403	pulse	1.0	t		40.0	female	west_asian	1.5777954635893354	neutral	038	sub-10	2.0	5.0	038_neutral	0.0		43.86883463467893	
0.0	9.105679988864722	pulse	1.0	t		40.0	female	west_asian	1.5777954635893354	neutral	038	sub-10	2.0	5.0	038_neutral	0.0		44.56883683822525	
0.0	9.805659251378529	pulse	1.0	t		40.0	female	west_asian	1.5777954635893354	neutral	038	sub-10	2.0	5.0	038_neutral	0.0		45.26881610073906	
0.0	10.505640928735374	pulse	1.0	t		40.0	female	west_asian	1.5777954635893354	neutral	038	sub-10	2.0	5.0	038_neutral	0.0		45.968797778095905	
1.0	11.013856988607586	face	0.0		146	23.0	male	white	2.6275368085953046	smiling	141	sub-10	2.0	5.0	141_smiling	1.0	trustworthiness	46.477013837968116	1.241661160314834
1.0	11.205645245274354	pulse	0.0	t		23.0	male	white	2.6275368085953046	smiling	141	sub-10	2.0	5.0	141_smiling	1.0	trustworthiness	46.668802094634884	
1.0	11.9056223947955	pulse	0.0	t		23.0	male	white	2.6275368085953046	smiling	141	sub-10	2.0	5.0	141_smiling	1.0	trustworthiness	47.36877924415603	
1.0	12.25551814892242	fix	1.0		177	23.0	male	white	2.6275368085953046	smiling	141	sub-10	2.0	5.0	141_smiling	1.0	trustworthiness	47.71867499828295	1.5083247279289935
1.0	12.605615240812767	pulse	1.0	t		23.0	male	white	2.6275368085953046	smiling	141	sub-10	2.0	5.0	141_smiling	1.0	trustworthiness	48.0687720901733	
1.0	13.30559480518059	pulse	1.0	t		23.0	male	white	2.6275368085953046	smiling	141	sub-10	2.0	5.0	141_smiling	1.0	trustworthiness	48.76875165454112	
1.0	13.763842876851413	rating	2.0		293	23.0	male	white	2.6275368085953046	smiling	141	sub-10	2.0	5.0	141_smiling	1.0	trustworthiness	49.22699972621194	2.4915925636050815
1.0	14.000354982323188	pulse	2.0	t		23.0	male	white	2.6275368085953046	smiling	141	sub-10	2.0	5.0	141_smiling	1.0	trustworthiness	49.46351183168372	
1.0	14.70034752648644	pulse	2.0	t		23.0	male	white	2.6275368085953046	smiling	141	sub-10	2.0	5.0	141_smiling	1.0	trustworthiness	50.16350437584697	
1.0	14.900320902812382	response	2.0	b		23.0	male	white	2.6275368085953046	smiling	141	sub-10	2.0	5.0	141_smiling	1.0	trustworthiness	50.36347775217291	
1.0	15.405552213338524	pulse	2.0	t		23.0	male	white	2.6275368085953046	smiling	141	sub-10	2.0	5.0	141_smiling	1.0	trustworthiness	50.868709062699054	
1.0	16.10555381317681	pulse	2.0	t		23.0	male	white	2.6275368085953046	smiling	141	sub-10	2.0	5.0	141_smiling	1.0	trustworthiness	51.56871066253734	
1.0	16.255435440456495	fix	3.0		444	23.0	male	white	2.6275368085953046	smiling	141	sub-10	2.0	5.0	141_smiling	1.0	trustworthiness	51.718592289817025	3.7665921787374828
1.0	16.80553428311032	pulse	3.0	t		23.0	male	white	2.6275368085953046	smiling	141	sub-10	2.0	5.0	141_smiling	1.0	trustworthiness	52.26869113247085	
1.0	17.50558387800629	pulse	3.0	t		23.0	male	white	2.6275368085953046	smiling	141	sub-10	2.0	5.0	141_smiling	1.0	trustworthiness	52.96874072736682	
1.0	18.20552057886016	pulse	3.0	t		23.0	male	white	2.6275368085953046	smiling	141	sub-10	2.0	5.0	141_smiling	1.0	trustworthiness	53.66867742822069	
1.0	18.905506180344673	pulse	3.0	t		23.0	male	white	2.6275368085953046	smiling	141	sub-10	2.0	5.0	141_smiling	1.0	trustworthiness	54.3686630297052	
1.0	19.605490272548195	pulse	3.0	t		23.0	male	white	2.6275368085953046	smiling	141	sub-10	2.0	5.0	141_smiling	1.0	trustworthiness	55.068647121908725	
2.0	20.022027619193977	face	0.0		145	27.0	male	black	3.5523278949462798	neutral	042	sub-10	2.0	5.0	042_neutral	0.0		55.48518446855451	1.2333275276396307
2.0	20.305486438977823	pulse	0.0	t		27.0	male	black	3.5523278949462798	neutral	042	sub-10	2.0	5.0	042_neutral	0.0		55.76864328833835	
2.0	21.00547022932733	pulse	0.0	t		27.0	male	black	3.5523278949462798	neutral	042	sub-10	2.0	5.0	042_neutral	0.0		56.46862707868786	
2.0	21.255355146833608	fix	1.0		445	27.0	male	black	3.5523278949462798	neutral	042	sub-10	2.0	5.0	042_neutral	0.0		56.71851199619414	3.7582343976064294
2.0	21.705477564421017	pulse	1.0	t		27.0	male	black	3.5523278949462798	neutral	042	sub-10	2.0	5.0	042_neutral	0.0		57.16863441378155	
2.0	22.405446563840087	pulse	1.0	t		27.0	male	black	3.5523278949462798	neutral	042	sub-10	2.0	5.0	042_neutral	0.0		57.86860341320062	
2.0	23.10543458016764	pulse	1.0	t		27.0	male	black	3.5523278949462798	neutral	042	sub-10	2.0	5.0	042_neutral	0.0		58.56859142952817	
2.0	23.80540931484211	pulse	1.0	t		27.0	male	black	3.5523278949462798	neutral	042	sub-10	2.0	5.0	042_neutral	0.0		59.26856616420264	
2.0	24.505404273852037	pulse	1.0	t		27.0	male	black	3.5523278949462798	neutral	042	sub-10	2.0	5.0	042_neutral	0.0		59.96856112321257	
3.0	25.013589544440038	face	0.0		146	28.0	male	east_asian	1.5563072025467568	smiling	005	sub-10	2.0	5.0	005_smiling	0.0		60.47674639380057	1.2416717252672242
3.0	25.20540013842765	pulse	0.0	t		28.0	male	east_asian	1.5563072025467568	smiling	005	sub-10	2.0	5.0	005_smiling	0.0		60.66855698778818	
3.0	25.905372156405065	pulse	0.0	t		28.0	male	east_asian	1.5563072025467568	smiling	005	sub-10	2.0	5.0	005_smiling	0.0		61.368529005765595	
3.0	26.255261269707262	fix	1.0		444	28.0	male	east_asian	1.5563072025467568	smiling	005	sub-10	2.0	5.0	005_smiling	0.0		61.71841811906779	3.766588556467468
3.0	26.605374359951384	pulse	1.0	t		28.0	male	east_asian	1.5563072025467568	smiling	005	sub-10	2.0	5.0	005_smiling	0.0		62.068531209311914	
3.0	27.305323738746665	pulse	1.0	t		28.0	male	east_asian	1.5563072025467568	smiling	005	sub-10	2.0	5.0	005_smiling	0.0		62.768480588107195	
3.0	28.00533680909939	pulse	1.0	t		28.0	male	east_asian	1.5563072025467568	smiling	005	sub-10	2.0	5.0	005_smiling	0.0		63.46849365845992	
3.0	28.705316071613197	pulse	1.0	t		28.0	male	east_asian	1.5563072025467568	smiling	005	sub-10	2.0	5.0	005_smiling	0.0		64.16847292097373	
3.0	29.405314351035486	pulse	1.0	t		28.0	male	east_asian	1.5563072025467568	smiling	005	sub-10	2.0	5.0	005_smiling	0.0		64.86847120039602	
4.0	30.02184982617473	face	0.0		145	22.0	female	white	4.614007162753682	smiling	009	sub-10	2.0	5.0	009_smiling	0.0		65.48500667553526	1.2333248109389388
4.0	30.105310819322767	pulse	0.0	t		22.0	female	white	4.614007162753682	smiling	009	sub-10	2.0	5.0	009_smiling	0.0		65.5684676686833	
4.0	30.805283441008214	pulse	0.0	t		22.0	female	white	4.614007162753682	smiling	009	sub-10	2.0	5.0	009_smiling	0.0		66.26844029036874	
4.0	31.25517463711367	fix	1.0		444	22.0	female	white	4.614007162753682	smiling	009	sub-10	2.0	5.0	009_smiling	0.0		66.7183314864742	3.766582519354415
4.0	31.505273872182443	pulse	1.0	t		22.0	female	white	4.614007162753682	smiling	009	sub-10	2.0	5.0	009_smiling	0.0		66.96843072154297	
4.0	32.205261284798326	pulse	1.0	t		22.0	female	white	4.614007162753682	smiling	009	sub-10	2.0	5.0	009_smiling	0.0		67.66841813415886	
4.0	32.90525533824257	pulse	1.0	t		22.0	female	white	4.614007162753682	smiling	009	sub-10	2.0	5.0	009_smiling	0.0		68.3684121876031	
4.0	33.60523912858844	pulse	1.0	t		22.0	female	white	4.614007162753682	smiling	009	sub-10	2.0	5.0	009_smiling	0.0		69.06839597794897	
4.0	34.30523257832101	pulse	1.0	t		22.0	female	white	4.614007162753682	smiling	009	sub-10	2.0	5.0	009_smiling	0.0		69.76838942768154	
5.0	35.021757156468084	face	0.0		146	32.0	male	white	2.389176283326701	smiling	092	sub-10	2.0	5.0	092_smiling	0.0		70.48491400582861	1.2333302443439607
5.0	35.00810241119325	pulse	0.0	t		32.0	male	white	2.389176283326701	smiling	092	sub-10	2.0	5.0	092_smiling	0.0		70.47125926055378	
5.0	35.70521042211112	pulse	0.0	t		32.0	male	white	2.389176283326701	smiling	092	sub-10	2.0	5.0	092_smiling	0.0		71.16836727147165	
5.0	36.255087400812045	fix	1.0		443	32.0	male	white	2.389176283326701	smiling	092	sub-10	2.0	5.0	092_smiling	0.0		71.71824425017257	3.758243453277828
5.0	36.40519541988033	pulse	1.0	t		32.0	male	white	2.389176283326701	smiling	092	sub-10	2.0	5.0	092_smiling	0.0		71.86835226924086	
5.0	37.10518071950719	pulse	1.0	t		32.0	male	white	2.389176283326701	smiling	092	sub-10	2.0	5.0	092_smiling	0.0		72.56833756886772	
5.0	37.80517115068142	pulse	1.0	t		32.0	male	white	2.389176283326701	smiling	092	sub-10	2.0	5.0	092_smiling	0.0		73.26832800004195	
5.0	38.505160072574654	pulse	1.0	t		32.0	male	white	2.389176283326701	smiling	092	sub-10	2.0	5.0	092_smiling	0.0		73.96831692193518	
5.0	39.205135712818446	pulse	1.0	t		32.0	male	white	2.389176283326701	smiling	092	sub-10	2.0	5.0	092_smiling	0.0		74.66829256217898	
5.0	39.905117088321276	pulse	1.0	t		32.0	male	white	2.389176283326701	smiling	092	sub-10	2.0	5.0	092_smiling	0.0		75.3682739376818	
6.0	40.01333085408987	face	0.0		147	31.0	female	white	2.1822522881018704	smiling	102	sub-10	2.0	5.0	102_smiling	0.0		75.4764877034504	1.2416656881505332
6.0	40.60511959372525	pulse	0.0	t		31.0	female	white	2.1822522881018704	smiling	102	sub-10	2.0	5.0	102_smiling	0.0		76.06827644308578	
6.0	41.254996542240406	fix	1.0		443	31.0	female	white	2.1822522881018704	smiling	102	sub-10	2.0	5.0	102_smiling	0.0		76.71815339160094	3.766587349047768
6.0	41.30511545830086	pulse	1.0	t		31.0	female	white	2.1822522881018704	smiling	102	sub-10	2.0	5.0	102_smiling	0.0		76.76827230766139	
6.0	42.00507842060324	pulse	1.0	t		31.0	female	white	2.1822522881018704	smiling	102	sub-10	2.0	5.0	102_smiling	0.0		77.46823526996377	
6.0	42.70507760559485	pulse	1.0	t		31.0	female	white	2.1822522881018704	smiling	102	sub-10	2.0	5.0	102_smiling	0.0		78.16823445495538	
6.0	43.40506773491143	pulse	1.0	t		31.0	female	white	2.1822522881018704	smiling	102	sub-10	2.0	5.0	102_smiling	0.0		78.86822458427196	
6.0	44.105045790001896	pulse	1.0	t		31.0	female	white	2.1822522881018704	smiling	102	sub-10	2.0	5.0	102_smiling	0.0		79.56820263936243	
6.0	44.80504195643516	pulse	1.0	t		31.0	female	white	2.1822522881018704	smiling	102	sub-10	2.0	5.0	102_smiling	0.0		80.26819880579569	
7.0	45.021583891288174	face	0.0		145	24.0	female	east_asian	2.9076800636689217	neutral	034	sub-10	2.0	5.0	034_neutral	0.0		80.4847407406487	1.233322697949916
7.0	45.50503178389772	pulse	0.0	t		24.0	female	east_asian	2.9076800636689217	neutral	034	sub-10	2.0	5.0	034_neutral	0.0		80.96818863325825	
7.0	46.20501768723261	pulse	0.0	t		24.0	female	east_asian	2.9076800636689217	neutral	034	sub-10	2.0	5.0	034_neutral	0.0		81.66817453659314	
7.0	46.25490658923809	fix	1.0		445	24.0	female	east_asian	2.9076800636689217	neutral	034	sub-10	2.0	5.0	034_neutral	0.0		81.71806343859862	3.766586745332461
7.0	46.90499755345809	pulse	1.0	t		24.0	female	east_asian	2.9076800636689217	neutral	034	sub-10	2.0	5.0	034_neutral	0.0		82.36815440281862	
7.0	47.60499462545704	pulse	1.0	t		24.0	female	east_asian	2.9076800636689217	neutral	034	sub-10	2.0	5.0	034_neutral	0.0		83.06815147481757	
7.0	48.304994112302666	pulse	1.0	t		24.0	female	east_asian	2.9076800636689217	neutral	034	sub-10	2.0	5.0	034_neutral	0.0		83.7681509616632	
7.0	49.00495465975837	pulse	1.0	t		24.0	female	east_asian	2.9076800636689217	neutral	034	sub-10	2.0	5.0	034_neutral	0.0		84.4681115091189	
7.0	49.70494992062595	pulse	1.0	t		24.0	female	east_asian	2.9076800636689217	neutral	034	sub-10	2.0	5.0	034_neutral	0.0		85.16810676998648	
8.0	50.02149333457055	face	0.0		145	21.0	male	east_asian/white	3.501790688420215	neutral	036	sub-10	2.0	5.0	036_neutral	0.0		85.48465018393108	1.23330790701948
8.0	50.40494518148989	pulse	0.0	t		21.0	male	east_asian/white	3.501790688420215	neutral	036	sub-10	2.0	5.0	036_neutral	0.0		85.86810203085042	
8.0	51.104899088120874	pulse	0.0	t		21.0	male	east_asian/white	3.501790688420215	neutral	036	sub-10	2.0	5.0	036_neutral	0.0		86.5680559374814	
8.0	51.25480124159003	fix	1.0		445	21.0	male	east_asian/white	3.501790688420215	neutral	036	sub-10	2.0	5.0	036_neutral	0.0		86.71795809095056	3.7666045548212423
8.0	51.804907328783884	pulse	1.0	t		21.0	male	east_asian/white	3.501790688420215	neutral	036	sub-10	2.0	5.0	036_neutral	0.0		87.26806417814441	
8.0	52.50490892861853	pulse	1.0	t		21.0	male	east_asian/white	3.501790688420215	neutral	036	sub-10	2.0	5.0	036_neutral	0.0		87.96806577797906	
8.0	53.2048824558733	pulse	1.0	t		21.0	male	east_asian/white	3.501790688420215	neutral	036	sub-10	2.0	5.0	036_neutral	0.0		88.66803930523383	
8.0	53.90488194271893	pulse	1.0	t		21.0	male	east_asian/white	3.501790688420215	neutral	036	sub-10	2.0	5.0	036_neutral	0.0		89.36803879207946	
8.0	54.60544740903424	pulse	1.0	t		21.0	male	east_asian/white	3.501790688420215	neutral	036	sub-10	2.0	5.0	036_neutral	0.0		90.06860425839477	
9.0	55.02140579641127	face	0.0		145	27.0	female	white	4.181058495821727	neutral	039	sub-10	2.0	5.0	039_neutral	0.0		90.4845626457718	1.2333214905302157
9.0	55.30485827722805	pulse	0.0	t		27.0	female	white	4.181058495821727	neutral	039	sub-10	2.0	5.0	039_neutral	0.0		90.76801512658858	
9.0	56.00483301190616	pulse	0.0	t		27.0	female	white	4.181058495821727	neutral	039	sub-10	2.0	5.0	039_neutral	0.0		91.46798986126669	
9.0	56.25472728694149	fix	1.0		444	27.0	female	white	4.181058495821727	neutral	039	sub-10	2.0	5.0	039_neutral	0.0		91.71788413630202	3.7665876509017835
9.0	56.70484125256553	pulse	1.0	t		27.0	female	white	4.181058495821727	neutral	039	sub-10	2.0	5.0	039_neutral	0.0		92.16799810192606	
9.0	57.40481628909765	pulse	1.0	t		27.0	female	white	4.181058495821727	neutral	039	sub-10	2.0	5.0	039_neutral	0.0		92.86797313845818	
9.0	58.10480068315883	pulse	1.0	t		27.0	female	white	4.181058495821727	neutral	039	sub-10	2.0	5.0	039_neutral	0.0		93.56795753251936	
9.0	58.804779945669	pulse	1.0	t		27.0	female	white	4.181058495821727	neutral	039	sub-10	2.0	5.0	039_neutral	0.0		94.26793679502953	
9.0	59.504779432514624	pulse	1.0	t		27.0	female	white	4.181058495821727	neutral	039	sub-10	2.0	5.0	039_neutral	0.0		94.96793628187515	
10.0	60.02131493784327	face	0.0		145	31.0	male	west_asian	1.9538400318344609	neutral	070	sub-10	2.0	5.0	070_neutral	0.0		95.4844717872038	1.2333106237201719
10.0	60.20476050616344	pulse	0.0	t		31.0	male	west_asian	1.9538400318344609	neutral	070	sub-10	2.0	5.0	070_neutral	0.0		95.66791735552397	
10.0	60.9047458057903	pulse	0.0	t		31.0	male	west_asian	1.9538400318344609	neutral	070	sub-10	2.0	5.0	070_neutral	0.0		96.36790265515083	
10.0	61.254625561563444	fix	1.0		444	31.0	male	west_asian	1.9538400318344609	neutral	070	sub-10	2.0	5.0	070_neutral	0.0		96.71778241092397	3.7666003288395586
10.0	61.60474408521259	pulse	1.0	t		31.0	male	west_asian	1.9538400318344609	neutral	070	sub-10	2.0	5.0	070_neutral	0.0		97.06790093457312	
10.0	62.30472606442345	pulse	1.0	t		31.0	male	west_asian	1.9538400318344609	neutral	070	sub-10	2.0	5.0	070_neutral	0.0		97.76788291378398	
10.0	63.00471951415602	pulse	1.0	t		31.0	male	west_asian	1.9538400318344609	neutral	070	sub-10	2.0	5.0	070_neutral	0.0		98.46787636351655	
10.0	63.704706323060236	pulse	1.0	t		31.0	male	west_asian	1.9538400318344609	neutral	070	sub-10	2.0	5.0	070_neutral	0.0		99.16786317242077	
10.0	64.40468649113973	pulse	1.0	t		31.0	male	west_asian	1.9538400318344609	neutral	070	sub-10	2.0	5.0	070_neutral	0.0		99.86784334050026	
11.0	65.021225890403	face	0.0		145	47.0	male	east_asian	2.171110226820533	smiling	024	sub-10	2.0	5.0	024_smiling	0.0		100.48438273976353	1.2333121330011636
11.0	65.10468778912036	pulse	0.0	t		47.0	male	east_asian	2.171110226820533	smiling	024	sub-10	2.0	5.0	024_smiling	0.0		100.56784463848089	
11.0	65.80466705163053	pulse	0.0	t		47.0	male	east_asian	2.171110226820533	smiling	024	sub-10	2.0	5.0	024_smiling	0.0		101.26782390099106	
11.0	66.25453802340417	fix	1.0		444	47.0	male	east_asian	2.171110226820533	smiling	024	sub-10	2.0	5.0	024_smiling	0.0		101.7176948727647	3.7665897638908064
11.0	66.50465748280476	pulse	1.0	t		47.0	male	east_asian	2.171110226820533	smiling	024	sub-10	2.0	5.0	024_smiling	0.0		101.96781433216529	
11.0	67.20470254986503	pulse	1.0	t		47.0	male	east_asian	2.171110226820533	smiling	024	sub-10	2.0	5.0	024_smiling	0.0		102.66785939922556	
11.0	67.90462053566444	pulse	1.0	t		47.0	male	east_asian	2.171110226820533	smiling	024	sub-10	2.0	5.0	024_smiling	0.0		103.36777738502497	
11.0	68.60461428725102	pulse	1.0	t		47.0	male	east_asian	2.171110226820533	smiling	024	sub-10	2.0	5.0	024_smiling	0.0		104.06777113661155	
11.0	69.3045941534765	pulse	1.0	t		47.0	male	east_asian	2.171110226820533	smiling	024	sub-10	2.0	5.0	024_smiling	0.0		104.76775100283703	
12.0	70.02112778729497	face	0.0		146	19.0	male	white	3.2522881018702745	smiling	018	sub-10	2.0	5.0	018_smiling	0.0		105.4842846366555	1.2333417148620356
12.0	70.00753039460687	pulse	0.0	t		19.0	male	white	3.2522881018702745	smiling	018	sub-10	2.0	5.0	018_smiling	0.0		105.4706872439674	
12.0	70.7045819585037	pulse	0.0	t		19.0	male	white	3.2522881018702745	smiling	018	sub-10	2.0	5.0	018_smiling	0.0		106.16773880786423	
12.0	71.25446950215701	fix	1.0		443	19.0	male	white	3.2522881018702745	smiling	018	sub-10	2.0	5.0	018_smiling	0.0		106.71762635151754	3.7665810100770614
12.0	71.40457057854292	pulse	1.0	t		19.0	male	white	3.2522881018702745	smiling	018	sub-10	2.0	5.0	018_smiling	0.0		106.86772742790345	
12.0	72.10456070786313	pulse	1.0	t		19.0	male	white	3.2522881018702745	smiling	018	sub-10	2.0	5.0	018_smiling	0.0		107.56771755722366	
12.0	72.80453332954858	pulse	1.0	t		19.0	male	white	3.2522881018702745	smiling	018	sub-10	2.0	5.0	018_smiling	0.0		108.2676901789091	
12.0	73.50452466628849	pulse	1.0	t		19.0	male	white	3.2522881018702745	smiling	018	sub-10	2.0	5.0	018_smiling	0.0		108.96768151564902	
12.0	74.20451630488606	pulse	1.0	t		19.0	male	white	3.2522881018702745	smiling	018	sub-10	2.0	5.0	018_smiling	0.0		109.66767315424659	
12.0	74.90450643420263	pulse	1.0	t		19.0	male	white	3.2522881018702745	smiling	018	sub-10	2.0	5.0	018_smiling	0.0		110.36766328356316	
13.0	75.02105051223407	face	0.0		146	40.0	male	black	2.408674890569041	neutral	061	sub-10	2.0	5.0	061_neutral	0.0		110.4842073615946	1.233320584957255
13.0	75.60449113011782	pulse	0.0	t		40.0	male	black	2.408674890569041	neutral	061	sub-10	2.0	5.0	061_neutral	0.0		111.06764797947835	
13.0	76.25437109719132	fix	1.0		443	40.0	male	black	2.408674890569041	neutral	061	sub-10	2.0	5.0	061_neutral	0.0		111.71752794655185	3.7665861416244297
13.0	76.30448246686137	pulse	1.0	t		40.0	male	black	2.408674890569041	neutral	061	sub-10	2.0	5.0	061_neutral	0.0		111.7676393162219	
13.0	77.0044722943203	pulse	1.0	t		40.0	male	black	2.408674890569041	neutral	061	sub-10	2.0	5.0	061_neutral	0.0		112.46762914368082	
13.0	77.70445276425744	pulse	1.0	t		40.0	male	black	2.408674890569041	neutral	061	sub-10	2.0	5.0	061_neutral	0.0		113.16760961361797	
13.0	78.4044290082129	pulse	1.0	t		40.0	male	black	2.408674890569041	neutral	061	sub-10	2.0	5.0	061_neutral	0.0		113.86758585757343	
13.0	79.1044245709345	pulse	1.0	t		40.0	male	black	2.408674890569041	neutral	061	sub-10	2.0	5.0	061_neutral	0.0		114.56758142029503	
13.0	79.804405040868	pulse	1.0	t		40.0	male	black	2.408674890569041	neutral	061	sub-10	2.0	5.0	061_neutral	0.0		115.26756189022854	
14.0	80.02095723881575	face	0.0		145	25.0	female	black	3.858336649423	neutral	126	sub-10	2.0	5.0	126_neutral	0.0		115.48411408817628	1.2333263202199305
14.0	80.50440996111502	pulse	0.0	t		25.0	female	black	3.858336649423	neutral	126	sub-10	2.0	5.0	126_neutral	0.0		115.96756681047555	
14.0	81.2043946570302	pulse	0.0	t		25.0	female	black	3.858336649423	neutral	126	sub-10	2.0	5.0	126_neutral	0.0		116.66755150639074	
14.0	81.25428355903568	fix	1.0		444	25.0	female	black	3.858336649423	neutral	126	sub-10	2.0	5.0	126_neutral	0.0		116.71744040839621	3.766585236055107
14.0	81.90439444573349	pulse	1.0	t		25.0	female	black	3.858336649423	neutral	126	sub-10	2.0	5.0	126_neutral	0.0		117.36755129509402	
14.0	82.60436555814158	pulse	1.0	t		25.0	female	black	3.858336649423	neutral	126	sub-10	2.0	5.0	126_neutral	0.0		118.06752240750211	
14.0	83.30435810230483	pulse	1.0	t		25.0	female	black	3.858336649423	neutral	126	sub-10	2.0	5.0	126_neutral	0.0		118.76751495166536	
14.0	84.00433344069097	pulse	1.0	t		25.0	female	black	3.858336649423	neutral	126	sub-10	2.0	5.0	126_neutral	0.0		119.4674902900515	
14.0	84.7043302108359	pulse	1.0	t		25.0	female	black	3.858336649423	neutral	126	sub-10	2.0	5.0	126_neutral	0.0		120.16748706019644	
15.0	85.02086879509079	face	0.0		145	22.0	male	black	2.767608436132113	neutral	044	sub-10	2.0	5.0	044_neutral	0.0		120.48402564445132	1.2333254146506079
15.0	85.40431369932776	pulse	0.0	t		22.0	male	black	2.767608436132113	neutral	044	sub-10	2.0	5.0	044_neutral	0.0		120.86747054868829	
15.0	86.104304432356	pulse	0.0	t		22.0	male	black	2.767608436132113	neutral	044	sub-10	2.0	5.0	044_neutral	0.0		121.56746128171653	
15.0	86.2541942097414	fix	1.0		445	22.0	male	black	2.767608436132113	neutral	044	sub-10	2.0	5.0	044_neutral	0.0		121.71735105910193	3.766581915642746
15.0	86.80429033569453	pulse	1.0	t		22.0	male	black	2.767608436132113	neutral	044	sub-10	2.0	5.0	044_neutral	0.0		122.26744718505506	
15.0	87.50427503160972	pulse	1.0	t		22.0	male	black	2.767608436132113	neutral	044	sub-10	2.0	5.0	044_neutral	0.0		122.96743188097025	
15.0	88.20426757577297	pulse	1.0	t		22.0	male	black	2.767608436132113	neutral	044	sub-10	2.0	5.0	044_neutral	0.0		123.6674244251335	
15.0	88.90424563086344	pulse	1.0	t		22.0	male	black	2.767608436132113	neutral	044	sub-10	2.0	5.0	044_neutral	0.0		124.36740248022397	
15.0	89.60423213791364	pulse	1.0	t		22.0	male	black	2.767608436132113	neutral	044	sub-10	2.0	5.0	044_neutral	0.0		125.06738898727417	
16.0	90.02077612538415	face	0.0		145	24.0	female	east_asian	2.9076800636689217	smiling	034	sub-10	2.0	5.0	034_smiling	0.0		125.48393297474468	1.233326018362277
16.0	90.30423464331398	pulse	0.0	t		24.0	female	east_asian	2.9076800636689217	smiling	034	sub-10	2.0	5.0	034_smiling	0.0		125.7673914926745	
16.0	91.00420877428041	pulse	0.0	t		24.0	female	east_asian	2.9076800636689217	smiling	034	sub-10	2.0	5.0	034_smiling	0.0		126.46736562364094	
16.0	91.25410214374642	fix	1.0		444	24.0	female	east_asian	2.9076800636689217	smiling	034	sub-10	2.0	5.0	034_smiling	0.0		126.71725899310695	3.766587349047768
16.0	91.70422486319148	pulse	1.0	t		24.0	female	east_asian	2.9076800636689217	smiling	034	sub-10	2.0	5.0	034_smiling	0.0		127.16738171255201	
16.0	92.40419325889525	pulse	1.0	t		24.0	female	east_asian	2.9076800636689217	smiling	034	sub-10	2.0	5.0	034_smiling	0.0		127.86735010825578	
16.0	93.10417735109877	pulse	1.0	t		24.0	female	east_asian	2.9076800636689217	smiling	034	sub-10	2.0	5.0	034_smiling	0.0		128.5673342004593	
16.0	93.80415933031327	pulse	1.0	t		24.0	female	east_asian	2.9076800636689217	smiling	034	sub-10	2.0	5.0	034_smiling	0.0		129.2673161796738	
16.0	94.50415217633417	pulse	1.0	t		24.0	female	east_asian	2.9076800636689217	smiling	034	sub-10	2.0	5.0	034_smiling	0.0		129.9673090256947	
17.0	95.02068949279419	face	0.0		145	20.0	male	black	3.1070433744528456	neutral	082	sub-10	2.0	5.0	082_neutral	0.0		130.48384634215472	1.2333263202162925
17.0	95.20414472049742	pulse	0.0	t		20.0	male	black	3.1070433744528456	neutral	082	sub-10	2.0	5.0	082_neutral	0.0		130.66730156985795	
17.0	95.90412911455496	pulse	0.0	t		20.0	male	black	3.1070433744528456	neutral	082	sub-10	2.0	5.0	082_neutral	0.0		131.3672859639155	
17.0	96.25401581301048	fix	1.0		444	20.0	male	black	3.1070433744528456	neutral	082	sub-10	2.0	5.0	082_neutral	0.0		131.717172662371	3.766580708223046
17.0	96.60419138738871	pulse	1.0	t		20.0	male	black	3.1070433744528456	neutral	082	sub-10	2.0	5.0	082_neutral	0.0		132.06734823674924	
17.0	97.30410695834507	pulse	1.0	t		20.0	male	black	3.1070433744528456	neutral	082	sub-10	2.0	5.0	082_neutral	0.0		132.7672638077056	
17.0	98.00408259858887	pulse	1.0	t		20.0	male	black	3.1070433744528456	neutral	082	sub-10	2.0	5.0	082_neutral	0.0		133.4672394479494	
17.0	98.70406729450406	pulse	1.0	t		20.0	male	black	3.1070433744528456	neutral	082	sub-10	2.0	5.0	082_neutral	0.0		134.1672241438646	
17.0	99.40406346093732	pulse	1.0	t		20.0	male	black	3.1070433744528456	neutral	082	sub-10	2.0	5.0	082_neutral	0.0		134.86722031029785	
18.0	100.02059652123353	face	0.0		145	24.0	male	white	3.1153999204138483	smiling	012	sub-10	2.0	5.0	012_smiling	0.0		135.48375337059406	1.233329338774638
18.0	100.10406204221363	pulse	0.0	t		24.0	male	white	3.1153999204138483	smiling	012	sub-10	2.0	5.0	012_smiling	0.0		135.56721889157416	
18.0	100.80404341771646	pulse	0.0	t		24.0	male	white	3.1153999204138483	smiling	012	sub-10	2.0	5.0	012_smiling	0.0		136.267200267077	
18.0	101.25392586000817	fix	1.0		444	24.0	male	white	3.1153999204138483	smiling	012	sub-10	2.0	5.0	012_smiling	0.0		136.7170827093687	3.7665767840953777
18.0	101.50403143404401	pulse	1.0	t		24.0	male	white	3.1153999204138483	smiling	012	sub-10	2.0	5.0	012_smiling	0.0		136.96718828340454	
18.0	102.20401794109421	pulse	1.0	t		24.0	male	white	3.1153999204138483	smiling	012	sub-10	2.0	5.0	012_smiling	0.0		137.66717479045474	
18.0	102.90401501309316	pulse	1.0	t		24.0	male	white	3.1153999204138483	smiling	012	sub-10	2.0	5.0	012_smiling	0.0		138.3671718624537	
18.0	103.60398552178958	pulse	1.0	t		24.0	male	white	3.1153999204138483	smiling	012	sub-10	2.0	5.0	012_smiling	0.0		139.0671423711501	
18.0	104.3039786696645	pulse	1.0	t		24.0	male	white	3.1153999204138483	smiling	012	sub-10	2.0	5.0	012_smiling	0.0		139.76713551902503	
19.0	105.02050264410354	face	0.0		146	22.0	male	black	2.767608436132113	smiling	044	sub-10	2.0	5.0	044_smiling	0.0		140.48365949346407	1.2332916068116901
19.0	105.00668972642961	pulse	0.0	t		22.0	male	black	2.767608436132113	smiling	044	sub-10	2.0	5.0	044_smiling	0.0		140.46984657579014	
19.0	105.70453275602267	pulse	0.0	t		22.0	male	black	2.767608436132113	smiling	044	sub-10	2.0	5.0	044_smiling	0.0		141.1676896053832	
19.0	106.25379425091523	fix	1.0		443	22.0	male	black	2.767608436132113	smiling	044	sub-10	2.0	5.0	044_smiling	0.0		141.71695110027576	3.7666280995654233
19.0	106.4039412093698	pulse	1.0	t		22.0	male	black	2.767608436132113	smiling	044	sub-10	2.0	5.0	044_smiling	0.0		141.86709805873033	
19.0	107.10392167930695	pulse	1.0	t		22.0	male	black	2.767608436132113	smiling	044	sub-10	2.0	5.0	044_smiling	0.0		142.56707852866748	
19.0	107.80390848821116	pulse	1.0	t		22.0	male	black	2.767608436132113	smiling	044	sub-10	2.0	5.0	044_smiling	0.0		143.2670653375717	
19.0	108.50390465464443	pulse	1.0	t		22.0	male	black	2.767608436132113	smiling	044	sub-10	2.0	5.0	044_smiling	0.0		143.96706150400496	
19.0	109.20388723756696	pulse	1.0	t		22.0	male	black	2.767608436132113	smiling	044	sub-10	2.0	5.0	044_smiling	0.0		144.6670440869275	
19.0	109.90387978173385	pulse	1.0	t		22.0	male	black	2.767608436132113	smiling	044	sub-10	2.0	5.0	044_smiling	0.0		145.36703663109438	
20.0	110.02042235048066	face	0.0		146	54.0	female	white	2.286908077994429	neutral	136	sub-10	2.0	5.0	136_neutral	1.0	attractiveness	145.4835791998412	1.2333115292894945
20.0	110.60385844053235	pulse	0.0	t		54.0	female	white	2.286908077994429	neutral	136	sub-10	2.0	5.0	136_neutral	1.0	attractiveness	146.06701528989288	
20.0	111.25373387977015	fix	1.0		176	54.0	female	white	2.286908077994429	neutral	136	sub-10	2.0	5.0	136_neutral	1.0	attractiveness	146.71689072913068	1.4999886804107518
20.0	111.30385038098393	pulse	1.0	t		54.0	female	white	2.286908077994429	neutral	136	sub-10	2.0	5.0	136_neutral	1.0	attractiveness	146.76700723034446	
20.0	112.00385590494625	pulse	1.0	t		54.0	female	white	2.286908077994429	neutral	136	sub-10	2.0	5.0	136_neutral	1.0	attractiveness	147.46701275430678	
20.0	112.70383275260974	pulse	1.0	t		54.0	female	white	2.286908077994429	neutral	136	sub-10	2.0	5.0	136_neutral	1.0	attractiveness	148.16698960197027	
20.0	112.7537225601809	rating	2.0		295	54.0	female	white	2.286908077994429	neutral	136	sub-10	2.0	5.0	136_neutral	1.0	attractiveness	148.21687940954143	2.4999485336011276
20.0	113.39856123490244	pulse	2.0	t		54.0	female	white	2.286908077994429	neutral	136	sub-10	2.0	5.0	136_neutral	1.0	attractiveness	148.86171808426298	
20.0	113.60380561578131	response	2.0	n		54.0	female	white	2.286908077994429	neutral	136	sub-10	2.0	5.0	136_neutral	1.0	attractiveness	149.06696246514184	
20.0	114.10379308876873	pulse	2.0	t		54.0	female	white	2.286908077994429	neutral	136	sub-10	2.0	5.0	136_neutral	1.0	attractiveness	149.56694993812926	
20.0	114.80377446427156	pulse	2.0	t		54.0	female	white	2.286908077994429	neutral	136	sub-10	2.0	5.0	136_neutral	1.0	attractiveness	150.26693131363209	
20.0	115.25367109378203	fix	3.0		1185	54.0	female	white	2.286908077994429	neutral	136	sub-10	2.0	5.0	136_neutral	1.0	attractiveness	150.71682794314256	10.016479511090438
20.0	115.50378270493457	pulse	3.0	t		54.0	female	white	2.286908077994429	neutral	136	sub-10	2.0	5.0	136_neutral	1.0	attractiveness	150.9669395542951	
20.0	116.2037686082731	pulse	3.0	t		54.0	female	white	2.286908077994429	neutral	136	sub-10	2.0	5.0	136_neutral	1.0	attractiveness	151.66692545763362	
20.0	116.90373972067755	pulse	3.0	t		54.0	female	white	2.286908077994429	neutral	136	sub-10	2.0	5.0	136_neutral	1.0	attractiveness	152.36689657003808	
20.0	117.60373830195749	pulse	3.0	t		54.0	female	white	2.286908077994429	neutral	136	sub-10	2.0	5.0	136_neutral	1.0	attractiveness	153.06689515131802	
20.0	118.30372903498574	pulse	3.0	t		54.0	female	white	2.286908077994429	neutral	136	sub-10	2.0	5.0	136_neutral	1.0	attractiveness	153.76688588434627	
20.0	119.00368505460938	pulse	3.0	t		54.0	female	white	2.286908077994429	neutral	136	sub-10	2.0	5.0	136_neutral	1.0	attractiveness	154.4668419039699	
20.0	119.70367729691498	pulse	3.0	t		54.0	female	white	2.286908077994429	neutral	136	sub-10	2.0	5.0	136_neutral	1.0	attractiveness	155.1668341462755	
20.0	120.4036828208773	pulse	3.0	t		54.0	female	white	2.286908077994429	neutral	136	sub-10	2.0	5.0	136_neutral	1.0	attractiveness	155.86683967023782	
20.0	121.10366902606984	pulse	3.0	t		54.0	female	white	2.286908077994429	neutral	136	sub-10	2.0	5.0	136_neutral	1.0	attractiveness	156.56682587543037	
20.0	121.80365674054337	pulse	3.0	t		54.0	female	white	2.286908077994429	neutral	136	sub-10	2.0	5.0	136_neutral	1.0	attractiveness	157.2668135899039	
20.0	122.5036438513016	pulse	3.0	t		54.0	female	white	2.286908077994429	neutral	136	sub-10	2.0	5.0	136_neutral	1.0	attractiveness	157.96680070066213	
20.0	123.20363126392112	pulse	3.0	t		54.0	female	white	2.286908077994429	neutral	136	sub-10	2.0	5.0	136_neutral	1.0	attractiveness	158.66678811328165	
20.0	123.90362290251505	pulse	3.0	t		54.0	female	white	2.286908077994429	neutral	136	sub-10	2.0	5.0	136_neutral	1.0	attractiveness	159.36677975187558	
20.0	124.60361665410164	pulse	3.0	t		54.0	female	white	2.286908077994429	neutral	136	sub-10	2.0	5.0	136_neutral	1.0	attractiveness	160.06677350346217	
21.0	125.27015060487247	face	0.0		145	28.0	male	white	3.9076800636689217	neutral	033	sub-10	2.0	5.0	033_neutral	0.0		160.733307454233	1.2333220942382468
21.0	125.3036110093999	pulse	0.0	t		28.0	male	white	3.9076800636689217	neutral	033	sub-10	2.0	5.0	033_neutral	0.0		160.76676785876043	
21.0	126.00364219109542	pulse	0.0	t		28.0	male	white	3.9076800636689217	neutral	033	sub-10	2.0	5.0	033_neutral	0.0		161.46679904045595	
21.0	126.50347269911072	fix	1.0		443	28.0	male	white	3.9076800636689217	neutral	033	sub-10	2.0	5.0	033_neutral	0.0		161.96662954847125	3.766562295022595
21.0	126.70358311793098	pulse	1.0	t		28.0	male	white	3.9076800636689217	neutral	033	sub-10	2.0	5.0	033_neutral	0.0		162.1667399672915	
21.0	127.40356811570382	pulse	1.0	t		28.0	male	white	3.9076800636689217	neutral	033	sub-10	2.0	5.0	033_neutral	0.0		162.86672496506435	
21.0	128.10355673574304	pulse	1.0	t		28.0	male	white	3.9076800636689217	neutral	033	sub-10	2.0	5.0	033_neutral	0.0		163.56671358510357	
21.0	128.80353328155252	pulse	1.0	t		28.0	male	white	3.9076800636689217	neutral	033	sub-10	2.0	5.0	033_neutral	0.0		164.26669013091305	
21.0	129.50352582571577	pulse	1.0	t		28.0	male	white	3.9076800636689217	neutral	033	sub-10	2.0	5.0	033_neutral	0.0		164.9666826750763	
21.0	130.2035026733829	pulse	1.0	t		28.0	male	white	3.9076800636689217	neutral	033	sub-10	2.0	5.0	033_neutral	0.0		165.66665952274343	
22.0	130.2700349941333	face	0.0		146	36.0	female	white	2.7548746518105847	neutral	011	sub-10	2.0	5.0	011_neutral	0.0		165.73319184349384	1.2333489593947888
22.0	130.9034964249695	pulse	0.0	t		36.0	female	white	2.7548746518105847	neutral	011	sub-10	2.0	5.0	011_neutral	0.0		166.36665327433002	
22.0	131.5033839535281	fix	1.0		443	36.0	female	white	2.7548746518105847	neutral	011	sub-10	2.0	5.0	011_neutral	0.0		166.96654080288863	3.7665834249237378
22.0	131.60350194892817	pulse	1.0	t		36.0	female	white	2.7548746518105847	neutral	011	sub-10	2.0	5.0	011_neutral	0.0		167.0666587982887	
22.0	132.30347638174862	pulse	1.0	t		36.0	female	white	2.7548746518105847	neutral	011	sub-10	2.0	5.0	011_neutral	0.0		167.76663323110915	
22.0	133.00370678821855	pulse	1.0	t		36.0	female	white	2.7548746518105847	neutral	011	sub-10	2.0	5.0	011_neutral	0.0		168.46686363757908	
22.0	133.70345120698403	pulse	1.0	t		36.0	female	white	2.7548746518105847	neutral	011	sub-10	2.0	5.0	011_neutral	0.0		169.16660805634456	
22.0	134.40343529918755	pulse	1.0	t		36.0	female	white	2.7548746518105847	neutral	011	sub-10	2.0	5.0	011_neutral	0.0		169.86659214854808	
22.0	135.1034230136611	pulse	1.0	t		36.0	female	white	2.7548746518105847	neutral	011	sub-10	2.0	5.0	011_neutral	0.0		170.56657986302162	
23.0	135.26996737845184	face	0.0		146	19.0	male	white	3.2522881018702745	neutral	018	sub-10	2.0	5.0	018_neutral	1.0	dominance	170.73312422781237	1.2332919086657057
23.0	135.80344000813784	pulse	0.0	t		19.0	male	white	3.2522881018702745	neutral	018	sub-10	2.0	5.0	018_neutral	1.0	dominance	171.26659685749837	
23.0	136.50325928711754	fix	1.0		177	19.0	male	white	3.2522881018702745	neutral	018	sub-10	2.0	5.0	018_neutral	1.0	dominance	171.96641613647807	1.5000131307242555
23.0	136.51114255105858	pulse	1.0	t		19.0	male	white	3.2522881018702745	neutral	018	sub-10	2.0	5.0	018_neutral	1.0	dominance	171.9742994004191	
23.0	137.20340094800486	pulse	1.0	t		19.0	male	white	3.2522881018702745	neutral	018	sub-10	2.0	5.0	018_neutral	1.0	dominance	172.66655779736539	
23.0	137.90338111608435	pulse	1.0	t		19.0	male	white	3.2522881018702745	neutral	018	sub-10	2.0	5.0	018_neutral	1.0	dominance	173.36653796544488	
23.0	138.0032724178418	rating	2.0		295	19.0	male	white	3.2522881018702745	neutral	018	sub-10	2.0	5.0	018_neutral	1.0	dominance	173.46642926720233	2.499951552155835
23.0	138.59814038766126	pulse	2.0	t		19.0	male	white	3.2522881018702745	neutral	018	sub-10	2.0	5.0	018_neutral	1.0	dominance	174.0612972370218	
23.0	139.29811150006572	pulse	2.0	t		19.0	male	white	3.2522881018702745	neutral	018	sub-10	2.0	5.0	018_neutral	1.0	dominance	174.76126834942625	
23.0	139.37311842010968	response	2.0	w		19.0	male	white	3.2522881018702745	neutral	018	sub-10	2.0	5.0	018_neutral	1.0	dominance	174.8362752694702	
23.0	140.00334063723494	pulse	2.0	t		19.0	male	white	3.2522881018702745	neutral	018	sub-10	2.0	5.0	018_neutral	1.0	dominance	175.46649748659547	
23.0	140.50322396999763	fix	3.0		443	19.0	male	white	3.2522881018702745	neutral	018	sub-10	2.0	5.0	018_neutral	1.0	dominance	175.96638081935816	3.7665686339933018
23.0	140.70333106840917	pulse	3.0	t		19.0	male	white	3.2522881018702745	neutral	018	sub-10	2.0	5.0	018_neutral	1.0	dominance	176.1664879177697	
23.0	141.4033136513317	pulse	3.0	t		19.0	male	white	3.2522881018702745	neutral	018	sub-10	2.0	5.0	018_neutral	1.0	dominance	176.86647050069223	
23.0	142.10329774353522	pulse	3.0	t		19.0	male	white	3.2522881018702745	neutral	018	sub-10	2.0	5.0	018_neutral	1.0	dominance	177.56645459289575	
23.0	142.80328002460374	pulse	3.0	t		19.0	male	white	3.2522881018702745	neutral	018	sub-10	2.0	5.0	018_neutral	1.0	dominance	178.26643687396427	
23.0	143.50327981330702	pulse	3.0	t		19.0	male	white	3.2522881018702745	neutral	018	sub-10	2.0	5.0	018_neutral	1.0	dominance	178.96643666266755	
23.0	144.20326752778055	pulse	3.0	t		19.0	male	white	3.2522881018702745	neutral	018	sub-10	2.0	5.0	018_neutral	1.0	dominance	179.66642437714108	
24.0	144.26979260399094	face	0.0		146	27.0	female	white	3.504576203740549	neutral	144	sub-10	2.0	5.0	144_neutral	0.0		179.73294945335147	1.233329338774638
24.0	144.90326158122116	pulse	0.0	t		27.0	female	white	3.504576203740549	neutral	144	sub-10	2.0	5.0	144_neutral	0.0		180.3664184305817	
24.0	145.50312194276557	fix	1.0		443	27.0	female	white	3.504576203740549	neutral	144	sub-10	2.0	5.0	144_neutral	0.0		180.9662787921261	3.7665970084271976
24.0	145.60325050311803	pulse	1.0	t		27.0	female	white	3.504576203740549	neutral	144	sub-10	2.0	5.0	144_neutral	0.0		181.06640735247856	
24.0	146.3032188988218	pulse	1.0	t		27.0	female	white	3.504576203740549	neutral	144	sub-10	2.0	5.0	144_neutral	0.0		181.76637574818233	
24.0	147.00322019680243	pulse	1.0	t		27.0	female	white	3.504576203740549	neutral	144	sub-10	2.0	5.0	144_neutral	0.0		182.46637704616296	
24.0	147.70320610014096	pulse	1.0	t		27.0	female	white	3.504576203740549	neutral	144	sub-10	2.0	5.0	144_neutral	0.0		183.1663629495015	
24.0	148.40317932553808	pulse	1.0	t		27.0	female	white	3.504576203740549	neutral	144	sub-10	2.0	5.0	144_neutral	0.0		183.8663361748986	
24.0	149.10317790681438	pulse	1.0	t		27.0	female	white	3.504576203740549	neutral	144	sub-10	2.0	5.0	144_neutral	0.0		184.5663347561749	
25.0	149.26971895119277	face	0.0		146	20.0	male	black	3.1070433744528456	smiling	082	sub-10	2.0	5.0	082_smiling	0.0		184.7328758005533	1.233326018365915
25.0	149.80316230087556	pulse	0.0	t		20.0	male	black	3.1070433744528456	smiling	082	sub-10	2.0	5.0	082_smiling	0.0		185.2663191502361	
25.0	150.5030449695587	fix	1.0		444	20.0	male	black	3.1070433744528456	smiling	082	sub-10	2.0	5.0	082_smiling	0.0		185.96620181891922	3.766585236055107
25.0	150.51058019385528	pulse	1.0	t		20.0	male	black	3.1070433744528456	smiling	082	sub-10	2.0	5.0	082_smiling	0.0		185.9737370432158	
25.0	151.20314286136636	pulse	1.0	t		20.0	male	black	3.1070433744528456	smiling	082	sub-10	2.0	5.0	082_smiling	0.0		186.6662997107269	
25.0	151.90312997212823	pulse	1.0	t		20.0	male	black	3.1070433744528456	smiling	082	sub-10	2.0	5.0	082_smiling	0.0		187.36628682148876	
25.0	152.6031047068027	pulse	1.0	t		20.0	male	black	3.1070433744528456	smiling	082	sub-10	2.0	5.0	082_smiling	0.0		188.06626155616323	
25.0	153.30309181756456	pulse	1.0	t		20.0	male	black	3.1070433744528456	smiling	082	sub-10	2.0	5.0	082_smiling	0.0		188.7662486669251	
25.0	154.00309190812186	pulse	1.0	t		20.0	male	black	3.1070433744528456	smiling	082	sub-10	2.0	5.0	082_smiling	0.0		189.4662487574824	
26.0	154.2696302056138	face	0.0		145	21.0	male	east_asian/white	3.501790688420215	smiling	036	sub-10	2.0	5.0	036_smiling	0.0		189.73278705497432	1.2333181701142166
26.0	154.70307720774872	pulse	0.0	t		21.0	male	east_asian/white	3.501790688420215	smiling	036	sub-10	2.0	5.0	036_smiling	0.0		190.16623405710925	
26.0	155.40306582778794	pulse	0.0	t		21.0	male	east_asian/white	3.501790688420215	smiling	036	sub-10	2.0	5.0	036_smiling	0.0		190.86622267714847	
26.0	155.502948375728	fix	1.0		444	21.0	male	east_asian/white	3.501790688420215	smiling	036	sub-10	2.0	5.0	036_smiling	0.0		190.96610522508854	3.76659127316816
26.0	156.10305988122855	pulse	1.0	t		21.0	male	east_asian/white	3.501790688420215	smiling	036	sub-10	2.0	5.0	036_smiling	0.0		191.56621673058908	
26.0	156.80303703075333	pulse	1.0	t		21.0	male	east_asian/white	3.501790688420215	smiling	036	sub-10	2.0	5.0	036_smiling	0.0		192.26619388011386	
26.0	157.5030271600699	pulse	1.0	t		21.0	male	east_asian/white	3.501790688420215	smiling	036	sub-10	2.0	5.0	036_smiling	0.0		192.96618400943044	
26.0	158.2030191005215	pulse	1.0	t		21.0	male	east_asian/white	3.501790688420215	smiling	036	sub-10	2.0	5.0	036_smiling	0.0		193.66617594988202	
26.0	158.9029938351996	pulse	1.0	t		21.0	male	east_asian/white	3.501790688420215	smiling	036	sub-10	2.0	5.0	036_smiling	0.0		194.36615068456013	
27.0	159.26953964889617	face	0.0		145	25.0	female	black	3.858336649423	smiling	126	sub-10	2.0	5.0	126_smiling	0.0		194.7326964982567	1.233315151559509
27.0	159.60297792740312	pulse	0.0	t		25.0	female	black	3.858336649423	smiling	126	sub-10	2.0	5.0	126_smiling	0.0		195.06613477676365	
27.0	160.30297831981443	pulse	0.0	t		25.0	female	black	3.858336649423	smiling	126	sub-10	2.0	5.0	126_smiling	0.0		195.76613516917496	
27.0	160.50285480045568	fix	1.0		444	25.0	female	black	3.858336649423	smiling	126	sub-10	2.0	5.0	126_smiling	0.0		195.9660116498162	3.7665680302779947
27.0	161.002973580682	pulse	1.0	t		25.0	female	black	3.858336649423	smiling	126	sub-10	2.0	5.0	126_smiling	0.0		196.46613043004254	
27.0	161.7029504283455	pulse	1.0	t		25.0	female	black	3.858336649423	smiling	126	sub-10	2.0	5.0	126_smiling	0.0		197.16610727770603	
27.0	162.40293784096139	pulse	1.0	t		25.0	female	black	3.858336649423	smiling	126	sub-10	2.0	5.0	126_smiling	0.0		197.86609469032192	
27.0	163.1029297814166	pulse	1.0	t		25.0	female	black	3.858336649423	smiling	126	sub-10	2.0	5.0	126_smiling	0.0		198.56608663077714	
27.0	163.80290904392677	pulse	1.0	t		25.0	female	black	3.858336649423	smiling	126	sub-10	2.0	5.0	126_smiling	0.0		199.2660658932873	
28.0	164.26942283073367	face	0.0		145	24.0	female	east_asian	4.409868682849185	neutral	030	sub-10	2.0	5.0	030_neutral	0.0		199.7325796800942	1.233341413004382
28.0	164.50290792706073	pulse	0.0	t		24.0	female	east_asian	4.409868682849185	neutral	030	sub-10	2.0	5.0	030_neutral	0.0		199.96606477642126	
28.0	165.20289383039926	pulse	0.0	t		24.0	female	east_asian	4.409868682849185	neutral	030	sub-10	2.0	5.0	030_neutral	0.0		200.6660506797598	
28.0	165.50276424373806	fix	1.0		444	24.0	female	east_asian	4.409868682849185	neutral	030	sub-10	2.0	5.0	030_neutral	0.0		200.9659210930986	3.766596706573182
28.0	165.90287611146778	pulse	1.0	t		24.0	female	east_asian	4.409868682849185	neutral	030	sub-10	2.0	5.0	030_neutral	0.0		201.3660329608283	
28.0	166.60285205356922	pulse	1.0	t		24.0	female	east_asian	4.409868682849185	neutral	030	sub-10	2.0	5.0	030_neutral	0.0		202.06600890292975	
28.0	167.30285667196222	pulse	1.0	t		24.0	female	east_asian	4.409868682849185	neutral	030	sub-10	2.0	5.0	030_neutral	0.0		202.76601352132275	
28.0	168.0028332177717	pulse	1.0	t		24.0	female	east_asian	4.409868682849185	neutral	030	sub-10	2.0	5.0	030_neutral	0.0		203.46599006713222	
28.0	168.70282757306995	pulse	1.0	t		24.0	female	east_asian	4.409868682849185	neutral	030	sub-10	2.0	5.0	030_neutral	0.0		204.16598442243048	
29.0	169.26936095031124	face	0.0		145	22.0	female	west_asian	3.8205332272184642	smiling	066	sub-10	2.0	5.0	066_smiling	1.0	trustworthiness	204.73251779967177	1.233328735066607
29.0	169.40282373950322	pulse	0.0	t		22.0	female	west_asian	3.8205332272184642	smiling	066	sub-10	2.0	5.0	066_smiling	1.0	trustworthiness	204.86598058886375	
29.0	170.1027803628349	pulse	0.0	t		22.0	female	west_asian	3.8205332272184642	smiling	066	sub-10	2.0	5.0	066_smiling	1.0	trustworthiness	205.56593721219542	
29.0	170.50268968537785	fix	1.0		177	22.0	female	west_asian	3.8205332272184642	smiling	066	sub-10	2.0	5.0	066_smiling	1.0	trustworthiness	205.96584653473838	1.4999741913343314
29.0	170.8027762274105	pulse	1.0	t		22.0	female	west_asian	3.8205332272184642	smiling	066	sub-10	2.0	5.0	066_smiling	1.0	trustworthiness	206.26593307677103	
29.0	171.50277058270876	pulse	1.0	t		22.0	female	west_asian	3.8205332272184642	smiling	066	sub-10	2.0	5.0	066_smiling	1.0	trustworthiness	206.9659274320693	
29.0	172.00266387671218	rating	2.0		294	22.0	female	west_asian	3.8205332272184642	smiling	066	sub-10	2.0	5.0	066_smiling	1.0	trustworthiness	207.4658207260727	2.499911405346211
29.0	172.1975503804715	pulse	2.0	t		22.0	female	west_asian	3.8205332272184642	smiling	066	sub-10	2.0	5.0	066_smiling	1.0	trustworthiness	207.66070722983204	
29.0	172.89752058731392	pulse	2.0	t		22.0	female	west_asian	3.8205332272184642	smiling	066	sub-10	2.0	5.0	066_smiling	1.0	trustworthiness	208.36067743667445	
29.0	173.10272844364954	response	2.0	w		22.0	female	west_asian	3.8205332272184642	smiling	066	sub-10	2.0	5.0	066_smiling	1.0	trustworthiness	208.56588529301007	
29.0	173.60272648158934	pulse	2.0	t		22.0	female	west_asian	3.8205332272184642	smiling	066	sub-10	2.0	5.0	066_smiling	1.0	trustworthiness	209.06588333094987	
29.0	174.30272928884733	pulse	2.0	t		22.0	female	west_asian	3.8205332272184642	smiling	066	sub-10	2.0	5.0	066_smiling	1.0	trustworthiness	209.76588613820786	
29.0	174.5025752820584	fix	3.0		444	22.0	female	west_asian	3.8205332272184642	smiling	066	sub-10	2.0	5.0	066_smiling	1.0	trustworthiness	209.96573213141892	3.7666265902917075
29.0	175.00274749074742	pulse	3.0	t		22.0	female	west_asian	3.8205332272184642	smiling	066	sub-10	2.0	5.0	066_smiling	1.0	trustworthiness	210.46590434010795	
29.0	175.70267090995185	pulse	3.0	t		22.0	female	west_asian	3.8205332272184642	smiling	066	sub-10	2.0	5.0	066_smiling	1.0	trustworthiness	211.16582775931238	
29.0	176.4026924322643	pulse	3.0	t		22.0	female	west_asian	3.8205332272184642	smiling	066	sub-10	2.0	5.0	066_smiling	1.0	trustworthiness	211.86584928162483	
29.0	177.10267169477447	pulse	3.0	t		22.0	female	west_asian	3.8205332272184642	smiling	066	sub-10	2.0	5.0	066_smiling	1.0	trustworthiness	212.565828544135	
29.0	177.80264703316425	pulse	3.0	t		22.0	female	west_asian	3.8205332272184642	smiling	066	sub-10	2.0	5.0	066_smiling	1.0	trustworthiness	213.26580388252478	
30.0	178.2692018723501	face	0.0		145	30.0	female	black	2.7345801830481498	neutral	062	sub-10	2.0	5.0	062_neutral	0.0		213.73235872171063	1.2333263202162925
30.0	178.5026594998053	pulse	0.0	t		30.0	female	black	2.7345801830481498	neutral	062	sub-10	2.0	5.0	062_neutral	0.0		213.96581634916583	
30.0	179.20264298829716	pulse	0.0	t		30.0	female	black	2.7345801830481498	neutral	062	sub-10	2.0	5.0	062_neutral	0.0		214.6657998376577	
30.0	179.5025281925664	fix	1.0		444	30.0	female	black	2.7345801830481498	neutral	062	sub-10	2.0	5.0	062_neutral	0.0		214.96568504192692	3.766584028635407
30.0	179.90262225081096	pulse	1.0	t		30.0	female	black	2.7345801830481498	neutral	062	sub-10	2.0	5.0	062_neutral	0.0		215.3657791001715	
30.0	180.60262324693394	pulse	1.0	t		30.0	female	black	2.7345801830481498	neutral	062	sub-10	2.0	5.0	062_neutral	0.0		216.06578009629447	
30.0	181.30260371686745	pulse	1.0	t		30.0	female	black	2.7345801830481498	neutral	062	sub-10	2.0	5.0	062_neutral	0.0		216.76576056622798	
30.0	182.00259022391765	pulse	1.0	t		30.0	female	black	2.7345801830481498	neutral	062	sub-10	2.0	5.0	062_neutral	0.0		217.46574707327818	
30.0	182.7025709957088	pulse	1.0	t		30.0	female	black	2.7345801830481498	neutral	062	sub-10	2.0	5.0	062_neutral	0.0		218.16572784506934	
31.0	183.2691122212018	face	0.0		145	40.0	male	white	1.868682849184242	smiling	172	sub-10	2.0	5.0	172_smiling	1.0	dominance	218.73226907056232	1.2333242072272697
31.0	183.40257259554346	pulse	0.0	t		40.0	male	white	1.868682849184242	smiling	172	sub-10	2.0	5.0	172_smiling	1.0	dominance	218.865729444904	
31.0	184.10256996940007	pulse	0.0	t		40.0	male	white	1.868682849184242	smiling	172	sub-10	2.0	5.0	172_smiling	1.0	dominance	219.5657268187606	
31.0	184.50243642842906	fix	1.0		177	40.0	male	white	1.868682849184242	smiling	172	sub-10	2.0	5.0	172_smiling	1.0	dominance	219.9655932777896	1.4999735876263003
31.0	184.80254470407453	pulse	1.0	t		40.0	male	white	1.868682849184242	smiling	172	sub-10	2.0	5.0	172_smiling	1.0	dominance	220.26570155343506	
31.0	185.50253302225974	pulse	1.0	t		40.0	male	white	1.868682849184242	smiling	172	sub-10	2.0	5.0	172_smiling	1.0	dominance	220.96568987162027	
31.0	186.00241001605536	rating	2.0		293	40.0	male	white	1.868682849184242	smiling	172	sub-10	2.0	5.0	172_smiling	1.0	dominance	221.4655668654159	2.4999491373091587
31.0	186.19728263444995	pulse	2.0	t		40.0	male	white	1.868682849184242	smiling	172	sub-10	2.0	5.0	172_smiling	1.0	dominance	221.66043948381048	
31.0	186.89725193572303	pulse	2.0	t		40.0	male	white	1.868682849184242	smiling	172	sub-10	2.0	5.0	172_smiling	1.0	dominance	222.36040878508356	
31.0	187.23057158493248	response	2.0	n		40.0	male	white	1.868682849184242	smiling	172	sub-10	2.0	5.0	172_smiling	1.0	dominance	222.693728434293	
31.0	187.3774853667892	response	2.0	w		40.0	male	white	1.868682849184242	smiling	172	sub-10	2.0	5.0	172_smiling	1.0	dominance	222.84064221614972	
31.0	187.59728523040758	pulse	2.0	t		40.0	male	white	1.868682849184242	smiling	172	sub-10	2.0	5.0	172_smiling	1.0	dominance	223.0604420797681	
31.0	188.30250772674844	pulse	2.0	t		40.0	male	white	1.868682849184242	smiling	172	sub-10	2.0	5.0	172_smiling	1.0	dominance	223.76566457610897	
31.0	188.50235915336452	fix	3.0		444	40.0	male	white	1.868682849184242	smiling	172	sub-10	2.0	5.0	172_smiling	1.0	dominance	223.96551600272505	3.766592782449152
31.0	189.00246646307278	pulse	3.0	t		40.0	male	white	1.868682849184242	smiling	172	sub-10	2.0	5.0	172_smiling	1.0	dominance	224.4656233124333	
31.0	189.70244210331657	pulse	3.0	t		40.0	male	white	1.868682849184242	smiling	172	sub-10	2.0	5.0	172_smiling	1.0	dominance	225.1655989526771	
31.0	190.4024434012972	pulse	3.0	t		40.0	male	white	1.868682849184242	smiling	172	sub-10	2.0	5.0	172_smiling	1.0	dominance	225.86560025065774	
31.0	191.10243685102614	pulse	3.0	t		40.0	male	white	1.868682849184242	smiling	172	sub-10	2.0	5.0	172_smiling	1.0	dominance	226.56559370038667	
31.0	191.80240977456924	pulse	3.0	t		40.0	male	white	1.868682849184242	smiling	172	sub-10	2.0	5.0	172_smiling	1.0	dominance	227.26556662392977	
32.0	192.26895193581367	face	0.0		145	27.0	female	white	3.504576203740549	smiling	144	sub-10	2.0	5.0	144_smiling	0.0		227.7321087851742	1.2333082088771334
32.0	192.50240986512654	pulse	0.0	t		27.0	female	white	3.504576203740549	smiling	144	sub-10	2.0	5.0	144_smiling	0.0		227.96556671448707	
32.0	193.20237946825364	pulse	0.0	t		27.0	female	white	3.504576203740549	smiling	144	sub-10	2.0	5.0	144_smiling	0.0		228.66553631761417	
32.0	193.5022601446908	fix	1.0		444	27.0	female	white	3.504576203740549	smiling	144	sub-10	2.0	5.0	144_smiling	0.0		228.96541699405134	3.758302013284265
32.0	193.90237140870886	pulse	1.0	t		27.0	female	white	3.504576203740549	smiling	144	sub-10	2.0	5.0	144_smiling	0.0		229.3655282580694	
32.0	194.60236606586113	pulse	1.0	t		27.0	female	white	3.504576203740549	smiling	144	sub-10	2.0	5.0	144_smiling	0.0		230.06552291522166	
32.0	195.30235257291133	pulse	1.0	t		27.0	female	white	3.504576203740549	smiling	144	sub-10	2.0	5.0	144_smiling	0.0		230.76550942227186	
32.0	196.0023442115089	pulse	1.0	t		27.0	female	white	3.504576203740549	smiling	144	sub-10	2.0	5.0	144_smiling	0.0		231.46550106086943	
32.0	196.70232256845338	pulse	1.0	t		27.0	female	white	3.504576203740549	smiling	144	sub-10	2.0	5.0	144_smiling	0.0		232.1654794178139	
33.0	197.26056215797507	face	0.0		146	26.0	female	white	4.854755272582572	smiling	027	sub-10	2.0	5.0	027_smiling	0.0		232.7237190073356	1.2416122596914647
33.0	197.40232386643038	pulse	0.0	t		26.0	female	white	4.854755272582572	smiling	027	sub-10	2.0	5.0	027_smiling	0.0		232.8654807157909	
33.0	198.1022886398714	pulse	0.0	t		26.0	female	white	4.854755272582572	smiling	027	sub-10	2.0	5.0	027_smiling	0.0		233.56544548923193	
33.0	198.50217441766654	fix	1.0		444	26.0	female	white	4.854755272582572	smiling	027	sub-10	2.0	5.0	027_smiling	0.0		233.96533126702707	3.7665964047155285
33.0	198.80228208960034	pulse	1.0	t		26.0	female	white	4.854755272582572	smiling	027	sub-10	2.0	5.0	027_smiling	0.0		234.26543893896087	
33.0	199.50226708736955	pulse	1.0	t		26.0	female	white	4.854755272582572	smiling	027	sub-10	2.0	5.0	027_smiling	0.0		234.96542393673008	
33.0	200.20225480184308	pulse	1.0	t		26.0	female	white	4.854755272582572	smiling	027	sub-10	2.0	5.0	027_smiling	0.0		235.6654116512036	
33.0	200.90224462930564	pulse	1.0	t		26.0	female	white	4.854755272582572	smiling	027	sub-10	2.0	5.0	027_smiling	0.0		236.36540147866617	
33.0	201.60223989016959	pulse	1.0	t		26.0	female	white	4.854755272582572	smiling	027	sub-10	2.0	5.0	027_smiling	0.0		237.06539673953012	
34.0	202.26877082238207	face	0.0		145	22.0	female	white	4.614007162753682	neutral	009	sub-10	2.0	5.0	009_neutral	0.0		237.7319276717426	1.2333236035192385
34.0	202.30223092505548	pulse	0.0	t		22.0	female	white	4.614007162753682	neutral	009	sub-10	2.0	5.0	009_neutral	0.0		237.765387774416	
34.0	203.00220898014595	pulse	0.0	t		22.0	female	white	4.614007162753682	neutral	009	sub-10	2.0	5.0	009_neutral	0.0		238.46536582950648	
34.0	203.5020944259013	fix	1.0		443	22.0	female	white	4.614007162753682	neutral	009	sub-10	2.0	5.0	009_neutral	0.0		238.96525127526183	3.7665888583251217
34.0	203.70221269296962	pulse	1.0	t		22.0	female	white	4.614007162753682	neutral	009	sub-10	2.0	5.0	009_neutral	0.0		239.16536954233015	
34.0	204.402177466407	pulse	1.0	t		22.0	female	white	4.614007162753682	neutral	009	sub-10	2.0	5.0	009_neutral	0.0		239.86533431576754	
34.0	205.10224336151077	pulse	1.0	t		22.0	female	white	4.614007162753682	neutral	009	sub-10	2.0	5.0	009_neutral	0.0		240.5654002108713	
34.0	205.8021559139088	pulse	1.0	t		22.0	female	white	4.614007162753682	neutral	009	sub-10	2.0	5.0	009_neutral	0.0		241.26531276326932	
34.0	206.5021514766304	pulse	1.0	t		22.0	female	white	4.614007162753682	neutral	009	sub-10	2.0	5.0	009_neutral	0.0		241.96530832599092	
34.0	207.20212832429752	pulse	1.0	t		22.0	female	white	4.614007162753682	neutral	009	sub-10	2.0	5.0	009_neutral	0.0		242.66528517365805	
35.0	207.26868328422643	face	0.0		146	19.0	female	white	4.298846000795861	smiling	100	sub-10	2.0	5.0	100_smiling	0.0		242.73184013358696	1.2333211886689242
35.0	207.9021220758841	pulse	0.0	t		19.0	female	white	4.298846000795861	smiling	100	sub-10	2.0	5.0	100_smiling	0.0		243.36527892524464	
35.0	208.50200447289535	fix	1.0		443	19.0	female	white	4.298846000795861	smiling	100	sub-10	2.0	5.0	100_smiling	0.0		243.96516132225588	3.7665891601827752
35.0	208.6021194497407	pulse	1.0	t		19.0	female	white	4.298846000795861	smiling	100	sub-10	2.0	5.0	100_smiling	0.0		244.06527629910124	
35.0	209.3020935807035	pulse	1.0	t		19.0	female	white	4.298846000795861	smiling	100	sub-10	2.0	5.0	100_smiling	0.0		244.76525043006404	
35.0	210.00209518053816	pulse	1.0	t		19.0	female	white	4.298846000795861	smiling	100	sub-10	2.0	5.0	100_smiling	0.0		245.4652520298987	
35.0	210.702080178311	pulse	1.0	t		19.0	female	white	4.298846000795861	smiling	100	sub-10	2.0	5.0	100_smiling	0.0		246.16523702767154	
35.0	211.40206155381384	pulse	1.0	t		19.0	female	white	4.298846000795861	smiling	100	sub-10	2.0	5.0	100_smiling	0.0		246.86521840317437	
35.0	212.10204594787137	pulse	1.0	t		19.0	female	white	4.298846000795861	smiling	100	sub-10	2.0	5.0	100_smiling	0.0		247.5652027972319	
36.0	212.26859363307813	face	0.0		146	34.0	male	white	2.651014723438122	neutral	121	sub-10	2.0	5.0	121_neutral	0.0		247.73175048243866	1.233326622073946
36.0	212.8020336623449	pulse	0.0	t		34.0	male	white	2.651014723438122	neutral	121	sub-10	2.0	5.0	121_neutral	0.0		248.26519051170544	
36.0	213.50192025515207	fix	1.0		444	34.0	male	white	2.651014723438122	neutral	121	sub-10	2.0	5.0	121_neutral	0.0		248.9650771045126	3.766584028631769
36.0	213.50947057223675	pulse	1.0	t		34.0	male	white	2.651014723438122	neutral	121	sub-10	2.0	5.0	121_neutral	0.0		248.97262742159728	
36.0	214.2020187506714	pulse	1.0	t		34.0	male	white	2.651014723438122	neutral	121	sub-10	2.0	5.0	121_neutral	0.0		249.66517560003194	
36.0	214.90200495586396	pulse	1.0	t		34.0	male	white	2.651014723438122	neutral	121	sub-10	2.0	5.0	121_neutral	0.0		250.3651618052245	
36.0	215.60199478332652	pulse	1.0	t		34.0	male	white	2.651014723438122	neutral	121	sub-10	2.0	5.0	121_neutral	0.0		251.06515163268705	
36.0	216.30196438645726	pulse	1.0	t		34.0	male	white	2.651014723438122	neutral	121	sub-10	2.0	5.0	121_neutral	0.0		251.7651212358178	
36.0	217.00195813804385	pulse	1.0	t		34.0	male	white	2.651014723438122	neutral	121	sub-10	2.0	5.0	121_neutral	0.0		252.46511498740438	
37.0	217.26850428378384	face	0.0		145	40.0	male	white	1.868682849184242	neutral	172	sub-10	2.0	5.0	172_neutral	0.0		252.73166113314437	1.2333257165082614
37.0	217.70195732303182	pulse	0.0	t		40.0	male	white	1.868682849184242	neutral	172	sub-10	2.0	5.0	172_neutral	0.0		253.16511417239235	
37.0	218.40224176167612	pulse	0.0	t		40.0	male	white	1.868682849184242	neutral	172	sub-10	2.0	5.0	172_neutral	0.0		253.86539861103665	
37.0	218.5018300002921	fix	1.0		444	40.0	male	white	1.868682849184242	neutral	172	sub-10	2.0	5.0	172_neutral	0.0		253.96498684965263	3.7665837267777533
37.0	219.10193395940223	pulse	1.0	t		40.0	male	white	1.868682849184242	neutral	172	sub-10	2.0	5.0	172_neutral	0.0		254.56509080876276	
37.0	219.80191110892338	pulse	1.0	t		40.0	male	white	1.868682849184242	neutral	172	sub-10	2.0	5.0	172_neutral	0.0		255.2650679582839	
37.0	220.5019060679333	pulse	1.0	t		40.0	male	white	1.868682849184242	neutral	172	sub-10	2.0	5.0	172_neutral	0.0		255.96506291729384	
37.0	221.20187325621373	pulse	1.0	t		40.0	male	white	1.868682849184242	neutral	172	sub-10	2.0	5.0	172_neutral	0.0		256.66503010557426	
37.0	221.9018956840955	pulse	1.0	t		40.0	male	white	1.868682849184242	neutral	172	sub-10	2.0	5.0	172_neutral	0.0		257.36505253345604	
38.0	222.26841372706986	face	0.0		145	28.0	female	white	5.676880222841227	smiling	124	sub-10	2.0	5.0	124_smiling	0.0		257.7315705764304	1.2333272257856152
38.0	222.60186619279193	pulse	0.0	t		28.0	female	white	5.676880222841227	smiling	124	sub-10	2.0	5.0	124_smiling	0.0		258.06502304215246	
38.0	223.30185088870712	pulse	0.0	t		28.0	female	white	5.676880222841227	smiling	124	sub-10	2.0	5.0	124_smiling	0.0		258.76500773806765	
38.0	223.50174095285547	fix	1.0		444	28.0	female	white	5.676880222841227	smiling	124	sub-10	2.0	5.0	124_smiling	0.0		258.964897802216	3.766585236055107
38.0	224.0018491681294	pulse	1.0	t		28.0	female	white	5.676880222841227	smiling	124	sub-10	2.0	5.0	124_smiling	0.0		259.46500601748994	
38.0	224.70182631765056	pulse	1.0	t		28.0	female	white	5.676880222841227	smiling	124	sub-10	2.0	5.0	124_smiling	0.0		260.1649831670111	
38.0	225.40181191913507	pulse	1.0	t		28.0	female	white	5.676880222841227	smiling	124	sub-10	2.0	5.0	124_smiling	0.0		260.8649687684956	
38.0	226.10180325587498	pulse	1.0	t		28.0	female	white	5.676880222841227	smiling	124	sub-10	2.0	5.0	124_smiling	0.0		261.5649601052355	
38.0	226.80178432952016	pulse	1.0	t		28.0	female	white	5.676880222841227	smiling	124	sub-10	2.0	5.0	124_smiling	0.0		262.2649411788807	
39.0	227.26832618891058	face	0.0		145	31.0	female	west_asian	2.364902506963788	smiling	006	sub-10	2.0	5.0	006_smiling	0.0		262.7314830382711	1.2333157552675402
39.0	227.5017629883223	pulse	0.0	t		31.0	female	west_asian	2.364902506963788	smiling	006	sub-10	2.0	5.0	006_smiling	0.0		262.9649198376828	
39.0	228.20176489001096	pulse	0.0	t		31.0	female	west_asian	2.364902506963788	smiling	006	sub-10	2.0	5.0	006_smiling	0.0		263.6649217393715	
39.0	228.50164194417812	fix	1.0		444	31.0	female	west_asian	2.364902506963788	smiling	006	sub-10	2.0	5.0	006_smiling	0.0		263.96479879353865	3.749945137722534
39.0	228.90174596365978	pulse	1.0	t		31.0	female	west_asian	2.364902506963788	smiling	006	sub-10	2.0	5.0	006_smiling	0.0		264.3649028130203	
39.0	229.60172462245828	pulse	1.0	t		31.0	female	west_asian	2.364902506963788	smiling	006	sub-10	2.0	5.0	006_smiling	0.0		265.0648814718188	
39.0	230.30173135384393	pulse	1.0	t		31.0	female	west_asian	2.364902506963788	smiling	006	sub-10	2.0	5.0	006_smiling	0.0		265.76488820320446	
39.0	231.0017103145001	pulse	1.0	t		31.0	female	west_asian	2.364902506963788	smiling	006	sub-10	2.0	5.0	006_smiling	0.0		266.4648671638606	
39.0	231.7016880677329	pulse	1.0	t		31.0	female	west_asian	2.364902506963788	smiling	006	sub-10	2.0	5.0	006_smiling	0.0		267.16484491709343	
40.0	232.25158708190065	fix	0.0		720													267.7147439312612	5.999884992972511
40.0	232.40169479911492	pulse	0.0	t														267.86485164847545	
40.0	233.10167708018344	pulse	0.0	t														268.56483392954397	
40.0	233.80165302228488	pulse	0.0	t														269.2648098716454	
40.0	234.50171680439598	pulse	0.0	t														269.9648736537565	
40.0	235.20164414772444	pulse	0.0	t														270.66480099708497	
40.0	235.90163246590964	pulse	0.0	t														271.3647893152702	
40.0	236.60161685996718	pulse	0.0	t														272.0647737093277	
40.0	237.3016069892874	pulse	0.0	t														272.7647638386479	
40.0	238.00167620480352	pulse	0.0	t														273.46483305416405	
