trial_nr	onset	event_type	phase	response	nr_frames	trial_type	stim_name	task_probe	onset_abs	duration
0.0	0.05771084268235427	baseline	0.0		41.0		baseline	0.0	97.78269688948603	0.3496929089387777
0.0	0.40740375162113196	ISI	1.0		11.0		baseline	0.0	98.13238979842481	0.09999302717551473
1.0	0.5073967787966467	baseline	0.0		48.0		baseline	0.0	98.23238282560033	0.40001436824513803
1.0	0.7075295341401215	pulse	0.0	t			baseline	0.0	98.4325155809438	
1.0	0.9074111470417847	ISI	1.0		11.0		baseline	0.0	98.63239719384546	0.09999000863626861
2.0	1.0074011556780533	baseline	0.0		48.0		baseline	0.0	98.73238720248173	0.399969995722131
2.0	1.4073711514001843	ISI	1.0		11.0		baseline	0.0	99.13235719820386	0.09997702891905647
2.0	1.4119617454516629	pulse	1.0	t			baseline	0.0	99.13694779225534	
3.0	1.5073481803192408	baseline	0.0		48.0		baseline	0.0	99.23233422712292	0.4000176886383997
3.0	1.9073658689576405	ISI	1.0		11.0		baseline	0.0	99.63235191576132	0.0999963475678669
4.0	2.0073622165255074	baseline	0.0		48.0		baseline	0.0	99.73234826332919	0.39998901251783536
4.0	2.1074645148109994	pulse	0.0	t			baseline	0.0	99.83245056161468	
4.0	2.4073512290433428	ISI	1.0		11.0		baseline	0.0	100.13233727584702	0.09999846054506634
5.0	2.507349689588409	baseline	0.0		48.0		baseline	0.0	100.23233573639209	0.3999754290935016
5.0	2.8074498145260804	pulse	0.0	t			baseline	0.0	100.53243586132976	
5.0	2.9073251186819107	ISI	1.0		11.0		baseline	0.0	100.63231116548559	0.09999815869105078
6.0	3.0073232773729615	baseline	0.0		48.0		baseline	0.0	100.73230932417664	0.40000319965110975
6.0	3.407326477024071	ISI	1.0		11.0		baseline	0.0	101.13231252382775	0.09999936610711302
7.0	3.5073258431311842	baseline	0.0		47.0		baseline	0.0	101.23231188993486	0.39997724021577596
7.0	3.5115170844774184	pulse	0.0	t			baseline	0.0	101.2365031312811	
7.0	3.90730308334696	ISI	1.0		11.0		baseline	0.0	101.63228913015064	0.09999031049028417
8.0	4.007293393837244	baseline	0.0		48.0		baseline	0.0	101.73227944064092	0.3999950495954181
8.0	4.207400491599401	pulse	0.0	t			baseline	0.0	101.93238653840308	
8.0	4.4072884434326625	ISI	1.0		11.0		baseline	0.0	102.13227449023634	0.10000449762355856
9.0	4.507292941056221	baseline	0.0		48.0		baseline	0.0	102.2322789878599	0.4000122552679386
9.0	4.90730519632416	ISI	1.0		11.0		baseline	0.0	102.63229124312784	0.10000178093832801
9.0	4.911841758528681	pulse	1.0	t			baseline	0.0	102.63682780533236	
10.0	5.007306977262488	baseline	0.0		48.0		baseline	0.0	102.73229302406617	0.39995279005052
10.0	5.407259767313008	ISI	1.0		11.0		baseline	0.0	103.13224581411669	0.1000026864994652
11.0	5.507262453812473	baseline	0.0		48.0		baseline	0.0	103.23224850061615	0.3999893143718509
11.0	5.60737682625404	pulse	0.0	t			baseline	0.0	103.33236287305772	
11.0	5.907251768184324	ISI	1.0		5.0		baseline	0.0	103.632237814988	0.12505112650433148
12.0	6.032302894688655	car	0.0		45.0	object	car-71.jpg	0.0	103.75728894149233	0.3748934833065505
12.0	6.307332846141435	pulse	0.0	t		object	car-71.jpg	0.0	104.03231889294511	
12.0	6.407196377995206	ISI	1.0		7.0	object	car-71.jpg	0.0	104.13218242479888	0.11668313279642462
13.0	6.52387951079163	car	0.0		46.0	object	car-120.jpg	0.0	104.24886555759531	0.3833040384124615
13.0	6.907183549204092	ISI	1.0		6.0	object	car-120.jpg	0.0	104.63216959600777	0.11669460324446845
14.0	7.02387815244856	car	0.0		45.0	object	car-23.jpg	0.0	104.74886419925224	0.3832964920657105
14.0	7.0155865277774865	pulse	0.0	t		object	car-23.jpg	0.0	104.74057257458117	
14.0	7.407174644514271	ISI	1.0		6.0	object	car-23.jpg	0.0	105.13216069131795	0.11668615133567073
15.0	7.5238607958499415	car	0.0		46.0	object	car-103.jpg	0.0	105.24884684265362	0.38328985127918713
15.0	7.707284730629908	pulse	0.0	t		object	car-103.jpg	0.0	105.43227077743359	
15.0	7.907150647129129	ISI	1.0		7.0	object	car-103.jpg	0.0	105.63213669393281	0.11671331818706676
16.0	8.023863965316195	car	0.0		46.0	object	car-100.jpg	0.0	105.74885001211987	0.3832986050420004
16.0	8.407162570358196	ISI	1.0		8.0	object	car-100.jpg	0.0	106.13214861716187	0.11666954937118135
16.0	8.438939333706003	pulse	1.0	t		object	car-100.jpg	0.0	106.16392538050968	
17.0	8.523832119729377	car	0.0		46.0	object	car-84.jpg	0.0	106.24881816653306	0.3833028309973088
17.0	8.907134950726686	ISI	1.0		5.0	object	car-84.jpg	0.0	106.63212099753036	0.1167075829625901
18.0	9.023842533689276	car	0.0		46.0	object	car-135.jpg	0.0	106.74882858049295	0.38328502161675715
18.0	9.107287628427912	pulse	0.0	t		object	car-135.jpg	0.0	106.83227367523159	
18.0	9.407127555306033	ISI	1.0		8.0	object	car-135.jpg	0.0	107.13211360210971	0.11670245144614455
19.0	9.523830006752178	car	0.0		46.0	object	car-70.jpg	0.0	107.24881605355586	0.38328562532569777
19.0	9.807241837191214	pulse	0.0	t		object	car-70.jpg	0.0	107.53222788399489	
19.0	9.907115632077875	ISI	1.0		7.0	object	car-70.jpg	0.0	107.63210167888155	0.11668071796520962
20.0	10.023796350043085	car	0.0		46.0	object	car-68.jpg	0.0	107.74878239684676	0.38330313285132434
20.0	10.40709948289441	ISI	1.0		7.0	object	car-68.jpg	0.0	108.13208552969809	0.11668071796520962
21.0	10.523780200859619	car	0.0		45.0	object	car-89.jpg	0.0	108.2487662476633	0.38330916992890707
21.0	10.517146961493381	pulse	0.0	t		object	car-89.jpg	0.0	108.24213300829706	
21.0	10.907089370788526	ISI	1.0		7.0	object	car-89.jpg	0.0	108.6320754175922	0.11670184773811343
22.0	11.02379121852664	car	0.0		46.0	object	car-37.jpg	0.0	108.74877726533032	0.38327958824720554
22.0	11.207197042072949	pulse	0.0	t		object	car-37.jpg	0.0	108.93218308887663	
22.0	11.407070806773845	ISI	1.0		7.0	object	car-37.jpg	0.0	109.13205685357752	0.11670879037774284
23.0	11.523779597151588	car	0.0		46.0	object	car-98.jpg	0.0	109.24876564395527	0.38328894571804994
23.0	11.907068542869638	ISI	1.0		11.0	object	car-98.jpg	0.0	109.63205458967332	0.09999514015271416
23.0	11.911390788807694	pulse	1.0	t		object	car-98.jpg	0.0	109.63637683561137	
24.0	12.007063683022352	baseline	0.0		48.0		baseline	0.0	109.73204972982603	0.4000614574533756
24.0	12.407125140475728	ISI	1.0		11.0		baseline	0.0	110.1321111872794	0.09999785683703521
25.0	12.507122997312763	baseline	0.0		48.0		baseline	0.0	110.23210904411644	0.4000038033591409
25.0	12.607270875536415	pulse	0.0	t			baseline	0.0	110.3322569223401	
25.0	12.907126800671904	ISI	1.0		11.0		baseline	0.0	110.63211284747558	0.09999664942188247
26.0	13.007123450093786	baseline	0.0		48.0		baseline	0.0	110.73210949689746	0.3999799569010065
26.0	13.307223876884564	pulse	0.0	t			baseline	0.0	111.03220992368824	
26.0	13.407103406994793	ISI	1.0		11.0		baseline	0.0	111.13208945379847	0.09999000863626861
27.0	13.507093415631061	baseline	0.0		48.0		baseline	0.0	111.23207946243474	0.4000077274595242
27.0	13.907101143090586	ISI	1.0		11.0		baseline	0.0	111.63208718989426	0.09999725312991359
28.0	14.0070983962205	baseline	0.0		47.0		baseline	0.0	111.73208444302418	0.3999657697677321
28.0	14.011317408125251	pulse	0.0	t			baseline	0.0	111.73630345492893	
28.0	14.407064165988231	ISI	1.0		11.0		baseline	0.0	112.13205021279191	0.10000721430787962
29.0	14.50707138029611	baseline	0.0		48.0		baseline	0.0	112.23205742709979	0.3999950495963276
29.0	14.707183307720697	pulse	0.0	t			baseline	0.0	112.43216935452438	
29.0	14.907066429892438	ISI	1.0		11.0		baseline	0.0	112.63205247669612	0.10000087537628133
30.0	15.00706730526872	baseline	0.0		48.0		baseline	0.0	112.7320533520724	0.3999881069566982
30.0	15.407055412225418	ISI	1.0		11.0		baseline	0.0	113.1320414590291	0.09999664942188247
30.0	15.411593785553123	pulse	1.0	t			baseline	0.0	113.1365798323568	
31.0	15.5070520616473	baseline	0.0		48.0		baseline	0.0	113.23203810845098	0.40000229408906307
31.0	15.907054355736364	ISI	1.0		11.0		baseline	0.0	113.63204040254004	0.09999453644468304
32.0	16.007048892181047	baseline	0.0		48.0		baseline	0.0	113.73203493898473	0.3999847865634365
32.0	16.107198883381898	pulse	0.0	t			baseline	0.0	113.83218493018558	
32.0	16.407033678744483	ISI	1.0		11.0		baseline	0.0	114.13201972554816	0.10000721430878912
33.0	16.507040893053272	baseline	0.0		48.0		baseline	0.0	114.23202693985695	0.3999760328006232
33.0	16.807136188327604	pulse	0.0	t			baseline	0.0	114.53212223513128	
33.0	16.907016925853895	ISI	1.0		11.0		baseline	0.0	114.63200297265757	0.09999695127498853
34.0	17.007013877128884	baseline	0.0		48.0		baseline	0.0	114.73199992393256	0.39997814577782265
34.0	17.406992022906707	ISI	1.0		11.0		baseline	0.0	115.13197806971039	0.10001355324038741
35.0	17.507005576147094	baseline	0.0		47.0		baseline	0.0	115.23199162295077	0.39998689954063593
35.0	17.51098884015937	pulse	0.0	t			baseline	0.0	115.23597488696305	
35.0	17.90699247568773	ISI	1.0		4.0		baseline	0.0	115.63197852249141	0.12500524471124663
36.0	18.031997720398977	body	0.0		45.0	body	body-62.jpg	0.0	115.75698376720266	0.3749529485239691
36.0	18.207079922761295	pulse	0.0	t		body	body-62.jpg	0.0	115.93206596956497	
36.0	18.406950668922946	ISI	1.0		6.0	body	body-62.jpg	0.0	116.13193671572662	0.1250369393710571
37.0	18.531987608294003	body	0.0		45.0	body	body-106.jpg	0.0	116.25697365509768	0.37494781700752355
37.0	18.906935425301526	ISI	1.0		7.0	body	body-106.jpg	0.0	116.6319214721052	0.11670094217697624
37.0	18.943313045732793	pulse	1.0	t		body	body-106.jpg	0.0	116.66829909253647	
38.0	19.023636367478503	body	0.0		46.0	body	body-129.jpg	0.0	116.74862241428218	0.38325755291225505
38.0	19.406893920390758	ISI	1.0		7.0	body	body-129.jpg	0.0	117.13187996719444	0.11669369768333127
39.0	19.52358761807409	body	0.0		46.0	body	body-15.jpg	0.0	117.24857366487777	0.3833043402664771
39.0	19.607034222081893	pulse	0.0	t		body	body-15.jpg	0.0	117.33202026888557	
39.0	19.906891958340566	ISI	1.0		5.0	body	body-15.jpg	0.0	117.63187800514424	0.11668735875082348
40.0	20.02357931709139	body	0.0		46.0	body	body-93.jpg	0.0	117.74856536389507	0.3832883420109283
40.0	20.30699416606967	pulse	0.0	t		body	body-93.jpg	0.0	118.03198021287335	
40.0	20.406867659102318	ISI	1.0		7.0	body	body-93.jpg	0.0	118.131853705906	0.11668192538036237
41.0	20.52354958448268	body	0.0		46.0	body	body-99.jpg	0.0	118.24853563128636	0.38331249032216874
41.0	20.90686207480485	ISI	1.0		8.0	body	body-99.jpg	0.0	118.63184812160853	0.11669701807568345
42.0	21.023559092880532	body	0.0		45.0	body	body-131.jpg	0.0	118.74854513968421	0.3832989068969255
42.0	21.015344440953413	pulse	0.0	t		body	body-131.jpg	0.0	118.74033048775709	
42.0	21.406857999777458	ISI	1.0		7.0	body	body-131.jpg	0.0	119.13184404658114	0.11668343465044018
43.0	21.523541434427898	body	0.0		46.0	body	body-97.jpg	0.0	119.24852748123158	0.38330856622087595
43.0	21.706961143253466	pulse	0.0	t		body	body-97.jpg	0.0	119.43194719005714	
43.0	21.906850000648774	ISI	1.0		6.0	body	body-97.jpg	0.0	119.63183604745245	0.11666924751807528
44.0	22.02351924816685	body	0.0		46.0	body	body-122.jpg	0.0	119.74850529497053	0.38334539239622245
44.0	22.40686464056307	ISI	1.0		7.0	body	body-122.jpg	0.0	120.13185068736675	0.11663634544311208
44.0	22.440782755449618	pulse	1.0	t		body	body-122.jpg	0.0	120.1657688022533	
45.0	22.523500986006184	body	0.0		46.0	body	body-122.jpg	1.0	120.24848703280986	0.3833146032984587
45.0	22.906815589304642	ISI	1.0		5.0	body	body-122.jpg	1.0	120.63180163610832	0.11669067914408515
46.0	23.023506268448727	body	0.0		46.0	body	body-73.jpg	0.0	120.7484923152524	0.38329347352646437
46.0	23.04860059024486	response	0.0	b		body	body-73.jpg	0.0	120.77358663704854	
46.0	23.106931742684537	pulse	0.0	t		body	body-73.jpg	0.0	120.83191778948822	
46.0	23.406799741975192	ISI	1.0		7.0	body	body-73.jpg	0.0	121.13178578877887	0.11667890684202575
47.0	23.523478648817218	body	0.0		46.0	body	body-95.jpg	0.0	121.2484646956209	0.3833079625137543
47.0	23.806953868574965	pulse	0.0	t		body	body-95.jpg	0.0	121.53193991537864	
47.0	23.906786611330972	ISI	1.0		6.0	body	body-95.jpg	0.0	121.63177265813465	0.11669762178371457
48.0	24.023484233114687	word	0.0		46.0	character	word-2.jpg	0.0	121.74847027991837	0.38328592717880383
48.0	24.40677016029349	ISI	1.0		8.0	character	word-2.jpg	0.0	122.13175620709717	0.11669098099810071
49.0	24.52346114129159	word	0.0		45.0	character	word-2.jpg	1.0	122.24844718809527	0.38330766065973876
49.0	24.51817628327899	pulse	0.0	t		character	word-2.jpg	1.0	122.24316233008267	
49.0	24.90676880195133	ISI	1.0		5.0	character	word-2.jpg	1.0	122.63175484875501	0.11667649201081076
49.0	24.958359255037067	response	1.0	b		character	word-2.jpg	1.0	122.68334530184075	
50.0	25.02344529396214	word	0.0		46.0	character	word-74.jpg	0.0	122.74843134076582	0.38334297756500746
50.0	25.206896093738578	pulse	0.0	t		character	word-74.jpg	0.0	122.93188214054226	
50.0	25.406788271527148	ISI	1.0		4.0	character	word-74.jpg	0.0	123.13177431833083	0.11669430139136239
51.0	25.52348257291851	word	0.0		46.0	character	word-121.jpg	0.0	123.24846861972219	0.3832647974059
51.0	25.90674737032441	ISI	1.0		7.0	character	word-121.jpg	0.0	123.63173341712809	0.11668584948165517
51.0	25.94429075050266	pulse	1.0	t		character	word-121.jpg	0.0	123.66927679730634	
52.0	26.023433219806066	word	0.0		46.0	character	word-27.jpg	0.0	123.74841926660974	0.38329437908851105
52.0	26.406727598894577	ISI	1.0		7.0	character	word-27.jpg	0.0	124.13171364569826	0.11668373650445574
53.0	26.523411335399032	word	0.0		46.0	character	word-132.jpg	0.0	124.24839738220271	0.38328894571714045
53.0	26.606840130026285	pulse	0.0	t		character	word-132.jpg	0.0	124.33182617682996	
53.0	26.906700281116173	ISI	1.0		7.0	character	word-132.jpg	0.0	124.63168632791985	0.11673233498186164
54.0	27.023432616098034	word	0.0		46.0	character	word-113.jpg	0.0	124.74841866290171	0.3832729474615917
54.0	27.306821203786967	pulse	0.0	t		character	word-113.jpg	0.0	125.03180725059065	
54.0	27.406705563559626	ISI	1.0		6.0	character	word-113.jpg	0.0	125.1316916103633	0.1166933958293157
55.0	27.523398959388942	word	0.0		46.0	character	word-45.jpg	0.0	125.24838500619262	0.38328954942608107
55.0	27.906688508815023	ISI	1.0		7.0	character	word-45.jpg	0.0	125.6316745556187	0.11668041611119406
56.0	28.023368924926217	word	0.0		45.0	character	word-68.jpg	0.0	125.7483549717299	0.38330766065973876
56.0	28.016590191981777	pulse	0.0	t		character	word-68.jpg	0.0	125.74157623878546	
56.0	28.406676585585956	ISI	1.0		7.0	character	word-68.jpg	0.0	126.13166263238963	0.116699734760914
57.0	28.52337632034687	word	0.0		46.0	character	word-139.jpg	0.0	126.24836236715055	0.38329286981843325
57.0	28.7068014625429	pulse	0.0	t		character	word-139.jpg	0.0	126.43178750934658	
57.0	28.906669190165303	ISI	1.0		7.0	character	word-139.jpg	0.0	126.63165523696898	0.11669792363773013
58.0	29.023367113803033	word	0.0		46.0	character	word-34.jpg	0.0	126.74835316060671	0.3833028309973088
58.0	29.406669944800342	ISI	1.0		7.0	character	word-34.jpg	0.0	127.13165599160402	0.11668434021157736
58.0	29.444547175387015	pulse	1.0	t		character	word-34.jpg	0.0	127.1695332221907	
59.0	29.52335428501192	word	0.0		46.0	character	word-108.jpg	0.0	127.2483403318156	0.3832922661113116
59.0	29.90664655112323	ISI	1.0		7.0	character	word-108.jpg	0.0	127.63163259792691	0.11669822549174569
60.0	30.023344776614977	adult	0.0		46.0	face	adult-55.jpg	0.0	127.74833082341866	0.38328411605561996
60.0	30.106769647141846	pulse	0.0	t		face	adult-55.jpg	0.0	127.83175569394552	
60.0	30.406628892670597	ISI	1.0		5.0	face	adult-55.jpg	0.0	128.13161493947428	0.11668947172802291
61.0	30.52331836439862	adult	0.0		46.0	face	adult-63.jpg	0.0	128.2483044112023	0.3833143014453526
61.0	30.806752532025712	pulse	0.0	t		face	adult-63.jpg	0.0	128.5317385788294	
61.0	30.906632665843972	ISI	1.0		5.0	face	adult-63.jpg	0.0	128.63161871264765	0.11668705689680792
62.0	31.02331972274078	adult	0.0		46.0	face	adult-58.jpg	0.0	128.74830576954446	0.38329739762775716
62.0	31.406617120368537	ISI	1.0		8.0	face	adult-58.jpg	0.0	129.13160316717222	0.11668615133567073
63.0	31.523303271704208	adult	0.0		45.0	face	adult-50.jpg	0.0	129.2482893185079	0.3833342238021942
63.0	31.51553174129549	pulse	0.0	t		face	adult-50.jpg	0.0	129.24051778809917	
63.0	31.906637495506402	ISI	1.0		7.0	face	adult-50.jpg	0.0	129.63162354231008	0.11667317161754909
64.0	32.02331066712395	adult	0.0		46.0	face	adult-82.jpg	0.0	129.74829671392763	0.3832877383028972
64.0	32.20671498140109	pulse	0.0	t		face	adult-82.jpg	0.0	129.93170102820477	
64.0	32.40659840542685	ISI	1.0		6.0	face	adult-82.jpg	0.0	130.13158445223053	0.1166659271248136
65.0	32.52326433255166	adult	0.0		46.0	face	adult-4.jpg	0.0	130.24825037935534	0.38331701812967367
65.0	32.906581350681336	ISI	1.0		6.0	face	adult-4.jpg	0.0	130.63156739748501	0.11668494392051798
65.0	32.951506869741934	pulse	1.0	t		face	adult-4.jpg	0.0	130.6764929165456	
66.0	33.023266294601854	adult	0.0		46.0	face	adult-126.jpg	0.0	130.74825234140553	0.383291662402371
66.0	33.406557957004225	ISI	1.0		7.0	face	adult-126.jpg	0.0	131.1315440038079	0.11670064032296068
67.0	33.523258597327185	adult	0.0		46.0	face	adult-114.jpg	0.0	131.24824464413086	0.3832970957728321
67.0	33.606678638192534	pulse	0.0	t		face	adult-114.jpg	0.0	131.3316646849962	
67.0	33.90655569310002	ISI	1.0		6.0	face	adult-114.jpg	0.0	131.6315417399037	0.11669822549174569
68.0	34.02325391859176	adult	0.0		46.0	face	adult-18.jpg	0.0	131.74823996539544	0.3833004161660938
68.0	34.30666967313118	pulse	0.0	t		face	adult-18.jpg	0.0	132.03165571993486	
68.0	34.40655433475786	ISI	1.0		7.0	face	adult-18.jpg	0.0	132.13154038156154	0.11668041611119406
69.0	34.52323475086905	adult	0.0		46.0	face	adult-18.jpg	1.0	132.24822079767273	0.3832883420109283
69.0	34.90652309287998	ISI	1.0		5.0	face	adult-18.jpg	1.0	132.63150913968366	0.11669490509848401
70.0	35.02321799797846	adult	0.0		45.0	face	adult-110.jpg	0.0	132.74820404478214	0.38328804015600326
70.0	35.01509148738842	pulse	0.0	t		face	adult-110.jpg	0.0	132.7400775341921	
70.0	35.12334263345201	response	0.0	b		face	adult-110.jpg	0.0	132.8483286802557	
70.0	35.40650603813447	ISI	1.0		4.0	face	adult-110.jpg	0.0	133.13149208493815	0.11670577183849673
71.0	35.52321180997296	adult	0.0		46.0	face	adult-15.jpg	0.0	133.24819785677664	0.3832892475720655
71.0	35.70663483919179	pulse	0.0	t		face	adult-15.jpg	0.0	133.43162088599547	
71.0	35.90650105754503	ISI	1.0		7.0	face	adult-15.jpg	0.0	133.6314871043487	0.11670094217697624
72.0	36.023201999722005	adult	0.0		46.0	face	adult-66.jpg	0.0	133.74818804652568	0.3833043402664771
72.0	36.40650633998848	ISI	1.0		7.0	face	adult-66.jpg	0.0	134.13149238679216	0.11668313279642462
72.0	36.44360237269211	pulse	1.0	t		face	adult-66.jpg	0.0	134.1685884194958	
73.0	36.52318947278491	adult	0.0		46.0	face	adult-9.jpg	0.0	134.24817551958859	0.38328743644888164
73.0	36.90647690923379	ISI	1.0		7.0	face	adult-9.jpg	0.0	134.63146295603747	0.11670245144614455
74.0	37.02317936067993	adult	0.0		46.0	face	adult-128.jpg	0.0	134.7481654074836	0.3832862290328194
74.0	37.106600608960434	pulse	0.0	t		face	adult-128.jpg	0.0	134.8315866557641	
74.0	37.40646558971275	ISI	1.0		7.0	face	adult-128.jpg	0.0	135.13145163651643	0.1166864531887768
75.0	37.52315204290153	adult	0.0		46.0	face	adult-14.jpg	0.0	135.2481380897052	0.3833049439745082
75.0	37.80658470125945	pulse	0.0	t		face	adult-14.jpg	0.0	135.53157074806313	
75.0	37.90645698687604	ISI	1.0		6.0	face	adult-14.jpg	0.0	135.63144303367972	0.11668615133567073
76.0	38.02314313821171	adult	0.0		46.0	face	adult-88.jpg	0.0	135.7481291850154	0.38333603492628754
76.0	38.406479173137996	ISI	1.0		7.0	face	adult-88.jpg	0.0	136.13146521994167	0.11668916987400735
77.0	38.523168343012	adult	0.0		45.0	face	adult-79.jpg	0.0	136.24815438981568	0.38330916992890707
77.0	38.51506024550963	pulse	0.0	t		face	adult-79.jpg	0.0	136.2400462923133	
77.0	38.90647751294091	ISI	1.0		7.0	face	adult-79.jpg	0.0	136.6314635597446	0.11668645318968629
78.0	39.023163966130596	adult	0.0		46.0	face	adult-24.jpg	0.0	136.74815001293427	0.383254836227934
78.0	39.20657220450812	pulse	0.0	t		face	adult-24.jpg	0.0	136.9315582513118	
78.0	39.40641880235853	ISI	1.0		6.0	face	adult-24.jpg	0.0	137.1314048491622	0.11670003661492956
79.0	39.52311883897346	adult	0.0		46.0	face	adult-49.jpg	0.0	137.24810488577714	0.3832931716724488
79.0	39.90641201064591	ISI	1.0		7.0	face	adult-49.jpg	0.0	137.6313980574496	0.1166958106605307
79.0	39.9399410358601	pulse	1.0	t		face	adult-49.jpg	0.0	137.66492708266378	
80.0	40.02310782130644	adult	0.0		46.0	face	adult-53.jpg	0.0	137.74809386811012	0.38328260678554216
80.0	40.40639042809198	ISI	1.0		7.0	face	adult-53.jpg	0.0	138.13137647489566	0.11670033846894512
81.0	40.52309076656093	adult	0.0		46.0	face	adult-81.jpg	0.0	138.2480768133646	0.38329830318889435
81.0	40.60652861680592	pulse	0.0	t		face	adult-81.jpg	0.0	138.3315146636096	
81.0	40.90638906974982	ISI	1.0		8.0	face	adult-81.jpg	0.0	138.6313751165535	0.11669550880651514
82.0	41.023084578556336	adult	0.0		46.0	face	adult-115.jpg	0.0	138.74807062536001	0.3832853234707727
82.0	41.30648916450173	pulse	0.0	t		face	adult-115.jpg	0.0	139.0314752113054	
82.0	41.40636990202711	ISI	1.0		7.0	face	adult-115.jpg	0.0	139.1313559488308	0.11670214959212899
83.0	41.52307205161924	adult	0.0		46.0	face	adult-136.jpg	0.0	139.24805809842292	0.38329196425729606
83.0	41.906364015876534	ISI	1.0		7.0	face	adult-136.jpg	0.0	139.6313500626802	0.11669007543605403
84.0	42.02305409131259	body	0.0		45.0	body	body-121.jpg	0.0	139.74804013811627	0.38330856622087595
84.0	42.01491097875805	pulse	0.0	t		body	body-121.jpg	0.0	139.73989702556173	
84.0	42.406362657533464	ISI	1.0		5.0	body	body-121.jpg	0.0	140.13134870433714	0.11668615133567073
85.0	42.523048808869135	body	0.0		46.0	body	body-51.jpg	0.0	140.2480348556728	0.3832853234716822
85.0	42.70645674539355	pulse	0.0	t		body	body-51.jpg	0.0	140.43144279219723	
85.0	42.90633413234082	ISI	1.0		7.0	body	body-51.jpg	0.0	140.6313201791445	0.11668132167324075
86.0	43.02301545401406	body	0.0		46.0	body	body-102.jpg	0.0	140.74800150081774	0.383323658916197
86.0	43.406339112930254	ISI	1.0		7.0	body	body-102.jpg	0.0	141.13132515973393	0.11667256791042746
86.0	43.44627740191936	pulse	1.0	t		body	body-102.jpg	0.0	141.17126344872304	
87.0	43.52301168084068	body	0.0		46.0	body	body-79.jpg	0.0	141.24799772764436	0.3833049439735987
87.0	43.90631662481428	ISI	1.0		6.0	body	body-79.jpg	0.0	141.63130267161796	0.11667981240407244
88.0	44.02299643721835	body	0.0		46.0	body	body-5.jpg	0.0	141.74798248402203	0.38331943296179816
88.0	44.1064354948785	pulse	0.0	t		body	body-5.jpg	0.0	141.83142154168218	
88.0	44.40631587018015	ISI	1.0		7.0	body	body-5.jpg	0.0	142.13130191698383	0.11668645318968629
89.0	44.52300232336984	body	0.0		46.0	body	body-107.jpg	0.0	142.24798837017352	0.3832922661104021
89.0	44.80640600375318	pulse	0.0	t		body	body-107.jpg	0.0	142.53139205055686	
89.0	44.90629458948024	ISI	1.0		6.0	body	body-107.jpg	0.0	142.63128063628392	0.11669490509848401
90.0	45.022989494578724	body	0.0		46.0	body	body-45.jpg	0.0	142.7479755413824	0.38332335706218146
90.0	45.406312851640905	ISI	1.0		7.0	body	body-45.jpg	0.0	143.13129889844458	0.11669369768333127
91.0	45.523006549324236	body	0.0		45.0	body	body-139.jpg	0.0	143.24799259612792	0.38328894571804994
91.0	45.51484200514278	pulse	0.0	t		body	body-139.jpg	0.0	143.23982805194646	
91.0	45.906295495042286	ISI	1.0		4.0	body	body-139.jpg	0.0	143.63128154184596	0.12502305409088876
92.0	46.031318549133175	body	0.0		45.0	body	body-78.jpg	0.0	143.75630459593685	0.3749617022867824
92.0	46.20640648671997	pulse	0.0	t		body	body-78.jpg	0.0	143.93139253352365	
92.0	46.40628025141996	ISI	1.0		6.0	body	body-78.jpg	0.0	144.13126629822364	0.11669852734576125
93.0	46.52297877876572	body	0.0		46.0	body	body-31.jpg	0.0	144.2479648255694	0.383276871561975
93.0	46.906255650327694	ISI	1.0		7.0	body	body-31.jpg	0.0	144.63124169713137	0.11668826431287016
93.0	46.93919847527559	pulse	1.0	t		body	body-31.jpg	0.0	144.66418452207927	
94.0	47.022943914640564	body	0.0		46.0	body	body-31.jpg	1.0	144.74792996144424	0.38330162358124653
94.0	47.40624553822181	ISI	1.0		7.0	body	body-31.jpg	1.0	145.1312315850255	0.11666230487844587
95.0	47.522907843100256	body	0.0		45.0	body	body-123.jpg	0.0	145.24789388990393	0.38332516818536533
95.0	47.51178331961455	response	0.0	b		body	body-123.jpg	0.0	145.23676936641823	
95.0	47.60634146738994	pulse	0.0	t		body	body-123.jpg	0.0	145.33132751419362	
95.0	47.90623301128562	ISI	1.0		7.0	body	body-123.jpg	0.0	145.6312190580893	0.108353172680836
96.0	48.01458618396646	adult	0.0		47.0	face	adult-109.jpg	0.0	145.73957223077014	0.39161437802522414
96.0	48.30632344671267	pulse	0.0	t		face	adult-109.jpg	0.0	146.03130949351635	
96.0	48.40620056199168	ISI	1.0		4.0	face	adult-109.jpg	0.0	146.13118660879536	0.10837309503767756
97.0	48.51457365702936	adult	0.0		47.0	face	adult-5.jpg	0.0	146.23955970383304	0.3916140761721181
97.0	48.90618773320148	ISI	1.0		5.0	face	adult-5.jpg	0.0	146.63117378000516	0.10836947279040032
98.0	49.01455720599188	adult	0.0		46.0	face	adult-105.jpg	0.0	146.73954325279556	0.39162041510371637
98.0	49.009866094593235	pulse	0.0	t		face	adult-105.jpg	0.0	146.7348521413969	
98.0	49.406177621095594	ISI	1.0		5.0	face	adult-105.jpg	0.0	147.13116366789927	0.10833717442437774
99.0	49.51451479551997	adult	0.0		47.0	face	adult-43.jpg	0.0	147.23950084232365	0.3916720321194589
99.0	49.706308233276104	pulse	0.0	t		face	adult-43.jpg	0.0	147.43129428007978	
99.0	49.90618682763943	ISI	1.0		6.0	face	adult-43.jpg	0.0	147.6311728744431	0.10835196526477375
100.0	50.014538792904204	adult	0.0		47.0	face	adult-107.jpg	0.0	147.73952483970788	0.39161981139568525
100.0	50.40615860429989	ISI	1.0		6.0	face	adult-107.jpg	0.0	148.13114465110357	0.10832872251558001
100.0	50.44741297627661	pulse	1.0	t		face	adult-107.jpg	0.0	148.1723990230803	
101.0	50.51448732681547	adult	0.0		47.0	face	adult-16.jpg	0.0	148.23947337361915	0.39165512830095395
101.0	50.906142455116424	ISI	1.0		6.0	face	adult-16.jpg	0.0	148.6311285019201	0.10835649307409767
102.0	51.01449894819052	adult	0.0		47.0	face	adult-42.jpg	0.0	148.7394849949942	0.39163641335926513
102.0	51.106256797372225	pulse	0.0	t		face	adult-42.jpg	0.0	148.8312428441759	
102.0	51.40613536154979	ISI	1.0		4.0	face	adult-42.jpg	0.0	149.13112140835347	0.11669792363773013
102.0	51.48127072038369	response	1.0	b		face	adult-42.jpg	0.0	149.20625676718737	
103.0	51.52283328518752	adult	0.0		46.0	face	adult-129.jpg	0.0	149.2478193319912	0.3832838142016044
103.0	51.80622126916933	pulse	0.0	t		face	adult-129.jpg	0.0	149.531207315973	
103.0	51.90611709938912	ISI	1.0		6.0	face	adult-129.jpg	0.0	149.6311031461928	0.11670818667062122
104.0	52.02282528605974	adult	0.0		46.0	face	adult-23.jpg	0.0	149.74781133286342	0.38330162358124653
104.0	52.40612690964099	ISI	1.0		7.0	face	adult-23.jpg	0.0	150.13111295644467	0.11668041611119406
105.0	52.52280732575218	adult	0.0		45.0	face	adult-57.jpg	0.0	150.24779337255586	0.38333814790348697
105.0	52.51418003954859	pulse	0.0	t		face	adult-57.jpg	0.0	150.23916608635227	
105.0	52.90614547365567	ISI	1.0		7.0	face	adult-57.jpg	0.0	150.63113152045935	0.11667800127997907
106.0	53.02282347493565	adult	0.0		46.0	face	adult-57.jpg	1.0	150.74780952173933	0.3832720419004545
106.0	53.20621179095633	pulse	0.0	t		face	adult-57.jpg	1.0	150.93119783776	
106.0	53.4060955168361	ISI	1.0		5.0	face	adult-57.jpg	1.0	151.13108156363978	0.11669218841325346
107.0	53.52278770524936	adult	0.0		46.0	face	adult-137.jpg	0.0	151.24777375205304	0.38328985127918713
107.0	53.63953452921851	response	0.0	b		face	adult-137.jpg	0.0	151.3645205760222	
107.0	53.906077556528544	ISI	1.0		6.0	face	adult-137.jpg	0.0	151.63106360333222	0.11669037729097909
107.0	53.94676414132664	pulse	1.0	t		face	adult-137.jpg	0.0	151.67175018813032	
108.0	54.02276793381952	car	0.0		46.0	object	car-76.jpg	0.0	151.7477539806232	0.38329588835676986
108.0	54.40606382217629	ISI	1.0		7.0	object	car-76.jpg	0.0	152.13104986897997	0.11668766060574853
109.0	54.52275148278204	car	0.0		46.0	object	car-46.jpg	0.0	152.24773752958572	0.38330554768162983
109.0	54.606173334770574	pulse	0.0	t		object	car-46.jpg	0.0	152.33115938157425	
109.0	54.90605703046367	ISI	1.0		8.0	object	car-46.jpg	0.0	152.63104307726735	0.11669762178371457
110.0	55.022754652247386	car	0.0		46.0	object	car-10.jpg	0.0	152.74774069905106	0.38328743644888164
110.0	55.306153201115194	pulse	0.0	t		object	car-10.jpg	0.0	153.03113924791887	
110.0	55.40604208869627	ISI	1.0		4.0	object	car-10.jpg	0.0	153.13102813549995	0.11670064032296068
111.0	55.52274272901923	car	0.0		46.0	object	car-116.jpg	0.0	153.2477287758229	0.3832907568412338
111.0	55.90603348586046	ISI	1.0		5.0	object	car-116.jpg	0.0	153.63101953266414	0.1166918865592379
112.0	56.0227253724197	car	0.0		45.0	object	car-94.jpg	0.0	153.74771141922338	0.38328562532478827
112.0	56.0147283571514	pulse	0.0	t		object	car-94.jpg	0.0	153.73971440395508	
112.0	56.40601099774449	ISI	1.0		7.0	object	car-94.jpg	0.0	154.13099704454817	0.11670879037865234
113.0	56.52271978812314	car	0.0		46.0	object	car-64.jpg	0.0	154.24770583492682	0.3832877383019877
113.0	56.698045284725595	pulse	0.0	t		object	car-64.jpg	0.0	154.42303133152927	
113.0	56.90600752642513	ISI	1.0		7.0	object	car-64.jpg	0.0	154.6309935732288	0.11670094217697624
114.0	57.022708468602104	car	0.0		46.0	object	car-67.jpg	0.0	154.74769451540578	0.38328019195432717
114.0	57.40598866055643	ISI	1.0		7.0	object	car-67.jpg	0.0	155.1309747073601	0.11669098099810071
114.0	57.438672796715764	pulse	1.0	t		object	car-67.jpg	0.0	155.16365884351944	
115.0	57.52267964155453	car	0.0		46.0	object	car-82.jpg	0.0	155.2476656883582	0.3833097736369382
115.0	57.90598941519147	ISI	1.0		7.0	object	car-82.jpg	0.0	155.63097546199515	0.11669399953643733
116.0	58.02268341472791	car	0.0		46.0	object	car-74.jpg	0.0	155.7476694615316	0.38328743644888164
116.0	58.09801075263931	pulse	0.0	t		object	car-74.jpg	0.0	155.822996799443	
116.0	58.40597085117679	ISI	1.0		7.0	object	car-74.jpg	0.0	156.13095689798047	0.1166918865592379
117.0	58.52266273773603	car	0.0		46.0	object	car-75.jpg	0.0	156.2476487845397	0.38329588835767936
117.0	58.80609056643152	pulse	0.0	t		object	car-75.jpg	0.0	156.5310766132352	
117.0	58.90595862609371	ISI	1.0		6.0	object	car-75.jpg	0.0	156.63094467289739	0.1167169404334345
118.0	59.02267556652714	car	0.0		46.0	object	car-16.jpg	0.0	156.74766161333082	0.3833067550976921
118.0	59.40598232162483	ISI	1.0		7.0	object	car-16.jpg	0.0	157.1309683684285	0.11667920869604131
119.0	59.522661530320875	car	0.0		45.0	object	car-97.jpg	0.0	157.24764757712455	0.38331158476012206
119.0	59.514607766519475	pulse	0.0	t		object	car-97.jpg	0.0	157.23959381332315	
119.0	59.905973115081	ISI	1.0		7.0	object	car-97.jpg	0.0	157.63095916188468	0.11669822549174569
120.0	60.02267134057274	body	0.0		46.0	body	body-133.jpg	0.0	157.74765738737642	0.3832641936978689
120.0	60.2060487898525	pulse	0.0	t		body	body-133.jpg	0.0	157.93103483665618	
120.0	60.40593553427061	ISI	1.0		7.0	body	body-133.jpg	0.0	158.1309215810743	0.11667105864125915
121.0	60.52260659291187	body	0.0		46.0	body	body-44.jpg	0.0	158.24759263971555	0.38330373655844596
121.0	60.905910329470316	ISI	1.0		4.0	body	body-44.jpg	0.0	158.630896376274	0.11668856616688572
121.0	60.96441353863065	pulse	1.0	t		body	body-44.jpg	0.0	158.68939958543433	
122.0	61.0225988956372	body	0.0		46.0	body	body-70.jpg	0.0	158.74758494244088	0.38330132172814046
122.0	61.40590021736534	ISI	1.0		7.0	body	body-70.jpg	0.0	159.13088626416902	0.11670124403008231
123.0	61.522601461395425	body	0.0		46.0	body	body-137.jpg	0.0	159.2475875081991	0.38329679391972604
123.0	61.59791280105037	pulse	0.0	t		body	body-137.jpg	0.0	159.32289884785405	
123.0	61.90589825531515	ISI	1.0		4.0	body	body-137.jpg	0.0	159.63088430211883	0.10836162458963372
124.0	62.014259879904785	body	0.0		47.0	body	body-13.jpg	0.0	159.73924592670846	0.39161679285643913
124.0	62.29788995071067	pulse	0.0	t		body	body-13.jpg	0.0	160.02287599751435	
124.0	62.405876672761224	ISI	1.0		5.0	body	body-13.jpg	0.0	160.1308627195649	0.10837460430684587
125.0	62.51425127706807	body	0.0		47.0	body	body-19.jpg	0.0	160.23923732387175	0.3916349040910063
125.0	62.905886181159076	ISI	1.0		6.0	body	body-19.jpg	0.0	160.63087222796275	0.1083374762774838
126.0	63.01422365743656	body	0.0		46.0	body	body-88.jpg	0.0	160.73920970424024	0.3916210188117475
126.0	63.01001158817144	pulse	0.0	t		body	body-88.jpg	0.0	160.73499763497512	
126.0	63.40584467624831	ISI	1.0		6.0	body	body-88.jpg	0.0	161.130830723052	0.10837611357692367
127.0	63.51422078982523	body	0.0		47.0	body	body-10.jpg	0.0	161.2392068366289	0.39161256690204027
127.0	63.70596894949722	pulse	0.0	t		body	body-10.jpg	0.0	161.4309549963009	
127.0	63.90583335672727	ISI	1.0		5.0	body	body-10.jpg	0.0	161.63081940353095	0.10837490616086143
128.0	64.01420826288813	body	0.0		47.0	body	body-54.jpg	0.0	161.7391943096918	0.39162675403531466
128.0	64.40583501692345	ISI	1.0		6.0	body	body-54.jpg	0.0	162.13082106372713	0.1083453244791599
128.0	64.4497450994777	pulse	1.0	t		body	body-54.jpg	0.0	162.17473114628137	
129.0	64.51418034140261	body	0.0		47.0	body	body-94.jpg	0.0	162.23916638820629	0.39165180790860177
129.0	64.90583214931121	ISI	1.0		6.0	body	body-94.jpg	0.0	162.6308181961149	0.10833989110960829
130.0	65.01417204042082	body	0.0		47.0	body	body-87.jpg	0.0	162.7391580872245	0.39163460223608126
130.0	65.09784231816593	pulse	0.0	t		body	body-87.jpg	0.0	162.8228283649696	
130.0	65.4058066426569	ISI	1.0		6.0	body	body-87.jpg	0.0	163.13079268946058	0.11670064032296068
131.0	65.52250728297986	body	0.0		46.0	body	body-52.jpg	0.0	163.24749332978354	0.3832916624032805
131.0	65.80592967830489	pulse	0.0	t		body	body-52.jpg	0.0	163.53091572510857	
131.0	65.90579894538314	ISI	1.0		4.0	body	body-52.jpg	0.0	163.63078499218682	0.1166982254908362
132.0	66.02249717087398	car	0.0		46.0	object	car-19.jpg	0.0	163.74748321767765	0.3833097736369382
132.0	66.40580694451091	ISI	1.0		7.0	object	car-19.jpg	0.0	164.1307929913146	0.11667286976444302
133.0	66.52247981427536	car	0.0		45.0	object	car-19.jpg	1.0	164.24746586107904	0.383328488578627
133.0	66.51378732762987	pulse	0.0	t		object	car-19.jpg	1.0	164.23877337443355	
133.0	66.90580830285398	ISI	1.0		5.0	object	car-19.jpg	1.0	164.63079434965766	0.11670064032205119
134.0	67.02250894317604	car	0.0		46.0	object	car-123.jpg	0.0	164.7474949899797	0.3832666085299934
134.0	67.09761743701256	response	0.0	b		object	car-123.jpg	0.0	164.82260348381624	
134.0	67.20587522386268	pulse	0.0	t		object	car-123.jpg	0.0	164.93086127066636	
134.0	67.40577555170603	ISI	1.0		7.0	object	car-123.jpg	0.0	165.1307615985097	0.11669037729006959
135.0	67.5224659289961	car	0.0		46.0	object	car-101.jpg	0.0	165.24745197579978	0.3832813993703894
135.0	67.90574732836649	ISI	1.0		4.0	object	car-101.jpg	0.0	165.63073337517017	0.1167012440309918
135.0	67.96305670536731	pulse	1.0	t		object	car-101.jpg	0.0	165.688042752171	
136.0	68.02244857239748	car	0.0		46.0	object	car-14.jpg	0.0	165.74743461920116	0.3833028309963993
136.0	68.40575140339388	ISI	1.0		7.0	object	car-14.jpg	0.0	166.13073745019756	0.11668494392051798
137.0	68.5224363473144	car	0.0		46.0	object	car-80.jpg	0.0	166.24742239411808	0.3832931716724488
137.0	68.6058597085721	pulse	0.0	t		object	car-80.jpg	0.0	166.33084575537578	
137.0	68.90572951898685	ISI	1.0		7.0	object	car-80.jpg	0.0	166.63071556579052	0.11669279212128458
138.0	69.02242231110813	car	0.0		46.0	object	car-99.jpg	0.0	166.7474083579118	0.3832829086404672
138.0	69.29771427174273	pulse	0.0	t		object	car-99.jpg	0.0	167.0227003185464	
138.0	69.4057052197486	ISI	1.0		7.0	object	car-99.jpg	0.0	167.13069126655228	0.11669430139045289
139.0	69.52239952113905	car	0.0		46.0	object	car-65.jpg	0.0	167.24738556794273	0.38329528464964824
139.0	69.9056948057887	ISI	1.0		7.0	object	car-65.jpg	0.0	167.63068085259238	0.11668373650445574
140.0	70.02237854229315	car	0.0		45.0	object	car-4.jpg	0.0	167.74736458909683	0.38332275335415034
140.0	70.01387531804085	pulse	0.0	t		object	car-4.jpg	0.0	167.73886136484452	
140.0	70.2058187771836	response	0.0	b		object	car-4.jpg	0.0	167.93080482398727	
140.0	70.4057012956473	ISI	1.0		6.0	object	car-4.jpg	0.0	168.13068734245098	0.11667166234929027
141.0	70.5223729579966	car	0.0		46.0	object	car-38.jpg	0.0	168.24735900480027	0.3833025291423837
141.0	70.69769694532897	pulse	0.0	t		object	car-38.jpg	0.0	168.42268299213265	
141.0	70.90567548713898	ISI	1.0		6.0	object	car-38.jpg	0.0	168.63066153394266	0.11669913105379237
142.0	71.02237461819277	car	0.0		46.0	object	car-61.jpg	0.0	168.74736066499645	0.3832910586952494
142.0	71.40566567688802	ISI	1.0		6.0	object	car-61.jpg	0.0	169.1306517236917	0.11669882919886732
142.0	71.4522864074288	pulse	1.0	t		object	car-61.jpg	0.0	169.17727245423248	
143.0	71.52236450608689	car	0.0		46.0	object	car-91.jpg	0.0	169.24735055289057	0.38329679391972604
143.0	71.90566130000661	ISI	1.0		7.0	object	car-91.jpg	0.0	169.6306473468103	0.11669430139045289
144.0	72.02235560139707	car	0.0		46.0	object	car-43.jpg	0.0	169.74734164820075	0.3832853234716822
144.0	72.09768112818529	pulse	0.0	t		object	car-43.jpg	0.0	169.82266717498896	
144.0	72.40564092486875	ISI	1.0		7.0	object	car-43.jpg	0.0	170.13062697167243	0.11670094217606675
145.0	72.52234186704482	car	0.0		46.0	object	car-121.jpg	0.0	170.2473279138485	0.3832946809416171
145.0	72.80575490489991	pulse	0.0	t		object	car-121.jpg	0.0	170.5307409517036	
145.0	72.90563654798643	ISI	1.0		7.0	object	car-121.jpg	0.0	170.6306225947901	0.11669430139136239
146.0	73.0223308493778	car	0.0		46.0	object	car-129.jpg	0.0	170.74731689618147	0.3833224515001348
146.0	73.40565330087793	ISI	1.0		4.0	object	car-129.jpg	0.0	171.1306393476816	0.11669399953734683
147.0	73.52234730041528	car	0.0		45.0	object	car-27.jpg	0.0	171.24733334721896	0.3832901531332027
147.0	73.51428508470508	pulse	0.0	t		object	car-27.jpg	0.0	171.23927113150876	
147.0	73.90563745354848	ISI	1.0		6.0	object	car-27.jpg	0.0	171.63062350035216	0.11670546998539066
148.0	74.02234292353387	car	0.0		46.0	object	car-21.jpg	0.0	171.74732897033755	0.38327324931469775
148.0	74.19757846767516	pulse	0.0	t		object	car-21.jpg	0.0	171.92256451447884	
148.0	74.40561617284857	ISI	1.0		7.0	object	car-21.jpg	0.0	172.13060221965225	0.11671482745623507
149.0	74.5223310003048	car	0.0		46.0	object	car-33.jpg	0.0	172.24731704710848	0.38329769948086323
149.0	74.90562869978567	ISI	1.0		7.0	object	car-33.jpg	0.0	172.63061474658934	0.11668826431287016
149.0	74.94330278270081	pulse	1.0	t		object	car-33.jpg	0.0	172.6682888295045	
150.0	75.02231696409854	car	0.0		46.0	object	car-88.jpg	0.0	172.74730301090221	0.38330222728927765
150.0	75.40561919138781	ISI	1.0		7.0	object	car-88.jpg	0.0	173.1306052381915	0.11668856616688572
151.0	75.5223077575547	car	0.0		46.0	object	car-81.jpg	0.0	173.24729380435838	0.38329739762684767
151.0	75.59754846339729	pulse	0.0	t		object	car-81.jpg	0.0	173.32253451020097	
151.0	75.90560515518155	ISI	1.0		6.0	object	car-81.jpg	0.0	173.63059120198523	0.11668675504370185
152.0	76.02229191022525	car	0.0		46.0	object	car-57.jpg	0.0	173.74727795702893	0.38329347352646437
152.0	76.29751806670993	pulse	0.0	t		object	car-57.jpg	0.0	174.0225041135136	
152.0	76.40558538375171	ISI	1.0		6.0	object	car-57.jpg	0.0	174.1305714305554	0.11667739757194795
153.0	76.52226278132366	car	0.0		46.0	object	car-105.jpg	0.0	174.24724882812734	0.38331792369262985
153.0	76.90558070501629	ISI	1.0		7.0	object	car-105.jpg	0.0	174.63056675181997	0.11668494391960849
154.0	77.0222656489359	car	0.0		45.0	object	car-59.jpg	0.0	174.74725169573958	0.38328894571804994
154.0	77.01258459078144	pulse	0.0	t		object	car-59.jpg	0.0	174.73757063758512	
154.0	77.40555459465395	ISI	1.0		7.0	object	car-59.jpg	0.0	175.13054064145763	0.11670335700819123
155.0	77.52225795166214	car	0.0		46.0	object	car-29.jpg	0.0	175.24724399846582	0.38329045498721825
155.0	77.69748413833258	pulse	0.0	t		object	car-29.jpg	0.0	175.42247018513626	
155.0	77.90554840664936	ISI	1.0		6.0	object	car-29.jpg	0.0	175.63053445345304	0.11670969593978953
156.0	78.02225810258915	word	0.0		46.0	character	word-80.jpg	0.0	175.74724414939283	0.38328804015600326
156.0	78.40554614274515	ISI	1.0		6.0	character	word-80.jpg	0.0	176.13053218954883	0.1166761901567952
156.0	78.45089516282133	pulse	1.0	t		character	word-80.jpg	0.0	176.175881209625	
157.0	78.52222233290195	word	0.0		46.0	character	word-26.jpg	0.0	176.24720837970563	0.38331490515338373
157.0	78.90553723805533	ISI	1.0		7.0	character	word-26.jpg	0.0	176.630523284859	0.11668645318968629
158.0	79.02222369124502	word	0.0		46.0	character	word-26.jpg	1.0	176.7472097380487	0.3832832104935733
158.0	79.09745020995433	pulse	0.0	t		character	word-26.jpg	1.0	176.822436256758	
158.0	79.40550690173859	ISI	1.0		5.0	character	word-26.jpg	1.0	177.13049294854227	0.1167036588612973
159.0	79.52221056059989	word	0.0		46.0	character	word-115.jpg	0.0	177.24719660740357	0.38328653088683495
159.0	79.5473634420523	response	0.0	b		character	word-115.jpg	0.0	177.27234948885598	
159.0	79.79731476811139	pulse	0.0	t		character	word-115.jpg	0.0	177.52230081491507	
159.0	79.90549709148672	ISI	1.0		6.0	character	word-115.jpg	0.0	177.6304831382904	0.11670184773811343
160.0	80.02219893922484	word	0.0		46.0	character	word-73.jpg	0.0	177.74718498602851	0.3832907568412338
160.0	80.40548969606607	ISI	1.0		7.0	character	word-73.jpg	0.0	178.13047574286975	0.11667528459565801
161.0	80.52216498066173	word	0.0		45.0	character	word-135.jpg	0.0	178.2471510274654	0.3833073588057232
161.0	80.51240574234816	pulse	0.0	t		character	word-135.jpg	0.0	178.23739178915184	
161.0	80.90547233946745	ISI	1.0		6.0	character	word-135.jpg	0.0	178.63045838627113	0.11668766060483904
162.0	81.02216000007229	word	0.0		46.0	character	word-9.jpg	0.0	178.74714604687597	0.3832681177991617
162.0	81.19743750190537	pulse	0.0	t		character	word-9.jpg	0.0	178.92242354870905	
162.0	81.40542811787145	ISI	1.0		6.0	character	word-9.jpg	0.0	179.13041416467513	0.11670184773811343
163.0	81.52212996560957	word	0.0		46.0	character	word-38.jpg	0.0	179.24711601241324	0.38329920875094103
163.0	81.9054291743605	ISI	1.0		7.0	character	word-38.jpg	0.0	179.63041522116418	0.11669309397530014
163.0	81.94207001138875	pulse	1.0	t		character	word-38.jpg	0.0	179.66705605819243	
164.0	82.0221222683358	word	0.0		46.0	character	word-78.jpg	0.0	179.74710831513949	0.38329377537957043
164.0	82.40541604371538	ISI	1.0		6.0	character	word-78.jpg	0.0	180.13040209051906	0.11669460324537795
165.0	82.52211064696075	word	0.0		46.0	character	word-57.jpg	0.0	180.24709669376443	0.3832823049315266
165.0	82.59734773055698	pulse	0.0	t		character	word-57.jpg	0.0	180.32233377736065	
165.0	82.90539295189228	ISI	1.0		7.0	character	word-57.jpg	0.0	180.63037899869596	0.11668494392051798
166.0	83.0220778958128	word	0.0		46.0	character	word-28.jpg	0.0	180.74706394261648	0.3833112829061065
166.0	83.29725907606735	pulse	0.0	t		character	word-28.jpg	0.0	181.02224512287103	
166.0	83.4053891787189	ISI	1.0		7.0	character	word-28.jpg	0.0	181.13037522552258	0.11668313279642462
167.0	83.52207231151533	word	0.0		46.0	character	word-143.jpg	0.0	181.247058358319	0.38330222728927765
167.0	83.90537453880461	ISI	1.0		4.0	character	word-143.jpg	0.0	181.6303605856083	0.11666019190124644
167.0	83.99724407392932	pulse	1.0	t		character	word-143.jpg	0.0	181.722230120733	
168.0	84.02203473070585	house	0.0		46.0	place	house-20.jpg	0.0	181.74702077750953	0.38333301638613193
168.0	84.40536774709199	ISI	1.0		6.0	place	house-20.jpg	0.0	182.13035379389567	0.11667679386482632
169.0	84.52204454095681	house	0.0		46.0	place	house-86.jpg	0.0	182.2470305877605	0.3833043402673866
169.0	84.69729336667024	pulse	0.0	t		place	house-86.jpg	0.0	182.42227941347392	
169.0	84.9053488812242	ISI	1.0		7.0	place	house-86.jpg	0.0	182.63033492802788	0.11668977358203847
170.0	85.02203865480624	house	0.0		46.0	place	house-68.jpg	0.0	182.74702470160992	0.38330615138966095
170.0	85.4053448061959	ISI	1.0		7.0	place	house-68.jpg	0.0	183.13033085299958	0.11667317161845858
170.0	85.44082320387133	pulse	1.0	t		place	house-68.jpg	0.0	183.165809250675	
171.0	85.52201797781436	house	0.0		46.0	place	house-68.jpg	1.0	183.24700402461804	0.3833034347053399
171.0	85.9053214125197	ISI	1.0		7.0	place	house-68.jpg	1.0	183.63030745932338	0.11668615133567073
171.0	85.98046612882354	response	1.0	b		place	house-68.jpg	1.0	183.70545217562722	
172.0	86.02200756385537	house	0.0		46.0	place	house-17.jpg	0.0	183.74699361065905	0.3833176218377048
172.0	86.09734908889914	pulse	0.0	t		place	house-17.jpg	0.0	183.82233513570282	
172.0	86.40532518569307	ISI	1.0		4.0	place	house-17.jpg	0.0	184.13031123249675	0.11668766060483904
173.0	86.52201284629791	house	0.0		46.0	place	house-115.jpg	0.0	184.2469988931016	0.38330222728927765
173.0	86.79723839907547	pulse	0.0	t		place	house-115.jpg	0.0	184.52222444587915	
173.0	86.90531507358719	ISI	1.0		6.0	place	house-115.jpg	0.0	184.63030112039087	0.11666985122519691
174.0	87.02198492481239	house	0.0		46.0	place	house-30.jpg	0.0	184.74697097161607	0.3833369404874247
174.0	87.40532186529981	ISI	1.0		7.0	place	house-30.jpg	0.0	185.1303079121035	0.11669913105379237
175.0	87.5220209963536	house	0.0		45.0	place	house-139.jpg	0.0	185.24700704315728	0.3832986050420004
175.0	87.51230613056214	pulse	0.0	t		place	house-139.jpg	0.0	185.23729217736582	
175.0	87.9053196013956	ISI	1.0		7.0	place	house-139.jpg	0.0	185.63030564819928	0.11668222723528743
176.0	88.02200182863089	house	0.0		46.0	place	house-81.jpg	0.0	185.74698787543457	0.38329377538047993
176.0	88.19715647592784	pulse	0.0	t		place	house-81.jpg	0.0	185.92214252273152	
176.0	88.40529560401137	ISI	1.0		6.0	place	house-81.jpg	0.0	186.13028165081505	0.11670396071531286
177.0	88.52199956472668	house	0.0		46.0	place	house-131.jpg	0.0	186.24698561153036	0.3832892475720655
177.0	88.89713241817299	pulse	0.0	t		place	house-131.jpg	0.0	186.62211846497667	
177.0	88.90528881229875	ISI	1.0		7.0	place	house-131.jpg	0.0	186.63027485910243	0.116697319929699
178.0	89.02198613222845	house	0.0		46.0	place	house-116.jpg	0.0	186.74697217903213	0.3832705326303767
178.0	89.40525666485883	ISI	1.0		6.0	place	house-116.jpg	0.0	187.1302427116625	0.11670214959212899
179.0	89.52195881445095	house	0.0		46.0	place	house-53.jpg	0.0	187.24694486125463	0.3833097736369382
179.0	89.59718472945315	pulse	0.0	t		place	house-53.jpg	0.0	187.32217077625683	
179.0	89.90526858808789	ISI	1.0		7.0	place	house-53.jpg	0.0	187.63025463489157	0.1166840383575618
180.0	90.02195262644545	body	0.0		46.0	body	body-109.jpg	0.0	187.74693867324913	0.3832961902116949
180.0	90.2970996972108	pulse	0.0	t		body	body-109.jpg	0.0	188.02208574401448	
180.0	90.40524881665715	ISI	1.0		6.0	body	body-109.jpg	0.0	188.13023486346083	0.11668645318968629
181.0	90.52193526984684	body	0.0		46.0	body	body-130.jpg	0.0	188.2469213166505	0.3833064532436765
181.0	90.90524172309051	ISI	1.0		7.0	body	body-130.jpg	0.0	188.6302277698942	0.1250336189777954
181.0	90.99707473389299	pulse	1.0	t		body	body-130.jpg	0.0	188.72206078069667	
182.0	91.03027534206831	body	0.0		45.0	body	body-111.jpg	0.0	188.755261388872	0.37495023183873855
182.0	91.40522557390705	ISI	1.0		6.0	body	body-111.jpg	0.0	189.13021162071072	0.11668524577453354
183.0	91.52191081968158	body	0.0		46.0	body	body-72.jpg	0.0	189.24689686648526	0.38330766065882926
183.0	91.6970479594529	pulse	0.0	t		body	body-72.jpg	0.0	189.42203400625658	
183.0	91.90521848034041	ISI	1.0		5.0	body	body-72.jpg	0.0	189.6302045271441	0.11670456442334398
184.0	92.02192304476375	body	0.0		45.0	body	body-4.jpg	0.0	189.74690909156743	0.38325664735111786
184.0	92.39702058130388	pulse	0.0	t		body	body-4.jpg	0.0	190.12200662810756	
184.0	92.40517969211487	ISI	1.0		7.0	body	body-4.jpg	0.0	190.13016573891855	0.1167075829625901
185.0	92.52188727507746	body	0.0		45.0	body	body-4.jpg	1.0	190.24687332188114	0.38332426262331865
185.0	92.90521153770078	ISI	1.0		7.0	body	body-4.jpg	1.0	190.63019758450446	0.11666683268686029
186.0	93.02187837038764	body	0.0		46.0	body	body-114.jpg	0.0	190.74686441719132	0.3832995106040471
186.0	93.07198913567481	response	0.0	b		body	body-114.jpg	0.0	190.7969751824785	
186.0	93.09712662257789	pulse	0.0	t		body	body-114.jpg	0.0	190.82211266938157	
186.0	93.40517788099169	ISI	1.0		4.0	body	body-114.jpg	0.0	191.13016392779537	0.1166958106605307
187.0	93.52187369165222	body	0.0		46.0	body	body-80.jpg	0.0	191.2468597384559	0.3833121884681532
187.0	93.79710739448456	pulse	0.0	t		body	body-80.jpg	0.0	191.52209344128823	
187.0	93.90518588012037	ISI	1.0		7.0	body	body-80.jpg	0.0	191.63017192692405	0.11668373650445574
188.0	94.02186961662483	body	0.0		46.0	body	body-61.jpg	0.0	191.7468556634285	0.38327415487674443
188.0	94.40514377150157	ISI	1.0		7.0	body	body-61.jpg	0.0	192.13012981830525	0.12504720240303868
188.0	94.496975876742	pulse	1.0	t		body	body-61.jpg	0.0	192.22196192354568	
189.0	94.53019097390461	body	0.0		45.0	body	body-134.jpg	0.0	192.2551770207083	0.3749520429619224
189.0	94.90514301686653	ISI	1.0		5.0	body	body-134.jpg	0.0	192.6301290636702	0.11670396071531286
190.0	95.02184697758184	body	0.0		46.0	body	body-14.jpg	0.0	192.74683302438552	0.38329920875094103
190.0	95.19695151713313	pulse	0.0	t		body	body-14.jpg	0.0	192.9219375639368	
190.0	95.40514618633279	ISI	1.0		6.0	body	body-14.jpg	0.0	193.13013223313646	0.11667407717959577
191.0	95.52182026351238	body	0.0		46.0	body	body-92.jpg	0.0	193.24680631031606	0.3832711363384078
191.0	95.90509139985079	ISI	1.0		11.0	body	body-92.jpg	0.0	193.63007744665447	0.09999393273665191
191.0	95.90961800087643	pulse	1.0	t		body	body-92.jpg	0.0	193.6346040476801	
192.0	96.00508533258744	baseline	0.0		48.0		baseline	0.0	193.73007137939112	0.3999887106638198
192.0	96.40507404325126	ISI	1.0		11.0		baseline	0.0	194.13006009005494	0.0999924234674836
193.0	96.50506646671874	baseline	0.0		48.0		baseline	0.0	194.23005251352242	0.3999908236419287
193.0	96.59706730828748	pulse	0.0	t			baseline	0.0	194.32205335509116	
193.0	96.90505729036067	ISI	1.0		11.0		baseline	0.0	194.63004333716435	0.09999755498301965
194.0	97.0050548453437	baseline	0.0		48.0		baseline	0.0	194.73004089214737	0.40001436824513803
194.0	97.29689353099911	pulse	0.0	t			baseline	0.0	195.0218795778028	
194.0	97.40506921358883	ISI	1.0		11.0		baseline	0.0	195.1300552603925	0.09998276414262364
195.0	97.50505197773145	baseline	0.0		48.0		baseline	0.0	195.23003802453513	0.39999927555072645
195.0	97.90505125328218	ISI	1.0		11.0		baseline	0.0	195.63003730008586	0.10002291071123182
196.0	98.00507416399341	baseline	0.0		47.0		baseline	0.0	195.7300602107971	0.3999591289821183
196.0	97.99706537642214	pulse	0.0	t			baseline	0.0	195.72205142322582	
196.0	98.40503329297553	ISI	1.0		11.0		baseline	0.0	196.1300193397792	0.10000751616189518
197.0	98.50504080913743	baseline	0.0		48.0		baseline	0.0	196.2300268559411	0.3999908236419287
197.0	98.69701445366991	pulse	0.0	t			baseline	0.0	196.4220005004736	
197.0	98.90503163277936	ISI	1.0		11.0		baseline	0.0	196.63001767958303	0.09998880122020637
198.0	99.00502043399956	baseline	0.0		48.0		baseline	0.0	196.73000648080324	0.39998508841745206
198.0	99.39681803734038	pulse	0.0	t			baseline	0.0	197.12180408414406	
198.0	99.40500552241701	ISI	1.0		11.0		baseline	0.0	197.1299915692207	0.10000057352226577
199.0	99.50500609593928	baseline	0.0		48.0		baseline	0.0	197.22999214274296	0.3999908236419287
199.0	99.90499691958121	ISI	1.0		11.0		baseline	0.0	197.6299829663849	0.10000872357704793
200.0	100.00500564315826	baseline	0.0		48.0		baseline	0.0	197.72999168996193	0.39997482538547047
200.0	100.09681390194146	pulse	0.0	t			baseline	0.0	197.82179994874514	
200.0	100.40498046854373	ISI	1.0		11.0		baseline	0.0	198.1299665153474	0.09999815869105078
201.0	100.50497862723478	baseline	0.0		48.0		baseline	0.0	198.22996467403846	0.40000802931353974
201.0	100.79678742935448	pulse	0.0	t			baseline	0.0	198.52177347615816	
201.0	100.90498665654832	ISI	1.0		11.0		baseline	0.0	198.629972703352	0.09999423459066747
202.0	101.00498089113898	baseline	0.0		48.0		baseline	0.0	198.72996693794266	0.39999444588829647
202.0	101.40497533702728	ISI	1.0		11.0		baseline	0.0	199.12996138383096	0.09999755498392915
202.0	101.49726716575151	pulse	1.0	t			baseline	0.0	199.2222532125552	
203.0	101.50497289201121	baseline	0.0		48.0		baseline	0.0	199.2299589388149	0.4000451573429018
203.0	101.90501804935411	ISI	1.0		7.0		baseline	0.0	199.6300040961578	0.11666321043958305
204.0	102.0216812597937	house	0.0		46.0	place	house-142.jpg	0.0	199.74666730659737	0.38327475858477555
204.0	102.19676436771715	pulse	0.0	t		place	house-142.jpg	0.0	199.92175041452083	
204.0	102.40495601837847	ISI	1.0		4.0	place	house-142.jpg	0.0	200.12994206518215	0.11669520695249957
205.0	102.52165122533097	house	0.0		46.0	place	house-4.jpg	0.0	200.24663727213465	0.38331792369172035
205.0	102.8967741175984	pulse	0.0	t		place	house-4.jpg	0.0	200.62176016440208	
205.0	102.90496914902269	ISI	1.0		7.0	place	house-4.jpg	0.0	200.62995519582637	0.11668886802090128
206.0	103.02165801704359	house	0.0		46.0	place	house-36.jpg	0.0	200.74664406384727	0.383298906896016
206.0	103.40495692393961	ISI	1.0		6.0	place	house-36.jpg	0.0	201.1299429707433	0.11667136049527471
207.0	103.52162828443488	house	0.0		46.0	place	house-3.jpg	0.0	201.24661433123856	0.3833043402664771
207.0	103.59672742080056	pulse	0.0	t		place	house-3.jpg	0.0	201.32171346760424	
207.0	103.90493262470136	ISI	1.0		7.0	place	house-3.jpg	0.0	201.62991867150504	0.11670426256932842
208.0	104.02163688727069	house	0.0		46.0	place	house-122.jpg	0.0	201.74662293407437	0.3832726456075761
208.0	104.29670940012238	pulse	0.0	t		place	house-122.jpg	0.0	202.02169544692606	
208.0	104.40490953287826	ISI	1.0		6.0	place	house-122.jpg	0.0	202.12989557968194	0.11669852734485175
209.0	104.52160806022312	house	0.0		46.0	place	house-107.jpg	0.0	202.2465941070268	0.38328260678645165
209.0	104.90489066700957	ISI	1.0		6.0	place	house-107.jpg	0.0	202.62987671381325	0.11668766060483904
209.0	104.99666723113387	pulse	1.0	t		place	house-107.jpg	0.0	202.72165327793755	
210.0	105.0215783276144	house	0.0		46.0	place	house-50.jpg	0.0	202.74656437441809	0.383304038413371
210.0	105.40488236602778	ISI	1.0		6.0	place	house-50.jpg	0.0	203.12986841283146	0.1166801142571785
211.0	105.52156248028496	house	0.0		46.0	place	house-37.jpg	0.0	203.24654852708863	0.38329830318889435
211.0	105.6966597753426	pulse	0.0	t		place	house-37.jpg	0.0	203.42164582214627	
211.0	105.90486078347385	ISI	1.0		6.0	place	house-37.jpg	0.0	203.62984683027753	0.11667739757285744
212.0	106.02153818104671	house	0.0		46.0	place	house-34.jpg	0.0	203.7465242278504	0.3833028309973088
212.0	106.39662756753114	pulse	0.0	t		place	house-34.jpg	0.0	204.12161361433482	
212.0	106.40484101204402	ISI	1.0		7.0	place	house-34.jpg	0.0	204.1298270588477	0.11671875155570888
213.0	106.52155976359973	house	0.0		46.0	place	house-34.jpg	1.0	204.2465458104034	0.3832741548776539
213.0	106.90483391847738	ISI	1.0		5.0	place	house-34.jpg	1.0	204.62981996528106	0.11669460324446845
214.0	107.02152852172185	house	0.0		46.0	place	house-71.jpg	0.0	204.74651456852553	0.38331943296179816
214.0	107.09662252657108	pulse	0.0	t		place	house-71.jpg	0.0	204.82160857337476	
214.0	107.22992784786311	response	0.0	b		place	house-71.jpg	0.0	204.9549138946668	
214.0	107.40484795468365	ISI	1.0		6.0	place	house-71.jpg	0.0	205.12983400148732	0.11665475852987583
215.0	107.52150271321352	house	0.0		46.0	place	house-5.jpg	0.0	205.2464887600172	0.383306453244586
215.0	107.79659092246857	pulse	0.0	t		place	house-5.jpg	0.0	205.52157696927225	
215.0	107.90480916645811	ISI	1.0		6.0	place	house-5.jpg	0.0	205.6297952132618	0.11669550880560564
216.0	108.02150467526371	word	0.0		46.0	character	word-61.jpg	0.0	205.7464907220674	0.3832862290328194
216.0	108.40479090429653	ISI	1.0		6.0	character	word-61.jpg	0.0	206.1297769511002	0.11668584948256466
216.0	108.49658920190177	pulse	1.0	t		character	word-61.jpg	0.0	206.22157524870545	
217.0	108.5214767537791	word	0.0		46.0	character	word-21.jpg	0.0	206.24646280058278	0.38330313285041484
217.0	108.90477988662951	ISI	1.0		7.0	character	word-21.jpg	0.0	206.6297659334332	0.11668615133567073
218.0	109.02146603796518	word	0.0		46.0	character	word-21.jpg	1.0	206.74645208476886	0.383301623582156
218.0	109.1965735960548	pulse	0.0	t		character	word-21.jpg	1.0	206.92155964285848	
218.0	109.40476766154734	ISI	1.0		5.0	character	word-21.jpg	1.0	207.12975370835102	0.1166840383584713
219.0	109.52145169990581	word	0.0		45.0	character	word-59.jpg	0.0	207.2464377467095	0.3833073588048137
219.0	109.51286818251629	response	0.0	b		character	word-59.jpg	0.0	207.23785422931996	
219.0	109.89653987897509	pulse	0.0	t		character	word-59.jpg	0.0	207.62152592577877	
219.0	109.90475905871062	ISI	1.0		7.0	character	word-59.jpg	0.0	207.6297451055143	0.11670003661492956
220.0	110.02145909532555	word	0.0		46.0	character	word-1.jpg	0.0	207.74644514212923	0.38328592717880383
220.0	110.40474502250436	ISI	1.0		6.0	character	word-1.jpg	0.0	208.12973106930804	0.11668434021248686
221.0	110.52142936271684	word	0.0		46.0	character	word-7.jpg	0.0	208.24641540952052	0.38335233503585187
221.0	110.59657075862833	pulse	0.0	t		character	word-7.jpg	0.0	208.321556805432	
221.0	110.9047816977527	ISI	1.0		7.0	character	word-7.jpg	0.0	208.62976774455637	0.1166879624597641
222.0	111.02146966021246	word	0.0		46.0	character	word-55.jpg	0.0	208.74645570701614	0.3832557417890712
222.0	111.29650595059684	pulse	0.0	t		character	word-55.jpg	0.0	209.02149199740052	
222.0	111.40472540200153	ISI	1.0		7.0	character	word-55.jpg	0.0	209.1297114488052	0.11668192538127187
223.0	111.5214073273828	word	0.0		46.0	character	word-97.jpg	0.0	209.24639337418648	0.3833073588057232
223.0	111.90471468618853	ISI	1.0		7.0	character	word-97.jpg	0.0	209.6297007329922	0.1250164133052749
223.0	111.99650000407473	pulse	1.0	t		character	word-97.jpg	0.0	209.7214860508784	
224.0	112.0297310994938	word	0.0		45.0	character	word-37.jpg	0.0	209.75471714629748	0.3749680412183807
224.0	112.40469914071218	ISI	1.0		6.0	character	word-37.jpg	0.0	210.12968518751586	0.11668434021248686
225.0	112.52138348092467	word	0.0		46.0	character	word-128.jpg	0.0	210.24636952772835	0.3833152070073993
225.0	112.69646990924139	pulse	0.0	t		character	word-128.jpg	0.0	210.42145595604507	
225.0	112.90469868793207	ISI	1.0		7.0	character	word-128.jpg	0.0	210.62968473473575	0.11668826431287016
226.0	113.02138695224494	word	0.0		46.0	character	word-77.jpg	0.0	210.74637299904862	0.38328351234758884
226.0	113.3965149760279	pulse	0.0	t		character	word-77.jpg	0.0	211.12150102283158	
226.0	113.40467046459253	ISI	1.0		7.0	character	word-77.jpg	0.0	211.1296565113962	0.11670667740054341
227.0	113.52137714199307	word	0.0		46.0	character	word-75.jpg	0.0	211.24636318879675	0.38328954942608107
227.0	113.90466669141915	ISI	1.0		7.0	character	word-75.jpg	0.0	211.62965273822283	0.11669611251363676
228.0	114.02136280393279	word	0.0		46.0	character	word-98.jpg	0.0	211.74634885073647	0.38327868268606835
228.0	114.09649967203586	pulse	0.0	t		character	word-98.jpg	0.0	211.82148571883954	
228.0	114.40464148661886	ISI	1.0		6.0	character	word-98.jpg	0.0	212.12962753342254	0.11669460324446845
229.0	114.52133608986333	word	0.0		46.0	character	word-25.jpg	0.0	212.246322136667	0.3833025291432932
229.0	114.79646474754009	pulse	0.0	t		character	word-25.jpg	0.0	212.52145079434376	
229.0	114.90463861900662	ISI	1.0		6.0	character	word-25.jpg	0.0	212.6296246658103	0.11670033846894512
230.0	115.02133895747556	word	0.0		46.0	character	word-137.jpg	0.0	212.74632500427924	0.3832871345939566
230.0	115.40462609206952	ISI	1.0		6.0	character	word-137.jpg	0.0	213.1296121388732	0.12504025976340927
230.0	115.49640688214822	pulse	1.0	t		character	word-137.jpg	0.0	213.2213929289519	
231.0	115.52966635183293	word	0.0		45.0	character	word-107.jpg	0.0	213.2546523986366	0.3749535522320002
231.0	115.90461990406493	ISI	1.0		6.0	character	word-107.jpg	0.0	213.6296059508686	0.11669701807568345
232.0	116.02131692214061	word	0.0		46.0	character	word-65.jpg	0.0	213.7463029689443	0.38329196425729606
232.0	116.19643595067828	pulse	0.0	t		character	word-65.jpg	0.0	213.92142199748196	
232.0	116.40460888639791	ISI	1.0		7.0	character	word-65.jpg	0.0	214.1295949332016	0.11668192538127187
233.0	116.52129081177918	word	0.0		46.0	character	word-39.jpg	0.0	214.24627685858286	0.3833176218377048
233.0	116.89640977994532	pulse	0.0	t		character	word-39.jpg	0.0	214.621395826749	
233.0	116.90460843361689	ISI	1.0		6.0	character	word-39.jpg	0.0	214.62959448042056	0.11668766060483904
234.0	117.02129609422173	word	0.0		46.0	character	word-86.jpg	0.0	214.7462821410254	0.38331007549095375
234.0	117.40460616971268	ISI	1.0		7.0	character	word-86.jpg	0.0	215.12959221651636	0.11669460324446845
235.0	117.52130077295715	word	0.0		46.0	character	word-122.jpg	0.0	215.24628681976083	0.38326691038400895
235.0	117.59638994814486	pulse	0.0	t		character	word-122.jpg	0.0	215.32137599494854	
235.0	117.90456768334116	ISI	1.0		7.0	character	word-122.jpg	0.0	215.62955373014483	0.11667860498801019
236.0	118.02124628832917	word	0.0		46.0	character	word-30.jpg	0.0	215.74623233513285	0.38332909228574863
236.0	118.29636981448948	pulse	0.0	t		character	word-30.jpg	0.0	216.02135586129316	
236.0	118.40457538061492	ISI	1.0		6.0	character	word-30.jpg	0.0	216.1295614274186	0.11667739757285744
237.0	118.52125277818777	word	0.0		46.0	character	word-71.jpg	0.0	216.24623882499145	0.38329136054926494
237.0	118.90454413873704	ISI	1.0		6.0	character	word-71.jpg	0.0	216.62953018554072	0.11668735875082348
237.0	118.99635058639615	pulse	1.0	t		character	word-71.jpg	0.0	216.72133663319983	
238.0	119.02123149748786	word	0.0		46.0	character	word-36.jpg	0.0	216.74621754429154	0.3832955865036638
238.0	119.40452708399152	ISI	1.0		6.0	character	word-36.jpg	0.0	217.1295131307952	0.10861306888546096
239.0	119.51314015287699	word	0.0		47.0	character	word-101.jpg	0.0	217.23812619968066	0.3913810449639641
239.0	119.69632984903365	pulse	0.0	t		character	word-101.jpg	0.0	217.42131589583732	
239.0	119.90452119784095	ISI	1.0		11.0	character	word-101.jpg	0.0	217.62950724464463	0.09999755498301965
240.0	120.00451875282397	baseline	0.0		48.0		baseline	0.0	217.72950479962765	0.3999920310570815
240.0	120.39635438975529	pulse	0.0	t			baseline	0.0	218.12134043655897	
240.0	120.40451078388105	ISI	1.0		11.0		baseline	0.0	218.12949683068473	0.09998759380505362
241.0	120.5044983776861	baseline	0.0		48.0		baseline	0.0	218.22948442448978	0.40001587751521583
241.0	120.90451425520132	ISI	1.0		11.0		baseline	0.0	218.629500302005	0.09998517897383863
242.0	121.00449943417516	baseline	0.0		48.0		baseline	0.0	218.72948548097884	0.39998750324866705
242.0	121.09629652436342	pulse	0.0	t			baseline	0.0	218.8212825711671	
242.0	121.40448693742383	ISI	1.0		11.0		baseline	0.0	219.1294729842275	0.09999000863626861
243.0	121.5044769460601	baseline	0.0		48.0		baseline	0.0	219.22946299286377	0.40000259594307863
243.0	121.79626914621531	pulse	0.0	t			baseline	0.0	219.521255193019	
243.0	121.90447954200317	ISI	1.0		11.0		baseline	0.0	219.62946558880685	0.09999302717460523
244.0	122.00447256917778	baseline	0.0		48.0		baseline	0.0	219.72945861598146	0.39999444588829647
244.0	122.40446701506607	ISI	1.0		11.0		baseline	0.0	220.12945306186975	0.1000105347011413
244.0	122.49626410525525	pulse	1.0	t			baseline	0.0	220.22125015205893	
245.0	122.50447754976722	baseline	0.0		48.0		baseline	0.0	220.2294635965709	0.3999959551583743
245.0	122.90447350492559	ISI	1.0		11.0		baseline	0.0	220.62945955172927	0.09997823633329972
246.0	123.00445174125889	baseline	0.0		48.0		baseline	0.0	220.72943778806257	0.3999941440351904
246.0	123.19622525665909	pulse	0.0	t			baseline	0.0	220.92121130346277	
246.0	123.40444588529408	ISI	1.0		11.0		baseline	0.0	221.12943193209776	0.09997672706413141
247.0	123.50442261235821	baseline	0.0		48.0		baseline	0.0	221.2294086591619	0.40006447599262174
247.0	123.89627153086076	pulse	0.0	t			baseline	0.0	221.62125757766444	
247.0	123.90448708835083	ISI	1.0		11.0		baseline	0.0	221.6294731351545	0.10000540318469575
248.0	124.00449249153553	baseline	0.0		48.0		baseline	0.0	221.7294785383392	0.4000050107742936
248.0	124.40449750230982	ISI	1.0		11.0		baseline	0.0	222.1294835491135	0.09997853818822477
249.0	124.50447604049805	baseline	0.0		48.0		baseline	0.0	222.22946208730173	0.40001195341392304
249.0	124.59627313068722	pulse	0.0	t			baseline	0.0	222.3212591774909	
249.0	124.90448799391197	ISI	1.0		11.0		baseline	0.0	222.62947404071565	0.09998185858148645
250.0	125.00446985249346	baseline	0.0		48.0		baseline	0.0	222.72945589929714	0.39999384218026535
250.0	125.29625118590866	pulse	0.0	t			baseline	0.0	223.02123723271234	
250.0	125.40446369467372	ISI	1.0		11.0		baseline	0.0	223.1294497414774	0.09999544200582022
251.0	125.50445913667954	baseline	0.0		48.0		baseline	0.0	223.22944518348322	0.39999293661912816
251.0	125.90445207329867	ISI	1.0		11.0		baseline	0.0	223.62943812010235	0.1000081198699263
251.0	125.99624584309458	pulse	1.0	t			baseline	0.0	223.72123188989826	
252.0	126.0044601931686	baseline	0.0		48.0		baseline	0.0	223.72944623997228	0.3999814661701748
252.0	126.40444165933877	ISI	1.0		11.0		baseline	0.0	224.12942770614245	0.10002441998040013
253.0	126.50446607931917	baseline	0.0		48.0		baseline	0.0	224.22945212612285	0.3999763346546388
253.0	126.69622631314724	pulse	0.0	t			baseline	0.0	224.4212123599509	
253.0	126.90444241397381	ISI	1.0		11.0		baseline	0.0	224.6294284607775	0.09998125487345533
254.0	127.00442366884727	baseline	0.0		48.0		baseline	0.0	224.72940971565095	0.39999444588829647
254.0	127.39620829246996	pulse	0.0	t			baseline	0.0	225.12119433927364	
254.0	127.40441811473556	ISI	1.0		11.0		baseline	0.0	225.12940416153924	0.09999393273665191
255.0	127.50441204747221	baseline	0.0		48.0		baseline	0.0	225.2293980942759	0.3999887106638198
255.0	127.90440075813603	ISI	1.0		11.0		baseline	0.0	225.6293868049397	0.10000298835348076
256.0	128.00440374648952	baseline	0.0		48.0		baseline	0.0	225.7293897932932	0.3999902199338976
256.0	128.0961902717927	pulse	0.0	t			baseline	0.0	225.82117631859637	
256.0	128.4043939664234	ISI	1.0		11.0		baseline	0.0	226.1293800132271	0.10000781801591074
257.0	128.50440178443932	baseline	0.0		48.0		baseline	0.0	226.229387831243	0.3999808624630532
257.0	128.79616832701413	pulse	0.0	t			baseline	0.0	226.5211543738178	
257.0	128.90438264690238	ISI	1.0		11.0		baseline	0.0	226.62936869370606	0.10000751616189518
258.0	129.00439016306427	baseline	0.0		48.0		baseline	0.0	226.72937620986795	0.3999917292030659
258.0	129.40438189226734	ISI	1.0		11.0		baseline	0.0	227.12936793907102	0.09999514015271416
258.0	129.4961593619537	pulse	1.0	t			baseline	0.0	227.22114540875737	
259.0	129.50437703242005	baseline	0.0		48.0		baseline	0.0	227.22936307922373	0.3999941440342809
259.0	129.90437117645433	ISI	1.0		11.0		baseline	0.0	227.629357223258	0.09999574385983578
260.0	130.00436692031417	baseline	0.0		48.0		baseline	0.0	227.72935296711785	0.39997905133986933
260.0	130.19614435981475	pulse	0.0	t			baseline	0.0	227.92113040661843	
260.0	130.40434597165404	ISI	1.0		11.0		baseline	0.0	228.12933201845772	0.10001174211629404
261.0	130.50435771377033	baseline	0.0		48.0		baseline	0.0	228.229343760574	0.3999878051026826
261.0	130.8961329799231	pulse	0.0	t			baseline	0.0	228.62111902672677	
261.0	130.90434551887301	ISI	1.0		11.0		baseline	0.0	228.6293315656767	0.09999664942188247
262.0	131.0043421682949	baseline	0.0		48.0		baseline	0.0	228.72932821509858	0.39999293661912816
262.0	131.40433510491403	ISI	1.0		11.0		baseline	0.0	229.1293211517177	0.0999963475678669
263.0	131.5043314524819	baseline	0.0		48.0		baseline	0.0	229.22931749928557	0.3999657697677321
263.0	131.59611073329052	pulse	0.0	t			baseline	0.0	229.3210967800942	
263.0	131.90429722224962	ISI	1.0		4.0		baseline	0.0	229.6292832690533	0.11668041611210356
264.0	132.02097763836173	adult	0.0		46.0	face	adult-133.jpg	0.0	229.7459636851654	0.3832807956623583
264.0	132.2960477363822	pulse	0.0	t		face	adult-133.jpg	0.0	230.02103378318589	
264.0	132.4042584340241	ISI	1.0		5.0	face	adult-133.jpg	0.0	230.12924448082777	0.11670969593978953
265.0	132.52096812996388	adult	0.0		46.0	face	adult-117.jpg	0.0	230.24595417676755	0.38327717341599055
265.0	132.90424530337987	ISI	1.0		5.0	face	adult-117.jpg	0.0	230.62923135018355	0.11669158470613183
265.0	132.99606533446513	pulse	1.0	t		face	adult-117.jpg	0.0	230.7210513812688	
266.0	133.020936888086	adult	0.0		46.0	face	adult-76.jpg	0.0	230.74592293488968	0.3832765697079594
266.0	133.40421345779396	ISI	1.0		6.0	face	adult-76.jpg	0.0	231.12919950459764	0.1083453244791599
267.0	133.51255878227312	adult	0.0		47.0	face	adult-64.jpg	0.0	231.2375448290768	0.3916430541457885
267.0	133.69599479120916	pulse	0.0	t		face	adult-64.jpg	0.0	231.42098083801284	
267.0	133.9042018364189	ISI	1.0		6.0	face	adult-64.jpg	0.0	231.62918788322258	0.10833385403111606
268.0	134.01253569045002	adult	0.0		47.0	face	adult-17.jpg	0.0	231.7375217372537	0.39162071695773193
268.0	134.39595473519694	pulse	0.0	t		face	adult-17.jpg	0.0	232.12094078200062	
268.0	134.40415640740775	ISI	1.0		5.0	face	adult-17.jpg	0.0	232.12914245421143	0.10837098206047813
269.0	134.51252738946823	adult	0.0		47.0	face	adult-143.jpg	0.0	232.2375134362719	0.3916406393145735
269.0	134.9041680287828	ISI	1.0		5.0	face	adult-143.jpg	0.0	232.62915407558648	0.1166761901567952
270.0	135.0208442189396	adult	0.0		46.0	face	adult-26.jpg	0.0	232.74583026574328	0.3833097736369382
270.0	135.09594305345126	pulse	0.0	t		face	adult-26.jpg	0.0	232.82092910025494	
270.0	135.40415399257654	ISI	1.0		6.0	face	adult-26.jpg	0.0	233.12914003938022	0.11669943290689844
271.0	135.52085342548344	adult	0.0		46.0	face	adult-104.jpg	0.0	233.24583947228712	0.38329588835767936
271.0	135.79596004782616	pulse	0.0	t		face	adult-104.jpg	0.0	233.52094609462983	
271.0	135.90414931384112	ISI	1.0		7.0	face	adult-104.jpg	0.0	233.6291353606448	0.11668705689680792
272.0	136.02083637073792	adult	0.0		46.0	face	adult-47.jpg	0.0	233.7458224175416	0.3833067550976921
272.0	136.40414312583562	ISI	1.0		7.0	face	adult-47.jpg	0.0	234.1291291726393	0.1250055465661717
272.0	136.49592602889152	pulse	1.0	t		face	adult-47.jpg	0.0	234.2209120756952	
273.0	136.5291486724018	adult	0.0		45.0	face	adult-29.jpg	0.0	234.25413471920547	0.3749725690267951
273.0	136.90412124142858	ISI	1.0		8.0	face	adult-29.jpg	0.0	234.62910728823226	0.11670456442334398
274.0	137.02082580585193	adult	0.0		46.0	face	adult-29.jpg	1.0	234.7458118526556	0.3832823049324361
274.0	137.19591012119145	pulse	0.0	t		face	adult-29.jpg	1.0	234.92089616799512	
274.0	137.40410811078436	ISI	1.0		8.0	face	adult-29.jpg	1.0	235.12909415758804	0.1166918865592379
275.0	137.5207999973436	adult	0.0		46.0	face	adult-27.jpg	0.0	235.24578604414728	0.38331309402929037
275.0	137.6042610903387	response	0.0	b		face	adult-27.jpg	0.0	235.32924713714237	
275.0	137.89590900433177	pulse	0.0	t		face	adult-27.jpg	0.0	235.62089505113545	
275.0	137.9041130913729	ISI	1.0		11.0	face	adult-27.jpg	0.0	235.62909913817657	0.09998336785065476
276.0	138.00409645922355	baseline	0.0		48.0		baseline	0.0	235.72908250602723	0.40000410521315644
276.0	138.4041005644367	ISI	1.0		11.0		baseline	0.0	236.12908661124038	0.09999815869105078
277.0	138.50409872312775	baseline	0.0		48.0		baseline	0.0	236.22908476993143	0.3999808624630532
277.0	138.5958976244401	pulse	0.0	t			baseline	0.0	236.3208836712438	
277.0	138.9040795855908	ISI	1.0		11.0		baseline	0.0	236.6290656323945	0.09999664942188247
278.0	139.0040762350127	baseline	0.0		48.0		baseline	0.0	236.72906228181637	0.4000584389141295
278.0	139.2959209577466	pulse	0.0	t			baseline	0.0	237.02090700455028	
278.0	139.40413467392682	ISI	1.0		11.0		baseline	0.0	237.1291207207305	0.1000002716682502
279.0	139.50413494559507	baseline	0.0		48.0		baseline	0.0	237.22912099239875	0.39998357914828375
279.0	139.90411852474335	ISI	1.0		11.0		baseline	0.0	237.62910457154703	0.09998940492823749
279.0	139.99589539072167	pulse	1.0	t			baseline	0.0	237.72088143752535	
280.0	140.0041079296716	baseline	0.0		48.0		baseline	0.0	237.72909397647527	0.4000065200443714
280.0	140.40411444971596	ISI	1.0		11.0		baseline	0.0	238.12910049651964	0.1000081198699263
281.0	140.5041225695859	baseline	0.0		48.0		baseline	0.0	238.22910861638957	0.399967580890916
281.0	140.6958988016704	pulse	0.0	t			baseline	0.0	238.4208848484741	
281.0	140.9040901504768	ISI	1.0		11.0		baseline	0.0	238.62907619728048	0.10000147908431245
282.0	141.00409162956112	baseline	0.0		48.0		baseline	0.0	238.7290776763648	0.40000561448232475
282.0	141.39587112166828	pulse	0.0	t			baseline	0.0	239.12085716847196	
282.0	141.40409724404344	ISI	1.0		11.0		baseline	0.0	239.12908329084712	0.09998366970467032
283.0	141.5040809137481	baseline	0.0		48.0		baseline	0.0	239.2290669605518	0.3999881069566982
283.0	141.9040690207048	ISI	1.0		11.0		baseline	0.0	239.6290550675085	0.1000316644731356
284.0	142.00410068517795	baseline	0.0		48.0		baseline	0.0	239.72908673198162	0.39995943083704333
284.0	142.0958570250914	pulse	0.0	t			baseline	0.0	239.82084307189507	
284.0	142.404060116015	ISI	1.0		11.0		baseline	0.0	240.12904616281867	0.0999963475678669
285.0	142.50405646358286	baseline	0.0		48.0		baseline	0.0	240.22904251038653	0.3999926347642031
285.0	142.795836891436	pulse	0.0	t			baseline	0.0	240.5208229382397	
285.0	142.90404909834706	ISI	1.0		11.0		baseline	0.0	240.62903514515074	0.09999755498392915
286.0	143.004046653331	baseline	0.0		48.0		baseline	0.0	240.72903270013467	0.40000259594307863
286.0	143.40404924927407	ISI	1.0		11.0		baseline	0.0	241.12903529607775	0.09998759380505362
286.0	143.4958246059823	pulse	1.0	t			baseline	0.0	241.22081065278599	
287.0	143.50403684307912	baseline	0.0		48.0		baseline	0.0	241.2290228898828	0.40000078481989476
287.0	143.90403762789902	ISI	1.0		5.0		baseline	0.0	241.6290236747027	0.1166526455535859
288.0	144.0206902734526	car	0.0		46.0	object	car-90.jpg	0.0	241.74567632025628	0.383252421396719
288.0	144.19573504593154	pulse	0.0	t		object	car-90.jpg	0.0	241.92072109273522	
288.0	144.40394269484932	ISI	1.0		6.0	object	car-90.jpg	0.0	242.128928741653	0.11669279212128458
289.0	144.5206354869706	car	0.0		46.0	object	car-106.jpg	0.0	242.24562153377428	0.3833034347044304
289.0	144.89571853452344	pulse	0.0	t		object	car-106.jpg	0.0	242.62070458132712	
289.0	144.90393892167504	ISI	1.0		7.0	object	car-106.jpg	0.0	242.6289249684787	0.11667800128088857
290.0	145.02061692295592	car	0.0		46.0	object	car-107.jpg	0.0	242.7456029697596	0.3833025291432932
290.0	145.40391945209922	ISI	1.0		7.0	object	car-107.jpg	0.0	243.1289054989029	0.11668645318968629
291.0	145.5206059052889	car	0.0		46.0	object	car-34.jpg	0.0	243.24559195209258	0.3832986050420004
291.0	145.59570383423852	pulse	0.0	t		object	car-34.jpg	0.0	243.3206898810422	
291.0	145.9039045103309	ISI	1.0		7.0	object	car-34.jpg	0.0	243.62889055713458	0.11668886802090128
292.0	146.0205933783518	car	0.0		46.0	object	car-110.jpg	0.0	243.74557942515548	0.3832989068969255
292.0	146.2956846061452	pulse	0.0	t		object	car-110.jpg	0.0	244.02067065294887	
292.0	146.40389228524873	ISI	1.0		7.0	object	car-110.jpg	0.0	244.1288783320524	0.11670697925455897
293.0	146.5205992645033	car	0.0		46.0	object	car-85.jpg	0.0	244.24558531130697	0.3832847197627416
293.0	146.90388398426603	ISI	1.0		7.0	object	car-85.jpg	0.0	244.6288700310697	0.12501912999050546
293.0	146.99567171698436	pulse	1.0	t		object	car-85.jpg	0.0	244.72065776378804	
294.0	147.02890311425654	car	0.0		45.0	object	car-102.jpg	0.0	244.75388916106021	0.37497136161164235
294.0	147.40387447586818	ISI	1.0		7.0	object	car-102.jpg	0.0	245.12886052267186	0.11670184773811343
295.0	147.5205763236063	car	0.0		46.0	object	car-25.jpg	0.0	245.24556237040997	0.3832813993712989
295.0	147.69565460186823	pulse	0.0	t		object	car-25.jpg	0.0	245.4206406486719	
295.0	147.9038577229776	ISI	1.0		7.0	object	car-25.jpg	0.0	245.62884376978127	0.11672026082578668
296.0	148.02057798380338	car	0.0		46.0	object	car-139.jpg	0.0	245.74556403060706	0.3832798901012211
296.0	148.3956248088889	pulse	0.0	t		object	car-139.jpg	0.0	246.12061085569258	
296.0	148.4038578739046	ISI	1.0		7.0	object	car-139.jpg	0.0	246.12884392070828	0.11669369768242177
297.0	148.52055157158702	car	0.0		46.0	object	car-49.jpg	0.0	246.2455376183907	0.38328562532569777
297.0	148.90383719691272	ISI	1.0		7.0	object	car-49.jpg	0.0	246.6288232437164	0.11668766060483904
298.0	149.02052485751756	car	0.0		46.0	object	car-12.jpg	0.0	246.74551090432124	0.3833082643668604
298.0	149.09562580500642	pulse	0.0	t		object	car-12.jpg	0.0	246.8206118518101	
298.0	149.40383312188442	ISI	1.0		7.0	object	car-12.jpg	0.0	247.1288191686881	0.11667679386482632
299.0	149.52050991574924	car	0.0		46.0	object	car-86.jpg	0.0	247.24549596255292	0.38330916992890707
299.0	149.7956234807316	pulse	0.0	t		object	car-86.jpg	0.0	247.52060952753527	
299.0	149.90381908567815	ISI	1.0		6.0	object	car-86.jpg	0.0	247.62880513248183	0.11668524577453354
300.0	150.02050433145268	house	0.0		46.0	place	house-78.jpg	0.0	247.74549037825636	0.38332909228574863
300.0	150.40383342373843	ISI	1.0		7.0	place	house-78.jpg	0.0	248.1288194705421	0.12503784493219428
300.0	150.49567096234932	pulse	1.0	t		place	house-78.jpg	0.0	248.220657009153	
301.0	150.52887126867063	house	0.0		45.0	place	house-64.jpg	0.0	248.2538573154743	0.3749499299856325
301.0	150.90382119865626	ISI	1.0		7.0	place	house-64.jpg	0.0	248.62880724545994	0.11668886801999179
302.0	151.02051006667625	house	0.0		46.0	place	house-133.jpg	0.0	248.74549611347993	0.3832765697088689
302.0	151.19557325224378	pulse	0.0	t		place	house-133.jpg	0.0	248.92055929904745	
302.0	151.40378663638512	ISI	1.0		7.0	place	house-133.jpg	0.0	249.1287726831888	0.11669218841325346
303.0	151.52047882479837	house	0.0		46.0	place	house-87.jpg	0.0	249.24546487160205	0.3832910586952494
303.0	151.89556851313682	pulse	0.0	t		place	house-87.jpg	0.0	249.6205545599405	
303.0	151.90376988349362	ISI	1.0		7.0	place	house-87.jpg	0.0	249.6287559302973	0.10836856722926314
304.0	152.0121384507229	house	0.0		47.0	place	house-137.jpg	0.0	249.73712449752657	0.3916161891493175
304.0	152.4037546398722	ISI	1.0		6.0	place	house-137.jpg	0.0	250.12874068667588	0.10835347453394206
305.0	152.51210811440615	house	0.0		47.0	place	house-47.jpg	0.0	250.23709416120982	0.39165210976261733
305.0	152.5955767537489	pulse	0.0	t		place	house-47.jpg	0.0	250.32056280055258	
305.0	152.90376022416876	ISI	1.0		6.0	place	house-47.jpg	0.0	250.62874627097244	0.10831876133670448
306.0	153.01207898550547	house	0.0		47.0	place	house-23.jpg	0.0	250.73706503230915	0.39166690060301335
306.0	153.2955327736363	pulse	0.0	t		place	house-23.jpg	0.0	251.02051882043997	
306.0	153.40374588610848	ISI	1.0		6.0	place	house-23.jpg	0.0	251.12873193291216	0.11667105864125915
307.0	153.52041694474974	house	0.0		46.0	place	house-85.jpg	0.0	251.24540299155342	0.3833043402664771
307.0	153.90372128501622	ISI	1.0		6.0	place	house-85.jpg	0.0	251.6287073318199	0.11669067914408515
307.0	153.9955165640813	pulse	1.0	t		place	house-85.jpg	0.0	251.72050261088498	
308.0	154.0204119641603	house	0.0		46.0	place	house-89.jpg	0.0	251.74539801096398	0.38328170122440497
308.0	154.4036936653847	ISI	1.0		5.0	place	house-89.jpg	0.0	252.1286797121884	0.1167193552646495
309.0	154.52041302064936	house	0.0		46.0	place	house-35.jpg	0.0	252.24539906745304	0.38328351234758884
309.0	154.69550910829003	pulse	0.0	t		place	house-35.jpg	0.0	252.4204951550937	
309.0	154.90369653299695	ISI	1.0		6.0	place	house-35.jpg	0.0	252.62868257980062	0.1083374762774838
310.0	155.01203400927443	house	0.0		47.0	place	house-41.jpg	0.0	252.7370200560781	0.39164486526897235
310.0	155.39548052272676	pulse	0.0	t		place	house-41.jpg	0.0	253.12046656953044	
310.0	155.4036788745434	ISI	1.0		5.0	place	house-41.jpg	0.0	253.12866492134708	0.10835256897371437
311.0	155.51203144351712	house	0.0		47.0	place	house-129.jpg	0.0	253.2370174903208	0.3916312818437291
311.0	155.90366272536085	ISI	1.0		6.0	place	house-129.jpg	0.0	253.62864877216452	0.11669701807568345
312.0	156.02035974343653	adult	0.0		46.0	face	adult-36.jpg	0.0	253.7453457902402	0.3833127921752748
312.0	156.09553313586093	pulse	0.0	t		face	adult-36.jpg	0.0	253.8205191826646	
312.0	156.4036725356118	ISI	1.0		6.0	face	adult-36.jpg	0.0	254.12865858241548	0.11668826431287016
313.0	156.52036079992467	adult	0.0		46.0	face	adult-56.jpg	0.0	254.24534684672835	0.38328351234849833
313.0	156.79544689620252	pulse	0.0	t		face	adult-56.jpg	0.0	254.5204329430062	
313.0	156.90364431227317	ISI	1.0		7.0	face	adult-56.jpg	0.0	254.62863035907685	0.11669037729006959
314.0	157.02033468956324	adult	0.0		46.0	face	adult-60.jpg	0.0	254.74532073636692	0.3833354312173469
314.0	157.4036701207806	ISI	1.0		7.0	face	adult-60.jpg	0.0	255.12865616758427	0.12501973369853658
314.0	157.4954952833823	pulse	1.0	t		face	adult-60.jpg	0.0	255.22048133018598	
315.0	157.52868985447913	adult	0.0		45.0	face	adult-54.jpg	0.0	255.2536759012828	0.3749559670632152
315.0	157.90364582154234	ISI	1.0		7.0	face	adult-54.jpg	0.0	255.62863186834602	0.12502577077611932
316.0	158.02867159231846	adult	0.0		45.0	face	adult-34.jpg	0.0	255.75365763912214	0.37499007655333116
316.0	158.19544073838279	pulse	0.0	t		face	adult-34.jpg	0.0	255.92042678518646	
316.0	158.4036616688718	ISI	1.0		7.0	face	adult-34.jpg	0.0	256.12864771567547	0.1166894717289324
317.0	158.52035114060072	adult	0.0		46.0	face	adult-135.jpg	0.0	256.2453371874044	0.3832530251038406
317.0	158.89538800450737	pulse	0.0	t		face	adult-135.jpg	0.0	256.62037405131105	
317.0	158.90360416570456	ISI	1.0		6.0	face	adult-135.jpg	0.0	256.62859021250824	0.116680114258088
318.0	159.02028427996265	adult	0.0		46.0	face	adult-99.jpg	0.0	256.74527032676633	0.38330524582761427
318.0	159.40358952579027	ISI	1.0		6.0	face	adult-99.jpg	0.0	257.12857557259395	0.11668494392051798
319.0	159.52027446971078	adult	0.0		46.0	face	adult-106.jpg	0.0	257.24526051651446	0.3832946809416171
319.0	159.59540439517423	pulse	0.0	t		face	adult-106.jpg	0.0	257.3203904419779	
319.0	159.9035691506524	ISI	1.0		7.0	face	adult-106.jpg	0.0	257.6285551974561	0.11671271447903564
320.0	160.02028186513144	adult	0.0		46.0	face	adult-121.jpg	0.0	257.7452679119351	0.3832995106040471
320.0	160.29536765955436	pulse	0.0	t		face	adult-121.jpg	0.0	258.02035370635804	
320.0	160.40358137573548	ISI	1.0		6.0	face	adult-121.jpg	0.0	258.12856742253916	0.11666924751716579
321.0	160.52025062325265	adult	0.0		46.0	face	adult-71.jpg	0.0	258.24523667005633	0.383304038413371
321.0	160.90355466166602	ISI	1.0		7.0	face	adult-71.jpg	0.0	258.6285407084697	0.11666351229268912
321.0	160.99535114814626	pulse	1.0	t		face	adult-71.jpg	0.0	258.72033719494993	
322.0	161.0202181739587	adult	0.0		46.0	face	adult-74.jpg	0.0	258.7452042207624	0.383323658916197
322.0	161.4035418328749	ISI	1.0		6.0	face	adult-74.jpg	0.0	259.1285278796786	0.11670275330016011
323.0	161.52024458617507	adult	0.0		46.0	face	adult-68.jpg	0.0	259.24523063297875	0.3832804938083427
323.0	161.69532980707572	pulse	0.0	t		face	adult-68.jpg	0.0	259.4203158538794	
323.0	161.9035250799834	ISI	1.0		6.0	face	adult-68.jpg	0.0	259.6285111267871	0.11669249026817852
324.0	162.0202175702516	word	0.0		46.0	character	word-11.jpg	0.0	259.74520361705527	0.3833073588048137
324.0	162.39530182521958	pulse	0.0	t		character	word-11.jpg	0.0	260.12028787202325	
324.0	162.4035249290564	ISI	1.0		6.0	character	word-11.jpg	0.0	260.1285109758601	0.11669611251454626
325.0	162.52022104157095	word	0.0		46.0	character	word-52.jpg	0.0	260.2452070883746	0.3832871345948661
325.0	162.90350817616581	ISI	1.0		7.0	character	word-52.jpg	0.0	260.6284942229695	0.11668434021248686
326.0	163.0201925163783	word	0.0		46.0	character	word-92.jpg	0.0	260.745178563182	0.38330916992890707
326.0	163.09529316201315	pulse	0.0	t		character	word-92.jpg	0.0	260.8202792088168	
326.0	163.4035016863072	ISI	1.0		6.0	character	word-92.jpg	0.0	261.1284877331109	0.11668222723437793
327.0	163.5201839135416	word	0.0		46.0	character	word-67.jpg	0.0	261.24516996034527	0.38329920875094103
327.0	163.79528268768263	pulse	0.0	t		character	word-67.jpg	0.0	261.5202687344863	
327.0	163.90348312229253	ISI	1.0		7.0	character	word-67.jpg	0.0	261.6284691690962	0.11667920869604131
328.0	164.02016233098857	word	0.0		46.0	character	word-142.jpg	0.0	261.74514837779225	0.38332124408407253
328.0	164.40348357507264	ISI	1.0		7.0	character	word-142.jpg	0.0	262.1284696218763	0.12501430032898497
328.0	164.4952631577362	pulse	1.0	t		character	word-142.jpg	0.0	262.22024920453987	
329.0	164.52849787540163	word	0.0		45.0	character	word-58.jpg	0.0	262.2534839222053	0.37499430250773
329.0	164.90349217790936	ISI	1.0		6.0	character	word-58.jpg	0.0	262.62847822471304	0.11668826431287016
330.0	165.02018044222223	word	0.0		46.0	character	word-49.jpg	0.0	262.7451664890259	0.38329377538047993
330.0	165.1952720020554	pulse	0.0	t		character	word-49.jpg	0.0	262.92025804885907	
330.0	165.4034742176027	ISI	1.0		7.0	character	word-49.jpg	0.0	263.1284602644064	0.11670999779289559
331.0	165.5201842153956	word	0.0		46.0	character	word-94.jpg	0.0	263.2451702621993	0.38327023077636113
331.0	165.8952328516043	pulse	0.0	t		character	word-94.jpg	0.0	263.620218898408	
331.0	165.90345444617196	ISI	1.0		7.0	character	word-94.jpg	0.0	263.62844049297564	0.1166683419560286
332.0	166.020122788128	word	0.0		46.0	character	word-56.jpg	0.0	263.74510883493167	0.3833010198732154
332.0	166.4034238080012	ISI	1.0		7.0	character	word-56.jpg	0.0	264.1284098548049	0.11668494392051798
333.0	166.52010875192173	word	0.0		46.0	character	word-56.jpg	1.0	264.2450947987254	0.38332577189339645
333.0	166.5951991345246	pulse	0.0	t		character	word-56.jpg	1.0	264.32018518132827	
333.0	166.90343452381512	ISI	1.0		6.0	character	word-56.jpg	1.0	264.6284205706188	0.1167051681313751
334.0	167.0201396919465	word	0.0		46.0	character	word-81.jpg	0.0	264.7451257387502	0.3832563454971023
334.0	167.0785535523528	response	0.0	b		character	word-81.jpg	0.0	264.80353959915647	
334.0	167.29516511559086	pulse	0.0	t		character	word-81.jpg	0.0	265.02015116239454	
334.0	167.4033960374436	ISI	1.0		6.0	character	word-81.jpg	0.0	265.1283820842473	0.11669067914408515
335.0	167.52008671658768	word	0.0		46.0	character	word-16.jpg	0.0	265.24507276339136	0.3833263756005181
335.0	167.9034130921882	ISI	1.0		6.0	character	word-16.jpg	0.0	265.6283991389919	0.12499498167926504
335.0	167.99531069972454	pulse	1.0	t		character	word-16.jpg	0.0	265.7202967465282	
336.0	168.02840807386747	body	0.0		45.0	body	body-27.jpg	0.0	265.75339412067115	0.37498464318287006
336.0	168.40339271705034	ISI	1.0		6.0	body	body-27.jpg	0.0	266.128378763854	0.11667981240407244
337.0	168.5200725294544	body	0.0		46.0	body	body-108.jpg	0.0	266.2450585762581	0.3833034347044304
337.0	168.69516529670273	pulse	0.0	t		body	body-108.jpg	0.0	266.4201513435064	
337.0	168.90337596415884	ISI	1.0		7.0	body	body-108.jpg	0.0	266.6283620109625	0.11665868263116863
338.0	169.02003464679	body	0.0		46.0	body	body-96.jpg	0.0	266.7450206935937	0.38332245150104427
338.0	169.39512644810657	pulse	0.0	t		body	body-96.jpg	0.0	267.12011249491025	
338.0	169.40335709829105	ISI	1.0		7.0	body	body-96.jpg	0.0	267.12834314509473	0.1166840383575618
339.0	169.52004113664862	body	0.0		46.0	body	body-98.jpg	0.0	267.2450271834523	0.3833001143120782
339.0	169.9033412509607	ISI	1.0		6.0	body	body-98.jpg	0.0	267.6283272977644	0.1166879624597641
340.0	170.02002921342046	body	0.0		46.0	body	body-76.jpg	0.0	267.74501526022414	0.38329830318798486
340.0	170.09513770725698	pulse	0.0	t		body	body-76.jpg	0.0	267.82012375406066	
340.0	170.40332751660844	ISI	1.0		7.0	body	body-76.jpg	0.0	268.1283135634121	0.11670577183940622
341.0	170.52003328844785	body	0.0		46.0	body	body-82.jpg	0.0	268.2450193352515	0.38328562532478827
341.0	170.79510942354682	pulse	0.0	t		body	body-82.jpg	0.0	268.5200954703505	
341.0	170.90331891377264	ISI	1.0		6.0	body	body-82.jpg	0.0	268.6283049605763	0.11668222723528743
342.0	171.02000114100792	body	0.0		46.0	body	body-119.jpg	0.0	268.7449871878116	0.3833118866141376
342.0	171.40331302762206	ISI	1.0		7.0	body	body-119.jpg	0.0	269.12829907442574	0.11669671622166788
342.0	171.49515267921015	pulse	1.0	t		body	body-119.jpg	0.0	269.22013872601383	
343.0	171.52000974384373	body	0.0		46.0	body	body-33.jpg	0.0	269.2449957906474	0.38332094223096647
343.0	171.9033306860747	ISI	1.0		7.0	body	body-33.jpg	0.0	269.6283167328784	0.11669943290689844
344.0	172.0200301189816	body	0.0		46.0	body	body-33.jpg	1.0	269.7450161657853	0.38329739762684767
344.0	172.1951455252729	pulse	0.0	t		body	body-33.jpg	1.0	269.92013157207657	
344.0	172.40332751660844	ISI	1.0		5.0	body	body-33.jpg	1.0	270.1283135634121	0.11668886802090128
345.0	172.52001638462934	body	0.0		46.0	body	body-47.jpg	0.0	270.245002431433	0.3832823049324361
345.0	172.6950843998584	response	0.0	b		body	body-47.jpg	0.0	270.42007044666207	
345.0	172.8950662282541	pulse	0.0	t		body	body-47.jpg	0.0	270.6200522750578	
345.0	172.90329868956178	ISI	1.0		6.0	body	body-47.jpg	0.0	270.62828473636546	0.11672056267980224
346.0	173.02001925224158	body	0.0		46.0	body	body-9.jpg	0.0	270.74500529904526	0.38326208072157897
346.0	173.40328133296316	ISI	1.0		7.0	body	body-9.jpg	0.0	271.12826737976684	0.11671331818615727
347.0	173.51999465114932	body	0.0		46.0	body	body-23.jpg	0.0	271.244980697953	0.3832798901003116
347.0	173.59509016526772	pulse	0.0	t		body	body-23.jpg	0.0	271.3200762120714	
347.0	173.90327454124963	ISI	1.0		6.0	body	body-23.jpg	0.0	271.6282605880533	0.11671362004017283
348.0	174.0199881612898	body	0.0		46.0	body	body-21.jpg	0.0	271.7449742080935	0.38328653088683495
348.0	174.29504709071716	pulse	0.0	t		body	body-21.jpg	0.0	272.02003313752084	
348.0	174.40327469217664	ISI	1.0		7.0	body	body-21.jpg	0.0	272.1282607389803	0.1166958106605307
349.0	174.51997050283717	body	0.0		46.0	body	body-83.jpg	0.0	272.24495654964085	0.3832759660008378
349.0	174.903246468838	ISI	1.0		6.0	body	body-83.jpg	0.0	272.6282325156417	0.1250227522368732
349.0	174.99511298542257	pulse	1.0	t		body	body-83.jpg	0.0	272.72009903222624	
350.0	175.02826922107488	body	0.0		45.0	body	body-38.jpg	0.0	272.75325526787856	0.3749849450368856
350.0	175.40325416611176	ISI	1.0		7.0	body	body-38.jpg	0.0	273.12824021291544	0.11669309397530014
351.0	175.51994726008706	body	0.0		46.0	body	body-40.jpg	0.0	273.24493330689074	0.38328954942608107
351.0	175.69502674576415	pulse	0.0	t		body	body-40.jpg	0.0	273.42001279256783	
351.0	175.90323680951315	ISI	1.0		6.0	body	body-40.jpg	0.0	273.6282228563168	0.11669701807568345
352.0	176.01993382758883	body	0.0		46.0	body	body-7.jpg	0.0	273.7449198743925	0.3833055476825393
352.0	176.39501476216446	pulse	0.0	t		body	body-7.jpg	0.0	274.12000080896814	
352.0	176.40323937527137	ISI	1.0		6.0	body	body-7.jpg	0.0	274.12822542207505	0.11669098099810071
353.0	176.51993035626947	body	0.0		46.0	body	body-60.jpg	0.0	274.24491640307315	0.3832475917333795
353.0	176.90317794800285	ISI	1.0		6.0	body	body-60.jpg	0.0	274.6281639948065	0.1167036588622068
354.0	177.01988160686506	body	0.0		46.0	body	body-29.jpg	0.0	274.74486765366873	0.3832986050429099
354.0	177.0949734987371	pulse	0.0	t		body	body-29.jpg	0.0	274.81995954554077	
354.0	177.40318021190797	ISI	1.0		7.0	body	body-29.jpg	0.0	275.12816625871164	0.11668675504279236
355.0	177.51986696695076	body	0.0		46.0	body	body-41.jpg	0.0	275.24485301375444	0.3833019254352621
355.0	177.7949506483974	pulse	0.0	t		body	body-41.jpg	0.0	275.51993669520107	
355.0	177.90316889238602	ISI	1.0		7.0	body	body-41.jpg	0.0	275.6281549391897	0.11668645318968629
356.0	178.0198553455757	body	0.0		46.0	body	body-110.jpg	0.0	275.7448413923794	0.38328502161766664
356.0	178.40314036719337	ISI	1.0		7.0	body	body-110.jpg	0.0	276.12812641399705	0.11668675504370185
356.0	178.49492538322647	pulse	1.0	t		body	body-110.jpg	0.0	276.21991143003015	
357.0	178.51982712223707	body	0.0		46.0	body	body-66.jpg	0.0	276.24481316904075	0.3833176218377048
357.0	178.90314474407478	ISI	1.0		7.0	body	body-66.jpg	0.0	276.62813079087846	0.11665687150798476
358.0	179.01980161558276	body	0.0		46.0	body	body-65.jpg	0.0	276.74478766238644	0.3833299978477953
358.0	179.1949140033339	pulse	0.0	t		body	body-65.jpg	0.0	276.9199000501376	
358.0	179.40313161343056	ISI	1.0		7.0	body	body-65.jpg	0.0	277.12811766023424	0.11668766060483904
359.0	179.5198192740354	body	0.0		46.0	body	body-53.jpg	0.0	277.2448053208391	0.3832907568412338
359.0	179.8948974919258	pulse	0.0	t		body	body-53.jpg	0.0	277.6198835387295	
359.0	179.90311003087663	ISI	1.0		6.0	body	body-53.jpg	0.0	277.6280960776803	0.11668373650445574
360.0	180.0197937673811	house	0.0		46.0	place	house-100.jpg	0.0	277.74477981418477	0.3832925679644177
360.0	180.4030863353455	ISI	1.0		6.0	place	house-100.jpg	0.0	278.1280723821492	0.11670818667062122
361.0	180.51979452201613	house	0.0		46.0	place	house-80.jpg	0.0	278.2447805688198	0.38330373655844596
361.0	180.59489063984256	pulse	0.0	t		place	house-80.jpg	0.0	278.31987668664624	
361.0	180.90309825857457	ISI	1.0		6.0	place	house-80.jpg	0.0	278.62808430537825	0.11668735875173297
362.0	181.0197856173263	house	0.0		46.0	place	house-70.jpg	0.0	278.74477166413	0.383289247571156
362.0	181.29487110989612	pulse	0.0	t		place	house-70.jpg	0.0	279.0198571566998	
362.0	181.40307486489746	ISI	1.0		7.0	place	house-70.jpg	0.0	279.12806091170114	0.1167012440309918
363.0	181.51977610892845	house	0.0		46.0	place	house-132.jpg	0.0	279.24476215573213	0.38327385302272887
363.0	181.90304996195118	ISI	1.0		6.0	place	house-132.jpg	0.0	279.62803600875486	0.11671362004017283
363.0	181.99486184298075	pulse	1.0	t		place	house-132.jpg	0.0	279.71984788978443	
364.0	182.01976358199136	house	0.0		46.0	place	house-59.jpg	0.0	279.74474962879503	0.38327777712402167
364.0	182.40304135911538	ISI	1.0		7.0	place	house-59.jpg	0.0	280.12802740591906	0.11671180891698896
365.0	182.51975316803237	house	0.0		46.0	place	house-59.jpg	1.0	280.24473921483604	0.3833079625128448
365.0	182.69486887617677	pulse	0.0	t		place	house-59.jpg	1.0	280.41985492298045	
365.0	182.85316377596246	response	0.0	b		place	house-59.jpg	1.0	280.57814982276614	
365.0	182.9030611305452	ISI	1.0		4.0	place	house-59.jpg	1.0	280.6280471773489	0.11671060150183621
366.0	183.01977173204705	house	0.0		46.0	place	house-118.jpg	0.0	280.7447577788507	0.38330132172723097
366.0	183.394844818421	pulse	0.0	t		place	house-118.jpg	0.0	281.1198308652247	
366.0	183.40307305377428	ISI	1.0		7.0	place	house-118.jpg	0.0	281.12805910057796	0.11669037729006959
367.0	183.51976343106435	house	0.0		46.0	place	house-108.jpg	0.0	281.244749477868	0.38325423251990287
367.0	183.90301766358425	ISI	1.0		5.0	place	house-108.jpg	0.0	281.62800371038793	0.11668192538127187
368.0	184.01969958896552	house	0.0		46.0	place	house-33.jpg	0.0	281.7446856357692	0.3833121884681532
368.0	184.09480204572446	pulse	0.0	t		place	house-33.jpg	0.0	281.81978809252814	
368.0	184.40301177743368	ISI	1.0		7.0	place	house-33.jpg	0.0	282.12799782423735	0.11668947172802291
369.0	184.5197012491617	house	0.0		46.0	place	house-12.jpg	0.0	282.2446872959654	0.38329286981934274
369.0	184.79477557313749	pulse	0.0	t		place	house-12.jpg	0.0	282.51976161994116	
369.0	184.90299411898104	ISI	1.0		6.0	place	house-12.jpg	0.0	282.6279801657847	0.11667890684202575
370.0	185.01967302582307	house	0.0		46.0	place	house-51.jpg	0.0	282.74465907262675	0.38332335706218146
370.0	185.40299638288525	ISI	1.0		6.0	place	house-51.jpg	0.0	283.1279824296889	0.1166840383575618
370.0	185.49477083403144	pulse	1.0	t		place	house-51.jpg	0.0	283.2197568808351	
371.0	185.5196804212428	house	0.0		46.0	place	house-2.jpg	0.0	283.2446664680465	0.3832916624032805
371.0	185.9029720836461	ISI	1.0		7.0	place	house-2.jpg	0.0	283.62795813044977	0.11670305515417567
372.0	186.01967513880027	car	0.0		46.0	object	car-117.jpg	0.0	283.74466118560395	0.3832813993703894
372.0	186.1947262502108	pulse	0.0	t		object	car-117.jpg	0.0	283.9197122970145	
372.0	186.40295653817066	ISI	1.0		5.0	object	car-117.jpg	0.0	284.12794258497433	0.11668977358203847
373.0	186.5196463117527	car	0.0		46.0	object	car-9.jpg	0.0	284.2446323585564	0.3832898512800966
373.0	186.89472754818235	pulse	0.0	t		object	car-9.jpg	0.0	284.619713594986	
373.0	186.9029361630328	ISI	1.0		6.0	object	car-9.jpg	0.0	284.62792220983647	0.1166982254908362
374.0	187.01963438852363	car	0.0		46.0	object	car-3.jpg	0.0	284.7446204353273	0.38329437908851105
374.0	187.40292876761214	ISI	1.0		7.0	object	car-3.jpg	0.0	285.1279148144158	0.11669943290689844
375.0	187.51962820051904	car	0.0		46.0	object	car-92.jpg	0.0	285.2446142473227	0.3832925679644177
375.0	187.59472129980713	pulse	0.0	t		object	car-92.jpg	0.0	285.3197073466108	
375.0	187.90292076848345	ISI	1.0		4.0	object	car-92.jpg	0.0	285.62790681528713	0.1166973199306085
376.0	188.01961808841406	car	0.0		46.0	object	car-140.jpg	0.0	285.74460413521774	0.38328653088592546
376.0	188.29470569396108	pulse	0.0	t		object	car-140.jpg	0.0	286.01969174076476	
376.0	188.4029046193	ISI	1.0		7.0	object	car-140.jpg	0.0	286.12789066610367	0.11666622897882917
377.0	188.51957084827882	car	0.0		46.0	object	car-119.jpg	0.0	286.2445568950825	0.38333512936424086
377.0	188.90290597764306	ISI	1.0		5.0	object	car-119.jpg	0.0	286.62789202444674	0.11668101981922518
377.0	188.99472027350384	pulse	1.0	t		object	car-119.jpg	0.0	286.7197063203075	
378.0	189.01958699746228	car	0.0		46.0	object	car-39.jpg	0.0	286.74457304426596	0.38328653088683495
378.0	189.40287352834912	ISI	1.0		7.0	object	car-39.jpg	0.0	287.1278595751528	0.1166958106605307
379.0	189.51956933900965	car	0.0		46.0	object	car-93.jpg	0.0	287.2445553858133	0.38333060155491694
379.0	189.69470406394976	pulse	0.0	t		object	car-93.jpg	0.0	287.41969011075344	
379.0	189.90289994056457	ISI	1.0		7.0	object	car-93.jpg	0.0	287.62788598736824	0.11670064032296068
380.0	190.01960058088753	car	0.0		46.0	object	car-56.jpg	0.0	287.7445866276912	0.3832955865036638
380.0	190.39467638394763	pulse	0.0	t		object	car-56.jpg	0.0	288.1196624307513	
380.0	190.4028961673912	ISI	1.0		6.0	object	car-56.jpg	0.0	288.12788221419487	0.1166816235272563
381.0	190.51957779091845	car	0.0		46.0	object	car-8.jpg	0.0	288.2445638377221	0.3833118866141376
381.0	190.90288967753258	ISI	1.0		7.0	object	car-8.jpg	0.0	288.62787572433626	0.11668675504370185
382.0	191.0195764325763	car	0.0		46.0	object	car-47.jpg	0.0	288.74456247937997	0.38329045498721825
382.0	191.09467345596477	pulse	0.0	t		object	car-47.jpg	0.0	288.81965950276845	
382.0	191.4028668875635	ISI	1.0		6.0	object	car-47.jpg	0.0	289.1278529343672	0.11670124403008231
383.0	191.5195681315936	car	0.0		46.0	object	car-36.jpg	0.0	289.24455417839727	0.38325604364308674
383.0	191.7946155905729	pulse	0.0	t		object	car-36.jpg	0.0	289.5196016373766	
383.0	191.90282417523667	ISI	1.0		6.0	object	car-36.jpg	0.0	289.62781022204035	0.11669369768333127
384.0	192.01951787292	adult	0.0		46.0	face	adult-87.jpg	0.0	289.7445039197237	0.3832898512800966
384.0	192.4028077242001	ISI	1.0		5.0	face	adult-87.jpg	0.0	290.1277937710038	0.11666713453996636
384.0	192.49461658669043	pulse	1.0	t		face	adult-87.jpg	0.0	290.2196026334941	
385.0	192.51947485874007	adult	0.0		46.0	face	adult-142.jpg	0.0	290.24446090554375	0.3833269793085492
385.0	192.90280183804862	ISI	1.0		7.0	face	adult-142.jpg	0.0	290.6277878848523	0.1167012440309918
386.0	193.0195030820796	adult	0.0		46.0	face	adult-144.jpg	0.0	290.7444891288833	0.38328351234758884
386.0	193.194574417701	pulse	0.0	t		face	adult-144.jpg	0.0	290.9195604645047	
386.0	193.4027865944272	ISI	1.0		6.0	face	adult-144.jpg	0.0	291.1277726412309	0.11669913105288288
387.0	193.51948572548008	adult	0.0		46.0	face	adult-95.jpg	0.0	291.24447177228376	0.38329286981843325
387.0	193.89456364151738	pulse	0.0	t		face	adult-95.jpg	0.0	291.61954968832106	
387.0	193.9027785952985	ISI	1.0		6.0	face	adult-95.jpg	0.0	291.6277646421022	0.11669279212128458
388.0	194.0194713874198	adult	0.0		46.0	face	adult-75.jpg	0.0	291.7444574342235	0.38329679391972604
388.0	194.40276818133952	ISI	1.0		6.0	face	adult-75.jpg	0.0	292.1277542281432	0.11669490509848401
389.0	194.519463086438	adult	0.0		46.0	face	adult-11.jpg	0.0	292.2444491332417	0.38329347352646437
389.0	194.6028798069101	pulse	0.0	t		face	adult-11.jpg	0.0	292.3278658537138	
389.0	194.90275655996447	ISI	1.0		7.0	face	adult-11.jpg	0.0	292.62774260676815	0.116697319929699
390.0	195.01945387989417	adult	0.0		46.0	face	adult-28.jpg	0.0	292.74443992669785	0.38326298628271616
390.0	195.30287567151208	pulse	0.0	t		face	adult-28.jpg	0.0	293.02786171831576	
