trial_nr	onset	event_type	phase	response	nr_frames	face_age	face_sex	face_eth	attractiveness	expression	face_id	sub_id	ses	run	trial_type	catch	rating_type	onset_abs	duration
-1.0	0.054224119195168896	fix	0.0		714													29.876703049913885	5.966220026080009
-1.0	0.7040472338267136	pulse	0.0	t														30.52652616454543	
-1.0	1.4040327449229153	pulse	0.0	t														31.226511675641632	
-1.0	2.103991693028547	pulse	0.0	t														31.926470623747264	
-1.0	2.803989881915186	pulse	0.0	t														32.6264688126339	
-1.0	3.5039759967157806	pulse	0.0	t														33.3264549274345	
-1.0	4.203943396682007	pulse	0.0	t														34.026422327400724	
-1.0	4.903934944821231	pulse	0.0	t														34.72641387553995	
-1.0	5.6039005336742775	pulse	0.0	t														35.426379464392994	
0.0	6.020444145275178	face	0.0		144	31.0	female	white	2.1822522881018704	smiling	102	sub-07	2.0	6.0	102_smiling	0.0		35.842923075993895	1.233293086377671
0.0	6.30388242254412	pulse	0.0	t		31.0	female	white	2.1822522881018704	smiling	102	sub-07	2.0	6.0	102_smiling	0.0		36.12636135326284	
0.0	7.003858878075334	pulse	0.0	t		31.0	female	white	2.1822522881018704	smiling	102	sub-07	2.0	6.0	102_smiling	0.0		36.82633780879405	
0.0	7.253737231652849	fix	1.0		445	31.0	female	white	2.1822522881018704	smiling	102	sub-07	2.0	6.0	102_smiling	0.0		37.076216162371566	3.758221849267102
0.0	7.7038380502763175	pulse	1.0	t		31.0	female	white	2.1822522881018704	smiling	102	sub-07	2.0	6.0	102_smiling	0.0		37.526316980995034	
0.0	8.403813902103138	pulse	1.0	t		31.0	female	white	2.1822522881018704	smiling	102	sub-07	2.0	6.0	102_smiling	0.0		38.226292832821855	
0.0	9.103800922460323	pulse	1.0	t		31.0	female	white	2.1822522881018704	smiling	102	sub-07	2.0	6.0	102_smiling	0.0		38.92627985317904	
0.0	9.803757153896186	pulse	1.0	t		31.0	female	white	2.1822522881018704	smiling	102	sub-07	2.0	6.0	102_smiling	0.0		39.6262360846149	
0.0	10.503749305739802	pulse	1.0	t		31.0	female	white	2.1822522881018704	smiling	102	sub-07	2.0	6.0	102_smiling	0.0		40.32622823645852	
1.0	11.01195908091995	face	0.0		146	47.0	male	east_asian	2.171110226820533	neutral	024	sub-07	2.0	6.0	024_neutral	0.0		40.83443801163867	1.2416296394676465
1.0	11.203754437226962	pulse	0.0	t		47.0	male	east_asian	2.171110226820533	neutral	024	sub-07	2.0	6.0	024_neutral	0.0		41.02623336794568	
1.0	11.903704631618893	pulse	0.0	t		47.0	male	east_asian	2.171110226820533	neutral	024	sub-07	2.0	6.0	024_neutral	0.0		41.72618356233761	
1.0	12.253588720387597	fix	1.0		445	47.0	male	east_asian	2.171110226820533	neutral	024	sub-07	2.0	6.0	024_neutral	0.0		42.076067651106314	3.758220038154832
1.0	12.603691953828275	pulse	1.0	t		47.0	male	east_asian	2.171110226820533	neutral	024	sub-07	2.0	6.0	024_neutral	0.0		42.42617088454699	
1.0	13.30367172973365	pulse	1.0	t		47.0	male	east_asian	2.171110226820533	neutral	024	sub-07	2.0	6.0	024_neutral	0.0		43.12615066045237	
1.0	14.003647883412668	pulse	1.0	t		47.0	male	east_asian	2.171110226820533	neutral	024	sub-07	2.0	6.0	024_neutral	0.0		43.826126814131385	
1.0	14.703632790804477	pulse	1.0	t		47.0	male	east_asian	2.171110226820533	neutral	024	sub-07	2.0	6.0	024_neutral	0.0		44.52611172152319	
1.0	15.403607435222511	pulse	1.0	t		47.0	male	east_asian	2.171110226820533	neutral	024	sub-07	2.0	6.0	024_neutral	0.0		45.22608636594123	
2.0	16.01180875854243	face	0.0		146	26.0	female	white	4.854755272582572	neutral	027	sub-07	2.0	6.0	027_neutral	0.0		45.834287689261146	1.241629941319843
2.0	16.103586607422585	pulse	0.0	t		26.0	female	white	4.854755272582572	neutral	027	sub-07	2.0	6.0	027_neutral	0.0		45.9260655381413	
2.0	16.803561855545013	pulse	0.0	t		26.0	female	white	4.854755272582572	neutral	027	sub-07	2.0	6.0	027_neutral	0.0		46.62604078626373	
2.0	17.253438699862272	fix	1.0		444	26.0	female	white	4.854755272582572	neutral	027	sub-07	2.0	6.0	027_neutral	0.0		47.07591763058099	3.7582152085196867
2.0	17.503548272197804	pulse	1.0	t		26.0	female	white	4.854755272582572	neutral	027	sub-07	2.0	6.0	027_neutral	0.0		47.32602720291652	
2.0	18.203514464755244	pulse	1.0	t		26.0	female	white	4.854755272582572	neutral	027	sub-07	2.0	6.0	027_neutral	0.0		48.02599339547396	
2.0	18.90349242954744	pulse	1.0	t		26.0	female	white	4.854755272582572	neutral	027	sub-07	2.0	6.0	027_neutral	0.0		48.72597136026616	
2.0	19.60346858322646	pulse	1.0	t		26.0	female	white	4.854755272582572	neutral	027	sub-07	2.0	6.0	027_neutral	0.0		49.425947513945175	
2.0	20.303462546183255	pulse	1.0	t		26.0	female	white	4.854755272582572	neutral	027	sub-07	2.0	6.0	027_neutral	0.0		50.12594147690197	
3.0	21.01165390838196	face	0.0		147	22.0	female	west_asian	3.8205332272184642	smiling	066	sub-07	2.0	6.0	066_smiling	0.0		50.834132839100675	1.2416368839194547
3.0	21.004851669846175	pulse	0.0	t		22.0	female	west_asian	3.8205332272184642	smiling	066	sub-07	2.0	6.0	066_smiling	0.0		50.82733060056489	
3.0	21.703442020236253	pulse	0.0	t		22.0	female	west_asian	3.8205332272184642	smiling	066	sub-07	2.0	6.0	066_smiling	0.0		51.52592095095497	
3.0	22.253290792301414	fix	1.0		443	22.0	female	west_asian	3.8205332272184642	smiling	066	sub-07	2.0	6.0	066_smiling	0.0		52.07576972302013	3.7665559875395047
3.0	22.403406401680513	pulse	1.0	t		22.0	female	west_asian	3.8205332272184642	smiling	066	sub-07	2.0	6.0	066_smiling	0.0		52.22588533239923	
3.0	23.103377122019992	pulse	1.0	t		22.0	female	west_asian	3.8205332272184642	smiling	066	sub-07	2.0	6.0	066_smiling	0.0		52.92585605273871	
3.0	23.8033541812556	pulse	1.0	t		22.0	female	west_asian	3.8205332272184642	smiling	066	sub-07	2.0	6.0	066_smiling	0.0		53.625833111974316	
3.0	24.50333456086537	pulse	1.0	t		22.0	female	west_asian	3.8205332272184642	smiling	066	sub-07	2.0	6.0	066_smiling	0.0		54.325813491584086	
3.0	25.20332278863043	pulse	1.0	t		22.0	female	west_asian	3.8205332272184642	smiling	066	sub-07	2.0	6.0	066_smiling	0.0		55.02580171934915	
3.0	25.903291094153246	pulse	1.0	t		22.0	female	west_asian	3.8205332272184642	smiling	066	sub-07	2.0	6.0	066_smiling	0.0		55.72577002487196	
4.0	26.01984677984092	face	0.0		146	19.0	female	white	4.298846000795861	neutral	100	sub-07	2.0	6.0	100_neutral	0.0		55.842325710559635	1.2332985197172093
4.0	26.60327992562361	pulse	0.0	t		19.0	female	white	4.298846000795861	neutral	100	sub-07	2.0	6.0	100_neutral	0.0		56.42575885634233	
4.0	27.253145299558128	fix	1.0		443	19.0	female	white	4.298846000795861	neutral	100	sub-07	2.0	6.0	100_neutral	0.0		57.075624230276844	3.7665430078959616
4.0	27.30326030523247	pulse	1.0	t		19.0	female	white	4.298846000795861	neutral	100	sub-07	2.0	6.0	100_neutral	0.0		57.12573923595119	
4.0	28.0032352515027	pulse	1.0	t		19.0	female	white	4.298846000795861	neutral	100	sub-07	2.0	6.0	100_neutral	0.0		57.82571418222142	
4.0	28.703218951485724	pulse	1.0	t		19.0	female	white	4.298846000795861	neutral	100	sub-07	2.0	6.0	100_neutral	0.0		58.52569788220444	
4.0	29.40318725700854	pulse	1.0	t		19.0	female	white	4.298846000795861	neutral	100	sub-07	2.0	6.0	100_neutral	0.0		59.225666187727256	
4.0	30.10316944773058	pulse	1.0	t		19.0	female	white	4.298846000795861	neutral	100	sub-07	2.0	6.0	100_neutral	0.0		59.925648378449296	
4.0	30.803145601409597	pulse	1.0	t		19.0	female	white	4.298846000795861	neutral	100	sub-07	2.0	6.0	100_neutral	0.0		60.62562453212831	
5.0	31.01968830745409	face	0.0		145	54.0	female	white	2.286908077994429	neutral	136	sub-07	2.0	6.0	136_neutral	0.0		60.842167238172806	1.2333069715778038
5.0	31.503130508801405	pulse	0.0	t		54.0	female	white	2.286908077994429	neutral	136	sub-07	2.0	6.0	136_neutral	0.0		61.32560943952012	
5.0	32.203109982854585	pulse	0.0	t		54.0	female	white	2.286908077994429	neutral	136	sub-07	2.0	6.0	136_neutral	0.0		62.0255889135733	
5.0	32.25299527903189	fix	1.0		445	54.0	female	white	2.286908077994429	neutral	136	sub-07	2.0	6.0	136_neutral	0.0		62.07547420975061	3.766554478278522
5.0	32.903088551351175	pulse	1.0	t		54.0	female	white	2.286908077994429	neutral	136	sub-07	2.0	6.0	136_neutral	0.0		62.72556748206989	
5.0	33.60306047909944	pulse	1.0	t		54.0	female	white	2.286908077994429	neutral	136	sub-07	2.0	6.0	136_neutral	0.0		63.42553940981816	
5.0	34.303042971673676	pulse	1.0	t		54.0	female	white	2.286908077994429	neutral	136	sub-07	2.0	6.0	136_neutral	0.0		64.12552190239239	
5.0	35.00302576610011	pulse	1.0	t		54.0	female	white	2.286908077994429	neutral	136	sub-07	2.0	6.0	136_neutral	0.0		64.82550469681883	
5.0	35.70298924198869	pulse	1.0	t		54.0	female	white	2.286908077994429	neutral	136	sub-07	2.0	6.0	136_neutral	0.0		65.5254681727074	
6.0	36.019549757310415	face	0.0		145	30.0	female	black	2.7345801830481498	neutral	062	sub-07	2.0	6.0	062_neutral	0.0		65.84202868802913	1.233297312308423
6.0	36.40296418825892	pulse	0.0	t		30.0	female	black	2.7345801830481498	neutral	062	sub-07	2.0	6.0	062_neutral	0.0		66.22544311897764	
6.0	37.10296569751972	pulse	0.0	t		30.0	female	black	2.7345801830481498	neutral	062	sub-07	2.0	6.0	062_neutral	0.0		66.92544462823844	
6.0	37.25284706961884	fix	1.0		445	30.0	female	black	2.7345801830481498	neutral	062	sub-07	2.0	6.0	062_neutral	0.0		67.07532600033755	3.7665538745741287
6.0	37.80294426601631	pulse	1.0	t		30.0	female	black	2.7345801830481498	neutral	062	sub-07	2.0	6.0	062_neutral	0.0		67.62542319673503	
6.0	38.50291830672995	pulse	1.0	t		30.0	female	black	2.7345801830481498	neutral	062	sub-07	2.0	6.0	062_neutral	0.0		68.32539723744867	
6.0	39.20291136413016	pulse	1.0	t		30.0	female	black	2.7345801830481498	neutral	062	sub-07	2.0	6.0	062_neutral	0.0		69.02539029484888	
6.0	39.90287544372222	pulse	1.0	t		30.0	female	black	2.7345801830481498	neutral	062	sub-07	2.0	6.0	062_neutral	0.0		69.72535437444094	
6.0	40.60285401221881	pulse	1.0	t		30.0	female	black	2.7345801830481498	neutral	062	sub-07	2.0	6.0	062_neutral	0.0		70.42533294293753	
7.0	41.01940094419297	face	0.0		145	47.0	male	east_asian	2.171110226820533	smiling	024	sub-07	2.0	6.0	024_smiling	0.0		70.84187987491168	1.2332982178650127
7.0	41.302841334428194	pulse	0.0	t		47.0	male	east_asian	2.171110226820533	smiling	024	sub-07	2.0	6.0	024_smiling	0.0		71.12532026514691	
7.0	42.0028099418023	pulse	0.0	t		47.0	male	east_asian	2.171110226820533	smiling	024	sub-07	2.0	6.0	024_smiling	0.0		71.82528887252101	
7.0	42.25269916205798	fix	1.0		445	47.0	male	east_asian	2.171110226820533	smiling	024	sub-07	2.0	6.0	024_smiling	0.0		72.0751780927767	3.766555685687308
7.0	42.702799376977055	pulse	1.0	t		47.0	male	east_asian	2.171110226820533	smiling	024	sub-07	2.0	6.0	024_smiling	0.0		72.52527830769577	
7.0	43.40277039916873	pulse	1.0	t		47.0	male	east_asian	2.171110226820533	smiling	024	sub-07	2.0	6.0	024_smiling	0.0		73.22524932988745	
7.0	44.102761947307954	pulse	1.0	t		47.0	male	east_asian	2.171110226820533	smiling	024	sub-07	2.0	6.0	024_smiling	0.0		73.92524087802667	
7.0	44.802725423196534	pulse	1.0	t		47.0	male	east_asian	2.171110226820533	smiling	024	sub-07	2.0	6.0	024_smiling	0.0		74.62520435391525	
7.0	45.50271123614493	pulse	1.0	t		47.0	male	east_asian	2.171110226820533	smiling	024	sub-07	2.0	6.0	024_smiling	0.0		75.32519016686365	
8.0	46.01925484774529	face	0.0		145	40.0	male	black	2.408674890569041	neutral	061	sub-07	2.0	6.0	061_neutral	1.0	attractiveness	75.841733778464	1.2332924826741873
8.0	46.20269553983235	pulse	0.0	t		40.0	male	black	2.408674890569041	neutral	061	sub-07	2.0	6.0	061_neutral	1.0	attractiveness	76.02517447055106	
8.0	46.90266626017183	pulse	0.0	t		40.0	male	black	2.408674890569041	neutral	061	sub-07	2.0	6.0	061_neutral	1.0	attractiveness	76.72514519089054	
8.0	47.252547330419475	fix	1.0		177	40.0	male	black	2.408674890569041	neutral	061	sub-07	2.0	6.0	061_neutral	1.0	attractiveness	77.07502626113819	1.5083205549244667
8.0	47.60265237497242	pulse	1.0	t		40.0	male	black	2.408674890569041	neutral	061	sub-07	2.0	6.0	061_neutral	1.0	attractiveness	77.42513130569114	
8.0	48.30262762309485	pulse	1.0	t		40.0	male	black	2.408674890569041	neutral	061	sub-07	2.0	6.0	061_neutral	1.0	attractiveness	78.12510655381357	
8.0	48.76086788534394	rating	2.0		293	40.0	male	black	2.408674890569041	neutral	061	sub-07	2.0	6.0	061_neutral	1.0	attractiveness	78.58334681606266	2.4915611190263007
8.0	49.00261494530423	pulse	2.0	t		40.0	male	black	2.408674890569041	neutral	061	sub-07	2.0	6.0	061_neutral	1.0	attractiveness	78.82509387602295	
8.0	49.70259291009643	pulse	2.0	t		40.0	male	black	2.408674890569041	neutral	061	sub-07	2.0	6.0	061_neutral	1.0	attractiveness	79.52507184081514	
8.0	50.40256242302712	pulse	2.0	t		40.0	male	black	2.408674890569041	neutral	061	sub-07	2.0	6.0	061_neutral	1.0	attractiveness	80.22504135374584	
8.0	50.80255397116707	response	2.0	e		40.0	male	black	2.408674890569041	neutral	061	sub-07	2.0	6.0	061_neutral	1.0	attractiveness	80.62503290188579	
8.0	51.10252801188017	pulse	2.0	t		40.0	male	black	2.408674890569041	neutral	061	sub-07	2.0	6.0	061_neutral	1.0	attractiveness	80.92500694259888	
8.0	51.25242900437024	fix	3.0		444	40.0	male	black	2.408674890569041	neutral	061	sub-07	2.0	6.0	061_neutral	1.0	attractiveness	81.07490793508896	3.766557194948291
8.0	51.802526200767716	pulse	3.0	t		40.0	male	black	2.408674890569041	neutral	061	sub-07	2.0	6.0	061_neutral	1.0	attractiveness	81.62500513148643	
8.0	52.50251925816792	pulse	3.0	t		40.0	male	black	2.408674890569041	neutral	061	sub-07	2.0	6.0	061_neutral	1.0	attractiveness	82.32499818888664	
8.0	53.20246703774319	pulse	3.0	t		40.0	male	black	2.408674890569041	neutral	061	sub-07	2.0	6.0	061_neutral	1.0	attractiveness	83.0249459684619	
8.0	53.90245828403022	pulse	3.0	t		40.0	male	black	2.408674890569041	neutral	061	sub-07	2.0	6.0	061_neutral	1.0	attractiveness	83.72493721474893	
8.0	54.60243685252681	pulse	3.0	t		40.0	male	black	2.408674890569041	neutral	061	sub-07	2.0	6.0	061_neutral	1.0	attractiveness	84.42491578324552	
9.0	55.01898619931853	face	0.0		145	34.0	male	white	2.651014723438122	smiling	121	sub-07	2.0	6.0	121_smiling	0.0		84.84146513003725	1.233297312308423
9.0	55.30242417473619	pulse	0.0	t		34.0	male	white	2.651014723438122	smiling	121	sub-07	2.0	6.0	121_smiling	0.0		85.1249031054549	
9.0	56.00240455434505	pulse	0.0	t		34.0	male	white	2.651014723438122	smiling	121	sub-07	2.0	6.0	121_smiling	0.0		85.82488348506376	
9.0	56.252283511626956	fix	1.0		445	34.0	male	white	2.651014723438122	smiling	121	sub-07	2.0	6.0	121_smiling	0.0		86.07476244234567	3.7665514597574656
9.0	56.70237950061528	pulse	1.0	t		34.0	male	white	2.651014723438122	smiling	121	sub-07	2.0	6.0	121_smiling	0.0		86.524858431334	
9.0	57.40235776725967	pulse	1.0	t		34.0	male	white	2.651014723438122	smiling	121	sub-07	2.0	6.0	121_smiling	0.0		87.22483669797839	
9.0	58.10233995798171	pulse	1.0	t		34.0	male	white	2.651014723438122	smiling	121	sub-07	2.0	6.0	121_smiling	0.0		87.92481888870043	
9.0	58.802305848686956	pulse	1.0	t		34.0	male	white	2.651014723438122	smiling	121	sub-07	2.0	6.0	121_smiling	0.0		88.62478477940567	
9.0	59.50229317089634	pulse	1.0	t		34.0	male	white	2.651014723438122	smiling	121	sub-07	2.0	6.0	121_smiling	0.0		89.32477210161505	
10.0	60.01883497138442	face	0.0		145	36.0	female	white	2.7548746518105847	neutral	011	sub-07	2.0	6.0	011_neutral	0.0		89.84131390210314	1.2332988215684964
10.0	60.20227687087936	pulse	0.0	t		36.0	female	white	2.7548746518105847	neutral	011	sub-07	2.0	6.0	011_neutral	0.0		90.02475580159808	
10.0	60.902251515297394	pulse	0.0	t		36.0	female	white	2.7548746518105847	neutral	011	sub-07	2.0	6.0	011_neutral	0.0		90.72473044601611	
10.0	61.25213379295292	fix	1.0		444	36.0	female	white	2.7548746518105847	neutral	011	sub-07	2.0	6.0	011_neutral	0.0		91.07461272367163	3.766547837531107
10.0	61.6022367245414	pulse	1.0	t		36.0	female	white	2.7548746518105847	neutral	011	sub-07	2.0	6.0	011_neutral	0.0		91.42471565526012	
10.0	62.3022143874814	pulse	1.0	t		36.0	female	white	2.7548746518105847	neutral	011	sub-07	2.0	6.0	011_neutral	0.0		92.12469331820012	
10.0	63.002195974499045	pulse	1.0	t		36.0	female	white	2.7548746518105847	neutral	011	sub-07	2.0	6.0	011_neutral	0.0		92.82467490521776	
10.0	63.70216699669163	pulse	1.0	t		36.0	female	white	2.7548746518105847	neutral	011	sub-07	2.0	6.0	011_neutral	0.0		93.52464592741035	
10.0	64.40212171886651	pulse	1.0	t		36.0	female	white	2.7548746518105847	neutral	011	sub-07	2.0	6.0	011_neutral	0.0		94.22460064958523	
11.0	65.01868163048402	face	0.0		145	22.0	male	black	2.767608436132113	neutral	044	sub-07	2.0	6.0	044_neutral	0.0		94.84116056120274	1.2333024437957647
11.0	65.10213500036207	pulse	0.0	t		22.0	male	black	2.767608436132113	neutral	044	sub-07	2.0	6.0	044_neutral	0.0		94.92461393108078	
11.0	65.80210541884935	pulse	0.0	t		22.0	male	black	2.767608436132113	neutral	044	sub-07	2.0	6.0	044_neutral	0.0		95.62458434956807	
11.0	66.25198407427979	fix	1.0		444	22.0	male	black	2.767608436132113	neutral	044	sub-07	2.0	6.0	044_neutral	0.0		96.0744630049985	3.7582158122231704
11.0	66.50209183550214	pulse	1.0	t		22.0	male	black	2.767608436132113	neutral	044	sub-07	2.0	6.0	044_neutral	0.0		96.32457076622086	
11.0	67.20207070585093	pulse	1.0	t		22.0	male	black	2.767608436132113	neutral	044	sub-07	2.0	6.0	044_neutral	0.0		97.02454963656965	
11.0	67.90205319842516	pulse	1.0	t		22.0	male	black	2.767608436132113	neutral	044	sub-07	2.0	6.0	044_neutral	0.0		97.72453212914388	
11.0	68.60202482432214	pulse	1.0	t		22.0	male	black	2.767608436132113	neutral	044	sub-07	2.0	6.0	044_neutral	0.0		98.42450375504086	
11.0	69.30200037429677	pulse	1.0	t		22.0	male	black	2.767608436132113	neutral	044	sub-07	2.0	6.0	044_neutral	0.0		99.12447930501548	
12.0	70.01019988650296	face	0.0		147	24.0	male	white	3.1153999204138483	smiling	012	sub-07	2.0	6.0	012_smiling	0.0		99.83267881722168	1.2416359783637745
12.0	70.00382386322417	pulse	0.0	t		24.0	male	white	3.1153999204138483	smiling	012	sub-07	2.0	6.0	012_smiling	0.0		99.82630279394289	
12.0	70.70195902055002	pulse	0.0	t		24.0	male	white	3.1153999204138483	smiling	012	sub-07	2.0	6.0	012_smiling	0.0		100.52443795126874	
12.0	71.25183586486673	fix	1.0		443	24.0	male	white	3.1153999204138483	smiling	012	sub-07	2.0	6.0	012_smiling	0.0		101.07431479558545	3.7582674289442366
12.0	71.40194513535062	pulse	1.0	t		24.0	male	white	3.1153999204138483	smiling	012	sub-07	2.0	6.0	012_smiling	0.0		101.22442406606933	
12.0	72.1019390983065	pulse	1.0	t		24.0	male	white	3.1153999204138483	smiling	012	sub-07	2.0	6.0	012_smiling	0.0		101.92441802902522	
12.0	72.80191857235968	pulse	1.0	t		24.0	male	white	3.1153999204138483	smiling	012	sub-07	2.0	6.0	012_smiling	0.0		102.6243975030784	
12.0	73.50188174639516	pulse	1.0	t		24.0	male	white	3.1153999204138483	smiling	012	sub-07	2.0	6.0	012_smiling	0.0		103.32436067711387	
12.0	74.2018560889619	pulse	1.0	t		24.0	male	white	3.1153999204138483	smiling	012	sub-07	2.0	6.0	012_smiling	0.0		104.02433501968062	
12.0	74.90184280746598	pulse	1.0	t		24.0	male	white	3.1153999204138483	smiling	012	sub-07	2.0	6.0	012_smiling	0.0		104.7243217381847	
13.0	75.01010329381097	face	0.0		147	24.0	female	black	3.0955033824114606	smiling	099	sub-07	2.0	6.0	099_smiling	0.0		104.83258222452969	1.241583757938315
13.0	75.60182047040598	pulse	0.0	t		24.0	female	black	3.0955033824114606	smiling	099	sub-07	2.0	6.0	099_smiling	0.0		105.4242994011247	
13.0	76.25168705174929	fix	1.0		443	24.0	female	black	3.0955033824114606	smiling	099	sub-07	2.0	6.0	099_smiling	0.0		106.074165982468	3.766555685687308
13.0	76.301796624085	pulse	1.0	t		24.0	female	black	3.0955033824114606	smiling	099	sub-07	2.0	6.0	099_smiling	0.0		106.12427555480372	
13.0	77.00177066479864	pulse	1.0	t		24.0	female	black	3.0955033824114606	smiling	099	sub-07	2.0	6.0	099_smiling	0.0		106.82424959551736	
13.0	77.7017597981212	pulse	1.0	t		24.0	female	black	3.0955033824114606	smiling	099	sub-07	2.0	6.0	099_smiling	0.0		107.52423872883992	
13.0	78.40173202772166	pulse	1.0	t		24.0	female	black	3.0955033824114606	smiling	099	sub-07	2.0	6.0	099_smiling	0.0		108.22421095844038	
13.0	79.10171029436606	pulse	1.0	t		24.0	female	black	3.0955033824114606	smiling	099	sub-07	2.0	6.0	099_smiling	0.0		108.92418922508477	
13.0	79.80169942768771	pulse	1.0	t		24.0	female	black	3.0955033824114606	smiling	099	sub-07	2.0	6.0	099_smiling	0.0		109.62417835840643	
14.0	80.0182427374366	face	0.0		145	28.0	female	white	5.676880222841227	smiling	124	sub-07	2.0	6.0	124_smiling	0.0		109.84072166815531	1.2332955011952436
14.0	80.50167527951453	pulse	0.0	t		28.0	female	white	5.676880222841227	smiling	124	sub-07	2.0	6.0	124_smiling	0.0		110.32415421023325	
14.0	81.20164177392417	pulse	0.0	t		28.0	female	white	5.676880222841227	smiling	124	sub-07	2.0	6.0	124_smiling	0.0		111.02412070464288	
14.0	81.25153823863184	fix	1.0		445	28.0	female	white	5.676880222841227	smiling	124	sub-07	2.0	6.0	124_smiling	0.0		111.07401716935055	3.766557798652684
14.0	81.90163452947218	pulse	1.0	t		28.0	female	white	5.676880222841227	smiling	124	sub-07	2.0	6.0	124_smiling	0.0		111.72411346019089	
14.0	82.60161249426437	pulse	1.0	t		28.0	female	white	5.676880222841227	smiling	124	sub-07	2.0	6.0	124_smiling	0.0		112.42409142498309	
14.0	83.30158653497801	pulse	1.0	t		28.0	female	white	5.676880222841227	smiling	124	sub-07	2.0	6.0	124_smiling	0.0		113.12406546569673	
14.0	84.00156872570096	pulse	1.0	t		28.0	female	white	5.676880222841227	smiling	124	sub-07	2.0	6.0	124_smiling	0.0		113.82404765641968	
14.0	84.70154578493566	pulse	1.0	t		28.0	female	white	5.676880222841227	smiling	124	sub-07	2.0	6.0	124_smiling	0.0		114.52402471565438	
15.0	85.01809603728452	face	0.0		145	24.0	female	east_asian	2.9076800636689217	neutral	034	sub-07	2.0	6.0	034_neutral	1.0	trustworthiness	114.84057496800324	1.2332958030474401
15.0	85.4015291830674	pulse	0.0	t		24.0	female	east_asian	2.9076800636689217	neutral	034	sub-07	2.0	6.0	034_neutral	1.0	trustworthiness	115.22400811378611	
15.0	86.10151016638065	pulse	0.0	t		24.0	female	east_asian	2.9076800636689217	neutral	034	sub-07	2.0	6.0	034_neutral	1.0	trustworthiness	115.92398909709937	
15.0	86.25139184033196	fix	1.0		177	24.0	female	east_asian	2.9076800636689217	neutral	034	sub-07	2.0	6.0	034_neutral	1.0	trustworthiness	116.07387077105068	1.4999556277316515
15.0	86.80148149042452	pulse	1.0	t		24.0	female	east_asian	2.9076800636689217	neutral	034	sub-07	2.0	6.0	034_neutral	1.0	trustworthiness	116.62396042114324	
15.0	87.50145190891271	pulse	1.0	t		24.0	female	east_asian	2.9076800636689217	neutral	034	sub-07	2.0	6.0	034_neutral	1.0	trustworthiness	117.32393083963143	
15.0	87.75134746806361	rating	2.0		295	24.0	female	east_asian	2.9076800636689217	neutral	034	sub-07	2.0	6.0	034_neutral	1.0	trustworthiness	117.57382639878233	2.4999245369590426
15.0	88.20146066262532	pulse	2.0	t		24.0	female	east_asian	2.9076800636689217	neutral	034	sub-07	2.0	6.0	034_neutral	1.0	trustworthiness	118.02393959334404	
15.0	88.90142293110512	pulse	2.0	t		24.0	female	east_asian	2.9076800636689217	neutral	034	sub-07	2.0	6.0	034_neutral	1.0	trustworthiness	118.72390186182383	
15.0	89.11806887058992	response	2.0	b		24.0	female	east_asian	2.9076800636689217	neutral	034	sub-07	2.0	6.0	034_neutral	1.0	trustworthiness	118.94054780130864	
15.0	89.60139184033233	pulse	2.0	t		24.0	female	east_asian	2.9076800636689217	neutral	034	sub-07	2.0	6.0	034_neutral	1.0	trustworthiness	119.42387077105104	
15.0	90.25127200502266	fix	3.0		443	24.0	female	east_asian	2.9076800636689217	neutral	034	sub-07	2.0	6.0	034_neutral	1.0	trustworthiness	120.07375093574137	3.7665553838351116
15.0	90.3013954625576	pulse	3.0	t		24.0	female	east_asian	2.9076800636689217	neutral	034	sub-07	2.0	6.0	034_neutral	1.0	trustworthiness	120.12387439327631	
15.0	91.001357127333	pulse	3.0	t		24.0	female	east_asian	2.9076800636689217	neutral	034	sub-07	2.0	6.0	034_neutral	1.0	trustworthiness	120.82383605805171	
15.0	91.7013426384292	pulse	3.0	t		24.0	female	east_asian	2.9076800636689217	neutral	034	sub-07	2.0	6.0	034_neutral	1.0	trustworthiness	121.52382156914791	
15.0	92.40131577358625	pulse	3.0	t		24.0	female	east_asian	2.9076800636689217	neutral	034	sub-07	2.0	6.0	034_neutral	1.0	trustworthiness	122.22379470430496	
15.0	93.10129585134382	pulse	3.0	t		24.0	female	east_asian	2.9076800636689217	neutral	034	sub-07	2.0	6.0	034_neutral	1.0	trustworthiness	122.92377478206254	
15.0	93.80127381613511	pulse	3.0	t		24.0	female	east_asian	2.9076800636689217	neutral	034	sub-07	2.0	6.0	034_neutral	1.0	trustworthiness	123.62375274685382	
16.0	94.01782738885777	face	0.0		145	28.0	male	east_asian	1.5563072025467568	smiling	005	sub-07	2.0	6.0	005_smiling	0.0		123.84030631957648	1.2332976141606196
16.0	94.50125751611904	pulse	0.0	t		28.0	male	east_asian	1.5563072025467568	smiling	005	sub-07	2.0	6.0	005_smiling	0.0		124.32373644683776	
16.0	95.20123155683268	pulse	0.0	t		28.0	male	east_asian	1.5563072025467568	smiling	005	sub-07	2.0	6.0	005_smiling	0.0		125.0237104875514	
16.0	95.25112500301839	fix	1.0		445	28.0	male	east_asian	1.5563072025467568	smiling	005	sub-07	2.0	6.0	005_smiling	0.0		125.0736039337371	3.7665439134525514
16.0	95.9012152568157	pulse	1.0	t		28.0	male	east_asian	1.5563072025467568	smiling	005	sub-07	2.0	6.0	005_smiling	0.0		125.72369418753442	
16.0	96.60118748641617	pulse	1.0	t		28.0	male	east_asian	1.5563072025467568	smiling	005	sub-07	2.0	6.0	005_smiling	0.0		126.42366641713488	
16.0	97.30117541232994	pulse	1.0	t		28.0	male	east_asian	1.5563072025467568	smiling	005	sub-07	2.0	6.0	005_smiling	0.0		127.12365434304866	
16.0	98.0011551882344	pulse	1.0	t		28.0	male	east_asian	1.5563072025467568	smiling	005	sub-07	2.0	6.0	005_smiling	0.0		127.82363411895312	
16.0	98.70112771968797	pulse	1.0	t		28.0	male	east_asian	1.5563072025467568	smiling	005	sub-07	2.0	6.0	005_smiling	0.0		128.5236066504067	
17.0	99.01766891647094	face	0.0		145	40.0	male	white	1.868682849184242	neutral	172	sub-07	2.0	6.0	172_neutral	0.0		128.84014784718966	1.2333066697256072
17.0	99.40111323078418	pulse	0.0	t		40.0	male	white	1.868682849184242	neutral	172	sub-07	2.0	6.0	172_neutral	0.0		129.2235921615029	
17.0	100.1010887807588	pulse	0.0	t		40.0	male	white	1.868682849184242	neutral	172	sub-07	2.0	6.0	172_neutral	0.0		129.92356771147752	
17.0	100.25097558619655	fix	1.0		444	40.0	male	white	1.868682849184242	neutral	172	sub-07	2.0	6.0	172_neutral	0.0		130.07345451691526	3.7665559875395047
17.0	100.80107217888963	pulse	1.0	t		40.0	male	white	1.868682849184242	neutral	172	sub-07	2.0	6.0	172_neutral	0.0		130.62355110960834	
17.0	101.50104772886425	pulse	1.0	t		40.0	male	white	1.868682849184242	neutral	172	sub-07	2.0	6.0	172_neutral	0.0		131.32352665958297	
17.0	102.20102750476872	pulse	1.0	t		40.0	male	white	1.868682849184242	neutral	172	sub-07	2.0	6.0	172_neutral	0.0		132.02350643548743	
17.0	102.90101241216053	pulse	1.0	t		40.0	male	white	1.868682849184242	neutral	172	sub-07	2.0	6.0	172_neutral	0.0		132.72349134287924	
17.0	103.60099339547469	pulse	1.0	t		40.0	male	white	1.868682849184242	neutral	172	sub-07	2.0	6.0	172_neutral	0.0		133.4234723261934	
18.0	104.01753157373605	face	0.0		145	31.0	male	west_asian	1.9538400318344609	neutral	070	sub-07	2.0	6.0	070_neutral	0.0		133.84001050445477	1.2332976141606196
18.0	104.30095717321456	pulse	0.0	t		31.0	male	west_asian	1.9538400318344609	neutral	070	sub-07	2.0	6.0	070_neutral	0.0		134.12343610393327	
18.0	105.00094298616295	pulse	0.0	t		31.0	male	west_asian	1.9538400318344609	neutral	070	sub-07	2.0	6.0	070_neutral	0.0		134.82342191688167	
18.0	105.25082918789667	fix	1.0		444	31.0	male	west_asian	1.9538400318344609	neutral	070	sub-07	2.0	6.0	070_neutral	0.0		135.0733081186154	3.766569269034335
18.0	105.70092970466794	pulse	1.0	t		31.0	male	west_asian	1.9538400318344609	neutral	070	sub-07	2.0	6.0	070_neutral	0.0		135.52340863538666	
18.0	106.40089861389424	pulse	1.0	t		31.0	male	west_asian	1.9538400318344609	neutral	070	sub-07	2.0	6.0	070_neutral	0.0		136.22337754461296	
18.0	107.10088714351241	pulse	1.0	t		31.0	male	west_asian	1.9538400318344609	neutral	070	sub-07	2.0	6.0	070_neutral	0.0		136.92336607423113	
18.0	107.80089287870305	pulse	1.0	t		31.0	male	west_asian	1.9538400318344609	neutral	070	sub-07	2.0	6.0	070_neutral	0.0		137.62337180942177	
18.0	108.50083945087044	pulse	1.0	t		31.0	male	west_asian	1.9538400318344609	neutral	070	sub-07	2.0	6.0	070_neutral	0.0		138.32331838158916	
19.0	109.017398456931	face	0.0		145	25.0	female	west_asian	2.6756864305610826	neutral	064	sub-07	2.0	6.0	064_neutral	0.0		138.83987738764972	1.2332801067350374
19.0	109.20082677307892	pulse	0.0	t		25.0	female	west_asian	2.6756864305610826	neutral	064	sub-07	2.0	6.0	064_neutral	0.0		139.02330570379763	
19.0	109.90079507860173	pulse	0.0	t		25.0	female	west_asian	2.6756864305610826	neutral	064	sub-07	2.0	6.0	064_neutral	0.0		139.72327400932045	
19.0	110.25067856366604	fix	1.0		444	25.0	female	west_asian	2.6756864305610826	neutral	064	sub-07	2.0	6.0	064_neutral	0.0		140.07315749438476	3.7665559875395047
19.0	110.60078240081111	pulse	1.0	t		25.0	female	west_asian	2.6756864305610826	neutral	064	sub-07	2.0	6.0	064_neutral	0.0		140.42326133152983	
19.0	111.3007534230037	pulse	1.0	t		25.0	female	west_asian	2.6756864305610826	neutral	064	sub-07	2.0	6.0	064_neutral	0.0		141.12323235372241	
19.0	112.00073350076036	pulse	1.0	t		25.0	female	west_asian	2.6756864305610826	neutral	064	sub-07	2.0	6.0	064_neutral	0.0		141.82321243147908	
19.0	112.70071478592581	pulse	1.0	t		25.0	female	west_asian	2.6756864305610826	neutral	064	sub-07	2.0	6.0	064_neutral	0.0		142.52319371664453	
19.0	113.40069214701361	pulse	1.0	t		25.0	female	west_asian	2.6756864305610826	neutral	064	sub-07	2.0	6.0	064_neutral	0.0		143.22317107773233	
20.0	114.01723455120555	face	0.0		145	27.0	female	white	4.181058495821727	neutral	039	sub-07	2.0	6.0	039_neutral	0.0		143.83971348192426	1.233295501196153
20.0	114.10068429885723	pulse	0.0	t		27.0	female	white	4.181058495821727	neutral	039	sub-07	2.0	6.0	039_neutral	0.0		143.92316322957595	
20.0	114.80064656733703	pulse	0.0	t		27.0	female	white	4.181058495821727	neutral	039	sub-07	2.0	6.0	039_neutral	0.0		144.62312549805574	
20.0	115.2505300524017	fix	1.0		1185	27.0	female	white	4.181058495821727	neutral	039	sub-07	2.0	6.0	039_neutral	0.0		145.07300898312042	10.016368537344533
20.0	115.50063720991966	pulse	1.0	t		27.0	female	white	4.181058495821727	neutral	039	sub-07	2.0	6.0	039_neutral	0.0		145.32311614063838	
20.0	116.20060491173808	pulse	1.0	t		27.0	female	white	4.181058495821727	neutral	039	sub-07	2.0	6.0	039_neutral	0.0		146.0230838424568	
20.0	116.90058589505134	pulse	1.0	t		27.0	female	white	4.181058495821727	neutral	039	sub-07	2.0	6.0	039_neutral	0.0		146.72306482577005	
20.0	117.60057351911291	pulse	1.0	t		27.0	female	white	4.181058495821727	neutral	039	sub-07	2.0	6.0	039_neutral	0.0		147.42305244983163	
20.0	118.30055027649632	pulse	1.0	t		27.0	female	white	4.181058495821727	neutral	039	sub-07	2.0	6.0	039_neutral	0.0		148.12302920721504	
20.0	119.00049956533258	pulse	1.0	t		27.0	female	white	4.181058495821727	neutral	039	sub-07	2.0	6.0	039_neutral	0.0		148.8229784960513	
20.0	119.7005068097842	pulse	1.0	t		27.0	female	white	4.181058495821727	neutral	039	sub-07	2.0	6.0	039_neutral	0.0		149.52298574050292	
20.0	120.40048839680276	pulse	1.0	t		27.0	female	white	4.181058495821727	neutral	039	sub-07	2.0	6.0	039_neutral	0.0		150.22296732752147	
20.0	121.100470889377	pulse	1.0	t		27.0	female	white	4.181058495821727	neutral	039	sub-07	2.0	6.0	039_neutral	0.0		150.9229498200957	
20.0	121.800439496752	pulse	1.0	t		27.0	female	white	4.181058495821727	neutral	039	sub-07	2.0	6.0	039_neutral	0.0		151.62291842747072	
20.0	122.50042983748244	pulse	1.0	t		27.0	female	white	4.181058495821727	neutral	039	sub-07	2.0	6.0	039_neutral	0.0		152.32290876820116	
20.0	123.20040357634389	pulse	1.0	t		27.0	female	white	4.181058495821727	neutral	039	sub-07	2.0	6.0	039_neutral	0.0		153.0228825070626	
20.0	123.9003875781791	pulse	1.0	t		27.0	female	white	4.181058495821727	neutral	039	sub-07	2.0	6.0	039_neutral	0.0		153.72286650889782	
20.0	124.60036010963267	pulse	1.0	t		27.0	female	white	4.181058495821727	neutral	039	sub-07	2.0	6.0	039_neutral	0.0		154.4228390403514	
21.0	125.26689858974623	face	0.0		145	31.0	female	white	2.1822522881018704	neutral	102	sub-07	2.0	6.0	102_neutral	1.0	dominance	155.08937752046495	1.2332967086040298
21.0	125.30035497814606	pulse	0.0	t		31.0	female	white	2.1822522881018704	neutral	102	sub-07	2.0	6.0	102_neutral	1.0	dominance	155.12283390886478	
21.0	126.0003368670159	pulse	0.0	t		31.0	female	white	2.1822522881018704	neutral	102	sub-07	2.0	6.0	102_neutral	1.0	dominance	155.82281579773462	
21.0	126.50019529835026	fix	1.0		177	31.0	female	white	2.1822522881018704	neutral	102	sub-07	2.0	6.0	102_neutral	1.0	dominance	156.32267422906898	1.4999577406970275
21.0	126.70030577624311	pulse	1.0	t		31.0	female	white	2.1822522881018704	neutral	102	sub-07	2.0	6.0	102_neutral	1.0	dominance	156.52278470696183	
21.0	127.40027770399138	pulse	1.0	t		31.0	female	white	2.1822522881018704	neutral	102	sub-07	2.0	6.0	102_neutral	1.0	dominance	157.2227566347101	
21.0	128.0001530390473	rating	2.0		294	31.0	female	white	2.1822522881018704	neutral	102	sub-07	2.0	6.0	102_neutral	1.0	dominance	157.822631969766	2.499924235106846
21.0	128.10026562990515	pulse	2.0	t		31.0	female	white	2.1822522881018704	neutral	102	sub-07	2.0	6.0	102_neutral	1.0	dominance	157.92274456062387	
21.0	128.80023846321	pulse	2.0	t		31.0	female	white	2.1822522881018704	neutral	102	sub-07	2.0	6.0	102_neutral	1.0	dominance	158.62271739392872	
21.0	129.50022276689742	pulse	2.0	t		31.0	female	white	2.1822522881018704	neutral	102	sub-07	2.0	6.0	102_neutral	1.0	dominance	159.32270169761614	
21.0	130.12009731713806	response	2.0	n		31.0	female	white	2.1822522881018704	neutral	102	sub-07	2.0	6.0	102_neutral	1.0	dominance	159.94257624785678	
21.0	130.20019016686365	pulse	2.0	t		31.0	female	white	2.1822522881018704	neutral	102	sub-07	2.0	6.0	102_neutral	1.0	dominance	160.02266909758237	
21.0	130.50007727415414	fix	3.0		444	31.0	female	white	2.1822522881018704	neutral	102	sub-07	2.0	6.0	102_neutral	1.0	dominance	160.32255620487285	3.766553572721932
21.0	130.9001805075941	pulse	3.0	t		31.0	female	white	2.1822522881018704	neutral	102	sub-07	2.0	6.0	102_neutral	1.0	dominance	160.7226594383128	
21.0	131.60015062423008	pulse	3.0	t		31.0	female	white	2.1822522881018704	neutral	102	sub-07	2.0	6.0	102_neutral	1.0	dominance	161.4226295549488	
21.0	132.30013311680432	pulse	3.0	t		31.0	female	white	2.1822522881018704	neutral	102	sub-07	2.0	6.0	102_neutral	1.0	dominance	162.12261204752303	
21.0	133.0001131945619	pulse	3.0	t		31.0	female	white	2.1822522881018704	neutral	102	sub-07	2.0	6.0	102_neutral	1.0	dominance	162.8225921252806	
21.0	133.70009085750098	pulse	3.0	t		31.0	female	white	2.1822522881018704	neutral	102	sub-07	2.0	6.0	102_neutral	1.0	dominance	163.5225697882197	
22.0	134.26663084687607	face	0.0		145	21.0	male	east_asian/white	3.501790688420215	smiling	036	sub-07	2.0	6.0	036_smiling	0.0		164.08910977759479	1.2332897660044182
22.0	134.40007999082354	pulse	0.0	t		21.0	male	east_asian/white	3.501790688420215	smiling	036	sub-07	2.0	6.0	036_smiling	0.0		164.22255892154226	
22.0	135.10004648523318	pulse	0.0	t		21.0	male	east_asian/white	3.501790688420215	smiling	036	sub-07	2.0	6.0	036_smiling	0.0		164.9225254159519	
22.0	135.4999206128805	fix	1.0		444	21.0	male	east_asian/white	3.501790688420215	smiling	036	sub-07	2.0	6.0	036_smiling	0.0		165.3223995435992	3.7665635338435095
22.0	135.80003682596362	pulse	1.0	t		21.0	male	east_asian/white	3.501790688420215	smiling	036	sub-07	2.0	6.0	036_smiling	0.0		165.62251575668233	
22.0	136.5000087537128	pulse	1.0	t		21.0	male	east_asian/white	3.501790688420215	smiling	036	sub-07	2.0	6.0	036_smiling	0.0		166.3224876844315	
22.0	137.19998852961726	pulse	1.0	t		21.0	male	east_asian/white	3.501790688420215	smiling	036	sub-07	2.0	6.0	036_smiling	0.0		167.02246746033597	
22.0	137.8999716258959	pulse	1.0	t		21.0	male	east_asian/white	3.501790688420215	smiling	036	sub-07	2.0	6.0	036_smiling	0.0		167.7224505566146	
22.0	138.5999399314187	pulse	1.0	t		21.0	male	east_asian/white	3.501790688420215	smiling	036	sub-07	2.0	6.0	036_smiling	0.0		168.42241886213742	
23.0	139.266484146724	face	0.0		145	34.0	male	white	2.651014723438122	neutral	121	sub-07	2.0	6.0	121_neutral	0.0		169.0889630774427	1.2332961048996367
23.0	139.29993540363648	pulse	0.0	t		34.0	male	white	2.651014723438122	neutral	121	sub-07	2.0	6.0	121_neutral	0.0		169.1224143343552	
23.0	139.99990612397687	pulse	0.0	t		34.0	male	white	2.651014723438122	neutral	121	sub-07	2.0	6.0	121_neutral	0.0		169.8223850546956	
23.0	140.49978025162363	fix	1.0		443	34.0	male	white	2.651014723438122	neutral	121	sub-07	2.0	6.0	121_neutral	0.0		170.32225918234235	3.7665541764263253
23.0	140.69990793508987	pulse	1.0	t		34.0	male	white	2.651014723438122	neutral	121	sub-07	2.0	6.0	121_neutral	0.0		170.52238686580858	
23.0	141.39986084615157	pulse	1.0	t		34.0	male	white	2.651014723438122	neutral	121	sub-07	2.0	6.0	121_neutral	0.0		171.22233977687029	
23.0	142.099843640578	pulse	1.0	t		34.0	male	white	2.651014723438122	neutral	121	sub-07	2.0	6.0	121_neutral	0.0		171.92232257129672	
23.0	142.79982522759656	pulse	1.0	t		34.0	male	white	2.651014723438122	neutral	121	sub-07	2.0	6.0	121_neutral	0.0		172.62230415831527	
23.0	143.49980439979663	pulse	1.0	t		34.0	male	white	2.651014723438122	neutral	121	sub-07	2.0	6.0	121_neutral	0.0		173.32228333051535	
23.0	144.19977451643263	pulse	1.0	t		34.0	male	white	2.651014723438122	neutral	121	sub-07	2.0	6.0	121_neutral	0.0		174.02225344715134	
24.0	144.26633442804996	face	0.0		146	25.0	female	black	3.858336649423	smiling	126	sub-07	2.0	6.0	126_smiling	0.0		174.08881335876868	1.2332982178650127
24.0	144.89976395160647	pulse	0.0	t		25.0	female	black	3.858336649423	smiling	126	sub-07	2.0	6.0	126_smiling	0.0		174.7222428823252	
24.0	145.49963264591497	fix	1.0		443	25.0	female	black	3.858336649423	smiling	126	sub-07	2.0	6.0	126_smiling	0.0		175.3221115766337	3.7665584023570773
24.0	145.59974312380746	pulse	1.0	t		25.0	female	black	3.858336649423	smiling	126	sub-07	2.0	6.0	126_smiling	0.0		175.42222205452617	
24.0	146.29968999782614	pulse	1.0	t		25.0	female	black	3.858336649423	smiling	126	sub-07	2.0	6.0	126_smiling	0.0		176.12216892854485	
24.0	146.9996942237567	pulse	1.0	t		25.0	female	black	3.858336649423	smiling	126	sub-07	2.0	6.0	126_smiling	0.0		176.82217315447542	
24.0	147.69967822559192	pulse	1.0	t		25.0	female	black	3.858336649423	smiling	126	sub-07	2.0	6.0	126_smiling	0.0		177.52215715631064	
24.0	148.39965256815776	pulse	1.0	t		25.0	female	black	3.858336649423	smiling	126	sub-07	2.0	6.0	126_smiling	0.0		178.22213149887648	
24.0	149.09963174035875	pulse	1.0	t		25.0	female	black	3.858336649423	smiling	126	sub-07	2.0	6.0	126_smiling	0.0		178.92211067107746	
25.0	149.26619104827205	face	0.0		146	40.0	male	white	1.868682849184242	smiling	172	sub-07	2.0	6.0	172_smiling	0.0		179.08866997899077	1.2332924826732778
25.0	149.79961906256722	pulse	0.0	t		40.0	male	white	1.868682849184242	smiling	172	sub-07	2.0	6.0	172_smiling	0.0		179.62209799328593	
25.0	150.49948353094533	fix	1.0		444	40.0	male	white	1.868682849184242	smiling	172	sub-07	2.0	6.0	172_smiling	0.0		180.32196246166404	3.766553874575038
25.0	150.5068816256544	pulse	1.0	t		40.0	male	white	1.868682849184242	smiling	172	sub-07	2.0	6.0	172_smiling	0.0		180.3293605563731	
25.0	151.19957378474282	pulse	1.0	t		40.0	male	white	1.868682849184242	smiling	172	sub-07	2.0	6.0	172_smiling	0.0		181.02205271546154	
25.0	151.89954842916086	pulse	1.0	t		40.0	male	white	1.868682849184242	smiling	172	sub-07	2.0	6.0	172_smiling	0.0		181.72202735987958	
25.0	152.59953394025706	pulse	1.0	t		40.0	male	white	1.868682849184242	smiling	172	sub-07	2.0	6.0	172_smiling	0.0		182.42201287097578	
25.0	153.29951069764047	pulse	1.0	t		40.0	male	white	1.868682849184242	smiling	172	sub-07	2.0	6.0	172_smiling	0.0		183.1219896283592	
25.0	153.99948956798926	pulse	1.0	t		40.0	male	white	1.868682849184242	smiling	172	sub-07	2.0	6.0	172_smiling	0.0		183.82196849870797	
26.0	154.26603740552036	face	0.0		145	24.0	male	white	3.1153999204138483	neutral	012	sub-07	2.0	6.0	012_neutral	0.0		184.08851633623908	1.2332894641513121
26.0	154.69947356982448	pulse	0.0	t		24.0	male	white	3.1153999204138483	neutral	012	sub-07	2.0	6.0	012_neutral	0.0		184.5219525005432	
26.0	155.39943070681693	pulse	0.0	t		24.0	male	white	3.1153999204138483	neutral	012	sub-07	2.0	6.0	012_neutral	0.0		185.22190963753565	
26.0	155.49932686967168	fix	1.0		444	24.0	male	white	3.1153999204138483	neutral	012	sub-07	2.0	6.0	012_neutral	0.0		185.3218058003904	3.7665632319922224
26.0	156.09944459201597	pulse	1.0	t		24.0	male	white	3.1153999204138483	neutral	012	sub-07	2.0	6.0	012_neutral	0.0		185.9219235227347	
26.0	156.79940203086153	pulse	1.0	t		24.0	male	white	3.1153999204138483	neutral	012	sub-07	2.0	6.0	012_neutral	0.0		186.62188096158025	
26.0	157.4993890512178	pulse	1.0	t		24.0	male	white	3.1153999204138483	neutral	012	sub-07	2.0	6.0	012_neutral	0.0		187.32186798193652	
26.0	158.19936218637577	pulse	1.0	t		24.0	male	white	3.1153999204138483	neutral	012	sub-07	2.0	6.0	012_neutral	0.0		188.02184111709448	
26.0	158.89934226413243	pulse	1.0	t		24.0	male	white	3.1153999204138483	neutral	012	sub-07	2.0	6.0	012_neutral	0.0		188.72182119485115	
27.0	159.2658901016639	face	0.0		145	19.0	female	white	4.298846000795861	smiling	100	sub-07	2.0	6.0	100_smiling	0.0		189.08836903238262	1.2332985197162998
27.0	159.59932596411545	pulse	0.0	t		19.0	female	white	4.298846000795861	smiling	100	sub-07	2.0	6.0	100_smiling	0.0		189.42180489483417	
27.0	160.29930513631643	pulse	0.0	t		19.0	female	white	4.298846000795861	smiling	100	sub-07	2.0	6.0	100_smiling	0.0		190.12178406703515	
27.0	160.4991886213802	fix	1.0		445	19.0	female	white	4.298846000795861	smiling	100	sub-07	2.0	6.0	100_smiling	0.0		190.32166755209892	3.77486778875209
27.0	160.9992852140731	pulse	1.0	t		19.0	female	white	4.298846000795861	smiling	100	sub-07	2.0	6.0	100_smiling	0.0		190.8217641447918	
27.0	161.69923269179617	pulse	1.0	t		19.0	female	white	4.298846000795861	smiling	100	sub-07	2.0	6.0	100_smiling	0.0		191.52171162251489	
27.0	162.3992399362487	pulse	1.0	t		19.0	female	white	4.298846000795861	smiling	100	sub-07	2.0	6.0	100_smiling	0.0		192.22171886696742	
27.0	163.09921971215317	pulse	1.0	t		19.0	female	white	4.298846000795861	smiling	100	sub-07	2.0	6.0	100_smiling	0.0		192.9216986428719	
27.0	163.79920099731953	pulse	1.0	t		19.0	female	white	4.298846000795861	smiling	100	sub-07	2.0	6.0	100_smiling	0.0		193.62167992803825	
28.0	164.2740564101323	face	0.0		145	31.0	female	west_asian	2.364902506963788	neutral	006	sub-07	2.0	6.0	006_neutral	0.0		194.096535340851	1.2333166308471846
28.0	164.49918348989377	pulse	0.0	t		31.0	female	west_asian	2.364902506963788	neutral	006	sub-07	2.0	6.0	006_neutral	0.0		194.32166242061248	
28.0	165.19918650841555	pulse	0.0	t		31.0	female	west_asian	2.364902506963788	neutral	006	sub-07	2.0	6.0	006_neutral	0.0		195.02166543913427	
28.0	165.50737304097947	fix	1.0		444	31.0	female	west_asian	2.364902506963788	neutral	006	sub-07	2.0	6.0	006_neutral	0.0		195.3298519716982	3.766553572721932
28.0	165.89913881577286	pulse	1.0	t		31.0	female	west_asian	2.364902506963788	neutral	006	sub-07	2.0	6.0	006_neutral	0.0		195.72161774649157	
28.0	166.59912462872126	pulse	1.0	t		31.0	female	west_asian	2.364902506963788	neutral	006	sub-07	2.0	6.0	006_neutral	0.0		196.42160355943997	
28.0	167.29909776387922	pulse	1.0	t		31.0	female	west_asian	2.364902506963788	neutral	006	sub-07	2.0	6.0	006_neutral	0.0		197.12157669459793	
28.0	167.99907361570604	pulse	1.0	t		31.0	female	west_asian	2.364902506963788	neutral	006	sub-07	2.0	6.0	006_neutral	0.0		197.82155254642475	
28.0	168.6990539953149	pulse	1.0	t		31.0	female	west_asian	2.364902506963788	neutral	006	sub-07	2.0	6.0	006_neutral	0.0		198.52153292603361	
29.0	169.2739266137014	face	0.0		145	28.0	male	east_asian	1.5563072025467568	neutral	005	sub-07	2.0	6.0	005_neutral	0.0		199.09640554442012	1.2332955011952436
29.0	169.3990382990023	pulse	0.0	t		28.0	male	east_asian	1.5563072025467568	neutral	005	sub-07	2.0	6.0	005_neutral	0.0		199.22151722972103	
29.0	170.0990096230471	pulse	0.0	t		28.0	male	east_asian	1.5563072025467568	neutral	005	sub-07	2.0	6.0	005_neutral	0.0		199.9214885537658	
29.0	170.50722211489665	fix	1.0		444	28.0	male	east_asian	1.5563072025467568	neutral	005	sub-07	2.0	6.0	005_neutral	0.0		200.32970104561537	3.766556591243898
29.0	170.79899332303012	pulse	1.0	t		28.0	male	east_asian	1.5563072025467568	neutral	005	sub-07	2.0	6.0	005_neutral	0.0		200.62147225374883	
29.0	171.49897883412632	pulse	1.0	t		28.0	male	east_asian	1.5563072025467568	neutral	005	sub-07	2.0	6.0	005_neutral	0.0		201.32145776484504	
29.0	172.19892359517962	pulse	1.0	t		28.0	male	east_asian	1.5563072025467568	neutral	005	sub-07	2.0	6.0	005_neutral	0.0		202.02140252589834	
29.0	172.89893083963125	pulse	1.0	t		28.0	male	east_asian	1.5563072025467568	neutral	005	sub-07	2.0	6.0	005_neutral	0.0		202.72140977034996	
29.0	173.59921307140576	pulse	1.0	t		28.0	male	east_asian	1.5563072025467568	neutral	005	sub-07	2.0	6.0	005_neutral	0.0		203.42169200212447	
30.0	174.27377870614055	face	0.0		145	37.0	male	white	3.898925586947871	neutral	101	sub-07	2.0	6.0	101_neutral	0.0		204.09625763685926	1.233297312308423
30.0	174.29889673033722	pulse	0.0	t		37.0	male	white	3.898925586947871	neutral	101	sub-07	2.0	6.0	101_neutral	0.0		204.12137566105594	
30.0	174.99886956364207	pulse	0.0	t		37.0	male	white	3.898925586947871	neutral	101	sub-07	2.0	6.0	101_neutral	0.0		204.8213484943608	
30.0	175.50707601844897	fix	1.0		443	37.0	male	white	3.898925586947871	neutral	101	sub-07	2.0	6.0	101_neutral	0.0		205.3295549491677	3.7665532708697356
30.0	175.69889763589345	pulse	1.0	t		37.0	male	white	3.898925586947871	neutral	101	sub-07	2.0	6.0	101_neutral	0.0		205.52137656661216	
30.0	176.3988233802611	pulse	1.0	t		37.0	male	white	3.898925586947871	neutral	101	sub-07	2.0	6.0	101_neutral	0.0		206.2213023109798	
30.0	177.09881372099153	pulse	1.0	t		37.0	male	white	3.898925586947871	neutral	101	sub-07	2.0	6.0	101_neutral	0.0		206.92129265171025	
30.0	177.79878474318411	pulse	1.0	t		37.0	male	white	3.898925586947871	neutral	101	sub-07	2.0	6.0	101_neutral	0.0		207.62126367390283	
30.0	178.49876119871533	pulse	1.0	t		37.0	male	white	3.898925586947871	neutral	101	sub-07	2.0	6.0	101_neutral	0.0		208.32124012943405	
30.0	179.19873131535041	pulse	1.0	t		37.0	male	white	3.898925586947871	neutral	101	sub-07	2.0	6.0	101_neutral	0.0		209.02121024606913	
31.0	179.2736292893187	face	0.0		146	32.0	male	white	2.389176283326701	neutral	092	sub-07	2.0	6.0	092_neutral	1.0	trustworthiness	209.09610822003742	1.2332961048996367
31.0	179.89872497645501	pulse	0.0	t		32.0	male	white	2.389176283326701	neutral	092	sub-07	2.0	6.0	092_neutral	1.0	trustworthiness	209.72120390717373	
31.0	180.50692539421834	fix	1.0		177	32.0	male	white	2.389176283326701	neutral	092	sub-07	2.0	6.0	092_neutral	1.0	trustworthiness	210.32940432493706	1.5082915771172338
31.0	180.5987678394631	pulse	1.0	t		32.0	male	white	2.389176283326701	neutral	092	sub-07	2.0	6.0	092_neutral	1.0	trustworthiness	210.42124677018182	
31.0	181.29867577455207	pulse	1.0	t		32.0	male	white	2.389176283326701	neutral	092	sub-07	2.0	6.0	092_neutral	1.0	trustworthiness	211.12115470527078	
31.0	181.9986594745351	pulse	1.0	t		32.0	male	white	2.389176283326701	neutral	092	sub-07	2.0	6.0	092_neutral	1.0	trustworthiness	211.8211384052538	
31.0	182.01521697133558	rating	2.0		294	32.0	male	white	2.389176283326701	neutral	092	sub-07	2.0	6.0	092_neutral	1.0	trustworthiness	211.8376959020543	2.4915903986866397
31.0	182.69864951341424	pulse	2.0	t		32.0	male	white	2.389176283326701	neutral	092	sub-07	2.0	6.0	092_neutral	1.0	trustworthiness	212.52112844413296	
31.0	183.3986223467191	pulse	2.0	t		32.0	male	white	2.389176283326701	neutral	092	sub-07	2.0	6.0	092_neutral	1.0	trustworthiness	213.2211012774378	
31.0	183.92360604670193	response	2.0	e		32.0	male	white	2.389176283326701	neutral	092	sub-07	2.0	6.0	092_neutral	1.0	trustworthiness	213.74608497742065	
31.0	184.09859427446827	pulse	2.0	t		32.0	male	white	2.389176283326701	neutral	092	sub-07	2.0	6.0	092_neutral	1.0	trustworthiness	213.92107320518699	
31.0	184.50680737002222	fix	3.0		444	32.0	male	white	2.389176283326701	neutral	092	sub-07	2.0	6.0	092_neutral	1.0	trustworthiness	214.32928630074093	3.7665541764263253
31.0	184.79857857815568	pulse	3.0	t		32.0	male	white	2.389176283326701	neutral	092	sub-07	2.0	6.0	092_neutral	1.0	trustworthiness	214.6210575088744	
31.0	185.49856107072992	pulse	3.0	t		32.0	male	white	2.389176283326701	neutral	092	sub-07	2.0	6.0	092_neutral	1.0	trustworthiness	215.32104000144864	
31.0	186.19852967810493	pulse	3.0	t		32.0	male	white	2.389176283326701	neutral	092	sub-07	2.0	6.0	092_neutral	1.0	trustworthiness	216.02100860882365	
31.0	186.89851096327038	pulse	3.0	t		32.0	male	white	2.389176283326701	neutral	092	sub-07	2.0	6.0	092_neutral	1.0	trustworthiness	216.7209898939891	
31.0	187.59850583178377	pulse	3.0	t		32.0	male	white	2.389176283326701	neutral	092	sub-07	2.0	6.0	092_neutral	1.0	trustworthiness	217.42098476250248	
32.0	188.27336154644854	face	0.0		145	22.0	male	black	2.767608436132113	smiling	044	sub-07	2.0	6.0	044_smiling	0.0		218.09584047716726	1.2332985197172093
32.0	188.2984801743496	pulse	0.0	t		22.0	male	black	2.767608436132113	smiling	044	sub-07	2.0	6.0	044_smiling	0.0		218.12095910506832	
32.0	188.99848017434942	pulse	0.0	t		22.0	male	black	2.767608436132113	smiling	044	sub-07	2.0	6.0	044_smiling	0.0		218.82095910506814	
32.0	189.50666006616575	fix	1.0		443	22.0	male	black	2.767608436132113	smiling	044	sub-07	2.0	6.0	044_smiling	0.0		219.32913899688447	3.7582592789358387
32.0	189.69843127429885	pulse	1.0	t		22.0	male	black	2.767608436132113	smiling	044	sub-07	2.0	6.0	044_smiling	0.0		219.52091020501757	
32.0	190.39840712612568	pulse	1.0	t		22.0	male	black	2.767608436132113	smiling	044	sub-07	2.0	6.0	044_smiling	0.0		220.2208860568444	
32.0	191.09838569462227	pulse	1.0	t		22.0	male	black	2.767608436132113	smiling	044	sub-07	2.0	6.0	044_smiling	0.0		220.92086462534098	
32.0	191.79836456497014	pulse	1.0	t		22.0	male	black	2.767608436132113	smiling	044	sub-07	2.0	6.0	044_smiling	0.0		221.62084349568886	
32.0	192.49835218903172	pulse	1.0	t		22.0	male	black	2.767608436132113	smiling	044	sub-07	2.0	6.0	044_smiling	0.0		222.32083111975044	
32.0	193.19832502233658	pulse	1.0	t		22.0	male	black	2.767608436132113	smiling	044	sub-07	2.0	6.0	044_smiling	0.0		223.0208039530553	
33.0	193.2649193451016	face	0.0		147	30.0	female	black	2.7345801830481498	smiling	062	sub-07	2.0	6.0	062_smiling	0.0		223.0873982758203	1.24159130424232
33.0	193.8983075149108	pulse	0.0	t		30.0	female	black	2.7345801830481498	smiling	062	sub-07	2.0	6.0	062_smiling	0.0		223.72078644562953	
33.0	194.5065106493439	fix	1.0		443	30.0	female	black	2.7345801830481498	smiling	062	sub-07	2.0	6.0	062_smiling	0.0		224.32898958006263	3.766553270870645
33.0	194.59828910192937	pulse	1.0	t		30.0	female	black	2.7345801830481498	smiling	062	sub-07	2.0	6.0	062_smiling	0.0		224.42076803264808	
33.0	195.29825891671226	pulse	1.0	t		30.0	female	black	2.7345801830481498	smiling	062	sub-07	2.0	6.0	062_smiling	0.0		225.12073784743097	
33.0	195.998240805583	pulse	1.0	t		30.0	female	black	2.7345801830481498	smiling	062	sub-07	2.0	6.0	062_smiling	0.0		225.82071973630173	
33.0	196.69821756296642	pulse	1.0	t		30.0	female	black	2.7345801830481498	smiling	062	sub-07	2.0	6.0	062_smiling	0.0		226.52069649368514	
33.0	197.3982048851749	pulse	1.0	t		30.0	female	black	2.7345801830481498	smiling	062	sub-07	2.0	6.0	062_smiling	0.0		227.2206838158936	
33.0	198.0981828499671	pulse	1.0	t		30.0	female	black	2.7345801830481498	smiling	062	sub-07	2.0	6.0	062_smiling	0.0		227.9206617806858	
34.0	198.27306392021455	face	0.0		146	19.0	male	white	2.243931555909272	smiling	130	sub-07	2.0	6.0	130_smiling	1.0	dominance	228.09554285093327	1.2416248098325013
34.0	198.7981602110549	pulse	0.0	t		19.0	male	white	2.243931555909272	smiling	130	sub-07	2.0	6.0	130_smiling	1.0	dominance	228.6206391417736	
34.0	199.49818073700226	pulse	0.0	t		19.0	male	white	2.243931555909272	smiling	130	sub-07	2.0	6.0	130_smiling	1.0	dominance	229.32065966772097	
34.0	199.51468873004706	fix	1.0		176	19.0	male	white	2.243931555909272	smiling	130	sub-07	2.0	6.0	130_smiling	1.0	dominance	229.33716766076577	1.491652580232767
34.0	200.19811915916034	pulse	1.0	t		19.0	male	white	2.243931555909272	smiling	130	sub-07	2.0	6.0	130_smiling	1.0	dominance	230.02059808987906	
34.0	200.89819884813187	pulse	1.0	t		19.0	male	white	2.243931555909272	smiling	130	sub-07	2.0	6.0	130_smiling	1.0	dominance	230.7206777788506	
34.0	201.00634131027982	rating	2.0		295	19.0	male	white	2.243931555909272	smiling	130	sub-07	2.0	6.0	130_smiling	1.0	dominance	230.82882024099854	2.499904614715888
34.0	201.5981571925331	pulse	2.0	t		19.0	male	white	2.243931555909272	smiling	130	sub-07	2.0	6.0	130_smiling	1.0	dominance	231.42063612325182	
34.0	202.29806512762298	pulse	2.0	t		19.0	male	white	2.243931555909272	smiling	130	sub-07	2.0	6.0	130_smiling	1.0	dominance	232.1205440583417	
34.0	202.9980406775976	pulse	2.0	t		19.0	male	white	2.243931555909272	smiling	130	sub-07	2.0	6.0	130_smiling	1.0	dominance	232.82051960831632	
34.0	203.0092095095506	response	2.0	n		19.0	male	white	2.243931555909272	smiling	130	sub-07	2.0	6.0	130_smiling	1.0	dominance	232.83168844026932	
34.0	203.5062459249957	fix	3.0		443	19.0	male	white	2.243931555909272	smiling	130	sub-07	2.0	6.0	130_smiling	1.0	dominance	233.32872485571443	3.7665541764263253
34.0	203.69801683127662	pulse	3.0	t		19.0	male	white	2.243931555909272	smiling	130	sub-07	2.0	6.0	130_smiling	1.0	dominance	233.52049576199533	
34.0	204.3980041534851	pulse	3.0	t		19.0	male	white	2.243931555909272	smiling	130	sub-07	2.0	6.0	130_smiling	1.0	dominance	234.2204830842038	
34.0	205.09798272198168	pulse	3.0	t		19.0	male	white	2.243931555909272	smiling	130	sub-07	2.0	6.0	130_smiling	1.0	dominance	234.9204616527004	
34.0	205.79795283861768	pulse	3.0	t		19.0	male	white	2.243931555909272	smiling	130	sub-07	2.0	6.0	130_smiling	1.0	dominance	235.6204317693364	
34.0	206.49792295525276	pulse	3.0	t		19.0	male	white	2.243931555909272	smiling	130	sub-07	2.0	6.0	130_smiling	1.0	dominance	236.32040188597148	
34.0	207.19791027746214	pulse	3.0	t		19.0	male	white	2.243931555909272	smiling	130	sub-07	2.0	6.0	130_smiling	1.0	dominance	237.02038920818086	
35.0	207.27280010142204	face	0.0		146	40.0	male	black	2.408674890569041	smiling	061	sub-07	2.0	6.0	061_smiling	0.0		237.09527903214075	1.2332939919342607
35.0	207.89790393856674	pulse	0.0	t		40.0	male	black	2.408674890569041	smiling	061	sub-07	2.0	6.0	061_smiling	0.0		237.72038286928546	
35.0	208.5060940933563	fix	1.0		443	40.0	male	black	2.408674890569041	smiling	061	sub-07	2.0	6.0	061_smiling	0.0		238.328573024075	3.766555685687308
35.0	208.59789699596695	pulse	1.0	t		40.0	male	black	2.408674890569041	smiling	061	sub-07	2.0	6.0	061_smiling	0.0		238.42037592668567	
35.0	209.29784900147297	pulse	1.0	t		40.0	male	black	2.408674890569041	smiling	061	sub-07	2.0	6.0	061_smiling	0.0		239.12032793219169	
35.0	209.9978248532998	pulse	1.0	t		40.0	male	black	2.408674890569041	smiling	061	sub-07	2.0	6.0	061_smiling	0.0		239.8203037840185	
35.0	210.69780311994327	pulse	1.0	t		40.0	male	black	2.408674890569041	smiling	061	sub-07	2.0	6.0	061_smiling	0.0		240.520282050662	
35.0	211.39778048103108	pulse	1.0	t		40.0	male	black	2.408674890569041	smiling	061	sub-07	2.0	6.0	061_smiling	0.0		241.2202594117498	
35.0	212.09776840694485	pulse	1.0	t		40.0	male	black	2.408674890569041	smiling	061	sub-07	2.0	6.0	061_smiling	0.0		241.92024733766357	
36.0	212.2726497790436	face	0.0		146	54.0	female	white	2.286908077994429	smiling	136	sub-07	2.0	6.0	136_smiling	0.0		242.09512870976232	1.2416344691027916
36.0	212.79774757914493	pulse	0.0	t		54.0	female	white	2.286908077994429	smiling	136	sub-07	2.0	6.0	136_smiling	0.0		242.62022650986364	
36.0	213.49772373282394	pulse	0.0	t		54.0	female	white	2.286908077994429	smiling	136	sub-07	2.0	6.0	136_smiling	0.0		243.32020266354266	
36.0	213.5142842481464	fix	1.0		443	54.0	female	white	2.286908077994429	smiling	136	sub-07	2.0	6.0	136_smiling	0.0		243.3367631788651	3.7582200381539224
36.0	214.1977059235469	pulse	1.0	t		54.0	female	white	2.286908077994429	smiling	136	sub-07	2.0	6.0	136_smiling	0.0		244.0201848542656	
36.0	214.89767724759076	pulse	1.0	t		54.0	female	white	2.286908077994429	smiling	136	sub-07	2.0	6.0	136_smiling	0.0		244.72015617830948	
36.0	215.5976600420172	pulse	1.0	t		54.0	female	white	2.286908077994429	smiling	136	sub-07	2.0	6.0	136_smiling	0.0		245.4201389727359	
36.0	216.297629856801	pulse	1.0	t		54.0	female	white	2.286908077994429	smiling	136	sub-07	2.0	6.0	136_smiling	0.0		246.1201087875197	
36.0	216.99761959382704	pulse	1.0	t		54.0	female	white	2.286908077994429	smiling	136	sub-07	2.0	6.0	136_smiling	0.0		246.82009852454576	
37.0	217.27250428630032	face	0.0		145	31.0	female	west_asian	2.364902506963788	smiling	006	sub-07	2.0	6.0	006_smiling	0.0		247.09498321701903	1.2332939919342607
37.0	217.69760359566226	pulse	0.0	t		31.0	female	west_asian	2.364902506963788	smiling	006	sub-07	2.0	6.0	006_smiling	0.0		247.52008252638097	
37.0	218.39757220303727	pulse	0.0	t		31.0	female	west_asian	2.364902506963788	smiling	006	sub-07	2.0	6.0	006_smiling	0.0		248.220051133756	
37.0	218.50579827823458	fix	1.0		444	31.0	female	west_asian	2.364902506963788	smiling	006	sub-07	2.0	6.0	006_smiling	0.0		248.3282772089533	3.7582535437450133
37.0	219.09756133635983	pulse	1.0	t		31.0	female	west_asian	2.364902506963788	smiling	006	sub-07	2.0	6.0	006_smiling	0.0		248.92004026707855	
37.0	219.79754382893407	pulse	1.0	t		31.0	female	west_asian	2.364902506963788	smiling	006	sub-07	2.0	6.0	006_smiling	0.0		249.62002275965278	
37.0	220.49751485112665	pulse	1.0	t		31.0	female	west_asian	2.364902506963788	smiling	006	sub-07	2.0	6.0	006_smiling	0.0		250.31999378184537	
37.0	221.1974891936925	pulse	1.0	t		31.0	female	west_asian	2.364902506963788	smiling	006	sub-07	2.0	6.0	006_smiling	0.0		251.0199681244112	
37.0	221.8974747047887	pulse	1.0	t		31.0	female	west_asian	2.364902506963788	smiling	006	sub-07	2.0	6.0	006_smiling	0.0		251.7199536355074	
38.0	222.2640518219796	face	0.0		146	24.0	female	east_asian	2.9076800636689217	smiling	034	sub-07	2.0	6.0	034_smiling	0.0		252.0865307526983	1.2415897949822465
38.0	222.59745568810195	pulse	0.0	t		24.0	female	east_asian	2.9076800636689217	smiling	034	sub-07	2.0	6.0	034_smiling	0.0		252.41993461882066	
38.0	223.29741101398122	pulse	0.0	t		24.0	female	east_asian	2.9076800636689217	smiling	034	sub-07	2.0	6.0	034_smiling	0.0		253.11988994469993	
38.0	223.50564161696184	fix	1.0		444	24.0	female	east_asian	2.9076800636689217	smiling	034	sub-07	2.0	6.0	034_smiling	0.0		253.32812054768056	3.7665629301391164
38.0	223.99743153992858	pulse	1.0	t		24.0	female	east_asian	2.9076800636689217	smiling	034	sub-07	2.0	6.0	034_smiling	0.0		253.8199104706473	
38.0	224.69738777136445	pulse	1.0	t		24.0	female	east_asian	2.9076800636689217	smiling	034	sub-07	2.0	6.0	034_smiling	0.0		254.51986670208316	
38.0	225.39736694356543	pulse	1.0	t		24.0	female	east_asian	2.9076800636689217	smiling	034	sub-07	2.0	6.0	034_smiling	0.0		255.21984587428415	
38.0	226.09735185095724	pulse	1.0	t		24.0	female	east_asian	2.9076800636689217	smiling	034	sub-07	2.0	6.0	034_smiling	0.0		255.91983078167596	
38.0	226.79732860834065	pulse	1.0	t		24.0	female	east_asian	2.9076800636689217	smiling	034	sub-07	2.0	6.0	034_smiling	0.0		256.61980753905937	
39.0	227.27220454710096	face	0.0		145	20.0	male	black	2.609629924393156	smiling	043	sub-07	2.0	6.0	043_smiling	0.0		257.0946834778197	1.2332976141606196
39.0	227.4973089879495	pulse	0.0	t		20.0	male	black	2.609629924393156	smiling	043	sub-07	2.0	6.0	043_smiling	0.0		257.3197879186682	
39.0	228.19728363236754	pulse	0.0	t		20.0	male	black	2.609629924393156	smiling	043	sub-07	2.0	6.0	043_smiling	0.0		258.01976256308626	
39.0	228.50550216126157	fix	1.0		444	20.0	male	black	2.609629924393156	smiling	043	sub-07	2.0	6.0	043_smiling	0.0		258.3279810919803	3.749890729515755
39.0	228.89726914346375	pulse	1.0	t		20.0	male	black	2.609629924393156	smiling	043	sub-07	2.0	6.0	043_smiling	0.0		258.71974807418246	
39.0	229.5972428823261	pulse	1.0	t		20.0	male	black	2.609629924393156	smiling	043	sub-07	2.0	6.0	043_smiling	0.0		259.4197218130448	
39.0	230.29722446934375	pulse	1.0	t		20.0	male	black	2.609629924393156	smiling	043	sub-07	2.0	6.0	043_smiling	0.0		260.11970340006246	
39.0	230.99719609523981	pulse	1.0	t		20.0	male	black	2.609629924393156	smiling	043	sub-07	2.0	6.0	043_smiling	0.0		260.81967502595853	
39.0	231.69718854893563	pulse	1.0	t		20.0	male	black	2.609629924393156	smiling	043	sub-07	2.0	6.0	043_smiling	0.0		261.51966747965434	
40.0	232.25539289077733	fix	0.0		720													262.07787182149605	5.999820699814336
40.0	232.3971689285454	pulse	0.0	t														262.2196478592641	
40.0	233.09714025258927	pulse	0.0	t														262.919619183308	
40.0	233.79712093405124	pulse	0.0	t														263.61959986476995	
40.0	234.49709799328684	pulse	0.0	t														264.31957692400556	
40.0	235.19710101180863	pulse	0.0	t														265.01957994252734	
40.0	235.8970563376879	pulse	0.0	t														265.7195352684066	
40.0	236.5970327932191	pulse	0.0	t														266.41951172393783	
40.0	237.29701739875873	pulse	0.0	t														267.11949632947744	
40.0	237.99699868392418	pulse	0.0	t														267.8194776146429	
