trial_nr	onset	event_type	phase	response	nr_frames	trial_type	stim_name	task_probe	onset_abs	duration
0.0	0.0543975566665722	baseline	0.0		701		baseline	0.0	37.03213063310159	5.849630725921543
0.0	0.7042864288191595	pulse	0.0	t			baseline	0.0	37.682019505254175	
0.0	1.4042333929296547	pulse	0.0	t			baseline	0.0	38.38196646936467	
0.0	2.104213259213793	pulse	0.0	t			baseline	0.0	39.08194633564881	
0.0	2.804203992271141	pulse	0.0	t			baseline	0.0	39.781937068706156	
0.0	3.504185669684375	pulse	0.0	t			baseline	0.0	40.48191874611939	
0.0	4.204183949112121	pulse	0.0	t			baseline	0.0	41.181917025547136	
0.0	4.904154759752146	pulse	0.0	t			baseline	0.0	41.88188783618716	
0.0	5.6041304000691525	pulse	0.0	t			baseline	0.0	42.58186347650417	
0.0	5.904028282588115	ISI	1.0		0		baseline	0.0	42.88176135902313	0.17502145433036276
1.0	6.079049736918478	number	0.0		39	character	number-140.jpg	0.0	43.05678281335349	0.3249566611962109
1.0	6.304147696349901	pulse	0.0	t		character	number-140.jpg	0.0	43.281880772784916	
1.0	6.404006398114689	ISI	1.0		235	character	number-140.jpg	0.0	43.381739474549704	2.0166551408437954
1.0	7.004152012873419	pulse	1.0	t		character	number-140.jpg	0.0	43.981885089308435	
1.0	7.704127653190426	pulse	1.0	t		character	number-140.jpg	0.0	44.68186072962544	
2.0	8.420661538958484	number	0.0		45	character	number-10.jpg	0.0	45.3983946153935	0.38330730841789773
2.0	8.412636427053258	pulse	0.0	t		character	number-10.jpg	0.0	45.39036950348827	
2.0	8.803968847376382	ISI	1.0		232	character	number-10.jpg	0.0	45.7817019238114	2.0166451796353613
2.0	9.104108515595726	pulse	1.0	t		character	number-10.jpg	0.0	46.08184159203074	
2.0	9.804088985589715	pulse	1.0	t		character	number-10.jpg	0.0	46.78182206202473	
2.0	10.504069455583704	pulse	1.0	t		character	number-10.jpg	0.0	47.48180253201872	
3.0	10.820614027011743	car	0.0		46	object	car-81.jpg	0.0	47.79834710344676	0.38327259511515877
3.0	11.203886622126902	ISI	1.0		233	object	car-81.jpg	0.0	48.18161969856192	2.01663008689502
3.0	11.258157701628988	pulse	1.0	t		object	car-81.jpg	0.0	48.235890778064004	
3.0	11.903969722755392	pulse	1.0	t		object	car-81.jpg	0.0	48.88170279919041	
3.0	12.603954720571437	pulse	1.0	t		object	car-81.jpg	0.0	49.58168779700645	
4.0	13.220516709021922	limb	0.0		46	body	limb-12.jpg	0.0	50.19824978545694	0.3833048935794068
4.0	13.30394424620954	pulse	0.0	t		body	limb-12.jpg	0.0	50.281677322644555	
4.0	13.603821602601329	ISI	1.0		354	body	limb-12.jpg	0.0	50.581554679036344	3.016621936815227
4.0	14.003941620072965	pulse	1.0	t		body	limb-12.jpg	0.0	50.98167469650798	
4.0	14.703906997326612	pulse	1.0	t		body	limb-12.jpg	0.0	51.68164007376163	
4.0	15.403887165465676	pulse	1.0	t		body	limb-12.jpg	0.0	52.38162024190069	
4.0	16.103878502232874	pulse	1.0	t		body	limb-12.jpg	0.0	53.08161157866789	
5.0	16.620443539416556	car	0.0		46	object	car-41.jpg	0.0	53.59817661585157	0.383355907042187
5.0	16.803880102062976	pulse	0.0	t		object	car-41.jpg	0.0	53.78161317849799	
5.0	17.003799446458743	ISI	1.0		352	object	car-41.jpg	0.0	53.98153252289376	3.016611673751413
5.0	17.50392547084084	pulse	1.0	t		object	car-41.jpg	0.0	54.481658547275856	
5.0	18.20390352599634	pulse	1.0	t		object	car-41.jpg	0.0	55.181636602431354	
5.0	18.903900598004384	pulse	1.0	t		object	car-41.jpg	0.0	55.8816336744394	
5.0	19.603876540176316	pulse	1.0	t		object	car-41.jpg	0.0	56.58160961661133	
6.0	20.020411120210156	house	0.0		46	place	house-60.jpg	0.0	56.99814419664517	0.38327018027712256
6.0	20.30379754477326	pulse	0.0	t		place	house-60.jpg	0.0	57.281530621208276	
6.0	20.40368130048728	ISI	1.0		354	place	house-60.jpg	0.0	57.381414376922294	3.0166228423795474
6.0	21.00379371121744	pulse	1.0	t		place	house-60.jpg	0.0	57.981526787652456	
6.0	21.70376422000254	pulse	1.0	t		place	house-60.jpg	0.0	58.681497296437556	
6.0	22.40374468999653	pulse	1.0	t		place	house-60.jpg	0.0	59.381477766431544	
6.0	23.103739347166538	pulse	1.0	t		place	house-60.jpg	0.0	60.081472423601554	
7.0	23.420304142866826	number	0.0		46	character	number-73.jpg	0.0	60.39803721930184	0.38330398801508636
7.0	23.803608130881912	ISI	1.0		233	character	number-73.jpg	0.0	60.78134120731693	2.0166635927785137
7.0	23.857217544646574	pulse	1.0	t		character	number-73.jpg	0.0	60.83495062108159	
7.0	24.50370934279863	pulse	1.0	t		character	number-73.jpg	0.0	61.481442419233645	
7.0	25.203700377710902	pulse	1.0	t		character	number-73.jpg	0.0	62.18143345414592	
8.0	25.820271723660426	adult	0.0		46	face	adult-102.jpg	0.0	62.79800480009544	0.3833211937389933
8.0	25.90369412931659	pulse	0.0	t		face	adult-102.jpg	0.0	62.881427205751606	
8.0	26.20359291739942	ISI	1.0		596	face	adult-102.jpg	0.0	63.181325993834434	5.016586619802638
8.0	26.603747044463944	pulse	1.0	t		face	adult-102.jpg	0.0	63.58148012089896	
8.0	27.303720571797385	pulse	1.0	t		face	adult-102.jpg	0.0	64.2814536482324	
8.0	28.003700739936903	pulse	1.0	t		face	adult-102.jpg	0.0	64.98143381637192	
8.0	28.70369781194495	pulse	1.0	t		face	adult-102.jpg	0.0	65.68143088837996	
8.0	29.403684319035165	pulse	1.0	t		face	adult-102.jpg	0.0	66.38141739547018	
8.0	30.10365995935217	pulse	1.0	t		face	adult-102.jpg	0.0	67.08139303578719	
8.0	30.803643146039576	pulse	1.0	t		face	adult-102.jpg	0.0	67.78137622247459	
9.0	31.220179537202057	car	0.0		46	object	car-40.jpg	0.0	68.19791261363707	0.38328497116253857
9.0	31.50357682853837	pulse	0.0	t		object	car-40.jpg	0.0	68.48130990497339	
9.0	31.603464508364596	ISI	1.0		233	object	car-40.jpg	0.0	68.58119758479961	2.0166361239912476
9.0	32.203560920790096	pulse	1.0	t		object	car-40.jpg	0.0	69.18129399722511	
9.0	32.90353957965499	pulse	1.0	t		object	car-40.jpg	0.0	69.88127265609	
10.0	33.62010063235584	house	0.0		45	place	house-120.jpg	0.0	70.59783370879086	0.3833145529333706
10.0	33.6120785389985	pulse	0.0	t		place	house-120.jpg	0.0	70.58981161543352	
10.0	34.003415185289214	ISI	1.0		472	place	house-120.jpg	0.0	70.98114826172423	4.016619521976736
10.0	34.30351863093165	pulse	1.0	t		place	house-120.jpg	0.0	71.28125170736666	
10.0	35.00348370633037	pulse	1.0	t		place	house-120.jpg	0.0	71.98121678276539	
10.0	35.70346930785581	pulse	1.0	t		place	house-120.jpg	0.0	72.68120238429083	
10.0	36.40346849284788	pulse	1.0	t		place	house-120.jpg	0.0	73.3812015692829	
10.0	37.10345167953528	pulse	1.0	t		place	house-120.jpg	0.0	74.0811847559703	
10.0	37.8035021798446	pulse	1.0	t		place	house-120.jpg	0.0	74.78123525627961	
11.0	38.02003470726595	car	0.0		46	object	car-116.jpg	0.0	74.99776778370097	0.3832735006794792
11.0	38.40330820794543	ISI	1.0		233	object	car-116.jpg	0.0	75.38104128438044	2.016644877780436
11.0	38.50344823839032	pulse	1.0	t		object	car-116.jpg	0.0	75.48118131482533	
11.0	39.20341331378904	pulse	1.0	t		object	car-116.jpg	0.0	76.18114639022406	
11.0	39.9033952930572	pulse	1.0	t		object	car-116.jpg	0.0	76.88112836949222	
12.0	40.419953085725865	limb	0.0		46	body	limb-100.jpg	0.0	77.39768616216088	0.383300667612275
12.0	40.60337727232536	pulse	0.0	t		body	limb-100.jpg	0.0	77.58111034876038	
12.0	40.80325375333814	ISI	1.0		474	body	limb-100.jpg	0.0	77.78098682977316	4.016639444394059
12.0	41.30337736288175	pulse	1.0	t		body	limb-100.jpg	0.0	78.28111043931676	
12.0	42.003342740135395	pulse	1.0	t		body	limb-100.jpg	0.0	78.98107581657041	
12.0	42.703326530532195	pulse	1.0	t		body	limb-100.jpg	0.0	79.68105960696721	
12.0	43.4033097172196	pulse	1.0	t		body	limb-100.jpg	0.0	80.38104279365461	
12.0	44.10337591397865	pulse	1.0	t		body	limb-100.jpg	0.0	81.08110899041367	
13.0	44.8198931977322	number	0.0		45	character	number-27.jpg	0.0	81.79762627416721	0.38332360857748426
13.0	44.812023842907365	pulse	0.0	t		character	number-27.jpg	0.0	81.78975691934238	
13.0	45.20321680630968	ISI	1.0		233	character	number-27.jpg	0.0	82.1809498827447	2.01662948318517
13.0	45.50335405969054	pulse	1.0	t		character	number-27.jpg	0.0	82.48108713612555	
13.0	46.20333090742679	pulse	1.0	t		character	number-27.jpg	0.0	83.1810639838618	
13.0	46.90331711266208	pulse	1.0	t		character	number-27.jpg	0.0	83.8810501890971	
14.0	47.21984628949485	limb	0.0		46	body	limb-75.jpg	0.0	84.19757936592987	0.3832719914057634
14.0	47.60311828090062	ISI	1.0		234	body	limb-75.jpg	0.0	84.58085135733563	2.0166436703611907
14.0	47.649592752586614	pulse	1.0	t		body	limb-75.jpg	0.0	84.62732582902163	
14.0	48.30322794475205	pulse	1.0	t		body	limb-75.jpg	0.0	85.28096102118707	
14.0	49.00319996281132	pulse	1.0	t		body	limb-75.jpg	0.0	85.98093303924634	
15.0	49.61976195126181	limb	0.0		46	body	limb-45.jpg	0.0	86.59749502769682	0.38330670470850237
15.0	49.703189186594955	pulse	0.0	t		body	limb-45.jpg	0.0	86.68092226302997	
15.0	50.00306865597031	ISI	1.0		234	body	limb-45.jpg	0.0	86.98080173240533	2.016647292618927
15.0	50.403188069732096	pulse	1.0	t		body	limb-45.jpg	0.0	87.38092114616711	
15.0	51.10316159706554	pulse	1.0	t		body	limb-45.jpg	0.0	88.08089467350055	
15.0	51.803141463349675	pulse	1.0	t		body	limb-45.jpg	0.0	88.78087453978469	
16.0	52.01971594858924	car	0.0		46	object	car-93.jpg	0.0	88.99744902502425	0.3833027805958409
16.0	52.40301872918508	ISI	1.0		233	object	car-93.jpg	0.0	89.3807518056201	2.0166961930976868
16.0	52.503146383583044	pulse	1.0	t		object	car-93.jpg	0.0	89.48087946001806	
16.0	53.20312172204558	pulse	1.0	t		object	car-93.jpg	0.0	90.1808547984806	
16.0	53.90316286485586	pulse	1.0	t		object	car-93.jpg	0.0	90.88089594129087	
17.0	54.419714922282765	number	0.0		46	character	number-38.jpg	0.0	91.39744799871778	0.383271085841443
17.0	54.603098962193144	pulse	0.0	t		character	number-38.jpg	0.0	91.58083203862816	
17.0	54.80298600812421	ISI	1.0		353	character	number-38.jpg	0.0	91.78071908455922	3.0166207293959815
17.0	55.30308335629934	pulse	1.0	t		character	number-38.jpg	0.0	92.28081643273435	
17.0	56.00304782798867	pulse	1.0	t		character	number-38.jpg	0.0	92.98078090442368	
17.0	56.70303886290094	pulse	1.0	t		character	number-38.jpg	0.0	93.68077193933595	
17.0	57.40302899224889	pulse	1.0	t		character	number-38.jpg	0.0	94.38076206868391	
18.0	57.81960673752019	house	0.0		46	place	house-121.jpg	0.0	94.7973398139552	0.38329221567755667
18.0	58.10301459377433	pulse	0.0	t		place	house-121.jpg	0.0	95.08074767020935	
18.0	58.202898953197746	ISI	1.0		353	place	house-121.jpg	0.0	95.18063202963276	3.0166711391489116
18.0	58.803014080621324	pulse	1.0	t		place	house-121.jpg	0.0	95.78074715705634	
18.0	59.50299304134114	pulse	1.0	t		place	house-121.jpg	0.0	96.48072611777616	
18.0	60.20297954843136	pulse	1.0	t		place	house-121.jpg	0.0	97.18071262486637	
18.0	60.903027030192334	pulse	1.0	t		place	house-121.jpg	0.0	97.88076010662735	
19.0	61.21957009234666	number	0.0		46	character	number-91.jpg	0.0	98.19730316878167	0.38326233205134486
19.0	61.602832424398	ISI	1.0		592	character	number-91.jpg	0.0	98.58056550083302	5.016576960449129
19.0	61.66355112258316	pulse	1.0	t		character	number-91.jpg	0.0	98.64128419901817	
19.0	62.30292548623538	pulse	1.0	t		character	number-91.jpg	0.0	99.2806585626704	
19.0	63.00290535251952	pulse	1.0	t		character	number-91.jpg	0.0	99.98063842895453	
19.0	63.702887029932754	pulse	1.0	t		character	number-91.jpg	0.0	100.68062010636777	
19.0	64.4028771592807	pulse	1.0	t		character	number-91.jpg	0.0	101.38061023571572	
19.0	65.10286608120941	pulse	1.0	t		character	number-91.jpg	0.0	102.08059915764443	
19.0	65.80284534378416	pulse	1.0	t		character	number-91.jpg	0.0	102.78057842021917	
19.0	66.50283909538939	pulse	1.0	t		character	number-91.jpg	0.0	103.4805721718244	
20.0	66.61940938484713	limb	0.0		46	body	limb-34.jpg	0.0	103.59714246128215	0.3833070065629727
20.0	67.0027163914101	ISI	1.0		473	body	limb-34.jpg	0.0	103.98044946784512	4.016688043018348
20.0	67.20283858223638	pulse	1.0	t		body	limb-34.jpg	0.0	104.1805716586714	
20.0	67.90288938440017	pulse	1.0	t		body	limb-34.jpg	0.0	104.88062246083518	
20.0	68.60286260987914	pulse	1.0	t		body	limb-34.jpg	0.0	105.58059568631415	
20.0	69.30284549471116	pulse	1.0	t		body	limb-34.jpg	0.0	106.28057857114618	
20.0	70.00282777583425	pulse	1.0	t		body	limb-34.jpg	0.0	106.98056085226926	
20.0	70.7028127736503	pulse	1.0	t		body	limb-34.jpg	0.0	107.68054585008531	
21.0	71.01940443442845	limb	0.0		46	body	limb-66.jpg	0.0	107.99713751086347	0.3832372781025697
21.0	71.40264171253102	ISI	1.0		351	body	limb-66.jpg	0.0	108.38037478896604	3.0166059385101107
21.0	71.47447470471798	pulse	1.0	t		body	limb-66.jpg	0.0	108.45220778115299	
21.0	72.1027296428365	pulse	1.0	t		body	limb-66.jpg	0.0	109.08046271927151	
21.0	72.80272007403892	pulse	1.0	t		body	limb-66.jpg	0.0	109.78045315047393	
21.0	73.5026872624212	pulse	1.0	t		body	limb-66.jpg	0.0	110.48042033885622	
21.0	74.20267437322127	pulse	1.0	t		body	limb-66.jpg	0.0	111.18040744965629	
22.0	74.41924765104113	adult	0.0		46	face	adult-138.jpg	0.0	111.39698072747615	0.3833073084183525
22.0	74.80255495945948	ISI	1.0		474	face	adult-138.jpg	0.0	111.7802880358945	4.016636727700643
22.0	74.9026838212767	pulse	1.0	t		face	adult-138.jpg	0.0	111.88041689771171	
22.0	75.60265825417446	pulse	1.0	t		face	adult-138.jpg	0.0	112.58039133060947	
22.0	76.30264234642618	pulse	1.0	t		face	adult-138.jpg	0.0	113.2803754228612	
22.0	77.00262824980655	pulse	1.0	t		face	adult-138.jpg	0.0	113.98036132624156	
22.0	77.70268991874354	pulse	1.0	t		face	adult-138.jpg	0.0	114.68042299517856	
22.0	78.40265952196478	pulse	1.0	t		face	adult-138.jpg	0.0	115.3803925983998	
23.0	78.81919168716013	adult	0.0		46	face	adult-2.jpg	0.0	115.79692476359514	0.38328859341982024
23.0	79.1025935063185	pulse	0.0	t		face	adult-2.jpg	0.0	116.08032658275351	
23.0	79.20248028057995	ISI	1.0		231	face	adult-2.jpg	0.0	116.18021335701496	2.0166252572180383
23.0	79.80256642994209	pulse	1.0	t		face	adult-2.jpg	0.0	116.7802995063771	
23.0	80.50254086283985	pulse	1.0	t		face	adult-2.jpg	0.0	117.48027393927487	
24.0	81.21910553779799	car	0.0		45	object	car-10.jpg	0.0	118.196838614233	0.3833073084183525
24.0	81.21180004775351	pulse	0.0	t		object	car-10.jpg	0.0	118.18953312418853	
24.0	81.60241284621634	ISI	1.0		836	object	car-10.jpg	0.0	118.58014592265135	7.016574847465108
24.0	81.90252081968083	pulse	1.0	t		object	car-10.jpg	0.0	118.88025389611585	
24.0	82.60250883604476	pulse	1.0	t		object	car-10.jpg	0.0	119.58024191247978	
24.0	83.30248447636177	pulse	1.0	t		object	car-10.jpg	0.0	120.28021755279678	
24.0	84.00248396320876	pulse	1.0	t		object	car-10.jpg	0.0	120.98021703964378	
24.0	84.70245688683235	pulse	1.0	t		object	car-10.jpg	0.0	121.68018996326737	
24.0	85.4025046704487	pulse	1.0	t		object	car-10.jpg	0.0	122.38023774688372	
24.0	86.10248936640983	pulse	1.0	t		object	car-10.jpg	0.0	123.08022244284484	
24.0	86.80248281616059	pulse	1.0	t		object	car-10.jpg	0.0	123.7802158925956	
24.0	87.50246509728322	pulse	1.0	t		object	car-10.jpg	0.0	124.48019817371824	
24.0	88.20245009509927	pulse	1.0	t		object	car-10.jpg	0.0	125.18018317153428	
25.0	88.61898769368145	car	0.0		46	object	car-10.jpg	1.0	125.59672077011646	0.38327259511515877
25.0	88.9023735145347	pulse	0.0	t		object	car-10.jpg	1.0	125.88010659096972	
25.0	89.0022602887966	ISI	1.0		713	object	car-10.jpg	1.0	125.97999336523162	6.016611371896943
25.0	89.60237511436526	pulse	1.0	t		object	car-10.jpg	1.0	126.58010819080027	
25.0	90.30235377323015	pulse	1.0	t		object	car-10.jpg	1.0	127.28008684966517	
25.0	91.00232337645139	pulse	1.0	t		object	car-10.jpg	1.0	127.9800564528864	
25.0	91.70231380765381	pulse	1.0	t		object	car-10.jpg	1.0	128.68004688408882	
25.0	92.40229729619614	pulse	1.0	t		object	car-10.jpg	1.0	129.38003037263115	
25.0	93.10229919788117	pulse	1.0	t		object	car-10.jpg	1.0	130.08003227431618	
25.0	93.80227996973008	pulse	1.0	t		object	car-10.jpg	1.0	130.7800130461651	
25.0	94.50226526940105	pulse	1.0	t		object	car-10.jpg	1.0	131.47999834583607	
26.0	95.01887166069355	car	0.0		46	object	car-9.jpg	0.0	131.99660473712856	0.3832728969700838
26.0	95.20225630431332	pulse	0.0	t		object	car-9.jpg	0.0	132.17998938074834	
26.0	95.40214455766363	ISI	1.0		232	object	car-9.jpg	0.0	132.37987763409865	2.016613786734979
26.0	95.90224160398384	pulse	1.0	t		object	car-9.jpg	0.0	132.87997468041885	
26.0	96.60222237583275	pulse	1.0	t		object	car-9.jpg	0.0	133.57995545226777	
26.0	97.30220827921312	pulse	1.0	t		object	car-9.jpg	0.0	134.27994135564813	
27.0	97.41875834439861	house	0.0		46	place	house-4.jpg	0.0	134.39649142083363	0.38333447535069354
27.0	97.8020928197493	ISI	1.0		232	place	house-4.jpg	0.0	134.77982589618432	2.016642161087475
27.0	98.00220021968971	pulse	1.0	t		place	house-4.jpg	0.0	134.97993329612473	
27.0	98.70217736928089	pulse	1.0	t		place	house-4.jpg	0.0	135.6799104457159	
27.0	99.40216176338754	pulse	1.0	t		place	house-4.jpg	0.0	136.37989483982255	
28.0	99.81873498083678	house	0.0		46	place	house-16.jpg	0.0	136.7964680572718	0.38331093067563415
28.0	100.10215430757353	pulse	0.0	t		place	house-16.jpg	0.0	137.07988738400854	
28.0	100.20204591151241	ISI	1.0		232	place	house-16.jpg	0.0	137.17977898794743	2.016673855841873
28.0	100.80214685175997	pulse	1.0	t		place	house-16.jpg	0.0	137.779879928195	
28.0	101.50218014634538	pulse	1.0	t		place	house-16.jpg	0.0	138.4799132227804	
29.0	102.21871976735429	adult	0.0		45	face	adult-96.jpg	0.0	139.1964528437893	0.3833054972892569
29.0	102.21080453059903	pulse	0.0	t		face	adult-96.jpg	0.0	139.18853760703405	
29.0	102.60202526464354	ISI	1.0		473	face	adult-96.jpg	0.0	139.57975834107856	4.0165887327866585
29.0	102.90216402729857	pulse	1.0	t		face	adult-96.jpg	0.0	139.87989710373358	
29.0	103.6021324231001	pulse	1.0	t		face	adult-96.jpg	0.0	140.57986549953512	
29.0	104.30213613591422	pulse	1.0	t		face	adult-96.jpg	0.0	141.27986921234924	
29.0	105.00210362615144	pulse	1.0	t		face	adult-96.jpg	0.0	141.97983670258645	
29.0	105.70208469985528	pulse	1.0	t		face	adult-96.jpg	0.0	142.6798177762903	
29.0	106.40206909396147	pulse	1.0	t		face	adult-96.jpg	0.0	143.3798021703965	
30.0	106.6186139974302	house	0.0		46	place	house-6.jpg	0.0	143.59634707386522	0.3832735006794792
30.0	107.00188749810968	ISI	1.0		352	place	house-6.jpg	0.0	143.9796205745447	3.0166225405246223
30.0	107.102025415571	pulse	1.0	t		place	house-6.jpg	0.0	144.07975849200602	
30.0	107.80198898169601	pulse	1.0	t		place	house-6.jpg	0.0	144.77972205813103	
30.0	108.50200144829932	pulse	1.0	t		place	house-6.jpg	0.0	145.47973452473434	
30.0	109.20195988289242	pulse	1.0	t		place	house-6.jpg	0.0	146.17969295932744	
30.0	109.90194578627279	pulse	1.0	t		place	house-6.jpg	0.0	146.8796788627078	
31.0	110.0185100386343	adult	0.0		46	face	adult-68.jpg	0.0	146.99624311506932	0.38332119373944806
31.0	110.40183123237375	ISI	1.0		233	face	adult-68.jpg	0.0	147.37956430880877	2.016647292618927
31.0	110.60193953787848	pulse	1.0	t		face	adult-68.jpg	0.0	147.5796726143135	
31.0	111.30191668746966	pulse	1.0	t		face	adult-68.jpg	0.0	148.27964976390467	
31.0	112.0018998741566	pulse	1.0	t		face	adult-68.jpg	0.0	148.97963295059162	
32.0	112.41847852499268	limb	0.0		46	body	limb-53.jpg	0.0	149.3962116014277	0.3833371920436548
32.0	112.70192592422654	pulse	0.0	t		body	limb-53.jpg	0.0	149.67965900066156	
32.0	112.80181571703633	ISI	1.0		233	body	limb-53.jpg	0.0	149.77954879347135	2.016639444394059
32.0	113.40194805018382	pulse	1.0	t		body	limb-53.jpg	0.0	150.37968112661883	
32.0	114.10192157751726	pulse	1.0	t		body	limb-53.jpg	0.0	151.07965465395228	
33.0	114.81845516143039	number	0.0		45	character	number-76.jpg	0.0	151.7961882378654	0.3833097232563887
33.0	114.81048196855227	pulse	0.0	t		character	number-76.jpg	0.0	151.78821504498728	
33.0	115.20176488468678	ISI	1.0		234	character	number-76.jpg	0.0	152.1794979611218	2.016644877780436
33.0	115.50189368613337	pulse	1.0	t		character	number-76.jpg	0.0	152.4796267625684	
33.0	116.20186932645038	pulse	1.0	t		character	number-76.jpg	0.0	153.1796024028854	
33.0	116.90186488918471	pulse	1.0	t		character	number-76.jpg	0.0	153.87959796561972	
34.0	117.21840976246722	car	0.0		46	object	car-74.jpg	0.0	154.19614283890223	0.3832728969700838
34.0	117.6016826594373	ISI	1.0		593	object	car-74.jpg	0.0	154.57941573587232	5.016583903109677
34.0	117.65485770413443	pulse	1.0	t		object	car-74.jpg	0.0	154.63259078056944	
34.0	118.30179715296572	pulse	1.0	t		object	car-74.jpg	0.0	155.27953022940073	
34.0	119.00174200409265	pulse	1.0	t		object	car-74.jpg	0.0	155.97947508052766	
34.0	119.70173062416643	pulse	1.0	t		object	car-74.jpg	0.0	156.67946370060145	
34.0	120.4017165275468	pulse	1.0	t		object	car-74.jpg	0.0	157.3794496039818	
34.0	121.10170092165345	pulse	1.0	t		object	car-74.jpg	0.0	158.07943399808846	
34.0	121.80169406954928	pulse	1.0	t		object	car-74.jpg	0.0	158.7794271459843	
34.0	122.50176690711396	pulse	1.0	t		object	car-74.jpg	0.0	159.47949998354898	
35.0	122.61826656254698	house	0.0		46	place	house-94.jpg	0.0	159.595999638982	0.38330338430523625
35.0	123.00156994685221	ISI	1.0		234	place	house-94.jpg	0.0	159.97930302328723	2.016662385359723
35.0	123.20167674308323	pulse	1.0	t		place	house-94.jpg	0.0	160.17940981951824	
35.0	123.90172271557049	pulse	1.0	t		place	house-94.jpg	0.0	160.8794557920055	
35.0	124.60169986516166	pulse	1.0	t		place	house-94.jpg	0.0	161.57943294159668	
36.0	125.01823233221194	car	0.0		46	object	car-119.jpg	0.0	161.99596540864695	0.3832728969696291
36.0	125.30162086975861	pulse	0.0	t		object	car-119.jpg	0.0	162.27935394619362	
36.0	125.40150522918157	ISI	1.0		234	object	car-119.jpg	0.0	162.37923830561658	2.0166560464085705
36.0	126.00161884733097	pulse	1.0	t		object	car-119.jpg	0.0	162.979351923766	
36.0	126.70159931732496	pulse	1.0	t		object	car-119.jpg	0.0	163.67933239375998	
37.0	127.41816127559014	car	0.0		45	object	car-58.jpg	0.0	164.39589435202515	0.3833097232563887
37.0	127.41016997142333	pulse	0.0	t		object	car-58.jpg	0.0	164.38790304785834	
37.0	127.80147099884653	ISI	1.0		229	object	car-58.jpg	0.0	164.77920407528154	2.0166436703611907
37.0	128.10157535005328	pulse	1.0	t		object	car-58.jpg	0.0	165.0793084264883	
37.0	128.80154102916185	pulse	1.0	t		object	car-58.jpg	0.0	165.77927410559687	
37.0	129.5015393085896	pulse	1.0	t		object	car-58.jpg	0.0	166.47927238502461	
38.0	129.81811466920772	adult	0.0		46	face	adult-32.jpg	0.0	166.79584774564273	0.3833091195469933
38.0	130.2014237887547	ISI	1.0		356	face	adult-32.jpg	0.0	167.17915686518973	3.0166554426987204
38.0	130.2325250969634	pulse	1.0	t		face	adult-32.jpg	0.0	167.21025817339842	
38.0	130.90150538010903	pulse	1.0	t		face	adult-32.jpg	0.0	167.87923845654404	
38.0	131.60155527670895	pulse	1.0	t		face	adult-32.jpg	0.0	168.57928835314397	
38.0	132.30154540605645	pulse	1.0	t		face	adult-32.jpg	0.0	169.27927848249146	
38.0	133.0015355354044	pulse	1.0	t		face	adult-32.jpg	0.0	169.97926861183942	
39.0	133.21807923145343	adult	0.0		46	face	adult-32.jpg	1.0	170.19581230788845	0.3832559931011019
39.0	133.60133522455453	ISI	1.0		471	face	adult-32.jpg	1.0	170.57906830098955	4.01660412738147
39.0	133.70146801048395	pulse	1.0	t		face	adult-32.jpg	1.0	170.67920108691897	
39.0	133.88477054959594	response	1.0	b		face	adult-32.jpg	1.0	170.86250362603096	
39.0	134.40141859685218	pulse	1.0	t		face	adult-32.jpg	1.0	171.3791516732872	
39.0	135.10140148168466	pulse	1.0	t		face	adult-32.jpg	1.0	172.07913455811968	
39.0	135.80140640191803	pulse	1.0	t		face	adult-32.jpg	1.0	172.77913947835304	
39.0	136.50139260715332	pulse	1.0	t		face	adult-32.jpg	1.0	173.47912568358834	
39.0	137.2013628140835	pulse	1.0	t		face	adult-32.jpg	1.0	174.1790958905185	
40.0	137.617939351936	house	0.0		46	place	house-69.jpg	0.0	174.59567242837102	0.3833048935794068
40.0	137.9013592823826	pulse	0.0	t		place	house-69.jpg	0.0	174.87909235881762	
40.0	138.0012442455154	ISI	1.0		593	place	house-69.jpg	0.0	174.97897732195042	5.016614390444829
40.0	138.6013488080207	pulse	1.0	t		place	house-69.jpg	0.0	175.57908188445572	
40.0	139.3013932712338	pulse	1.0	t		place	house-69.jpg	0.0	176.2791263476688	
40.0	140.00137615606627	pulse	1.0	t		place	house-69.jpg	0.0	176.9791092325013	
40.0	140.7013665872687	pulse	1.0	t		place	house-69.jpg	0.0	177.6790996637037	
40.0	141.40134766097253	pulse	1.0	t		place	house-69.jpg	0.0	178.37908073740755	
40.0	142.1013302439501	pulse	1.0	t		place	house-69.jpg	0.0	179.0790633203851	
40.0	142.80133576789285	pulse	1.0	t		place	house-69.jpg	0.0	179.77906884432787	
41.0	143.01785863596024	house	0.0		46	place	house-39.jpg	0.0	179.99559171239525	0.3832728969700838
41.0	143.40113153293032	ISI	1.0		354	place	house-39.jpg	0.0	180.37886460936534	3.016637331410493
41.0	143.50125979103814	pulse	1.0	t		place	house-39.jpg	0.0	180.47899286747315	
41.0	144.20123362022605	pulse	1.0	t		place	house-39.jpg	0.0	181.17896669666106	
41.0	144.90121318465572	pulse	1.0	t		place	house-39.jpg	0.0	181.87894626109073	
41.0	145.6012018047295	pulse	1.0	t		place	house-39.jpg	0.0	182.5789348811645	
41.0	146.30118529327137	pulse	1.0	t		place	house-39.jpg	0.0	183.2789183697064	
42.0	146.41776886434081	car	0.0		46	object	car-39.jpg	0.0	183.39550194077583	0.38330821398221815
42.0	146.80107707832303	ISI	1.0		953	object	car-39.jpg	0.0	183.77881015475805	8.016537417469408
42.0	147.0011808560057	pulse	1.0	t		object	car-39.jpg	0.0	183.97891393244072	
42.0	147.70116162785462	pulse	1.0	t		object	car-39.jpg	0.0	184.67889470428963	
42.0	148.40113515518806	pulse	1.0	t		object	car-39.jpg	0.0	185.37886823162307	
42.0	149.10119078702928	pulse	1.0	t		object	car-39.jpg	0.0	186.0789238634643	
42.0	149.80118846274718	pulse	1.0	t		object	car-39.jpg	0.0	186.7789215391822	
42.0	150.5011698383055	pulse	1.0	t		object	car-39.jpg	0.0	187.4789029147405	
42.0	151.20115211942812	pulse	1.0	t		object	car-39.jpg	0.0	188.17888519586313	
42.0	151.90113228756763	pulse	1.0	t		object	car-39.jpg	0.0	188.87886536400265	
42.0	152.6011187946574	pulse	1.0	t		object	car-39.jpg	0.0	189.5788518710924	
42.0	153.30111314997248	pulse	1.0	t		object	car-39.jpg	0.0	190.2788462264075	
42.0	154.00108396061296	pulse	1.0	t		object	car-39.jpg	0.0	190.97881703704797	
42.0	154.70107107141257	pulse	1.0	t		object	car-39.jpg	0.0	191.6788041478476	
43.0	154.81761449579244	house	0.0		46	place	house-55.jpg	0.0	191.79534757222746	0.38327199140530865
43.0	155.20088648719775	ISI	1.0		233	place	house-55.jpg	0.0	192.17861956363276	2.0166424629424
43.0	155.4010107910076	pulse	1.0	t		place	house-55.jpg	0.0	192.3787438674426	
43.0	156.1009731497129	pulse	1.0	t		place	house-55.jpg	0.0	193.07870622614792	
43.0	156.80096176978668	pulse	1.0	t		place	house-55.jpg	0.0	193.7786948462217	
44.0	157.21752895014015	number	0.0		46	character	number-13.jpg	0.0	194.19526202657516	0.3833106288207091
44.0	157.5009509935703	pulse	0.0	t		character	number-13.jpg	0.0	194.47868407000533	
44.0	157.60083957896086	ISI	1.0		232	character	number-13.jpg	0.0	194.57857265539587	2.0166406518133044
44.0	158.20094987670745	pulse	1.0	t		character	number-13.jpg	0.0	195.17868295314247	
44.0	158.90091374468693	pulse	1.0	t		character	number-13.jpg	0.0	195.87864682112195	
45.0	159.61748023077416	limb	0.0		45	body	limb-19.jpg	0.0	196.59521330720918	0.38332149559391837
45.0	159.60965585231588	pulse	0.0	t		body	limb-19.jpg	0.0	196.5873889287509	
45.0	160.00080172636808	ISI	1.0		233	body	limb-19.jpg	0.0	196.9785348028031	2.0166774780996093
45.0	160.30090698313916	pulse	1.0	t		body	limb-19.jpg	0.0	197.27864005957417	
45.0	161.00093695732176	pulse	1.0	t		body	limb-19.jpg	0.0	197.97867003375677	
45.0	161.70092738852418	pulse	1.0	t		body	limb-19.jpg	0.0	198.6786604649592	
46.0	162.0174792044677	number	0.0		46	character	number-78.jpg	0.0	198.9952122809027	0.3832728969700838
46.0	162.40075210143777	ISI	1.0		711	character	number-78.jpg	0.0	199.3784851778728	6.016592053189015
46.0	162.4734360223265	pulse	1.0	t		character	number-78.jpg	0.0	199.4511690987615	
46.0	163.10083037238928	pulse	1.0	t		character	number-78.jpg	0.0	200.0785634488243	
46.0	163.80081808689874	pulse	1.0	t		character	number-78.jpg	0.0	200.77855116333376	
46.0	164.50081153664905	pulse	1.0	t		character	number-78.jpg	0.0	201.47854461308407	
46.0	165.2007953270463	pulse	1.0	t		character	number-78.jpg	0.0	202.17852840348132	
46.0	165.90076945808914	pulse	1.0	t		character	number-78.jpg	0.0	202.87850253452416	
46.0	166.60076653009764	pulse	1.0	t		character	number-78.jpg	0.0	203.57849960653266	
46.0	167.30075213162309	pulse	1.0	t		character	number-78.jpg	0.0	204.2784852080581	
46.0	168.00073954427762	pulse	1.0	t		character	number-78.jpg	0.0	204.97847262071264	
47.0	168.4173441546268	adult	0.0		46	face	adult-61.jpg	0.0	205.3950772310618	0.38326112463255413
47.0	168.70072031612654	pulse	0.0	t		face	adult-61.jpg	0.0	205.67845339256155	
47.0	168.80060527925934	ISI	1.0		234	face	adult-61.jpg	0.0	205.77833835569436	2.0166406518133044
47.0	169.4007195011186	pulse	1.0	t		face	adult-61.jpg	0.0	206.37845257755362	
47.0	170.1006809542596	pulse	1.0	t		face	adult-61.jpg	0.0	207.0784140306946	
48.0	170.81724593107265	adult	0.0		45	face	adult-139.jpg	0.0	207.79497900750766	0.38331304365920005
48.0	170.809466227126	pulse	0.0	t		face	adult-139.jpg	0.0	207.787199303561	
48.0	171.20055897473185	ISI	1.0		353	face	adult-139.jpg	0.0	208.17829205116686	3.0166168052837747
48.0	171.50067207972825	pulse	1.0	t		face	adult-139.jpg	0.0	208.47840515616326	
48.0	172.20063655141757	pulse	1.0	t		face	adult-139.jpg	0.0	209.1783696278526	
48.0	172.9006296993134	pulse	1.0	t		face	adult-139.jpg	0.0	209.87836277574843	
48.0	173.60060654704967	pulse	1.0	t		face	adult-139.jpg	0.0	210.57833962348468	
49.0	174.21717578001562	number	0.0		46	character	number-33.jpg	0.0	211.19490885645064	0.38333960688214574
49.0	174.30060633575113	pulse	0.0	t		character	number-33.jpg	0.0	211.27833941218614	
49.0	174.60051538689777	ISI	1.0		353	character	number-33.jpg	0.0	211.57824846333278	3.0166403499583794
49.0	175.0006689102529	pulse	1.0	t		character	number-33.jpg	0.0	211.9784019866879	
49.0	175.70062462815258	pulse	1.0	t		character	number-33.jpg	0.0	212.6783577045876	
49.0	176.40063045395027	pulse	1.0	t		character	number-33.jpg	0.0	213.3783635303853	
49.0	177.10060337757432	pulse	1.0	t		character	number-33.jpg	0.0	214.07833645400933	
50.0	177.61715573685615	limb	0.0		46	body	limb-135.jpg	0.0	214.59488881329116	0.3832575023748177
50.0	177.80054430458858	pulse	0.0	t		body	limb-135.jpg	0.0	214.7782773810236	
50.0	178.00041323923097	ISI	1.0		475	body	limb-135.jpg	0.0	214.97814631566598	4.016610768187547
50.0	178.5005296042591	pulse	1.0	t		body	limb-135.jpg	0.0	215.47826268069412	
50.0	179.20050735756013	pulse	1.0	t		body	limb-135.jpg	0.0	216.17824043399514	
50.0	179.90048631827995	pulse	1.0	t		body	limb-135.jpg	0.0	216.87821939471496	
50.0	180.60047916432086	pulse	1.0	t		body	limb-135.jpg	0.0	217.57821224075587	
50.0	181.30046235100826	pulse	1.0	t		body	limb-135.jpg	0.0	218.27819542744328	
51.0	182.0170240074185	number	0.0		45	character	number-36.jpg	0.0	218.99475708385353	0.3833118362399546
51.0	182.00909216864875	pulse	0.0	t		character	number-36.jpg	0.0	218.98682524508376	
51.0	182.40033584365847	ISI	1.0		234	character	number-36.jpg	0.0	219.37806892009348	2.0166732521324775
51.0	182.70043959115583	pulse	1.0	t		character	number-36.jpg	0.0	219.67817266759084	
51.0	183.40040194986113	pulse	1.0	t		character	number-36.jpg	0.0	220.37813502629615	
51.0	184.1004708633136	pulse	1.0	t		character	number-36.jpg	0.0	221.07820393974862	
52.0	184.41700909579095	limb	0.0		46	body	limb-93.jpg	0.0	221.39474217222596	0.38326414318044044
52.0	184.80027323897139	ISI	1.0		231	body	limb-93.jpg	0.0	221.7780063154064	2.016659668666307
52.0	184.86696353080788	pulse	1.0	t		body	limb-93.jpg	0.0	221.8446966072429	
52.0	185.50036690451816	pulse	1.0	t		body	limb-93.jpg	0.0	222.47809998095317	
52.0	186.20034526152858	pulse	1.0	t		body	limb-93.jpg	0.0	223.1780783379636	
53.0	186.8169329076377	house	0.0		46	place	house-50.jpg	0.0	223.7946659840727	0.3833027805958409
53.0	186.900354709584	pulse	0.0	t		place	house-50.jpg	0.0	223.87808778601902	
53.0	187.20023568823353	ISI	1.0		355	place	house-50.jpg	0.0	224.17796876466855	3.016608957058452
53.0	187.60034061296437	pulse	1.0	t		place	house-50.jpg	0.0	224.5780736893994	
53.0	188.3003216866682	pulse	1.0	t		place	house-50.jpg	0.0	225.27805476310323	
53.0	189.00028796948618	pulse	1.0	t		place	house-50.jpg	0.0	225.9780210459212	
53.0	189.7002750802858	pulse	1.0	t		place	house-50.jpg	0.0	226.6780081567208	
54.0	190.21684464529199	limb	0.0		46	body	limb-96.jpg	0.0	227.194577721727	0.38333839946290027
54.0	190.40026611519806	pulse	0.0	t		body	limb-96.jpg	0.0	227.37799919163308	
54.0	190.60018304475489	ISI	1.0		476	body	limb-96.jpg	0.0	227.5779161211899	4.016599901414338
54.0	191.1003205396196	pulse	1.0	t		body	limb-96.jpg	0.0	228.0780536160546	
54.0	191.80030251888775	pulse	1.0	t		body	limb-96.jpg	0.0	228.77803559532276	
54.0	192.50029536492866	pulse	1.0	t		body	limb-96.jpg	0.0	229.47802844136368	
54.0	193.20028579613154	pulse	1.0	t		body	limb-96.jpg	0.0	230.17801887256655	
54.0	193.90026113459362	pulse	1.0	t		body	limb-96.jpg	0.0	230.87799421102864	
55.0	194.61678294616922	limb	0.0		45	body	limb-96.jpg	1.0	231.59451602260424	0.38330881769206826
55.0	194.6090240702042	pulse	0.0	t		body	limb-96.jpg	1.0	231.58675714663923	
55.0	195.0000917638613	ISI	1.0		231	body	limb-96.jpg	1.0	231.9778248402963	2.0166611779400228
55.0	195.30025105264303	pulse	1.0	t		body	limb-96.jpg	1.0	232.27798412907805	
55.0	195.50854928277795	response	1.0	b		body	limb-96.jpg	1.0	232.48628235921296	
55.0	196.00020405384976	pulse	1.0	t		body	limb-96.jpg	1.0	232.97793713028477	
55.0	196.70020927593805	pulse	1.0	t		body	limb-96.jpg	1.0	233.67794235237307	
56.0	197.01675294180131	house	0.0		46	place	house-27.jpg	0.0	233.99448601823633	0.3832575023748177
56.0	197.40001044417613	ISI	1.0		234	place	house-27.jpg	0.0	234.37774352061115	2.01664185923255
56.0	197.44604028373124	pulse	1.0	t		place	house-27.jpg	0.0	234.42377336016625	
56.0	198.10010622270647	pulse	1.0	t		place	house-27.jpg	0.0	235.0778392991415	
56.0	198.80008820197463	pulse	1.0	t		place	house-27.jpg	0.0	235.77782127840965	
57.0	199.41665230340868	adult	0.0		46	face	adult-98.jpg	0.0	236.3943853798437	0.3833082139826729
57.0	199.50007802946766	pulse	0.0	t		face	adult-98.jpg	0.0	236.47781110590267	
57.0	199.79996051739136	ISI	1.0		232	face	adult-98.jpg	0.0	236.77769359382637	2.0166596686658522
57.0	200.20006332913863	pulse	1.0	t		face	adult-98.jpg	0.0	237.17779640557364	
57.0	200.90004017687488	pulse	1.0	t		face	adult-98.jpg	0.0	237.8777732533099	
57.0	201.60004268226976	pulse	1.0	t		face	adult-98.jpg	0.0	238.57777575870477	
58.0	201.8166201860572	number	0.0		46	character	number-109.jpg	0.0	238.79435326249222	0.3832949323709727
58.0	202.19991511842818	ISI	1.0		354	character	number-109.jpg	0.0	239.1776481948632	3.0166491037480228
58.0	202.30004850806745	pulse	1.0	t		character	number-109.jpg	0.0	239.27778158450246	
58.0	203.0000156964502	pulse	1.0	t		character	number-109.jpg	0.0	239.9777487728852	
58.0	203.70005231143796	pulse	1.0	t		character	number-109.jpg	0.0	240.67778538787297	
58.0	204.40005240199434	pulse	1.0	t		character	number-109.jpg	0.0	241.37778547842936	
58.0	205.1000210996508	pulse	1.0	t		character	number-109.jpg	0.0	242.07775417608582	
59.0	205.2165642221762	adult	0.0		46	face	adult-100.jpg	0.0	242.19429729861122	0.3832744062437996
59.0	205.59983862842	ISI	1.0		351	face	adult-100.jpg	0.0	242.57757170485502	3.016632803588436
59.0	205.7999517636017	pulse	1.0	t		face	adult-100.jpg	0.0	242.77768484003673	
59.0	206.4999421948046	pulse	1.0	t		face	adult-100.jpg	0.0	243.4776752712396	
59.0	207.1999178351216	pulse	1.0	t		face	adult-100.jpg	0.0	244.1776509115566	
59.0	207.89990071995408	pulse	1.0	t		face	adult-100.jpg	0.0	244.8776337963891	
60.0	208.61647143200844	adult	0.0		45	face	adult-134.jpg	0.0	245.59420450844345	0.38331093067563415
60.0	208.60844813123185	pulse	0.0	t		face	adult-134.jpg	0.0	245.58618120766687	
60.0	208.99978236268407	ISI	1.0		235	face	adult-134.jpg	0.0	245.9775154391191	2.016629785040095
60.0	209.2998782619561	pulse	1.0	t		face	adult-134.jpg	0.0	246.27761133839113	
60.0	209.99986416533693	pulse	1.0	t		face	adult-134.jpg	0.0	246.97759724177195	
60.0	210.69983799452484	pulse	1.0	t		face	adult-134.jpg	0.0	247.67757107095986	
61.0	211.01641214772417	house	0.0		46	place	house-29.jpg	0.0	247.99414522415918	0.3833534922036961
61.0	211.39976563992786	ISI	1.0		354	place	house-29.jpg	0.0	248.37749871636288	3.0166252572180383
61.0	211.44456904340086	pulse	1.0	t		place	house-29.jpg	0.0	248.42230211983588	
61.0	212.09989100022904	pulse	1.0	t		place	house-29.jpg	0.0	249.07762407666405	
61.0	212.7998711683681	pulse	1.0	t		place	house-29.jpg	0.0	249.77760424480311	
61.0	213.49985224207194	pulse	1.0	t		place	house-29.jpg	0.0	250.47758531850695	
61.0	214.19984599367717	pulse	1.0	t		place	house-29.jpg	0.0	251.1775790701122	
62.0	214.4163908971459	adult	0.0		46	face	adult-47.jpg	0.0	251.39412397358092	0.3832707839860632
62.0	214.79966168113197	ISI	1.0		353	face	adult-47.jpg	0.0	251.77739475756698	3.0166101644776973
62.0	214.89977333722527	pulse	1.0	t		face	adult-47.jpg	0.0	251.87750641366029	
62.0	215.59973690334982	pulse	1.0	t		face	adult-47.jpg	0.0	252.57746997978484	
62.0	216.29971797705366	pulse	1.0	t		face	adult-47.jpg	0.0	253.27745105348868	
62.0	216.99970901196593	pulse	1.0	t		face	adult-47.jpg	0.0	253.97744208840095	
62.0	217.69969883945896	pulse	1.0	t		face	adult-47.jpg	0.0	254.67743191589398	
63.0	217.81627184560966	car	0.0		46	object	car-23.jpg	0.0	254.79400492204468	0.38330308245076594
63.0	218.19957492806043	ISI	1.0		234	object	car-23.jpg	0.0	255.17730800449544	2.0166457833447566
63.0	218.39970315598248	pulse	1.0	t		object	car-23.jpg	0.0	255.3774362324175	
63.0	219.0996724573488	pulse	1.0	t		object	car-23.jpg	0.0	256.0774055337838	
63.0	219.79965021064936	pulse	1.0	t		object	car-23.jpg	0.0	256.7773832870844	
64.0	220.21622071140519	number	0.0		46	character	number-74.jpg	0.0	257.1939537878402	0.38335258663937566
64.0	220.49967776999347	pulse	0.0	t		character	number-74.jpg	0.0	257.4774108464285	
64.0	220.59957329804456	ISI	1.0		234	character	number-74.jpg	0.0	257.5773063744796	2.016643972216116
64.0	221.1997068386113	pulse	1.0	t		character	number-74.jpg	0.0	258.1774399150463	
64.0	221.89968700675036	pulse	1.0	t		character	number-74.jpg	0.0	258.87742008318537	
65.0	222.61621727026068	limb	0.0		45	body	limb-46.jpg	0.0	259.5939503466957	0.3833057991437272
65.0	222.60828694076508	pulse	0.0	t		body	limb-46.jpg	0.0	259.5860200172001	
65.0	222.9995230694044	ISI	1.0		239	body	limb-46.jpg	0.0	259.9772561458394	1.999980077582677
65.0	223.29965066343175	pulse	1.0	t		body	limb-46.jpg	0.0	260.27738373986676	
65.0	223.99963747237643	pulse	1.0	t		body	limb-46.jpg	0.0	260.97737054881145	
65.0	224.69961884793474	pulse	1.0	t		body	limb-46.jpg	0.0	261.67735192436976	
66.0	224.99950314698708	baseline	0.0		708		baseline	0.0	261.9772362234221	5.8998907587456415
66.0	225.39961924034606	pulse	0.0	t			baseline	0.0	262.37735231678107	
66.0	226.09959729550155	pulse	0.0	t			baseline	0.0	263.07733037193657	
66.0	226.7995650875937	pulse	0.0	t			baseline	0.0	263.7772981640287	
66.0	227.49955883919938	pulse	0.0	t			baseline	0.0	264.4772919156344	
66.0	228.1995435351605	pulse	0.0	t			baseline	0.0	265.1772766115955	
66.0	228.8995372867662	pulse	0.0	t			baseline	0.0	265.8772703632012	
66.0	229.59957480731873	pulse	0.0	t			baseline	0.0	266.57730788375375	
66.0	230.29951362134898	pulse	0.0	t			baseline	0.0	267.277246697784	
66.0	230.89939390573272	ISI	1.0		12		baseline	0.0	267.87712698216774	0.11667020339882583
