trial_nr	onset	event_type	phase	response	nr_frames	face_age	face_sex	face_eth	attractiveness	expression	face_id	sub_id	ses	run	trial_type	catch	rating_type	onset_abs	duration
-1.0	0.05864634010504233	fix	0.0		713													23.75396253547933	5.957952403994113
-1.0	0.700160074087762	pulse	0.0	t														24.39547626946205	
-1.0	1.400136318042314	pulse	0.0	t														25.095452513416603	
-1.0	2.1001373141662043	pulse	0.0	t														25.795453509540494	
-1.0	2.800109030285512	pulse	0.0	t														26.4954252256598	
-1.0	3.500096744757684	pulse	0.0	t														27.195412940131973	
-1.0	4.200087779643127	pulse	0.0	t														27.895403975017416	
-1.0	4.900078814528115	pulse	0.0	t														28.595395009902404	
-1.0	5.600054454771907	pulse	0.0	t														29.295370650146197	
0.0	6.016598744099156	face	0.0		144	24.0	male	white	3.1153999204138483	smiling	012	sub-13	2.0	4.0	012_smiling	0.0		29.711914939473445	1.2333317536217692
0.0	6.300058771308613	pulse	0.0	t		24.0	male	white	3.1153999204138483	smiling	012	sub-13	2.0	4.0	012_smiling	0.0		29.995374966682903	
0.0	7.000025959591767	pulse	0.0	t		24.0	male	white	3.1153999204138483	smiling	012	sub-13	2.0	4.0	012_smiling	0.0		30.695342154966056	
0.0	7.249930497720925	fix	1.0		445	24.0	male	white	3.1153999204138483	smiling	012	sub-13	2.0	4.0	012_smiling	0.0		30.945246693095214	3.758252207093392
0.0	7.700062876546326	pulse	1.0	t		24.0	male	white	3.1153999204138483	smiling	012	sub-13	2.0	4.0	012_smiling	0.0		31.395379071920615	
0.0	8.400010444207965	pulse	1.0	t		24.0	male	white	3.1153999204138483	smiling	012	sub-13	2.0	4.0	012_smiling	0.0		32.095326639582254	
0.0	9.100007214351535	pulse	1.0	t		24.0	male	white	3.1153999204138483	smiling	012	sub-13	2.0	4.0	012_smiling	0.0		32.795323409725825	
0.0	9.799976515625076	pulse	1.0	t		24.0	male	white	3.1153999204138483	smiling	012	sub-13	2.0	4.0	012_smiling	0.0		33.495292710999365	
0.0	10.49996694679885	pulse	1.0	t		24.0	male	white	3.1153999204138483	smiling	012	sub-13	2.0	4.0	012_smiling	0.0		34.19528314217314	
1.0	11.008182704814317	face	0.0		146	21.0	male	black	2.969757262236371	smiling	137	sub-13	2.0	4.0	137_smiling	0.0		34.703498900188606	1.241645161962424
1.0	11.199948322301225	pulse	0.0	t		21.0	male	black	2.969757262236371	smiling	137	sub-13	2.0	4.0	137_smiling	0.0		34.895264517675514	
1.0	11.89995263883793	pulse	0.0	t		21.0	male	black	2.969757262236371	smiling	137	sub-13	2.0	4.0	137_smiling	0.0		35.59526883421222	
1.0	12.24982786677674	fix	1.0		444	21.0	male	black	2.969757262236371	smiling	137	sub-13	2.0	4.0	137_smiling	0.0		35.94514406215103	3.7582672998792077
1.0	12.599935221762735	pulse	1.0	t		21.0	male	black	2.969757262236371	smiling	137	sub-13	2.0	4.0	137_smiling	0.0		36.295251417137024	
1.0	13.299932293762595	pulse	1.0	t		21.0	male	black	2.969757262236371	smiling	137	sub-13	2.0	4.0	137_smiling	0.0		36.995248489136884	
1.0	13.9999248379263	pulse	1.0	t		21.0	male	black	2.969757262236371	smiling	137	sub-13	2.0	4.0	137_smiling	0.0		37.69524103330059	
1.0	14.69993398415454	pulse	1.0	t		21.0	male	black	2.969757262236371	smiling	137	sub-13	2.0	4.0	137_smiling	0.0		38.39525017952883	
1.0	15.399886683363547	pulse	1.0	t		21.0	male	black	2.969757262236371	smiling	137	sub-13	2.0	4.0	137_smiling	0.0		39.09520287873784	
2.0	16.00809516665595	face	0.0		146	27.0	male	black	3.5523278949462798	smiling	042	sub-13	2.0	4.0	042_smiling	1.0	attractiveness	39.70341136203024	1.2416599528924053
2.0	16.099887679487438	pulse	0.0	t		27.0	male	black	3.5523278949462798	smiling	042	sub-13	2.0	4.0	042_smiling	1.0	attractiveness	39.79520387486173	
2.0	16.79986754571064	pulse	0.0	t		27.0	male	black	3.5523278949462798	smiling	042	sub-13	2.0	4.0	042_smiling	1.0	attractiveness	40.49518374108493	
2.0	17.249755119548354	fix	1.0		177	27.0	male	black	3.5523278949462798	smiling	042	sub-13	2.0	4.0	042_smiling	1.0	attractiveness	40.94507131492264	1.5083232186516398
2.0	17.499859486163132	pulse	1.0	t		27.0	male	black	3.5523278949462798	smiling	042	sub-13	2.0	4.0	042_smiling	1.0	attractiveness	41.19517568153742	
2.0	18.19983029671539	pulse	1.0	t		27.0	male	black	3.5523278949462798	smiling	042	sub-13	2.0	4.0	042_smiling	1.0	attractiveness	41.89514649208968	
2.0	18.758078338199994	rating	2.0		293	27.0	male	black	3.5523278949462798	smiling	042	sub-13	2.0	4.0	042_smiling	1.0	attractiveness	42.45339453357428	2.491591658035759
2.0	18.899826765003127	pulse	2.0	t		27.0	male	black	3.5523278949462798	smiling	042	sub-13	2.0	4.0	042_smiling	1.0	attractiveness	42.595142960377416	
2.0	19.599813875764085	pulse	2.0	t		27.0	male	black	3.5523278949462798	smiling	042	sub-13	2.0	4.0	042_smiling	1.0	attractiveness	43.295130071138374	
2.0	20.141472530676765	response	2.0	d		27.0	male	black	3.5523278949462798	smiling	042	sub-13	2.0	4.0	042_smiling	1.0	attractiveness	43.836788726051054	
2.0	20.299797062400557	pulse	2.0	t		27.0	male	black	3.5523278949462798	smiling	042	sub-13	2.0	4.0	042_smiling	1.0	attractiveness	43.99511325777485	
2.0	20.99978749357433	pulse	2.0	t		27.0	male	black	3.5523278949462798	smiling	042	sub-13	2.0	4.0	042_smiling	1.0	attractiveness	44.69510368894862	
2.0	21.249669996235752	fix	3.0		444	27.0	male	black	3.5523278949462798	smiling	042	sub-13	2.0	4.0	042_smiling	1.0	attractiveness	44.94498619161004	3.7582428495666136
2.0	21.69977762289227	pulse	3.0	t		27.0	male	black	3.5523278949462798	smiling	042	sub-13	2.0	4.0	042_smiling	1.0	attractiveness	45.39509381826656	
2.0	22.39976020581753	pulse	3.0	t		27.0	male	black	3.5523278949462798	smiling	042	sub-13	2.0	4.0	042_smiling	1.0	attractiveness	46.09507640119182	
2.0	23.099758787095652	pulse	3.0	t		27.0	male	black	3.5523278949462798	smiling	042	sub-13	2.0	4.0	042_smiling	1.0	attractiveness	46.79507498246994	
2.0	23.799744690433272	pulse	3.0	t		27.0	male	black	3.5523278949462798	smiling	042	sub-13	2.0	4.0	042_smiling	1.0	attractiveness	47.49506088580756	
2.0	24.499722141811162	pulse	3.0	t		27.0	male	black	3.5523278949462798	smiling	042	sub-13	2.0	4.0	042_smiling	1.0	attractiveness	48.19503833718545	
3.0	25.007912845802366	face	0.0		146	37.0	male	white	3.898925586947871	neutral	101	sub-13	2.0	4.0	101_neutral	0.0		48.703229041176655	1.2416831957825707
3.0	25.199727363915372	pulse	0.0	t		37.0	male	white	3.898925586947871	neutral	101	sub-13	2.0	4.0	101_neutral	0.0		48.89504355928966	
3.0	25.899710550551845	pulse	0.0	t		37.0	male	white	3.898925586947871	neutral	101	sub-13	2.0	4.0	101_neutral	0.0		49.595026745926134	
3.0	26.249596041584937	fix	1.0		445	37.0	male	white	3.898925586947871	neutral	101	sub-13	2.0	4.0	101_neutral	0.0		49.944912236959226	3.758251905238012
3.0	26.599691926053765	pulse	1.0	t		37.0	male	white	3.898925586947871	neutral	101	sub-13	2.0	4.0	101_neutral	0.0		50.295008121428054	
3.0	27.299690809187723	pulse	1.0	t		37.0	male	white	3.898925586947871	neutral	101	sub-13	2.0	4.0	101_neutral	0.0		50.99500700456201	
3.0	27.99963475458071	pulse	1.0	t		37.0	male	white	3.898925586947871	neutral	101	sub-13	2.0	4.0	101_neutral	0.0		51.694950949955	
3.0	28.699681029062504	pulse	1.0	t		37.0	male	white	3.898925586947871	neutral	101	sub-13	2.0	4.0	101_neutral	0.0		52.39499722443679	
3.0	29.399648217345657	pulse	1.0	t		37.0	male	white	3.898925586947871	neutral	101	sub-13	2.0	4.0	101_neutral	0.0		53.094964412719946	
4.0	30.00784794682295	face	0.0		146	26.0	male	white	2.7966573816155993	neutral	117	sub-13	2.0	4.0	117_neutral	0.0		53.70316414219724	1.2416593491807362
4.0	30.099629290992198	pulse	0.0	t		26.0	male	white	2.7966573816155993	neutral	117	sub-13	2.0	4.0	117_neutral	0.0		53.79494548636649	
4.0	30.799645379901904	pulse	0.0	t		26.0	male	white	2.7966573816155993	neutral	117	sub-13	2.0	4.0	117_neutral	0.0		54.49496157527619	
4.0	31.249507296003685	fix	1.0		444	26.0	male	white	2.7966573816155993	neutral	117	sub-13	2.0	4.0	117_neutral	0.0		54.944823491377974	3.7665788970857648
4.0	31.499609247772696	pulse	1.0	t		26.0	male	white	2.7966573816155993	neutral	117	sub-13	2.0	4.0	117_neutral	0.0		55.194925443146985	
4.0	32.19959394368789	pulse	1.0	t		26.0	male	white	2.7966573816155993	neutral	117	sub-13	2.0	4.0	117_neutral	0.0		55.894910139062176	
4.0	32.89956777279713	pulse	1.0	t		26.0	male	white	2.7966573816155993	neutral	117	sub-13	2.0	4.0	117_neutral	0.0		56.594883968171416	
4.0	33.599566052219416	pulse	1.0	t		26.0	male	white	2.7966573816155993	neutral	117	sub-13	2.0	4.0	117_neutral	0.0		57.294882247593705	
4.0	34.29955587968152	pulse	1.0	t		26.0	male	white	2.7966573816155993	neutral	117	sub-13	2.0	4.0	117_neutral	0.0		57.99487207505581	
5.0	35.01608619308945	face	0.0		146	31.0	female	west_asian	2.364902506963788	smiling	006	sub-13	2.0	4.0	006_smiling	0.0		58.71140238846374	1.2333323573329835
5.0	35.002263314176616	pulse	0.0	t		31.0	female	west_asian	2.364902506963788	smiling	006	sub-13	2.0	4.0	006_smiling	0.0		58.697579509550906	
5.0	35.69953674202907	pulse	0.0	t		31.0	female	west_asian	2.364902506963788	smiling	006	sub-13	2.0	4.0	006_smiling	0.0		59.39485293740336	
5.0	36.24941855042243	fix	1.0		443	31.0	female	west_asian	2.364902506963788	smiling	006	sub-13	2.0	4.0	006_smiling	0.0		59.94473474579672	3.766577991518716
5.0	36.399529286192774	pulse	1.0	t		31.0	female	west_asian	2.364902506963788	smiling	006	sub-13	2.0	4.0	006_smiling	0.0		60.09484548156706	
5.0	37.099497983754645	pulse	1.0	t		31.0	female	west_asian	2.364902506963788	smiling	006	sub-13	2.0	4.0	006_smiling	0.0		60.794814179128934	
5.0	37.799498979878535	pulse	1.0	t		31.0	female	west_asian	2.364902506963788	smiling	006	sub-13	2.0	4.0	006_smiling	0.0		61.494815175252825	
5.0	38.499491825898076	pulse	1.0	t		31.0	female	west_asian	2.364902506963788	smiling	006	sub-13	2.0	4.0	006_smiling	0.0		62.194808021272365	
5.0	39.1994722958334	pulse	1.0	t		31.0	female	west_asian	2.364902506963788	smiling	006	sub-13	2.0	4.0	006_smiling	0.0		62.89478849120769	
5.0	39.89945729360397	pulse	1.0	t		31.0	female	west_asian	2.364902506963788	smiling	006	sub-13	2.0	4.0	006_smiling	0.0		63.59477348897826	
6.0	40.01599654194115	face	0.0		146	24.0	female	east_asian	2.9076800636689217	smiling	034	sub-13	2.0	4.0	034_smiling	0.0		63.71131273731544	1.2333205849599835
6.0	40.59945164890223	pulse	0.0	t		24.0	female	east_asian	2.9076800636689217	smiling	034	sub-13	2.0	4.0	034_smiling	0.0		64.29476784427652	
6.0	41.24931712690113	fix	1.0		443	24.0	female	east_asian	2.9076800636689217	smiling	034	sub-13	2.0	4.0	034_smiling	0.0		64.94463332227542	3.7582467736906437
6.0	41.29948162317487	pulse	1.0	t		24.0	female	east_asian	2.9076800636689217	smiling	034	sub-13	2.0	4.0	034_smiling	0.0		64.99479781854916	
6.0	41.99942164444383	pulse	1.0	t		24.0	female	east_asian	2.9076800636689217	smiling	034	sub-13	2.0	4.0	034_smiling	0.0		65.69473783981812	
6.0	42.69940362365742	pulse	1.0	t		24.0	female	east_asian	2.9076800636689217	smiling	034	sub-13	2.0	4.0	034_smiling	0.0		66.3947198190317	
6.0	43.39938982885087	pulse	1.0	t		24.0	female	east_asian	2.9076800636689217	smiling	034	sub-13	2.0	4.0	034_smiling	0.0		67.09470602422516	
6.0	44.099387504561946	pulse	1.0	t		24.0	female	east_asian	2.9076800636689217	smiling	034	sub-13	2.0	4.0	034_smiling	0.0		67.79470369993624	
6.0	44.799362842949904	pulse	1.0	t		24.0	female	east_asian	2.9076800636689217	smiling	034	sub-13	2.0	4.0	034_smiling	0.0		68.4946790383242	
7.0	45.00756390059178	face	0.0		146	27.0	male	black	3.5523278949462798	neutral	042	sub-13	2.0	4.0	042_neutral	0.0		68.70288009596607	1.241689232896988
7.0	45.49936746134199	pulse	0.0	t		27.0	male	black	3.5523278949462798	neutral	042	sub-13	2.0	4.0	042_neutral	0.0		69.19468365671628	
7.0	46.19935789251576	pulse	0.0	t		27.0	male	black	3.5523278949462798	neutral	042	sub-13	2.0	4.0	042_neutral	0.0		69.89467408789005	
7.0	46.249253133488764	fix	1.0		445	27.0	male	black	3.5523278949462798	neutral	042	sub-13	2.0	4.0	042_neutral	0.0		69.94456932886305	3.766574067394231
7.0	46.899341682863906	pulse	1.0	t		27.0	male	black	3.5523278949462798	neutral	042	sub-13	2.0	4.0	042_neutral	0.0		70.5946578782382	
7.0	47.5993146064061	pulse	1.0	t		27.0	male	black	3.5523278949462798	neutral	042	sub-13	2.0	4.0	042_neutral	0.0		71.29463080178039	
7.0	48.29931711180825	pulse	1.0	t		27.0	male	black	3.5523278949462798	neutral	042	sub-13	2.0	4.0	042_neutral	0.0		71.99463330718254	
7.0	48.999302109579276	pulse	1.0	t		27.0	male	black	3.5523278949462798	neutral	042	sub-13	2.0	4.0	042_neutral	0.0		72.69461830495356	
7.0	49.70761530662048	pulse	1.0	t		27.0	male	black	3.5523278949462798	neutral	042	sub-13	2.0	4.0	042_neutral	0.0		73.40293150199477	
8.0	50.015827200882995	face	0.0		145	25.0	female	west_asian	2.6756864305610826	smiling	064	sub-13	2.0	4.0	064_smiling	0.0		73.71114339625728	1.233325716507352
8.0	50.39926667171767	pulse	0.0	t		25.0	female	west_asian	2.6756864305610826	smiling	064	sub-13	2.0	4.0	064_smiling	0.0		74.09458286709196	
8.0	51.099258310314326	pulse	0.0	t		25.0	female	west_asian	2.6756864305610826	smiling	064	sub-13	2.0	4.0	064_smiling	0.0		74.79457450568862	
8.0	51.24915291739035	fix	1.0		446	25.0	female	west_asian	2.6756864305610826	smiling	064	sub-13	2.0	4.0	064_smiling	0.0		74.94446911276464	3.774919472440615
8.0	51.79924210066247	pulse	1.0	t		25.0	female	west_asian	2.6756864305610826	smiling	064	sub-13	2.0	4.0	064_smiling	0.0		75.49455829603676	
8.0	52.50759604822588	pulse	1.0	t		25.0	female	west_asian	2.6756864305610826	smiling	064	sub-13	2.0	4.0	064_smiling	0.0		76.20291224360017	
8.0	53.19922054816425	pulse	1.0	t		25.0	female	west_asian	2.6756864305610826	smiling	064	sub-13	2.0	4.0	064_smiling	0.0		76.89453674353854	
8.0	53.8992067533577	pulse	1.0	t		25.0	female	west_asian	2.6756864305610826	smiling	064	sub-13	2.0	4.0	064_smiling	0.0		77.59452294873199	
8.0	54.59920080680013	pulse	1.0	t		25.0	female	west_asian	2.6756864305610826	smiling	064	sub-13	2.0	4.0	064_smiling	0.0		78.29451700217442	
9.0	55.02407238983096	face	0.0		145	20.0	male	black	3.1070433744528456	smiling	082	sub-13	2.0	4.0	082_smiling	0.0		78.71938858520525	1.2333097181544872
9.0	55.30751521126422	pulse	0.0	t		20.0	male	black	3.1070433744528456	smiling	082	sub-13	2.0	4.0	082_smiling	0.0		79.0028314066385	
9.0	56.00749658676659	pulse	0.0	t		20.0	male	black	3.1070433744528456	smiling	082	sub-13	2.0	4.0	082_smiling	0.0		79.70281278214088	
9.0	56.25738210798545	fix	1.0		445	20.0	male	black	3.1070433744528456	smiling	082	sub-13	2.0	4.0	082_smiling	0.0		79.95269830335974	3.766600630697212
9.0	56.69916998733106	pulse	1.0	t		20.0	male	black	3.1070433744528456	smiling	082	sub-13	2.0	4.0	082_smiling	0.0		80.39448618270535	
9.0	57.407485901074324	pulse	1.0	t		20.0	male	black	3.1070433744528456	smiling	082	sub-13	2.0	4.0	082_smiling	0.0		81.10280209644861	
9.0	58.09939867322328	pulse	1.0	t		20.0	male	black	3.1070433744528456	smiling	082	sub-13	2.0	4.0	082_smiling	0.0		81.79471486859757	
9.0	58.807463744864435	pulse	1.0	t		20.0	male	black	3.1070433744528456	smiling	082	sub-13	2.0	4.0	082_smiling	0.0		82.50277994023872	
9.0	59.507458402018074	pulse	1.0	t		20.0	male	black	3.1070433744528456	smiling	082	sub-13	2.0	4.0	082_smiling	0.0		83.20277459739236	
10.0	60.02398273868266	face	0.0		145	24.0	female	east_asian	4.409868682849185	neutral	030	sub-13	2.0	4.0	030_neutral	0.0		83.71929893405695	1.233312133000254
10.0	60.2074388719534	pulse	0.0	t		24.0	female	east_asian	4.409868682849185	neutral	030	sub-13	2.0	4.0	030_neutral	0.0		83.90275506732769	
10.0	60.90740485281367	pulse	0.0	t		24.0	female	east_asian	4.409868682849185	neutral	030	sub-13	2.0	4.0	030_neutral	0.0		84.60272104818796	
10.0	61.257294871682916	fix	1.0		445	24.0	female	east_asian	4.409868682849185	neutral	030	sub-13	2.0	4.0	030_neutral	0.0		84.9526110670572	3.766584330488513
10.0	61.60740645264923	pulse	1.0	t		24.0	female	east_asian	4.409868682849185	neutral	030	sub-13	2.0	4.0	030_neutral	0.0		85.30272264802352	
10.0	62.30739205413147	pulse	1.0	t		24.0	female	east_asian	4.409868682849185	neutral	030	sub-13	2.0	4.0	030_neutral	0.0		86.00270824950576	
10.0	62.99933350257379	pulse	1.0	t		24.0	female	east_asian	4.409868682849185	neutral	030	sub-13	2.0	4.0	030_neutral	0.0		86.69464969794808	
10.0	63.69958805750139	pulse	1.0	t		24.0	female	east_asian	4.409868682849185	neutral	030	sub-13	2.0	4.0	030_neutral	0.0		87.39490425287568	
10.0	64.40736968662259	pulse	1.0	t		24.0	female	east_asian	4.409868682849185	neutral	030	sub-13	2.0	4.0	030_neutral	0.0		88.10268588199688	
11.0	65.02387920217143	face	0.0		145	28.0	male	white	3.9076800636689217	neutral	033	sub-13	2.0	4.0	033_neutral	0.0		88.71919539754572	1.233324207228634
11.0	65.10739090707966	pulse	0.0	t		28.0	male	white	3.9076800636689217	neutral	033	sub-13	2.0	4.0	033_neutral	0.0		88.80270710245395	
11.0	65.80733515432848	pulse	0.0	t		28.0	male	white	3.9076800636689217	neutral	033	sub-13	2.0	4.0	033_neutral	0.0		89.50265134970277	
11.0	66.25720340940006	fix	1.0		444	28.0	male	white	3.9076800636689217	neutral	033	sub-13	2.0	4.0	033_neutral	0.0		89.95251960477435	3.766592178737028
11.0	66.49925668029346	pulse	1.0	t		28.0	male	white	3.9076800636689217	neutral	033	sub-13	2.0	4.0	033_neutral	0.0		90.19457287566775	
11.0	67.20730152760143	pulse	1.0	t		28.0	male	white	3.9076800636689217	neutral	033	sub-13	2.0	4.0	033_neutral	0.0		90.90261772297572	
11.0	67.90727324372028	pulse	1.0	t		28.0	male	white	3.9076800636689217	neutral	033	sub-13	2.0	4.0	033_neutral	0.0		91.60258943909457	
11.0	68.60729627531191	pulse	1.0	t		28.0	male	white	3.9076800636689217	neutral	033	sub-13	2.0	4.0	033_neutral	0.0		92.3026124706862	
11.0	69.30726950070948	pulse	1.0	t		28.0	male	white	3.9076800636689217	neutral	033	sub-13	2.0	4.0	033_neutral	0.0		93.00258569608377	
12.0	70.02379558813709	face	0.0		146	28.0	female	white	5.676880222841227	neutral	124	sub-13	2.0	4.0	124_neutral	0.0		93.71911178351138	1.2333386963032353
12.0	70.0101649913172	pulse	0.0	t		28.0	female	white	5.676880222841227	neutral	124	sub-13	2.0	4.0	124_neutral	0.0		93.70548118669149	
12.0	70.70725368346984	pulse	0.0	t		28.0	female	white	5.676880222841227	neutral	124	sub-13	2.0	4.0	124_neutral	0.0		94.40256987884413	
12.0	71.25713428444033	fix	1.0		443	28.0	female	white	5.676880222841227	neutral	124	sub-13	2.0	4.0	124_neutral	0.0		94.95245047981462	3.758374458659546
12.0	71.40724592577817	pulse	1.0	t		28.0	female	white	5.676880222841227	neutral	124	sub-13	2.0	4.0	124_neutral	0.0		95.10256212115246	
12.0	72.09916745174314	pulse	1.0	t		28.0	female	white	5.676880222841227	neutral	124	sub-13	2.0	4.0	124_neutral	0.0		95.79448364711743	
12.0	72.80719871554356	pulse	1.0	t		28.0	female	white	5.676880222841227	neutral	124	sub-13	2.0	4.0	124_neutral	0.0		96.50251491091785	
12.0	73.49913020274744	pulse	1.0	t		28.0	female	white	5.676880222841227	neutral	124	sub-13	2.0	4.0	124_neutral	0.0		97.19444639812173	
12.0	74.19911218196103	pulse	1.0	t		28.0	female	white	5.676880222841227	neutral	124	sub-13	2.0	4.0	124_neutral	0.0		97.89442837733532	
12.0	74.90716276452758	pulse	1.0	t		28.0	female	white	5.676880222841227	neutral	124	sub-13	2.0	4.0	124_neutral	0.0		98.60247895990187	
13.0	75.01550874309987	face	0.0		147	24.0	male	white	3.1153999204138483	neutral	012	sub-13	2.0	4.0	012_neutral	0.0		98.71082493847416	1.2415352864809392
13.0	75.60716949591006	pulse	0.0	t		24.0	male	white	3.1153999204138483	neutral	012	sub-13	2.0	4.0	012_neutral	0.0		99.30248569128435	
13.0	76.25704402958081	fix	1.0		444	24.0	male	white	3.1153999204138483	neutral	012	sub-13	2.0	4.0	012_neutral	0.0		99.9523602249551	3.766570143269746
13.0	76.29901012454275	pulse	1.0	t		24.0	male	white	3.1153999204138483	neutral	012	sub-13	2.0	4.0	012_neutral	0.0		99.99432631991704	
13.0	76.99907028438747	pulse	1.0	t		24.0	male	white	3.1153999204138483	neutral	012	sub-13	2.0	4.0	012_neutral	0.0		100.69438647976176	
13.0	77.69898615719876	pulse	1.0	t		24.0	male	white	3.1153999204138483	neutral	012	sub-13	2.0	4.0	012_neutral	0.0		101.39430235257305	
13.0	78.39905567457072	pulse	1.0	t		24.0	male	white	3.1153999204138483	neutral	012	sub-13	2.0	4.0	012_neutral	0.0		102.09437186994501	
13.0	79.09893834325294	pulse	1.0	t		24.0	male	white	3.1153999204138483	neutral	012	sub-13	2.0	4.0	012_neutral	0.0		102.79425453862723	
13.0	79.79901631258508	pulse	1.0	t		24.0	male	white	3.1153999204138483	neutral	012	sub-13	2.0	4.0	012_neutral	0.0		103.49433250795937	
14.0	80.02361417285056	face	0.0		145	25.0	female	black	3.858336649423	neutral	126	sub-13	2.0	4.0	126_neutral	0.0		103.71893036822485	1.2333429222831
14.0	80.4989596542664	pulse	0.0	t		25.0	female	black	3.858336649423	neutral	126	sub-13	2.0	4.0	126_neutral	0.0		104.19427584964069	
14.0	81.20706396715104	pulse	0.0	t		25.0	female	black	3.858336649423	neutral	126	sub-13	2.0	4.0	126_neutral	0.0		104.90238016252533	
14.0	81.25695709513366	fix	1.0		445	25.0	female	black	3.858336649423	neutral	126	sub-13	2.0	4.0	126_neutral	0.0		104.95227329050795	3.7582431514219934
14.0	81.89900964157368	pulse	1.0	t		25.0	female	black	3.858336649423	neutral	126	sub-13	2.0	4.0	126_neutral	0.0		105.59432583694797	
14.0	82.59898588552869	pulse	1.0	t		25.0	female	black	3.858336649423	neutral	126	sub-13	2.0	4.0	126_neutral	0.0		106.29430208090298	
14.0	83.29896333690658	pulse	1.0	t		25.0	female	black	3.858336649423	neutral	126	sub-13	2.0	4.0	126_neutral	0.0		106.99427953228087	
14.0	83.99893988271697	pulse	1.0	t		25.0	female	black	3.858336649423	neutral	126	sub-13	2.0	4.0	126_neutral	0.0		107.69425607809126	
14.0	84.69893242688067	pulse	1.0	t		25.0	female	black	3.858336649423	neutral	126	sub-13	2.0	4.0	126_neutral	0.0		108.39424862225496	
15.0	85.01520024655565	face	0.0		146	28.0	female	white	5.676880222841227	smiling	124	sub-13	2.0	4.0	124_smiling	0.0		108.71051644192994	1.2416690085642585
15.0	85.40698391501428	pulse	0.0	t		28.0	female	white	5.676880222841227	smiling	124	sub-13	2.0	4.0	124_smiling	0.0		109.10230011038857	
15.0	86.09885865334309	pulse	0.0	t		28.0	female	white	5.676880222841227	smiling	124	sub-13	2.0	4.0	124_smiling	0.0		109.79417484871738	
15.0	86.25686925511991	fix	1.0		445	28.0	female	white	5.676880222841227	smiling	124	sub-13	2.0	4.0	124_smiling	0.0		109.9521854504942	3.76658674533428
15.0	86.79882795461663	pulse	1.0	t		28.0	female	white	5.676880222841227	smiling	124	sub-13	2.0	4.0	124_smiling	0.0		110.49414414999092	
15.0	87.49881204682015	pulse	1.0	t		28.0	female	white	5.676880222841227	smiling	124	sub-13	2.0	4.0	124_smiling	0.0		111.19412824219444	
15.0	88.19878346108362	pulse	1.0	t		28.0	female	white	5.676880222841227	smiling	124	sub-13	2.0	4.0	124_smiling	0.0		111.89409965645791	
15.0	88.898788381332	pulse	1.0	t		28.0	female	white	5.676880222841227	smiling	124	sub-13	2.0	4.0	124_smiling	0.0		112.59410457670629	
15.0	89.59877519023712	pulse	1.0	t		28.0	female	white	5.676880222841227	smiling	124	sub-13	2.0	4.0	124_smiling	0.0		113.29409138561141	
16.0	90.02345600045419	face	0.0		145	20.0	male	black	3.1070433744528456	neutral	082	sub-13	2.0	4.0	082_neutral	0.0		113.71877219582848	1.233324810940303
16.0	90.29870917439166	pulse	0.0	t		20.0	male	black	3.1070433744528456	neutral	082	sub-13	2.0	4.0	082_neutral	0.0		113.99402536976595	
16.0	90.9986277639041	pulse	0.0	t		20.0	male	black	3.1070433744528456	neutral	082	sub-13	2.0	4.0	082_neutral	0.0		114.69394395927839	
16.0	91.25678081139449	fix	1.0		444	20.0	male	black	3.1070433744528456	neutral	082	sub-13	2.0	4.0	082_neutral	0.0		114.95209700676878	3.766569539558077
16.0	91.69873772994242	pulse	1.0	t		20.0	male	black	3.1070433744528456	neutral	082	sub-13	2.0	4.0	082_neutral	0.0		115.39405392531671	
16.0	92.39871518132031	pulse	1.0	t		20.0	male	black	3.1070433744528456	neutral	082	sub-13	2.0	4.0	082_neutral	0.0		116.0940313766946	
16.0	93.0987089329069	pulse	1.0	t		20.0	male	black	3.1070433744528456	neutral	082	sub-13	2.0	4.0	082_neutral	0.0		116.79402512828119	
16.0	93.79857620694747	pulse	1.0	t		20.0	male	black	3.1070433744528456	neutral	082	sub-13	2.0	4.0	082_neutral	0.0		117.49389240232176	
16.0	94.49856241214138	pulse	1.0	t		20.0	male	black	3.1070433744528456	neutral	082	sub-13	2.0	4.0	082_neutral	0.0		118.19387860751567	
17.0	95.02335035095257	face	0.0		145	31.0	male	west_asian	1.9538400318344609	smiling	070	sub-13	2.0	4.0	070_smiling	0.0		118.71866654632686	1.2333426204277202
17.0	95.19855254145932	pulse	0.0	t		31.0	male	west_asian	1.9538400318344609	smiling	070	sub-13	2.0	4.0	070_smiling	0.0		118.89386873683361	
17.0	95.89860515491091	pulse	0.0	t		31.0	male	west_asian	1.9538400318344609	smiling	070	sub-13	2.0	4.0	070_smiling	0.0		119.5939213502852	
17.0	96.25669297138029	fix	1.0		445	31.0	male	west_asian	1.9538400318344609	smiling	070	sub-13	2.0	4.0	070_smiling	0.0		119.95200916675458	3.766583726776844
17.0	96.59863784588515	pulse	1.0	t		31.0	male	west_asian	1.9538400318344609	smiling	070	sub-13	2.0	4.0	070_smiling	0.0		120.29395404125944	
17.0	97.29863431417334	pulse	1.0	t		31.0	male	west_asian	1.9538400318344609	smiling	070	sub-13	2.0	4.0	070_smiling	0.0		120.99395050954763	
17.0	97.9985127568757	pulse	1.0	t		31.0	male	west_asian	1.9538400318344609	smiling	070	sub-13	2.0	4.0	070_smiling	0.0		121.69382895224999	
17.0	98.6985351847552	pulse	1.0	t		31.0	male	west_asian	1.9538400318344609	smiling	070	sub-13	2.0	4.0	070_smiling	0.0		122.39385138012949	
17.0	99.39860530583883	pulse	1.0	t		31.0	male	west_asian	1.9538400318344609	smiling	070	sub-13	2.0	4.0	070_smiling	0.0		123.09392150121312	
18.0	100.02327669815713	face	0.0		145	47.0	male	east_asian	2.171110226820533	smiling	024	sub-13	2.0	4.0	024_smiling	0.0		123.71859289353142	1.2333175664030023
18.0	100.09848314482952	pulse	0.0	t		47.0	male	east_asian	2.171110226820533	smiling	024	sub-13	2.0	4.0	024_smiling	0.0		123.7937993402038	
18.0	100.7985049689978	pulse	0.0	t		47.0	male	east_asian	2.171110226820533	smiling	024	sub-13	2.0	4.0	024_smiling	0.0		124.4938211643721	
18.0	101.25659426456014	fix	1.0		444	47.0	male	east_asian	2.171110226820533	smiling	024	sub-13	2.0	4.0	024_smiling	0.0		124.95191045993442	3.7665791989415993
18.0	101.49844770696836	pulse	1.0	t		47.0	male	east_asian	2.171110226820533	smiling	024	sub-13	2.0	4.0	024_smiling	0.0		125.19376390234265	
18.0	102.1985510321806	pulse	1.0	t		47.0	male	east_asian	2.171110226820533	smiling	024	sub-13	2.0	4.0	024_smiling	0.0		125.89386722755489	
18.0	102.89854327448847	pulse	1.0	t		47.0	male	east_asian	2.171110226820533	smiling	024	sub-13	2.0	4.0	024_smiling	0.0		126.59385946986276	
18.0	103.59852042401099	pulse	1.0	t		47.0	male	east_asian	2.171110226820533	smiling	024	sub-13	2.0	4.0	024_smiling	0.0		127.29383661938527	
18.0	104.29835992732524	pulse	1.0	t		47.0	male	east_asian	2.171110226820533	smiling	024	sub-13	2.0	4.0	024_smiling	0.0		127.99367612269953	
18.0	104.9983515659219	pulse	1.0	t		47.0	male	east_asian	2.171110226820533	smiling	024	sub-13	2.0	4.0	024_smiling	0.0		128.69366776129618	
19.0	105.02317346350173	face	0.0		146	19.0	female	white	4.298846000795861	smiling	100	sub-13	2.0	4.0	100_smiling	0.0		128.71848965887602	1.2333423185718857
19.0	105.69843708164672	pulse	0.0	t		19.0	female	white	4.298846000795861	smiling	100	sub-13	2.0	4.0	100_smiling	0.0		129.393753277021	
19.0	106.25651578207362	fix	1.0		443	19.0	female	white	4.298846000795861	smiling	100	sub-13	2.0	4.0	100_smiling	0.0		129.9518319774479	3.7665876509013287
19.0	106.39833333383649	pulse	1.0	t		19.0	female	white	4.298846000795861	smiling	100	sub-13	2.0	4.0	100_smiling	0.0		130.09364952921078	
19.0	107.09846684462082	pulse	1.0	t		19.0	female	white	4.298846000795861	smiling	100	sub-13	2.0	4.0	100_smiling	0.0		130.7937830399951	
19.0	107.79828491617945	pulse	1.0	t		19.0	female	white	4.298846000795861	smiling	100	sub-13	2.0	4.0	100_smiling	0.0		131.49360111155374	
19.0	108.49845404593816	pulse	1.0	t		19.0	female	white	4.298846000795861	smiling	100	sub-13	2.0	4.0	100_smiling	0.0		132.19377024131245	
19.0	109.19842425277875	pulse	1.0	t		19.0	female	white	4.298846000795861	smiling	100	sub-13	2.0	4.0	100_smiling	0.0		132.89374044815304	
19.0	109.89841347652964	pulse	1.0	t		19.0	female	white	4.298846000795861	smiling	100	sub-13	2.0	4.0	100_smiling	0.0		133.59372967190393	
20.0	110.02310343297495	face	0.0		146	40.0	female	west_asian	1.5777954635893354	neutral	038	sub-13	2.0	4.0	038_neutral	1.0	attractiveness	133.71841962834924	1.2333079070199346
20.0	110.59835379965443	pulse	0.0	t		40.0	female	west_asian	1.5777954635893354	neutral	038	sub-13	2.0	4.0	038_neutral	1.0	attractiveness	134.29366999502872	
20.0	111.25641133999488	fix	1.0		176	40.0	female	west_asian	1.5777954635893354	neutral	038	sub-13	2.0	4.0	038_neutral	1.0	attractiveness	134.95172753536917	1.499991698967733
20.0	111.29825276854535	pulse	1.0	t		40.0	female	west_asian	1.5777954635893354	neutral	038	sub-13	2.0	4.0	038_neutral	1.0	attractiveness	134.99356896391964	
20.0	111.99838205334936	pulse	1.0	t		40.0	female	west_asian	1.5777954635893354	neutral	038	sub-13	2.0	4.0	038_neutral	1.0	attractiveness	135.69369824872365	
20.0	112.69827679626042	pulse	1.0	t		40.0	female	west_asian	1.5777954635893354	neutral	038	sub-13	2.0	4.0	038_neutral	1.0	attractiveness	136.3935929916347	
20.0	112.75640303896262	rating	2.0		295	40.0	female	west_asian	1.5777954635893354	neutral	038	sub-13	2.0	4.0	038_neutral	1.0	attractiveness	136.4517192343369	2.4999560799928986
20.0	113.40121937636013	pulse	2.0	t		40.0	female	west_asian	1.5777954635893354	neutral	038	sub-13	2.0	4.0	038_neutral	1.0	attractiveness	137.09653557173442	
20.0	113.62311653351298	response	2.0	n		40.0	female	west_asian	1.5777954635893354	neutral	038	sub-13	2.0	4.0	038_neutral	1.0	attractiveness	137.31843272888727	
20.0	114.0981420478679	pulse	2.0	t		40.0	female	west_asian	1.5777954635893354	neutral	038	sub-13	2.0	4.0	038_neutral	1.0	attractiveness	137.79345824324218	
20.0	114.79817987038905	pulse	2.0	t		40.0	female	west_asian	1.5777954635893354	neutral	038	sub-13	2.0	4.0	038_neutral	1.0	attractiveness	138.49349606576334	
20.0	115.25635911895552	fix	3.0		1185	40.0	female	west_asian	1.5777954635893354	neutral	038	sub-13	2.0	4.0	038_neutral	1.0	attractiveness	138.9516753143298	10.016473775831855
20.0	115.49813287145389	pulse	3.0	t		40.0	female	west_asian	1.5777954635893354	neutral	038	sub-13	2.0	4.0	038_neutral	1.0	attractiveness	139.19344906682818	
20.0	116.1981000597375	pulse	3.0	t		40.0	female	west_asian	1.5777954635893354	neutral	038	sub-13	2.0	4.0	038_neutral	1.0	attractiveness	139.8934162551118	
20.0	116.898098942871	pulse	3.0	t		40.0	female	west_asian	1.5777954635893354	neutral	038	sub-13	2.0	4.0	038_neutral	1.0	attractiveness	140.5934151382453	
20.0	117.59815034890016	pulse	3.0	t		40.0	female	west_asian	1.5777954635893354	neutral	038	sub-13	2.0	4.0	038_neutral	1.0	attractiveness	141.29346654427445	
20.0	118.29807074954715	pulse	3.0	t		40.0	female	west_asian	1.5777954635893354	neutral	038	sub-13	2.0	4.0	038_neutral	1.0	attractiveness	141.99338694492144	
20.0	118.99806118072092	pulse	3.0	t		40.0	female	west_asian	1.5777954635893354	neutral	038	sub-13	2.0	4.0	038_neutral	1.0	attractiveness	142.6933773760952	
20.0	119.69805281931758	pulse	3.0	t		40.0	female	west_asian	1.5777954635893354	neutral	038	sub-13	2.0	4.0	038_neutral	1.0	attractiveness	143.39336901469187	
20.0	120.39801910203369	pulse	3.0	t		40.0	female	west_asian	1.5777954635893354	neutral	038	sub-13	2.0	4.0	038_neutral	1.0	attractiveness	144.09333529740798	
20.0	121.09803005939602	pulse	3.0	t		40.0	female	west_asian	1.5777954635893354	neutral	038	sub-13	2.0	4.0	038_neutral	1.0	attractiveness	144.7933462547703	
20.0	121.79800298293821	pulse	3.0	t		40.0	female	west_asian	1.5777954635893354	neutral	038	sub-13	2.0	4.0	038_neutral	1.0	attractiveness	145.4933191783125	
20.0	122.49800246978339	pulse	3.0	t		40.0	female	west_asian	1.5777954635893354	neutral	038	sub-13	2.0	4.0	038_neutral	1.0	attractiveness	146.19331866515768	
20.0	123.19797478961436	pulse	3.0	t		40.0	female	west_asian	1.5777954635893354	neutral	038	sub-13	2.0	4.0	038_neutral	1.0	attractiveness	146.89329098498865	
20.0	123.89796703192224	pulse	3.0	t		40.0	female	west_asian	1.5777954635893354	neutral	038	sub-13	2.0	4.0	038_neutral	1.0	attractiveness	147.59328322729652	
20.0	124.59795655752896	pulse	3.0	t		40.0	female	west_asian	1.5777954635893354	neutral	038	sub-13	2.0	4.0	038_neutral	1.0	attractiveness	148.29327275290325	
21.0	125.27283289478737	face	0.0		145	22.0	female	white	4.614007162753682	neutral	009	sub-13	2.0	4.0	009_neutral	0.0		148.96814909016166	1.233310623721536
21.0	125.2979657037572	pulse	0.0	t		22.0	female	white	4.614007162753682	neutral	009	sub-13	2.0	4.0	009_neutral	0.0		148.9932818991315	
21.0	125.99794466441335	pulse	0.0	t		22.0	female	white	4.614007162753682	neutral	009	sub-13	2.0	4.0	009_neutral	0.0		149.69326085978764	
21.0	126.5061435185089	fix	1.0		443	22.0	female	white	4.614007162753682	neutral	009	sub-13	2.0	4.0	009_neutral	0.0		150.2014597138832	3.766606969667464
21.0	126.6979402271345	pulse	1.0	t		22.0	female	white	4.614007162753682	neutral	009	sub-13	2.0	4.0	009_neutral	0.0		150.39325642250878	
21.0	127.39789443562177	pulse	1.0	t		22.0	female	white	4.614007162753682	neutral	009	sub-13	2.0	4.0	009_neutral	0.0		151.09321063099605	
21.0	128.0978912057658	pulse	1.0	t		22.0	female	white	4.614007162753682	neutral	009	sub-13	2.0	4.0	009_neutral	0.0		151.79320740114008	
21.0	128.79788314621828	pulse	1.0	t		22.0	female	white	4.614007162753682	neutral	009	sub-13	2.0	4.0	009_neutral	0.0		152.49319934159257	
21.0	129.49788957574492	pulse	1.0	t		22.0	female	white	4.614007162753682	neutral	009	sub-13	2.0	4.0	009_neutral	0.0		153.1932057711192	
21.0	130.19785797145096	pulse	1.0	t		22.0	female	white	4.614007162753682	neutral	009	sub-13	2.0	4.0	009_neutral	0.0		153.89317416682525	
22.0	130.27275048817637	face	0.0		146	30.0	female	black	2.7345801830481498	neutral	062	sub-13	2.0	4.0	062_neutral	1.0	dominance	153.96806668355066	1.2333045866071188
22.0	130.89786500468927	pulse	0.0	t		30.0	female	black	2.7345801830481498	neutral	062	sub-13	2.0	4.0	062_neutral	1.0	dominance	154.59318120006355	
22.0	131.5060550747835	fix	1.0		177	30.0	female	black	2.7345801830481498	neutral	062	sub-13	2.0	4.0	062_neutral	1.0	dominance	155.20137127015778	1.5083262372081663
22.0	131.59784215421132	pulse	1.0	t		30.0	female	black	2.7345801830481498	neutral	062	sub-13	2.0	4.0	062_neutral	1.0	dominance	155.2931583495856	
22.0	132.2978177944551	pulse	1.0	t		30.0	female	black	2.7345801830481498	neutral	062	sub-13	2.0	4.0	062_neutral	1.0	dominance	155.9931339898294	
22.0	132.9977970569671	pulse	1.0	t		30.0	female	black	2.7345801830481498	neutral	062	sub-13	2.0	4.0	062_neutral	1.0	dominance	156.6931132523414	
22.0	133.01438131199166	rating	2.0		294	30.0	female	black	2.7345801830481498	neutral	062	sub-13	2.0	4.0	062_neutral	1.0	dominance	156.70969750736595	2.491604637832097
22.0	133.69780288278253	pulse	2.0	t		30.0	female	black	2.7345801830481498	neutral	062	sub-13	2.0	4.0	062_neutral	1.0	dominance	157.39311907815681	
22.0	133.99780007552454	response	2.0	d		30.0	female	black	2.7345801830481498	neutral	062	sub-13	2.0	4.0	062_neutral	1.0	dominance	157.69311627089883	
22.0	134.39776131725012	pulse	2.0	t		30.0	female	black	2.7345801830481498	neutral	062	sub-13	2.0	4.0	062_neutral	1.0	dominance	158.0930775126244	
22.0	135.0978075917319	pulse	2.0	t		30.0	female	black	2.7345801830481498	neutral	062	sub-13	2.0	4.0	062_neutral	1.0	dominance	158.7931237871062	
22.0	135.50598594982375	fix	3.0		444	30.0	female	black	2.7345801830481498	neutral	062	sub-13	2.0	4.0	062_neutral	1.0	dominance	159.20130214519804	3.758350008346497
22.0	135.79780436187548	pulse	3.0	t		30.0	female	black	2.7345801830481498	neutral	062	sub-13	2.0	4.0	062_neutral	1.0	dominance	159.49312055724977	
22.0	136.4977486091243	pulse	3.0	t		30.0	female	black	2.7345801830481498	neutral	062	sub-13	2.0	4.0	062_neutral	1.0	dominance	160.1930648044986	
22.0	137.19775171823812	pulse	3.0	t		30.0	female	black	2.7345801830481498	neutral	062	sub-13	2.0	4.0	062_neutral	1.0	dominance	160.8930679136124	
22.0	137.89771468054187	pulse	3.0	t		30.0	female	black	2.7345801830481498	neutral	062	sub-13	2.0	4.0	062_neutral	1.0	dominance	161.59303087591616	
22.0	138.59774073069002	pulse	3.0	t		30.0	female	black	2.7345801830481498	neutral	062	sub-13	2.0	4.0	062_neutral	1.0	dominance	162.2930569260643	
23.0	139.26433595817025	face	0.0		146	20.0	female	white	3.9502586549940313	smiling	091	sub-13	2.0	4.0	091_smiling	0.0		162.95965215354454	1.2415570200923867
23.0	139.2977353878441	pulse	0.0	t		20.0	female	white	3.9502586549940313	smiling	091	sub-13	2.0	4.0	091_smiling	0.0		162.9930515832184	
23.0	139.99771887633597	pulse	0.0	t		20.0	female	white	3.9502586549940313	smiling	091	sub-13	2.0	4.0	091_smiling	0.0		163.69303507171026	
23.0	140.50589297826264	fix	1.0		443	20.0	female	white	3.9502586549940313	smiling	091	sub-13	2.0	4.0	091_smiling	0.0		164.20120917363693	3.7666057622445805
23.0	140.69771051493262	pulse	1.0	t		20.0	female	white	3.9502586549940313	smiling	091	sub-13	2.0	4.0	091_smiling	0.0		164.3930267103069	
23.0	141.3976656289874	pulse	1.0	t		20.0	female	white	3.9502586549940313	smiling	091	sub-13	2.0	4.0	091_smiling	0.0		165.0929818243617	
23.0	142.09765304160373	pulse	1.0	t		20.0	female	white	3.9502586549940313	smiling	091	sub-13	2.0	4.0	091_smiling	0.0		165.79296923697802	
23.0	142.79765041545943	pulse	1.0	t		20.0	female	white	3.9502586549940313	smiling	091	sub-13	2.0	4.0	091_smiling	0.0		166.49296661083372	
23.0	143.49764477075723	pulse	1.0	t		20.0	female	white	3.9502586549940313	smiling	091	sub-13	2.0	4.0	091_smiling	0.0		167.19296096613152	
23.0	144.1975938476976	pulse	1.0	t		20.0	female	white	3.9502586549940313	smiling	091	sub-13	2.0	4.0	091_smiling	0.0		167.89291004307188	
24.0	144.27249874050722	face	0.0		146	22.0	male	black	2.767608436132113	neutral	044	sub-13	2.0	4.0	044_neutral	0.0		167.9678149358815	1.2333278294972843
24.0	144.89761054031896	pulse	0.0	t		22.0	male	black	2.767608436132113	neutral	044	sub-13	2.0	4.0	044_neutral	0.0		168.59292673569325	
24.0	145.5058265700045	fix	1.0		443	22.0	male	black	2.767608436132113	neutral	044	sub-13	2.0	4.0	044_neutral	0.0		169.2011427653788	3.766581915642746
24.0	145.59760006592523	pulse	1.0	t		22.0	male	black	2.767608436132113	neutral	044	sub-13	2.0	4.0	044_neutral	0.0		169.29291626129952	
24.0	146.29755850039282	pulse	1.0	t		22.0	male	black	2.767608436132113	neutral	044	sub-13	2.0	4.0	044_neutral	0.0		169.9928746957671	
24.0	146.99756040208376	pulse	1.0	t		22.0	male	black	2.767608436132113	neutral	044	sub-13	2.0	4.0	044_neutral	0.0		170.69287659745805	
24.0	147.69753875902916	pulse	1.0	t		22.0	male	black	2.767608436132113	neutral	044	sub-13	2.0	4.0	044_neutral	0.0		171.39285495440345	
24.0	148.39752556793428	pulse	1.0	t		22.0	male	black	2.767608436132113	neutral	044	sub-13	2.0	4.0	044_neutral	0.0		172.09284176330857	
24.0	149.0975169046751	pulse	1.0	t		22.0	male	black	2.767608436132113	neutral	044	sub-13	2.0	4.0	044_neutral	0.0		172.7928331000494	
25.0	149.27240848564725	face	0.0		146	40.0	female	west_asian	1.5777954635893354	smiling	038	sub-13	2.0	4.0	038_smiling	0.0		172.96772468102154	1.2416635751610556
25.0	149.79762143731023	pulse	0.0	t		40.0	female	west_asian	1.5777954635893354	smiling	038	sub-13	2.0	4.0	038_smiling	0.0		173.49293763268452	
25.0	150.49749112619656	pulse	0.0	t		40.0	female	west_asian	1.5777954635893354	smiling	038	sub-13	2.0	4.0	038_smiling	0.0		174.19280732157085	
25.0	150.5140720608083	fix	1.0		443	40.0	female	west_asian	1.5777954635893354	smiling	038	sub-13	2.0	4.0	038_smiling	0.0		174.2093882561826	3.758246471834809
25.0	151.19747733139047	pulse	1.0	t		40.0	female	west_asian	1.5777954635893354	smiling	038	sub-13	2.0	4.0	038_smiling	0.0		174.89279352676476	
25.0	151.89746444215098	pulse	1.0	t		40.0	female	west_asian	1.5777954635893354	smiling	038	sub-13	2.0	4.0	038_smiling	0.0		175.59278063752527	
25.0	152.59746936239935	pulse	1.0	t		40.0	female	west_asian	1.5777954635893354	smiling	038	sub-13	2.0	4.0	038_smiling	0.0		176.29278555777364	
25.0	153.2974564731603	pulse	1.0	t		40.0	female	west_asian	1.5777954635893354	smiling	038	sub-13	2.0	4.0	038_smiling	0.0		176.9927726685346	
25.0	153.9974330189707	pulse	1.0	t		40.0	female	west_asian	1.5777954635893354	smiling	038	sub-13	2.0	4.0	038_smiling	0.0		177.69274921434499	
26.0	154.2723185326431	face	0.0		145	31.0	female	white	2.1822522881018704	neutral	102	sub-13	2.0	4.0	102_neutral	0.0		177.9676347280174	1.2333205849604383
26.0	154.69743914664195	pulse	0.0	t		31.0	female	white	2.1822522881018704	neutral	102	sub-13	2.0	4.0	102_neutral	0.0		178.39275534201624	
26.0	155.39741961657683	pulse	0.0	t		31.0	female	white	2.1822522881018704	neutral	102	sub-13	2.0	4.0	102_neutral	0.0		179.09273581195112	
26.0	155.50563911760355	fix	1.0		444	31.0	female	white	2.1822522881018704	neutral	102	sub-13	2.0	4.0	102_neutral	0.0		179.20095531297784	3.7665942917269604
26.0	156.09740370878035	pulse	1.0	t		31.0	female	white	2.1822522881018704	neutral	102	sub-13	2.0	4.0	102_neutral	0.0		179.79271990415464	
26.0	156.79761177792716	pulse	1.0	t		31.0	female	white	2.1822522881018704	neutral	102	sub-13	2.0	4.0	102_neutral	0.0		180.49292797330145	
26.0	157.49737642102355	pulse	1.0	t		31.0	female	white	2.1822522881018704	neutral	102	sub-13	2.0	4.0	102_neutral	0.0		181.19269261639784	
26.0	158.19735930580418	pulse	1.0	t		31.0	female	white	2.1822522881018704	neutral	102	sub-13	2.0	4.0	102_neutral	0.0		181.89267550117847	
26.0	158.89735215182372	pulse	1.0	t		31.0	female	white	2.1822522881018704	neutral	102	sub-13	2.0	4.0	102_neutral	0.0		182.592668347198	
27.0	159.2722334093305	face	0.0		145	30.0	female	black	2.7345801830481498	smiling	062	sub-13	2.0	4.0	062_smiling	0.0		182.9675496047048	1.23331545341307
27.0	159.59734348856455	pulse	0.0	t		30.0	female	black	2.7345801830481498	smiling	062	sub-13	2.0	4.0	062_smiling	0.0		183.29265968393884	
27.0	160.2973245622111	pulse	0.0	t		30.0	female	black	2.7345801830481498	smiling	062	sub-13	2.0	4.0	062_smiling	0.0		183.99264075758538	
27.0	160.50554886274358	fix	1.0		444	30.0	female	black	2.7345801830481498	smiling	062	sub-13	2.0	4.0	062_smiling	0.0		184.20086505811787	3.7665954991502986
27.0	160.99732495462376	pulse	1.0	t		30.0	female	black	2.7345801830481498	smiling	062	sub-13	2.0	4.0	062_smiling	0.0		184.69264114999805	
27.0	161.69731448023003	pulse	1.0	t		30.0	female	black	2.7345801830481498	smiling	062	sub-13	2.0	4.0	062_smiling	0.0		185.39263067560432	
27.0	162.39729344088664	pulse	1.0	t		30.0	female	black	2.7345801830481498	smiling	062	sub-13	2.0	4.0	062_smiling	0.0		186.09260963626093	
27.0	163.09727662752312	pulse	1.0	t		30.0	female	black	2.7345801830481498	smiling	062	sub-13	2.0	4.0	062_smiling	0.0		186.7925928228974	
27.0	163.7972676624081	pulse	1.0	t		30.0	female	black	2.7345801830481498	smiling	062	sub-13	2.0	4.0	062_smiling	0.0		187.4925838577824	
28.0	164.27214436189388	face	0.0		145	22.0	female	white	4.614007162753682	smiling	009	sub-13	2.0	4.0	009_smiling	0.0		187.96746055726817	1.233317868258382
28.0	164.49725537688073	pulse	0.0	t		22.0	female	white	4.614007162753682	smiling	009	sub-13	2.0	4.0	009_smiling	0.0		188.19257157225502	
28.0	165.19726301383025	pulse	0.0	t		22.0	female	white	4.614007162753682	smiling	009	sub-13	2.0	4.0	009_smiling	0.0		188.89257920920454	
28.0	165.50546223015226	fix	1.0		444	22.0	female	white	4.614007162753682	smiling	009	sub-13	2.0	4.0	009_smiling	0.0		189.20077842552655	3.76657859522993
28.0	165.89724106891936	pulse	1.0	t		22.0	female	white	4.614007162753682	smiling	009	sub-13	2.0	4.0	009_smiling	0.0		189.59255726429365	
28.0	166.5972136906057	pulse	1.0	t		22.0	female	white	4.614007162753682	smiling	009	sub-13	2.0	4.0	009_smiling	0.0		190.29252988598	
28.0	167.2972029143566	pulse	1.0	t		22.0	female	white	4.614007162753682	smiling	009	sub-13	2.0	4.0	009_smiling	0.0		190.9925191097309	
28.0	167.99719726965486	pulse	1.0	t		22.0	female	white	4.614007162753682	smiling	009	sub-13	2.0	4.0	009_smiling	0.0		191.69251346502915	
28.0	168.69719253052017	pulse	1.0	t		22.0	female	white	4.614007162753682	smiling	009	sub-13	2.0	4.0	009_smiling	0.0		192.39250872589446	
29.0	169.2720408253822	face	0.0		145	32.0	male	white	2.389176283326701	neutral	092	sub-13	2.0	4.0	092_neutral	0.0		192.96735702075648	1.2333377907361864
29.0	169.39717179303216	pulse	0.0	t		32.0	male	white	2.389176283326701	neutral	092	sub-13	2.0	4.0	092_neutral	0.0		193.09248798840645	
29.0	170.09715679080273	pulse	0.0	t		32.0	male	white	2.389176283326701	neutral	092	sub-13	2.0	4.0	092_neutral	0.0		193.79247298617702	
29.0	170.50537861611838	fix	1.0		444	32.0	male	white	2.389176283326701	neutral	092	sub-13	2.0	4.0	092_neutral	0.0		194.20069481149267	3.766588858324212
29.0	170.79715476836964	pulse	1.0	t		32.0	male	white	2.389176283326701	neutral	092	sub-13	2.0	4.0	092_neutral	0.0		194.49247096374393	
29.0	171.49714218098597	pulse	1.0	t		32.0	male	white	2.389176283326701	neutral	092	sub-13	2.0	4.0	092_neutral	0.0		195.19245837636026	
29.0	172.19711389710528	pulse	1.0	t		32.0	male	white	2.389176283326701	neutral	092	sub-13	2.0	4.0	092_neutral	0.0		195.89243009247957	
29.0	172.89711398766212	pulse	1.0	t		32.0	male	white	2.389176283326701	neutral	092	sub-13	2.0	4.0	092_neutral	0.0		196.5924301830364	
29.0	173.59709687244276	pulse	1.0	t		32.0	male	white	2.389176283326701	neutral	092	sub-13	2.0	4.0	092_neutral	0.0		197.29241306781705	
30.0	174.2719674744426	face	0.0		145	28.0	male	east_asian	1.5563072025467568	smiling	005	sub-13	2.0	4.0	005_smiling	1.0	trustworthiness	197.96728366981688	1.2333066995970512
30.0	174.29709485000967	pulse	0.0	t		28.0	male	east_asian	1.5563072025467568	smiling	005	sub-13	2.0	4.0	005_smiling	1.0	trustworthiness	197.99241104538396	
30.0	174.997061736437	pulse	0.0	t		28.0	male	east_asian	1.5563072025467568	smiling	005	sub-13	2.0	4.0	005_smiling	1.0	trustworthiness	198.69237793181128	
30.0	175.50527417403964	fix	1.0		177	28.0	male	east_asian	1.5563072025467568	smiling	005	sub-13	2.0	4.0	005_smiling	1.0	trustworthiness	199.20059036941393	1.4999950193810037
30.0	175.69705760101397	pulse	1.0	t		28.0	male	east_asian	1.5563072025467568	smiling	005	sub-13	2.0	4.0	005_smiling	1.0	trustworthiness	199.39237379638826	
30.0	176.39704531548614	pulse	1.0	t		28.0	male	east_asian	1.5563072025467568	smiling	005	sub-13	2.0	4.0	005_smiling	1.0	trustworthiness	200.09236151086043	
30.0	177.00526919342065	rating	2.0		294	28.0	male	east_asian	1.5563072025467568	smiling	005	sub-13	2.0	4.0	005_smiling	1.0	trustworthiness	200.70058538879493	2.4999412890624626
30.0	177.0970357466599	pulse	2.0	t		28.0	male	east_asian	1.5563072025467568	smiling	005	sub-13	2.0	4.0	005_smiling	1.0	trustworthiness	200.7923519420342	
30.0	177.79702466855497	pulse	2.0	t		28.0	male	east_asian	1.5563072025467568	smiling	005	sub-13	2.0	4.0	005_smiling	1.0	trustworthiness	201.49234086392926	
30.0	177.88867742218827	response	2.0	d		28.0	male	east_asian	1.5563072025467568	smiling	005	sub-13	2.0	4.0	005_smiling	1.0	trustworthiness	201.58399361756256	
30.0	178.49700845890266	pulse	2.0	t		28.0	male	east_asian	1.5563072025467568	smiling	005	sub-13	2.0	4.0	005_smiling	1.0	trustworthiness	202.19232465427694	
30.0	179.19700070121098	pulse	2.0	t		28.0	male	east_asian	1.5563072025467568	smiling	005	sub-13	2.0	4.0	005_smiling	1.0	trustworthiness	202.89231689658527	
30.0	179.5052104824831	fix	3.0		444	28.0	male	east_asian	1.5563072025467568	smiling	005	sub-13	2.0	4.0	005_smiling	1.0	trustworthiness	203.2005266778574	3.766596102861513
30.0	179.89699233980764	pulse	3.0	t		28.0	male	east_asian	1.5563072025467568	smiling	005	sub-13	2.0	4.0	005_smiling	1.0	trustworthiness	203.59230853518193	
30.0	180.59696798005098	pulse	3.0	t		28.0	male	east_asian	1.5563072025467568	smiling	005	sub-13	2.0	4.0	005_smiling	1.0	trustworthiness	204.29228417542527	
30.0	181.29696837246365	pulse	3.0	t		28.0	male	east_asian	1.5563072025467568	smiling	005	sub-13	2.0	4.0	005_smiling	1.0	trustworthiness	204.99228456783794	
30.0	181.9969394848713	pulse	3.0	t		28.0	male	east_asian	1.5563072025467568	smiling	005	sub-13	2.0	4.0	005_smiling	1.0	trustworthiness	205.69225568024558	
30.0	182.69692961418923	pulse	3.0	t		28.0	male	east_asian	1.5563072025467568	smiling	005	sub-13	2.0	4.0	005_smiling	1.0	trustworthiness	206.39224580956352	
31.0	183.27180658534462	face	0.0		145	27.0	female	white	3.504576203740549	smiling	144	sub-13	2.0	4.0	144_smiling	0.0		206.9671227807189	1.2333242072290886
31.0	183.39691189525865	pulse	0.0	t		27.0	female	white	3.504576203740549	smiling	144	sub-13	2.0	4.0	144_smiling	0.0		207.09222809063294	
31.0	184.0969144006608	pulse	0.0	t		27.0	female	white	3.504576203740549	smiling	144	sub-13	2.0	4.0	144_smiling	0.0		207.7922305960351	
31.0	184.5051307925737	fix	1.0		444	27.0	female	white	3.504576203740549	smiling	144	sub-13	2.0	4.0	144_smiling	0.0		208.200446987948	3.7583786846394105
31.0	184.79710435846482	pulse	1.0	t		27.0	female	white	3.504576203740549	smiling	144	sub-13	2.0	4.0	144_smiling	0.0		208.4924205538391	
31.0	185.4968807739342	pulse	1.0	t		27.0	female	white	3.504576203740549	smiling	144	sub-13	2.0	4.0	144_smiling	0.0		209.1921969693085	
31.0	186.19687663851073	pulse	1.0	t		27.0	female	white	3.504576203740549	smiling	144	sub-13	2.0	4.0	144_smiling	0.0		209.89219283388502	
31.0	186.89685288246574	pulse	1.0	t		27.0	female	white	3.504576203740549	smiling	144	sub-13	2.0	4.0	144_smiling	0.0		210.59216907784003	
31.0	187.59684150250496	pulse	1.0	t		27.0	female	white	3.504576203740549	smiling	144	sub-13	2.0	4.0	144_smiling	0.0		211.29215769787925	
32.0	188.26350947721312	face	0.0		146	28.0	male	east_asian	1.5563072025467568	neutral	005	sub-13	2.0	4.0	005_neutral	1.0	trustworthiness	211.9588256725874	1.2415301549335709
32.0	188.29685940254922	pulse	0.0	t		28.0	male	east_asian	1.5563072025467568	neutral	005	sub-13	2.0	4.0	005_neutral	1.0	trustworthiness	211.9921755979235	
32.0	188.99680878134495	pulse	0.0	t		28.0	male	east_asian	1.5563072025467568	neutral	005	sub-13	2.0	4.0	005_neutral	1.0	trustworthiness	212.69212497671924	
32.0	189.5050396321467	fix	1.0		177	28.0	male	east_asian	1.5563072025467568	neutral	005	sub-13	2.0	4.0	005_neutral	1.0	trustworthiness	213.20035582752098	1.499983247007549
32.0	189.69682245540935	pulse	1.0	t		28.0	male	east_asian	1.5563072025467568	neutral	005	sub-13	2.0	4.0	005_neutral	1.0	trustworthiness	213.39213865078364	
32.0	190.3967851158568	pulse	1.0	t		28.0	male	east_asian	1.5563072025467568	neutral	005	sub-13	2.0	4.0	005_neutral	1.0	trustworthiness	214.0921013112311	
32.0	191.00502287915424	rating	2.0		294	28.0	male	east_asian	1.5563072025467568	neutral	005	sub-13	2.0	4.0	005_neutral	1.0	trustworthiness	214.70033907452853	2.4999349500926655
32.0	191.09680180847818	pulse	2.0	t		28.0	male	east_asian	1.5563072025467568	neutral	005	sub-13	2.0	4.0	005_neutral	1.0	trustworthiness	214.79211800385247	
32.0	191.7967714116071	pulse	2.0	t		28.0	male	east_asian	1.5563072025467568	neutral	005	sub-13	2.0	4.0	005_neutral	1.0	trustworthiness	215.49208760698139	
32.0	192.09675109671753	response	2.0	n		28.0	male	east_asian	1.5563072025467568	neutral	005	sub-13	2.0	4.0	005_neutral	1.0	trustworthiness	215.79206729209182	
32.0	192.49675399453236	pulse	2.0	t		28.0	male	east_asian	1.5563072025467568	neutral	005	sub-13	2.0	4.0	005_neutral	1.0	trustworthiness	216.19207018990664	
32.0	193.19674170900453	pulse	2.0	t		28.0	male	east_asian	1.5563072025467568	neutral	005	sub-13	2.0	4.0	005_neutral	1.0	trustworthiness	216.89205790437882	
32.0	193.5049578292469	fix	3.0		444	28.0	male	east_asian	1.5563072025467568	neutral	005	sub-13	2.0	4.0	005_neutral	1.0	trustworthiness	217.2002740246212	3.766606064100415
32.0	193.89676323131744	pulse	3.0	t		28.0	male	east_asian	1.5563072025467568	neutral	005	sub-13	2.0	4.0	005_neutral	1.0	trustworthiness	217.59207942669173	
32.0	194.59672166578503	pulse	3.0	t		28.0	male	east_asian	1.5563072025467568	neutral	005	sub-13	2.0	4.0	005_neutral	1.0	trustworthiness	218.29203786115932	
32.0	195.29670817283431	pulse	3.0	t		28.0	male	east_asian	1.5563072025467568	neutral	005	sub-13	2.0	4.0	005_neutral	1.0	trustworthiness	218.9920243682086	
32.0	195.99669528359482	pulse	3.0	t		28.0	male	east_asian	1.5563072025467568	neutral	005	sub-13	2.0	4.0	005_neutral	1.0	trustworthiness	219.6920114789691	
32.0	196.6966974871416	pulse	3.0	t		28.0	male	east_asian	1.5563072025467568	neutral	005	sub-13	2.0	4.0	005_neutral	1.0	trustworthiness	220.39201368251588	
33.0	197.27156389334732	face	0.0		145	40.0	male	white	1.868682849184242	smiling	172	sub-13	2.0	4.0	172_smiling	0.0		220.9668800887216	1.233310925576916
33.0	197.3966782589323	pulse	0.0	t		40.0	male	white	1.868682849184242	smiling	172	sub-13	2.0	4.0	172_smiling	0.0		221.0919944543066	
33.0	198.0966644641262	pulse	0.0	t		40.0	male	white	1.868682849184242	smiling	172	sub-13	2.0	4.0	172_smiling	0.0		221.7919806595005	
33.0	198.50487481892424	fix	1.0		444	40.0	male	white	1.868682849184242	smiling	172	sub-13	2.0	4.0	172_smiling	0.0		222.20019101429853	3.7665994232747835
33.0	198.79663980251416	pulse	1.0	t		40.0	male	white	1.868682849184242	smiling	172	sub-13	2.0	4.0	172_smiling	0.0		222.49195599788845	
33.0	199.49664653389664	pulse	1.0	t		40.0	male	white	1.868682849184242	smiling	172	sub-13	2.0	4.0	172_smiling	0.0		223.19196272927093	
33.0	200.1966209667171	pulse	1.0	t		40.0	male	white	1.868682849184242	smiling	172	sub-13	2.0	4.0	172_smiling	0.0		223.89193716209138	
33.0	200.89661109603503	pulse	1.0	t		40.0	male	white	1.868682849184242	smiling	172	sub-13	2.0	4.0	172_smiling	0.0		224.59192729140932	
33.0	201.59660182906464	pulse	1.0	t		40.0	male	white	1.868682849184242	smiling	172	sub-13	2.0	4.0	172_smiling	0.0		225.29191802443893	
34.0	202.27147424219902	face	0.0		145	24.0	female	east_asian	2.9076800636689217	neutral	034	sub-13	2.0	4.0	034_neutral	0.0		225.9667904375733	1.2333187738258857
34.0	202.29660010848693	pulse	0.0	t		24.0	female	east_asian	2.9076800636689217	neutral	034	sub-13	2.0	4.0	034_neutral	0.0		225.99191630386122	
34.0	202.99657363574033	pulse	0.0	t		24.0	female	east_asian	2.9076800636689217	neutral	034	sub-13	2.0	4.0	034_neutral	0.0		226.69188983111462	
34.0	203.5047930160249	fix	1.0		443	24.0	female	east_asian	2.9076800636689217	neutral	034	sub-13	2.0	4.0	034_neutral	0.0		227.2001092113992	3.766593084304077
34.0	203.69656255763584	pulse	1.0	t		24.0	female	east_asian	2.9076800636689217	neutral	034	sub-13	2.0	4.0	034_neutral	0.0		227.39187875301013	
34.0	204.3965560073666	pulse	1.0	t		24.0	female	east_asian	2.9076800636689217	neutral	034	sub-13	2.0	4.0	034_neutral	0.0		228.0918722027409	
34.0	205.09654311812756	pulse	1.0	t		24.0	female	east_asian	2.9076800636689217	neutral	034	sub-13	2.0	4.0	034_neutral	0.0		228.79185931350185	
34.0	205.79652841775396	pulse	1.0	t		24.0	female	east_asian	2.9076800636689217	neutral	034	sub-13	2.0	4.0	034_neutral	0.0		229.49184461312825	
34.0	206.49651643408197	pulse	1.0	t		24.0	female	east_asian	2.9076800636689217	neutral	034	sub-13	2.0	4.0	034_neutral	0.0		230.19183262945626	
34.0	207.19648060380814	pulse	1.0	t		24.0	female	east_asian	2.9076800636689217	neutral	034	sub-13	2.0	4.0	034_neutral	0.0		230.89179679918243	
35.0	207.27138610032898	face	0.0		146	40.0	male	black	2.408674890569041	neutral	061	sub-13	2.0	4.0	061_neutral	0.0		230.96670229570327	1.2333060958858368
35.0	207.89649488158375	pulse	0.0	t		40.0	male	black	2.408674890569041	neutral	061	sub-13	2.0	4.0	061_neutral	0.0		231.59181107695804	
35.0	208.50469219621482	fix	1.0		443	40.0	male	black	2.408674890569041	neutral	061	sub-13	2.0	4.0	061_neutral	0.0		232.2000083915891	3.7666066678116294
35.0	208.5965164038962	pulse	1.0	t		40.0	male	black	2.408674890569041	neutral	061	sub-13	2.0	4.0	061_neutral	0.0		232.2918325992705	
35.0	209.29646789568233	pulse	1.0	t		40.0	male	black	2.408674890569041	neutral	061	sub-13	2.0	4.0	061_neutral	0.0		232.99178409105662	
35.0	209.99644323407028	pulse	1.0	t		40.0	male	black	2.408674890569041	neutral	061	sub-13	2.0	4.0	061_neutral	0.0		233.69175942944457	
35.0	210.69644272091546	pulse	1.0	t		40.0	male	black	2.408674890569041	neutral	061	sub-13	2.0	4.0	061_neutral	0.0		234.39175891628975	
35.0	211.39643254837756	pulse	1.0	t		40.0	male	black	2.408674890569041	neutral	061	sub-13	2.0	4.0	061_neutral	0.0		235.09174874375185	
35.0	212.09641965913852	pulse	1.0	t		40.0	male	black	2.408674890569041	neutral	061	sub-13	2.0	4.0	061_neutral	0.0		235.7917358545128	
36.0	212.27129886402645	face	0.0		146	21.0	male	east_asian/white	3.501790688420215	smiling	036	sub-13	2.0	4.0	036_smiling	0.0		235.96661505940074	1.241661764026503
36.0	212.79641250515806	pulse	0.0	t		21.0	male	east_asian/white	3.501790688420215	smiling	036	sub-13	2.0	4.0	036_smiling	0.0		236.49172870053235	
36.0	213.4963981066403	pulse	0.0	t		21.0	male	east_asian/white	3.501790688420215	smiling	036	sub-13	2.0	4.0	036_smiling	0.0		237.1917143020146	
36.0	213.51296062805295	fix	1.0		443	21.0	male	east_asian/white	3.501790688420215	smiling	036	sub-13	2.0	4.0	036_smiling	0.0		237.20827682342724	3.758248886681031
36.0	214.19638431183375	pulse	1.0	t		21.0	male	east_asian/white	3.501790688420215	smiling	036	sub-13	2.0	4.0	036_smiling	0.0		237.89170050720804	
36.0	214.89636327249036	pulse	1.0	t		21.0	male	east_asian/white	3.501790688420215	smiling	036	sub-13	2.0	4.0	036_smiling	0.0		238.59167946786465	
36.0	215.59635762778862	pulse	1.0	t		21.0	male	east_asian/white	3.501790688420215	smiling	036	sub-13	2.0	4.0	036_smiling	0.0		239.2916738231629	
36.0	216.2963368903006	pulse	1.0	t		21.0	male	east_asian/white	3.501790688420215	smiling	036	sub-13	2.0	4.0	036_smiling	0.0		239.9916530856749	
36.0	216.99632943446431	pulse	1.0	t		21.0	male	east_asian/white	3.501790688420215	smiling	036	sub-13	2.0	4.0	036_smiling	0.0		240.6916456298386	
37.0	217.27120951473398	face	0.0		145	27.0	female	white	4.181058495821727	neutral	039	sub-13	2.0	4.0	039_neutral	0.0		240.96652571010827	1.2333317536217692
37.0	217.69632560089667	pulse	0.0	t		27.0	female	white	4.181058495821727	neutral	039	sub-13	2.0	4.0	039_neutral	0.0		241.39164179627096	
37.0	218.39630999495603	pulse	0.0	t		27.0	female	white	4.181058495821727	neutral	039	sub-13	2.0	4.0	039_neutral	0.0		242.09162619033032	
37.0	218.50454126835575	fix	1.0		444	27.0	female	white	4.181058495821727	neutral	039	sub-13	2.0	4.0	039_neutral	0.0		242.19985746373004	3.766579802652359
37.0	219.09629831313987	pulse	1.0	t		27.0	female	white	4.181058495821727	neutral	039	sub-13	2.0	4.0	039_neutral	0.0		242.79161450851416	
37.0	219.79628180163218	pulse	1.0	t		27.0	female	white	4.181058495821727	neutral	039	sub-13	2.0	4.0	039_neutral	0.0		243.49159799700647	
37.0	220.49625985672128	pulse	1.0	t		27.0	female	white	4.181058495821727	neutral	039	sub-13	2.0	4.0	039_neutral	0.0		244.19157605209557	
37.0	221.19625904171062	pulse	1.0	t		27.0	female	white	4.181058495821727	neutral	039	sub-13	2.0	4.0	039_neutral	0.0		244.8915752370849	
37.0	221.89623800236723	pulse	1.0	t		27.0	female	white	4.181058495821727	neutral	039	sub-13	2.0	4.0	039_neutral	0.0		245.59155419774152	
38.0	222.2711210710081	face	0.0		145	20.0	female	white	3.9502586549940313	neutral	091	sub-13	2.0	4.0	091_neutral	0.0		245.9664372663824	1.2333151515572354
38.0	222.59623960220233	pulse	0.0	t		20.0	female	white	3.9502586549940313	neutral	091	sub-13	2.0	4.0	091_neutral	0.0		246.29155579757662	
38.0	223.29624361688366	pulse	0.0	t		20.0	female	white	3.9502586549940313	neutral	091	sub-13	2.0	4.0	091_neutral	0.0		246.99155981225795	
38.0	223.50443622256535	fix	1.0		444	20.0	female	white	3.9502586549940313	neutral	091	sub-13	2.0	4.0	091_neutral	0.0		247.19975241793964	3.7665788970857648
38.0	223.99620356062997	pulse	1.0	t		20.0	female	white	3.9502586549940313	neutral	091	sub-13	2.0	4.0	091_neutral	0.0		247.69151975600425	
38.0	224.69620365118635	pulse	1.0	t		20.0	female	white	3.9502586549940313	neutral	091	sub-13	2.0	4.0	091_neutral	0.0		248.39151984656064	
38.0	225.3961756691615	pulse	1.0	t		20.0	female	white	3.9502586549940313	neutral	091	sub-13	2.0	4.0	091_neutral	0.0		249.09149186453578	
38.0	226.0961654966236	pulse	1.0	t		20.0	female	white	3.9502586549940313	neutral	091	sub-13	2.0	4.0	091_neutral	0.0		249.7914816919979	
38.0	226.796162568623	pulse	1.0	t		20.0	female	white	3.9502586549940313	neutral	091	sub-13	2.0	4.0	091_neutral	0.0		250.4914787639973	
39.0	227.2710151196511	face	0.0		145	40.0	male	black	2.408674890569041	smiling	061	sub-13	2.0	4.0	061_smiling	0.0		250.9663313150254	1.233326320219021
39.0	227.4961427367025	pulse	0.0	t		40.0	male	black	2.408674890569041	smiling	061	sub-13	2.0	4.0	061_smiling	0.0		251.19145893207678	
39.0	228.1961325641646	pulse	0.0	t		40.0	male	black	2.408674890569041	smiling	061	sub-13	2.0	4.0	061_smiling	0.0		251.8914487595389	
39.0	228.50434143987013	fix	1.0		444	40.0	male	black	2.408674890569041	smiling	061	sub-13	2.0	4.0	061_smiling	0.0		252.19965763524442	3.7499523822602896
39.0	228.89612661760702	pulse	1.0	t		40.0	male	black	2.408674890569041	smiling	061	sub-13	2.0	4.0	061_smiling	0.0		252.5914428129813	
39.0	229.59611282280093	pulse	1.0	t		40.0	male	black	2.408674890569041	smiling	061	sub-13	2.0	4.0	061_smiling	0.0		253.29142901817522	
39.0	230.29609299087997	pulse	1.0	t		40.0	male	black	2.408674890569041	smiling	061	sub-13	2.0	4.0	061_smiling	0.0		253.99140918625426	
39.0	230.99607829050683	pulse	1.0	t		40.0	male	black	2.408674890569041	smiling	061	sub-13	2.0	4.0	061_smiling	0.0		254.69139448588112	
39.0	231.69607838106322	pulse	1.0	t		40.0	male	black	2.408674890569041	smiling	061	sub-13	2.0	4.0	061_smiling	0.0		255.3913945764375	
40.0	232.25429382213042	fix	0.0		720													255.9496100175047	5.99987895585673
40.0	232.3960624732672	pulse	0.0	t														256.0913786686415	
40.0	233.09603449124188	pulse	0.0	t														256.79135068661617	
40.0	233.7960403170573	pulse	0.0	t														257.4913565124316	
40.0	234.4960228999821	pulse	0.0	t														258.1913390953564	
40.0	235.19600669033025	pulse	0.0	t														258.89132288570454	
40.0	235.89600195119556	pulse	0.0	t														259.59131814656985	
40.0	236.59600234360778	pulse	0.0	t														260.29131853898207	
40.0	237.29596138178704	pulse	0.0	t														260.9912775771613	
40.0	237.99595513337363	pulse	0.0	t														261.6912713287479	
