trial_nr	onset	event_type	phase	response	nr_frames	trial_type	stim_name	task_probe	onset_abs	duration
0.0	0.05565781784389401	baseline	0.0		701		baseline	0.0	14.842065942371846	5.849665784440731
0.0	0.7055389467386703	pulse	0.0	t			baseline	0.0	15.491947071266623	
0.0	1.4055019994975737	pulse	0.0	t			baseline	0.0	16.191910124025526	
0.0	2.105495539768526	pulse	0.0	t			baseline	0.0	16.89190366429648	
0.0	2.8054779113463155	pulse	0.0	t			baseline	0.0	17.591886035874268	
0.0	3.5054756776080467	pulse	0.0	t			baseline	0.0	18.291883802136	
0.0	4.2054616714649455	pulse	0.0	t			baseline	0.0	18.991869795992898	
0.0	4.905446156039034	pulse	0.0	t			baseline	0.0	19.691854280566986	
0.0	5.605439696308167	pulse	0.0	t			baseline	0.0	20.39184782083612	
0.0	5.905323602284625	ISI	1.0		4		baseline	0.0	20.691731726812577	0.1250072445564001
1.0	6.030330846841025	house	0.0		45	place	house-77.jpg	0.0	20.816738971368977	0.37493811941021704
1.0	6.305414219616068	pulse	0.0	t		place	house-77.jpg	0.0	21.09182234414402	
1.0	6.405268966251242	ISI	1.0		354	place	house-77.jpg	0.0	21.191677090779194	3.0166534252257406
1.0	7.005374857524657	pulse	1.0	t		place	house-77.jpg	0.0	21.79178298205261	
1.0	7.705367794082122	pulse	1.0	t		place	house-77.jpg	0.0	22.491775918610074	
1.0	8.40533990253789	pulse	1.0	t		place	house-77.jpg	0.0	23.19174802706584	
1.0	9.105334046520511	pulse	1.0	t		place	house-77.jpg	0.0	23.891742171048463	
2.0	9.421922391476983	adult	0.0		46	face	adult-73.jpg	0.0	24.208330516004935	0.38329471582073893
2.0	9.805217107297722	ISI	1.0		353	face	adult-73.jpg	0.0	24.591625231825674	3.0166902517230483
2.0	9.856644103896542	pulse	1.0	t		face	adult-73.jpg	0.0	24.643052228424494	
2.0	10.505319014064298	pulse	1.0	t		face	adult-73.jpg	0.0	25.29172713859225	
2.0	11.205305611634685	pulse	1.0	t		face	adult-73.jpg	0.0	25.991713736162637	
2.0	11.905302774182928	pulse	1.0	t		face	adult-73.jpg	0.0	26.69171089871088	
2.0	12.605355176478042	pulse	1.0	t		face	adult-73.jpg	0.0	27.391763301005994	
3.0	12.82190735902077	limb	0.0		46	body	limb-126.jpg	0.0	27.608315483548722	0.3832572856099432
3.0	13.205164644630713	ISI	1.0		235	body	limb-126.jpg	0.0	27.991572769158665	2.0166700273366587
3.0	13.305305249406956	pulse	1.0	t		body	limb-126.jpg	0.0	28.09171337393491	
3.0	14.005254718622382	pulse	1.0	t		body	limb-126.jpg	0.0	28.791662843150334	
3.0	14.705254296022758	pulse	1.0	t		body	limb-126.jpg	0.0	29.49166242055071	
4.0	15.221834671967372	limb	0.0		46	body	limb-71.jpg	0.0	30.008242796495324	0.3832932065379282
4.0	15.405246025153247	pulse	0.0	t		body	limb-71.jpg	0.0	30.1916541496812	
4.0	15.6051278785053	ISI	1.0		234	body	limb-71.jpg	0.0	30.391536003033252	2.0166573493606847
4.0	16.105235037575767	pulse	1.0	t		body	limb-71.jpg	0.0	30.89164316210372	
4.0	16.805215899870745	pulse	1.0	t		body	limb-71.jpg	0.0	31.591624024398698	
4.0	17.50520370486629	pulse	1.0	t		body	limb-71.jpg	0.0	32.29161182939424	
5.0	17.621785227865985	number	0.0		46	character	number-2.jpg	0.0	32.40819335239394	0.3833037715157843
5.0	18.00508899938177	ISI	1.0		233	character	number-2.jpg	0.0	32.79149712390972	2.016708363116777
5.0	18.205585130788677	pulse	1.0	t		character	number-2.jpg	0.0	32.99199325531663	
5.0	18.905251760428655	pulse	1.0	t		character	number-2.jpg	0.0	33.69165988495661	
5.0	19.605244395128466	pulse	1.0	t		character	number-2.jpg	0.0	34.39165251965642	
6.0	20.021797362498546	house	0.0		46	place	house-69.jpg	0.0	34.8082054870265	0.38325698375410866
6.0	20.30517062139006	pulse	0.0	t		place	house-69.jpg	0.0	35.091578745918014	
6.0	20.405054346252655	ISI	1.0		233	place	house-69.jpg	0.0	35.19146247078061	2.0166654994864075
6.0	21.00517110436158	pulse	1.0	t		place	house-69.jpg	0.0	35.79157922888953	
6.0	21.705177020749034	pulse	1.0	t		place	house-69.jpg	0.0	36.491585145276986	
7.0	22.421719845739062	number	0.0		45	character	number-45.jpg	0.0	37.208127970267014	0.3832971306728723
7.0	22.413642164770863	pulse	0.0	t		character	number-45.jpg	0.0	37.200050289298815	
7.0	22.805016976411935	ISI	1.0		233	character	number-45.jpg	0.0	37.59142510093989	2.016669725480824
7.0	23.105128180361135	pulse	1.0	t		character	number-45.jpg	0.0	37.89153630488909	
7.0	23.805109042656113	pulse	1.0	t		character	number-45.jpg	0.0	38.591517167184065	
7.0	24.505101073644255	pulse	1.0	t		character	number-45.jpg	0.0	39.29150919817221	
8.0	24.82168670189276	car	0.0		46	object	car-91.jpg	0.0	39.60809482642071	0.3833073937930749
8.0	25.204994095685834	ISI	1.0		353	object	car-91.jpg	0.0	39.991402220213786	3.0166775737507123
8.0	25.261366709812137	pulse	1.0	t		object	car-91.jpg	0.0	40.04777483434009	
8.0	25.905081815197263	pulse	1.0	t		object	car-91.jpg	0.0	40.691489939725216	
8.0	26.605139047196644	pulse	1.0	t		object	car-91.jpg	0.0	41.391547171724596	
8.0	27.305125041053543	pulse	1.0	t		object	car-91.jpg	0.0	42.091533165581495	
8.0	28.005118279466842	pulse	1.0	t		object	car-91.jpg	0.0	42.791526403994794	
9.0	28.221671669436546	adult	0.0		46	face	adult-108.jpg	0.0	43.0080797939645	0.3832684543012874
9.0	28.604940123737833	ISI	1.0		234	face	adult-108.jpg	0.0	43.391348248265786	2.016659160501149
9.0	28.705047826149894	pulse	1.0	t		face	adult-108.jpg	0.0	43.491455950677846	
9.0	29.40502566988107	pulse	1.0	t		face	adult-108.jpg	0.0	44.19143379440902	
9.0	30.105012871163126	pulse	1.0	t		face	adult-108.jpg	0.0	44.89142099569108	
10.0	30.621599284238982	car	0.0		46	object	car-125.jpg	0.0	45.408007408766935	0.38329743252870685
10.0	30.8050073170034	pulse	0.0	t		object	car-125.jpg	0.0	45.59141544153135	
10.0	31.00489671676769	ISI	1.0		233	object	car-125.jpg	0.0	45.79130484129564	2.016648595521474
10.0	31.504998140564567	pulse	1.0	t		object	car-125.jpg	0.0	46.29140626509252	
10.0	32.20498956783922	pulse	1.0	t		object	car-125.jpg	0.0	46.99139769236717	
10.0	32.90497556169612	pulse	1.0	t		object	car-125.jpg	0.0	47.69138368622407	
11.0	33.02154531228916	number	0.0		46	character	number-114.jpg	0.0	47.807953436817115	0.38330256409062713
11.0	33.40484787637979	ISI	1.0		234	character	number-114.jpg	0.0	48.19125600090774	2.0166935721463233
11.0	33.60495944255672	pulse	1.0	t		character	number-114.jpg	0.0	48.39136756708467	
11.0	34.30502150426037	pulse	1.0	t		character	number-114.jpg	0.0	49.09142962878832	
11.0	35.005007498117266	pulse	1.0	t		character	number-114.jpg	0.0	49.79141562264522	
12.0	35.42154144852611	adult	0.0		46	face	adult-136.jpg	0.0	50.207949573054066	0.3832841508410638
12.0	35.70493281880954	pulse	0.0	t		face	adult-136.jpg	0.0	50.49134094333749	
12.0	35.80482559936718	ISI	1.0		954	face	adult-136.jpg	0.0	50.59123372389513	8.016607844889222
12.0	36.40492696279216	pulse	1.0	t		face	adult-136.jpg	0.0	51.19133508732011	
12.0	37.104907523231304	pulse	1.0	t		face	adult-136.jpg	0.0	51.89131564775926	
12.0	37.804905289493036	pulse	1.0	t		face	adult-136.jpg	0.0	52.59131341402099	
12.0	38.504897924192846	pulse	1.0	t		face	adult-136.jpg	0.0	53.2913060487208	
12.0	39.204873654927724	pulse	1.0	t		face	adult-136.jpg	0.0	53.991281779455676	
12.0	39.904865685915865	pulse	1.0	t		face	adult-136.jpg	0.0	54.69127381044382	
12.0	40.60485560390771	pulse	1.0	t		face	adult-136.jpg	0.0	55.39126372843566	
12.0	41.3048473330382	pulse	1.0	t		face	adult-136.jpg	0.0	56.09125545756615	
12.0	42.00490697988971	pulse	1.0	t		face	adult-136.jpg	0.0	56.79131510441766	
12.0	42.70489297374661	pulse	1.0	t		face	adult-136.jpg	0.0	57.49130109827456	
12.0	43.40488560844642	pulse	1.0	t		face	adult-136.jpg	0.0	58.19129373297437	
13.0	43.8214334442564	limb	0.0		46	body	limb-60.jpg	0.0	58.60784156878435	0.3832539651866682
13.0	44.10480247715532	pulse	0.0	t		body	limb-60.jpg	0.0	58.89121060168327	
13.0	44.20468740944307	ISI	1.0		235	body	limb-60.jpg	0.0	58.99109553397102	2.0166606697839597
13.0	44.804807186117614	pulse	1.0	t		body	limb-60.jpg	0.0	59.591215310645566	
13.0	45.504783822421814	pulse	1.0	t		body	limb-60.jpg	0.0	60.291191946949766	
14.0	46.22134807922703	adult	0.0		45	face	adult-142.jpg	0.0	61.00775620375498	0.38330739379489387
14.0	46.21330299876354	pulse	0.0	t		face	adult-142.jpg	0.0	60.99971112329149	
14.0	46.60465547302192	ISI	1.0		594	face	adult-142.jpg	0.0	61.39106359754987	5.0166588586434955
14.0	46.904763960261334	pulse	1.0	t		face	adult-142.jpg	0.0	61.69117208478929	
14.0	47.60475327453969	pulse	1.0	t		face	adult-142.jpg	0.0	62.39116139906764	
14.0	48.304731118270865	pulse	1.0	t		face	adult-142.jpg	0.0	63.09113924279882	
14.0	49.0047340160927	pulse	1.0	t		face	adult-142.jpg	0.0	63.79114214062065	
14.0	49.704714878389495	pulse	1.0	t		face	adult-142.jpg	0.0	64.49112300291745	
14.0	50.404776336379655	pulse	1.0	t		face	adult-142.jpg	0.0	65.1911844609076	
14.0	51.104772593358575	pulse	1.0	t		face	adult-142.jpg	0.0	65.89118071788653	
15.0	51.62131433166542	number	0.0		46	character	number-89.jpg	0.0	66.40772245619337	0.38325879489275394
15.0	51.80469881962017	pulse	0.0	t		character	number-89.jpg	0.0	66.59110694414812	
15.0	52.00457312655817	ISI	1.0		835	character	number-89.jpg	0.0	66.79098125108612	7.016627163708108
15.0	52.504677870776504	pulse	1.0	t		character	number-89.jpg	0.0	67.29108599530446	
15.0	53.20466567577205	pulse	1.0	t		character	number-89.jpg	0.0	67.9910738003	
15.0	53.90465499005222	pulse	1.0	t		character	number-89.jpg	0.0	68.69106311458017	
15.0	54.604644002472924	pulse	1.0	t		character	number-89.jpg	0.0	69.39105212700088	
15.0	55.304629392616334	pulse	1.0	t		character	number-89.jpg	0.0	70.09103751714429	
15.0	56.004616292042556	pulse	1.0	t		character	number-89.jpg	0.0	70.79102441657051	
15.0	56.70461013416934	pulse	1.0	t		character	number-89.jpg	0.0	71.4910182586973	
15.0	57.404595524312754	pulse	1.0	t		character	number-89.jpg	0.0	72.1910036488407	
15.0	58.10464943589068	pulse	1.0	t		character	number-89.jpg	0.0	72.89105756041863	
15.0	58.80464599472725	pulse	1.0	t		character	number-89.jpg	0.0	73.5910541192552	
16.0	59.02120029026628	number	0.0		46	character	number-117.jpg	0.0	73.80760841479423	0.3832572856081242
16.0	59.4044575758744	ISI	1.0		235	character	number-117.jpg	0.0	74.19086570040236	2.016670329194312
16.0	59.50457071170604	pulse	1.0	t		character	number-117.jpg	0.0	74.29097883623399	
16.0	60.20455187585867	pulse	1.0	t		character	number-117.jpg	0.0	74.99096000038662	
16.0	60.90454179384869	pulse	1.0	t		character	number-117.jpg	0.0	75.69094991837665	
17.0	61.421127905068715	number	0.0		46	character	number-51.jpg	0.0	76.20753602959667	0.38329531953240803
17.0	61.60453986196808	pulse	0.0	t		character	number-51.jpg	0.0	76.39094798649603	
17.0	61.80442322460112	ISI	1.0		354	character	number-51.jpg	0.0	76.59083134912908	3.0166543307968823
17.0	62.304533704094865	pulse	1.0	t		character	number-51.jpg	0.0	77.09094182862282	
17.0	63.00451215153771	pulse	1.0	t		character	number-51.jpg	0.0	77.79092027606566	
17.0	63.704513841934386	pulse	1.0	t		character	number-51.jpg	0.0	78.49092196646234	
17.0	64.40449319494655	pulse	1.0	t		character	number-51.jpg	0.0	79.1909013194745	
18.0	64.821077555398	car	0.0		46	object	car-17.jpg	0.0	79.60748567992596	0.38332037362488336
18.0	65.10453261740986	pulse	0.0	t		object	car-17.jpg	0.0	79.89094074193781	
18.0	65.20439792902289	ISI	1.0		355	object	car-17.jpg	0.0	79.99080605355084	3.016663084636093
18.0	65.8045412505071	pulse	1.0	t		object	car-17.jpg	0.0	80.59094937503505	
18.0	66.50452784807749	pulse	1.0	t		object	car-17.jpg	0.0	81.29093597260544	
18.0	67.20450538995101	pulse	1.0	t		object	car-17.jpg	0.0	81.99091351447896	
18.0	67.90450466549555	pulse	1.0	t		object	car-17.jpg	0.0	82.6909127900235	
19.0	68.22106101365898	car	0.0		46	object	car-42.jpg	0.0	83.00746913818693	0.38326664316264214
19.0	68.60432765682162	ISI	1.0		715	object	car-42.jpg	0.0	83.39073578134958	6.016634408264508
19.0	68.6445838485015	pulse	1.0	t		object	car-42.jpg	0.0	83.43099197302945	
19.0	69.30443439329247	pulse	1.0	t		object	car-42.jpg	0.0	84.09084251782042	
19.0	70.00442642428061	pulse	1.0	t		object	car-42.jpg	0.0	84.79083454880856	
19.0	70.70439460860143	pulse	1.0	t		object	car-42.jpg	0.0	85.49080273312939	
19.0	71.40438422473562	pulse	1.0	t		object	car-42.jpg	0.0	86.19079234926357	
19.0	72.10437836872006	pulse	1.0	t		object	car-42.jpg	0.0	86.89078649324802	
19.0	72.80436194772301	pulse	1.0	t		object	car-42.jpg	0.0	87.59077007225096	
19.0	73.5043579028461	pulse	1.0	t		object	car-42.jpg	0.0	88.29076602737405	
19.0	74.20434117999321	pulse	1.0	t		object	car-42.jpg	0.0	88.99074930452116	
20.0	74.62096206508613	limb	0.0		46	body	limb-32.jpg	0.0	89.40737018961408	0.3832584930351004
20.0	74.90433592768932	pulse	0.0	t		body	limb-32.jpg	0.0	89.69074405221727	
20.0	75.00422055812123	ISI	1.0		354	body	limb-32.jpg	0.0	89.79062868264919	3.0166555382220395
20.0	75.60432584568116	pulse	1.0	t		body	limb-32.jpg	0.0	90.39073397020911	
20.0	76.30432119709076	pulse	1.0	t		body	limb-32.jpg	0.0	91.09072932161871	
20.0	77.0042996445336	pulse	1.0	t		body	limb-32.jpg	0.0	91.79070776906156	
20.0	77.70428926066961	pulse	1.0	t		body	limb-32.jpg	0.0	92.49069738519756	
21.0	78.02087609634327	house	0.0		46	place	house-47.jpg	0.0	92.80728422087122	0.38328173598893045
21.0	78.4041578323322	ISI	1.0		235	place	house-47.jpg	0.0	93.19056595686015	2.016679083033523
21.0	78.44240305575477	pulse	1.0	t		place	house-47.jpg	0.0	93.22881118028272	
21.0	79.10426879479564	pulse	1.0	t		place	house-47.jpg	0.0	93.8906769193236	
21.0	79.80426173135311	pulse	1.0	t		place	house-47.jpg	0.0	94.59066985588106	
22.0	80.42083691536573	adult	0.0		46	face	adult-99.jpg	0.0	95.20724503989368	0.3833264107561263
22.0	80.50425044191797	pulse	0.0	t		face	adult-99.jpg	0.0	95.29065856644593	
22.0	80.80416332612185	ISI	1.0		233	face	adult-99.jpg	0.0	95.5905714506498	2.0166495010907965
22.0	81.20430495720939	pulse	1.0	t		face	adult-99.jpg	0.0	95.99071308173734	
22.0	81.90428974363931	pulse	1.0	t		face	adult-99.jpg	0.0	96.69069786816726	
22.0	82.6042814727698	pulse	1.0	t		face	adult-99.jpg	0.0	97.39068959729775	
23.0	82.82081282721265	car	0.0		46	object	car-14.jpg	0.0	97.6072209517406	0.38328113227726135
23.0	83.20409395948991	ISI	1.0		355	object	car-14.jpg	0.0	97.99050208401786	3.0166534252257406
23.0	83.30421071759883	pulse	1.0	t		object	car-14.jpg	0.0	98.09061884212679	
23.0	84.00419278731897	pulse	1.0	t		object	car-14.jpg	0.0	98.79060091184692	
23.0	84.70417938488936	pulse	1.0	t		object	car-14.jpg	0.0	99.49058750941731	
23.0	85.40416236018064	pulse	1.0	t		object	car-14.jpg	0.0	100.19057048470859	
23.0	86.10416435243314	pulse	1.0	t		object	car-14.jpg	0.0	100.8905724769611	
24.0	86.22074738471565	adult	0.0		46	face	adult-36.jpg	0.0	101.0071555092436	0.38329471582073893
24.0	86.60404210053639	ISI	1.0		235	face	adult-36.jpg	0.0	101.39045022506434	2.016669121765517
24.0	86.8041723818169	pulse	1.0	t		face	adult-36.jpg	0.0	101.59058050634485	
24.0	87.50414026428189	pulse	1.0	t		face	adult-36.jpg	0.0	102.29054838880984	
24.0	88.20415101037543	pulse	1.0	t		face	adult-36.jpg	0.0	102.99055913490338	
25.0	88.6207112223019	adult	0.0		46	face	adult-67.jpg	0.0	103.40711934682986	0.38332550518680364
25.0	88.90415360634142	pulse	0.0	t		face	adult-67.jpg	0.0	103.69056173086938	
25.0	89.00403672748871	ISI	1.0		235	face	adult-67.jpg	0.0	103.79044485201666	2.0166688199096825
25.0	89.12918161862763	response	1.0	b		face	adult-67.jpg	0.0	103.91558974315558	
25.0	89.60417280441652	pulse	1.0	t		face	adult-67.jpg	0.0	104.39058092894447	
25.0	90.3041557797078	pulse	1.0	t		face	adult-67.jpg	0.0	105.09056390423575	
26.0	91.02070554739839	house	0.0		45	place	house-131.jpg	0.0	105.80711367192634	0.38329290468209365
26.0	91.01264960010121	pulse	0.0	t		place	house-131.jpg	0.0	105.79905772462917	
26.0	91.40399845208049	ISI	1.0		354	place	house-131.jpg	0.0	106.19040657660844	3.0166395398246095
26.0	91.70415916050115	pulse	1.0	t		place	house-131.jpg	0.0	106.4905672850291	
26.0	92.4041339856667	pulse	1.0	t		place	house-131.jpg	0.0	107.19054211019466	
26.0	93.10412179066225	pulse	1.0	t		place	house-131.jpg	0.0	107.8905299151902	
26.0	93.80411442536206	pulse	1.0	t		place	house-131.jpg	0.0	108.59052254989001	
27.0	94.4206379919051	car	0.0		46	object	car-33.jpg	0.0	109.20704611643305	0.38327781185580534
27.0	94.50406087601186	pulse	0.0	t		object	car-33.jpg	0.0	109.29046900053982	
27.0	94.8039158037609	ISI	1.0		234	object	car-33.jpg	0.0	109.59032392828885	2.016657953074173
27.0	95.20402241948977	pulse	1.0	t		object	car-33.jpg	0.0	109.99043054401773	
27.0	95.9040180727552	pulse	1.0	t		object	car-33.jpg	0.0	110.69042619728316	
27.0	96.60400376475445	pulse	1.0	t		object	car-33.jpg	0.0	111.3904118892824	
28.0	96.82057375683507	adult	0.0		46	face	adult-80.jpg	0.0	111.60698188136303	0.3833010548078164
28.0	97.20387481164289	ISI	1.0		356	face	adult-80.jpg	0.0	111.99028293617084	3.016658556787661
28.0	97.3039858344764	pulse	1.0	t		face	adult-80.jpg	0.0	112.09039395900436	
28.0	98.00398450630746	pulse	1.0	t		face	adult-80.jpg	0.0	112.79039263083541	
28.0	98.70398197071336	pulse	1.0	t		face	adult-80.jpg	0.0	113.49039009524131	
28.0	99.40395136245934	pulse	1.0	t		face	adult-80.jpg	0.0	114.19035948698729	
28.0	100.1044867352175	pulse	1.0	t		face	adult-80.jpg	0.0	114.89089485974546	
29.0	100.22053336843055	adult	0.0		46	face	adult-80.jpg	1.0	115.0069414929585	0.38332671261196083
29.0	100.60386008104251	ISI	1.0		235	face	adult-80.jpg	1.0	115.39026820557046	2.0166673106268718
29.0	100.76234080086215	response	1.0	b		face	adult-80.jpg	1.0	115.5487489253901	
29.0	100.8039843251936	pulse	1.0	t		face	adult-80.jpg	1.0	115.59039244972155	
29.0	101.503992656435	pulse	1.0	t		face	adult-80.jpg	1.0	116.29040078096295	
29.0	102.20398317813851	pulse	1.0	t		face	adult-80.jpg	1.0	116.99039130266647	
30.0	102.62052739166938	number	0.0		46	character	number-103.jpg	0.0	117.40693551619734	0.38326422831050877
30.0	102.90392932693248	pulse	0.0	t		character	number-103.jpg	0.0	117.69033745146044	
30.0	103.00379161997989	ISI	1.0		235	character	number-103.jpg	0.0	117.79019974450785	2.0166642920612503
30.0	103.6039110947986	pulse	1.0	t		character	number-103.jpg	0.0	118.39031921932656	
30.0	104.3039158037609	pulse	1.0	t		character	number-103.jpg	0.0	119.09032392828885	
31.0	105.02045591204114	number	0.0		45	character	number-60.jpg	0.0	119.8068640365691	0.3832983380998485
31.0	105.0124226039843	pulse	0.0	t		character	number-60.jpg	0.0	119.79883072851226	
31.0	105.40375425014099	ISI	1.0		475	character	number-60.jpg	0.0	120.19016237466894	4.016674253327437
31.0	105.70386454851905	pulse	1.0	t		character	number-60.jpg	0.0	120.490272673047	
31.0	106.40384571267168	pulse	1.0	t		character	number-60.jpg	0.0	121.19025383719963	
31.0	107.10383804551566	pulse	1.0	t		character	number-60.jpg	0.0	121.89024617004361	
31.0	107.80382977464615	pulse	1.0	t		character	number-60.jpg	0.0	122.5902378991741	
31.0	108.50382090006497	pulse	1.0	t		character	number-60.jpg	0.0	123.29022902459292	
31.0	109.2038648503767	pulse	1.0	t		character	number-60.jpg	0.0	123.99027297490466	
32.0	109.42042850346843	adult	0.0		46	face	adult-83.jpg	0.0	124.20683662799638	0.38325698375228967
32.0	109.80368548722072	ISI	1.0		235	face	adult-83.jpg	0.0	124.59009361174867	2.0166727440446266
32.0	109.90381764001359	pulse	1.0	t		face	adult-83.jpg	0.0	124.69022576454154	
32.0	110.60378008906082	pulse	1.0	t		face	adult-83.jpg	0.0	125.39018821358877	
32.0	111.30377091262199	pulse	1.0	t		face	adult-83.jpg	0.0	126.09017903714994	
33.0	111.82035823126535	adult	0.0		46	face	adult-77.jpg	0.0	126.6067663557933	0.38329169725511747
33.0	112.00376686774325	pulse	0.0	t		face	adult-77.jpg	0.0	126.7901749922712	
33.0	112.20364992852046	ISI	1.0		595	face	adult-77.jpg	0.0	126.99005805304841	5.016659462356984
33.0	112.70375588016577	pulse	1.0	t		face	adult-77.jpg	0.0	127.49016400469372	
33.0	113.40376662625931	pulse	1.0	t		face	adult-77.jpg	0.0	128.19017475078726	
33.0	114.10373330129732	pulse	1.0	t		face	adult-77.jpg	0.0	128.89014142582528	
33.0	114.80372110629287	pulse	1.0	t		face	adult-77.jpg	0.0	129.59012923082082	
33.0	115.50377260301866	pulse	1.0	t		face	adult-77.jpg	0.0	130.2901807275466	
33.0	116.20377610455398	pulse	1.0	t		face	adult-77.jpg	0.0	130.99018422908193	
33.0	116.90375425014099	pulse	1.0	t		face	adult-77.jpg	0.0	131.69016237466894	
34.0	117.22030939087745	house	0.0		46	place	house-125.jpg	0.0	132.0067175154054	0.3832590967485885
34.0	117.60356848762603	ISI	1.0		474	place	house-125.jpg	0.0	132.389976612154	4.016638030543618
34.0	117.64581089533203	pulse	1.0	t		place	house-125.jpg	0.0	132.43221901985999	
34.0	118.30367190367724	pulse	1.0	t		place	house-125.jpg	0.0	133.0900800282052	
34.0	119.00367631078188	pulse	1.0	t		place	house-125.jpg	0.0	133.79008443530984	
34.0	119.70365475822473	pulse	1.0	t		place	house-125.jpg	0.0	134.49006288275268	
34.0	120.40362656482466	pulse	1.0	t		place	house-125.jpg	0.0	135.19003468935261	
34.0	121.10363217935628	pulse	1.0	t		place	house-125.jpg	0.0	135.89004030388423	
35.0	121.62020651816965	limb	0.0		46	body	limb-94.jpg	0.0	136.4066146426976	0.3833010548078164
35.0	121.80361726764386	pulse	0.0	t		body	limb-94.jpg	0.0	136.5900253921718	
35.0	122.00350757297747	ISI	1.0		715	body	limb-94.jpg	0.0	136.78991569750542	6.016634710120343
35.0	122.50360658192221	pulse	1.0	t		body	limb-94.jpg	0.0	137.29001470645017	
35.0	123.20358865164417	pulse	1.0	t		body	limb-94.jpg	0.0	137.98999677617212	
35.0	123.90365192077479	pulse	1.0	t		body	limb-94.jpg	0.0	138.69006004530274	
35.0	124.60364093319549	pulse	1.0	t		body	limb-94.jpg	0.0	139.39004905772345	
35.0	125.30362421034442	pulse	1.0	t		body	limb-94.jpg	0.0	140.09003233487238	
35.0	126.00360929863018	pulse	1.0	t		body	limb-94.jpg	0.0	140.79001742315813	
35.0	126.70360374447046	pulse	1.0	t		body	limb-94.jpg	0.0	141.4900118689984	
35.0	127.40359637917027	pulse	1.0	t		body	limb-94.jpg	0.0	142.19000450369822	
36.0	128.0201422830978	adult	0.0		46	face	adult-4.jpg	0.0	142.80655040762576	0.38325245590567647
36.0	128.10352049243738	pulse	0.0	t		face	adult-4.jpg	0.0	142.88992861696534	
36.0	128.4033947390035	ISI	1.0		474	face	adult-4.jpg	0.0	143.18980286353144	4.016646482525175
36.0	128.80350829743293	pulse	1.0	t		face	adult-4.jpg	0.0	143.58991642196088	
36.0	129.50349097086837	pulse	1.0	t		face	adult-4.jpg	0.0	144.28989909539632	
36.0	130.20348692598964	pulse	1.0	t		face	adult-4.jpg	0.0	144.9898950505176	
36.0	130.9034705049944	pulse	1.0	t		face	adult-4.jpg	0.0	145.68987862952235	
36.0	131.60346555454635	pulse	1.0	t		face	adult-4.jpg	0.0	146.3898736790743	
36.0	132.30344943540877	pulse	1.0	t		face	adult-4.jpg	0.0	147.08985755993672	
37.0	132.42004122152866	number	0.0		46	character	number-98.jpg	0.0	147.20644934605662	0.3832926028244401
37.0	132.8033338243531	ISI	1.0		235	character	number-98.jpg	0.0	147.58974194888106	2.016706250122297
37.0	133.00344478681654	pulse	1.0	t		character	number-98.jpg	0.0	147.7898529113445	
37.0	133.70343561037953	pulse	1.0	t		character	number-98.jpg	0.0	148.48984373490748	
37.0	134.40348589967834	pulse	1.0	t		character	number-98.jpg	0.0	149.1898940242063	
38.0	134.8200400744754	house	0.0		46	place	house-117.jpg	0.0	149.60644819900335	0.3832636245952017
38.0	135.10341454079207	pulse	0.0	t		place	house-117.jpg	0.0	149.88982266532003	
38.0	135.2033036990706	ISI	1.0		234	place	house-117.jpg	0.0	149.98971182359855	2.0166573493625037
38.0	135.80338544182268	pulse	1.0	t		place	house-117.jpg	0.0	150.58979356635064	
38.0	136.50339226377946	pulse	1.0	t		place	house-117.jpg	0.0	151.2898003883074	
39.0	137.2199610484331	car	0.0		45	object	car-43.jpg	0.0	152.00636917296106	0.38330014923849376
39.0	137.2118869897422	pulse	0.0	t		object	car-43.jpg	0.0	151.99829511427015	
39.0	137.6032611976716	ISI	1.0		596	object	car-43.jpg	0.0	152.38966932219955	5.016657953074173
39.0	137.9033832684545	pulse	1.0	t		object	car-43.jpg	0.0	152.68979139298244	
39.0	138.60336322518015	pulse	1.0	t		object	car-43.jpg	0.0	153.3897713497081	
39.0	139.3033359373494	pulse	1.0	t		object	car-43.jpg	0.0	154.08974406187735	
39.0	140.0033318924725	pulse	1.0	t		object	car-43.jpg	0.0	154.78974001700044	
39.0	140.70331909375454	pulse	1.0	t		object	car-43.jpg	0.0	155.4897272182825	
39.0	141.40339021115506	pulse	1.0	t		object	car-43.jpg	0.0	156.189798335683	
39.0	142.10336564003228	pulse	1.0	t		object	car-43.jpg	0.0	156.88977376456023	
40.0	142.61991915074577	adult	0.0		46	face	adult-76.jpg	0.0	157.40632727527372	0.38325939860442304
40.0	142.80329428114783	pulse	0.0	t		face	adult-76.jpg	0.0	157.58970240567578	
40.0	143.0031785493502	ISI	1.0		473	face	adult-76.jpg	0.0	157.78958667387815	4.016622032146188
40.0	143.50328118057405	pulse	1.0	t		face	adult-76.jpg	0.0	158.289689305102	
40.0	144.20327230599105	pulse	1.0	t		face	adult-76.jpg	0.0	158.989680430519	
40.0	144.90325739427863	pulse	1.0	t		face	adult-76.jpg	0.0	159.68966551880658	
40.0	145.6032518401189	pulse	1.0	t		face	adult-76.jpg	0.0	160.38965996464685	
40.0	146.303235117266	pulse	1.0	t		face	adult-76.jpg	0.0	161.08964324179396	
41.0	147.01980058149638	limb	0.0		45	body	limb-112.jpg	0.0	161.80620870602434	0.38330679008322477
41.0	147.0115725759715	pulse	0.0	t		body	limb-112.jpg	0.0	161.79798070049947	
41.0	147.4031073715796	ISI	1.0		355	body	limb-112.jpg	0.0	162.18951549610756	3.016674555183272
41.0	147.70322038666745	pulse	1.0	t		body	limb-112.jpg	0.0	162.4896285111954	
41.0	148.4032362643211	pulse	1.0	t		body	limb-112.jpg	0.0	163.18964438884905	
41.0	149.10326210324092	pulse	1.0	t		body	limb-112.jpg	0.0	163.88967022776887	
41.0	149.8032529268021	pulse	1.0	t		body	limb-112.jpg	0.0	164.58966105133004	
42.0	150.41978192676288	car	0.0		46	object	car-25.jpg	0.0	165.20619005129083	0.38327660442701017
42.0	150.50317432335942	pulse	0.0	t		object	car-25.jpg	0.0	165.28958244788737	
42.0	150.8030585311899	ISI	1.0		235	object	car-25.jpg	0.0	165.58946665571784	2.016653727083394
42.0	151.2031645432071	pulse	1.0	t		object	car-25.jpg	0.0	165.98957266773505	
42.0	151.90314932963702	pulse	1.0	t		object	car-25.jpg	0.0	166.68955745416497	
42.0	152.60314256805032	pulse	1.0	t		object	car-25.jpg	0.0	167.38955069257827	
43.0	152.81971225827328	car	0.0		46	object	car-20.jpg	0.0	167.60612038280124	0.3833022622347926
43.0	153.20301452050808	ISI	1.0		235	object	car-20.jpg	0.0	167.98942264503603	2.016675762610248
43.0	153.30313973060038	pulse	1.0	t		object	car-20.jpg	0.0	168.08954785512833	
43.0	153.71146076831064	response	1.0	b		object	car-20.jpg	0.0	168.4978688928386	
43.0	154.00309463323356	pulse	1.0	t		object	car-20.jpg	0.0	168.7895027577615	
43.0	154.70310809603507	pulse	1.0	t		object	car-20.jpg	0.0	169.48951622056302	
44.0	155.21969028311833	limb	0.0		46	body	limb-76.jpg	0.0	170.00609840764628	0.38330648822557123
44.0	155.4031713651657	pulse	0.0	t		body	limb-76.jpg	0.0	170.18957948969364	
44.0	155.6029967713439	ISI	1.0		474	body	limb-76.jpg	0.0	170.38940489587185	4.016634710120343
44.0	156.10309276172302	pulse	1.0	t		body	limb-76.jpg	0.0	170.88950088625097	
44.0	156.80314274916418	pulse	1.0	t		body	limb-76.jpg	0.0	171.58955087369213	
44.0	157.50313085601738	pulse	1.0	t		body	limb-76.jpg	0.0	172.28953898054533	
44.0	158.20313224455822	pulse	1.0	t		body	limb-76.jpg	0.0	172.98954036908617	
44.0	158.90311854027095	pulse	1.0	t		body	limb-76.jpg	0.0	173.6895266647989	
45.0	159.61963148146424	house	0.0		45	place	house-113.jpg	0.0	174.4060396059922	0.38330920493353915
45.0	159.61159575855345	pulse	0.0	t		place	house-113.jpg	0.0	174.3980038830814	
45.0	160.00294068639778	ISI	1.0		355	place	house-113.jpg	0.0	174.78934881092573	3.016664593918904
45.0	160.3030917354099	pulse	1.0	t		place	house-113.jpg	0.0	175.08949985993786	
45.0	161.00307652183983	pulse	1.0	t		place	house-113.jpg	0.0	175.78948464636778	
45.0	161.7030730806764	pulse	1.0	t		place	house-113.jpg	0.0	176.48948120520436	
45.0	162.4030533392579	pulse	1.0	t		place	house-113.jpg	0.0	177.18946146378585	
46.0	163.01960528031668	car	0.0		46	object	car-36.jpg	0.0	177.80601340484463	0.3832675487319648
46.0	163.10300009176535	pulse	0.0	t		object	car-36.jpg	0.0	177.8894082162933	
46.0	163.40287282904865	ISI	1.0		344	object	car-36.jpg	0.0	178.1892809535766	3.0166443695306953
46.0	163.8029634463819	pulse	1.0	t		object	car-36.jpg	0.0	178.58937157090986	
46.0	164.50296785348655	pulse	1.0	t		object	car-36.jpg	0.0	179.2893759780145	
46.0	165.20296199746917	pulse	1.0	t		object	car-36.jpg	0.0	179.98937012199713	
46.0	165.90293863377337	pulse	1.0	t		object	car-36.jpg	0.0	180.68934675830133	
47.0	166.41951719857934	number	0.0		46	character	number-74.jpg	0.0	181.2059253231073	0.3832950176765735
47.0	166.60292885362105	pulse	0.0	t		character	number-74.jpg	0.0	181.389336978149	
47.0	166.80281221625592	ISI	1.0		352	character	number-74.jpg	0.0	181.58922034078387	3.016689044297891
47.0	167.30291726233008	pulse	1.0	t		character	number-74.jpg	0.0	182.08932538685804	
47.0	168.00290446361396	pulse	1.0	t		character	number-74.jpg	0.0	182.7893125881419	
47.0	168.7029103800014	pulse	1.0	t		character	number-74.jpg	0.0	183.48931850452936	
47.0	169.40293712449056	pulse	1.0	t		character	number-74.jpg	0.0	184.18934524901852	
48.0	169.8195012605538	limb	0.0		46	body	limb-38.jpg	0.0	184.60590938508176	0.38326875615712197
48.0	170.1034679694003	pulse	0.0	t		body	limb-38.jpg	0.0	184.88987609392825	
48.0	170.20277001671093	ISI	1.0		234	body	limb-38.jpg	0.0	184.98917814123888	2.0166534252275596
48.0	170.8028632300102	pulse	1.0	t		body	limb-38.jpg	0.0	185.58927135453814	
48.0	171.5028501294364	pulse	1.0	t		body	limb-38.jpg	0.0	186.28925825396436	
49.0	172.2194234419385	house	0.0		45	place	house-107.jpg	0.0	187.00583156646644	0.3833010548059974
49.0	172.21137655033635	pulse	0.0	t		place	house-107.jpg	0.0	186.9977846748643	
49.0	172.6027244967445	ISI	1.0		236	place	house-107.jpg	0.0	187.38913262127244	2.0166682161980134
49.0	172.9028293617066	pulse	1.0	t		place	house-107.jpg	0.0	187.68923748623456	
49.0	173.60283648552104	pulse	1.0	t		place	house-107.jpg	0.0	188.389244610049	
49.0	174.3028019531339	pulse	1.0	t		place	house-107.jpg	0.0	189.08921007766185	
50.0	174.6193927129425	house	0.0		46	place	house-107.jpg	1.0	189.40580083747045	0.3832950176765735
50.0	175.00268773061907	ISI	1.0		233	place	house-107.jpg	1.0	189.78909585514702	2.016705042695321
50.0	175.05544289598765	pulse	1.0	t		place	house-107.jpg	1.0	189.8418510205156	
50.0	175.4361247416109	response	1.0	b		place	house-107.jpg	1.0	190.22253286613886	
50.0	175.7027691111416	pulse	1.0	t		place	house-107.jpg	1.0	190.48917723566956	
50.0	176.40283992668628	pulse	1.0	t		place	house-107.jpg	1.0	191.18924805121424	
51.0	177.0193927733144	limb	0.0		46	body	limb-140.jpg	0.0	191.80580089784235	0.3832563800388016
51.0	177.10282139269475	pulse	0.0	t		body	limb-140.jpg	0.0	191.8892295172227	
51.0	177.4026491533532	ISI	1.0		233	body	limb-140.jpg	0.0	192.18905727788115	2.0166727440446266
51.0	177.8028113106866	pulse	1.0	t		body	limb-140.jpg	0.0	192.58921943521455	
51.0	178.5027447815046	pulse	1.0	t		body	limb-140.jpg	0.0	193.28915290603254	
51.0	179.20272745494003	pulse	1.0	t		body	limb-140.jpg	0.0	193.98913557946798	
52.0	179.41932189739782	house	0.0		46	place	house-86.jpg	0.0	194.20573002192577	0.38329169725511747
52.0	179.80261359465294	ISI	1.0		354	place	house-86.jpg	0.0	194.5890217191809	3.016652519656418
52.0	179.9027276360539	pulse	1.0	t		place	house-86.jpg	0.0	194.68913576058185	
52.0	180.60271061134517	pulse	1.0	t		place	house-86.jpg	0.0	195.38911873587313	
52.0	181.30269781262723	pulse	1.0	t		place	house-86.jpg	0.0	196.08910593715518	
52.0	182.0026880324749	pulse	1.0	t		place	house-86.jpg	0.0	196.78909615700286	
52.0	182.7026782523244	pulse	1.0	t		place	house-86.jpg	0.0	197.48908637685236	
53.0	182.81926611430936	car	0.0		46	object	car-49.jpg	0.0	197.6056742388373	0.3833285237524251
53.0	183.20259463806178	ISI	1.0		233	object	car-49.jpg	0.0	197.98900276258973	2.0166709329059813
53.0	183.40276597183401	pulse	1.0	t		object	car-49.jpg	0.0	198.18917409636197	
53.0	184.10274079699775	pulse	1.0	t		object	car-49.jpg	0.0	198.8891489215257	
53.0	184.80272437600252	pulse	1.0	t		object	car-49.jpg	0.0	199.58913250053047	
54.0	185.21926557096776	limb	0.0		46	body	limb-133.jpg	0.0	200.00567369549572	0.38326543573566596
54.0	185.5026288685931	pulse	0.0	t		body	limb-133.jpg	0.0	200.28903699312104	
54.0	185.60253100670343	ISI	1.0		235	body	limb-133.jpg	0.0	200.38893913123138	2.016657953075992
54.0	186.2026293515646	pulse	1.0	t		body	limb-133.jpg	0.0	200.98903747609256	
54.0	186.9026102138596	pulse	1.0	t		body	limb-133.jpg	0.0	201.68901833838754	
55.0	187.61918895977942	house	0.0		45	place	house-103.jpg	0.0	202.40559708430737	0.38329682881521876
55.0	187.61112184378908	pulse	0.0	t		place	house-103.jpg	0.0	202.39752996831703	
55.0	188.00248578859464	ISI	1.0		475	place	house-103.jpg	0.0	202.7888939131226	4.016674555185091
55.0	188.30259367212238	pulse	1.0	t		place	house-103.jpg	0.0	203.08900179665034	
55.0	189.00259204209578	pulse	1.0	t		place	house-103.jpg	0.0	203.78900016662374	
55.0	189.70257048953863	pulse	1.0	t		place	house-103.jpg	0.0	204.48897861406658	
55.0	190.40256191681328	pulse	1.0	t		place	house-103.jpg	0.0	205.18897004134124	
55.0	191.10254821252602	pulse	1.0	t		place	house-103.jpg	0.0	205.88895633705397	
55.0	191.80260484081373	pulse	1.0	t		place	house-103.jpg	0.0	206.58901296534168	
56.0	192.01916034377973	house	0.0		46	place	house-103.jpg	1.0	206.80556846830768	0.38326000231791113
56.0	192.40242034609764	ISI	1.0		232	place	house-103.jpg	1.0	207.1888284706256	2.0166682161961944
56.0	192.50256215829904	pulse	1.0	t		place	house-103.jpg	1.0	207.288970282827	
56.0	192.82753788903392	response	1.0	b		place	house-103.jpg	1.0	207.61394601356187	
56.0	193.2024989495403	pulse	1.0	t		place	house-103.jpg	1.0	207.98890707406827	
56.0	193.9025066770664	pulse	1.0	t		place	house-103.jpg	1.0	208.68891480159436	
57.0	194.41908856229384	limb	0.0		46	body	limb-73.jpg	0.0	209.2054966868218	0.38329471582073893
57.0	194.60249840619872	pulse	0.0	t		body	limb-73.jpg	0.0	209.38890653072667	
57.0	194.80238327811458	ISI	1.0		473	body	limb-73.jpg	0.0	209.58879140264253	4.016663688347762
57.0	195.30249405946415	pulse	1.0	t		body	limb-73.jpg	0.0	210.0889021839921	
57.0	196.00250812597915	pulse	1.0	t		body	limb-73.jpg	0.0	210.7889162505071	
57.0	196.70246483975097	pulse	1.0	t		body	limb-73.jpg	0.0	211.48887296427893	
57.0	197.40244207976866	pulse	1.0	t		body	limb-73.jpg	0.0	212.1888502042966	
57.0	198.10250927303423	pulse	1.0	t		body	limb-73.jpg	0.0	212.88891739756218	
58.0	198.81904696646234	number	0.0		45	character	number-22.jpg	0.0	213.6054550909903	0.38331252535681415
58.0	198.81108610397496	pulse	0.0	t		character	number-22.jpg	0.0	213.5974942285029	
58.0	199.20235949181915	ISI	1.0		353	character	number-22.jpg	0.0	213.9887676163471	3.016631389698887
58.0	199.50250118327858	pulse	1.0	t		character	number-22.jpg	0.0	214.28890930780653	
58.0	200.20247540473065	pulse	1.0	t		character	number-22.jpg	0.0	214.9888835292586	
58.0	200.90248011369113	pulse	1.0	t		character	number-22.jpg	0.0	215.68888823821908	
58.0	201.60246459826521	pulse	1.0	t		character	number-22.jpg	0.0	216.38887272279317	
59.0	202.21899088151804	limb	0.0		46	body	limb-103.jpg	0.0	217.005399006046	0.3832723784362315
59.0	202.30238176883176	pulse	0.0	t		body	limb-103.jpg	0.0	217.08878989335972	
59.0	202.60226325995427	ISI	1.0		235	body	limb-103.jpg	0.0	217.38867138448222	2.0166682161980134
59.0	203.0023701775408	pulse	1.0	t		body	limb-103.jpg	0.0	217.78877830206875	
59.0	203.70236371780993	pulse	1.0	t		body	limb-103.jpg	0.0	218.48877184233788	
59.0	204.40235242837662	pulse	1.0	t		body	limb-103.jpg	0.0	219.18876055290457	
60.0	204.61893147615228	house	0.0		46	place	house-70.jpg	0.0	219.40533960068024	0.3832944139630854
60.0	205.00222589011537	ISI	1.0		353	place	house-70.jpg	0.0	219.78863401464332	3.0166540289392287
60.0	205.10233781852003	pulse	1.0	t		place	house-70.jpg	0.0	219.88874594304798	
60.0	205.80233166064681	pulse	1.0	t		place	house-70.jpg	0.0	220.58873978517477	
60.0	206.50231342851112	pulse	1.0	t		place	house-70.jpg	0.0	221.28872155303907	
60.0	207.20230062979317	pulse	1.0	t		place	house-70.jpg	0.0	221.98870875432112	
60.0	207.9022926607813	pulse	1.0	t		place	house-70.jpg	0.0	222.68870078530927	
61.0	208.0188799190546	limb	0.0		46	body	limb-64.jpg	0.0	222.80528804358255	0.38331976991321426
61.0	208.4021996889678	ISI	1.0		473	body	limb-64.jpg	0.0	223.18860781349576	4.016630484129564
61.0	208.60235592991194	pulse	1.0	t		body	limb-64.jpg	0.0	223.3887640544399	
61.0	209.30233166064681	pulse	1.0	t		body	limb-64.jpg	0.0	224.08873978517477	
61.0	210.00233003062021	pulse	1.0	t		body	limb-64.jpg	0.0	224.78873815514817	
61.0	210.7023274950261	pulse	1.0	t		body	limb-64.jpg	0.0	225.48873561955406	
61.0	211.40230382947266	pulse	1.0	t		body	limb-64.jpg	0.0	226.1887119540006	
61.0	212.10230280316136	pulse	1.0	t		body	limb-64.jpg	0.0	226.88871092768932	
62.0	212.41883017309738	car	0.0		46	object	car-12.jpg	0.0	227.20523829762533	0.3832708691534208
62.0	212.8021010422508	ISI	1.0		233	object	car-12.jpg	0.0	227.58850916677875	2.0166661032017146
62.0	212.85755993663406	pulse	1.0	t		object	car-12.jpg	0.0	227.643968061162	
62.0	213.5022101935756	pulse	1.0	t		object	car-12.jpg	0.0	228.28861831810354	
62.0	214.2021898484436	pulse	1.0	t		object	car-12.jpg	0.0	228.98859797297155	
63.0	214.8187671454525	number	0.0		46	character	number-110.jpg	0.0	229.60517526998046	0.3832814341312769
63.0	214.90219576483287	pulse	0.0	t		character	number-110.jpg	0.0	229.68860388936082	
63.0	215.2020485795838	ISI	1.0		235	character	number-110.jpg	0.0	229.98845670411174	2.0166887424420565
63.0	215.60220983134786	pulse	1.0	t		character	number-110.jpg	0.0	230.38861795587582	
63.0	216.30216262098475	pulse	1.0	t		character	number-110.jpg	0.0	231.0885707455127	
63.0	217.00214891669748	pulse	1.0	t		character	number-110.jpg	0.0	231.78855704122543	
64.0	217.21873732202585	car	0.0		46	object	car-8.jpg	0.0	232.0051454465538	0.38329230096860556
64.0	217.60202962299445	ISI	1.0		594	object	car-8.jpg	0.0	232.3884377475224	5.016655236364386
64.0	217.7021466829592	pulse	1.0	t		object	car-8.jpg	0.0	232.48855480748716	
64.0	218.40214324179578	pulse	1.0	t		object	car-8.jpg	0.0	233.18855136632374	
64.0	219.1021856828247	pulse	1.0	t		object	car-8.jpg	0.0	233.88859380735266	
64.0	219.8021752989589	pulse	1.0	t		object	car-8.jpg	0.0	234.58858342348685	
64.0	220.50217457450344	pulse	1.0	t		object	car-8.jpg	0.0	235.2885826990314	
64.0	221.2021478903862	pulse	1.0	t		object	car-8.jpg	0.0	235.98855601491414	
64.0	221.9021420343688	pulse	1.0	t		object	car-8.jpg	0.0	236.68855015889676	
65.0	222.61868485935884	number	0.0		45	character	number-40.jpg	0.0	237.4050929838868	0.3832983380998485
65.0	222.61064762716705	pulse	0.0	t		character	number-40.jpg	0.0	237.397055751695	
65.0	223.00198319745869	ISI	1.0		239	character	number-40.jpg	0.0	237.78839132198664	2.000006037129424
65.0	223.30212549262978	pulse	1.0	t		character	number-40.jpg	0.0	238.08853361715774	
65.0	224.00211631619095	pulse	1.0	t		character	number-40.jpg	0.0	238.7885244407189	
65.0	224.70209204692583	pulse	1.0	t		character	number-40.jpg	0.0	239.48850017145378	
66.0	225.0019892345881	baseline	0.0		708		baseline	0.0	239.78839735911606	5.899905277419748
66.0	225.4020964540323	pulse	0.0	t			baseline	0.0	240.18850457856024	
66.0	226.10207942932357	pulse	0.0	t			baseline	0.0	240.88848755385152	
66.0	226.8020714603099	pulse	0.0	t			baseline	0.0	241.58847958483784	
66.0	227.50205443560117	pulse	0.0	t			baseline	0.0	242.28846256012912	
66.0	228.202044353593	pulse	0.0	t			baseline	0.0	242.98845247812096	
66.0	228.9020282344536	pulse	0.0	t			baseline	0.0	243.68843635898156	
66.0	229.60202660442883	pulse	0.0	t			baseline	0.0	244.38843472895678	
66.0	230.30201652242067	pulse	0.0	t			baseline	0.0	245.08842464694862	
66.0	230.90189451200786	ISI	1.0		12		baseline	0.0	245.6883026365358	0.10000144891091622
