trial_nr	onset	event_type	phase	response	nr_frames	face_age	face_sex	face_eth	attractiveness	expression	face_id	sub_id	ses	run	trial_type	catch	rating_type	onset_abs	duration
-1.0	0.058648970083595486	fix	0.0		713													24.10774431914615	5.957866871118313
-1.0	0.7001273816167668	pulse	0.0	t														24.74922273067932	
-1.0	1.4000884426859557	pulse	0.0	t														25.44918379174851	
-1.0	2.1000833111975226	pulse	0.0	t														26.149178660260077	
-1.0	2.8000603704349487	pulse	0.0	t														26.849155719497503	
-1.0	3.5000383352271456	pulse	0.0	t														27.5491336842897	
-1.0	4.200008451862232	pulse	0.0	t														28.249103800924786	
-1.0	4.899997887037898	pulse	0.0	t														28.949093236100452	
-1.0	5.599980681461602	pulse	0.0	t														29.649076030524157	
0.0	6.016515841201908	face	0.0		144	25.0	female	west_asian	2.6756864305610826	neutral	064	sub-11	2.0	4.0	064_neutral	1.0	attractiveness	30.065611190264462	1.2333045567611407
0.0	6.299954722177063	pulse	0.0	t		25.0	female	west_asian	2.6756864305610826	neutral	064	sub-11	2.0	4.0	064_neutral	1.0	attractiveness	30.349050071239617	
0.0	6.999931177706458	pulse	0.0	t		25.0	female	west_asian	2.6756864305610826	neutral	064	sub-11	2.0	4.0	064_neutral	1.0	attractiveness	31.049026526769012	
0.0	7.249820397963049	fix	1.0		177	25.0	female	west_asian	2.6756864305610826	neutral	064	sub-11	2.0	4.0	064_neutral	1.0	attractiveness	31.298915747025603	1.5082942937879125
0.0	7.699920311031747	pulse	1.0	t		25.0	female	west_asian	2.6756864305610826	neutral	064	sub-11	2.0	4.0	064_neutral	1.0	attractiveness	31.7490156600943	
0.0	8.399898879524699	pulse	1.0	t		25.0	female	west_asian	2.6756864305610826	neutral	064	sub-11	2.0	4.0	064_neutral	1.0	attractiveness	32.44899422858725	
0.0	8.758114691750961	rating	2.0		293	25.0	female	west_asian	2.6756864305610826	neutral	064	sub-11	2.0	4.0	064_neutral	1.0	attractiveness	32.807210040813516	2.491572891260148
0.0	9.099887409145595	pulse	2.0	t		25.0	female	west_asian	2.6756864305610826	neutral	064	sub-11	2.0	4.0	064_neutral	1.0	attractiveness	33.14898275820815	
0.0	9.79985752578068	pulse	2.0	t		25.0	female	west_asian	2.6756864305610826	neutral	064	sub-11	2.0	4.0	064_neutral	1.0	attractiveness	33.848952874843235	
0.0	10.22484726280527	response	2.0	b		25.0	female	west_asian	2.6756864305610826	neutral	064	sub-11	2.0	4.0	064_neutral	1.0	attractiveness	34.273942611867824	
0.0	10.4998016831305	pulse	2.0	t		25.0	female	west_asian	2.6756864305610826	neutral	064	sub-11	2.0	4.0	064_neutral	1.0	attractiveness	34.548897032193054	
0.0	11.199798060904868	pulse	2.0	t		25.0	female	west_asian	2.6756864305610826	neutral	064	sub-11	2.0	4.0	064_neutral	1.0	attractiveness	35.24889340996742	
0.0	11.24968758301111	fix	3.0		444	25.0	female	west_asian	2.6756864305610826	neutral	064	sub-11	2.0	4.0	064_neutral	1.0	attractiveness	35.298782932073664	3.7582061529537896
0.0	11.899790514598863	pulse	3.0	t		25.0	female	west_asian	2.6756864305610826	neutral	064	sub-11	2.0	4.0	064_neutral	1.0	attractiveness	35.94888586366142	
0.0	12.59976938494583	pulse	3.0	t		25.0	female	west_asian	2.6756864305610826	neutral	064	sub-11	2.0	4.0	064_neutral	1.0	attractiveness	36.648864734008384	
0.0	13.299755197895138	pulse	3.0	t		25.0	female	west_asian	2.6756864305610826	neutral	064	sub-11	2.0	4.0	064_neutral	1.0	attractiveness	37.34885054695769	
0.0	13.999732558982942	pulse	3.0	t		25.0	female	west_asian	2.6756864305610826	neutral	064	sub-11	2.0	4.0	064_neutral	1.0	attractiveness	38.048827908045496	
0.0	14.699698449687276	pulse	3.0	t		25.0	female	west_asian	2.6756864305610826	neutral	064	sub-11	2.0	4.0	064_neutral	1.0	attractiveness	38.74879379874983	
1.0	15.007893735964899	face	0.0		146	28.0	female	white	5.676880222841227	neutral	124	sub-11	2.0	4.0	124_neutral	0.0		39.05698908502745	1.2416459394844424
1.0	15.399683357081813	pulse	0.0	t		28.0	female	white	5.676880222841227	neutral	124	sub-11	2.0	4.0	124_neutral	0.0		39.44877870614437	
1.0	16.099656492238864	pulse	0.0	t		28.0	female	white	5.676880222841227	neutral	124	sub-11	2.0	4.0	124_neutral	0.0		40.14875184130142	
1.0	16.24953967544934	fix	1.0		445	28.0	female	white	5.676880222841227	neutral	124	sub-11	2.0	4.0	124_neutral	0.0		40.298635024511896	3.758222754822782
1.0	16.79965407742202	pulse	1.0	t		28.0	female	white	5.676880222841227	neutral	124	sub-11	2.0	4.0	124_neutral	0.0		40.848749426484574	
1.0	17.499626910725055	pulse	1.0	t		28.0	female	white	5.676880222841227	neutral	124	sub-11	2.0	4.0	124_neutral	0.0		41.54872225978761	
1.0	18.199583142162737	pulse	1.0	t		28.0	female	white	5.676880222841227	neutral	124	sub-11	2.0	4.0	124_neutral	0.0		42.24867849122529	
1.0	18.899578614378697	pulse	1.0	t		28.0	female	white	5.676880222841227	neutral	124	sub-11	2.0	4.0	124_neutral	0.0		42.94867396344125	
1.0	19.599568653258757	pulse	1.0	t		28.0	female	white	5.676880222841227	neutral	124	sub-11	2.0	4.0	124_neutral	0.0		43.64866400232131	
2.0	20.007762430272123	face	0.0		146	20.0	male	black	2.609629924393156	neutral	043	sub-11	2.0	4.0	043_neutral	0.0		44.05685777933468	1.241646241338458
2.0	20.299548127310118	pulse	0.0	t		20.0	male	black	2.609629924393156	neutral	043	sub-11	2.0	4.0	043_neutral	0.0		44.34864347637267	
2.0	20.999516130981647	pulse	0.0	t		20.0	male	black	2.609629924393156	neutral	043	sub-11	2.0	4.0	043_neutral	0.0		45.0486114800442	
2.0	21.24940867161058	fix	1.0		445	20.0	male	black	2.609629924393156	neutral	043	sub-11	2.0	4.0	043_neutral	0.0		45.298504020673136	3.7582061529537896
2.0	21.699507075416477	pulse	1.0	t		20.0	male	black	2.609629924393156	neutral	043	sub-11	2.0	4.0	043_neutral	0.0		45.74860242447903	
2.0	22.399495605033735	pulse	1.0	t		20.0	male	black	2.609629924393156	neutral	043	sub-11	2.0	4.0	043_neutral	0.0		46.44859095409629	
2.0	23.099467532782	pulse	1.0	t		20.0	male	black	2.609629924393156	neutral	043	sub-11	2.0	4.0	043_neutral	0.0		47.148562881844555	
2.0	23.79942919755922	pulse	1.0	t		20.0	male	black	2.609629924393156	neutral	043	sub-11	2.0	4.0	043_neutral	0.0		47.848524546621775	
2.0	24.499419236435642	pulse	1.0	t		20.0	male	black	2.609629924393156	neutral	043	sub-11	2.0	4.0	043_neutral	0.0		48.5485145854982	
3.0	25.00761482456437	face	0.0		146	21.0	male	east_asian/white	3.501790688420215	smiling	036	sub-11	2.0	4.0	036_smiling	0.0		49.056710173626925	1.2416471468932286
3.0	25.19940504938495	pulse	0.0	t		21.0	male	east_asian/white	3.501790688420215	smiling	036	sub-11	2.0	4.0	036_smiling	0.0		49.248500398447504	
3.0	25.89937999565518	pulse	0.0	t		21.0	male	east_asian/white	3.501790688420215	smiling	036	sub-11	2.0	4.0	036_smiling	0.0		49.948475344717735	
3.0	26.2492619714576	fix	1.0		445	21.0	male	east_asian/white	3.501790688420215	smiling	036	sub-11	2.0	4.0	036_smiling	0.0		50.298357320520154	3.758222754822782
3.0	26.599351319699053	pulse	1.0	t		21.0	male	east_asian/white	3.501790688420215	smiling	036	sub-11	2.0	4.0	036_smiling	0.0		50.64844666876161	
3.0	27.299341056725098	pulse	1.0	t		21.0	male	east_asian/white	3.501790688420215	smiling	036	sub-11	2.0	4.0	036_smiling	0.0		51.34843640578765	
3.0	27.999324454856833	pulse	1.0	t		21.0	male	east_asian/white	3.501790688420215	smiling	036	sub-11	2.0	4.0	036_smiling	0.0		52.04841980391939	
3.0	28.699297590013884	pulse	1.0	t		21.0	male	east_asian/white	3.501790688420215	smiling	036	sub-11	2.0	4.0	036_smiling	0.0		52.74839293907644	
3.0	29.399278573328047	pulse	1.0	t		21.0	male	east_asian/white	3.501790688420215	smiling	036	sub-11	2.0	4.0	036_smiling	0.0		53.4483739223906	
4.0	30.00748472628038	face	0.0		147	28.0	male	east_asian	1.5563072025467568	smiling	005	sub-11	2.0	4.0	005_smiling	0.0		54.056580075342936	1.2499501943930227
4.0	30.099261669605767	pulse	0.0	t		28.0	male	east_asian	1.5563072025467568	smiling	005	sub-11	2.0	4.0	005_smiling	0.0		54.14835701866832	
4.0	30.799238728843193	pulse	0.0	t		28.0	male	east_asian	1.5563072025467568	smiling	005	sub-11	2.0	4.0	005_smiling	0.0		54.84833407790575	
4.0	31.257434920673404	fix	1.0		445	28.0	male	east_asian	1.5563072025467568	smiling	005	sub-11	2.0	4.0	005_smiling	0.0		55.30653026973596	3.7665218782458396
4.0	31.499207638069493	pulse	1.0	t		28.0	male	east_asian	1.5563072025467568	smiling	005	sub-11	2.0	4.0	005_smiling	0.0		55.54830298713205	
4.0	32.19918590471207	pulse	1.0	t		28.0	male	east_asian	1.5563072025467568	smiling	005	sub-11	2.0	4.0	005_smiling	0.0		56.24828125377462	
4.0	32.89916326579987	pulse	1.0	t		28.0	male	east_asian	1.5563072025467568	smiling	005	sub-11	2.0	4.0	005_smiling	0.0		56.948258614862425	
4.0	33.599148475044785	pulse	1.0	t		28.0	male	east_asian	1.5563072025467568	smiling	005	sub-11	2.0	4.0	005_smiling	0.0		57.64824382410734	
4.0	34.2991176861251	pulse	1.0	t		28.0	male	east_asian	1.5563072025467568	smiling	005	sub-11	2.0	4.0	005_smiling	0.0		58.348213035187655	
4.0	34.99911074352349	pulse	1.0	t		28.0	male	east_asian	1.5563072025467568	smiling	005	sub-11	2.0	4.0	005_smiling	0.0		59.04820609258604	
5.0	35.023956798919244	face	0.0		146	19.0	male	white	2.243931555909272	neutral	130	sub-11	2.0	4.0	130_neutral	0.0		59.0730521479818	1.2333271956740646
5.0	35.69909776388158	pulse	0.0	t		19.0	male	white	2.243931555909272	neutral	130	sub-11	2.0	4.0	130_neutral	0.0		59.748193112944136	
5.0	36.25728399459331	fix	1.0		444	19.0	male	white	2.243931555909272	neutral	130	sub-11	2.0	4.0	130_neutral	0.0		60.30637934365586	3.7665565912429884
5.0	36.39906184347274	pulse	1.0	t		19.0	male	white	2.243931555909272	neutral	130	sub-11	2.0	4.0	130_neutral	0.0		60.44815719253529	
5.0	37.099051882352796	pulse	1.0	t		19.0	male	white	2.243931555909272	neutral	130	sub-11	2.0	4.0	130_neutral	0.0		61.14814723141535	
5.0	37.79902863973621	pulse	1.0	t		19.0	male	white	2.243931555909272	neutral	130	sub-11	2.0	4.0	130_neutral	0.0		61.84812398879876	
5.0	38.49901566009066	pulse	1.0	t		19.0	male	white	2.243931555909272	neutral	130	sub-11	2.0	4.0	130_neutral	0.0		62.54811100915322	
5.0	39.198990606360894	pulse	1.0	t		19.0	male	white	2.243931555909272	neutral	130	sub-11	2.0	4.0	130_neutral	0.0		63.24808595542345	
5.0	39.89897189152907	pulse	1.0	t		19.0	male	white	2.243931555909272	neutral	130	sub-11	2.0	4.0	130_neutral	0.0		63.94806724059163	
6.0	40.0238405858363	face	0.0		146	31.0	female	west_asian	2.364902506963788	neutral	006	sub-11	2.0	4.0	006_neutral	0.0		64.07293593489885	1.2333006326807663
6.0	40.598951063730055	pulse	0.0	t		31.0	female	west_asian	2.364902506963788	neutral	006	sub-11	2.0	4.0	006_neutral	0.0		64.64804641279261	
6.0	41.25714121851706	fix	1.0		445	31.0	female	west_asian	2.364902506963788	neutral	006	sub-11	2.0	4.0	006_neutral	0.0		65.30623656757962	3.766553874575038
6.0	41.298922689624305	pulse	1.0	t		31.0	female	west_asian	2.364902506963788	neutral	006	sub-11	2.0	4.0	006_neutral	0.0		65.34801803868686	
6.0	41.99890155997491	pulse	1.0	t		31.0	female	west_asian	2.364902506963788	neutral	006	sub-11	2.0	4.0	006_neutral	0.0		66.04799690903747	
6.0	42.69887952476711	pulse	1.0	t		31.0	female	west_asian	2.364902506963788	neutral	006	sub-11	2.0	4.0	006_neutral	0.0		66.74797487382966	
6.0	43.398866545121564	pulse	1.0	t		31.0	female	west_asian	2.364902506963788	neutral	006	sub-11	2.0	4.0	006_neutral	0.0		67.44796189418412	
6.0	44.09883002101196	pulse	1.0	t		31.0	female	west_asian	2.364902506963788	neutral	006	sub-11	2.0	4.0	006_neutral	0.0		68.14792537007452	
6.0	44.7988188524796	pulse	1.0	t		31.0	female	west_asian	2.364902506963788	neutral	006	sub-11	2.0	4.0	006_neutral	0.0		68.84791420154215	
7.0	45.0236950930921	face	0.0		145	26.0	female	white	4.854755272582572	neutral	027	sub-11	2.0	4.0	027_neutral	0.0		69.07279044215466	1.2332976141624385
7.0	45.49880013764778	pulse	0.0	t		26.0	female	white	4.854755272582572	neutral	027	sub-11	2.0	4.0	027_neutral	0.0		69.54789548671033	
7.0	46.198773574655206	pulse	0.0	t		26.0	female	white	4.854755272582572	neutral	027	sub-11	2.0	4.0	027_neutral	0.0		70.24786892371776	
7.0	46.25699270725454	fix	1.0		445	26.0	female	white	4.854755272582572	neutral	027	sub-11	2.0	4.0	027_neutral	0.0		70.3060880563171	3.758335647533386
7.0	46.898767235761625	pulse	1.0	t		26.0	female	white	4.854755272582572	neutral	027	sub-11	2.0	4.0	027_neutral	0.0		70.94786258482418	
7.0	47.59874097462307	pulse	1.0	t		26.0	female	white	4.854755272582572	neutral	027	sub-11	2.0	4.0	027_neutral	0.0		71.64783632368562	
7.0	48.298723769046774	pulse	1.0	t		26.0	female	white	4.854755272582572	neutral	027	sub-11	2.0	4.0	027_neutral	0.0		72.34781911810933	
7.0	48.99869690420746	pulse	1.0	t		26.0	female	white	4.854755272582572	neutral	027	sub-11	2.0	4.0	027_neutral	0.0		73.04779225327002	
7.0	49.69866249305778	pulse	1.0	t		26.0	female	white	4.854755272582572	neutral	027	sub-11	2.0	4.0	027_neutral	0.0		73.74775784212034	
8.0	50.015328354787925	face	0.0		146	31.0	male	west_asian	1.9538400318344609	smiling	070	sub-11	2.0	4.0	070_smiling	0.0		74.06442370385048	1.2415273115839227
8.0	50.39865011712027	pulse	0.0	t		31.0	male	west_asian	1.9538400318344609	smiling	070	sub-11	2.0	4.0	070_smiling	0.0		74.44774546618282	
8.0	51.09863743932874	pulse	0.0	t		31.0	male	west_asian	1.9538400318344609	smiling	070	sub-11	2.0	4.0	070_smiling	0.0		75.1477327883913	
8.0	51.25685566637185	fix	1.0		445	31.0	male	west_asian	1.9538400318344609	smiling	070	sub-11	2.0	4.0	070_smiling	0.0		75.3059510154344	3.7665424041915685
8.0	51.79861993190207	pulse	1.0	t		31.0	male	west_asian	1.9538400318344609	smiling	070	sub-11	2.0	4.0	070_smiling	0.0		75.84771528096462	
8.0	52.498593368913134	pulse	1.0	t		31.0	male	west_asian	1.9538400318344609	smiling	070	sub-11	2.0	4.0	070_smiling	0.0		76.54768871797569	
8.0	53.198593067059846	pulse	1.0	t		31.0	male	west_asian	1.9538400318344609	smiling	070	sub-11	2.0	4.0	070_smiling	0.0		77.2476884161224	
8.0	53.89855442998305	pulse	1.0	t		31.0	male	west_asian	1.9538400318344609	smiling	070	sub-11	2.0	4.0	070_smiling	0.0		77.9476497790456	
8.0	54.598537828114786	pulse	1.0	t		31.0	male	west_asian	1.9538400318344609	smiling	070	sub-11	2.0	4.0	070_smiling	0.0		78.64763317717734	
9.0	55.02339807056342	face	0.0		145	26.0	male	white	2.7966573816155993	neutral	117	sub-11	2.0	4.0	117_neutral	0.0		79.07249341962597	1.233312103064236
9.0	55.29866732269511	pulse	0.0	t		26.0	male	white	2.7966573816155993	neutral	117	sub-11	2.0	4.0	117_neutral	0.0		79.34776267175766	
9.0	55.99849104102759	pulse	0.0	t		26.0	male	white	2.7966573816155993	neutral	117	sub-11	2.0	4.0	117_neutral	0.0		80.04758639009015	
9.0	56.25671017362765	fix	1.0		445	26.0	male	white	2.7966573816155993	neutral	117	sub-11	2.0	4.0	117_neutral	0.0		80.3058055226902	3.7665227838006103
9.0	56.698478966944094	pulse	1.0	t		26.0	male	white	2.7966573816155993	neutral	117	sub-11	2.0	4.0	117_neutral	0.0		80.74757431600665	
9.0	57.39845361136031	pulse	1.0	t		26.0	male	white	2.7966573816155993	neutral	117	sub-11	2.0	4.0	117_neutral	0.0		81.44754896042286	
9.0	58.09844214097757	pulse	1.0	t		26.0	male	white	2.7966573816155993	neutral	117	sub-11	2.0	4.0	117_neutral	0.0		82.14753749004012	
9.0	58.79841165390826	pulse	1.0	t		26.0	male	white	2.7966573816155993	neutral	117	sub-11	2.0	4.0	117_neutral	0.0		82.84750700297081	
9.0	59.49838418536456	pulse	1.0	t		26.0	male	white	2.7966573816155993	neutral	117	sub-11	2.0	4.0	117_neutral	0.0		83.54747953442711	
10.0	60.02323295742826	face	0.0		145	27.0	female	white	3.504576203740549	smiling	144	sub-11	2.0	4.0	144_smiling	1.0	trustworthiness	84.07232830649082	1.233329006787244
10.0	60.19836003718956	pulse	0.0	t		27.0	female	white	3.504576203740549	smiling	144	sub-11	2.0	4.0	144_smiling	1.0	trustworthiness	84.24745538625211	
10.0	60.89833287049623	pulse	0.0	t		27.0	female	white	3.504576203740549	smiling	144	sub-11	2.0	4.0	144_smiling	1.0	trustworthiness	84.94742821955879	
10.0	61.25656196421551	fix	1.0		177	27.0	female	white	3.504576203740549	smiling	144	sub-11	2.0	4.0	144_smiling	1.0	trustworthiness	85.30565731327806	1.4999248388085107
10.0	61.5983207964091	pulse	1.0	t		27.0	female	white	3.504576203740549	smiling	144	sub-11	2.0	4.0	144_smiling	1.0	trustworthiness	85.64741614547165	
10.0	62.298309326026356	pulse	1.0	t		27.0	female	white	3.504576203740549	smiling	144	sub-11	2.0	4.0	144_smiling	1.0	trustworthiness	86.34740467508891	
10.0	62.75648680302402	rating	2.0		294	27.0	female	white	3.504576203740549	smiling	144	sub-11	2.0	4.0	144_smiling	1.0	trustworthiness	86.80558215208657	2.499959853663313
10.0	62.998294233417255	pulse	2.0	t		27.0	female	white	3.504576203740549	smiling	144	sub-11	2.0	4.0	144_smiling	1.0	trustworthiness	87.04738958247981	
10.0	63.69827038709627	pulse	2.0	t		27.0	female	white	3.504576203740549	smiling	144	sub-11	2.0	4.0	144_smiling	1.0	trustworthiness	87.74736573615883	
10.0	64.0848219675936	response	2.0	y		27.0	female	white	3.504576203740549	smiling	144	sub-11	2.0	4.0	144_smiling	1.0	trustworthiness	88.13391731665615	
10.0	64.39822692038433	pulse	2.0	t		27.0	female	white	3.504576203740549	smiling	144	sub-11	2.0	4.0	144_smiling	1.0	trustworthiness	88.44732226944689	
10.0	65.09820941295766	pulse	2.0	t		27.0	female	white	3.504576203740549	smiling	144	sub-11	2.0	4.0	144_smiling	1.0	trustworthiness	89.14730476202021	
10.0	65.25644665668733	fix	3.0		444	27.0	female	white	3.504576203740549	smiling	144	sub-11	2.0	4.0	144_smiling	1.0	trustworthiness	89.30554200574988	3.7665058800812403
10.0	65.79820397961885	pulse	3.0	t		27.0	female	white	3.504576203740549	smiling	144	sub-11	2.0	4.0	144_smiling	1.0	trustworthiness	89.8472993286814	
10.0	66.4981695684728	pulse	3.0	t		27.0	female	white	3.504576203740549	smiling	144	sub-11	2.0	4.0	144_smiling	1.0	trustworthiness	90.54726491753536	
10.0	67.19815085364098	pulse	3.0	t		27.0	female	white	3.504576203740549	smiling	144	sub-11	2.0	4.0	144_smiling	1.0	trustworthiness	91.24724620270354	
10.0	67.89814572215255	pulse	3.0	t		27.0	female	white	3.504576203740549	smiling	144	sub-11	2.0	4.0	144_smiling	1.0	trustworthiness	91.9472410712151	
10.0	68.59812006471839	pulse	3.0	t		27.0	female	white	3.504576203740549	smiling	144	sub-11	2.0	4.0	144_smiling	1.0	trustworthiness	92.64721541378094	
11.0	69.02295253676857	face	0.0		145	20.0	male	black	3.1070433744528456	smiling	082	sub-11	2.0	4.0	082_smiling	0.0		93.07204788583113	1.2333296104879992
11.0	69.2980717683713	pulse	0.0	t		20.0	male	black	3.1070433744528456	smiling	082	sub-11	2.0	4.0	082_smiling	0.0		93.34716711743386	
11.0	69.99806844799969	pulse	0.0	t		20.0	male	black	3.1070433744528456	smiling	082	sub-11	2.0	4.0	082_smiling	0.0		94.04716379706224	
11.0	70.25628214725657	fix	1.0		444	20.0	male	black	3.1070433744528456	smiling	082	sub-11	2.0	4.0	082_smiling	0.0		94.30537749631912	3.7582061529537896
11.0	70.69806422206966	pulse	1.0	t		20.0	male	black	3.1070433744528456	smiling	082	sub-11	2.0	4.0	082_smiling	0.0		94.74715957113222	
11.0	71.39803373500035	pulse	1.0	t		20.0	male	black	3.1070433744528456	smiling	082	sub-11	2.0	4.0	082_smiling	0.0		95.44712908406291	
11.0	72.09802045350443	pulse	1.0	t		20.0	male	black	3.1070433744528456	smiling	082	sub-11	2.0	4.0	082_smiling	0.0		96.14711580256699	
11.0	72.79799962570542	pulse	1.0	t		20.0	male	black	3.1070433744528456	smiling	082	sub-11	2.0	4.0	082_smiling	0.0		96.84709497476797	
11.0	73.49797155345368	pulse	1.0	t		20.0	male	black	3.1070433744528456	smiling	082	sub-11	2.0	4.0	082_smiling	0.0		97.54706690251624	
12.0	74.01448830021036	face	0.0		146	24.0	female	east_asian	2.9076800636689217	neutral	034	sub-11	2.0	4.0	034_neutral	0.0		98.06358364927291	1.2416480524516373
12.0	74.19796098862935	pulse	0.0	t		24.0	female	east_asian	2.9076800636689217	neutral	034	sub-11	2.0	4.0	034_neutral	0.0		98.2470563376919	
12.0	74.89793080341042	pulse	0.0	t		24.0	female	east_asian	2.9076800636689217	neutral	034	sub-11	2.0	4.0	034_neutral	0.0		98.94702615247297	
12.0	75.256136352662	fix	1.0		444	24.0	female	east_asian	2.9076800636689217	neutral	034	sub-11	2.0	4.0	034_neutral	0.0		99.30523170172455	3.766556289392611
12.0	75.59791812561889	pulse	1.0	t		24.0	female	east_asian	2.9076800636689217	neutral	034	sub-11	2.0	4.0	034_neutral	0.0		99.64701347468144	
12.0	76.297888845962	pulse	1.0	t		24.0	female	east_asian	2.9076800636689217	neutral	034	sub-11	2.0	4.0	034_neutral	0.0		100.34698419502456	
12.0	76.99787767742964	pulse	1.0	t		24.0	female	east_asian	2.9076800636689217	neutral	034	sub-11	2.0	4.0	034_neutral	0.0		101.0469730264922	
12.0	77.69784990703192	pulse	1.0	t		24.0	female	east_asian	2.9076800636689217	neutral	034	sub-11	2.0	4.0	034_neutral	0.0		101.74694525609448	
12.0	78.39782606071094	pulse	1.0	t		24.0	female	east_asian	2.9076800636689217	neutral	034	sub-11	2.0	4.0	034_neutral	0.0		102.4469214097735	
13.0	79.02269264205461	face	0.0		145	22.0	female	west_asian	3.8205332272184642	smiling	066	sub-11	2.0	4.0	066_smiling	0.0		103.07178799111716	1.2333108956554497
13.0	79.09781549588297	pulse	0.0	t		22.0	female	west_asian	3.8205332272184642	smiling	066	sub-11	2.0	4.0	066_smiling	0.0		103.14691084494552	
13.0	79.7977925551204	pulse	0.0	t		22.0	female	west_asian	3.8205332272184642	smiling	066	sub-11	2.0	4.0	066_smiling	0.0		103.84688790418295	
13.0	80.25600353771006	fix	1.0		444	22.0	female	west_asian	3.8205332272184642	smiling	066	sub-11	2.0	4.0	066_smiling	0.0		104.30509888677261	3.7665402912243735
13.0	80.49776448286866	pulse	1.0	t		22.0	female	west_asian	3.8205332272184642	smiling	066	sub-11	2.0	4.0	066_smiling	0.0		104.54685983193122	
13.0	81.19774486247843	pulse	1.0	t		22.0	female	west_asian	3.8205332272184642	smiling	066	sub-11	2.0	4.0	066_smiling	0.0		105.24684021154098	
13.0	81.89772192171222	pulse	1.0	t		22.0	female	west_asian	3.8205332272184642	smiling	066	sub-11	2.0	4.0	066_smiling	0.0		105.94681727077477	
13.0	82.59770381058479	pulse	1.0	t		22.0	female	west_asian	3.8205332272184642	smiling	066	sub-11	2.0	4.0	066_smiling	0.0		106.64679915964734	
13.0	83.29769052908887	pulse	1.0	t		22.0	female	west_asian	3.8205332272184642	smiling	066	sub-11	2.0	4.0	066_smiling	0.0		107.34678587815142	
13.0	83.99765551423843	pulse	1.0	t		22.0	female	west_asian	3.8205332272184642	smiling	066	sub-11	2.0	4.0	066_smiling	0.0		108.04675086330099	
14.0	84.02254382893443	face	0.0		146	21.0	male	black	2.969757262236371	neutral	137	sub-11	2.0	4.0	137_neutral	0.0		108.07163917799699	1.2333003308303887
14.0	84.69764676052364	pulse	0.0	t		21.0	male	black	2.969757262236371	neutral	137	sub-11	2.0	4.0	137_neutral	0.0		108.7467421095862	
14.0	85.25584415976482	fix	1.0		443	21.0	male	black	2.969757262236371	neutral	137	sub-11	2.0	4.0	137_neutral	0.0		109.30493950882737	3.766552667166252
14.0	85.39763589384529	pulse	1.0	t		21.0	male	black	2.969757262236371	neutral	137	sub-11	2.0	4.0	137_neutral	0.0		109.44673124290784	
14.0	86.09760450122121	pulse	1.0	t		21.0	male	black	2.969757262236371	neutral	137	sub-11	2.0	4.0	137_neutral	0.0		110.14669985028377	
14.0	86.7975767308235	pulse	1.0	t		21.0	male	black	2.969757262236371	neutral	137	sub-11	2.0	4.0	137_neutral	0.0		110.84667207988605	
14.0	87.49755379005728	pulse	1.0	t		21.0	male	black	2.969757262236371	neutral	137	sub-11	2.0	4.0	137_neutral	0.0		111.54664913911984	
14.0	88.19753628263061	pulse	1.0	t		21.0	male	black	2.969757262236371	neutral	137	sub-11	2.0	4.0	137_neutral	0.0		112.24663163169316	
14.0	88.8975233029887	pulse	1.0	t		21.0	male	black	2.969757262236371	neutral	137	sub-11	2.0	4.0	137_neutral	0.0		112.94661865205126	
15.0	89.02239682693107	face	0.0		146	20.0	male	black	2.609629924393156	smiling	043	sub-11	2.0	4.0	043_smiling	1.0	attractiveness	113.07149217599363	1.2333096882466634
15.0	89.5975097196424	pulse	0.0	t		20.0	male	black	2.609629924393156	smiling	043	sub-11	2.0	4.0	043_smiling	1.0	attractiveness	113.64660506870496	
15.0	90.25570651517774	fix	1.0		176	20.0	male	black	2.609629924393156	smiling	043	sub-11	2.0	4.0	043_smiling	1.0	attractiveness	114.30480186424029	1.4999438554987137
15.0	90.29748677887619	pulse	1.0	t		20.0	male	black	2.609629924393156	smiling	043	sub-11	2.0	4.0	043_smiling	1.0	attractiveness	114.34658212793875	
15.0	90.99745568810249	pulse	1.0	t		20.0	male	black	2.609629924393156	smiling	043	sub-11	2.0	4.0	043_smiling	1.0	attractiveness	115.04655103716505	
15.0	91.69742912511356	pulse	1.0	t		20.0	male	black	2.609629924393156	smiling	043	sub-11	2.0	4.0	043_smiling	1.0	attractiveness	115.74652447417611	
15.0	91.75565037067645	rating	2.0		295	20.0	male	black	2.609629924393156	smiling	043	sub-11	2.0	4.0	043_smiling	1.0	attractiveness	115.804745719739	2.49993812030516
15.0	92.39742701214709	pulse	2.0	t		20.0	male	black	2.609629924393156	smiling	043	sub-11	2.0	4.0	043_smiling	1.0	attractiveness	116.44652236120965	
15.0	93.09740044915816	pulse	2.0	t		20.0	male	black	2.609629924393156	smiling	043	sub-11	2.0	4.0	043_smiling	1.0	attractiveness	117.14649579822071	
15.0	93.40570742073396	response	2.0	e		20.0	male	black	2.609629924393156	smiling	043	sub-11	2.0	4.0	043_smiling	1.0	attractiveness	117.45480276979652	
15.0	93.79735849170538	pulse	2.0	t		20.0	male	black	2.609629924393156	smiling	043	sub-11	2.0	4.0	043_smiling	1.0	attractiveness	117.84645384076794	
15.0	94.25558849098161	fix	3.0		444	20.0	male	black	2.609629924393156	smiling	043	sub-11	2.0	4.0	043_smiling	1.0	attractiveness	118.30468384004416	3.766544215304748
15.0	94.49736422689602	pulse	3.0	t		20.0	male	black	2.609629924393156	smiling	043	sub-11	2.0	4.0	043_smiling	1.0	attractiveness	118.54645957595858	
15.0	95.19733132501278	pulse	3.0	t		20.0	male	black	2.609629924393156	smiling	043	sub-11	2.0	4.0	043_smiling	1.0	attractiveness	119.24642667407534	
15.0	95.89731683610808	pulse	3.0	t		20.0	male	black	2.609629924393156	smiling	043	sub-11	2.0	4.0	043_smiling	1.0	attractiveness	119.94641218517063	
15.0	96.59729842312663	pulse	3.0	t		20.0	male	black	2.609629924393156	smiling	043	sub-11	2.0	4.0	043_smiling	1.0	attractiveness	120.64639377218919	
15.0	97.29727759532761	pulse	3.0	t		20.0	male	black	2.609629924393156	smiling	043	sub-11	2.0	4.0	043_smiling	1.0	attractiveness	121.34637294439017	
15.0	97.9972552582658	pulse	3.0	t		20.0	male	black	2.609629924393156	smiling	043	sub-11	2.0	4.0	043_smiling	1.0	attractiveness	122.04635060732835	
16.0	98.02213270628636	face	0.0		146	31.0	female	west_asian	2.364902506963788	smiling	006	sub-11	2.0	4.0	006_smiling	0.0		122.07122805534891	1.2332945956404728
16.0	98.69723624157996	pulse	0.0	t		31.0	female	west_asian	2.364902506963788	smiling	006	sub-11	2.0	4.0	006_smiling	0.0		122.74633159064251	
16.0	99.25542730192683	fix	1.0		443	31.0	female	west_asian	2.364902506963788	smiling	006	sub-11	2.0	4.0	006_smiling	0.0		123.30452265098938	3.758272862283775
16.0	99.39720454710186	pulse	1.0	t		31.0	female	west_asian	2.364902506963788	smiling	006	sub-11	2.0	4.0	006_smiling	0.0		123.44629989616442	
16.0	100.09717768225892	pulse	1.0	t		31.0	female	west_asian	2.364902506963788	smiling	006	sub-11	2.0	4.0	006_smiling	0.0		124.14627303132147	
16.0	100.79716289150383	pulse	1.0	t		31.0	female	west_asian	2.364902506963788	smiling	006	sub-11	2.0	4.0	006_smiling	0.0		124.84625824056639	
16.0	101.49714055444201	pulse	1.0	t		31.0	female	west_asian	2.364902506963788	smiling	006	sub-11	2.0	4.0	006_smiling	0.0		125.54623590350457	
16.0	102.19713210258124	pulse	1.0	t		31.0	female	west_asian	2.364902506963788	smiling	006	sub-11	2.0	4.0	006_smiling	0.0		126.24622745164379	
16.0	102.89710976552306	pulse	1.0	t		31.0	female	west_asian	2.364902506963788	smiling	006	sub-11	2.0	4.0	006_smiling	0.0		126.94620511458561	
17.0	103.0137001642106	face	0.0		147	22.0	male	black	2.767608436132113	smiling	044	sub-11	2.0	4.0	044_smiling	1.0	dominance	127.06279551327316	1.2415943227642856
17.0	103.5970744488186	pulse	0.0	t		22.0	male	black	2.767608436132113	smiling	044	sub-11	2.0	4.0	044_smiling	1.0	dominance	127.64616979788116	
17.0	104.25529448697489	fix	1.0		176	22.0	male	black	2.767608436132113	smiling	044	sub-11	2.0	4.0	044_smiling	1.0	dominance	128.30438983603744	1.4999441573490913
17.0	104.29706931733381	pulse	1.0	t		22.0	male	black	2.767608436132113	smiling	044	sub-11	2.0	4.0	044_smiling	1.0	dominance	128.34616466639636	
17.0	104.997047282126	pulse	1.0	t		22.0	male	black	2.767608436132113	smiling	044	sub-11	2.0	4.0	044_smiling	1.0	dominance	129.04614263118856	
17.0	105.69702554876858	pulse	1.0	t		22.0	male	black	2.767608436132113	smiling	044	sub-11	2.0	4.0	044_smiling	1.0	dominance	129.74612089783113	
17.0	105.75523864432398	rating	2.0		295	22.0	male	black	2.767608436132113	smiling	044	sub-11	2.0	4.0	044_smiling	1.0	dominance	129.80433399338654	2.4999293665932782
17.0	106.39700985245508	pulse	2.0	t		22.0	male	black	2.767608436132113	smiling	044	sub-11	2.0	4.0	044_smiling	1.0	dominance	130.44610520151764	
17.0	107.09699053391887	pulse	2.0	t		22.0	male	black	2.767608436132113	smiling	044	sub-11	2.0	4.0	044_smiling	1.0	dominance	131.14608588298142	
17.0	107.79697483760538	pulse	2.0	t		22.0	male	black	2.767608436132113	smiling	044	sub-11	2.0	4.0	044_smiling	1.0	dominance	131.84607018666793	
17.0	107.84696789500595	response	2.0	b		22.0	male	black	2.767608436132113	smiling	044	sub-11	2.0	4.0	044_smiling	1.0	dominance	131.8960632440685	
17.0	108.25516801091726	fix	3.0		444	22.0	male	black	2.767608436132113	smiling	044	sub-11	2.0	4.0	044_smiling	1.0	dominance	132.3042633599798	3.774882579506084
17.0	108.49694797276243	pulse	3.0	t		22.0	male	black	2.767608436132113	smiling	044	sub-11	2.0	4.0	044_smiling	1.0	dominance	132.54604332182498	
17.0	109.19691839125153	pulse	3.0	t		22.0	male	black	2.767608436132113	smiling	044	sub-11	2.0	4.0	044_smiling	1.0	dominance	133.24601374031408	
17.0	109.89710372847912	pulse	3.0	t		22.0	male	black	2.767608436132113	smiling	044	sub-11	2.0	4.0	044_smiling	1.0	dominance	133.94619907754168	
17.0	110.59688247084341	pulse	3.0	t		22.0	male	black	2.767608436132113	smiling	044	sub-11	2.0	4.0	044_smiling	1.0	dominance	134.64597781990597	
17.0	111.29686375600795	pulse	3.0	t		22.0	male	black	2.767608436132113	smiling	044	sub-11	2.0	4.0	044_smiling	1.0	dominance	135.3459591050705	
17.0	111.99685107821642	pulse	3.0	t		22.0	male	black	2.767608436132113	smiling	044	sub-11	2.0	4.0	044_smiling	1.0	dominance	136.04594642727898	
18.0	112.03005059042334	face	0.0		145	31.0	male	west_asian	1.9538400318344609	neutral	070	sub-11	2.0	4.0	070_neutral	0.0		136.0791459394859	1.2249782666440296
18.0	112.69696246166495	pulse	0.0	t		31.0	male	west_asian	1.9538400318344609	neutral	070	sub-11	2.0	4.0	070_neutral	0.0		136.7460578107275	
18.0	113.25502885706737	fix	1.0		443	31.0	male	west_asian	1.9538400318344609	neutral	070	sub-11	2.0	4.0	070_neutral	0.0		137.30412420612993	3.7665288208445418
18.0	113.39679402815818	pulse	1.0	t		31.0	male	west_asian	1.9538400318344609	neutral	070	sub-11	2.0	4.0	070_neutral	0.0		137.44588937722074	
18.0	114.0967792374031	pulse	1.0	t		31.0	male	west_asian	1.9538400318344609	neutral	070	sub-11	2.0	4.0	070_neutral	0.0		138.14587458646565	
18.0	114.79676172997642	pulse	1.0	t		31.0	male	west_asian	1.9538400318344609	neutral	070	sub-11	2.0	4.0	070_neutral	0.0		138.84585707903898	
18.0	115.49674271329059	pulse	1.0	t		31.0	male	west_asian	1.9538400318344609	neutral	070	sub-11	2.0	4.0	070_neutral	0.0		139.54583806235314	
18.0	116.1967584096019	pulse	1.0	t		31.0	male	west_asian	1.9538400318344609	neutral	070	sub-11	2.0	4.0	070_neutral	0.0		140.24585375866445	
18.0	116.89669019101348	pulse	1.0	t		31.0	male	west_asian	1.9538400318344609	neutral	070	sub-11	2.0	4.0	070_neutral	0.0		140.94578554007603	
19.0	117.02155767791191	face	0.0		146	31.0	female	white	2.1822522881018704	smiling	102	sub-11	2.0	4.0	102_smiling	0.0		141.07065302697447	1.233322667892935
19.0	117.5966817391527	pulse	0.0	t		31.0	female	white	2.1822522881018704	smiling	102	sub-11	2.0	4.0	102_smiling	0.0		141.64577708821525	
19.0	118.25488034580485	fix	1.0		444	31.0	female	white	2.1822522881018704	smiling	102	sub-11	2.0	4.0	102_smiling	0.0		142.3039756948674	3.766543309746339
19.0	118.29685651155523	pulse	1.0	t		31.0	female	white	2.1822522881018704	smiling	102	sub-11	2.0	4.0	102_smiling	0.0		142.3459518606178	
19.0	118.99683809857379	pulse	1.0	t		31.0	female	white	2.1822522881018704	smiling	102	sub-11	2.0	4.0	102_smiling	0.0		143.04593344763634	
19.0	119.69660386129544	pulse	1.0	t		31.0	female	white	2.1822522881018704	smiling	102	sub-11	2.0	4.0	102_smiling	0.0		143.745699210358	
19.0	120.39676052256618	pulse	1.0	t		31.0	female	white	2.1822522881018704	smiling	102	sub-11	2.0	4.0	102_smiling	0.0		144.44585587162874	
19.0	121.09671403733591	pulse	1.0	t		31.0	female	white	2.1822522881018704	smiling	102	sub-11	2.0	4.0	102_smiling	0.0		145.14580938639847	
19.0	121.7965546593914	pulse	1.0	t		31.0	female	white	2.1822522881018704	smiling	102	sub-11	2.0	4.0	102_smiling	0.0		145.84565000845396	
20.0	122.02142365555119	face	0.0		145	30.0	female	black	2.7345801830481498	smiling	062	sub-11	2.0	4.0	062_smiling	0.0		146.07051900461374	1.2333108956554497
20.0	122.49663495206914	pulse	0.0	t		30.0	female	black	2.7345801830481498	smiling	062	sub-11	2.0	4.0	062_smiling	0.0		146.5457303011317	
20.0	123.19658454275486	pulse	0.0	t		30.0	female	black	2.7345801830481498	smiling	062	sub-11	2.0	4.0	062_smiling	0.0		147.24567989181742	
20.0	123.25473455120664	fix	1.0		1185	30.0	female	black	2.7345801830481498	smiling	062	sub-11	2.0	4.0	062_smiling	0.0		147.3038299002692	10.016342879913282
20.0	123.89649398710753	pulse	1.0	t		30.0	female	black	2.7345801830481498	smiling	062	sub-11	2.0	4.0	062_smiling	0.0		147.9455893361701	
20.0	124.59646832967337	pulse	1.0	t		30.0	female	black	2.7345801830481498	smiling	062	sub-11	2.0	4.0	062_smiling	0.0		148.64556367873593	
20.0	125.2964502185423	pulse	1.0	t		30.0	female	black	2.7345801830481498	smiling	062	sub-11	2.0	4.0	062_smiling	0.0		149.34554556760486	
20.0	125.99642486296216	pulse	1.0	t		30.0	female	black	2.7345801830481498	smiling	062	sub-11	2.0	4.0	062_smiling	0.0		150.0455202120247	
20.0	126.69639890367398	pulse	1.0	t		30.0	female	black	2.7345801830481498	smiling	062	sub-11	2.0	4.0	062_smiling	0.0		150.74549425273653	
20.0	127.39638622588245	pulse	1.0	t		30.0	female	black	2.7345801830481498	smiling	062	sub-11	2.0	4.0	062_smiling	0.0		151.445481574945	
20.0	128.0963747554997	pulse	1.0	t		30.0	female	black	2.7345801830481498	smiling	062	sub-11	2.0	4.0	062_smiling	0.0		152.14547010456226	
20.0	128.79634457028442	pulse	1.0	t		30.0	female	black	2.7345801830481498	smiling	062	sub-11	2.0	4.0	062_smiling	0.0		152.84543991934697	
20.0	129.49631106469315	pulse	1.0	t		30.0	female	black	2.7345801830481498	smiling	062	sub-11	2.0	4.0	062_smiling	0.0		153.5454064137557	
20.0	130.19630623505873	pulse	1.0	t		30.0	female	black	2.7345801830481498	smiling	062	sub-11	2.0	4.0	062_smiling	0.0		154.24540158412128	
20.0	130.89628993504448	pulse	1.0	t		30.0	female	black	2.7345801830481498	smiling	062	sub-11	2.0	4.0	062_smiling	0.0		154.94538528410703	
20.0	131.5962651831651	pulse	1.0	t		30.0	female	black	2.7345801830481498	smiling	062	sub-11	2.0	4.0	062_smiling	0.0		155.64536053222764	
20.0	132.2962497887056	pulse	1.0	t		30.0	female	black	2.7345801830481498	smiling	062	sub-11	2.0	4.0	062_smiling	0.0		156.34534513776816	
20.0	132.99621749052312	pulse	1.0	t		30.0	female	black	2.7345801830481498	smiling	062	sub-11	2.0	4.0	062_smiling	0.0		157.04531283958568	
21.0	133.27107743111992	face	0.0		145	32.0	male	white	2.389176283326701	smiling	092	sub-11	2.0	4.0	092_smiling	0.0		157.32017278018247	1.2333262901156559
21.0	133.69621598126105	pulse	0.0	t		32.0	male	white	2.389176283326701	smiling	092	sub-11	2.0	4.0	092_smiling	0.0		157.7453113303236	
21.0	134.39620058680157	pulse	0.0	t		32.0	male	white	2.389176283326701	smiling	092	sub-11	2.0	4.0	092_smiling	0.0		158.44529593586412	
21.0	134.50440372123558	fix	1.0		445	32.0	male	white	2.389176283326701	smiling	092	sub-11	2.0	4.0	092_smiling	0.0		158.55349907029813	3.7665577986517746
21.0	135.09617130714105	pulse	1.0	t		32.0	male	white	2.389176283326701	smiling	092	sub-11	2.0	4.0	092_smiling	0.0		159.1452666562036	
21.0	135.79613176450948	pulse	1.0	t		32.0	male	white	2.389176283326701	smiling	092	sub-11	2.0	4.0	092_smiling	0.0		159.84522711357204	
21.0	136.49611637004637	pulse	1.0	t		32.0	male	white	2.389176283326701	smiling	092	sub-11	2.0	4.0	092_smiling	0.0		160.54521171910892	
21.0	137.19610550337165	pulse	1.0	t		32.0	male	white	2.389176283326701	smiling	092	sub-11	2.0	4.0	092_smiling	0.0		161.2452008524342	
21.0	137.89606082925093	pulse	1.0	t		32.0	male	white	2.389176283326701	smiling	092	sub-11	2.0	4.0	092_smiling	0.0		161.94515617831348	
22.0	138.27096151988735	face	0.0		145	40.0	male	white	1.868682849184242	neutral	172	sub-11	2.0	4.0	172_neutral	0.0		162.3200568689499	1.2332822196985944
22.0	138.59605328294492	pulse	0.0	t		40.0	male	white	1.868682849184242	neutral	172	sub-11	2.0	4.0	172_neutral	0.0		162.64514863200748	
22.0	139.2960333607043	pulse	0.0	t		40.0	male	white	1.868682849184242	neutral	172	sub-11	2.0	4.0	172_neutral	0.0		163.34512870976687	
22.0	139.50424373958595	fix	1.0		444	40.0	male	white	1.868682849184242	neutral	172	sub-11	2.0	4.0	172_neutral	0.0		163.5533390886485	3.766536970855668
22.0	139.99601494771923	pulse	1.0	t		40.0	male	white	1.868682849184242	neutral	172	sub-11	2.0	4.0	172_neutral	0.0		164.0451102967818	
22.0	140.6959814421316	pulse	1.0	t		40.0	male	white	1.868682849184242	neutral	172	sub-11	2.0	4.0	172_neutral	0.0		164.74507679119415	
22.0	141.3959651421137	pulse	1.0	t		40.0	male	white	1.868682849184242	neutral	172	sub-11	2.0	4.0	172_neutral	0.0		165.44506049117626	
22.0	142.0959853662098	pulse	1.0	t		40.0	male	white	1.868682849184242	neutral	172	sub-11	2.0	4.0	172_neutral	0.0		166.14508071527234	
22.0	142.79598083842575	pulse	1.0	t		40.0	male	white	1.868682849184242	neutral	172	sub-11	2.0	4.0	172_neutral	0.0		166.8450761874883	
23.0	143.2707807104416	face	0.0		145	22.0	female	west_asian	3.8205332272184642	neutral	066	sub-11	2.0	4.0	066_neutral	0.0		167.31987605950417	1.2333235734440677
23.0	143.49593978653138	pulse	0.0	t		22.0	female	west_asian	3.8205332272184642	neutral	066	sub-11	2.0	4.0	066_neutral	0.0		167.54503513559393	
23.0	144.1959159402104	pulse	0.0	t		22.0	female	west_asian	3.8205332272184642	neutral	066	sub-11	2.0	4.0	066_neutral	0.0		168.24501128927295	
23.0	144.50410428388568	fix	1.0		444	22.0	female	west_asian	3.8205332272184642	neutral	066	sub-11	2.0	4.0	066_neutral	0.0		168.55319963294824	3.76653153751613
23.0	144.89590899761242	pulse	1.0	t		22.0	female	west_asian	3.8205332272184642	neutral	066	sub-11	2.0	4.0	066_neutral	0.0		168.94500434667498	
23.0	145.59585919200254	pulse	1.0	t		22.0	female	west_asian	3.8205332272184642	neutral	066	sub-11	2.0	4.0	066_neutral	0.0		169.6449545410651	
23.0	146.2958235734477	pulse	1.0	t		22.0	female	west_asian	3.8205332272184642	neutral	066	sub-11	2.0	4.0	066_neutral	0.0		170.34491892251026	
23.0	146.99583715679546	pulse	1.0	t		22.0	female	west_asian	3.8205332272184642	neutral	066	sub-11	2.0	4.0	066_neutral	0.0		171.04493250585801	
23.0	147.69579308637913	pulse	1.0	t		22.0	female	west_asian	3.8205332272184642	neutral	066	sub-11	2.0	4.0	066_neutral	0.0		171.74488843544168	
24.0	148.2706358214018	face	0.0		145	25.0	female	black	3.858336649423	smiling	126	sub-11	2.0	4.0	126_smiling	0.0		172.31973117046437	1.2333096882466634
24.0	148.3957831252592	pulse	0.0	t		25.0	female	black	3.858336649423	smiling	126	sub-11	2.0	4.0	126_smiling	0.0		172.44487847432174	
24.0	149.09573965854725	pulse	0.0	t		25.0	female	black	3.858336649423	smiling	126	sub-11	2.0	4.0	126_smiling	0.0		173.1448350076098	
24.0	149.50394550964847	fix	1.0		444	25.0	female	black	3.858336649423	smiling	126	sub-11	2.0	4.0	126_smiling	0.0		173.55304085871103	3.766546931976336
24.0	149.79570192702522	pulse	1.0	t		25.0	female	black	3.858336649423	smiling	126	sub-11	2.0	4.0	126_smiling	0.0		173.84479727608777	
24.0	150.4957049455479	pulse	1.0	t		25.0	female	black	3.858336649423	smiling	126	sub-11	2.0	4.0	126_smiling	0.0		174.54480029461047	
24.0	151.19567143995664	pulse	1.0	t		25.0	female	black	3.858336649423	smiling	126	sub-11	2.0	4.0	126_smiling	0.0		175.2447667890192	
24.0	151.89566449735867	pulse	1.0	t		25.0	female	black	3.858336649423	smiling	126	sub-11	2.0	4.0	126_smiling	0.0		175.94475984642122	
24.0	152.5956388399245	pulse	1.0	t		25.0	female	black	3.858336649423	smiling	126	sub-11	2.0	4.0	126_smiling	0.0		176.64473418898706	
25.0	153.2704924416248	face	0.0		145	36.0	female	white	2.7548746518105847	smiling	011	sub-11	2.0	4.0	011_smiling	0.0		177.31958779068736	1.2333208567761176
25.0	153.29562465287017	pulse	0.0	t		36.0	female	white	2.7548746518105847	smiling	011	sub-11	2.0	4.0	011_smiling	0.0		177.34472000193273	
25.0	153.99557937504505	pulse	0.0	t		36.0	female	white	2.7548746518105847	smiling	011	sub-11	2.0	4.0	011_smiling	0.0		178.0446747241076	
25.0	154.50381329840093	fix	1.0		443	36.0	female	white	2.7548746518105847	smiling	011	sub-11	2.0	4.0	011_smiling	0.0		178.55290864746348	3.758327195671882
25.0	154.69555069909256	pulse	1.0	t		36.0	female	white	2.7548746518105847	smiling	011	sub-11	2.0	4.0	011_smiling	0.0		178.74464604815512	
25.0	155.39554707686693	pulse	1.0	t		36.0	female	white	2.7548746518105847	smiling	011	sub-11	2.0	4.0	011_smiling	0.0		179.4446424259295	
25.0	156.09551991016997	pulse	1.0	t		36.0	female	white	2.7548746518105847	smiling	011	sub-11	2.0	4.0	011_smiling	0.0		180.14461525923252	
25.0	156.79550361015208	pulse	1.0	t		36.0	female	white	2.7548746518105847	smiling	011	sub-11	2.0	4.0	011_smiling	0.0		180.84459895921464	
25.0	157.49548308420708	pulse	1.0	t		36.0	female	white	2.7548746518105847	smiling	011	sub-11	2.0	4.0	011_smiling	0.0		181.54457843326963	
25.0	158.19564638622614	pulse	1.0	t		36.0	female	white	2.7548746518105847	smiling	011	sub-11	2.0	4.0	011_smiling	0.0		182.2447417352887	
26.0	158.2621404940728	face	0.0		147	24.0	male	white	3.1153999204138483	neutral	012	sub-11	2.0	4.0	012_neutral	1.0	dominance	182.31123584313536	1.2415107097149303
26.0	158.89544806935373	pulse	0.0	t		24.0	male	white	3.1153999204138483	neutral	012	sub-11	2.0	4.0	012_neutral	1.0	dominance	182.9445434184163	
26.0	159.50365120378774	fix	1.0		177	24.0	male	white	3.1153999204138483	neutral	012	sub-11	2.0	4.0	012_neutral	1.0	dominance	183.5527465528503	1.5083027456457785
26.0	159.59543237304388	pulse	1.0	t		24.0	male	white	3.1153999204138483	neutral	012	sub-11	2.0	4.0	012_neutral	1.0	dominance	183.64452772210643	
26.0	160.2954058100513	pulse	1.0	t		24.0	male	white	3.1153999204138483	neutral	012	sub-11	2.0	4.0	012_neutral	1.0	dominance	184.34450115911386	
26.0	160.99539826374894	pulse	1.0	t		24.0	male	white	3.1153999204138483	neutral	012	sub-11	2.0	4.0	012_neutral	1.0	dominance	185.0444936128115	
26.0	161.01195394943352	rating	2.0		294	24.0	male	white	3.1153999204138483	neutral	012	sub-11	2.0	4.0	012_neutral	1.0	dominance	185.06104929849607	2.4915789283040795
26.0	161.69537622854114	pulse	2.0	t		24.0	male	white	3.1153999204138483	neutral	012	sub-11	2.0	4.0	012_neutral	1.0	dominance	185.7444715776037	
26.0	162.3953626451912	pulse	2.0	t		24.0	male	white	3.1153999204138483	neutral	012	sub-11	2.0	4.0	012_neutral	1.0	dominance	186.44445799425375	
26.0	162.44008445823783	response	2.0	y		24.0	male	white	3.1153999204138483	neutral	012	sub-11	2.0	4.0	012_neutral	1.0	dominance	186.4891798073004	
26.0	163.09533668590666	pulse	2.0	t		24.0	male	white	3.1153999204138483	neutral	012	sub-11	2.0	4.0	012_neutral	1.0	dominance	187.1444320349692	
26.0	163.5035328777376	fix	3.0		444	24.0	male	white	3.1153999204138483	neutral	012	sub-11	2.0	4.0	012_neutral	1.0	dominance	187.55262822680015	3.7665565912466263
26.0	163.7953116321769	pulse	3.0	t		24.0	male	white	3.1153999204138483	neutral	012	sub-11	2.0	4.0	012_neutral	1.0	dominance	187.84440698123944	
26.0	164.4952868802975	pulse	3.0	t		24.0	male	white	3.1153999204138483	neutral	012	sub-11	2.0	4.0	012_neutral	1.0	dominance	188.54438222936005	
26.0	165.19527027842923	pulse	3.0	t		24.0	male	white	3.1153999204138483	neutral	012	sub-11	2.0	4.0	012_neutral	1.0	dominance	189.2443656274918	
26.0	165.89525397841135	pulse	3.0	t		24.0	male	white	3.1153999204138483	neutral	012	sub-11	2.0	4.0	012_neutral	1.0	dominance	189.9443493274739	
26.0	166.59522500060484	pulse	3.0	t		24.0	male	white	3.1153999204138483	neutral	012	sub-11	2.0	4.0	012_neutral	1.0	dominance	190.6443203496674	
27.0	167.27008946898422	face	0.0		145	34.0	male	white	2.651014723438122	neutral	121	sub-11	2.0	4.0	121_neutral	0.0		191.31918481804678	1.233288860446919
27.0	167.2952156431893	pulse	0.0	t		34.0	male	white	2.651014723438122	neutral	121	sub-11	2.0	4.0	121_neutral	0.0		191.34431099225185	
27.0	167.9952096061461	pulse	0.0	t		34.0	male	white	2.651014723438122	neutral	121	sub-11	2.0	4.0	121_neutral	0.0		192.04430495520864	
27.0	168.50337832943114	fix	1.0		443	34.0	male	white	2.651014723438122	neutral	121	sub-11	2.0	4.0	121_neutral	0.0		192.5524736784937	3.7583576827419165
27.0	168.69516342276256	pulse	1.0	t		34.0	male	white	2.651014723438122	neutral	121	sub-11	2.0	4.0	121_neutral	0.0		192.74425877182512	
27.0	169.3951377653284	pulse	1.0	t		34.0	male	white	2.651014723438122	neutral	121	sub-11	2.0	4.0	121_neutral	0.0		193.44423311439095	
27.0	170.09512689865005	pulse	1.0	t		34.0	male	white	2.651014723438122	neutral	121	sub-11	2.0	4.0	121_neutral	0.0		194.1442222477126	
27.0	170.79511391900814	pulse	1.0	t		34.0	male	white	2.651014723438122	neutral	121	sub-11	2.0	4.0	121_neutral	0.0		194.8442092680707	
27.0	171.4950626041391	pulse	1.0	t		34.0	male	white	2.651014723438122	neutral	121	sub-11	2.0	4.0	121_neutral	0.0		195.54415795320165	
27.0	172.19506622636618	pulse	1.0	t		34.0	male	white	2.651014723438122	neutral	121	sub-11	2.0	4.0	121_neutral	0.0		196.24416157542873	
28.0	172.26173601217306	face	0.0		147	21.0	male	east_asian/white	3.501790688420215	neutral	036	sub-11	2.0	4.0	036_neutral	0.0		196.3108313612356	1.2415167467588617
28.0	172.8950508319067	pulse	0.0	t		21.0	male	east_asian/white	3.501790688420215	neutral	036	sub-11	2.0	4.0	036_neutral	0.0		196.94414618096926	
28.0	173.50325275893192	fix	1.0		443	21.0	male	east_asian/white	3.501790688420215	neutral	036	sub-11	2.0	4.0	036_neutral	0.0		197.55234810799448	3.7665408949287666
28.0	173.595086450463	pulse	1.0	t		21.0	male	east_asian/white	3.501790688420215	neutral	036	sub-11	2.0	4.0	036_neutral	0.0		197.64418179952554	
28.0	174.2950067614911	pulse	1.0	t		21.0	male	east_asian/white	3.501790688420215	neutral	036	sub-11	2.0	4.0	036_neutral	0.0		198.34410211055365	
28.0	174.9949904614732	pulse	1.0	t		21.0	male	east_asian/white	3.501790688420215	neutral	036	sub-11	2.0	4.0	036_neutral	0.0		199.04408581053576	
28.0	175.69496540774344	pulse	1.0	t		21.0	male	east_asian/white	3.501790688420215	neutral	036	sub-11	2.0	4.0	036_neutral	0.0		199.744060756806	
28.0	176.39493492067413	pulse	1.0	t		21.0	male	east_asian/white	3.501790688420215	neutral	036	sub-11	2.0	4.0	036_neutral	0.0		200.4440302697367	
28.0	177.09492586510896	pulse	1.0	t		21.0	male	east_asian/white	3.501790688420215	neutral	036	sub-11	2.0	4.0	036_neutral	0.0		201.14402121417152	
29.0	177.2697936538607	face	0.0		146	19.0	male	white	2.243931555909272	smiling	130	sub-11	2.0	4.0	130_smiling	0.0		201.31888900292324	1.2416456376340648
29.0	177.79490473545957	pulse	0.0	t		19.0	male	white	2.243931555909272	smiling	130	sub-11	2.0	4.0	130_smiling	0.0		201.84400008452212	
29.0	178.49488451136494	pulse	0.0	t		19.0	male	white	2.243931555909272	smiling	130	sub-11	2.0	4.0	130_smiling	0.0		202.5439798604275	
29.0	178.51143929149475	fix	1.0		444	19.0	male	white	2.243931555909272	smiling	130	sub-11	2.0	4.0	130_smiling	0.0		202.5605346405573	3.758207360362576
29.0	179.19485975948555	pulse	1.0	t		19.0	male	white	2.243931555909272	smiling	130	sub-11	2.0	4.0	130_smiling	0.0		203.2439551085481	
29.0	179.8948256501899	pulse	1.0	t		19.0	male	white	2.243931555909272	smiling	130	sub-11	2.0	4.0	130_smiling	0.0		203.94392099925244	
29.0	180.59480874647124	pulse	1.0	t		19.0	male	white	2.243931555909272	smiling	130	sub-11	2.0	4.0	130_smiling	0.0		204.6439040955338	
29.0	181.29479425756654	pulse	1.0	t		19.0	male	white	2.243931555909272	smiling	130	sub-11	2.0	4.0	130_smiling	0.0		205.3438896066291	
29.0	181.99478127792463	pulse	1.0	t		19.0	male	white	2.243931555909272	smiling	130	sub-11	2.0	4.0	130_smiling	0.0		206.04387662698718	
30.0	182.26964665185733	face	0.0		145	20.0	female	white	3.9502586549940313	smiling	091	sub-11	2.0	4.0	091_smiling	0.0		206.31874200091988	1.2333087826918927
30.0	182.69474928159252	pulse	0.0	t		20.0	female	white	3.9502586549940313	smiling	091	sub-11	2.0	4.0	091_smiling	0.0		206.74384463065508	
30.0	183.39473901861857	pulse	0.0	t		20.0	female	white	3.9502586549940313	smiling	091	sub-11	2.0	4.0	091_smiling	0.0		207.44383436768112	
30.0	183.50295543454922	fix	1.0		444	20.0	female	white	3.9502586549940313	smiling	091	sub-11	2.0	4.0	091_smiling	0.0		207.55205078361178	3.766544819009141
30.0	184.0947154741516	pulse	1.0	t		20.0	female	white	3.9502586549940313	smiling	091	sub-11	2.0	4.0	091_smiling	0.0		208.14381082321415	
30.0	184.794692231535	pulse	1.0	t		20.0	female	white	3.9502586549940313	smiling	091	sub-11	2.0	4.0	091_smiling	0.0		208.84378758059756	
30.0	185.49467653522152	pulse	1.0	t		20.0	female	white	3.9502586549940313	smiling	091	sub-11	2.0	4.0	091_smiling	0.0		209.54377188428407	
30.0	186.19464061481267	pulse	1.0	t		20.0	female	white	3.9502586549940313	smiling	091	sub-11	2.0	4.0	091_smiling	0.0		210.24373596387522	
30.0	186.89463578517825	pulse	1.0	t		20.0	female	white	3.9502586549940313	smiling	091	sub-11	2.0	4.0	091_smiling	0.0		210.9437311342408	
31.0	187.26950025355836	face	0.0		145	27.0	male	black	3.5523278949462798	smiling	042	sub-11	2.0	4.0	042_smiling	0.0		211.31859560262092	1.2332924826732778
31.0	187.59461707034643	pulse	0.0	t		27.0	male	black	3.5523278949462798	smiling	042	sub-11	2.0	4.0	042_smiling	0.0		211.64371241940898	
31.0	188.29459805365696	pulse	0.0	t		27.0	male	black	3.5523278949462798	smiling	042	sub-11	2.0	4.0	042_smiling	0.0		212.3436934027195	
31.0	188.50279273623164	fix	1.0		444	27.0	male	black	3.5523278949462798	smiling	042	sub-11	2.0	4.0	042_smiling	0.0		212.5518880852942	3.76655810050579
31.0	188.99457752771195	pulse	1.0	t		27.0	male	black	3.5523278949462798	smiling	042	sub-11	2.0	4.0	042_smiling	0.0		213.0436728767745	
31.0	189.69454522952947	pulse	1.0	t		27.0	male	black	3.5523278949462798	smiling	042	sub-11	2.0	4.0	042_smiling	0.0		213.74364057859202	
31.0	190.39453043877438	pulse	1.0	t		27.0	male	black	3.5523278949462798	smiling	042	sub-11	2.0	4.0	042_smiling	0.0		214.44362578783694	
31.0	191.0945038757818	pulse	1.0	t		27.0	male	black	3.5523278949462798	smiling	042	sub-11	2.0	4.0	042_smiling	0.0		215.14359922484437	
31.0	191.7944836516872	pulse	1.0	t		27.0	male	black	3.5523278949462798	smiling	042	sub-11	2.0	4.0	042_smiling	0.0		215.84357900074974	
32.0	192.26935083673743	face	0.0		145	19.0	female	white	4.298846000795861	smiling	100	sub-11	2.0	4.0	100_smiling	0.0		216.31844618579998	1.2333066697246977
32.0	192.49447278500884	pulse	0.0	t		19.0	female	white	4.298846000795861	smiling	100	sub-11	2.0	4.0	100_smiling	0.0		216.5435681340714	
32.0	193.19445135350543	pulse	0.0	t		19.0	female	white	4.298846000795861	smiling	100	sub-11	2.0	4.0	100_smiling	0.0		217.24354670256798	
32.0	193.50265750646213	fix	1.0		444	19.0	female	white	4.298846000795861	smiling	100	sub-11	2.0	4.0	100_smiling	0.0		217.55175285552468	3.7665312356621143
32.0	193.89442086643976	pulse	1.0	t		19.0	female	white	4.298846000795861	smiling	100	sub-11	2.0	4.0	100_smiling	0.0		217.9435162155023	
32.0	194.5944021516043	pulse	1.0	t		19.0	female	white	4.298846000795861	smiling	100	sub-11	2.0	4.0	100_smiling	0.0		218.64349750066685	
32.0	195.2943870589952	pulse	1.0	t		19.0	female	white	4.298846000795861	smiling	100	sub-11	2.0	4.0	100_smiling	0.0		219.34348240805775	
32.0	195.9943574774843	pulse	1.0	t		19.0	female	white	4.298846000795861	smiling	100	sub-11	2.0	4.0	100_smiling	0.0		220.04345282654685	
32.0	196.69433514042248	pulse	1.0	t		19.0	female	white	4.298846000795861	smiling	100	sub-11	2.0	4.0	100_smiling	0.0		220.74343048948504	
33.0	197.26918874212424	face	0.0		145	31.0	female	east_asian	3.395941106247513	smiling	087	sub-11	2.0	4.0	087_smiling	0.0		221.3182840911868	1.2333108956554497
33.0	197.39431702929505	pulse	0.0	t		31.0	female	east_asian	3.395941106247513	smiling	087	sub-11	2.0	4.0	087_smiling	0.0		221.4434123783576	
33.0	198.09430495520792	pulse	0.0	t		31.0	female	east_asian	3.395941106247513	smiling	087	sub-11	2.0	4.0	087_smiling	0.0		222.14340030427047	
33.0	198.5024996377797	fix	1.0		444	31.0	female	east_asian	3.395941106247513	smiling	087	sub-11	2.0	4.0	087_smiling	0.0		222.55159498684225	3.766542102337553
33.0	198.79427718480656	pulse	1.0	t		31.0	female	east_asian	3.395941106247513	smiling	087	sub-11	2.0	4.0	087_smiling	0.0		222.84337253386911	
33.0	199.49425816812072	pulse	1.0	t		31.0	female	east_asian	3.395941106247513	smiling	087	sub-11	2.0	4.0	087_smiling	0.0		223.54335351718328	
33.0	200.19423251068656	pulse	1.0	t		31.0	female	east_asian	3.395941106247513	smiling	087	sub-11	2.0	4.0	087_smiling	0.0		224.24332785974912	
33.0	200.8942222477126	pulse	1.0	t		31.0	female	east_asian	3.395941106247513	smiling	087	sub-11	2.0	4.0	087_smiling	0.0		224.94331759677516	
33.0	201.5941917606433	pulse	1.0	t		31.0	female	east_asian	3.395941106247513	smiling	087	sub-11	2.0	4.0	087_smiling	0.0		225.64328710970585	
34.0	202.26904174011725	face	0.0		145	40.0	male	white	1.868682849184242	smiling	172	sub-11	2.0	4.0	172_smiling	0.0		226.3181370891798	1.2333157252905949
34.0	202.29417214025307	pulse	0.0	t		40.0	male	white	1.868682849184242	smiling	172	sub-11	2.0	4.0	172_smiling	0.0		226.34326748931562	
34.0	202.99416157542873	pulse	0.0	t		40.0	male	white	1.868682849184242	smiling	172	sub-11	2.0	4.0	172_smiling	0.0		227.0432569244913	
34.0	203.50235746540784	fix	1.0		443	40.0	male	white	1.868682849184242	smiling	172	sub-11	2.0	4.0	172_smiling	0.0		227.5514528144704	3.758339873464138
34.0	203.69413048465503	pulse	1.0	t		40.0	male	white	1.868682849184242	smiling	172	sub-11	2.0	4.0	172_smiling	0.0		227.7432258337176	
34.0	204.39410633648367	pulse	1.0	t		40.0	male	white	1.868682849184242	smiling	172	sub-11	2.0	4.0	172_smiling	0.0		228.44320168554623	
34.0	205.09408641423943	pulse	1.0	t		40.0	male	white	1.868682849184242	smiling	172	sub-11	2.0	4.0	172_smiling	0.0		229.14318176330198	
34.0	205.79405743643292	pulse	1.0	t		40.0	male	white	1.868682849184242	smiling	172	sub-11	2.0	4.0	172_smiling	0.0		229.84315278549548	
34.0	206.4940589456928	pulse	1.0	t		40.0	male	white	1.868682849184242	smiling	172	sub-11	2.0	4.0	172_smiling	0.0		230.54315429475537	
34.0	207.19403419381342	pulse	1.0	t		40.0	male	white	1.868682849184242	smiling	172	sub-11	2.0	4.0	172_smiling	0.0		231.24312954287598	
35.0	207.26069733887198	face	0.0		147	40.0	female	west_asian	1.5777954635893354	neutral	038	sub-11	2.0	4.0	038_neutral	0.0		231.30979268793453	1.2415203689852206
35.0	207.89401849750357	pulse	0.0	t		40.0	female	west_asian	1.5777954635893354	neutral	038	sub-11	2.0	4.0	038_neutral	0.0		231.94311384656612	
35.0	208.5022177078572	fix	1.0		443	40.0	female	west_asian	1.5777954635893354	neutral	038	sub-11	2.0	4.0	038_neutral	0.0		232.55131305691975	3.7665439134543703
35.0	208.59399706600016	pulse	1.0	t		40.0	female	west_asian	1.5777954635893354	neutral	038	sub-11	2.0	4.0	038_neutral	0.0		232.6430924150627	
35.0	209.29396476781767	pulse	1.0	t		40.0	female	west_asian	1.5777954635893354	neutral	038	sub-11	2.0	4.0	038_neutral	0.0		233.34306011688022	
35.0	209.99395027891296	pulse	1.0	t		40.0	female	west_asian	1.5777954635893354	neutral	038	sub-11	2.0	4.0	038_neutral	0.0		234.04304562797552	
35.0	210.6939327714863	pulse	1.0	t		40.0	female	west_asian	1.5777954635893354	neutral	038	sub-11	2.0	4.0	038_neutral	0.0		234.74302812054884	
35.0	211.39390379367978	pulse	1.0	t		40.0	female	west_asian	1.5777954635893354	neutral	038	sub-11	2.0	4.0	038_neutral	0.0		235.44299914274234	
35.0	212.09389292700143	pulse	1.0	t		40.0	female	west_asian	1.5777954635893354	neutral	038	sub-11	2.0	4.0	038_neutral	0.0		236.142988276064	
36.0	212.26876162131157	face	0.0		146	27.0	male	black	3.5523278949462798	neutral	042	sub-11	2.0	4.0	042_neutral	0.0		236.31785697037412	1.2416263190934842
36.0	212.79387421216597	pulse	0.0	t		27.0	male	black	3.5523278949462798	neutral	042	sub-11	2.0	4.0	042_neutral	0.0		236.84296956122853	
36.0	213.49382591582253	pulse	0.0	t		27.0	male	black	3.5523278949462798	neutral	042	sub-11	2.0	4.0	042_neutral	0.0		237.54292126488508	
36.0	213.51038794040505	fix	1.0		443	27.0	male	black	3.5523278949462798	neutral	042	sub-11	2.0	4.0	042_neutral	0.0		237.5594832894676	3.7582266788995184
36.0	214.1938277269328	pulse	1.0	t		27.0	male	black	3.5523278949462798	neutral	042	sub-11	2.0	4.0	042_neutral	0.0		238.24292307599535	
36.0	214.89379633430872	pulse	1.0	t		27.0	male	black	3.5523278949462798	neutral	042	sub-11	2.0	4.0	042_neutral	0.0		238.94289168337127	
36.0	215.5937830528128	pulse	1.0	t		27.0	male	black	3.5523278949462798	neutral	042	sub-11	2.0	4.0	042_neutral	0.0		239.64287840187535	
36.0	216.2937534713019	pulse	1.0	t		27.0	male	black	3.5523278949462798	neutral	042	sub-11	2.0	4.0	042_neutral	0.0		240.34284882036445	
36.0	216.99373596387522	pulse	1.0	t		27.0	male	black	3.5523278949462798	neutral	042	sub-11	2.0	4.0	042_neutral	0.0		241.04283131293778	
37.0	217.26861461930457	face	0.0		145	20.0	female	white	3.9502586549940313	neutral	091	sub-11	2.0	4.0	091_neutral	0.0		241.31770996836713	1.233295199344866
37.0	217.69372721016407	pulse	0.0	t		20.0	female	white	3.9502586549940313	neutral	091	sub-11	2.0	4.0	091_neutral	0.0		241.74282255922662	
37.0	218.39369853420794	pulse	0.0	t		20.0	female	white	3.9502586549940313	neutral	091	sub-11	2.0	4.0	091_neutral	0.0		242.4427938832705	
37.0	218.50190981864944	fix	1.0		444	20.0	female	white	3.9502586549940313	neutral	091	sub-11	2.0	4.0	091_neutral	0.0		242.551005167712	3.766549044939893
37.0	219.09369098790194	pulse	1.0	t		20.0	female	white	3.9502586549940313	neutral	091	sub-11	2.0	4.0	091_neutral	0.0		243.1427863369645	
37.0	219.7936496341572	pulse	1.0	t		20.0	female	white	3.9502586549940313	neutral	091	sub-11	2.0	4.0	091_neutral	0.0		243.84274498321975	
37.0	220.49362820265378	pulse	1.0	t		20.0	female	white	3.9502586549940313	neutral	091	sub-11	2.0	4.0	091_neutral	0.0		244.54272355171634	
37.0	221.1936043563328	pulse	1.0	t		20.0	female	white	3.9502586549940313	neutral	091	sub-11	2.0	4.0	091_neutral	0.0		245.24269970539535	
37.0	221.89360254522035	pulse	1.0	t		20.0	female	white	3.9502586549940313	neutral	091	sub-11	2.0	4.0	091_neutral	0.0		245.9426978942829	
38.0	222.26845886358933	face	0.0		145	22.0	female	white	4.614007162753682	neutral	009	sub-11	2.0	4.0	009_neutral	0.0		246.31755421265188	1.2333069715750753
38.0	222.5935735674102	pulse	0.0	t		22.0	female	white	4.614007162753682	neutral	009	sub-11	2.0	4.0	009_neutral	0.0		246.64266891647276	
38.0	223.2935527396112	pulse	0.0	t		22.0	female	white	4.614007162753682	neutral	009	sub-11	2.0	4.0	009_neutral	0.0		247.34264808867374	
38.0	223.5017658351644	fix	1.0		444	22.0	female	white	4.614007162753682	neutral	009	sub-11	2.0	4.0	009_neutral	0.0		247.55086118422696	3.7665529690202675
38.0	223.99354368404602	pulse	1.0	t		22.0	female	white	4.614007162753682	neutral	009	sub-11	2.0	4.0	009_neutral	0.0		248.04263903310857	
38.0	224.6935131969767	pulse	1.0	t		22.0	female	white	4.614007162753682	neutral	009	sub-11	2.0	4.0	009_neutral	0.0		248.74260854603926	
38.0	225.39349025621414	pulse	1.0	t		22.0	female	white	4.614007162753682	neutral	009	sub-11	2.0	4.0	009_neutral	0.0		249.4425856052767	
38.0	226.09346067470324	pulse	1.0	t		22.0	female	white	4.614007162753682	neutral	009	sub-11	2.0	4.0	009_neutral	0.0		250.1425560237658	
38.0	226.79345976914556	pulse	1.0	t		22.0	female	white	4.614007162753682	neutral	009	sub-11	2.0	4.0	009_neutral	0.0		250.8425551182081	
39.0	227.26831880418467	face	0.0		145	25.0	female	black	3.858336649423	neutral	126	sub-11	2.0	4.0	126_neutral	0.0		251.31741415324723	1.2332912752644916
39.0	227.493433206153	pulse	0.0	t		25.0	female	black	3.858336649423	neutral	126	sub-11	2.0	4.0	126_neutral	0.0		251.54252855521554	
39.0	228.1934193209563	pulse	0.0	t		25.0	female	black	3.858336649423	neutral	126	sub-11	2.0	4.0	126_neutral	0.0		252.24251467001886	
39.0	228.50161007944916	fix	1.0		444	25.0	female	black	3.858336649423	neutral	126	sub-11	2.0	4.0	126_neutral	0.0		252.55070542851172	3.749909142497927
39.0	228.8933966820441	pulse	1.0	t		25.0	female	black	3.858336649423	neutral	126	sub-11	2.0	4.0	126_neutral	0.0		252.94249203110667	
39.0	229.59336830793836	pulse	1.0	t		25.0	female	black	3.858336649423	neutral	126	sub-11	2.0	4.0	126_neutral	0.0		253.64246365700092	
39.0	230.29334446161738	pulse	1.0	t		25.0	female	black	3.858336649423	neutral	126	sub-11	2.0	4.0	126_neutral	0.0		254.34243981067993	
39.0	230.99332303011397	pulse	1.0	t		25.0	female	black	3.858336649423	neutral	126	sub-11	2.0	4.0	126_neutral	0.0		255.04241837917652	
39.0	231.69330250416533	pulse	1.0	t		25.0	female	black	3.858336649423	neutral	126	sub-11	2.0	4.0	126_neutral	0.0		255.74239785322789	
40.0	232.2515192219471	fix	0.0		720													256.30061457100965	5.999821001667442
40.0	232.3932940523082	pulse	0.0	t														256.44238940137075	
40.0	233.09327594117713	pulse	0.0	t														257.1423712902397	
40.0	233.7932463596626	pulse	0.0	t														257.84234170872514	
40.0	234.49321587259692	pulse	0.0	t														258.5423112216595	
40.0	235.19318870589996	pulse	0.0	t														259.2422840549625	
40.0	235.89318930960508	pulse	0.0	t														259.94228465866763	
40.0	236.5931642558753	pulse	0.0	t														260.64225960493786	
40.0	237.29313769288638	pulse	0.0	t														261.34223304194893	
40.0	237.99312682620803	pulse	0.0	t														262.0422221752706	
