trial_nr	onset	event_type	phase	response	nr_frames	face_age	face_sex	face_eth	attractiveness	expression	face_id	sub_id	ses	run	trial_type	catch	rating_type	onset_abs	duration
-1.0	0.060964106143728714	fix	0.0		713													27.320152641939785	5.9579697366407345
-1.0	0.702488883442129	pulse	0.0	t														27.961677419238185	
-1.0	1.4024681460177817	pulse	0.0	t														28.661656681813838	
-1.0	2.102451030848897	pulse	0.0	t														29.361639566644953	
-1.0	2.802434217537666	pulse	0.0	t														30.061622753333722	
-1.0	3.502426761722745	pulse	0.0	t														30.7616152975188	
-1.0	4.202406628008248	pulse	0.0	t														31.461595163804304	
-1.0	4.902387701711632	pulse	0.0	t														32.16157623750769	
-1.0	5.6023793403328455	pulse	0.0	t														32.8615678761289	
0.0	6.018933842784463	face	0.0		144	28.0	male	east_asian	1.5563072025467568	neutral	005	sub-04	2.0	5.0	005_neutral	0.0		33.27812237858052	1.2332978452686802
0.0	6.302372790083609	pulse	0.0	t		28.0	male	east_asian	1.5563072025467568	neutral	005	sub-04	2.0	5.0	005_neutral	0.0		33.561561325879666	
0.0	7.002348732255996	pulse	0.0	t		28.0	male	east_asian	1.5563072025467568	neutral	005	sub-04	2.0	5.0	005_neutral	0.0		34.26153726805205	
0.0	7.252231688053143	fix	1.0		445	28.0	male	east_asian	1.5563072025467568	neutral	005	sub-04	2.0	5.0	005_neutral	0.0		34.5114202238492	3.758254144240709
0.0	7.702339163457509	pulse	1.0	t		28.0	male	east_asian	1.5563072025467568	neutral	005	sub-04	2.0	5.0	005_neutral	0.0		34.961527699253566	
0.0	8.402313294500345	pulse	1.0	t		28.0	male	east_asian	1.5563072025467568	neutral	005	sub-04	2.0	5.0	005_neutral	0.0		35.6615018302964	
0.0	9.102302518283977	pulse	1.0	t		28.0	male	east_asian	1.5563072025467568	neutral	005	sub-04	2.0	5.0	005_neutral	0.0		36.361491054080034	
0.0	9.802287817954493	pulse	1.0	t		28.0	male	east_asian	1.5563072025467568	neutral	005	sub-04	2.0	5.0	005_neutral	0.0		37.06147635375055	
0.0	10.502283380688823	pulse	1.0	t		28.0	male	east_asian	1.5563072025467568	neutral	005	sub-04	2.0	5.0	005_neutral	0.0		37.76147191648488	
1.0	11.010485832293853	face	0.0		146	26.0	female	white	4.854755272582572	neutral	027	sub-04	2.0	5.0	027_neutral	0.0		38.26967436808991	1.241641715851074
1.0	11.202265359957892	pulse	0.0	t		26.0	female	white	4.854755272582572	neutral	027	sub-04	2.0	5.0	027_neutral	0.0		38.46145389575395	
1.0	11.90224613180726	pulse	0.0	t		26.0	female	white	4.854755272582572	neutral	027	sub-04	2.0	5.0	027_neutral	0.0		39.16143466760332	
1.0	12.252127548144927	fix	1.0		446	26.0	female	white	4.854755272582572	neutral	027	sub-04	2.0	5.0	027_neutral	0.0		39.51131608394098	3.758253540530859
1.0	12.60224109083174	pulse	1.0	t		26.0	female	white	4.854755272582572	neutral	027	sub-04	2.0	5.0	027_neutral	0.0		39.861429626627796	
1.0	13.302208882923878	pulse	1.0	t		26.0	female	white	4.854755272582572	neutral	027	sub-04	2.0	5.0	027_neutral	0.0		40.561397418719935	
1.0	14.002204143802373	pulse	1.0	t		26.0	female	white	4.854755272582572	neutral	027	sub-04	2.0	5.0	027_neutral	0.0		41.26139267959843	
1.0	14.702185519361592	pulse	1.0	t		26.0	female	white	4.854755272582572	neutral	027	sub-04	2.0	5.0	027_neutral	0.0		41.96137405515765	
1.0	15.40216568750111	pulse	1.0	t		26.0	female	white	4.854755272582572	neutral	027	sub-04	2.0	5.0	027_neutral	0.0		42.66135422329717	
2.0	16.010381088675786	face	0.0		146	27.0	female	white	4.181058495821727	smiling	039	sub-04	2.0	5.0	039_smiling	1.0	trustworthiness	43.26956962447184	1.2416405084331927
2.0	16.102167891040153	pulse	0.0	t		27.0	female	white	4.181058495821727	smiling	039	sub-04	2.0	5.0	039_smiling	1.0	trustworthiness	43.36135642683621	
2.0	16.802149568453387	pulse	0.0	t		27.0	female	white	4.181058495821727	smiling	039	sub-04	2.0	5.0	039_smiling	1.0	trustworthiness	44.061338104249444	
2.0	17.25202159710898	fix	1.0		177	27.0	female	white	4.181058495821727	smiling	039	sub-04	2.0	5.0	039_smiling	1.0	trustworthiness	44.511210132905035	1.5083364751371846
2.0	17.502145734897567	pulse	1.0	t		27.0	female	white	4.181058495821727	smiling	039	sub-04	2.0	5.0	039_smiling	1.0	trustworthiness	44.761334270693624	
2.0	18.202110508442274	pulse	1.0	t		27.0	female	white	4.181058495821727	smiling	039	sub-04	2.0	5.0	039_smiling	1.0	trustworthiness	45.46129904423833	
2.0	18.760358072246163	rating	2.0		293	27.0	female	white	4.181058495821727	smiling	039	sub-04	2.0	5.0	039_smiling	1.0	trustworthiness	46.01954660804222	2.4915799110804073
2.0	18.90210878787002	pulse	2.0	t		27.0	female	white	4.181058495821727	smiling	039	sub-04	2.0	5.0	039_smiling	1.0	trustworthiness	46.161297323666076	
2.0	19.60209076713727	pulse	2.0	t		27.0	female	white	4.181058495821727	smiling	039	sub-04	2.0	5.0	039_smiling	1.0	trustworthiness	46.861279302933326	
2.0	20.302080292774917	pulse	2.0	t		27.0	female	white	4.181058495821727	smiling	039	sub-04	2.0	5.0	039_smiling	1.0	trustworthiness	47.561268828570974	
2.0	20.33847583244824	response	2.0	g		27.0	female	white	4.181058495821727	smiling	039	sub-04	2.0	5.0	039_smiling	1.0	trustworthiness	47.597664368244295	
2.0	21.00204416075576	pulse	2.0	t		27.0	female	white	4.181058495821727	smiling	039	sub-04	2.0	5.0	039_smiling	1.0	trustworthiness	48.261232696551815	
2.0	21.25193798332657	fix	3.0		444	27.0	female	white	4.181058495821727	smiling	039	sub-04	2.0	5.0	039_smiling	1.0	trustworthiness	48.51112651912263	3.758256257224275
2.0	21.70204334574737	pulse	3.0	t		27.0	female	white	4.181058495821727	smiling	039	sub-04	2.0	5.0	039_smiling	1.0	trustworthiness	48.961231881543426	
2.0	22.40202532501462	pulse	3.0	t		27.0	female	white	4.181058495821727	smiling	039	sub-04	2.0	5.0	039_smiling	1.0	trustworthiness	49.661213860810676	
2.0	23.102013643234386	pulse	3.0	t		27.0	female	white	4.181058495821727	smiling	039	sub-04	2.0	5.0	039_smiling	1.0	trustworthiness	50.36120217903044	
2.0	23.801998641050886	pulse	3.0	t		27.0	female	white	4.181058495821727	smiling	039	sub-04	2.0	5.0	039_smiling	1.0	trustworthiness	51.06118717684694	
2.0	24.501996316768782	pulse	3.0	t		27.0	female	white	4.181058495821727	smiling	039	sub-04	2.0	5.0	039_smiling	1.0	trustworthiness	51.76118485256484	
3.0	25.010194240550845	face	0.0		146	26.0	female	white	4.854755272582572	smiling	027	sub-04	2.0	5.0	027_smiling	0.0		52.2693827763469	1.2416393010116735
3.0	25.20197225893935	pulse	0.0	t		26.0	female	white	4.854755272582572	smiling	027	sub-04	2.0	5.0	027_smiling	0.0		52.461160794735406	
3.0	25.901953634498568	pulse	0.0	t		26.0	female	white	4.854755272582572	smiling	027	sub-04	2.0	5.0	027_smiling	0.0		53.161142170294625	
3.0	26.25183354156252	fix	1.0		445	26.0	female	white	4.854755272582572	smiling	027	sub-04	2.0	5.0	027_smiling	0.0		53.511022077358575	3.7582381459360477
3.0	26.601946480539482	pulse	1.0	t		26.0	female	white	4.854755272582572	smiling	027	sub-04	2.0	5.0	027_smiling	0.0		53.86113501633554	
3.0	27.301919404162618	pulse	1.0	t		26.0	female	white	4.854755272582572	smiling	027	sub-04	2.0	5.0	027_smiling	0.0		54.561107939958674	
3.0	28.001905911252834	pulse	1.0	t		26.0	female	white	4.854755272582572	smiling	027	sub-04	2.0	5.0	027_smiling	0.0		55.26109444704889	
3.0	28.7018942294726	pulse	1.0	t		26.0	female	white	4.854755272582572	smiling	027	sub-04	2.0	5.0	027_smiling	0.0		55.96108276526866	
3.0	29.40187620873985	pulse	1.0	t		26.0	female	white	4.854755272582572	smiling	027	sub-04	2.0	5.0	027_smiling	0.0		56.661064744535906	
4.0	30.010071687498566	face	0.0		146	19.0	male	white	3.2522881018702745	smiling	018	sub-04	2.0	5.0	018_smiling	0.0		57.26926022329462	1.2416571104458853
4.0	30.101874488167596	pulse	0.0	t		19.0	male	white	3.2522881018702745	smiling	018	sub-04	2.0	5.0	018_smiling	0.0		57.36106302396365	
4.0	30.801845600663	pulse	0.0	t		19.0	male	white	3.2522881018702745	smiling	018	sub-04	2.0	5.0	018_smiling	0.0		58.06103413645906	
4.0	31.251728797944452	fix	1.0		445	19.0	male	white	3.2522881018702745	smiling	018	sub-04	2.0	5.0	018_smiling	0.0		58.51091733374051	3.7665805072429066
4.0	31.501853841298725	pulse	1.0	t		19.0	male	white	3.2522881018702745	smiling	018	sub-04	2.0	5.0	018_smiling	0.0		58.76104237709478	
4.0	32.201820425971164	pulse	1.0	t		19.0	male	white	3.2522881018702745	smiling	018	sub-04	2.0	5.0	018_smiling	0.0		59.46100896176722	
4.0	32.9018045182238	pulse	1.0	t		19.0	male	white	3.2522881018702745	smiling	018	sub-04	2.0	5.0	018_smiling	0.0		60.160993054019855	
4.0	33.60179011974833	pulse	1.0	t		19.0	male	white	3.2522881018702745	smiling	018	sub-04	2.0	5.0	018_smiling	0.0		60.860978655544386	
4.0	34.30177058974368	pulse	1.0	t		19.0	male	white	3.2522881018702745	smiling	018	sub-04	2.0	5.0	018_smiling	0.0		61.56095912553974	
5.0	35.01830930518736	face	0.0		146	47.0	male	east_asian	2.171110226820533	neutral	024	sub-04	2.0	5.0	024_neutral	0.0		62.277497840983415	1.2333120324456104
5.0	35.00458064670056	pulse	0.0	t		47.0	male	east_asian	2.171110226820533	neutral	024	sub-04	2.0	5.0	024_neutral	0.0		62.26376918249662	
5.0	35.70174782989125	pulse	0.0	t		47.0	male	east_asian	2.171110226820533	neutral	024	sub-04	2.0	5.0	024_neutral	0.0		62.9609363656873	
5.0	36.25162133763297	fix	1.0		444	47.0	male	east_asian	2.171110226820533	neutral	024	sub-04	2.0	5.0	024_neutral	0.0		63.510809873429025	3.7665907703067205
5.0	36.40173705367488	pulse	1.0	t		47.0	male	east_asian	2.171110226820533	neutral	024	sub-04	2.0	5.0	024_neutral	0.0		63.660925589470935	
5.0	37.10171571253886	pulse	1.0	t		47.0	male	east_asian	2.171110226820533	neutral	024	sub-04	2.0	5.0	024_neutral	0.0		64.36090424833492	
5.0	37.80170946414546	pulse	1.0	t		47.0	male	east_asian	2.171110226820533	neutral	024	sub-04	2.0	5.0	024_neutral	0.0		65.06089799994152	
5.0	38.50169446196014	pulse	1.0	t		47.0	male	east_asian	2.171110226820533	neutral	024	sub-04	2.0	5.0	024_neutral	0.0		65.7608829977562	
5.0	39.20167915792263	pulse	1.0	t		47.0	male	east_asian	2.171110226820533	neutral	024	sub-04	2.0	5.0	024_neutral	0.0		66.46086769371868	
5.0	39.90165268525561	pulse	1.0	t		47.0	male	east_asian	2.171110226820533	neutral	024	sub-04	2.0	5.0	024_neutral	0.0		67.16084122105167	
6.0	40.01821210793969	face	0.0		146	40.0	male	black	2.408674890569041	neutral	061	sub-04	2.0	5.0	061_neutral	0.0		67.27740064373575	1.2333050897850626
6.0	40.60164341831296	pulse	0.0	t		40.0	male	black	2.408674890569041	neutral	061	sub-04	2.0	5.0	061_neutral	0.0		67.86083195410902	
6.0	41.25151719772475	fix	1.0		444	40.0	male	black	2.408674890569041	neutral	061	sub-04	2.0	5.0	061_neutral	0.0		68.51070573352081	3.7582571627881407
6.0	41.301664034996065	pulse	1.0	t		40.0	male	black	2.408674890569041	neutral	061	sub-04	2.0	5.0	061_neutral	0.0		68.56085257079212	
6.0	42.00161492321968	pulse	1.0	t		40.0	male	black	2.408674890569041	neutral	061	sub-04	2.0	5.0	061_neutral	0.0		69.26080345901573	
6.0	42.70159810990663	pulse	1.0	t		40.0	male	black	2.408674890569041	neutral	061	sub-04	2.0	5.0	061_neutral	0.0		69.96078664570268	
6.0	43.40157616506258	pulse	1.0	t		40.0	male	black	2.408674890569041	neutral	061	sub-04	2.0	5.0	061_neutral	0.0		70.66076470085864	
6.0	44.10156810553781	pulse	1.0	t		40.0	male	black	2.408674890569041	neutral	061	sub-04	2.0	5.0	061_neutral	0.0		71.36075664133386	
6.0	44.80155732932144	pulse	1.0	t		40.0	male	black	2.408674890569041	neutral	061	sub-04	2.0	5.0	061_neutral	0.0		72.0607458651175	
7.0	45.00977436051289	face	0.0		146	19.0	male	white	2.243931555909272	smiling	130	sub-04	2.0	5.0	130_smiling	0.0		72.26896289630895	1.2416399047233426
7.0	45.50155772173275	pulse	0.0	t		19.0	male	white	2.243931555909272	smiling	130	sub-04	2.0	5.0	130_smiling	0.0		72.76074625752881	
7.0	46.20151555261691	pulse	0.0	t		19.0	male	white	2.243931555909272	smiling	130	sub-04	2.0	5.0	130_smiling	0.0		73.46070408841297	
7.0	46.251414265236235	fix	1.0		445	19.0	male	white	2.243931555909272	smiling	130	sub-04	2.0	5.0	130_smiling	0.0		73.51060280103229	3.7665895628870203
7.0	46.90151413389867	pulse	1.0	t		19.0	male	white	2.243931555909272	smiling	130	sub-04	2.0	5.0	130_smiling	0.0		74.16070266969473	
7.0	47.60150607437572	pulse	1.0	t		19.0	male	white	2.243931555909272	smiling	130	sub-04	2.0	5.0	130_smiling	0.0		74.86069461017178	
7.0	48.30147114977444	pulse	1.0	t		19.0	male	white	2.243931555909272	smiling	130	sub-04	2.0	5.0	130_smiling	0.0		75.5606596855705	
7.0	49.00146701436279	pulse	1.0	t		19.0	male	white	2.243931555909272	smiling	130	sub-04	2.0	5.0	130_smiling	0.0		76.26065555015884	
7.0	49.70145925669567	pulse	1.0	t		19.0	male	white	2.243931555909272	smiling	130	sub-04	2.0	5.0	130_smiling	0.0		76.96064779249173	
8.0	50.018003828123256	face	0.0		145	31.0	female	east_asian	3.395941106247513	neutral	087	sub-04	2.0	5.0	087_neutral	0.0		77.27719236391931	1.2333035805113468
8.0	50.401443348946486	pulse	0.0	t		31.0	female	east_asian	3.395941106247513	neutral	087	sub-04	2.0	5.0	087_neutral	0.0		77.66063188474254	
8.0	51.10141415958606	pulse	0.0	t		31.0	female	east_asian	3.395941106247513	neutral	087	sub-04	2.0	5.0	087_neutral	0.0		78.36060269538211	
8.0	51.2513074086346	fix	1.0		445	31.0	female	east_asian	3.395941106247513	neutral	087	sub-04	2.0	5.0	087_neutral	0.0		78.51049594443066	3.766589864741036
8.0	51.801416664980934	pulse	1.0	t		31.0	female	east_asian	3.395941106247513	neutral	087	sub-04	2.0	5.0	087_neutral	0.0		79.06060520077699	
8.0	52.501404077636835	pulse	1.0	t		31.0	female	east_asian	3.395941106247513	neutral	087	sub-04	2.0	5.0	087_neutral	0.0		79.76059261343289	
8.0	53.20136945488957	pulse	1.0	t		31.0	female	east_asian	3.395941106247513	neutral	087	sub-04	2.0	5.0	087_neutral	0.0		80.46055799068563	
8.0	53.901361093510786	pulse	1.0	t		31.0	female	east_asian	3.395941106247513	neutral	087	sub-04	2.0	5.0	087_neutral	0.0		81.16054962930684	
8.0	54.6013488080207	pulse	1.0	t		31.0	female	east_asian	3.395941106247513	neutral	087	sub-04	2.0	5.0	087_neutral	0.0		81.86053734381676	
9.0	55.01789727337564	face	0.0		145	25.0	female	black	3.858336649423	smiling	126	sub-04	2.0	5.0	126_smiling	0.0		82.2770858091717	1.233306900914613
9.0	55.301342257771466	pulse	0.0	t		25.0	female	black	3.858336649423	smiling	126	sub-04	2.0	5.0	126_smiling	0.0		82.56053079356752	
9.0	56.00131970921757	pulse	0.0	t		25.0	female	black	3.858336649423	smiling	126	sub-04	2.0	5.0	126_smiling	0.0		83.26050824501363	
9.0	56.25120417429025	fix	1.0		444	25.0	female	black	3.858336649423	smiling	126	sub-04	2.0	5.0	126_smiling	0.0		83.51039271008631	3.766591675870586
9.0	56.70131074412893	pulse	1.0	t		25.0	female	black	3.858336649423	smiling	126	sub-04	2.0	5.0	126_smiling	0.0		83.96049927992499	
9.0	57.401289402994735	pulse	1.0	t		25.0	female	black	3.858336649423	smiling	126	sub-04	2.0	5.0	126_smiling	0.0		84.66047793879079	
9.0	58.1012713822638	pulse	1.0	t		25.0	female	black	3.858336649423	smiling	126	sub-04	2.0	5.0	126_smiling	0.0		85.36045991805986	
9.0	58.8012615116113	pulse	1.0	t		25.0	female	black	3.858336649423	smiling	126	sub-04	2.0	5.0	126_smiling	0.0		86.06045004740736	
9.0	59.50126250773246	pulse	1.0	t		25.0	female	black	3.858336649423	smiling	126	sub-04	2.0	5.0	126_smiling	0.0		86.76045104352852	
10.0	60.01779585016084	face	0.0		145	22.0	female	west_asian	3.8205332272184642	neutral	066	sub-04	2.0	5.0	066_neutral	0.0		87.2769843859569	1.2333008638179308
10.0	60.20123844990303	pulse	0.0	t		22.0	female	west_asian	3.8205332272184642	neutral	066	sub-04	2.0	5.0	066_neutral	0.0		87.46042698569909	
10.0	60.90121318465572	pulse	0.0	t		22.0	female	west_asian	3.8205332272184642	neutral	066	sub-04	2.0	5.0	066_neutral	0.0		88.16040172045177	
10.0	61.25109671397877	fix	1.0		445	22.0	female	west_asian	3.8205332272184642	neutral	066	sub-04	2.0	5.0	066_neutral	0.0		88.51028524977482	3.7665913740165706
10.0	61.601219312307876	pulse	1.0	t		22.0	female	west_asian	3.8205332272184642	neutral	066	sub-04	2.0	5.0	066_neutral	0.0		88.86040784810393	
10.0	62.3011880099657	pulse	1.0	t		22.0	female	west_asian	3.8205332272184642	neutral	066	sub-04	2.0	5.0	066_neutral	0.0		89.56037654576176	
10.0	63.00116757439537	pulse	1.0	t		22.0	female	west_asian	3.8205332272184642	neutral	066	sub-04	2.0	5.0	066_neutral	0.0		90.26035611019142	
10.0	63.70114864809875	pulse	1.0	t		22.0	female	west_asian	3.8205332272184642	neutral	066	sub-04	2.0	5.0	066_neutral	0.0		90.96033718389481	
10.0	64.40114390897725	pulse	1.0	t		22.0	female	west_asian	3.8205332272184642	neutral	066	sub-04	2.0	5.0	066_neutral	0.0		91.6603324447733	
11.0	65.01768808799534	face	0.0		145	40.0	male	white	1.868682849184242	smiling	172	sub-04	2.0	5.0	172_smiling	0.0		92.2768766237914	1.233307504622644
11.0	65.10117478872417	pulse	0.0	t		40.0	male	white	1.868682849184242	smiling	172	sub-04	2.0	5.0	172_smiling	0.0		92.36036332452022	
11.0	65.80111239533653	pulse	0.0	t		40.0	male	white	1.868682849184242	smiling	172	sub-04	2.0	5.0	172_smiling	0.0		93.06030093113259	
11.0	66.25099559261798	fix	1.0		444	40.0	male	white	1.868682849184242	smiling	172	sub-04	2.0	5.0	172_smiling	0.0		93.51018412841404	3.766582922082307
11.0	66.50111822113286	pulse	1.0	t		40.0	male	white	1.868682849184242	smiling	172	sub-04	2.0	5.0	172_smiling	0.0		93.76030675692891	
11.0	67.20108420209726	pulse	1.0	t		40.0	male	white	1.868682849184242	smiling	172	sub-04	2.0	5.0	172_smiling	0.0		94.46027273789332	
11.0	67.90106497394663	pulse	1.0	t		40.0	male	white	1.868682849184242	smiling	172	sub-04	2.0	5.0	172_smiling	0.0		95.16025350974269	
11.0	68.60105661256785	pulse	1.0	t		40.0	male	white	1.868682849184242	smiling	172	sub-04	2.0	5.0	172_smiling	0.0		95.8602451483639	
11.0	69.30104462893178	pulse	1.0	t		40.0	male	white	1.868682849184242	smiling	172	sub-04	2.0	5.0	172_smiling	0.0		96.56023316472783	
12.0	70.01757851470029	face	0.0		146	24.0	female	east_asian	2.9076800636689217	neutral	034	sub-04	2.0	5.0	034_neutral	0.0		97.27676705049635	1.23331022131606
12.0	70.00379280565357	pulse	0.0	t		24.0	female	east_asian	2.9076800636689217	neutral	034	sub-04	2.0	5.0	034_neutral	0.0		97.26298134144963	
12.0	70.70101070045166	pulse	0.0	t		24.0	female	east_asian	2.9076800636689217	neutral	034	sub-04	2.0	5.0	034_neutral	0.0		97.96019923624772	
12.0	71.25088873601635	fix	1.0		443	24.0	female	east_asian	2.9076800636689217	neutral	034	sub-04	2.0	5.0	034_neutral	0.0		98.5100772718124	3.766582922082307
12.0	71.40100354649257	pulse	1.0	t		24.0	female	east_asian	2.9076800636689217	neutral	034	sub-04	2.0	5.0	034_neutral	0.0		98.66019208228863	
12.0	72.10098099793868	pulse	1.0	t		24.0	female	east_asian	2.9076800636689217	neutral	034	sub-04	2.0	5.0	034_neutral	0.0		99.36016953373473	
12.0	72.80096448647964	pulse	1.0	t		24.0	female	east_asian	2.9076800636689217	neutral	034	sub-04	2.0	5.0	034_neutral	0.0		100.0601530222757	
12.0	73.50095884179609	pulse	1.0	t		24.0	female	east_asian	2.9076800636689217	neutral	034	sub-04	2.0	5.0	034_neutral	0.0		100.76014737759215	
12.0	74.20093116170938	pulse	1.0	t		24.0	female	east_asian	2.9076800636689217	neutral	034	sub-04	2.0	5.0	034_neutral	0.0		101.46011969750543	
12.0	74.90092159291271	pulse	1.0	t		24.0	female	east_asian	2.9076800636689217	neutral	034	sub-04	2.0	5.0	034_neutral	0.0		102.16011012870877	
13.0	75.01747165809866	face	0.0		146	20.0	male	black	3.1070433744528456	smiling	082	sub-04	2.0	5.0	082_smiling	0.0		102.27666019389471	1.233312334299626
13.0	75.60092621129115	pulse	0.0	t		20.0	male	black	3.1070433744528456	smiling	082	sub-04	2.0	5.0	082_smiling	0.0		102.86011474708721	
13.0	76.25078399239828	fix	1.0		444	20.0	male	black	3.1070433744528456	smiling	082	sub-04	2.0	5.0	082_smiling	0.0		103.50997252819434	3.766590468450886
13.0	76.30089128668988	pulse	1.0	t		20.0	male	black	3.1070433744528456	smiling	082	sub-04	2.0	5.0	082_smiling	0.0		103.56007982248593	
13.0	77.00088534015049	pulse	1.0	t		20.0	male	black	3.1070433744528456	smiling	082	sub-04	2.0	5.0	082_smiling	0.0		104.26007387594655	
13.0	77.70086037675719	pulse	1.0	t		20.0	male	black	3.1070433744528456	smiling	082	sub-04	2.0	5.0	082_smiling	0.0		104.96004891255325	
13.0	78.40084114860656	pulse	1.0	t		20.0	male	black	3.1070433744528456	smiling	082	sub-04	2.0	5.0	082_smiling	0.0		105.66002968440262	
13.0	79.10083429650149	pulse	1.0	t		20.0	male	black	3.1070433744528456	smiling	082	sub-04	2.0	5.0	082_smiling	0.0		106.36002283229755	
13.0	79.80081657762457	pulse	1.0	t		20.0	male	black	3.1070433744528456	smiling	082	sub-04	2.0	5.0	082_smiling	0.0		107.06000511342063	
14.0	80.01737446084917	face	0.0		145	27.0	female	white	3.504576203740549	neutral	144	sub-04	2.0	5.0	144_neutral	0.0		107.27656299664523	1.2333056934949127
14.0	80.50082240342272	pulse	0.0	t		27.0	female	white	3.504576203740549	neutral	144	sub-04	2.0	5.0	144_neutral	0.0		107.76001093921877	
14.0	81.20078476212802	pulse	0.0	t		27.0	female	white	3.504576203740549	neutral	144	sub-04	2.0	5.0	144_neutral	0.0		108.45997329792408	
14.0	81.25068015434408	fix	1.0		445	27.0	female	white	3.504576203740549	neutral	144	sub-04	2.0	5.0	144_neutral	0.0		108.50986869014014	3.7665868461936043
14.0	81.90078243784592	pulse	1.0	t		27.0	female	white	3.504576203740549	neutral	144	sub-04	2.0	5.0	144_neutral	0.0		109.15997097364198	
14.0	82.60076834122628	pulse	1.0	t		27.0	female	white	3.504576203740549	neutral	144	sub-04	2.0	5.0	144_neutral	0.0		109.85995687702234	
14.0	83.30074428339867	pulse	1.0	t		27.0	female	white	3.504576203740549	neutral	144	sub-04	2.0	5.0	144_neutral	0.0		110.55993281919473	
14.0	84.00073562016587	pulse	1.0	t		27.0	female	white	3.504576203740549	neutral	144	sub-04	2.0	5.0	144_neutral	0.0		111.25992415596193	
14.0	84.70072001427252	pulse	1.0	t		27.0	female	white	3.504576203740549	neutral	144	sub-04	2.0	5.0	144_neutral	0.0		111.95990855006858	
15.0	85.01726700053769	face	0.0		145	31.0	female	white	2.1822522881018704	neutral	102	sub-04	2.0	5.0	102_neutral	0.0		112.27645553633374	1.2333081083343131
15.0	85.40070984176418	pulse	0.0	t		31.0	female	white	2.1822522881018704	neutral	102	sub-04	2.0	5.0	102_neutral	0.0		112.65989837756024	
15.0	86.10068216167929	pulse	0.0	t		31.0	female	white	2.1822522881018704	neutral	102	sub-04	2.0	5.0	102_neutral	0.0		113.35987069747534	
15.0	86.250575108872	fix	1.0		445	31.0	female	white	2.1822522881018704	neutral	102	sub-04	2.0	5.0	102_neutral	0.0		113.50976364466806	3.7583139114922233
15.0	86.80068436522015	pulse	1.0	t		31.0	female	white	2.1822522881018704	neutral	102	sub-04	2.0	5.0	102_neutral	0.0		114.0598729010162	
15.0	87.50066906118082	pulse	1.0	t		31.0	female	white	2.1822522881018704	neutral	102	sub-04	2.0	5.0	102_neutral	0.0		114.75985759697687	
15.0	88.20063594770909	pulse	1.0	t		31.0	female	white	2.1822522881018704	neutral	102	sub-04	2.0	5.0	102_neutral	0.0		115.45982448350514	
15.0	88.900633925281	pulse	1.0	t		31.0	female	white	2.1822522881018704	neutral	102	sub-04	2.0	5.0	102_neutral	0.0		116.15982246107706	
15.0	89.60062556390221	pulse	1.0	t		31.0	female	white	2.1822522881018704	neutral	102	sub-04	2.0	5.0	102_neutral	0.0		116.85981409969827	
16.0	90.00888902036422	face	0.0		146	34.0	male	white	2.651014723438122	neutral	121	sub-04	2.0	5.0	121_neutral	1.0	dominance	117.26807755616028	1.2415795337601594
16.0	90.30060724131545	pulse	0.0	t		34.0	male	white	2.651014723438122	neutral	121	sub-04	2.0	5.0	121_neutral	1.0	dominance	117.5597957771115	
16.0	91.00058137235828	pulse	0.0	t		34.0	male	white	2.651014723438122	neutral	121	sub-04	2.0	5.0	121_neutral	1.0	dominance	118.25976990815434	
16.0	91.25046855412438	fix	1.0		177	34.0	male	white	2.651014723438122	neutral	121	sub-04	2.0	5.0	121_neutral	1.0	dominance	118.50965708992044	1.4999702673012507
16.0	91.70057452025503	pulse	1.0	t		34.0	male	white	2.651014723438122	neutral	121	sub-04	2.0	5.0	121_neutral	1.0	dominance	118.95976305605109	
16.0	92.40055861250585	pulse	1.0	t		34.0	male	white	2.651014723438122	neutral	121	sub-04	2.0	5.0	121_neutral	1.0	dominance	119.6597471483019	
16.0	92.75043882142563	rating	2.0		294	34.0	male	white	2.651014723438122	neutral	121	sub-04	2.0	5.0	121_neutral	1.0	dominance	120.00962735722169	2.4999467226280103
16.0	93.10054994927305	pulse	2.0	t		34.0	male	white	2.651014723438122	neutral	121	sub-04	2.0	5.0	121_neutral	1.0	dominance	120.3597384850691	
16.0	93.80053373966985	pulse	2.0	t		34.0	male	white	2.651014723438122	neutral	121	sub-04	2.0	5.0	121_neutral	1.0	dominance	121.0597222754659	
16.0	94.25051292678108	response	2.0	y		34.0	male	white	2.651014723438122	neutral	121	sub-04	2.0	5.0	121_neutral	1.0	dominance	121.50970146257714	
16.0	94.50050334289153	pulse	2.0	t		34.0	male	white	2.651014723438122	neutral	121	sub-04	2.0	5.0	121_neutral	1.0	dominance	121.75969187868759	
16.0	95.20049135925547	pulse	2.0	t		34.0	male	white	2.651014723438122	neutral	121	sub-04	2.0	5.0	121_neutral	1.0	dominance	122.45967989505152	
16.0	95.25038554405364	fix	3.0		444	34.0	male	white	2.651014723438122	neutral	121	sub-04	2.0	5.0	121_neutral	1.0	dominance	122.5095740798497	3.766589864741036
16.0	95.90048843126351	pulse	3.0	t		34.0	male	white	2.651014723438122	neutral	121	sub-04	2.0	5.0	121_neutral	1.0	dominance	123.15967696705957	
16.0	96.60046769383916	pulse	3.0	t		34.0	male	white	2.651014723438122	neutral	121	sub-04	2.0	5.0	121_neutral	1.0	dominance	123.85965622963522	
16.0	97.30045299350968	pulse	3.0	t		34.0	male	white	2.651014723438122	neutral	121	sub-04	2.0	5.0	121_neutral	1.0	dominance	124.55964152930574	
16.0	98.00043859503603	pulse	3.0	t		34.0	male	white	2.651014723438122	neutral	121	sub-04	2.0	5.0	121_neutral	1.0	dominance	125.25962713083209	
16.0	98.70042480027041	pulse	3.0	t		34.0	male	white	2.651014723438122	neutral	121	sub-04	2.0	5.0	121_neutral	1.0	dominance	125.95961333606647	
17.0	99.01697540879468	face	0.0		145	22.0	female	west_asian	3.8205332272184642	smiling	066	sub-04	2.0	5.0	066_smiling	0.0		126.27616394459073	1.2333056934949127
17.0	99.40041553332776	pulse	0.0	t		22.0	female	west_asian	3.8205332272184642	smiling	066	sub-04	2.0	5.0	066_smiling	0.0		126.65960406912382	
17.0	100.10038694767718	pulse	0.0	t		22.0	female	west_asian	3.8205332272184642	smiling	066	sub-04	2.0	5.0	066_smiling	0.0		127.35957548347324	
17.0	100.25028110228959	fix	1.0		445	22.0	female	west_asian	3.8205332272184642	smiling	066	sub-04	2.0	5.0	066_smiling	0.0		127.50946963808565	3.758348926648978
17.0	100.80038643452463	pulse	1.0	t		22.0	female	west_asian	3.8205332272184642	smiling	066	sub-04	2.0	5.0	066_smiling	0.0		128.05957497032068	
17.0	101.50037143234113	pulse	1.0	t		22.0	female	west_asian	3.8205332272184642	smiling	066	sub-04	2.0	5.0	066_smiling	0.0		128.75955996813718	
17.0	102.20035341160838	pulse	1.0	t		22.0	female	west_asian	3.8205332272184642	smiling	066	sub-04	2.0	5.0	066_smiling	0.0		129.45954194740443	
17.0	102.90033025934463	pulse	1.0	t		22.0	female	west_asian	3.8205332272184642	smiling	066	sub-04	2.0	5.0	066_smiling	0.0		130.15951879514068	
17.0	103.6003315573198	pulse	1.0	t		22.0	female	west_asian	3.8205332272184642	smiling	066	sub-04	2.0	5.0	066_smiling	0.0		130.85952009311586	
18.0	104.00863002893857	face	0.0		146	24.0	female	east_asian	4.409868682849185	smiling	030	sub-04	2.0	5.0	030_smiling	0.0		131.26781856473463	1.2415460278789396
18.0	104.30031172545932	pulse	0.0	t		24.0	female	east_asian	4.409868682849185	smiling	030	sub-04	2.0	5.0	030_smiling	0.0		131.55950026125538	
18.0	105.00029189359884	pulse	0.0	t		24.0	female	east_asian	4.409868682849185	smiling	030	sub-04	2.0	5.0	030_smiling	0.0		132.2594804293949	
18.0	105.25017605681751	fix	1.0		445	24.0	female	east_asian	4.409868682849185	smiling	030	sub-04	2.0	5.0	030_smiling	0.0		132.50936459261357	3.7665868461936043
18.0	105.70028745633317	pulse	1.0	t		24.0	female	east_asian	4.409868682849185	smiling	030	sub-04	2.0	5.0	030_smiling	0.0		132.95947599212923	
18.0	106.40025555027933	pulse	1.0	t		24.0	female	east_asian	4.409868682849185	smiling	030	sub-04	2.0	5.0	030_smiling	0.0		133.65944408607538	
18.0	107.10024900003009	pulse	1.0	t		24.0	female	east_asian	4.409868682849185	smiling	030	sub-04	2.0	5.0	030_smiling	0.0		134.35943753582615	
18.0	107.80023007373529	pulse	1.0	t		24.0	female	east_asian	4.409868682849185	smiling	030	sub-04	2.0	5.0	030_smiling	0.0		135.05941860953135	
18.0	108.50022593832364	pulse	1.0	t		24.0	female	east_asian	4.409868682849185	smiling	030	sub-04	2.0	5.0	030_smiling	0.0		135.7594144741197	
19.0	109.01676290301111	face	0.0		145	27.0	male	black	3.5523278949462798	neutral	042	sub-04	2.0	5.0	042_neutral	0.0		136.27595143880717	1.2333072027686285
19.0	109.20021546396129	pulse	0.0	t		27.0	male	black	3.5523278949462798	neutral	042	sub-04	2.0	5.0	042_neutral	0.0		136.45940399975734	
19.0	109.90018657645669	pulse	0.0	t		27.0	male	black	3.5523278949462798	neutral	042	sub-04	2.0	5.0	042_neutral	0.0		137.15937511225275	
19.0	110.25007010577974	fix	1.0		445	27.0	male	black	3.5523278949462798	neutral	042	sub-04	2.0	5.0	042_neutral	0.0		137.5092586415758	3.7665919777246017
19.0	110.60018304475489	pulse	1.0	t		27.0	male	black	3.5523278949462798	neutral	042	sub-04	2.0	5.0	042_neutral	0.0		137.85937158055094	
19.0	111.30015385539627	pulse	1.0	t		27.0	male	black	3.5523278949462798	neutral	042	sub-04	2.0	5.0	042_neutral	0.0		138.55934239119233	
19.0	112.00014549401749	pulse	1.0	t		27.0	male	black	3.5523278949462798	neutral	042	sub-04	2.0	5.0	042_neutral	0.0		139.25933402981354	
19.0	112.70013018997815	pulse	1.0	t		27.0	male	black	3.5523278949462798	neutral	042	sub-04	2.0	5.0	042_neutral	0.0		139.9593187257742	
19.0	113.40011096182752	pulse	1.0	t		27.0	male	black	3.5523278949462798	neutral	042	sub-04	2.0	5.0	042_neutral	0.0		140.65929949762358	
20.0	114.01666208350434	face	0.0		145	31.0	female	west_asian	2.364902506963788	neutral	006	sub-04	2.0	5.0	006_neutral	0.0		141.2758506193004	1.2333059953507473
20.0	114.10010893939943	pulse	0.0	t		31.0	female	west_asian	2.364902506963788	neutral	006	sub-04	2.0	5.0	006_neutral	0.0		141.3592974751955	
20.0	114.80008065560469	pulse	0.0	t		31.0	female	west_asian	2.364902506963788	neutral	006	sub-04	2.0	5.0	006_neutral	0.0		142.05926919140074	
20.0	115.24996807885509	fix	1.0		1185	31.0	female	west_asian	2.364902506963788	neutral	006	sub-04	2.0	5.0	006_neutral	0.0		142.50915661465115	10.016457727799207
20.0	115.5000898018061	pulse	1.0	t		31.0	female	west_asian	2.364902506963788	neutral	006	sub-04	2.0	5.0	006_neutral	0.0		142.75927833760215	
20.0	116.20004823639829	pulse	1.0	t		31.0	female	west_asian	2.364902506963788	neutral	006	sub-04	2.0	5.0	006_neutral	0.0		143.45923677219434	
20.0	116.90004259171292	pulse	1.0	t		31.0	female	west_asian	2.364902506963788	neutral	006	sub-04	2.0	5.0	006_neutral	0.0		144.15923112750897	
20.0	117.6000399655768	pulse	1.0	t		31.0	female	west_asian	2.364902506963788	neutral	006	sub-04	2.0	5.0	006_neutral	0.0		144.85922850137285	
20.0	118.30000896508864	pulse	1.0	t		31.0	female	west_asian	2.364902506963788	neutral	006	sub-04	2.0	5.0	006_neutral	0.0		145.5591975008847	
20.0	118.99999969814598	pulse	1.0	t		31.0	female	west_asian	2.364902506963788	neutral	006	sub-04	2.0	5.0	006_neutral	0.0		146.25918823394204	
20.0	119.69998469596248	pulse	1.0	t		31.0	female	west_asian	2.364902506963788	neutral	006	sub-04	2.0	5.0	006_neutral	0.0		146.95917323175854	
20.0	120.39996063813305	pulse	1.0	t		31.0	female	west_asian	2.364902506963788	neutral	006	sub-04	2.0	5.0	006_neutral	0.0		147.6591491739291	
20.0	121.09995589901337	pulse	1.0	t		31.0	female	west_asian	2.364902506963788	neutral	006	sub-04	2.0	5.0	006_neutral	0.0		148.35914443480942	
20.0	121.79995085803785	pulse	1.0	t		31.0	female	west_asian	2.364902506963788	neutral	006	sub-04	2.0	5.0	006_neutral	0.0		149.0591393938339	
20.0	122.4999352521445	pulse	1.0	t		31.0	female	west_asian	2.364902506963788	neutral	006	sub-04	2.0	5.0	006_neutral	0.0		149.75912378794055	
20.0	123.1999039498005	pulse	1.0	t		31.0	female	west_asian	2.364902506963788	neutral	006	sub-04	2.0	5.0	006_neutral	0.0		150.45909248559656	
20.0	123.89989709769725	pulse	1.0	t		31.0	female	west_asian	2.364902506963788	neutral	006	sub-04	2.0	5.0	006_neutral	0.0		151.1590856334933	
20.0	124.59987817140063	pulse	1.0	t		31.0	female	west_asian	2.364902506963788	neutral	006	sub-04	2.0	5.0	006_neutral	0.0		151.8590667071967	
21.0	125.2664258066543	face	0.0		145	24.0	female	east_asian	4.409868682849185	neutral	030	sub-04	2.0	5.0	030_neutral	0.0		152.52561434245035	1.233320484379874
21.0	125.29987524340868	pulse	0.0	t		24.0	female	east_asian	4.409868682849185	neutral	030	sub-04	2.0	5.0	030_neutral	0.0		152.55906377920473	
21.0	125.9998554115482	pulse	0.0	t		24.0	female	east_asian	4.409868682849185	neutral	030	sub-04	2.0	5.0	030_neutral	0.0		153.25904394734425	
21.0	126.49974629103417	fix	1.0		443	24.0	female	east_asian	4.409868682849185	neutral	030	sub-04	2.0	5.0	030_neutral	0.0		153.75893482683023	3.766574772002059
21.0	126.6998431260563	pulse	1.0	t		24.0	female	east_asian	4.409868682849185	neutral	030	sub-04	2.0	5.0	030_neutral	0.0		153.95903166185235	
21.0	127.39982118121225	pulse	1.0	t		24.0	female	east_asian	4.409868682849185	neutral	030	sub-04	2.0	5.0	030_neutral	0.0		154.6590097170083	
21.0	128.09980316048131	pulse	1.0	t		24.0	female	east_asian	4.409868682849185	neutral	030	sub-04	2.0	5.0	030_neutral	0.0		155.35899169627737	
21.0	128.79979479910253	pulse	1.0	t		24.0	female	east_asian	4.409868682849185	neutral	030	sub-04	2.0	5.0	030_neutral	0.0		156.05898333489858	
21.0	129.499789456273	pulse	1.0	t		24.0	female	east_asian	4.409868682849185	neutral	030	sub-04	2.0	5.0	030_neutral	0.0		156.75897799206905	
21.0	130.19975362610603	pulse	1.0	t		24.0	female	east_asian	4.409868682849185	neutral	030	sub-04	2.0	5.0	030_neutral	0.0		157.4589421619021	
22.0	130.26632106303623	face	0.0		146	31.0	female	west_asian	2.364902506963788	smiling	006	sub-04	2.0	5.0	006_smiling	1.0	attractiveness	157.5255095988323	1.2333011656719464
22.0	130.8997558296469	pulse	0.0	t		31.0	female	west_asian	2.364902506963788	smiling	006	sub-04	2.0	5.0	006_smiling	1.0	attractiveness	158.15894436544295	
22.0	131.49962222870818	fix	1.0		177	31.0	female	west_asian	2.364902506963788	smiling	006	sub-04	2.0	5.0	006_smiling	1.0	attractiveness	158.75881076450423	1.4999793229471834
22.0	131.5997344885127	pulse	1.0	t		31.0	female	west_asian	2.364902506963788	smiling	006	sub-04	2.0	5.0	006_smiling	1.0	attractiveness	158.85892302430875	
22.0	132.29972159931094	pulse	1.0	t		31.0	female	west_asian	2.364902506963788	smiling	006	sub-04	2.0	5.0	006_smiling	1.0	attractiveness	159.558910135107	
22.0	132.99960155165536	rating	2.0		294	31.0	female	west_asian	2.364902506963788	smiling	006	sub-04	2.0	5.0	006_smiling	1.0	attractiveness	160.25879008745142	2.4999548727064393
22.0	133.00740872438837	pulse	2.0	t		31.0	female	west_asian	2.364902506963788	smiling	006	sub-04	2.0	5.0	006_smiling	1.0	attractiveness	160.26659726018443	
22.0	133.6996985376045	pulse	2.0	t		31.0	female	west_asian	2.364902506963788	smiling	006	sub-04	2.0	5.0	006_smiling	1.0	attractiveness	160.95888707340055	
22.0	134.39968021501772	pulse	2.0	t		31.0	female	west_asian	2.364902506963788	smiling	006	sub-04	2.0	5.0	006_smiling	1.0	attractiveness	161.65886875081378	
22.0	134.62773363486667	response	2.0	w		31.0	female	west_asian	2.364902506963788	smiling	006	sub-04	2.0	5.0	006_smiling	1.0	attractiveness	161.88692217066273	
22.0	135.099647101546	pulse	2.0	t		31.0	female	west_asian	2.364902506963788	smiling	006	sub-04	2.0	5.0	006_smiling	1.0	attractiveness	162.35883563734205	
22.0	135.4995564243618	fix	3.0		444	31.0	female	west_asian	2.364902506963788	smiling	006	sub-04	2.0	5.0	006_smiling	1.0	attractiveness	162.75874496015786	3.76657477200024
22.0	135.79965232363247	pulse	3.0	t		31.0	female	west_asian	2.364902506963788	smiling	006	sub-04	2.0	5.0	006_smiling	1.0	attractiveness	163.05884085942853	
22.0	136.4996463770931	pulse	3.0	t		31.0	female	west_asian	2.364902506963788	smiling	006	sub-04	2.0	5.0	006_smiling	1.0	attractiveness	163.75883491288914	
22.0	137.19961718773448	pulse	3.0	t		31.0	female	west_asian	2.364902506963788	smiling	006	sub-04	2.0	5.0	006_smiling	1.0	attractiveness	164.45880572353053	
22.0	137.89960218554916	pulse	3.0	t		31.0	female	west_asian	2.364902506963788	smiling	006	sub-04	2.0	5.0	006_smiling	1.0	attractiveness	165.1587907213452	
22.0	138.5996013705426	pulse	3.0	t		31.0	female	west_asian	2.364902506963788	smiling	006	sub-04	2.0	5.0	006_smiling	1.0	attractiveness	165.85878990633864	
23.0	139.26613119636204	face	0.0		145	37.0	male	white	3.898925586947871	smiling	101	sub-04	2.0	5.0	101_smiling	0.0		166.5253197321581	1.2333189751061582
23.0	139.2995839535197	pulse	0.0	t		37.0	male	white	3.898925586947871	smiling	101	sub-04	2.0	5.0	101_smiling	0.0		166.55877248931574	
23.0	139.99956442351322	pulse	0.0	t		37.0	male	white	3.898925586947871	smiling	101	sub-04	2.0	5.0	101_smiling	0.0		167.25875295930928	
23.0	140.4994501714682	fix	1.0		443	37.0	male	white	3.898925586947871	smiling	101	sub-04	2.0	5.0	101_smiling	0.0		167.75863870726425	3.7582191290839546
23.0	140.69955606213443	pulse	1.0	t		37.0	male	white	3.898925586947871	smiling	101	sub-04	2.0	5.0	101_smiling	0.0		167.9587445979305	
23.0	141.39952204309884	pulse	1.0	t		37.0	male	white	3.898925586947871	smiling	101	sub-04	2.0	5.0	101_smiling	0.0		168.6587105788949	
23.0	142.09952122809045	pulse	1.0	t		37.0	male	white	3.898925586947871	smiling	101	sub-04	2.0	5.0	101_smiling	0.0		169.3587097638865	
23.0	142.7994977739727	pulse	1.0	t		37.0	male	white	3.898925586947871	smiling	101	sub-04	2.0	5.0	101_smiling	0.0		170.05868630976875	
23.0	143.4994957515446	pulse	1.0	t		37.0	male	white	3.898925586947871	smiling	101	sub-04	2.0	5.0	101_smiling	0.0		170.75868428734066	
23.0	144.19947259928085	pulse	1.0	t		37.0	male	white	3.898925586947871	smiling	101	sub-04	2.0	5.0	101_smiling	0.0		171.4586611350769	
24.0	144.25766930055215	face	0.0		147	20.0	male	black	3.1070433744528456	neutral	082	sub-04	2.0	5.0	082_neutral	0.0		171.5168578363482	1.2416767310078285
24.0	144.89945971008092	pulse	0.0	t		20.0	male	black	3.1070433744528456	neutral	082	sub-04	2.0	5.0	082_neutral	0.0		172.15864824587698	
24.0	145.49934603155998	fix	1.0		443	20.0	male	black	3.1070433744528456	neutral	082	sub-04	2.0	5.0	082_neutral	0.0		172.75853456735604	3.766576281275775
24.0	145.59945436725138	pulse	1.0	t		20.0	male	black	3.1070433744528456	neutral	082	sub-04	2.0	5.0	082_neutral	0.0		172.85864290304744	
24.0	146.29941853708442	pulse	1.0	t		20.0	male	black	3.1070433744528456	neutral	082	sub-04	2.0	5.0	082_neutral	0.0		173.55860707288048	
24.0	146.99941319425488	pulse	1.0	t		20.0	male	black	3.1070433744528456	neutral	082	sub-04	2.0	5.0	082_neutral	0.0		174.25860173005094	
24.0	147.69939728650752	pulse	1.0	t		20.0	male	black	3.1070433744528456	neutral	082	sub-04	2.0	5.0	082_neutral	0.0		174.95858582230358	
24.0	148.39937654908135	pulse	1.0	t		20.0	male	black	3.1070433744528456	neutral	082	sub-04	2.0	5.0	082_neutral	0.0		175.6585650848774	
24.0	149.09936999883212	pulse	1.0	t		20.0	male	black	3.1070433744528456	neutral	082	sub-04	2.0	5.0	082_neutral	0.0		176.35855853462817	
25.0	149.26592231283576	face	0.0		146	31.0	male	west_asian	1.9538400318344609	smiling	070	sub-04	2.0	5.0	070_smiling	0.0		176.5251108486318	1.2333201825258584
25.0	149.79935680777635	pulse	0.0	t		31.0	male	west_asian	1.9538400318344609	smiling	070	sub-04	2.0	5.0	070_smiling	0.0		177.0585453435724	
25.0	150.4992424953616	fix	1.0		444	31.0	male	west_asian	1.9538400318344609	smiling	070	sub-04	2.0	5.0	070_smiling	0.0		177.75843103115767	3.766574772002059
25.0	150.50670253506723	pulse	1.0	t		31.0	male	west_asian	1.9538400318344609	smiling	070	sub-04	2.0	5.0	070_smiling	0.0		177.7658910708633	
25.0	151.1993249922798	pulse	1.0	t		31.0	male	west_asian	1.9538400318344609	smiling	070	sub-04	2.0	5.0	070_smiling	0.0		178.45851352807585	
25.0	151.89932478098126	pulse	1.0	t		31.0	male	west_asian	1.9538400318344609	smiling	070	sub-04	2.0	5.0	070_smiling	0.0		179.15851331677732	
25.0	152.59930223242736	pulse	1.0	t		31.0	male	west_asian	1.9538400318344609	smiling	070	sub-04	2.0	5.0	070_smiling	0.0		179.85849076822342	
25.0	153.29927334492277	pulse	1.0	t		31.0	male	west_asian	1.9538400318344609	smiling	070	sub-04	2.0	5.0	070_smiling	0.0		180.55846188071882	
25.0	153.99926830394725	pulse	1.0	t		31.0	male	west_asian	1.9538400318344609	smiling	070	sub-04	2.0	5.0	070_smiling	0.0		181.2584568397433	
26.0	154.26581726736367	face	0.0		145	20.0	female	white	3.9502586549940313	smiling	091	sub-04	2.0	5.0	091_smiling	0.0		181.52500580315973	1.233321088089724
26.0	154.69925692402103	pulse	0.0	t		20.0	female	white	3.9502586549940313	smiling	091	sub-04	2.0	5.0	091_smiling	0.0		181.95844545981709	
26.0	155.39922924393613	pulse	0.0	t		20.0	female	white	3.9502586549940313	smiling	091	sub-04	2.0	5.0	091_smiling	0.0		182.6584177797322	
26.0	155.4991383554534	fix	1.0		445	20.0	female	white	3.9502586549940313	smiling	091	sub-04	2.0	5.0	091_smiling	0.0		182.75832689124945	3.7749086813746544
26.0	156.09922601408834	pulse	1.0	t		20.0	female	white	3.9502586549940313	smiling	091	sub-04	2.0	5.0	091_smiling	0.0		183.3584145498844	
26.0	156.7992140304541	pulse	1.0	t		20.0	female	white	3.9502586549940313	smiling	091	sub-04	2.0	5.0	091_smiling	0.0		184.05840256625015	
26.0	157.49920204681803	pulse	1.0	t		20.0	female	white	3.9502586549940313	smiling	091	sub-04	2.0	5.0	091_smiling	0.0		184.75839058261408	
26.0	158.19916832963463	pulse	1.0	t		20.0	female	white	3.9502586549940313	smiling	091	sub-04	2.0	5.0	091_smiling	0.0		185.4583568654307	
26.0	158.89916600535253	pulse	1.0	t		20.0	female	white	3.9502586549940313	smiling	091	sub-04	2.0	5.0	091_smiling	0.0		186.15835454114858	
27.0	159.27404703682805	face	0.0		145	20.0	male	black	2.609629924393156	smiling	043	sub-04	2.0	5.0	043_smiling	0.0		186.5332355726241	1.2333195788160083
27.0	159.59915643655586	pulse	0.0	t		20.0	male	black	2.609629924393156	smiling	043	sub-04	2.0	5.0	043_smiling	0.0		186.85834497235192	
27.0	160.29912241751845	pulse	0.0	t		20.0	male	black	2.609629924393156	smiling	043	sub-04	2.0	5.0	043_smiling	0.0		187.5583109533145	
27.0	160.50736661564406	fix	1.0		444	20.0	male	black	2.609629924393156	smiling	043	sub-04	2.0	5.0	043_smiling	0.0		187.76655515144012	3.7665756775659247
27.0	160.99912522476916	pulse	1.0	t		20.0	male	black	2.609629924393156	smiling	043	sub-04	2.0	5.0	043_smiling	0.0		188.25831376056522	
27.0	161.6991032799251	pulse	1.0	t		20.0	male	black	2.609629924393156	smiling	043	sub-04	2.0	5.0	043_smiling	0.0		188.95829181572117	
27.0	162.39909129628904	pulse	1.0	t		20.0	male	black	2.609629924393156	smiling	043	sub-04	2.0	5.0	043_smiling	0.0		189.6582798320851	
27.0	163.099069653299	pulse	1.0	t		20.0	male	black	2.609629924393156	smiling	043	sub-04	2.0	5.0	043_smiling	0.0		190.35825818909507	
27.0	163.79909570336895	pulse	1.0	t		20.0	male	black	2.609629924393156	smiling	043	sub-04	2.0	5.0	043_smiling	0.0		191.058284239165	
28.0	164.27394229320998	face	0.0		145	28.0	male	white	3.9076800636689217	smiling	033	sub-04	2.0	5.0	033_smiling	0.0		191.53313082900604	1.2333195788160083
28.0	164.4990637973151	pulse	0.0	t		28.0	male	white	3.9076800636689217	smiling	033	sub-04	2.0	5.0	033_smiling	0.0		191.75825233311116	
28.0	165.19902645787624	pulse	0.0	t		28.0	male	white	3.9076800636689217	smiling	033	sub-04	2.0	5.0	033_smiling	0.0		192.4582149936723	
28.0	165.507261872026	fix	1.0		444	28.0	male	white	3.9076800636689217	smiling	033	sub-04	2.0	5.0	033_smiling	0.0		192.76645040782205	3.76657477200024
28.0	165.89902322803027	pulse	1.0	t		28.0	male	white	3.9076800636689217	smiling	033	sub-04	2.0	5.0	033_smiling	0.0		193.15821176382633	
28.0	166.59900188689426	pulse	1.0	t		28.0	male	white	3.9076800636689217	smiling	033	sub-04	2.0	5.0	033_smiling	0.0		193.8581904226903	
28.0	167.29898839398447	pulse	1.0	t		28.0	male	white	3.9076800636689217	smiling	033	sub-04	2.0	5.0	033_smiling	0.0		194.55817692978053	
28.0	167.9989673547043	pulse	1.0	t		28.0	male	white	3.9076800636689217	smiling	033	sub-04	2.0	5.0	033_smiling	0.0		195.25815589050035	
28.0	168.69895959703535	pulse	1.0	t		28.0	male	white	3.9076800636689217	smiling	033	sub-04	2.0	5.0	033_smiling	0.0		195.9581481328314	
29.0	169.27383664402623	face	0.0		145	30.0	female	black	2.7345801830481498	smiling	062	sub-04	2.0	5.0	062_smiling	0.0		196.5330251798223	1.2333192769619927
29.0	169.39896180057622	pulse	0.0	t		30.0	female	black	2.7345801830481498	smiling	062	sub-04	2.0	5.0	062_smiling	0.0		196.65815033637227	
29.0	170.09892204629796	pulse	0.0	t		30.0	female	black	2.7345801830481498	smiling	062	sub-04	2.0	5.0	062_smiling	0.0		197.358110582094	
29.0	170.50715592098823	fix	1.0		444	30.0	female	black	2.7345801830481498	smiling	062	sub-04	2.0	5.0	062_smiling	0.0		197.76634445678428	3.766576281275775
29.0	170.798919118306	pulse	1.0	t		30.0	female	black	2.7345801830481498	smiling	062	sub-04	2.0	5.0	062_smiling	0.0		198.05810765410206	
29.0	171.49890743652577	pulse	1.0	t		30.0	female	black	2.7345801830481498	smiling	062	sub-04	2.0	5.0	062_smiling	0.0		198.75809597232183	
29.0	172.19888217127846	pulse	1.0	t		30.0	female	black	2.7345801830481498	smiling	062	sub-04	2.0	5.0	062_smiling	0.0		199.4580707070745	
29.0	172.89886445240154	pulse	1.0	t		30.0	female	black	2.7345801830481498	smiling	062	sub-04	2.0	5.0	062_smiling	0.0		200.1580529881976	
29.0	173.5988542798932	pulse	1.0	t		30.0	female	black	2.7345801830481498	smiling	062	sub-04	2.0	5.0	062_smiling	0.0		200.85804281568926	
30.0	174.273732202264	face	0.0		145	22.0	female	white	4.614007162753682	smiling	009	sub-04	2.0	5.0	009_smiling	0.0		201.53292073806006	1.2333192769601737
30.0	174.29889904496122	pulse	0.0	t		22.0	female	white	4.614007162753682	smiling	009	sub-04	2.0	5.0	009_smiling	0.0		201.55808758075727	
30.0	174.9988254829459	pulse	0.0	t		22.0	female	white	4.614007162753682	smiling	009	sub-04	2.0	5.0	009_smiling	0.0		202.25801401874196	
30.0	175.50705147922417	fix	1.0		443	22.0	female	white	4.614007162753682	smiling	009	sub-04	2.0	5.0	009_smiling	0.0		202.76624001502023	3.766576281275775
30.0	175.69881832898682	pulse	1.0	t		22.0	female	white	4.614007162753682	smiling	009	sub-04	2.0	5.0	009_smiling	0.0		202.95800686478287	
30.0	176.39879004519025	pulse	1.0	t		22.0	female	white	4.614007162753682	smiling	009	sub-04	2.0	5.0	009_smiling	0.0		203.6579785809863	
30.0	177.09878017453957	pulse	1.0	t		22.0	female	white	4.614007162753682	smiling	009	sub-04	2.0	5.0	009_smiling	0.0		204.35796871033563	
30.0	177.79876396493637	pulse	1.0	t		22.0	female	white	4.614007162753682	smiling	009	sub-04	2.0	5.0	009_smiling	0.0		205.05795250073243	
30.0	178.49876013137873	pulse	1.0	t		22.0	female	white	4.614007162753682	smiling	009	sub-04	2.0	5.0	009_smiling	0.0		205.7579486671748	
30.0	179.19873758282483	pulse	1.0	t		22.0	female	white	4.614007162753682	smiling	009	sub-04	2.0	5.0	009_smiling	0.0		206.4579261186209	
31.0	179.27362776049995	face	0.0		146	25.0	female	black	3.858336649423	neutral	126	sub-04	2.0	5.0	126_neutral	0.0		206.532816296296	1.2333201825258584
31.0	179.89872801402817	pulse	0.0	t		25.0	female	black	3.858336649423	neutral	126	sub-04	2.0	5.0	126_neutral	0.0		207.15791654982422	
31.0	180.5069479430258	fix	1.0		443	25.0	female	black	3.858336649423	neutral	126	sub-04	2.0	5.0	126_neutral	0.0		207.76613647882186	3.7665732627283433
31.0	180.59872538789205	pulse	1.0	t		25.0	female	black	3.858336649423	neutral	126	sub-04	2.0	5.0	126_neutral	0.0		207.8579139236881	
31.0	181.2986871428875	pulse	1.0	t		25.0	female	black	3.858336649423	neutral	126	sub-04	2.0	5.0	126_neutral	0.0		208.55787567868356	
31.0	181.99868300747585	pulse	1.0	t		25.0	female	black	3.858336649423	neutral	126	sub-04	2.0	5.0	126_neutral	0.0		209.2578715432719	
31.0	182.69865894964823	pulse	1.0	t		25.0	female	black	3.858336649423	neutral	126	sub-04	2.0	5.0	126_neutral	0.0		209.9578474854443	
31.0	183.39864304189905	pulse	1.0	t		25.0	female	black	3.858336649423	neutral	126	sub-04	2.0	5.0	126_neutral	0.0		210.6578315776951	
31.0	184.09863528423193	pulse	1.0	t		25.0	female	black	3.858336649423	neutral	126	sub-04	2.0	5.0	126_neutral	0.0		211.357823820028	
32.0	184.27352120575415	face	0.0		146	22.0	male	black	2.767608436132113	neutral	044	sub-04	2.0	5.0	044_neutral	1.0	attractiveness	211.5327097415502	1.2416562048820197
32.0	184.79862480986958	pulse	0.0	t		22.0	male	black	2.767608436132113	neutral	044	sub-04	2.0	5.0	044_neutral	1.0	attractiveness	212.05781334566564	
32.0	185.49861554292693	pulse	0.0	t		22.0	male	black	2.767608436132113	neutral	044	sub-04	2.0	5.0	044_neutral	1.0	attractiveness	212.75780407872298	
32.0	185.51517741063617	fix	1.0		176	22.0	male	black	2.767608436132113	neutral	044	sub-04	2.0	5.0	044_neutral	1.0	attractiveness	212.77436594643223	1.4916239818812755
32.0	186.19859842775986	pulse	1.0	t		22.0	male	black	2.767608436132113	neutral	044	sub-04	2.0	5.0	044_neutral	1.0	attractiveness	213.45778696355592	
32.0	186.89858252001068	pulse	1.0	t		22.0	male	black	2.767608436132113	neutral	044	sub-04	2.0	5.0	044_neutral	1.0	attractiveness	214.15777105580673	
32.0	187.00680139251745	rating	2.0		295	22.0	male	black	2.767608436132113	neutral	044	sub-04	2.0	5.0	044_neutral	1.0	attractiveness	214.2659899283135	2.499955778270305
32.0	187.59856932895673	pulse	2.0	t		22.0	male	black	2.767608436132113	neutral	044	sub-04	2.0	5.0	044_neutral	1.0	attractiveness	214.85775786475278	
32.0	188.2985452711273	pulse	2.0	t		22.0	male	black	2.767608436132113	neutral	044	sub-04	2.0	5.0	044_neutral	1.0	attractiveness	215.55773380692335	
32.0	188.50994355013245	response	2.0	e		22.0	male	black	2.767608436132113	neutral	044	sub-04	2.0	5.0	044_neutral	1.0	attractiveness	215.7691320859285	
32.0	188.99852181700953	pulse	2.0	t		22.0	male	black	2.767608436132113	neutral	044	sub-04	2.0	5.0	044_neutral	1.0	attractiveness	216.2577103528056	
32.0	189.50675717078775	fix	3.0		443	22.0	male	black	2.767608436132113	neutral	044	sub-04	2.0	5.0	044_neutral	1.0	attractiveness	216.7659457065838	3.766576281275775
32.0	189.69852220942084	pulse	3.0	t		22.0	male	black	2.767608436132113	neutral	044	sub-04	2.0	5.0	044_neutral	1.0	attractiveness	216.9577107452169	
32.0	190.39849634046368	pulse	3.0	t		22.0	male	black	2.767608436132113	neutral	044	sub-04	2.0	5.0	044_neutral	1.0	attractiveness	217.65768487625974	
32.0	191.0984804327145	pulse	3.0	t		22.0	male	black	2.767608436132113	neutral	044	sub-04	2.0	5.0	044_neutral	1.0	attractiveness	218.35766896851055	
32.0	191.79847991956194	pulse	3.0	t		22.0	male	black	2.767608436132113	neutral	044	sub-04	2.0	5.0	044_neutral	1.0	attractiveness	219.057668455358	
32.0	192.4984655210883	pulse	3.0	t		22.0	male	black	2.767608436132113	neutral	044	sub-04	2.0	5.0	044_neutral	1.0	attractiveness	219.75765405688435	
32.0	193.19843512430816	pulse	3.0	t		22.0	male	black	2.767608436132113	neutral	044	sub-04	2.0	5.0	044_neutral	1.0	attractiveness	220.45762366010422	
33.0	193.27333345206353	face	0.0		146	24.0	male	white	3.1153999204138483	neutral	012	sub-04	2.0	5.0	012_neutral	0.0		220.53252198785958	1.2333192769601737
33.0	193.89843732784902	pulse	0.0	t		24.0	male	white	3.1153999204138483	neutral	012	sub-04	2.0	5.0	012_neutral	0.0		221.15762586364508	
33.0	194.5066527290237	fix	1.0		443	24.0	male	white	3.1153999204138483	neutral	012	sub-04	2.0	5.0	012_neutral	0.0		221.76584126481976	3.766576884985625
33.0	194.59842775905054	pulse	1.0	t		24.0	male	white	3.1153999204138483	neutral	012	sub-04	2.0	5.0	012_neutral	0.0		221.8576162948466	
33.0	195.29840007896564	pulse	1.0	t		24.0	male	white	3.1153999204138483	neutral	012	sub-04	2.0	5.0	012_neutral	0.0		222.5575886147617	
33.0	195.99840047137695	pulse	1.0	t		24.0	male	white	3.1153999204138483	neutral	012	sub-04	2.0	5.0	012_neutral	0.0		223.257589007173	
33.0	196.69837822467707	pulse	1.0	t		24.0	male	white	3.1153999204138483	neutral	012	sub-04	2.0	5.0	012_neutral	0.0		223.95756676047313	
33.0	197.39835809096257	pulse	1.0	t		24.0	male	white	3.1153999204138483	neutral	012	sub-04	2.0	5.0	012_neutral	0.0		224.65754662675863	
33.0	198.09833524055284	pulse	1.0	t		24.0	male	white	3.1153999204138483	neutral	012	sub-04	2.0	5.0	012_neutral	0.0		225.3575237763489	
34.0	198.27322961400932	face	0.0		146	24.0	male	white	3.1153999204138483	smiling	012	sub-04	2.0	5.0	012_smiling	0.0		225.53241814980538	1.2416556011721696
34.0	198.7983374440937	pulse	0.0	t		24.0	male	white	3.1153999204138483	smiling	012	sub-04	2.0	5.0	012_smiling	0.0		226.05752597988976	
34.0	199.49830885844312	pulse	0.0	t		24.0	male	white	3.1153999204138483	smiling	012	sub-04	2.0	5.0	012_smiling	0.0		226.75749739423918	
34.0	199.5148852151815	fix	1.0		443	24.0	male	white	3.1153999204138483	smiling	012	sub-04	2.0	5.0	012_smiling	0.0		226.77407375097755	3.7499470999464393
34.0	200.19830170448404	pulse	1.0	t		24.0	male	white	3.1153999204138483	smiling	012	sub-04	2.0	5.0	012_smiling	0.0		227.4574902402801	
34.0	200.89828398560712	pulse	1.0	t		24.0	male	white	3.1153999204138483	smiling	012	sub-04	2.0	5.0	012_smiling	0.0		228.15747252140318	
34.0	201.5982635500368	pulse	1.0	t		24.0	male	white	3.1153999204138483	smiling	012	sub-04	2.0	5.0	012_smiling	0.0		228.85745208583285	
34.0	202.2982539812383	pulse	1.0	t		24.0	male	white	3.1153999204138483	smiling	012	sub-04	2.0	5.0	012_smiling	0.0		229.55744251703436	
34.0	202.99823686607124	pulse	1.0	t		24.0	male	white	3.1153999204138483	smiling	012	sub-04	2.0	5.0	012_smiling	0.0		230.2574254018673	
35.0	203.26483231512793	face	0.0		146	19.0	male	white	3.2522881018702745	neutral	018	sub-04	2.0	5.0	018_neutral	0.0		230.524020850924	1.2416115303694824
35.0	203.69823212695155	pulse	0.0	t		19.0	male	white	3.2522881018702745	neutral	018	sub-04	2.0	5.0	018_neutral	0.0		230.9574206627476	
35.0	204.3982089746878	pulse	0.0	t		19.0	male	white	3.2522881018702745	neutral	018	sub-04	2.0	5.0	018_neutral	0.0		231.65739751048386	
35.0	204.50644384549742	fix	1.0		444	19.0	male	white	3.2522881018702745	neutral	018	sub-04	2.0	5.0	018_neutral	0.0		231.76563238129347	3.766576884985625
35.0	205.09820182072872	pulse	1.0	t		19.0	male	white	3.2522881018702745	neutral	018	sub-04	2.0	5.0	018_neutral	0.0		232.35739035652477	
35.0	205.79817746104527	pulse	1.0	t		19.0	male	white	3.2522881018702745	neutral	018	sub-04	2.0	5.0	018_neutral	0.0		233.05736599684133	
35.0	206.4981742311993	pulse	1.0	t		19.0	male	white	3.2522881018702745	neutral	018	sub-04	2.0	5.0	018_neutral	0.0		233.75736276699536	
35.0	207.198149267806	pulse	1.0	t		19.0	male	white	3.2522881018702745	neutral	018	sub-04	2.0	5.0	018_neutral	0.0		234.45733780360206	
35.0	207.89813124707507	pulse	1.0	t		19.0	male	white	3.2522881018702745	neutral	018	sub-04	2.0	5.0	018_neutral	0.0		235.15731978287113	
36.0	208.27302073048304	face	0.0		145	20.0	male	black	2.609629924393156	neutral	043	sub-04	2.0	5.0	043_neutral	0.0		235.5322092662791	1.2333198806700238
36.0	208.5981319413404	pulse	0.0	t		20.0	male	black	2.609629924393156	neutral	043	sub-04	2.0	5.0	043_neutral	0.0		235.85732047713645	
36.0	209.2981030538358	pulse	0.0	t		20.0	male	black	2.609629924393156	neutral	043	sub-04	2.0	5.0	043_neutral	0.0		236.55729158963186	
36.0	209.50634061115306	fix	1.0		444	20.0	male	black	2.609629924393156	neutral	043	sub-04	2.0	5.0	043_neutral	0.0		236.76552914694912	3.7665777905494906
36.0	209.99809589987672	pulse	1.0	t		20.0	male	black	2.609629924393156	neutral	043	sub-04	2.0	5.0	043_neutral	0.0		237.25728443567277	
36.0	210.69807425688668	pulse	1.0	t		20.0	male	black	2.609629924393156	neutral	043	sub-04	2.0	5.0	043_neutral	0.0		237.95726279268274	
36.0	211.39805774542947	pulse	1.0	t		20.0	male	black	2.609629924393156	neutral	043	sub-04	2.0	5.0	043_neutral	0.0		238.65724628122553	
36.0	212.09805028961455	pulse	1.0	t		20.0	male	black	2.609629924393156	neutral	043	sub-04	2.0	5.0	043_neutral	0.0		239.3572388254106	
36.0	212.79802864662452	pulse	1.0	t		20.0	male	black	2.609629924393156	neutral	043	sub-04	2.0	5.0	043_neutral	0.0		240.05721718242057	
37.0	213.27291840170255	face	0.0		145	23.0	male	white	2.6275368085953046	smiling	141	sub-04	2.0	5.0	141_smiling	0.0		240.5321069374986	1.233317767688277
37.0	213.49803809467994	pulse	0.0	t		23.0	male	white	2.6275368085953046	smiling	141	sub-04	2.0	5.0	141_smiling	0.0		240.757226630476	
37.0	214.19800196266078	pulse	0.0	t		23.0	male	white	2.6275368085953046	smiling	141	sub-04	2.0	5.0	141_smiling	0.0		241.45719049845684	
37.0	214.50623616939083	fix	1.0		444	23.0	male	white	2.6275368085953046	smiling	141	sub-04	2.0	5.0	141_smiling	0.0		241.7654247051869	3.7665750738560746
37.0	214.8979960161214	pulse	1.0	t		23.0	male	white	2.6275368085953046	smiling	141	sub-04	2.0	5.0	141_smiling	0.0		242.15718455191745	
37.0	215.59797256200181	pulse	1.0	t		23.0	male	white	2.6275368085953046	smiling	141	sub-04	2.0	5.0	141_smiling	0.0		242.85716109779787	
37.0	216.29795242828732	pulse	1.0	t		23.0	male	white	2.6275368085953046	smiling	141	sub-04	2.0	5.0	141_smiling	0.0		243.55714096408337	
37.0	216.99795221698878	pulse	1.0	t		23.0	male	white	2.6275368085953046	smiling	141	sub-04	2.0	5.0	141_smiling	0.0		244.25714075278484	
37.0	217.6979378185133	pulse	1.0	t		23.0	male	white	2.6275368085953046	smiling	141	sub-04	2.0	5.0	141_smiling	0.0		244.95712635430937	
38.0	218.2728112432469	face	0.0		145	19.0	female	white	4.298846000795861	neutral	100	sub-04	2.0	5.0	100_neutral	0.0		245.53199977904296	1.2333192769601737
38.0	218.39792674044293	pulse	0.0	t		19.0	female	white	4.298846000795861	neutral	100	sub-04	2.0	5.0	100_neutral	0.0		245.65711527623898	
38.0	219.09790238075948	pulse	0.0	t		19.0	female	white	4.298846000795861	neutral	100	sub-04	2.0	5.0	100_neutral	0.0		246.35709091655553	
38.0	219.50613052020708	fix	1.0		444	19.0	female	white	4.298846000795861	neutral	100	sub-04	2.0	5.0	100_neutral	0.0		246.76531905600314	3.7665771868414595
38.0	219.7978952268004	pulse	1.0	t		19.0	female	white	4.298846000795861	neutral	100	sub-04	2.0	5.0	100_neutral	0.0		247.05708376259645	
38.0	220.4978814320366	pulse	1.0	t		19.0	female	white	4.298846000795861	neutral	100	sub-04	2.0	5.0	100_neutral	0.0		247.75706996783265	
38.0	221.19784982783676	pulse	1.0	t		19.0	female	white	4.298846000795861	neutral	100	sub-04	2.0	5.0	100_neutral	0.0		248.45703836363282	
38.0	221.89784689984663	pulse	1.0	t		19.0	female	white	4.298846000795861	neutral	100	sub-04	2.0	5.0	100_neutral	0.0		249.15703543564268	
38.0	222.597837934758	pulse	1.0	t		19.0	female	white	4.298846000795861	neutral	100	sub-04	2.0	5.0	100_neutral	0.0		249.85702647055405	
39.0	223.27270770704854	face	0.0		145	28.0	female	white	5.676880222841227	smiling	124	sub-04	2.0	5.0	124_smiling	1.0	dominance	250.5318962428446	1.233318371396308
39.0	223.29782836596132	pulse	0.0	t		28.0	female	white	5.676880222841227	smiling	124	sub-04	2.0	5.0	124_smiling	1.0	dominance	250.55701690175738	
39.0	223.99780400627787	pulse	0.0	t		28.0	female	white	5.676880222841227	smiling	124	sub-04	2.0	5.0	124_smiling	1.0	dominance	251.25699254207393	
39.0	224.50602607844485	fix	1.0		177	28.0	female	white	5.676880222841227	smiling	124	sub-04	2.0	5.0	124_smiling	1.0	dominance	251.7652146142409	1.4999572875440208
39.0	224.69779262635166	pulse	1.0	t		28.0	female	white	5.676880222841227	smiling	124	sub-04	2.0	5.0	124_smiling	1.0	dominance	251.9569811621477	
39.0	225.3977670592485	pulse	1.0	t		28.0	female	white	5.676880222841227	smiling	124	sub-04	2.0	5.0	124_smiling	1.0	dominance	252.65695559504456	
39.0	226.00598336598887	rating	2.0		293	28.0	female	white	5.676880222841227	smiling	124	sub-04	2.0	5.0	124_smiling	1.0	dominance	253.26517190178492	2.4999587968195556
39.0	226.09776805536967	pulse	2.0	t		28.0	female	white	5.676880222841227	smiling	124	sub-04	2.0	5.0	124_smiling	1.0	dominance	253.35695659116573	
39.0	226.7977726737481	pulse	2.0	t		28.0	female	white	5.676880222841227	smiling	124	sub-04	2.0	5.0	124_smiling	1.0	dominance	254.05696120954417	
39.0	227.497732013906	pulse	2.0	t		28.0	female	white	5.676880222841227	smiling	124	sub-04	2.0	5.0	124_smiling	1.0	dominance	254.75692054970204	
39.0	228.0257947006976	response	2.0	w		28.0	female	white	5.676880222841227	smiling	124	sub-04	2.0	5.0	124_smiling	1.0	dominance	255.28498323649364	
39.0	228.100764869896	response	2.0	e		28.0	female	white	5.676880222841227	smiling	124	sub-04	2.0	5.0	124_smiling	1.0	dominance	255.35995340569207	
39.0	228.19769105220803	pulse	2.0	t		28.0	female	white	5.676880222841227	smiling	124	sub-04	2.0	5.0	124_smiling	1.0	dominance	255.45687958800409	
39.0	228.50594216280842	fix	3.0		444	28.0	female	white	5.676880222841227	smiling	124	sub-04	2.0	5.0	124_smiling	1.0	dominance	255.76513069860448	3.7499081606747495
39.0	228.89770532994044	pulse	3.0	t		28.0	female	white	5.676880222841227	smiling	124	sub-04	2.0	5.0	124_smiling	1.0	dominance	256.1568938657365	
39.0	229.59768187582267	pulse	3.0	t		28.0	female	white	5.676880222841227	smiling	124	sub-04	2.0	5.0	124_smiling	1.0	dominance	256.85687041161873	
39.0	230.2976572142852	pulse	3.0	t		28.0	female	white	5.676880222841227	smiling	124	sub-04	2.0	5.0	124_smiling	1.0	dominance	257.55684575008127	
39.0	230.99764794734256	pulse	3.0	t		28.0	female	white	5.676880222841227	smiling	124	sub-04	2.0	5.0	124_smiling	1.0	dominance	258.2568364831386	
39.0	231.6976323414492	pulse	3.0	t		28.0	female	white	5.676880222841227	smiling	124	sub-04	2.0	5.0	124_smiling	1.0	dominance	258.95682087724526	
40.0	232.25585032348317	fix	0.0		720													259.51503885927923	5.999873220980589
40.0	232.39763182829483	pulse	0.0	t														259.6568203640909	
40.0	233.09760535562964	pulse	0.0	t														260.3567938914257	
40.0	233.79759276828372	pulse	0.0	t														261.0567813040798	
40.0	234.49758833101805	pulse	0.0	t														261.7567768668141	
40.0	235.19755974536747	pulse	0.0	t														262.4567482811635	
40.0	235.89754987471497	pulse	0.0	t														263.156738410511	
40.0	236.59754211704785	pulse	0.0	t														263.8567306528439	
40.0	237.29751956849213	pulse	0.0	t														264.5567081042882	
40.0	237.99750124590537	pulse	0.0	t														265.2566897817014	
