trial_nr	onset	event_type	phase	response	nr_frames	face_age	face_sex	face_eth	attractiveness	expression	face_id	sub_id	ses	run	trial_type	catch	rating_type	onset_abs	duration
-1.0	0.06261759060362238	fix	0.0		713													98.05450589534121	5.957862228864542
-1.0	0.7040648428501299	pulse	0.0	t														98.69595314758772	
-1.0	1.404042596284853	pulse	0.0	t														99.39593090102244	
-1.0	2.104023971956849	pulse	0.0	t														100.09591227669443	
-1.0	2.804010177274904	pulse	0.0	t														100.79589848201249	
-1.0	3.5039987974178075	pulse	0.0	t														101.4958871021554	
-1.0	4.203973230469273	pulse	0.0	t														102.19586153520686	
-1.0	4.903961850612177	pulse	0.0	t														102.89585015534976	
-1.0	5.603934472546825	pulse	0.0	t														103.59582277728441	
0.0	6.020479819468164	face	0.0		144	31.0	female	white	2.1822522881018704	smiling	102	sub-01	2.0	6.0	102_smiling	0.0		104.01236812420575	1.2333000590715528
0.0	6.303933355689878	pulse	0.0	t		31.0	female	white	2.1822522881018704	smiling	102	sub-01	2.0	6.0	102_smiling	0.0		104.29582166042746	
0.0	7.003896016476574	pulse	0.0	t		31.0	female	white	2.1822522881018704	smiling	102	sub-01	2.0	6.0	102_smiling	0.0		104.99578432121416	
0.0	7.253779878539717	fix	1.0		444	31.0	female	white	2.1822522881018704	smiling	102	sub-01	2.0	6.0	102_smiling	0.0		105.2456681832773	3.7582269276408624
0.0	7.7038798069697805	pulse	1.0	t		31.0	female	white	2.1822522881018704	smiling	102	sub-01	2.0	6.0	102_smiling	0.0		105.69576811170737	
0.0	8.403865408583442	pulse	1.0	t		31.0	female	white	2.1822522881018704	smiling	102	sub-01	2.0	6.0	102_smiling	0.0		106.39575371332103	
0.0	9.103856745403391	pulse	1.0	t		31.0	female	white	2.1822522881018704	smiling	102	sub-01	2.0	6.0	102_smiling	0.0		107.09574505014098	
0.0	9.803833593277886	pulse	1.0	t		31.0	female	white	2.1822522881018704	smiling	102	sub-01	2.0	6.0	102_smiling	0.0		107.79572189801547	
0.0	10.503809837447989	pulse	1.0	t		31.0	female	white	2.1822522881018704	smiling	102	sub-01	2.0	6.0	102_smiling	0.0		108.49569814218557	
1.0	11.01200680618058	face	0.0		146	22.0	male	black	2.767608436132113	neutral	044	sub-01	2.0	6.0	044_neutral	0.0		109.00389511091817	1.2416490107825666
1.0	11.203787892736727	pulse	0.0	t		22.0	male	black	2.767608436132113	neutral	044	sub-01	2.0	6.0	044_neutral	0.0		109.19567619747431	
1.0	11.903763835054633	pulse	0.0	t		22.0	male	black	2.767608436132113	neutral	044	sub-01	2.0	6.0	044_neutral	0.0		109.89565213979222	
1.0	12.253655816963146	fix	1.0		444	22.0	male	black	2.767608436132113	neutral	044	sub-01	2.0	6.0	044_neutral	0.0		110.24554412170073	3.7582860908260045
1.0	12.603752153343521	pulse	1.0	t		22.0	male	black	2.767608436132113	neutral	044	sub-01	2.0	6.0	044_neutral	0.0		110.5956404580811	
1.0	13.303729604926048	pulse	1.0	t		22.0	male	black	2.767608436132113	neutral	044	sub-01	2.0	6.0	044_neutral	0.0		111.29561790966363	
1.0	14.003721847304405	pulse	1.0	t		22.0	male	black	2.767608436132113	neutral	044	sub-01	2.0	6.0	044_neutral	0.0		111.99561015204199	
1.0	14.70369718591428	pulse	1.0	t		22.0	male	black	2.767608436132113	neutral	044	sub-01	2.0	6.0	044_neutral	0.0		112.69558549065187	
1.0	15.403678561586275	pulse	1.0	t		22.0	male	black	2.767608436132113	neutral	044	sub-01	2.0	6.0	044_neutral	0.0		113.39556686632386	
2.0	16.01194190778915	face	0.0		146	40.0	female	west_asian	1.5777954635893354	smiling	038	sub-01	2.0	6.0	038_smiling	0.0		114.00383021252674	1.2415738493891695
2.0	16.10367020025842	pulse	0.0	t		40.0	female	west_asian	1.5777954635893354	smiling	038	sub-01	2.0	6.0	038_smiling	0.0		114.095558504996	
2.0	16.803640709220417	pulse	0.0	t		40.0	female	west_asian	1.5777954635893354	smiling	038	sub-01	2.0	6.0	038_smiling	0.0		114.795529013958	
2.0	17.25351575717832	fix	1.0		444	40.0	female	west_asian	1.5777954635893354	smiling	038	sub-01	2.0	6.0	038_smiling	0.0		115.2454040619159	3.7583026927404717
2.0	17.503625707127867	pulse	1.0	t		40.0	female	west_asian	1.5777954635893354	smiling	038	sub-01	2.0	6.0	038_smiling	0.0		115.49551401186545	
2.0	18.203597423504107	pulse	1.0	t		40.0	female	west_asian	1.5777954635893354	smiling	038	sub-01	2.0	6.0	038_smiling	0.0		116.19548572824169	
2.0	18.903584232528374	pulse	1.0	t		40.0	female	west_asian	1.5777954635893354	smiling	038	sub-01	2.0	6.0	038_smiling	0.0		116.89547253726596	
2.0	19.60356953228802	pulse	1.0	t		40.0	female	west_asian	1.5777954635893354	smiling	038	sub-01	2.0	6.0	038_smiling	0.0		117.5954578370256	
2.0	20.303557246870696	pulse	1.0	t		40.0	female	west_asian	1.5777954635893354	smiling	038	sub-01	2.0	6.0	038_smiling	0.0		118.29544555160828	
3.0	21.011818449918792	face	0.0		147	26.0	female	white	4.854755272582572	smiling	027	sub-01	2.0	6.0	027_smiling	0.0		119.00370675465638	1.2415660012102308
3.0	21.006046718994185	pulse	0.0	t		26.0	female	white	4.854755272582572	smiling	027	sub-01	2.0	6.0	027_smiling	0.0		118.99793502373177	
3.0	21.703517885242036	pulse	0.0	t		26.0	female	white	4.854755272582572	smiling	027	sub-01	2.0	6.0	027_smiling	0.0		119.69540618997962	
3.0	22.253384451129023	fix	1.0		443	26.0	female	white	4.854755272582572	smiling	027	sub-01	2.0	6.0	027_smiling	0.0		120.24527275586661	3.7665616922604386
3.0	22.40349714794138	pulse	1.0	t		26.0	female	white	4.854755272582572	smiling	027	sub-01	2.0	6.0	027_smiling	0.0		120.39538545267897	
3.0	23.103453469815577	pulse	1.0	t		26.0	female	white	4.854755272582572	smiling	027	sub-01	2.0	6.0	027_smiling	0.0		121.09534177455316	
3.0	23.803465030783627	pulse	1.0	t		26.0	female	white	4.854755272582572	smiling	027	sub-01	2.0	6.0	027_smiling	0.0		121.79535333552121	
3.0	24.503431615657973	pulse	1.0	t		26.0	female	white	4.854755272582572	smiling	027	sub-01	2.0	6.0	027_smiling	0.0		122.49531992039556	
3.0	25.203415104300802	pulse	1.0	t		26.0	female	white	4.854755272582572	smiling	027	sub-01	2.0	6.0	027_smiling	0.0		123.19530340903839	
3.0	25.903411572620826	pulse	1.0	t		26.0	female	white	4.854755272582572	smiling	027	sub-01	2.0	6.0	027_smiling	0.0		123.89529987735841	
4.0	26.01994614338946	face	0.0		146	20.0	male	black	2.609629924393156	neutral	043	sub-01	2.0	6.0	043_neutral	0.0		124.01183444812705	1.2333063979858707
4.0	26.603382383436838	pulse	0.0	t		20.0	male	black	2.609629924393156	neutral	043	sub-01	2.0	6.0	043_neutral	0.0		124.59527068817442	
4.0	27.253252541375332	fix	1.0		443	20.0	male	black	2.609629924393156	neutral	043	sub-01	2.0	6.0	043_neutral	0.0		125.24514084611292	3.766569842291574
4.0	27.303366173931863	pulse	1.0	t		20.0	male	black	2.609629924393156	neutral	043	sub-01	2.0	6.0	043_neutral	0.0		125.29525447866945	
4.0	28.00334905886666	pulse	1.0	t		20.0	male	black	2.609629924393156	neutral	043	sub-01	2.0	6.0	043_neutral	0.0		125.99523736360425	
4.0	28.70332228450752	pulse	1.0	t		20.0	male	black	2.609629924393156	neutral	043	sub-01	2.0	6.0	043_neutral	0.0		126.69521058924511	
4.0	29.403306980560956	pulse	1.0	t		20.0	male	black	2.609629924393156	neutral	043	sub-01	2.0	6.0	043_neutral	0.0		127.39519528529854	
4.0	30.1033112970581	pulse	1.0	t		20.0	male	black	2.609629924393156	neutral	043	sub-01	2.0	6.0	043_neutral	0.0		128.09519960179568	
4.0	30.803281806021914	pulse	1.0	t		20.0	male	black	2.609629924393156	neutral	043	sub-01	2.0	6.0	043_neutral	0.0		128.7951701107595	
5.0	31.019822383666906	face	0.0		145	19.0	male	white	2.243931555909272	smiling	130	sub-01	2.0	6.0	130_smiling	0.0		129.0117106884045	1.2332973423945077
5.0	31.503266200223152	pulse	0.0	t		19.0	male	white	2.243931555909272	smiling	130	sub-01	2.0	6.0	130_smiling	0.0		129.49515450496074	
5.0	32.203232181391286	pulse	0.0	t		19.0	male	white	2.243931555909272	smiling	130	sub-01	2.0	6.0	130_smiling	0.0		130.19512048612887	
5.0	32.25311972606141	fix	1.0		445	19.0	male	white	2.243931555909272	smiling	130	sub-01	2.0	6.0	130_smiling	0.0		130.245008030799	3.7665644089374837
5.0	32.90321838670934	pulse	1.0	t		19.0	male	white	2.243931555909272	smiling	130	sub-01	2.0	6.0	130_smiling	0.0		130.89510669144693	
5.0	33.603192819762626	pulse	1.0	t		19.0	male	white	2.243931555909272	smiling	130	sub-01	2.0	6.0	130_smiling	0.0		131.5950811245002	
5.0	34.30317993063909	pulse	1.0	t		19.0	male	white	2.243931555909272	smiling	130	sub-01	2.0	6.0	130_smiling	0.0		132.29506823537668	
5.0	35.003170663752826	pulse	1.0	t		19.0	male	white	2.243931555909272	smiling	130	sub-01	2.0	6.0	130_smiling	0.0		132.9950589684904	
5.0	35.70313905974581	pulse	1.0	t		19.0	male	white	2.243931555909272	smiling	130	sub-01	2.0	6.0	130_smiling	0.0		133.6950273644834	
6.0	36.0196841349989	face	0.0		145	32.0	male	white	2.389176283326701	neutral	092	sub-01	2.0	6.0	092_neutral	1.0	trustworthiness	134.01157243973648	1.2333045868672343
6.0	36.40314247068454	pulse	0.0	t		32.0	male	white	2.389176283326701	neutral	092	sub-01	2.0	6.0	092_neutral	1.0	trustworthiness	134.39503077542213	
6.0	37.10311116852972	pulse	0.0	t		32.0	male	white	2.389176283326701	neutral	092	sub-01	2.0	6.0	092_neutral	1.0	trustworthiness	135.0949994732673	
6.0	37.25298872186613	fix	1.0		177	32.0	male	white	2.389176283326701	neutral	092	sub-01	2.0	6.0	092_neutral	1.0	trustworthiness	135.24487702660372	1.5083331044279475
6.0	37.80310099608505	pulse	1.0	t		32.0	male	white	2.389176283326701	neutral	092	sub-01	2.0	6.0	092_neutral	1.0	trustworthiness	135.79498930082264	
6.0	38.503076334694924	pulse	1.0	t		32.0	male	white	2.389176283326701	neutral	092	sub-01	2.0	6.0	092_neutral	1.0	trustworthiness	136.4949646394325	
6.0	38.76132182629408	rating	2.0		294	32.0	male	white	2.389176283326701	neutral	092	sub-01	2.0	6.0	092_neutral	1.0	trustworthiness	136.75321013103166	2.4915609451745695
6.0	39.20305378627745	pulse	2.0	t		32.0	male	white	2.389176283326701	neutral	092	sub-01	2.0	6.0	092_neutral	1.0	trustworthiness	137.19494209101504	
6.0	39.90303395453702	pulse	2.0	t		32.0	male	white	2.389176283326701	neutral	092	sub-01	2.0	6.0	092_neutral	1.0	trustworthiness	137.8949222592746	
6.0	39.92801470386257	response	2.0	g		32.0	male	white	2.389176283326701	neutral	092	sub-01	2.0	6.0	092_neutral	1.0	trustworthiness	137.91990300860016	
6.0	40.603012613530154	pulse	2.0	t		32.0	male	white	2.389176283326701	neutral	092	sub-01	2.0	6.0	092_neutral	1.0	trustworthiness	138.59490091826774	
6.0	41.25288277146865	fix	3.0		443	32.0	male	white	2.389176283326701	neutral	092	sub-01	2.0	6.0	092_neutral	1.0	trustworthiness	139.24477107620623	3.7665647107896802
6.0	41.30299580031897	pulse	3.0	t		32.0	male	white	2.389176283326701	neutral	092	sub-01	2.0	6.0	092_neutral	1.0	trustworthiness	139.29488410505655	
6.0	42.002988948255734	pulse	3.0	t		32.0	male	white	2.389176283326701	neutral	092	sub-01	2.0	6.0	092_neutral	1.0	trustworthiness	139.99487725299332	
6.0	42.70296639983826	pulse	3.0	t		32.0	male	white	2.389176283326701	neutral	092	sub-01	2.0	6.0	092_neutral	1.0	trustworthiness	140.69485470457585	
6.0	43.40295441627495	pulse	3.0	t		32.0	male	white	2.389176283326701	neutral	092	sub-01	2.0	6.0	092_neutral	1.0	trustworthiness	141.39484272101254	
6.0	44.10292371782634	pulse	3.0	t		32.0	male	white	2.389176283326701	neutral	092	sub-01	2.0	6.0	092_neutral	1.0	trustworthiness	142.09481202256393	
6.0	44.802912337969246	pulse	3.0	t		32.0	male	white	2.389176283326701	neutral	092	sub-01	2.0	6.0	092_neutral	1.0	trustworthiness	142.79480064270683	
7.0	45.01944748225833	face	0.0		145	31.0	male	west_asian	1.9538400318344609	smiling	070	sub-01	2.0	6.0	070_smiling	1.0	attractiveness	143.01133578699591	1.2333042850150377
7.0	45.5028861673145	pulse	0.0	t		31.0	male	west_asian	1.9538400318344609	smiling	070	sub-01	2.0	6.0	070_smiling	1.0	attractiveness	143.4947744720521	
7.0	46.202863015190815	pulse	0.0	t		31.0	male	west_asian	1.9538400318344609	smiling	070	sub-01	2.0	6.0	070_smiling	1.0	attractiveness	144.1947513199284	
7.0	46.25275176727337	fix	1.0		177	31.0	male	west_asian	1.9538400318344609	smiling	070	sub-01	2.0	6.0	070_smiling	1.0	attractiveness	144.24464007201095	1.499960910037771
7.0	46.902855861275384	pulse	1.0	t		31.0	male	west_asian	1.9538400318344609	smiling	070	sub-01	2.0	6.0	070_smiling	1.0	attractiveness	144.89474416601297	
7.0	47.60282425726837	pulse	1.0	t		31.0	male	west_asian	1.9538400318344609	smiling	070	sub-01	2.0	6.0	070_smiling	1.0	attractiveness	145.59471256200595	
7.0	47.75271267731114	rating	2.0		295	31.0	male	west_asian	1.9538400318344609	smiling	070	sub-01	2.0	6.0	070_smiling	1.0	attractiveness	145.74460098204872	2.4999349506815634
7.0	48.302820423734374	pulse	2.0	t		31.0	male	west_asian	1.9538400318344609	smiling	070	sub-01	2.0	6.0	070_smiling	1.0	attractiveness	146.29470872847196	
7.0	48.79447464148143	response	2.0	w		31.0	male	west_asian	1.9538400318344609	smiling	070	sub-01	2.0	6.0	070_smiling	1.0	attractiveness	146.78636294621901	
7.0	49.00279938458152	pulse	2.0	t		31.0	male	west_asian	1.9538400318344609	smiling	070	sub-01	2.0	6.0	070_smiling	1.0	attractiveness	146.9946876893191	
7.0	49.702773213928594	pulse	2.0	t		31.0	male	west_asian	1.9538400318344609	smiling	070	sub-01	2.0	6.0	070_smiling	1.0	attractiveness	147.69466151866618	
7.0	50.2526476279927	fix	3.0		443	31.0	male	west_asian	1.9538400318344609	smiling	070	sub-01	2.0	6.0	070_smiling	1.0	attractiveness	148.2445359327303	3.7665610885560454
7.0	50.40275941924665	pulse	3.0	t		31.0	male	west_asian	1.9538400318344609	smiling	070	sub-01	2.0	6.0	070_smiling	1.0	attractiveness	148.39464772398424	
7.0	51.102740191210614	pulse	3.0	t		31.0	male	west_asian	1.9538400318344609	smiling	070	sub-01	2.0	6.0	070_smiling	1.0	attractiveness	149.0946284959482	
7.0	51.80271371870549	pulse	3.0	t		31.0	male	west_asian	1.9538400318344609	smiling	070	sub-01	2.0	6.0	070_smiling	1.0	attractiveness	149.79460202344308	
7.0	52.502695999934076	pulse	3.0	t		31.0	male	west_asian	1.9538400318344609	smiling	070	sub-01	2.0	6.0	070_smiling	1.0	attractiveness	150.49458430467166	
7.0	53.20267586633963	pulse	3.0	t		31.0	male	west_asian	1.9538400318344609	smiling	070	sub-01	2.0	6.0	070_smiling	1.0	attractiveness	151.19456417107722	
7.0	53.90265392162837	pulse	3.0	t		31.0	male	west_asian	1.9538400318344609	smiling	070	sub-01	2.0	6.0	070_smiling	1.0	attractiveness	151.89454222636596	
8.0	54.01920871654875	face	0.0		146	19.0	male	white	2.243931555909272	neutral	130	sub-01	2.0	6.0	130_neutral	0.0		152.01109702128633	1.2333073035442794
8.0	54.6026564270087	pulse	0.0	t		19.0	male	white	2.243931555909272	neutral	130	sub-01	2.0	6.0	130_neutral	0.0		152.59454473174628	
8.0	55.252516020093026	fix	1.0		443	19.0	male	white	2.243931555909272	neutral	130	sub-01	2.0	6.0	130_neutral	0.0		153.2444043248306	3.766560786700211
8.0	55.302635387855844	pulse	1.0	t		19.0	male	white	2.243931555909272	neutral	130	sub-01	2.0	6.0	130_neutral	0.0		153.29452369259343	
8.0	56.00261857464284	pulse	1.0	t		19.0	male	white	2.243931555909272	neutral	130	sub-01	2.0	6.0	130_neutral	0.0		153.99450687938042	
8.0	56.70258636692961	pulse	1.0	t		19.0	male	white	2.243931555909272	neutral	130	sub-01	2.0	6.0	130_neutral	0.0		154.6944746716672	
8.0	57.40255264995176	pulse	1.0	t		19.0	male	white	2.243931555909272	neutral	130	sub-01	2.0	6.0	130_neutral	0.0		155.39444095468934	
8.0	58.10254851456557	pulse	1.0	t		19.0	male	white	2.243931555909272	neutral	130	sub-01	2.0	6.0	130_neutral	0.0		156.09443681930316	
8.0	58.802537738414685	pulse	1.0	t		19.0	male	white	2.243931555909272	neutral	130	sub-01	2.0	6.0	130_neutral	0.0		156.79442604315227	
9.0	59.01907680679324	face	0.0		145	25.0	female	west_asian	2.6756864305610826	smiling	064	sub-01	2.0	6.0	064_smiling	0.0		157.01096511153082	1.2333112276337488
9.0	59.502527565968194	pulse	0.0	t		25.0	female	west_asian	2.6756864305610826	smiling	064	sub-01	2.0	6.0	064_smiling	0.0		157.49441587070578	
9.0	60.20250562125693	pulse	0.0	t		25.0	female	west_asian	2.6756864305610826	smiling	064	sub-01	2.0	6.0	064_smiling	0.0		158.19439392599452	
9.0	60.252388034426986	fix	1.0		444	25.0	female	west_asian	2.6756864305610826	smiling	064	sub-01	2.0	6.0	064_smiling	0.0		158.24427633916457	3.7665595792896056
9.0	60.90247854504378	pulse	1.0	t		25.0	female	west_asian	2.6756864305610826	smiling	064	sub-01	2.0	6.0	064_smiling	0.0		158.89436684978136	
9.0	61.60247954115948	pulse	1.0	t		25.0	female	west_asian	2.6756864305610826	smiling	064	sub-01	2.0	6.0	064_smiling	0.0		159.59436784589707	
9.0	62.30243827785671	pulse	1.0	t		25.0	female	west_asian	2.6756864305610826	smiling	064	sub-01	2.0	6.0	064_smiling	0.0		160.2943265825943	
9.0	63.00243021838105	pulse	1.0	t		25.0	female	west_asian	2.6756864305610826	smiling	064	sub-01	2.0	6.0	064_smiling	0.0		160.99431852311864	
9.0	63.70239951993244	pulse	1.0	t		25.0	female	west_asian	2.6756864305610826	smiling	064	sub-01	2.0	6.0	064_smiling	0.0		161.69428782467003	
10.0	64.01894761371659	face	0.0		145	34.0	male	white	2.651014723438122	smiling	121	sub-01	2.0	6.0	121_smiling	1.0	dominance	162.01083591845418	1.2333057942778396
10.0	64.40238663081072	pulse	0.0	t		34.0	male	white	2.651014723438122	smiling	121	sub-01	2.0	6.0	121_smiling	1.0	dominance	162.3942749355483	
10.0	65.10237706207045	pulse	0.0	t		34.0	male	white	2.651014723438122	smiling	121	sub-01	2.0	6.0	121_smiling	1.0	dominance	163.09426536680803	
10.0	65.25225340799443	fix	1.0		177	34.0	male	white	2.651014723438122	smiling	121	sub-01	2.0	6.0	121_smiling	1.0	dominance	163.24414171273202	1.499969965629134
10.0	65.80235904144683	pulse	1.0	t		34.0	male	white	2.651014723438122	smiling	121	sub-01	2.0	6.0	121_smiling	1.0	dominance	163.79424734618442	
10.0	66.50234222823565	pulse	1.0	t		34.0	male	white	2.651014723438122	smiling	121	sub-01	2.0	6.0	121_smiling	1.0	dominance	164.49423053297323	
10.0	66.75222337362356	rating	2.0		295	34.0	male	white	2.651014723438122	smiling	121	sub-01	2.0	6.0	121_smiling	1.0	dominance	164.74411167836115	2.4999216691503534
10.0	67.20231424646408	pulse	2.0	t		34.0	male	white	2.651014723438122	smiling	121	sub-01	2.0	6.0	121_smiling	1.0	dominance	165.19420255120167	
10.0	67.80229172823238	response	2.0	w		34.0	male	white	2.651014723438122	smiling	121	sub-01	2.0	6.0	121_smiling	1.0	dominance	165.79418003296996	
10.0	67.90228113319245	pulse	2.0	t		34.0	male	white	2.651014723438122	smiling	121	sub-01	2.0	6.0	121_smiling	1.0	dominance	165.89416943793003	
10.0	68.60226794221671	pulse	2.0	t		34.0	male	white	2.651014723438122	smiling	121	sub-01	2.0	6.0	121_smiling	1.0	dominance	166.5941562469543	
10.0	69.25214504277392	fix	3.0		443	34.0	male	white	2.651014723438122	smiling	121	sub-01	2.0	6.0	121_smiling	1.0	dominance	167.2440333475115	3.766561390406423
10.0	69.30234319416559	pulse	3.0	t		34.0	male	white	2.651014723438122	smiling	121	sub-01	2.0	6.0	121_smiling	1.0	dominance	167.29423149890317	
10.0	70.00223129726328	pulse	3.0	t		34.0	male	white	2.651014723438122	smiling	121	sub-01	2.0	6.0	121_smiling	1.0	dominance	167.99411960200086	
10.0	70.70221478590611	pulse	3.0	t		34.0	male	white	2.651014723438122	smiling	121	sub-01	2.0	6.0	121_smiling	1.0	dominance	168.6941030906437	
10.0	71.40220974496151	pulse	3.0	t		34.0	male	white	2.651014723438122	smiling	121	sub-01	2.0	6.0	121_smiling	1.0	dominance	169.3940980496991	
10.0	72.1021853854254	pulse	3.0	t		34.0	male	white	2.651014723438122	smiling	121	sub-01	2.0	6.0	121_smiling	1.0	dominance	170.094073690163	
10.0	72.80217159074346	pulse	3.0	t		34.0	male	white	2.651014723438122	smiling	121	sub-01	2.0	6.0	121_smiling	1.0	dominance	170.79405989548104	
11.0	73.01870643318034	face	0.0		145	20.0	female	white	3.9502586549940313	neutral	091	sub-01	2.0	6.0	091_neutral	0.0		171.01059473791793	1.2333085109567037
11.0	73.50214511823651	pulse	0.0	t		20.0	female	white	3.9502586549940313	neutral	091	sub-01	2.0	6.0	091_neutral	0.0		171.4940334229741	
11.0	74.20212317352525	pulse	0.0	t		20.0	female	white	3.9502586549940313	neutral	091	sub-01	2.0	6.0	091_neutral	0.0		172.19401147826284	
11.0	74.25201494413704	fix	1.0		445	20.0	female	white	3.9502586549940313	neutral	091	sub-01	2.0	6.0	091_neutral	0.0		172.24390324887463	3.7665610885542264
11.0	74.90211088810793	pulse	1.0	t		20.0	female	white	3.9502586549940313	neutral	091	sub-01	2.0	6.0	091_neutral	0.0		172.8939991928455	
11.0	75.60209799898621	pulse	1.0	t		20.0	female	white	3.9502586549940313	neutral	091	sub-01	2.0	6.0	091_neutral	0.0		173.5939863037238	
11.0	76.30207213018548	pulse	1.0	t		20.0	female	white	3.9502586549940313	neutral	091	sub-01	2.0	6.0	091_neutral	0.0		174.29396043492306	
11.0	77.00205954291596	pulse	1.0	t		20.0	female	white	3.9502586549940313	neutral	091	sub-01	2.0	6.0	091_neutral	0.0		174.99394784765354	
11.0	77.70204574823401	pulse	1.0	t		20.0	female	white	3.9502586549940313	neutral	091	sub-01	2.0	6.0	091_neutral	0.0		175.6939340529716	
12.0	78.01857603269127	face	0.0		145	31.0	female	east_asian	3.395941106247513	neutral	087	sub-01	2.0	6.0	087_neutral	0.0		176.01046433742886	1.23330337945481
12.0	78.40203044428745	pulse	0.0	t		31.0	female	east_asian	3.395941106247513	neutral	087	sub-01	2.0	6.0	087_neutral	0.0		176.39391874902503	
12.0	79.1019964254574	pulse	0.0	t		31.0	female	east_asian	3.395941106247513	neutral	087	sub-01	2.0	6.0	087_neutral	0.0		177.093884730195	
12.0	79.25187941214608	fix	1.0		444	31.0	female	east_asian	3.395941106247513	neutral	087	sub-01	2.0	6.0	087_neutral	0.0		177.24376771688367	3.76656622005612
12.0	79.80199108265879	pulse	1.0	t		31.0	female	east_asian	3.395941106247513	neutral	087	sub-01	2.0	6.0	087_neutral	0.0		177.79387938739637	
12.0	80.50195947865177	pulse	1.0	t		31.0	female	east_asian	3.395941106247513	neutral	087	sub-01	2.0	6.0	087_neutral	0.0		178.49384778338936	
12.0	81.20194236358657	pulse	1.0	t		31.0	female	east_asian	3.395941106247513	neutral	087	sub-01	2.0	6.0	087_neutral	0.0		179.19383066832415	
12.0	81.90192132443372	pulse	1.0	t		31.0	female	east_asian	3.395941106247513	neutral	087	sub-01	2.0	6.0	087_neutral	0.0		179.8938096291713	
12.0	82.60189394636836	pulse	1.0	t		31.0	female	east_asian	3.395941106247513	neutral	087	sub-01	2.0	6.0	087_neutral	0.0		180.59378225110595	
13.0	83.0184456322022	face	0.0		145	19.0	male	white	3.2522881018702745	smiling	018	sub-01	2.0	6.0	018_smiling	0.0		181.0103339369398	1.2333148498692026
13.0	83.30189373507164	pulse	0.0	t		19.0	male	white	3.2522881018702745	smiling	018	sub-01	2.0	6.0	018_smiling	0.0		181.29378203980923	
13.0	84.00186997924175	pulse	0.0	t		19.0	male	white	3.2522881018702745	smiling	018	sub-01	2.0	6.0	018_smiling	0.0		181.99375828397933	
13.0	84.2517604820714	fix	1.0		444	19.0	male	white	3.2522881018702745	smiling	018	sub-01	2.0	6.0	018_smiling	0.0		182.243648786809	3.766550825552258
13.0	84.70185859938283	pulse	1.0	t		19.0	male	white	3.2522881018702745	smiling	018	sub-01	2.0	6.0	018_smiling	0.0		182.69374690412042	
13.0	85.40183001390506	pulse	1.0	t		19.0	male	white	3.2522881018702745	smiling	018	sub-01	2.0	6.0	018_smiling	0.0		183.39371831864264	
13.0	86.1018204451666	pulse	1.0	t		19.0	male	white	3.2522881018702745	smiling	018	sub-01	2.0	6.0	018_smiling	0.0		184.09370874990418	
13.0	86.80180423566162	pulse	1.0	t		19.0	male	white	3.2522881018702745	smiling	018	sub-01	2.0	6.0	018_smiling	0.0		184.7936925403992	
13.0	87.50177383906521	pulse	1.0	t		19.0	male	white	3.2522881018702745	smiling	018	sub-01	2.0	6.0	018_smiling	0.0		185.4936621438028	
14.0	88.01831130762366	face	0.0		145	31.0	female	west_asian	2.364902506963788	neutral	006	sub-01	2.0	6.0	006_neutral	0.0		186.01019961236125	1.2333175665462477
14.0	88.20177091109144	pulse	0.0	t		31.0	female	west_asian	2.364902506963788	neutral	006	sub-01	2.0	6.0	006_neutral	0.0		186.19365921582903	
14.0	88.9017441367323	pulse	0.0	t		31.0	female	west_asian	2.364902506963788	neutral	006	sub-01	2.0	6.0	006_neutral	0.0		186.8936324414699	
14.0	89.25162887416991	fix	1.0		444	31.0	female	west_asian	2.364902506963788	neutral	006	sub-01	2.0	6.0	006_neutral	0.0		187.2435171789075	3.7665520329646824
14.0	89.60173396428581	pulse	1.0	t		31.0	female	west_asian	2.364902506963788	neutral	006	sub-01	2.0	6.0	006_neutral	0.0		187.5936222690234	
14.0	90.30171533995781	pulse	1.0	t		31.0	female	west_asian	2.364902506963788	neutral	006	sub-01	2.0	6.0	006_neutral	0.0		188.2936036446954	
14.0	91.00169007486147	pulse	1.0	t		31.0	female	west_asian	2.364902506963788	neutral	006	sub-01	2.0	6.0	006_neutral	0.0		188.99357837959906	
14.0	91.70164428376484	pulse	1.0	t		31.0	female	west_asian	2.364902506963788	neutral	006	sub-01	2.0	6.0	006_neutral	0.0		189.69353258850242	
14.0	92.4016621836472	pulse	1.0	t		31.0	female	west_asian	2.364902506963788	neutral	006	sub-01	2.0	6.0	006_neutral	0.0		190.3935504883848	
15.0	93.01818090713459	face	0.0		145	34.0	male	white	2.651014723438122	neutral	121	sub-01	2.0	6.0	121_neutral	0.0		191.01006921187218	1.23331666098602
15.0	93.10164084264034	pulse	0.0	t		34.0	male	white	2.651014723438122	neutral	121	sub-01	2.0	6.0	121_neutral	0.0		191.09352914737792	
15.0	93.8016143701334	pulse	0.0	t		34.0	male	white	2.651014723438122	neutral	121	sub-01	2.0	6.0	121_neutral	0.0		191.79350267487098	
15.0	94.25149756812061	fix	1.0		444	34.0	male	white	2.651014723438122	neutral	121	sub-01	2.0	6.0	121_neutral	0.0		192.2433858728582	3.758220286876167
15.0	94.50160359398251	pulse	1.0	t		34.0	male	white	2.651014723438122	neutral	121	sub-01	2.0	6.0	121_neutral	0.0		192.4934918987201	
15.0	95.2015728955339	pulse	1.0	t		34.0	male	white	2.651014723438122	neutral	121	sub-01	2.0	6.0	121_neutral	0.0		193.19346120027149	
15.0	95.90155004526241	pulse	1.0	t		34.0	male	white	2.651014723438122	neutral	121	sub-01	2.0	6.0	121_neutral	0.0		193.89343835	
15.0	96.60154108022834	pulse	1.0	t		34.0	male	white	2.651014723438122	neutral	121	sub-01	2.0	6.0	121_neutral	0.0		194.59342938496593	
15.0	97.3015146077214	pulse	1.0	t		34.0	male	white	2.651014723438122	neutral	121	sub-01	2.0	6.0	121_neutral	0.0		195.293402912459	
16.0	98.00971785499678	face	0.0		147	25.0	female	west_asian	2.6756864305610826	neutral	064	sub-01	2.0	6.0	064_neutral	0.0		196.00160615973437	1.241645992251506
16.0	98.00316734336957	pulse	0.0	t		25.0	female	west_asian	2.6756864305610826	neutral	064	sub-01	2.0	6.0	064_neutral	0.0		195.99505564810715	
16.0	98.70149305541963	pulse	0.0	t		25.0	female	west_asian	2.6756864305610826	neutral	064	sub-01	2.0	6.0	064_neutral	0.0		196.69338136015722	
16.0	99.25136384724829	fix	1.0		443	25.0	female	west_asian	2.6756864305610826	neutral	064	sub-01	2.0	6.0	064_neutral	0.0		197.24325215198587	3.766538449581276
16.0	99.40147503479602	pulse	1.0	t		25.0	female	west_asian	2.6756864305610826	neutral	064	sub-01	2.0	6.0	064_neutral	0.0		197.3933633395336	
16.0	100.10145248637855	pulse	1.0	t		25.0	female	west_asian	2.6756864305610826	neutral	064	sub-01	2.0	6.0	064_neutral	0.0		198.09334079111613	
16.0	100.80143295649032	pulse	1.0	t		25.0	female	west_asian	2.6756864305610826	neutral	064	sub-01	2.0	6.0	064_neutral	0.0		198.7933212612279	
16.0	101.50141553957292	pulse	1.0	t		25.0	female	west_asian	2.6756864305610826	neutral	064	sub-01	2.0	6.0	064_neutral	0.0		199.4933038443105	
16.0	102.20141230974514	pulse	1.0	t		25.0	female	west_asian	2.6756864305610826	neutral	064	sub-01	2.0	6.0	064_neutral	0.0		200.19330061448272	
16.0	102.90136893347153	pulse	1.0	t		25.0	female	west_asian	2.6756864305610826	neutral	064	sub-01	2.0	6.0	064_neutral	0.0		200.89325723820912	
17.0	103.01790229682956	face	0.0		146	47.0	male	east_asian	2.171110226820533	neutral	024	sub-01	2.0	6.0	024_neutral	0.0		201.00979060156715	1.233319377663065
17.0	103.60135393137898	pulse	0.0	t		47.0	male	east_asian	2.171110226820533	neutral	024	sub-01	2.0	6.0	024_neutral	0.0		201.59324223611657	
17.0	104.25122167449263	fix	1.0		443	47.0	male	east_asian	2.171110226820533	neutral	024	sub-01	2.0	6.0	024_neutral	0.0		202.2431099792302	3.766561390408242
17.0	104.30133289222431	pulse	1.0	t		47.0	male	east_asian	2.171110226820533	neutral	024	sub-01	2.0	6.0	024_neutral	0.0		202.2932211969619	
17.0	105.00132754942751	pulse	1.0	t		47.0	male	east_asian	2.171110226820533	neutral	024	sub-01	2.0	6.0	024_neutral	0.0		202.9932158541651	
17.0	105.70129141762482	pulse	1.0	t		47.0	male	east_asian	2.171110226820533	neutral	024	sub-01	2.0	6.0	024_neutral	0.0		203.6931797223624	
17.0	106.40128879150325	pulse	1.0	t		47.0	male	east_asian	2.171110226820533	neutral	024	sub-01	2.0	6.0	024_neutral	0.0		204.39317709624083	
17.0	107.10126654493979	pulse	1.0	t		47.0	male	east_asian	2.171110226820533	neutral	024	sub-01	2.0	6.0	024_neutral	0.0		205.09315484967738	
17.0	107.80123705390179	pulse	1.0	t		47.0	male	east_asian	2.171110226820533	neutral	024	sub-01	2.0	6.0	024_neutral	0.0		205.79312535863937	
18.0	108.01778306490087	face	0.0		145	25.0	female	black	3.858336649423	smiling	126	sub-01	2.0	6.0	126_smiling	0.0		206.00967136963845	1.2333066998380673
18.0	108.50122748516333	pulse	0.0	t		25.0	female	black	3.858336649423	smiling	126	sub-01	2.0	6.0	126_smiling	0.0		206.4931157899009	
18.0	109.20119859783154	pulse	0.0	t		25.0	female	black	3.858336649423	smiling	126	sub-01	2.0	6.0	126_smiling	0.0		207.19308690256912	
18.0	109.25108976473894	fix	1.0		445	25.0	female	black	3.858336649423	smiling	126	sub-01	2.0	6.0	126_smiling	0.0		207.24297806947652	3.7665622959648317
18.0	109.90118631241603	pulse	1.0	t		25.0	female	black	3.858336649423	smiling	126	sub-01	2.0	6.0	126_smiling	0.0		207.89307461715362	
18.0	110.60118157332363	pulse	1.0	t		25.0	female	black	3.858336649423	smiling	126	sub-01	2.0	6.0	126_smiling	0.0		208.59306987806121	
18.0	111.3011620434354	pulse	1.0	t		25.0	female	black	3.858336649423	smiling	126	sub-01	2.0	6.0	126_smiling	0.0		209.29305034817298	
18.0	112.0011322505452	pulse	1.0	t		25.0	female	black	3.858336649423	smiling	126	sub-01	2.0	6.0	126_smiling	0.0		209.99302055528278	
18.0	112.70111634289424	pulse	1.0	t		25.0	female	black	3.858336649423	smiling	126	sub-01	2.0	6.0	126_smiling	0.0		210.69300464763182	
19.0	113.01765206070377	face	0.0		145	24.0	female	east_asian	4.409868682849185	neutral	030	sub-01	2.0	6.0	030_neutral	0.0		211.00954036544135	1.233305492427462
19.0	113.40109500188737	pulse	0.0	t		24.0	female	east_asian	4.409868682849185	neutral	030	sub-01	2.0	6.0	030_neutral	0.0		211.39298330662496	
19.0	114.10107547199914	pulse	0.0	t		24.0	female	east_asian	4.409868682849185	neutral	030	sub-01	2.0	6.0	030_neutral	0.0		212.09296377673672	
19.0	114.25095755313123	fix	1.0		444	24.0	female	east_asian	4.409868682849185	neutral	030	sub-01	2.0	6.0	030_neutral	0.0		212.24284585786882	3.7665632015250594
19.0	114.80105654581712	pulse	1.0	t		24.0	female	east_asian	4.409868682849185	neutral	030	sub-01	2.0	6.0	030_neutral	0.0		212.7929448505547	
19.0	115.50103550666427	pulse	1.0	t		24.0	female	east_asian	4.409868682849185	neutral	030	sub-01	2.0	6.0	030_neutral	0.0		213.49292381140185	
19.0	116.20102865460103	pulse	1.0	t		24.0	female	east_asian	4.409868682849185	neutral	030	sub-01	2.0	6.0	030_neutral	0.0		214.19291695933862	
19.0	116.90101093583144	pulse	1.0	t		24.0	female	east_asian	4.409868682849185	neutral	030	sub-01	2.0	6.0	030_neutral	0.0		214.89289924056902	
19.0	117.60098929297237	pulse	1.0	t		24.0	female	east_asian	4.409868682849185	neutral	030	sub-01	2.0	6.0	030_neutral	0.0		215.59287759770996	
20.0	118.01752075465629	face	0.0		145	22.0	female	white	4.614007162753682	neutral	009	sub-01	2.0	6.0	009_neutral	0.0		216.00940905939387	1.233305492425643
20.0	118.3009679519655	pulse	0.0	t		22.0	female	white	4.614007162753682	neutral	009	sub-01	2.0	6.0	009_neutral	0.0		216.2928562567031	
20.0	119.00096442028553	pulse	0.0	t		22.0	female	white	4.614007162753682	neutral	009	sub-01	2.0	6.0	009_neutral	0.0		216.9928527250231	
20.0	119.25082624708193	fix	1.0		1185	22.0	female	white	4.614007162753682	neutral	009	sub-01	2.0	6.0	009_neutral	0.0		217.24271455181952	10.01640027637768
20.0	119.70092738292442	pulse	1.0	t		22.0	female	white	4.614007162753682	neutral	009	sub-01	2.0	6.0	009_neutral	0.0		217.692815687662	
20.0	120.40092143642141	pulse	1.0	t		22.0	female	white	4.614007162753682	neutral	009	sub-01	2.0	6.0	009_neutral	0.0		218.392809741159	
20.0	121.100891039825	pulse	1.0	t		22.0	female	white	4.614007162753682	neutral	009	sub-01	2.0	6.0	009_neutral	0.0		219.0927793445626	
20.0	121.80087181179078	pulse	1.0	t		22.0	female	white	4.614007162753682	neutral	009	sub-01	2.0	6.0	009_neutral	0.0		219.79276011652837	
20.0	122.5008613374921	pulse	1.0	t		22.0	female	white	4.614007162753682	neutral	009	sub-01	2.0	6.0	009_neutral	0.0		220.49274964222968	
20.0	123.20084301501629	pulse	1.0	t		22.0	female	white	4.614007162753682	neutral	009	sub-01	2.0	6.0	009_neutral	0.0		221.19273131975388	
20.0	123.9008198628926	pulse	1.0	t		22.0	female	white	4.614007162753682	neutral	009	sub-01	2.0	6.0	009_neutral	0.0		221.8927081676302	
20.0	124.60080335153361	pulse	1.0	t		22.0	female	white	4.614007162753682	neutral	009	sub-01	2.0	6.0	009_neutral	0.0		222.5926916562712	
20.0	125.30078653832243	pulse	1.0	t		22.0	female	white	4.614007162753682	neutral	009	sub-01	2.0	6.0	009_neutral	0.0		223.29267484306	
20.0	126.00075342505079	pulse	1.0	t		22.0	female	white	4.614007162753682	neutral	009	sub-01	2.0	6.0	009_neutral	0.0		223.99264172978837	
20.0	126.7007495915168	pulse	1.0	t		22.0	female	white	4.614007162753682	neutral	009	sub-01	2.0	6.0	009_neutral	0.0		224.69263789625438	
20.0	127.40072432642228	pulse	1.0	t		22.0	female	white	4.614007162753682	neutral	009	sub-01	2.0	6.0	009_neutral	0.0		225.39261263115986	
20.0	128.10070660765268	pulse	1.0	t		22.0	female	white	4.614007162753682	neutral	009	sub-01	2.0	6.0	009_neutral	0.0		226.09259491239027	
20.0	128.80069552964778	pulse	1.0	t		22.0	female	white	4.614007162753682	neutral	009	sub-01	2.0	6.0	009_neutral	0.0		226.79258383438537	
21.0	129.2672265234596	face	0.0		145	28.0	male	white	3.9076800636689217	smiling	033	sub-01	2.0	6.0	033_smiling	0.0		227.2591148281972	1.2333030776026135
21.0	129.5006850553491	pulse	0.0	t		28.0	male	white	3.9076800636689217	smiling	033	sub-01	2.0	6.0	033_smiling	0.0		227.49257336008668	
21.0	130.2006495272526	pulse	0.0	t		28.0	male	white	3.9076800636689217	smiling	033	sub-01	2.0	6.0	033_smiling	0.0		228.1925378319902	
21.0	130.50052960106223	fix	1.0		444	28.0	male	white	3.9076800636689217	smiling	033	sub-01	2.0	6.0	033_smiling	0.0		228.4924179057998	3.7665622959648317
21.0	130.9006324121874	pulse	1.0	t		28.0	male	white	3.9076800636689217	smiling	033	sub-01	2.0	6.0	033_smiling	0.0		228.892520716925	
21.0	131.60062223974273	pulse	1.0	t		28.0	male	white	3.9076800636689217	smiling	033	sub-01	2.0	6.0	033_smiling	0.0		229.59251054448032	
21.0	132.30059425797117	pulse	1.0	t		28.0	male	white	3.9076800636689217	smiling	033	sub-01	2.0	6.0	033_smiling	0.0		230.29248256270876	
21.0	133.0005849910849	pulse	1.0	t		28.0	male	white	3.9076800636689217	smiling	033	sub-01	2.0	6.0	033_smiling	0.0		230.9924732958225	
21.0	133.7005548963425	pulse	1.0	t		28.0	male	white	3.9076800636689217	smiling	033	sub-01	2.0	6.0	033_smiling	0.0		231.6924432010801	
22.0	134.26709189702706	face	0.0		145	31.0	female	west_asian	2.364902506963788	smiling	006	sub-01	2.0	6.0	006_smiling	1.0	dominance	232.25898020176464	1.2333051905734465
22.0	134.40055468504397	pulse	0.0	t		31.0	female	west_asian	2.364902506963788	smiling	006	sub-01	2.0	6.0	006_smiling	1.0	dominance	232.39244298978156	
22.0	135.10053032550968	pulse	0.0	t		31.0	female	west_asian	2.364902506963788	smiling	006	sub-01	2.0	6.0	006_smiling	1.0	dominance	233.09241863024727	
22.0	135.5003970876005	fix	1.0		177	31.0	female	west_asian	2.364902506963788	smiling	006	sub-01	2.0	6.0	006_smiling	1.0	dominance	233.4922853923381	1.4999738897167845
22.0	135.80050324929653	pulse	1.0	t		31.0	female	west_asian	2.364902506963788	smiling	006	sub-01	2.0	6.0	006_smiling	1.0	dominance	233.7923915540341	
22.0	136.5004840212605	pulse	1.0	t		31.0	female	west_asian	2.364902506963788	smiling	006	sub-01	2.0	6.0	006_smiling	1.0	dominance	234.49237232599808	
22.0	137.0003709773173	rating	2.0		294	31.0	female	west_asian	2.364902506963788	smiling	006	sub-01	2.0	6.0	006_smiling	1.0	dominance	234.99225928205487	2.499920461739748
22.0	137.20046932102014	pulse	2.0	t		31.0	female	west_asian	2.364902506963788	smiling	006	sub-01	2.0	6.0	006_smiling	1.0	dominance	235.19235762575772	
22.0	137.90044586704425	pulse	2.0	t		31.0	female	west_asian	2.364902506963788	smiling	006	sub-01	2.0	6.0	006_smiling	1.0	dominance	235.89233417178184	
22.0	138.1754275973908	response	2.0	w		31.0	female	west_asian	2.364902506963788	smiling	006	sub-01	2.0	6.0	006_smiling	1.0	dominance	236.1673159021284	
22.0	138.6004130556248	pulse	2.0	t		31.0	female	west_asian	2.364902506963788	smiling	006	sub-01	2.0	6.0	006_smiling	1.0	dominance	236.5923013603624	
22.0	139.30040318503234	pulse	2.0	t		31.0	female	west_asian	2.364902506963788	smiling	006	sub-01	2.0	6.0	006_smiling	1.0	dominance	237.29229148976992	
22.0	139.50029143905704	fix	3.0		444	31.0	female	west_asian	2.364902506963788	smiling	006	sub-01	2.0	6.0	006_smiling	1.0	dominance	237.49217974379462	3.766562899671044
22.0	140.0004026718816	pulse	3.0	t		31.0	female	west_asian	2.364902506963788	smiling	006	sub-01	2.0	6.0	006_smiling	1.0	dominance	237.9922909766192	
22.0	140.70038223643496	pulse	3.0	t		31.0	female	west_asian	2.364902506963788	smiling	006	sub-01	2.0	6.0	006_smiling	1.0	dominance	238.69227054117255	
22.0	141.4003551602218	pulse	3.0	t		31.0	female	west_asian	2.364902506963788	smiling	006	sub-01	2.0	6.0	006_smiling	1.0	dominance	239.3922434649594	
22.0	142.1003425729523	pulse	3.0	t		31.0	female	west_asian	2.364902506963788	smiling	006	sub-01	2.0	6.0	006_smiling	1.0	dominance	240.09223087768987	
22.0	142.80031700600375	pulse	3.0	t		31.0	female	west_asian	2.364902506963788	smiling	006	sub-01	2.0	6.0	006_smiling	1.0	dominance	240.79220531074134	
23.0	143.26685433872808	face	0.0		145	23.0	male	white	2.6275368085953046	neutral	141	sub-01	2.0	6.0	141_neutral	0.0		241.25874264346567	1.2333057942796586
23.0	143.50029777796954	pulse	0.0	t		23.0	male	white	2.6275368085953046	neutral	141	sub-01	2.0	6.0	141_neutral	0.0		241.49218608270712	
23.0	144.20027311658123	pulse	0.0	t		23.0	male	white	2.6275368085953046	neutral	141	sub-01	2.0	6.0	141_neutral	0.0		242.19216142131881	
23.0	144.50016013300774	fix	1.0		444	23.0	male	white	2.6275368085953046	neutral	141	sub-01	2.0	6.0	141_neutral	0.0		242.49204843774532	3.7582275313470745
23.0	144.90027411269512	pulse	1.0	t		23.0	male	white	2.6275368085953046	neutral	141	sub-01	2.0	6.0	141_neutral	0.0		242.8921624174327	
23.0	145.60024099942348	pulse	1.0	t		23.0	male	white	2.6275368085953046	neutral	141	sub-01	2.0	6.0	141_neutral	0.0		243.59212930416106	
23.0	146.30024048627274	pulse	1.0	t		23.0	male	white	2.6275368085953046	neutral	141	sub-01	2.0	6.0	141_neutral	0.0		244.29212879101033	
23.0	147.0002710639801	pulse	1.0	t		23.0	male	white	2.6275368085953046	neutral	141	sub-01	2.0	6.0	141_neutral	0.0		244.9921593687177	
23.0	147.70020685985037	pulse	1.0	t		23.0	male	white	2.6275368085953046	neutral	141	sub-01	2.0	6.0	141_neutral	0.0		245.69209516458795	
24.0	148.2583876643548	face	0.0		146	27.0	male	black	3.5523278949462798	neutral	042	sub-01	2.0	6.0	042_neutral	0.0		246.2502759690924	1.2416402570452192
24.0	148.4001728410185	pulse	0.0	t		27.0	male	black	3.5523278949462798	neutral	042	sub-01	2.0	6.0	042_neutral	0.0		246.3920611457561	
24.0	149.10015693336572	pulse	0.0	t		27.0	male	black	3.5523278949462798	neutral	042	sub-01	2.0	6.0	042_neutral	0.0		247.0920452381033	
24.0	149.50002792140003	fix	1.0		444	27.0	male	black	3.5523278949462798	neutral	042	sub-01	2.0	6.0	042_neutral	0.0		247.49191622613762	3.7583063149759255
24.0	149.80013438494825	pulse	1.0	t		27.0	male	black	3.5523278949462798	neutral	042	sub-01	2.0	6.0	042_neutral	0.0		247.79202268968584	
24.0	150.500125118062	pulse	1.0	t		27.0	male	black	3.5523278949462798	neutral	042	sub-01	2.0	6.0	042_neutral	0.0		248.49201342279957	
24.0	151.20009472146558	pulse	1.0	t		27.0	male	black	3.5523278949462798	neutral	042	sub-01	2.0	6.0	042_neutral	0.0		249.19198302620316	
24.0	151.90008877496257	pulse	1.0	t		27.0	male	black	3.5523278949462798	neutral	042	sub-01	2.0	6.0	042_neutral	0.0		249.89197707970015	
24.0	152.60007105619297	pulse	1.0	t		27.0	male	black	3.5523278949462798	neutral	042	sub-01	2.0	6.0	042_neutral	0.0		250.59195936093056	
25.0	153.25833423637596	face	0.0		146	27.0	female	white	4.181058495821727	neutral	039	sub-01	2.0	6.0	039_neutral	0.0		251.25022254111354	1.2415738493891695
25.0	153.30004518739224	pulse	0.0	t		27.0	female	white	4.181058495821727	neutral	039	sub-01	2.0	6.0	039_neutral	0.0		251.29193349212983	
25.0	154.00002414823757	pulse	0.0	t		27.0	female	white	4.181058495821727	neutral	039	sub-01	2.0	6.0	039_neutral	0.0		251.99191245297516	
25.0	154.49990808576513	fix	1.0		443	27.0	female	white	4.181058495821727	neutral	039	sub-01	2.0	6.0	039_neutral	0.0		252.4917963905027	3.7665505237000616
25.0	154.70001669246994	pulse	1.0	t		27.0	female	white	4.181058495821727	neutral	039	sub-01	2.0	6.0	039_neutral	0.0		252.69190499720753	
25.0	155.39999836999414	pulse	1.0	t		27.0	female	white	4.181058495821727	neutral	039	sub-01	2.0	6.0	039_neutral	0.0		253.39188667473172	
25.0	156.09996223819144	pulse	1.0	t		27.0	female	white	4.181058495821727	neutral	039	sub-01	2.0	6.0	039_neutral	0.0		254.09185054292902	
25.0	156.79994482127404	pulse	1.0	t		27.0	female	white	4.181058495821727	neutral	039	sub-01	2.0	6.0	039_neutral	0.0		254.79183312601162	
25.0	157.49994128959406	pulse	1.0	t		27.0	female	white	4.181058495821727	neutral	039	sub-01	2.0	6.0	039_neutral	0.0		255.49182959433165	
25.0	158.1999009318497	pulse	1.0	t		27.0	female	white	4.181058495821727	neutral	039	sub-01	2.0	6.0	039_neutral	0.0		256.1917892365873	
26.0	158.2664586094652	face	0.0		146	40.0	male	black	2.408674890569041	smiling	061	sub-01	2.0	6.0	061_smiling	0.0		256.2583469142028	1.233309718369128
26.0	158.89989438164048	pulse	0.0	t		40.0	male	black	2.408674890569041	smiling	061	sub-01	2.0	6.0	061_smiling	0.0		256.89178268637806	
26.0	159.49976832783432	fix	1.0		443	40.0	male	black	2.408674890569041	smiling	061	sub-01	2.0	6.0	061_smiling	0.0		257.4916566325719	3.7665616922604386
26.0	159.59986911654596	pulse	1.0	t		40.0	male	black	2.408674890569041	smiling	061	sub-01	2.0	6.0	061_smiling	0.0		257.59175742128355	
26.0	160.29987011265985	pulse	1.0	t		40.0	male	black	2.408674890569041	smiling	061	sub-01	2.0	6.0	061_smiling	0.0		258.29175841739743	
26.0	160.99984213088828	pulse	1.0	t		40.0	male	black	2.408674890569041	smiling	061	sub-01	2.0	6.0	061_smiling	0.0		258.99173043562587	
26.0	161.69981746949998	pulse	1.0	t		40.0	male	black	2.408674890569041	smiling	061	sub-01	2.0	6.0	061_smiling	0.0		259.69170577423756	
26.0	162.39981031558455	pulse	1.0	t		40.0	male	black	2.408674890569041	smiling	061	sub-01	2.0	6.0	061_smiling	0.0		260.39169862032213	
26.0	163.0999788401059	pulse	1.0	t		40.0	male	black	2.408674890569041	smiling	061	sub-01	2.0	6.0	061_smiling	0.0		261.0918671448435	
27.0	163.26633002009476	face	0.0		146	32.0	male	white	2.389176283326701	smiling	092	sub-01	2.0	6.0	092_smiling	0.0		261.25821832483234	1.2333148498673836
27.0	163.79977789657278	pulse	0.0	t		32.0	male	white	2.389176283326701	smiling	092	sub-01	2.0	6.0	092_smiling	0.0		261.79166620131036	
27.0	164.49964486996214	fix	1.0		444	32.0	male	white	2.389176283326701	smiling	092	sub-01	2.0	6.0	092_smiling	0.0		262.4915331746997	3.7665499199938495
27.0	164.50720779649964	pulse	1.0	t		32.0	male	white	2.389176283326701	smiling	092	sub-01	2.0	6.0	092_smiling	0.0		262.4990961012372	
27.0	165.19973008306079	pulse	1.0	t		32.0	male	white	2.389176283326701	smiling	092	sub-01	2.0	6.0	092_smiling	0.0		263.19161838779837	
27.0	165.89971025131854	pulse	1.0	t		32.0	male	white	2.389176283326701	smiling	092	sub-01	2.0	6.0	092_smiling	0.0		263.8915985560561	
27.0	166.59970370110932	pulse	1.0	t		32.0	male	white	2.389176283326701	smiling	092	sub-01	2.0	6.0	092_smiling	0.0		264.5915920058469	
27.0	167.29967330451473	pulse	1.0	t		32.0	male	white	2.389176283326701	smiling	092	sub-01	2.0	6.0	092_smiling	0.0		265.2915616092523	
27.0	167.9996610190974	pulse	1.0	t		32.0	male	white	2.389176283326701	smiling	092	sub-01	2.0	6.0	092_smiling	0.0		265.991549323835	
28.0	168.266194789956	face	0.0		145	36.0	female	white	2.7548746518105847	smiling	011	sub-01	2.0	6.0	011_smiling	1.0	attractiveness	266.2580830946936	1.233318773958672
28.0	168.69964843182788	pulse	0.0	t		36.0	female	white	2.7548746518105847	smiling	011	sub-01	2.0	6.0	011_smiling	1.0	attractiveness	266.69153673656547	
28.0	169.39962105376253	pulse	0.0	t		36.0	female	white	2.7548746518105847	smiling	011	sub-01	2.0	6.0	011_smiling	1.0	attractiveness	267.3915093585001	
28.0	169.49951356391466	fix	1.0		177	36.0	female	white	2.7548746518105847	smiling	011	sub-01	2.0	6.0	011_smiling	1.0	attractiveness	267.49140186865225	1.4999590989209537
28.0	170.09960937205142	pulse	1.0	t		36.0	female	white	2.7548746518105847	smiling	011	sub-01	2.0	6.0	011_smiling	1.0	attractiveness	268.091497676789	
28.0	170.7995841069569	pulse	1.0	t		36.0	female	white	2.7548746518105847	smiling	011	sub-01	2.0	6.0	011_smiling	1.0	attractiveness	268.7914724116945	
28.0	170.99947266283561	rating	2.0		295	36.0	female	white	2.7548746518105847	smiling	011	sub-01	2.0	6.0	011_smiling	1.0	attractiveness	268.9913609675732	2.4999231784149742
28.0	171.4995663881873	pulse	2.0	t		36.0	female	white	2.7548746518105847	smiling	011	sub-01	2.0	6.0	011_smiling	1.0	attractiveness	269.4914546929249	
28.0	172.19954565088665	pulse	2.0	t		36.0	female	white	2.7548746518105847	smiling	011	sub-01	2.0	6.0	011_smiling	1.0	attractiveness	270.19143395562423	
28.0	172.2411865720096	response	2.0	y		36.0	female	white	2.7548746518105847	smiling	011	sub-01	2.0	6.0	011_smiling	1.0	attractiveness	270.2330748767472	
28.0	172.89952430987978	pulse	2.0	t		36.0	female	white	2.7548746518105847	smiling	011	sub-01	2.0	6.0	011_smiling	1.0	attractiveness	270.89141261461737	
28.0	173.4993958412506	fix	3.0		443	36.0	female	white	2.7548746518105847	smiling	011	sub-01	2.0	6.0	011_smiling	1.0	attractiveness	271.4912841459882	3.766559881141802
28.0	173.59953405973283	pulse	3.0	t		36.0	female	white	2.7548746518105847	smiling	011	sub-01	2.0	6.0	011_smiling	1.0	attractiveness	271.5914223644704	
28.0	174.2994828352803	pulse	3.0	t		36.0	female	white	2.7548746518105847	smiling	011	sub-01	2.0	6.0	011_smiling	1.0	attractiveness	272.2913711400179	
28.0	174.99948202027736	pulse	3.0	t		36.0	female	white	2.7548746518105847	smiling	011	sub-01	2.0	6.0	011_smiling	1.0	attractiveness	272.99137032501494	
28.0	175.69944709588708	pulse	3.0	t		36.0	female	white	2.7548746518105847	smiling	011	sub-01	2.0	6.0	011_smiling	1.0	attractiveness	273.69133540062467	
28.0	176.39944416791332	pulse	3.0	t		36.0	female	white	2.7548746518105847	smiling	011	sub-01	2.0	6.0	011_smiling	1.0	attractiveness	274.3913324726509	
28.0	177.09941618614175	pulse	3.0	t		36.0	female	white	2.7548746518105847	smiling	011	sub-01	2.0	6.0	011_smiling	1.0	attractiveness	275.09130449087934	
29.0	177.2659557223924	face	0.0		146	20.0	male	black	3.1070433744528456	smiling	082	sub-01	2.0	6.0	082_smiling	0.0		275.25784402713	1.2333100202213245
29.0	177.79939092104723	pulse	0.0	t		20.0	male	black	3.1070433744528456	smiling	082	sub-01	2.0	6.0	082_smiling	0.0		275.7912792257848	
29.0	178.49926574261372	fix	1.0		444	20.0	male	black	3.1070433744528456	smiling	082	sub-01	2.0	6.0	082_smiling	0.0		276.4911540473513	3.758227833199271
29.0	178.5069285824884	pulse	1.0	t		20.0	male	black	3.1070433744528456	smiling	082	sub-01	2.0	6.0	082_smiling	0.0		276.498816887226	
29.0	179.1993533705354	pulse	1.0	t		20.0	male	black	3.1070433744528456	smiling	082	sub-01	2.0	6.0	082_smiling	0.0		277.191241675273	
29.0	179.89934651847216	pulse	1.0	t		20.0	male	black	3.1070433744528456	smiling	082	sub-01	2.0	6.0	082_smiling	0.0		277.89123482320974	
29.0	180.5993309126734	pulse	1.0	t		20.0	male	black	3.1070433744528456	smiling	082	sub-01	2.0	6.0	082_smiling	0.0		278.591219217411	
29.0	181.29930202534342	pulse	1.0	t		20.0	male	black	3.1070433744528456	smiling	082	sub-01	2.0	6.0	082_smiling	0.0		279.291190330081	
29.0	181.99929094733852	pulse	1.0	t		20.0	male	black	3.1070433744528456	smiling	082	sub-01	2.0	6.0	082_smiling	0.0		279.9911792520761	
30.0	182.257493575813	face	0.0		146	22.0	female	white	4.614007162753682	smiling	009	sub-01	2.0	6.0	009_smiling	0.0		280.2493818805506	1.2416381440762052
30.0	182.6992792656274	pulse	0.0	t		22.0	female	white	4.614007162753682	smiling	009	sub-01	2.0	6.0	009_smiling	0.0		280.691167570365	
30.0	183.3992419264141	pulse	0.0	t		22.0	female	white	4.614007162753682	smiling	009	sub-01	2.0	6.0	009_smiling	0.0		281.3911302311517	
30.0	183.4991317198892	fix	1.0		445	22.0	female	white	4.614007162753682	smiling	009	sub-01	2.0	6.0	009_smiling	0.0		281.4910200246268	3.774898267996832
30.0	184.09924020585095	pulse	1.0	t		22.0	female	white	4.614007162753682	smiling	009	sub-01	2.0	6.0	009_smiling	0.0		282.09112851058853	
30.0	184.79921101666696	pulse	1.0	t		22.0	female	white	4.614007162753682	smiling	009	sub-01	2.0	6.0	009_smiling	0.0		282.79109932140454	
30.0	185.49920537201615	pulse	1.0	t		22.0	female	white	4.614007162753682	smiling	009	sub-01	2.0	6.0	009_smiling	0.0		283.49109367675374	
30.0	186.19917346615694	pulse	1.0	t		22.0	female	white	4.614007162753682	smiling	009	sub-01	2.0	6.0	009_smiling	0.0		284.1910617708945	
30.0	186.8991660103875	pulse	1.0	t		22.0	female	white	4.614007162753682	smiling	009	sub-01	2.0	6.0	009_smiling	0.0		284.8910543151251	
31.0	187.27402998788602	face	0.0		145	20.0	male	black	3.1070433744528456	neutral	082	sub-01	2.0	6.0	082_neutral	0.0		285.2659182926236	1.233302775750417
31.0	187.5991491971763	pulse	0.0	t		20.0	male	black	3.1070433744528456	neutral	082	sub-01	2.0	6.0	082_neutral	0.0		285.5910375019139	
31.0	188.2991112542568	pulse	0.0	t		20.0	male	black	3.1070433744528456	neutral	082	sub-01	2.0	6.0	082_neutral	0.0		286.2909995589944	
31.0	188.50733276363644	fix	1.0		444	20.0	male	black	3.1070433744528456	neutral	082	sub-01	2.0	6.0	082_neutral	0.0		286.499221068374	3.758227229493059
31.0	188.99911164666446	pulse	1.0	t		20.0	male	black	3.1070433744528456	neutral	082	sub-01	2.0	6.0	082_neutral	0.0		286.99099995140205	
31.0	189.6990827593345	pulse	1.0	t		20.0	male	black	3.1070433744528456	neutral	082	sub-01	2.0	6.0	082_neutral	0.0		287.6909710640721	
31.0	190.39906383315247	pulse	1.0	t		20.0	male	black	3.1070433744528456	neutral	082	sub-01	2.0	6.0	082_neutral	0.0		288.39095213789005	
31.0	191.09904520882264	pulse	1.0	t		20.0	male	black	3.1070433744528456	neutral	082	sub-01	2.0	6.0	082_neutral	0.0		289.09093351356023	
31.0	191.79903262155312	pulse	1.0	t		20.0	male	black	3.1070433744528456	neutral	082	sub-01	2.0	6.0	082_neutral	0.0		289.7909209262907	
32.0	192.2655599931295	face	0.0		146	22.0	female	west_asian	3.8205332272184642	neutral	066	sub-01	2.0	6.0	066_neutral	0.0		290.2574482978671	1.241641766311659
32.0	192.49901761946057	pulse	0.0	t		22.0	female	west_asian	3.8205332272184642	neutral	066	sub-01	2.0	6.0	066_neutral	0.0		290.49090592419816	
32.0	193.19898692101197	pulse	0.0	t		22.0	female	west_asian	3.8205332272184642	neutral	066	sub-01	2.0	6.0	066_neutral	0.0		291.19087522574955	
32.0	193.50720175944116	fix	1.0		444	22.0	female	west_asian	3.8205332272184642	neutral	066	sub-01	2.0	6.0	066_neutral	0.0		291.49909006417874	3.7582254183744226
32.0	193.8989725226238	pulse	1.0	t		22.0	female	west_asian	3.8205332272184642	neutral	066	sub-01	2.0	6.0	066_neutral	0.0		291.8908608273614	
32.0	194.59896174647292	pulse	1.0	t		22.0	female	west_asian	3.8205332272184642	neutral	066	sub-01	2.0	6.0	066_neutral	0.0		292.5908500512105	
32.0	195.29894463140772	pulse	1.0	t		22.0	female	west_asian	3.8205332272184642	neutral	066	sub-01	2.0	6.0	066_neutral	0.0		293.2908329361453	
32.0	195.99892057372563	pulse	1.0	t		22.0	female	west_asian	3.8205332272184642	neutral	066	sub-01	2.0	6.0	066_neutral	0.0		293.9908088784632	
32.0	196.69891040127914	pulse	1.0	t		22.0	female	west_asian	3.8205332272184642	neutral	066	sub-01	2.0	6.0	066_neutral	0.0		294.6907987060167	
33.0	197.26542717781558	face	0.0		146	47.0	male	east_asian	2.171110226820533	smiling	024	sub-01	2.0	6.0	024_smiling	0.0		295.25731548255317	1.2416435774284764
33.0	197.3988905695387	pulse	0.0	t		47.0	male	east_asian	2.171110226820533	smiling	024	sub-01	2.0	6.0	024_smiling	0.0		295.3907788742763	
33.0	198.0988607766485	pulse	0.0	t		47.0	male	east_asian	2.171110226820533	smiling	024	sub-01	2.0	6.0	024_smiling	0.0		296.0907490813861	
33.0	198.50707075524406	fix	1.0		444	47.0	male	east_asian	2.171110226820533	smiling	024	sub-01	2.0	6.0	024_smiling	0.0		296.49895905998164	3.7665625978206663
33.0	198.79884698196838	pulse	1.0	t		47.0	male	east_asian	2.171110226820533	smiling	024	sub-01	2.0	6.0	024_smiling	0.0		296.79073528670597	
33.0	199.49881628351977	pulse	1.0	t		47.0	male	east_asian	2.171110226820533	smiling	024	sub-01	2.0	6.0	024_smiling	0.0		297.49070458825736	
33.0	200.1988012814254	pulse	1.0	t		47.0	male	east_asian	2.171110226820533	smiling	024	sub-01	2.0	6.0	024_smiling	0.0		298.190689586163	
33.0	200.89879231639134	pulse	1.0	t		47.0	male	east_asian	2.171110226820533	smiling	024	sub-01	2.0	6.0	024_smiling	0.0		298.8906806211289	
33.0	201.59878123838826	pulse	1.0	t		47.0	male	east_asian	2.171110226820533	smiling	024	sub-01	2.0	6.0	024_smiling	0.0		299.59066954312584	
34.0	202.27363335306472	face	0.0		145	28.0	female	white	5.676880222841227	neutral	124	sub-01	2.0	6.0	124_neutral	0.0		300.2655216578023	1.23331666098602
34.0	202.29876533073548	pulse	0.0	t		28.0	female	white	5.676880222841227	neutral	124	sub-01	2.0	6.0	124_neutral	0.0		300.29065363547306	
34.0	202.99873342487444	pulse	0.0	t		28.0	female	white	5.676880222841227	neutral	124	sub-01	2.0	6.0	124_neutral	0.0		300.99062172961203	
34.0	203.50695001405074	fix	1.0		443	28.0	female	white	5.676880222841227	neutral	124	sub-01	2.0	6.0	124_neutral	0.0		301.49883831878833	3.758287901944641
34.0	203.69872295057576	pulse	1.0	t		28.0	female	white	5.676880222841227	neutral	124	sub-01	2.0	6.0	124_neutral	0.0		301.69061125531334	
34.0	204.39869164842094	pulse	1.0	t		28.0	female	white	5.676880222841227	neutral	124	sub-01	2.0	6.0	124_neutral	0.0		302.3905799531585	
34.0	205.0986841926533	pulse	1.0	t		28.0	female	white	5.676880222841227	neutral	124	sub-01	2.0	6.0	124_neutral	0.0		303.0905724973909	
34.0	205.7986534942047	pulse	1.0	t		28.0	female	white	5.676880222841227	neutral	124	sub-01	2.0	6.0	124_neutral	0.0		303.7905417989423	
34.0	206.49863426616866	pulse	1.0	t		28.0	female	white	5.676880222841227	neutral	124	sub-01	2.0	6.0	124_neutral	0.0		304.49052257090625	
34.0	207.19862137704695	pulse	1.0	t		28.0	female	white	5.676880222841227	neutral	124	sub-01	2.0	6.0	124_neutral	0.0		305.19050968178453	
35.0	207.26523791599539	face	0.0		147	26.0	male	white	2.7966573816155993	smiling	117	sub-01	2.0	6.0	117_smiling	0.0		305.25712622073297	1.2415675104748516
35.0	207.89861603424833	pulse	0.0	t		26.0	male	white	2.7966573816155993	smiling	117	sub-01	2.0	6.0	117_smiling	0.0		305.8905043389859	
35.0	208.50680542647024	fix	1.0		443	26.0	male	white	2.7966573816155993	smiling	117	sub-01	2.0	6.0	117_smiling	0.0		306.4986937312078	3.766548712583244
35.0	208.59858443024132	pulse	1.0	t		26.0	male	white	2.7966573816155993	smiling	117	sub-01	2.0	6.0	117_smiling	0.0		306.5904727349789	
35.0	209.2985718429718	pulse	1.0	t		26.0	male	white	2.7966573816155993	smiling	117	sub-01	2.0	6.0	117_smiling	0.0		307.2904601477094	
35.0	209.99855321864197	pulse	1.0	t		26.0	male	white	2.7966573816155993	smiling	117	sub-01	2.0	6.0	117_smiling	0.0		307.99044152337956	
35.0	210.6985252368704	pulse	1.0	t		26.0	male	white	2.7966573816155993	smiling	117	sub-01	2.0	6.0	117_smiling	0.0		308.690413541608	
35.0	211.3985066125424	pulse	1.0	t		26.0	male	white	2.7966573816155993	smiling	117	sub-01	2.0	6.0	117_smiling	0.0		309.39039491728	
35.0	212.09848074374167	pulse	1.0	t		26.0	male	white	2.7966573816155993	smiling	117	sub-01	2.0	6.0	117_smiling	0.0		310.09036904847926	
36.0	212.27335413905348	face	0.0		146	24.0	female	black	3.0955033824114606	neutral	099	sub-01	2.0	6.0	099_neutral	0.0		310.26524244379107	1.2416538404304447
36.0	212.7984714768554	pulse	0.0	t		24.0	female	black	3.0955033824114606	neutral	099	sub-01	2.0	6.0	099_neutral	0.0		310.790359781593	
36.0	213.49844319322983	pulse	0.0	t		24.0	female	black	3.0955033824114606	neutral	099	sub-01	2.0	6.0	099_neutral	0.0		311.4903314979674	
36.0	213.51500797948393	fix	1.0		443	24.0	female	black	3.0955033824114606	neutral	099	sub-01	2.0	6.0	099_neutral	0.0		311.5068962842215	3.7582284369054832
36.0	214.19843392634357	pulse	1.0	t		24.0	female	black	3.0955033824114606	neutral	099	sub-01	2.0	6.0	099_neutral	0.0		312.19032223108115	
36.0	214.89842164092624	pulse	1.0	t		24.0	female	black	3.0955033824114606	neutral	099	sub-01	2.0	6.0	099_neutral	0.0		312.89030994566383	
36.0	215.59840935551074	pulse	1.0	t		24.0	female	black	3.0955033824114606	neutral	099	sub-01	2.0	6.0	099_neutral	0.0		313.5902976602483	
36.0	216.29838348671	pulse	1.0	t		24.0	female	black	3.0955033824114606	neutral	099	sub-01	2.0	6.0	099_neutral	0.0		314.2902717914476	
36.0	216.9983654660864	pulse	1.0	t		24.0	female	black	3.0955033824114606	neutral	099	sub-01	2.0	6.0	099_neutral	0.0		314.990253770824	
37.0	217.2732364163894	face	0.0		145	31.0	male	west_asian	1.9538400318344609	neutral	070	sub-01	2.0	6.0	070_neutral	0.0		315.265124721127	1.23331666098602
37.0	217.69834020099188	pulse	0.0	t		31.0	male	west_asian	1.9538400318344609	neutral	070	sub-01	2.0	6.0	070_neutral	0.0		315.69022850572946	
37.0	218.39833153781	pulse	0.0	t		31.0	male	west_asian	1.9538400318344609	neutral	070	sub-01	2.0	6.0	070_neutral	0.0		316.3902198425476	
37.0	218.50655307737543	fix	1.0		444	31.0	male	west_asian	1.9538400318344609	neutral	070	sub-01	2.0	6.0	070_neutral	0.0		316.498441382113	3.766552938523091
37.0	219.0983192523945	pulse	1.0	t		31.0	male	west_asian	1.9538400318344609	neutral	070	sub-01	2.0	6.0	070_neutral	0.0		317.0902075571321	
37.0	219.79830425030013	pulse	1.0	t		31.0	male	west_asian	1.9538400318344609	neutral	070	sub-01	2.0	6.0	070_neutral	0.0		317.7901925550377	
37.0	220.4982765703826	pulse	1.0	t		31.0	male	west_asian	1.9538400318344609	neutral	070	sub-01	2.0	6.0	070_neutral	0.0		318.4901648751202	
37.0	221.19827122758397	pulse	1.0	t		31.0	male	west_asian	1.9538400318344609	neutral	070	sub-01	2.0	6.0	070_neutral	0.0		319.19015953232156	
37.0	221.8982417365478	pulse	1.0	t		31.0	male	west_asian	1.9538400318344609	neutral	070	sub-01	2.0	6.0	070_neutral	0.0		319.8901300412854	
38.0	222.27310601589852	face	0.0		145	27.0	female	white	3.504576203740549	smiling	144	sub-01	2.0	6.0	144_smiling	0.0		320.2649943206361	1.2333148498692026
38.0	222.5982240177782	pulse	0.0	t		27.0	female	white	3.504576203740549	smiling	144	sub-01	2.0	6.0	144_smiling	0.0		320.5901123225158	
38.0	223.29820509159617	pulse	0.0	t		27.0	female	white	3.504576203740549	smiling	144	sub-01	2.0	6.0	144_smiling	0.0		321.29009339633376	
38.0	223.50642086576772	fix	1.0		444	27.0	female	white	3.504576203740549	smiling	144	sub-01	2.0	6.0	144_smiling	0.0		321.4983091705053	3.7665520329646824
38.0	223.99818767467877	pulse	1.0	t		27.0	female	white	3.504576203740549	smiling	144	sub-01	2.0	6.0	144_smiling	0.0		321.99007597941636	
38.0	224.69815516511153	pulse	1.0	t		27.0	female	white	3.504576203740549	smiling	144	sub-01	2.0	6.0	144_smiling	0.0		322.6900434698491	
38.0	225.39815133157936	pulse	1.0	t		27.0	female	white	3.504576203740549	smiling	144	sub-01	2.0	6.0	144_smiling	0.0		323.39003963631694	
38.0	226.09813210354332	pulse	1.0	t		27.0	female	white	3.504576203740549	smiling	144	sub-01	2.0	6.0	144_smiling	0.0		324.0900204082809	
38.0	226.79811015883206	pulse	1.0	t		27.0	female	white	3.504576203740549	smiling	144	sub-01	2.0	6.0	144_smiling	0.0		324.78999846356965	
39.0	227.2729728987324	face	0.0		145	54.0	female	white	2.286908077994429	smiling	136	sub-01	2.0	6.0	136_smiling	0.0		325.26486120347	1.2333039831628412
39.0	227.49809244006065	pulse	0.0	t		54.0	female	white	2.286908077994429	smiling	136	sub-01	2.0	6.0	136_smiling	0.0		325.48998074479823	
39.0	228.1980596286412	pulse	0.0	t		54.0	female	white	2.286908077994429	smiling	136	sub-01	2.0	6.0	136_smiling	0.0		326.1899479333788	
39.0	228.50627688189525	fix	1.0		444	54.0	female	white	2.286908077994429	smiling	136	sub-01	2.0	6.0	136_smiling	0.0		326.49816518663283	3.7498921630194673
39.0	228.89803768392994	pulse	1.0	t		54.0	female	white	2.286908077994429	smiling	136	sub-01	2.0	6.0	136_smiling	0.0		326.8899259886675	
39.0	229.5980226818374	pulse	1.0	t		54.0	female	white	2.286908077994429	smiling	136	sub-01	2.0	6.0	136_smiling	0.0		327.589910986575	
39.0	230.29801039642007	pulse	1.0	t		54.0	female	white	2.286908077994429	smiling	136	sub-01	2.0	6.0	136_smiling	0.0		328.28989870115765	
39.0	230.99799358320888	pulse	1.0	t		54.0	female	white	2.286908077994429	smiling	136	sub-01	2.0	6.0	136_smiling	0.0		328.98988188794647	
39.0	231.69797858111633	pulse	1.0	t		54.0	female	white	2.286908077994429	smiling	136	sub-01	2.0	6.0	136_smiling	0.0		329.6898668858539	
40.0	232.2561690449147	fix	0.0		720													330.2480573496523	5.999849979067221
40.0	232.39795029749075	pulse	0.0	t														330.38983860222834	
40.0	233.0979416343107	pulse	0.0	t														331.0898299390483	
40.0	233.79806367347192	pulse	0.0	t														331.7899519782095	
40.0	234.49789683932795	pulse	0.0	t														332.48978514406554	
40.0	235.19787972426275	pulse	0.0	t														333.18976802900033	
40.0	235.89786140178694	pulse	0.0	t														333.8897497065245	
40.0	236.59784247560492	pulse	0.0	t														334.5897307803425	
40.0	237.2978241531291	pulse	0.0	t														335.2897124578667	
40.0	237.99781035844717	pulse	0.0	t														335.98969866318475	
