trial_nr	onset	event_type	phase	response	nr_frames	trial_type	stim_name	task_probe	onset_abs	duration
0.0	0.056297371781511174	baseline	0.0		41.0		baseline	0.0	94.58771586137846	0.34969196079509857
0.0	0.40598933257660974	ISI	1.0		11.0		baseline	0.0	94.93740782217355	0.09999245371909637
1.0	0.5059817862957061	baseline	0.0		48.0		baseline	0.0	95.03740027589265	0.4000012074047845
1.0	0.7061028286479996	pulse	0.0	t			baseline	0.0	95.23752131824494	
1.0	0.9059829937004906	ISI	1.0		11.0		baseline	0.0	95.43740148329744	0.10000090555331553
2.0	1.0059838992538062	baseline	0.0		48.0		baseline	0.0	95.53740238885075	0.39996407970102155
2.0	1.4059479789548277	ISI	1.0		11.0		baseline	0.0	95.93736646855177	0.10001720552190818
2.0	1.4104621644546569	pulse	1.0	t			baseline	0.0	95.9418806540516	
3.0	1.5059651844767359	baseline	0.0		48.0		baseline	0.0	96.03738367407368	0.3999526093530221
3.0	1.905917793829758	ISI	1.0		11.0		baseline	0.0	96.4373362834267	0.100002716661038
4.0	2.005920510490796	baseline	0.0		48.0		baseline	0.0	96.53733900008774	0.39999667963638785
4.0	2.106031893603358	pulse	0.0	t			baseline	0.0	96.6374503832003	
4.0	2.405917190127184	ISI	1.0		11.0		baseline	0.0	96.93733567972413	0.09998309633010649
5.0	2.5059002864572903	baseline	0.0		48.0		baseline	0.0	97.03731877605424	0.4000015092560716
5.0	2.8060104621645223	pulse	0.0	t			baseline	0.0	97.33742895176147	
5.0	2.905901795713362	ISI	1.0		11.0		baseline	0.0	97.4373202853103	0.09999577408234472
6.0	3.0058975697957067	baseline	0.0		48.0		baseline	0.0	97.53731605939265	0.39996287229587324
6.0	3.40586044209158	ISI	1.0		11.0		baseline	0.0	97.93727893168852	0.10000664072776999
7.0	3.50586708281935	baseline	0.0		47.0		baseline	0.0	98.0372855724163	0.40000181110735866
7.0	3.510025385690824	pulse	0.0	t			baseline	0.0	98.04144387528777	
7.0	3.9058688939267086	ISI	1.0		11.0		baseline	0.0	98.43728738352365	0.09999667963620595
8.0	4.0058655735629145	baseline	0.0		48.0		baseline	0.0	98.53728406315986	0.39998611484224966
8.0	4.205964278922693	pulse	0.0	t			baseline	0.0	98.73738276851964	
8.0	4.405851688405164	ISI	1.0		11.0		baseline	0.0	98.93727017800211	0.09999939629778964
9.0	4.505851084702954	baseline	0.0		48.0		baseline	0.0	99.0372695742999	0.39998490743710136
9.0	4.905835992140055	ISI	1.0		11.0		baseline	0.0	99.437254481737	0.09999547223105765
9.0	4.910296749967529	pulse	1.0	t			baseline	0.0	99.44171523956447	
10.0	5.005831464371113	baseline	0.0		48.0		baseline	0.0	99.53724995396806	0.3999749463455373
10.0	5.40580641071665	ISI	1.0		11.0		baseline	0.0	99.9372249003136	0.10000875368677953
11.0	5.50581516440343	baseline	0.0		48.0		baseline	0.0	100.03723365400037	0.3999867185448238
11.0	5.605922321598882	pulse	0.0	t			baseline	0.0	100.13734081119583	
11.0	5.9058018829482535	ISI	1.0		5.0		baseline	0.0	100.4372203725452	0.12498271901586122
12.0	6.030784601964115	adult	0.0		45.0	face	adult-32.jpg	0.0	100.56220309156106	0.37493397003800055
12.0	6.3058423310158105	pulse	0.0	t		face	adult-32.jpg	0.0	100.83726082061276	
12.0	6.405718572002115	ISI	1.0		7.0	face	adult-32.jpg	0.0	100.93713706159906	0.1166845261996059
13.0	6.522403098201721	adult	0.0		46.0	face	adult-10.jpg	0.0	101.05382158779867	0.383305210857543
13.0	6.905708309059264	ISI	1.0		7.0	face	adult-10.jpg	0.0	101.43712679865621	0.11668965767057671
14.0	7.022397966729841	adult	0.0		45.0	face	adult-92.jpg	0.0	101.55381645632679	0.383293438659166
14.0	7.014117884988991	pulse	0.0	t		face	adult-92.jpg	0.0	101.54553637458594	
14.0	7.405691405389007	ISI	1.0		7.0	face	adult-92.jpg	0.0	101.93710989498595	0.11669961876214074
15.0	7.522391024151148	adult	0.0		46.0	face	adult-63.jpg	0.0	102.05380951374809	0.38329524976688845
15.0	7.7058142588493865	pulse	0.0	t		face	adult-63.jpg	0.0	102.23723274844633	
15.0	7.905686273918036	ISI	1.0		7.0	face	adult-63.jpg	0.0	102.43710476351498	0.1166845261996059
16.0	8.022370800117642	adult	0.0		46.0	face	adult-50.jpg	0.0	102.55378928971459	0.38327200721960253
16.0	8.405642807337244	ISI	1.0		7.0	face	adult-50.jpg	0.0	102.93706129693419	0.11669720395184413
16.0	8.438298283372205	pulse	1.0	t		face	adult-50.jpg	0.0	102.96971677296915	
17.0	8.522340011289089	adult	0.0		46.0	face	adult-39.jpg	0.0	103.05375850088603	0.3833091349251845
17.0	8.905649146214273	ISI	1.0		8.0	face	adult-39.jpg	0.0	103.43706763581122	0.11669026137224137
18.0	9.022339407586514	adult	0.0		46.0	face	adult-39.jpg	1.0	103.55375789718346	0.3832813646095019
18.0	9.105758718218567	pulse	0.0	t		face	adult-39.jpg	1.0	103.63717720781551	
18.0	9.405620772196016	ISI	1.0		8.0	face	adult-39.jpg	1.0	103.93703926179296	0.11667305585160648
18.0	9.480756680723061	response	1.0	b		face	adult-39.jpg	1.0	104.01217517032	
19.0	9.522293828047623	adult	0.0		46.0	face	adult-103.jpg	0.0	104.05371231764457	0.3833363015373834
19.0	9.805739701590028	pulse	0.0	t		face	adult-103.jpg	0.0	104.33715819118697	
19.0	9.905630129585006	ISI	1.0		8.0	face	adult-103.jpg	0.0	104.43704861918195	0.1166884502654284
20.0	10.022318579850435	adult	0.0		46.0	face	adult-107.jpg	0.0	104.55373706944738	0.38328619422918564
20.0	10.40560477407962	ISI	1.0		8.0	face	adult-107.jpg	0.0	104.93702326367656	0.11666701882677444
21.0	10.522271792906395	adult	0.0		45.0	face	adult-101.jpg	0.0	105.05369028250334	0.3833166812055424
21.0	10.514424264011723	pulse	0.0	t		face	adult-101.jpg	0.0	105.04584275360867	
21.0	10.905588474111937	ISI	1.0		7.0	face	adult-101.jpg	0.0	105.43700696370888	0.11668422434740933
22.0	11.022272698459346	adult	0.0		46.0	face	adult-131.jpg	0.0	105.55369118805629	0.3832985701310463
22.0	11.205692009091763	pulse	0.0	t		face	adult-131.jpg	0.0	105.73711049868871	
22.0	11.405571268590393	ISI	1.0		7.0	face	adult-131.jpg	0.0	105.93698975818734	0.11668543175255763
23.0	11.52225670034295	adult	0.0		46.0	face	adult-17.jpg	0.0	106.0536751899399	0.3832985701310463
23.0	11.905555270473997	ISI	1.0		11.0	face	adult-17.jpg	0.0	106.43697376007094	0.09999517037977057
23.0	11.909828578673114	pulse	1.0	t		face	adult-17.jpg	0.0	106.44124706827006	
24.0	12.005550440853767	baseline	0.0		48.0		baseline	0.0	106.53696893045071	0.40006067210197216
24.0	12.40561111295574	ISI	1.0		11.0		baseline	0.0	106.93702960255268	0.0999960759336318
25.0	12.505607188889371	baseline	0.0		48.0		baseline	0.0	107.03702567848632	0.3999737389412985
25.0	12.605705290547121	pulse	0.0	t			baseline	0.0	107.13712378014407	
25.0	12.90558092783067	ISI	1.0		11.0		baseline	0.0	107.43699941742761	0.09999728333878011
26.0	13.00557821116945	baseline	0.0		48.0		baseline	0.0	107.5369967007664	0.3999858129909626
26.0	13.305686273917672	pulse	0.0	t			baseline	0.0	107.83710476351462	
26.0	13.405564024160412	ISI	1.0		11.0		baseline	0.0	107.93698251375736	0.10001931848000822
27.0	13.50558334264042	baseline	0.0		48.0		baseline	0.0	108.03700183223737	0.39997313523872435
27.0	13.905556477879145	ISI	1.0		11.0		baseline	0.0	108.43697496747609	0.10000030185074138
28.0	14.005556779729886	baseline	0.0		47.0		baseline	0.0	108.53697526932683	0.3999852092892979
28.0	14.009654108648647	pulse	0.0	t			baseline	0.0	108.54107259824559	
28.0	14.405541989019184	ISI	1.0		11.0		baseline	0.0	108.93696047861613	0.09998490743691946
29.0	14.505526896456104	baseline	0.0		48.0		baseline	0.0	109.03694538605305	0.39998913335512043
29.0	14.705636770312594	pulse	0.0	t			baseline	0.0	109.23705525990954	
29.0	14.905516029811224	ISI	1.0		11.0		baseline	0.0	109.43693451940817	0.10000875368587003
30.0	15.005524783497094	baseline	0.0		48.0		baseline	0.0	109.53694327309404	0.39998520928838843
30.0	15.405509992785483	ISI	1.0		11.0		baseline	0.0	109.93692848238243	0.10000150925679918
30.0	15.409978296895133	pulse	1.0	t			baseline	0.0	109.94139678649208	
31.0	15.505511502042282	baseline	0.0		48.0		baseline	0.0	110.03692999163923	0.3999846055858143
31.0	15.905496107628096	ISI	1.0		11.0		baseline	0.0	110.43691459722504	0.09998098337109695
32.0	16.005477090999193	baseline	0.0		48.0		baseline	0.0	110.53689558059614	0.39998490743710136
32.0	16.105588474111755	pulse	0.0	t			baseline	0.0	110.6370069637087	
32.0	16.405461998436294	ISI	1.0		11.0		baseline	0.0	110.93688048803324	0.09999547223105765
33.0	16.505457470667352	baseline	0.0		48.0		baseline	0.0	111.0368759602643	0.4000039240663682
33.0	16.805568853780642	pulse	0.0	t			baseline	0.0	111.33698734337759	
33.0	16.90546139473372	ISI	1.0		11.0		baseline	0.0	111.43687988433066	0.10000271666194749
34.0	17.005464111395668	baseline	0.0		48.0		baseline	0.0	111.53688260099261	0.39996438155139913
34.0	17.405428492947067	ISI	1.0		11.0		baseline	0.0	111.93684698254401	0.09999969814907672
35.0	17.505428191096144	baseline	0.0		47.0		baseline	0.0	112.03684668069309	0.40000090555349743
35.0	17.509592832843737	pulse	0.0	t			baseline	0.0	112.04101132244068	
35.0	17.90542909664964	ISI	1.0		11.0		baseline	0.0	112.43684758624659	0.09998249262753234
36.0	18.005411589277173	baseline	0.0		48.0		baseline	0.0	112.53683007887412	0.40000090555349743
36.0	18.205561609350298	pulse	0.0	t			baseline	0.0	112.73698009894724	
36.0	18.40541249483067	ISI	1.0		11.0		baseline	0.0	112.93683098442762	0.0999803796685228
37.0	18.505392874499194	baseline	0.0		48.0		baseline	0.0	113.03681136409614	0.40000181110735866
37.0	18.905394685606552	ISI	1.0		11.0		baseline	0.0	113.4368131752035	0.09999758519006718
37.0	18.90985695269137	pulse	1.0	t			baseline	0.0	113.44127544228832	
38.0	19.00539227079662	baseline	0.0		48.0		baseline	0.0	113.53681076039356	0.3999945666773783
38.0	19.405386837473998	ISI	1.0		11.0		baseline	0.0	113.93680532707094	0.09999003890879976
39.0	19.505376876382797	baseline	0.0		48.0		baseline	0.0	114.03679536597974	0.3999858129909626
39.0	19.605476487296983	pulse	0.0	t			baseline	0.0	114.13689497689393	
39.0	19.90536268937376	ISI	1.0		11.0		baseline	0.0	114.4367811789707	0.09999788704135426
40.0	20.005360576415114	baseline	0.0		48.0		baseline	0.0	114.53677906601206	0.3999867185448238
40.0	20.305462300288127	pulse	0.0	t			baseline	0.0	114.83688078988507	
40.0	20.405347294959938	ISI	1.0		11.0		baseline	0.0	114.93676578455688	0.09999879259521549
41.0	20.505346087555154	baseline	0.0		48.0		baseline	0.0	115.0367645771521	0.3999858129909626
41.0	20.905331900546116	ISI	1.0		11.0		baseline	0.0	115.43675039014306	0.09999577408234472
42.0	21.00532767462846	baseline	0.0		47.0		baseline	0.0	115.5367461642254	0.39997343709001143
42.0	21.00942741835661	pulse	0.0	t			baseline	0.0	115.54084590795355	
42.0	21.405301111718472	ISI	1.0		11.0		baseline	0.0	115.93671960131542	0.09999517037977057
43.0	21.505296282098243	baseline	0.0		48.0		baseline	0.0	116.03671477169519	0.39998490743710136
43.0	21.705409174466695	pulse	0.0	t			baseline	0.0	116.23682766406364	
43.0	21.905281189535344	ISI	1.0		11.0		baseline	0.0	116.43669967913229	0.09999667963620595
44.0	22.00527786917155	baseline	0.0		48.0		baseline	0.0	116.5366963587685	0.39999154816541704
44.0	22.405269417336967	ISI	1.0		11.0		baseline	0.0	116.93668790693391	0.09998520928820653
44.0	22.409794167630025	pulse	1.0	t			baseline	0.0	116.94121265722697	
45.0	22.505254626625174	baseline	0.0		48.0		baseline	0.0	117.03667311622212	0.39999698148767493
45.0	22.90525160811285	ISI	1.0		11.0		baseline	0.0	117.4366700977098	0.10000965923973126
46.0	23.00526126735258	baseline	0.0		48.0		baseline	0.0	117.53667975694952	0.3999701167258536
46.0	23.105370235655755	pulse	0.0	t			baseline	0.0	117.6367887252527	
46.0	23.405231384078434	ISI	1.0		11.0		baseline	0.0	117.93664987367538	0.10000211295937333
47.0	23.505233497037807	baseline	0.0		48.0		baseline	0.0	118.03665198663475	0.3999858129909626
47.0	23.80536027456401	pulse	0.0	t			baseline	0.0	118.33677876416095	
47.0	23.90521931002877	ISI	1.0		5.0		baseline	0.0	118.43663779962571	0.12499660417324776
48.0	24.030215914202017	car	0.0		45.0	object	car-25.jpg	0.0	118.56163440379896	0.374951477410832
48.0	24.40516739161285	ISI	1.0		7.0	object	car-25.jpg	0.0	118.9365858812098	0.11666430216519075
49.0	24.52183169377804	car	0.0		45.0	object	car-89.jpg	0.0	119.05325018337498	0.38332664229710645
49.0	24.513591758253824	pulse	0.0	t		object	car-89.jpg	0.0	119.04501024785077	
49.0	24.905158336075147	ISI	1.0		7.0	object	car-89.jpg	0.0	119.43657682567209	0.11669116692701209
50.0	25.02184950300216	car	0.0		46.0	object	car-43.jpg	0.0	119.5532679925991	0.3832472554177002
50.0	25.20522987482218	pulse	0.0	t		object	car-43.jpg	0.0	119.73664836441912	
50.0	25.40509675841986	ISI	1.0		7.0	object	car-43.jpg	0.0	119.9365152480168	0.11668422434740933
51.0	25.521780982767268	car	0.0		46.0	object	car-68.jpg	0.0	120.05319947236421	0.3833012867917205
51.0	25.90508226955899	ISI	1.0		7.0	object	car-68.jpg	0.0	120.43650075915593	0.1167002224647149
51.0	25.94307779612336	pulse	1.0	t		object	car-68.jpg	0.0	120.4744962857203	
52.0	26.021782492023704	car	0.0		46.0	object	car-137.jpg	0.0	120.55320098162065	0.383297362725898
52.0	26.4050798547496	ISI	1.0		7.0	object	car-137.jpg	0.0	120.93649834434655	0.11668543175255763
53.0	26.52176528650216	car	0.0		46.0	object	car-122.jpg	0.0	121.0531837760991	0.3832982682797592
53.0	26.605188219349657	pulse	0.0	t		object	car-122.jpg	0.0	121.1366067089466	
53.0	26.90506355478192	ISI	1.0		7.0	object	car-122.jpg	0.0	121.43648204437886	0.11668422434740933
54.0	27.021747779129328	car	0.0		46.0	object	car-45.jpg	0.0	121.55316626872627	0.38328860903948225
54.0	27.305152600901238	pulse	0.0	t		object	car-45.jpg	0.0	121.83657109049818	
54.0	27.40503638816881	ISI	1.0		6.0	object	car-45.jpg	0.0	121.93645487776575	0.11669448729026044
55.0	27.52173087545907	car	0.0		46.0	object	car-107.jpg	0.0	122.05314936505602	0.38330038123876875
55.0	27.90503125669784	ISI	1.0		7.0	object	car-107.jpg	0.0	122.43644974629478	0.11667999843029975
56.0	28.02171125512814	car	0.0		45.0	object	car-100.jpg	0.0	122.55312974472508	0.38330158864300756
56.0	28.013706763581467	pulse	0.0	t		object	car-100.jpg	0.0	122.54512525317841	
56.0	28.405012843771146	ISI	1.0		7.0	object	car-100.jpg	0.0	122.93643133336809	0.11668875211671548
57.0	28.521701595887862	car	0.0		46.0	object	car-119.jpg	0.0	123.0531200854848	0.3833061164114042
57.0	28.705109738023566	pulse	0.0	t		object	car-119.jpg	0.0	123.23652822762051	
57.0	28.905007712299266	ISI	1.0		6.0	object	car-119.jpg	0.0	123.43642620189621	0.11668422434831882
58.0	29.021691936647585	car	0.0		46.0	object	car-18.jpg	0.0	123.55311042624453	0.3832904201472047
58.0	29.40498235679479	ISI	1.0		7.0	object	car-18.jpg	0.0	123.93640084639173	0.11669448729026044
58.0	29.440297746076794	pulse	1.0	t		object	car-18.jpg	0.0	123.97171623567374	
59.0	29.52167684408505	car	0.0		46.0	object	car-64.jpg	0.0	124.053095333682	0.3832880053369081
59.0	29.904964849421958	ISI	1.0		6.0	object	car-64.jpg	0.0	124.4363833390189	0.11668754471156717
60.0	30.021652394133525	word	0.0		46.0	character	word-17.jpg	0.0	124.55307088373047	0.3832931368078789
60.0	30.105071704765578	pulse	0.0	t		character	word-17.jpg	0.0	124.63649019436252	
60.0	30.404945530941404	ISI	1.0		7.0	character	word-17.jpg	0.0	124.93636402053835	0.11668754471156717
61.0	30.52163307565297	word	0.0		46.0	character	word-138.jpg	0.0	125.05305156524992	0.38329917383362044
61.0	30.80503819927617	pulse	0.0	t		character	word-138.jpg	0.0	125.33645668887311	
61.0	30.904932249486592	ISI	1.0		8.0	character	word-138.jpg	0.0	125.43635073908354	0.11668603545513179
62.0	31.021618284941724	word	0.0		46.0	character	word-138.jpg	1.0	125.55303677453867	0.38331456824744237
62.0	31.404932853189166	ISI	1.0		7.0	character	word-138.jpg	1.0	125.93635134278611	0.11669569469540875
63.0	31.521628547884575	word	0.0		45.0	character	word-106.jpg	0.0	126.05304703748152	0.38329132570015645
63.0	31.513290208850776	pulse	0.0	t		character	word-106.jpg	0.0	126.04470869844772	
63.0	31.763417137302895	response	0.0	b		character	word-106.jpg	0.0	126.29483562689984	
63.0	31.90491987358473	ISI	1.0		7.0	character	word-106.jpg	0.0	126.43633836318168	0.11669961876214074
64.0	32.02161949234687	word	0.0		46.0	character	word-1.jpg	0.0	126.55303798194382	0.38324182209453284
64.0	32.20500620304301	pulse	0.0	t		character	word-1.jpg	0.0	126.73642469263996	
64.0	32.404861314441405	ISI	1.0		7.0	character	word-1.jpg	0.0	126.93627980403835	0.1167002224647149
65.0	32.52156153690612	word	0.0		46.0	character	word-116.jpg	0.0	127.05298002650306	0.3832922312540177
65.0	32.90485376816014	ISI	1.0		7.0	character	word-116.jpg	0.0	127.43627225775708	0.11669871320827951
65.0	32.93873838249965	pulse	1.0	t		character	word-116.jpg	0.0	127.4701568720966	
66.0	33.02155248136842	word	0.0		46.0	character	word-117.jpg	0.0	127.55297097096536	0.38328619422918564
66.0	33.4048386755976	ISI	1.0		7.0	character	word-117.jpg	0.0	127.93625716519455	0.11669750580313121
67.0	33.521536181400734	word	0.0		46.0	character	word-95.jpg	0.0	128.05295467099768	0.383297362725898
67.0	33.60504272704475	pulse	0.0	t		character	word-95.jpg	0.0	128.1364612166417	
67.0	33.90483354412663	ISI	1.0		6.0	character	word-95.jpg	0.0	128.43625203372358	0.11666852808230033
68.0	34.02150207220893	word	0.0		46.0	character	word-45.jpg	0.0	128.55292056180588	0.3833157756516812
68.0	34.304934664296525	pulse	0.0	t		character	word-45.jpg	0.0	128.83635315389347	
68.0	34.40481784786061	ISI	1.0		7.0	character	word-45.jpg	0.0	128.93623633745756	0.1166766780670514
69.0	34.521494525927665	word	0.0		46.0	character	word-121.jpg	0.0	129.0529130155246	0.3833076256678396
69.0	34.904802151595504	ISI	1.0		7.0	character	word-121.jpg	0.0	129.43622064119245	0.11667939472863509
70.0	35.02148154632414	word	0.0		45.0	character	word-32.jpg	0.0	129.55290003592108	0.38330551270883007
70.0	35.0132168589962	pulse	0.0	t		character	word-32.jpg	0.0	129.54463534859315	
70.0	35.40478705903297	ISI	1.0		7.0	character	word-32.jpg	0.0	129.9362055486299	0.11668331879445759
71.0	35.52147037782743	word	0.0		46.0	character	word-105.jpg	0.0	130.05288886742437	0.38328709978304687
71.0	35.70488063292214	pulse	0.0	t		character	word-105.jpg	0.0	130.23629912251909	
71.0	35.904757477610474	ISI	1.0		7.0	character	word-105.jpg	0.0	130.43617596720742	0.11668392249612225
72.0	36.021441400106596	adult	0.0		46.0	face	adult-136.jpg	0.0	130.55285988970354	0.3833127571397199
72.0	36.404754157246316	ISI	1.0		7.0	face	adult-136.jpg	0.0	130.93617264684326	0.1166558503300621
72.0	36.43894605616242	pulse	1.0	t		face	adult-136.jpg	0.0	130.97036454575937	
73.0	36.52141000757638	adult	0.0		46.0	face	adult-11.jpg	0.0	131.05282849717332	0.3833052108584525
73.0	36.90471521843483	ISI	1.0		7.0	face	adult-11.jpg	0.0	131.43613370803178	0.11670082616728905
74.0	37.02141604460212	adult	0.0		46.0	face	adult-33.jpg	0.0	131.55283453419906	0.3832904201462952
74.0	37.104872482937935	pulse	0.0	t		face	adult-33.jpg	0.0	131.63629097253488	
74.0	37.404706464748415	ISI	1.0		7.0	face	adult-33.jpg	0.0	131.93612495434536	0.11670897615113063
75.0	37.521415440899546	adult	0.0		46.0	face	adult-49.jpg	0.0	132.0528339304965	0.3832904201462952
75.0	37.80482418673728	pulse	0.0	t		face	adult-49.jpg	0.0	132.33624267633422	
75.0	37.90470586104584	ISI	1.0		7.0	face	adult-49.jpg	0.0	132.43612435064279	0.11668512990218005
76.0	38.02139099094802	adult	0.0		46.0	face	adult-60.jpg	0.0	132.55280948054497	0.3833230200816615
76.0	38.40471401102968	ISI	1.0		7.0	face	adult-60.jpg	0.0	132.93613250062663	0.11669388358768629
77.0	38.52140789461737	adult	0.0		45.0	face	adult-113.jpg	0.0	133.0528263842143	0.3832946460643143
77.0	38.513044200079094	pulse	0.0	t		face	adult-113.jpg	0.0	133.04446268967604	
77.0	38.90470254068168	ISI	1.0		7.0	face	adult-113.jpg	0.0	133.43612103027863	0.11668935581928963
78.0	39.02139189650097	adult	0.0		46.0	face	adult-105.jpg	0.0	133.55281038609792	0.3832409165415811
78.0	39.20477800349545	pulse	0.0	t		face	adult-105.jpg	0.0	133.7361964930924	
78.0	39.404632813042554	ISI	1.0		7.0	face	adult-105.jpg	0.0	133.9360513026395	0.1167080705972694
79.0	39.52134088363982	adult	0.0		46.0	face	adult-144.jpg	0.0	134.05275937323677	0.38329374051045306
79.0	39.904634624150276	ISI	1.0		7.0	face	adult-144.jpg	0.0	134.43605311374722	0.11667124474388402
79.0	39.93738337222203	pulse	1.0	t		face	adult-144.jpg	0.0	134.46880186181897	
80.0	40.02130586889416	adult	0.0		46.0	face	adult-6.jpg	0.0	134.5527243584911	0.38330339975073
80.0	40.40460926864489	ISI	1.0		6.0	face	adult-6.jpg	0.0	134.93602775824183	0.11668482804998348
81.0	40.521294096694874	adult	0.0		46.0	face	adult-91.jpg	0.0	135.05271258629182	0.3833118515858587
81.0	40.60473393321263	pulse	0.0	t		face	adult-91.jpg	0.0	135.13615242280957	
81.0	40.90460594828073	ISI	1.0		7.0	face	adult-91.jpg	0.0	135.43602443787768	0.11668241324059636
82.0	41.02128836152133	adult	0.0		46.0	face	adult-73.jpg	0.0	135.55270685111827	0.38330309789944295
82.0	41.30473755542789	pulse	0.0	t		face	adult-73.jpg	0.0	135.83615604502484	
82.0	41.40459145942077	ISI	1.0		7.0	face	adult-73.jpg	0.0	135.93600994901772	0.11668422434831882
83.0	41.52127568376909	adult	0.0		46.0	face	adult-118.jpg	0.0	136.05269417336604	0.38328740163342445
83.0	41.904563085402515	ISI	1.0		7.0	face	adult-118.jpg	0.0	136.43598157499946	0.11668784656376374
84.0	42.02125093196628	house	0.0		45.0	place	house-134.jpg	0.0	136.55266942156322	0.38328076090601826
84.0	42.01315165912547	pulse	0.0	t		place	house-134.jpg	0.0	136.5445701487224	
84.0	42.4045316928723	ISI	1.0		7.0	place	house-134.jpg	0.0	136.93595018246924	0.1166923743321604
85.0	42.52122406720446	house	0.0		46.0	place	house-71.jpg	0.0	137.0526425568014	0.3833218126774227
85.0	42.70466148891137	pulse	0.0	t		place	house-71.jpg	0.0	137.23607997850831	
85.0	42.90454587988188	ISI	1.0		6.0	place	house-71.jpg	0.0	137.43596436947882	0.11667999843029975
86.0	43.02122587831218	house	0.0		46.0	place	house-121.jpg	0.0	137.55264436790912	0.3832867979317598
86.0	43.40451267624394	ISI	1.0		7.0	place	house-121.jpg	0.0	137.93593116584088	0.11669810950479587
86.0	43.438059217179216	pulse	1.0	t		place	house-121.jpg	0.0	137.96947770677616	
87.0	43.521210785748735	house	0.0		46.0	place	house-73.jpg	0.0	138.05262927534568	0.38329494791560137
87.0	43.90450573366434	ISI	1.0		8.0	place	house-73.jpg	0.0	138.43592422326128	0.11668724286118959
88.0	44.021192976525526	house	0.0		46.0	place	house-119.jpg	0.0	138.55261146612247	0.38329766457627557
88.0	44.10461409826439	pulse	0.0	t		place	house-119.jpg	0.0	138.63603258786134	
88.0	44.4044906411018	ISI	1.0		7.0	place	house-119.jpg	0.0	138.93590913069875	0.1166872428602801
89.0	44.52117788396208	house	0.0		46.0	place	house-70.jpg	0.0	139.05259637355903	0.38327804424534406
89.0	44.80458300758528	pulse	0.0	t		place	house-70.jpg	0.0	139.33600149718222	
89.0	44.904455928207426	ISI	1.0		8.0	place	house-70.jpg	0.0	139.43587441780437	0.11668512990218005
90.0	45.021141058109606	house	0.0		46.0	place	house-34.jpg	0.0	139.55255954770655	0.38334747003318626
90.0	45.40448852814279	ISI	1.0		7.0	place	house-34.jpg	0.0	139.93590701773974	0.12501592265380168
91.0	45.529504450796594	house	0.0		44.0	place	house-37.jpg	0.0	140.06092294039354	0.3749701921888118
91.0	45.51521300133754	pulse	0.0	t		place	house-37.jpg	0.0	140.0466314909345	
91.0	45.904474642985406	ISI	1.0		7.0	place	house-37.jpg	0.0	140.43589313258235	0.11668482805089297
92.0	46.0211594710363	house	0.0		46.0	place	house-138.jpg	0.0	140.55257796063324	0.38326506464090926
92.0	46.20454618173244	pulse	0.0	t		place	house-138.jpg	0.0	140.73596467132938	
92.0	46.40442453567721	ISI	1.0		6.0	place	house-138.jpg	0.0	140.93584302527415	0.11668633730732836
93.0	46.521110872984536	house	0.0		46.0	place	house-48.jpg	0.0	141.05252936258148	0.3832961553198402
93.0	46.90440702830438	ISI	1.0		7.0	place	house-48.jpg	0.0	141.43582551790132	0.1166700373396452
93.0	46.94221842560455	pulse	1.0	t		place	house-48.jpg	0.0	141.4736369152015	
94.0	47.02107706564402	house	0.0		46.0	place	house-102.jpg	0.0	141.55249555524097	0.38331637935425533
94.0	47.40439344499828	ISI	1.0		8.0	place	house-102.jpg	0.0	141.93581193459522	0.11668301694317051
95.0	47.52107646194145	house	0.0		46.0	place	house-27.jpg	0.0	142.0524949515384	0.38328498682403733
95.0	47.6044957725735	pulse	0.0	t		place	house-27.jpg	0.0	142.13591426217044	
95.0	47.904361448765485	ISI	1.0		7.0	place	house-27.jpg	0.0	142.43577993836243	0.11669931691085367
96.0	48.02106076567634	house	0.0		46.0	place	house-54.jpg	0.0	142.55247925527328	0.38328076090601826
96.0	48.30446256893538	pulse	0.0	t		place	house-54.jpg	0.0	142.83588105853232	
96.0	48.40434152658236	ISI	1.0		7.0	place	house-54.jpg	0.0	142.9357600161793	0.11668633730732836
97.0	48.521027863889685	house	0.0		46.0	place	house-40.jpg	0.0	143.05244635348663	0.38329887198142387
97.0	48.90432673587111	ISI	1.0		7.0	place	house-40.jpg	0.0	143.43574522546805	0.11667999843029975
98.0	49.02100673430141	house	0.0		45.0	place	house-140.jpg	0.0	143.55242522389835	0.38330551270973956
98.0	49.01499536658321	pulse	0.0	t		place	house-140.jpg	0.0	143.54641385618015	
98.0	49.40431224701115	ISI	1.0		6.0	place	house-140.jpg	0.0	143.9357307366081	0.11670595763825986
99.0	49.52101820464941	house	0.0		46.0	place	house-31.jpg	0.0	144.05243669424635	0.38329253310530476
99.0	49.7044175930987	pulse	0.0	t		place	house-31.jpg	0.0	144.23583608269564	
99.0	49.90431073775471	ISI	1.0		6.0	place	house-31.jpg	0.0	144.43572922735166	0.11666641512420028
100.0	50.02097715287891	house	0.0		46.0	place	house-2.jpg	0.0	144.55239564247586	0.38331607750296826
100.0	50.40429323038188	ISI	1.0		7.0	place	house-2.jpg	0.0	144.93571171997883	0.11668362064574467
100.0	50.43779721029114	pulse	1.0	t		place	house-2.jpg	0.0	144.96921569988808	
101.0	50.520976851027626	house	0.0		46.0	place	house-82.jpg	0.0	145.05239534062457	0.38330068308914633
101.0	50.90427753411677	ISI	1.0		7.0	place	house-82.jpg	0.0	145.43569602371372	0.1166845261996059
102.0	51.02096206031638	house	0.0		46.0	place	house-14.jpg	0.0	145.55238054991332	0.3832973627249885
102.0	51.10438469131168	pulse	0.0	t		place	house-14.jpg	0.0	145.63580318090862	
102.0	51.40425942304137	ISI	1.0		8.0	place	house-14.jpg	0.0	145.9356779126383	0.11669539284503117
103.0	51.5209548158864	house	0.0		46.0	place	house-14.jpg	1.0	146.05237330548334	0.3832904201462952
103.0	51.80435299692999	pulse	0.0	t		place	house-14.jpg	1.0	146.33577148652694	
103.0	51.90424523603269	ISI	1.0		7.0	place	house-14.jpg	1.0	146.43566372562964	0.11666641512420028
104.0	52.020911651156894	house	0.0		46.0	place	house-55.jpg	0.0	146.55233014075384	0.38332784970225475
104.0	52.121046880518406	response	0.0	b		place	house-55.jpg	0.0	146.65246537011535	
104.0	52.40423950085915	ISI	1.0		7.0	place	house-55.jpg	0.0	146.9356579904561	0.11671893724178517
105.0	52.520958438100934	house	0.0		45.0	place	house-20.jpg	0.0	147.05237692769788	0.3832738183282345
105.0	52.51355613980559	pulse	0.0	t		place	house-20.jpg	0.0	147.04497462940253	
105.0	52.90423225642917	ISI	1.0		6.0	place	house-20.jpg	0.0	147.4356507460261	0.11669327988511213
106.0	53.02092553631428	house	0.0		46.0	place	house-52.jpg	0.0	147.55234402591122	0.3832668757486317
106.0	53.20430409702749	pulse	0.0	t		place	house-52.jpg	0.0	147.73572258662443	
106.0	53.40419241206291	ISI	1.0		7.0	place	house-52.jpg	0.0	147.93561090165986	0.11664951145394298
107.0	53.520841923516855	house	0.0		46.0	place	house-33.jpg	0.0	148.0522604131138	0.38331758675940364
107.0	53.90415951027626	ISI	1.0		6.0	place	house-33.jpg	0.0	148.4355779998732	0.11670444838273397
107.0	53.944940520210366	pulse	1.0	t		place	house-33.jpg	0.0	148.4763590098073	
108.0	54.02086395865899	body	0.0		46.0	body	body-19.jpg	0.0	148.55228244825594	0.3832759312863345
108.0	54.40413988994533	ISI	1.0		6.0	body	body-19.jpg	0.0	148.93555837954227	0.11669810950570536
109.0	54.52083799945103	body	0.0		46.0	body	body-13.jpg	0.0	149.05225648904798	0.3833073238165525
109.0	54.60425610267794	pulse	0.0	t		body	body-13.jpg	0.0	149.13567459227488	
109.0	54.904145323267585	ISI	1.0		6.0	body	body-13.jpg	0.0	149.43556381286453	0.11669116692701209
110.0	55.0208364901946	body	0.0		46.0	body	body-70.jpg	0.0	149.55225497979154	0.3832786479479182
110.0	55.30427874152156	pulse	0.0	t		body	body-70.jpg	0.0	149.8356972311185	
110.0	55.404115138142515	ISI	1.0		7.0	body	body-70.jpg	0.0	149.93553362773946	0.11668331879445759
111.0	55.52079845693697	body	0.0		46.0	body	body-37.jpg	0.0	150.05221694653392	0.3833100404781362
111.0	55.90410849741511	ISI	1.0		7.0	body	body-37.jpg	0.0	150.43552698701205	0.11667215029774525
112.0	56.020780647712854	body	0.0		45.0	body	body-125.jpg	0.0	150.5521991373098	0.383315171949107
112.0	56.012640926804124	pulse	0.0	t		body	body-125.jpg	0.0	150.54405941640107	
112.0	56.40409581966196	ISI	1.0		7.0	body	body-125.jpg	0.0	150.9355143092589	0.11668543175346713
113.0	56.52078125141543	body	0.0		46.0	body	body-94.jpg	0.0	151.05219974101237	0.38329887198142387
113.0	56.70419663798111	pulse	0.0	t		body	body-94.jpg	0.0	151.23561512757806	
113.0	56.90408012339685	ISI	1.0		7.0	body	body-94.jpg	0.0	151.4354986129938	0.11668543175346713
114.0	57.02076555515032	body	0.0		46.0	body	body-143.jpg	0.0	151.55218404474726	0.38328619422918564
114.0	57.404051749379505	ISI	1.0		6.0	body	body-143.jpg	0.0	151.93547023897645	0.11671410762119194
114.0	57.44685304975428	pulse	1.0	t		body	body-143.jpg	0.0	151.97827153935123	
115.0	57.5207658570007	body	0.0		46.0	body	body-87.jpg	0.0	152.05218434659764	0.38327925165049237
115.0	57.90404510865119	ISI	1.0		7.0	body	body-87.jpg	0.0	152.43546359824813	0.11668603545604128
116.0	58.02073114410723	body	0.0		46.0	body	body-72.jpg	0.0	152.55214963370418	0.383283779418889
116.0	58.10415468065639	pulse	0.0	t		body	body-72.jpg	0.0	152.63557317025334	
116.0	58.40401492352612	ISI	1.0		8.0	body	body-72.jpg	0.0	152.93543341312306	0.11668392249703174
117.0	58.52069884602315	body	0.0		46.0	body	body-72.jpg	1.0	153.0521173356201	0.3833154738003941
117.0	58.804113930737	pulse	0.0	t		body	body-72.jpg	1.0	153.33553242033395	
117.0	58.904014319823546	ISI	1.0		7.0	body	body-72.jpg	1.0	153.4354328094205	0.11668784656285425
118.0	59.0207021663864	body	0.0		46.0	body	body-27.jpg	0.0	153.55212065598334	0.3832982682797592
118.0	59.33746728687038	response	0.0	b		body	body-27.jpg	0.0	153.86888577646732	
118.0	59.40400043466616	ISI	1.0		7.0	body	body-27.jpg	0.0	153.9354189242631	0.11669478914154752
119.0	59.52069522380771	body	0.0		45.0	body	body-16.jpg	0.0	154.05211371340465	0.3833218126774227
119.0	59.512564860287966	pulse	0.0	t		body	body-16.jpg	0.0	154.0439833498849	
119.0	59.90401703648513	ISI	1.0		7.0	body	body-16.jpg	0.0	154.43543552608207	0.11668422434740933
120.0	60.02070126083254	adult	0.0		46.0	face	adult-35.jpg	0.0	154.55211975042948	0.3832617442776609
120.0	60.20408706597573	pulse	0.0	t		face	adult-35.jpg	0.0	154.73550555557267	
120.0	60.4039630051102	ISI	1.0		6.0	face	adult-35.jpg	0.0	154.93538149470714	0.11668694100990251
121.0	60.5206499461201	adult	0.0		46.0	face	adult-47.jpg	0.0	155.05206843571705	0.38330672011397837
121.0	60.90395666623408	ISI	1.0		7.0	face	adult-47.jpg	0.0	155.43537515583103	0.1166872428602801
121.0	60.94260479520926	pulse	1.0	t		face	adult-47.jpg	0.0	155.4740232848062	
122.0	61.02064390909436	adult	0.0		46.0	face	adult-59.jpg	0.0	155.5520623986913	0.3832895145933435
122.0	61.403933423687704	ISI	1.0		8.0	face	adult-59.jpg	0.0	155.93535191328465	0.11666732067806151
123.0	61.520600744365765	adult	0.0		46.0	face	adult-96.jpg	0.0	156.0520192339627	0.383315171949107
123.0	61.604031827196195	pulse	0.0	t		face	adult-96.jpg	0.0	156.13545031679314	
123.0	61.90391591631487	ISI	1.0		6.0	face	adult-96.jpg	0.0	156.43533440591182	0.11668603545513179
124.0	62.020601951770004	adult	0.0		46.0	face	adult-110.jpg	0.0	156.55202044136695	0.3832970608746109
124.0	62.3040185457412	pulse	0.0	t		face	adult-110.jpg	0.0	156.83543703533815	
124.0	62.403899012644615	ISI	1.0		7.0	face	adult-110.jpg	0.0	156.93531750224156	0.11668754471156717
125.0	62.52058655735618	adult	0.0		46.0	face	adult-86.jpg	0.0	157.05200504695313	0.38329494791560137
125.0	62.903881505271784	ISI	1.0		6.0	face	adult-86.jpg	0.0	157.43529999486873	0.11668030028158682
126.0	63.02056180555337	adult	0.0		45.0	face	adult-143.jpg	0.0	157.55198029515032	0.38330309789944295
126.0	63.012253349794264	pulse	0.0	t		face	adult-143.jpg	0.0	157.5436718393912	
126.0	63.40386490345281	ISI	1.0		7.0	face	adult-143.jpg	0.0	157.93528339304976	0.11666943363707105
127.0	63.520534337089885	adult	0.0		46.0	face	adult-3.jpg	0.0	158.05195282668683	0.38331456824653287
127.0	63.703957269936836	pulse	0.0	t		face	adult-3.jpg	0.0	158.23537575953378	
127.0	63.90384890533642	ISI	1.0		7.0	face	adult-3.jpg	0.0	158.43526739493336	0.11667094289259694
128.0	64.02051984822901	adult	0.0		46.0	face	adult-7.jpg	0.0	158.55193833782596	0.38330702196617494
128.0	64.40382687019519	ISI	1.0		6.0	face	adult-7.jpg	0.0	158.93524535979213	0.11669660024926998
128.0	64.444750957623	pulse	1.0	t		face	adult-7.jpg	0.0	158.97616944721995	
129.0	64.52052347044446	adult	0.0		46.0	face	adult-83.jpg	0.0	159.0519419600414	0.3832931368078789
129.0	64.90381660725234	ISI	1.0		7.0	face	adult-83.jpg	0.0	159.43523509684928	0.11668482805089297
130.0	65.02050143530323	adult	0.0		46.0	face	adult-93.jpg	0.0	159.55191992490018	0.38330038123785926
130.0	65.10391712371984	pulse	0.0	t		face	adult-93.jpg	0.0	159.63533561331678	
130.0	65.40380181654109	ISI	1.0		6.0	face	adult-93.jpg	0.0	159.93522030613804	0.11668241324059636
131.0	65.52048422978169	adult	0.0		46.0	face	adult-120.jpg	0.0	160.05190271937863	0.383277742394057
131.0	65.80389025895875	pulse	0.0	t		face	adult-120.jpg	0.0	160.3353087485557	
131.0	65.90376197217574	ISI	1.0		6.0	face	adult-120.jpg	0.0	160.4351804617727	0.10837395748058043
132.0	66.01213592965632	word	0.0		47.0	character	word-102.jpg	0.0	160.54355441925327	0.39166317022318253
132.0	66.4037990998795	ISI	1.0		6.0	character	word-102.jpg	0.0	160.93521758947645	0.11668150768673513
133.0	66.52048060756624	word	0.0		45.0	character	word-140.jpg	0.0	161.0518990971632	0.3832864960804727
133.0	66.50753028322742	pulse	0.0	t		character	word-140.jpg	0.0	161.03894877282437	
133.0	66.90376710364671	ISI	1.0		5.0	character	word-140.jpg	0.0	161.43518559324366	0.11670565578697278
134.0	67.02047275943369	word	0.0		46.0	character	word-82.jpg	0.0	161.55189124903063	0.38329374051045306
134.0	67.20387818490781	pulse	0.0	t		character	word-82.jpg	0.0	161.73529667450475	
134.0	67.40376649994414	ISI	1.0		6.0	character	word-82.jpg	0.0	161.93518498954109	0.11668935581928963
135.0	67.52045585576343	word	0.0		46.0	character	word-104.jpg	0.0	162.05187434536037	0.38329404236174014
135.0	67.90374989812517	ISI	1.0		6.0	character	word-104.jpg	0.0	162.43516838772211	0.11669116692701209
135.0	67.95115020420235	pulse	1.0	t		character	word-104.jpg	0.0	162.4825686937993	
136.0	68.02044106505218	word	0.0		46.0	character	word-39.jpg	0.0	162.55185955464913	0.3832922312540177
136.0	68.4037332963062	ISI	1.0		5.0	character	word-39.jpg	0.0	162.93515178590314	0.11669388358859578
137.0	68.5204271798948	word	0.0		46.0	character	word-127.jpg	0.0	163.05184566949174	0.38329102384886937
137.0	68.60384105720368	pulse	0.0	t		character	word-127.jpg	0.0	163.13525954680063	
137.0	68.90371820374367	ISI	1.0		6.0	character	word-127.jpg	0.0	163.4351366933406	0.11668814841414132
138.0	69.0204063521578	word	0.0		46.0	character	word-14.jpg	0.0	163.55182484175475	0.38329404236174014
138.0	69.30381811650841	pulse	0.0	t		character	word-14.jpg	0.0	163.83523660610535	
138.0	69.40370039451955	ISI	1.0		5.0	character	word-14.jpg	0.0	163.9351188841165	0.11668211138930928
139.0	69.52038250590886	word	0.0		46.0	character	word-90.jpg	0.0	164.0518009955058	0.38330158864300756
139.0	69.90368409455186	ISI	1.0		7.0	character	word-90.jpg	0.0	164.4351025841488	0.11668211138930928
140.0	70.02036620594117	word	0.0		45.0	character	word-90.jpg	1.0	164.55178469553812	0.38330279604815587
140.0	70.01096897270963	pulse	0.0	t		character	word-90.jpg	1.0	164.54238746230658	
140.0	70.40366900198933	ISI	1.0		6.0	character	word-90.jpg	1.0	164.93508749158627	0.11666218920618121
141.0	70.52033119119551	word	0.0		46.0	character	word-57.jpg	0.0	165.05174968079245	0.3832892127420564
141.0	70.63706854136399	response	0.0	b		character	word-57.jpg	0.0	165.16848703096093	
141.0	70.70371277042068	pulse	0.0	t		character	word-57.jpg	0.0	165.23513126001762	
141.0	70.90362040393757	ISI	1.0		6.0	character	word-57.jpg	0.0	165.4350388935345	0.11668090398416098
142.0	71.02030130792173	word	0.0		46.0	character	word-54.jpg	0.0	165.55171979751867	0.3833024941968688
142.0	71.4036038021186	ISI	1.0		7.0	character	word-54.jpg	0.0	165.93502229171554	0.11668814841414132
142.0	71.4375044145745	pulse	1.0	t		character	word-54.jpg	0.0	165.96892290417145	
143.0	71.52029195053274	word	0.0		46.0	character	word-91.jpg	0.0	166.05171044012968	0.3832825720137407
143.0	71.90357452254648	ISI	1.0		11.0	character	word-91.jpg	0.0	166.43499301214342	0.0999960759345413
144.0	72.00357059848102	baseline	0.0		48.0		baseline	0.0	166.53498908807796	0.3999858129909626
144.0	72.10370341303224	pulse	0.0	t			baseline	0.0	166.63512190262918	
144.0	72.40355641147198	ISI	1.0		11.0		baseline	0.0	166.93497490106893	0.0999909444617515
145.0	72.50354735593373	baseline	0.0		48.0		baseline	0.0	167.03496584553068	0.4000075462818131
145.0	72.8036886223208	pulse	0.0	t			baseline	0.0	167.33510711191775	
145.0	72.90355490221555	ISI	1.0		11.0		baseline	0.0	167.4349733918125	0.09999698148749303
146.0	73.00355188370304	baseline	0.0		48.0		baseline	0.0	167.53497037329998	0.39997464449425024
146.0	73.40352652819729	ISI	1.0		11.0		baseline	0.0	167.93494501779423	0.10000724443034414
147.0	73.50353377262763	baseline	0.0		47.0		baseline	0.0	168.03495226222458	0.3999855111396755
147.0	73.50777538644525	pulse	0.0	t			baseline	0.0	168.0391938760422	
147.0	73.90351928376731	ISI	1.0		11.0		baseline	0.0	168.43493777336425	0.09999758519006718
148.0	74.00351686895738	baseline	0.0		48.0		baseline	0.0	168.53493535855432	0.3999882278012592
148.0	74.20362191319418	pulse	0.0	t			baseline	0.0	168.73504040279113	
148.0	74.40350509675864	ISI	1.0		11.0		baseline	0.0	168.93492358635558	0.09999698148749303
149.0	74.50350207824613	baseline	0.0		48.0		baseline	0.0	169.03492056784307	0.3999870203961109
149.0	74.90348909864224	ISI	1.0		11.0		baseline	0.0	169.43490758823918	0.09998581299078069
149.0	74.90810289505589	pulse	1.0	t			baseline	0.0	169.43952138465283	
150.0	75.00347491163302	baseline	0.0		48.0		baseline	0.0	169.53489340122997	0.39999909444668447
150.0	75.4034740060797	ISI	1.0		11.0		baseline	0.0	169.93489249567665	0.09999667963620595
151.0	75.50347068571591	baseline	0.0		48.0		baseline	0.0	170.03488917531286	0.39997977596613055
151.0	75.60357572995235	pulse	0.0	t			baseline	0.0	170.1349942195493	
151.0	75.90345046168204	ISI	1.0		11.0		baseline	0.0	170.434868951279	0.10000905553715711
152.0	76.0034595172192	baseline	0.0		48.0		baseline	0.0	170.53487800681614	0.39994596862561593
152.0	76.30355158185193	pulse	0.0	t			baseline	0.0	170.83497007144888	
152.0	76.40340548584481	ISI	1.0		11.0		baseline	0.0	170.93482397544176	0.10001660181933403
153.0	76.50342208766415	baseline	0.0		48.0		baseline	0.0	171.0348405772611	0.4000721424490621
153.0	76.90349423011321	ISI	1.0		11.0		baseline	0.0	171.43491271971016	0.09998400188396772
154.0	77.00347823199718	baseline	0.0		47.0		baseline	0.0	171.53489672159412	0.39999698148767493
154.0	77.00782790856374	pulse	0.0	t			baseline	0.0	171.53924639816069	
154.0	77.40347521348485	ISI	1.0		11.0		baseline	0.0	171.9348937030818	0.10000573517299927
155.0	77.50348094865785	baseline	0.0		48.0		baseline	0.0	172.0348994382548	0.39997856856098224
155.0	77.70357572995181	pulse	0.0	t			baseline	0.0	172.23499421954875	
155.0	77.90345951721883	ISI	1.0		7.0		baseline	0.0	172.43487800681578	0.11663472074269521
156.0	78.02009423796153	body	0.0		46.0	body	body-114.jpg	0.0	172.55151272755847	0.3832789497992053
156.0	78.40337318776074	ISI	1.0		6.0	body	body-114.jpg	0.0	172.93479167735768	0.11668603545513179
156.0	78.44620527696406	pulse	1.0	t		body	body-114.jpg	0.0	172.977623766561	
157.0	78.52005922321587	body	0.0		46.0	body	body-6.jpg	0.0	173.0514777128128	0.38329917383362044
157.0	78.90335839704949	ISI	1.0		7.0	body	body-6.jpg	0.0	173.43477688664643	0.11668150768673513
158.0	79.02003990473622	body	0.0		46.0	body	body-65.jpg	0.0	173.55145839433317	0.383299475683998
158.0	79.10345438574768	pulse	0.0	t		body	body-65.jpg	0.0	173.63487287534463	
158.0	79.40333938042022	ISI	1.0		7.0	body	body-65.jpg	0.0	173.93475787001717	0.11666852808320982
159.0	79.52000790850343	body	0.0		46.0	body	body-65.jpg	1.0	174.05142639810038	0.38331336084138456
159.0	79.80343567097043	pulse	0.0	t		body	body-65.jpg	1.0	174.33485416056737	
159.0	79.90332126934481	ISI	1.0		5.0	body	body-65.jpg	1.0	174.43473975894176	0.11670203357243736
160.0	80.02002330291725	body	0.0		46.0	body	body-21.jpg	0.0	174.5514417925142	0.3832683850050671
160.0	80.1201850951893	response	0.0	b		body	body-21.jpg	0.0	174.65160358478624	
160.0	80.40329168792232	ISI	1.0		7.0	body	body-21.jpg	0.0	174.93471017751926	0.11668211138930928
161.0	80.51997379931163	body	0.0		45.0	body	body-7.jpg	0.0	175.05139228890857	0.3833181904619778
161.0	80.51182804137807	pulse	0.0	t		body	body-7.jpg	0.0	175.043246530975	
161.0	80.9032919897736	ISI	1.0		7.0	body	body-7.jpg	0.0	175.43471047937055	0.1166884502654284
162.0	81.01998044003903	body	0.0		46.0	body	body-107.jpg	0.0	175.55139892963598	0.38329675902332383
162.0	81.20338677106702	pulse	0.0	t		body	body-107.jpg	0.0	175.73480526066396	
162.0	81.40327719906236	ISI	1.0		6.0	body	body-107.jpg	0.0	175.9346956886593	0.11668271509097394
163.0	81.51995991415333	body	0.0		46.0	body	body-93.jpg	0.0	176.05137840375028	0.3832880053369081
163.0	81.90324791949024	ISI	1.0		7.0	body	body-93.jpg	0.0	176.43466640908719	0.1166962983979829
163.0	81.94188729477901	pulse	1.0	t		body	body-93.jpg	0.0	176.47330578437595	
164.0	82.01994421788822	body	0.0		46.0	body	body-130.jpg	0.0	176.55136270748517	0.38328227016336314
164.0	82.40322648805159	ISI	1.0		6.0	body	body-130.jpg	0.0	176.93464497764853	0.11671712613406271
165.0	82.51994361418565	body	0.0		46.0	body	body-82.jpg	0.0	177.0513621037826	0.38326144242637383
165.0	82.60335326557833	pulse	0.0	t		body	body-82.jpg	0.0	177.13477175517528	
165.0	82.90320505661202	ISI	1.0		6.0	body	body-82.jpg	0.0	177.43462354620897	0.11669026137315086
166.0	83.01989531798517	body	0.0		46.0	body	body-44.jpg	0.0	177.55131380758212	0.38331456824744237
166.0	83.30332821192405	pulse	0.0	t		body	body-44.jpg	0.0	177.834746701521	
166.0	83.40320988623262	ISI	1.0		7.0	body	body-44.jpg	0.0	177.93462837582956	0.11668875211671548
167.0	83.51989863834933	body	0.0		46.0	body	body-89.jpg	0.0	178.05131712794628	0.383293438659166
167.0	83.9031920770085	ISI	1.0		7.0	body	body-89.jpg	0.0	178.43461056660544	0.1166806021328739
168.0	84.01987267914137	house	0.0		45.0	place	house-117.jpg	0.0	178.55129116873832	0.3833353959835222
168.0	84.01172178973684	pulse	0.0	t		place	house-117.jpg	0.0	178.54314027933378	
168.0	84.4032080751249	ISI	1.0		6.0	place	house-117.jpg	0.0	178.93462656472184	0.11668965767057671
169.0	84.51989773279547	house	0.0		46.0	place	house-128.jpg	0.0	179.05131622239242	0.38326385723667045
169.0	84.70330406382345	pulse	0.0	t		place	house-128.jpg	0.0	179.2347225534204	
169.0	84.90316159003214	ISI	1.0		7.0	place	house-128.jpg	0.0	179.4345800796291	0.11668422434740933
170.0	85.01984581437955	house	0.0		46.0	place	house-125.jpg	0.0	179.5512643039765	0.3832867979317598
170.0	85.40313261231131	ISI	1.0		6.0	place	house-125.jpg	0.0	179.93455110190826	0.11668120583544805
170.0	85.44507605142371	pulse	1.0	t		place	house-125.jpg	0.0	179.97649454102066	
171.0	85.51981381814676	house	0.0		46.0	place	house-101.jpg	0.0	180.0512323077437	0.383313058991007
171.0	85.90312687713777	ISI	1.0		6.0	place	house-101.jpg	0.0	180.4345453667347	0.1083495075299652
172.0	86.01147638466773	house	0.0		47.0	place	house-97.jpg	0.0	180.54289487426468	0.3916363054613612
172.0	86.10323282692752	pulse	0.0	t		place	house-97.jpg	0.0	180.63465131652447	
172.0	86.40311269012909	ISI	1.0		7.0	place	house-97.jpg	0.0	180.93453117972604	0.10835131863677816
173.0	86.51146400876587	house	0.0		47.0	place	house-97.jpg	1.0	181.04288249836281	0.3916320795442516
173.0	86.80321079178611	pulse	0.0	t		place	house-97.jpg	1.0	181.33462928138306	
173.0	86.90309608831012	ISI	1.0		6.0	place	house-97.jpg	1.0	181.43451457790707	0.11668663915770594
174.0	87.01978272746783	house	0.0		46.0	place	house-127.jpg	0.0	181.55120121706477	0.3832958534694626
174.0	87.17819728394261	response	0.0	b		place	house-127.jpg	0.0	181.70961577353955	
174.0	87.40307858093729	ISI	1.0		7.0	place	house-127.jpg	0.0	181.93449707053423	0.11666037809845875
175.0	87.51973895903575	house	0.0		45.0	place	house-85.jpg	0.0	182.0511574486327	0.38332271823128394
175.0	87.50959253099245	pulse	0.0	t		place	house-85.jpg	0.0	182.0410110205894	
175.0	87.90306167726703	ISI	1.0		6.0	place	house-85.jpg	0.0	182.43448016686398	0.11668754471156717
176.0	88.0197492219786	house	0.0		46.0	place	house-77.jpg	0.0	182.55116771157554	0.3832828738650278
176.0	88.2031688344623	pulse	0.0	t		place	house-77.jpg	0.0	182.73458732405925	
176.0	88.40303209584363	ISI	1.0		6.0	place	house-77.jpg	0.0	182.93445058544057	0.11670233542372443
177.0	88.51973443126735	house	0.0		46.0	place	house-89.jpg	0.0	183.0511529208643	0.38327925165049237
177.0	88.90301368291784	ISI	1.0		6.0	place	house-89.jpg	0.0	183.4344321725148	0.1166884502654284
177.0	88.94850930758366	pulse	1.0	t		place	house-89.jpg	0.0	183.4799277971806	
178.0	89.01970213318327	house	0.0		46.0	place	house-10.jpg	0.0	183.55112062278022	0.38331094603199745
178.0	89.40301307921527	ISI	1.0		7.0	place	house-10.jpg	0.0	183.93443156881222	0.10835011123162985
179.0	89.5113631904469	house	0.0		47.0	place	house-9.jpg	0.0	184.04278168004384	0.3916571331983505
179.0	89.60312084011275	pulse	0.0	t		place	house-9.jpg	0.0	184.1345393297097	
179.0	89.90302032364525	ISI	1.0		6.0	place	house-9.jpg	0.0	184.4344388132422	0.10830845575856074
180.0	90.01132877940381	car	0.0		47.0	object	car-58.jpg	0.0	184.54274726900076	0.3916541146854797
180.0	90.30317909740461	pulse	0.0	t		object	car-58.jpg	0.0	184.83459758700155	
180.0	90.40298289408929	ISI	1.0		5.0	object	car-58.jpg	0.0	184.93440138368624	0.11669841135699244
181.0	90.51968130544628	car	0.0		46.0	object	car-108.jpg	0.0	185.05109979504323	0.38330460715587833
181.0	90.90298591260216	ISI	1.0		6.0	object	car-108.jpg	0.0	185.4344044021991	0.11669026137315086
182.0	91.01967617397531	car	0.0		45.0	object	car-8.jpg	0.0	185.55109466357226	0.38329917383271095
182.0	91.00954393294069	pulse	0.0	t		object	car-8.jpg	0.0	185.54096242253763	
182.0	91.40297534780802	ISI	1.0		7.0	object	car-8.jpg	0.0	185.93439383740497	0.11667396140546771
183.0	91.51964930921349	car	0.0		46.0	object	car-117.jpg	0.0	186.05106779881044	0.38328076090692775
183.0	91.70304477359696	pulse	0.0	t		object	car-117.jpg	0.0	186.2344632631939	
183.0	91.90293007012042	ISI	1.0		7.0	object	car-117.jpg	0.0	186.43434855971736	0.11666913178487448
184.0	92.0195992019053	car	0.0		46.0	object	car-60.jpg	0.0	186.55101769150224	0.3833000793865722
184.0	92.40289928129187	ISI	1.0		7.0	object	car-60.jpg	0.0	186.9343177708888	0.11669841135699244
184.0	92.4380957411804	pulse	1.0	t		object	car-60.jpg	0.0	186.96951423077735	
185.0	92.51959769264886	car	0.0		46.0	object	car-2.jpg	0.0	187.0510161822458	0.38329796642847214
185.0	92.90289565907733	ISI	1.0		6.0	object	car-2.jpg	0.0	187.43431414867428	0.11668995952186378
186.0	93.0195856185992	car	0.0		46.0	object	car-95.jpg	0.0	187.55100410819614	0.3832907219975823
186.0	93.10298591260198	pulse	0.0	t		object	car-95.jpg	0.0	187.63440440219892	
186.0	93.40287634059678	ISI	1.0		7.0	object	car-95.jpg	0.0	187.93429483019372	0.11668965767057671
187.0	93.51956599826735	car	0.0		46.0	object	car-133.jpg	0.0	188.0509844878643	0.38328709978304687
187.0	93.80297957372568	pulse	0.0	t		object	car-133.jpg	0.0	188.33439806332262	
187.0	93.9028530980504	ISI	1.0		8.0	object	car-133.jpg	0.0	188.43427158764734	0.11668090398416098
188.0	94.01953400203456	car	0.0		46.0	object	car-70.jpg	0.0	188.5509524916315	0.3833157756516812
188.0	94.40284977768624	ISI	1.0		6.0	object	car-70.jpg	0.0	188.9342682672832	0.11666430216519075
189.0	94.51951407985143	car	0.0		45.0	object	car-143.jpg	0.0	189.05093256944838	0.38331728490902606
189.0	94.5110356818368	pulse	0.0	t		object	car-143.jpg	0.0	189.04245417143375	
189.0	94.90283136476046	ISI	1.0		6.0	object	car-143.jpg	0.0	189.4342498543574	0.11666973548744863
190.0	95.01950110024791	car	0.0		46.0	object	car-31.jpg	0.0	189.55091958984485	0.3833142663961553
190.0	95.20292674975644	pulse	0.0	t		object	car-31.jpg	0.0	189.7343452393534	
190.0	95.40281536664406	ISI	1.0		7.0	object	car-31.jpg	0.0	189.934233856241	0.11668694100899302
191.0	95.51950230765306	car	0.0		46.0	object	car-73.jpg	0.0	190.05092079725	0.38328589237789856
191.0	95.90278820003095	ISI	1.0		6.0	object	car-73.jpg	0.0	190.4342066896279	0.11669901505956659
191.0	95.94856152785087	pulse	1.0	t		object	car-73.jpg	0.0	190.47998001744782	
192.0	96.01948721509052	body	0.0		46.0	body	body-68.jpg	0.0	190.55090570468747	0.3832958534694626
192.0	96.40278306855998	ISI	1.0		6.0	body	body-68.jpg	0.0	190.93420155815693	0.11666913178487448
193.0	96.51945220034486	body	0.0		46.0	body	body-48.jpg	0.0	191.0508706899418	0.383293438659166
193.0	96.6028808683659	pulse	0.0	t		body	body-48.jpg	0.0	191.13429935796285	
193.0	96.90274563900402	ISI	1.0		6.0	body	body-48.jpg	0.0	191.43416412860097	0.11670535393568571
194.0	97.01945099293971	body	0.0		46.0	body	body-126.jpg	0.0	191.55086948253665	0.383297362725898
194.0	97.30286456839804	pulse	0.0	t		body	body-126.jpg	0.0	191.83428305799498	
194.0	97.40274835566561	ISI	1.0		7.0	body	body-126.jpg	0.0	191.93416684526255	0.11667033919002279
195.0	97.51941869485563	body	0.0		46.0	body	body-101.jpg	0.0	192.05083718445258	0.3833468663315216
195.0	97.90276556118715	ISI	1.0		6.0	body	body-101.jpg	0.0	192.4341840507841	0.11667818732257729
196.0	98.01944374850973	body	0.0		45.0	body	body-26.jpg	0.0	192.55086223810667	0.3833073238165525
196.0	98.00969968818754	pulse	0.0	t		body	body-26.jpg	0.0	192.54111817778448	
196.0	98.40275107232628	ISI	1.0		6.0	body	body-26.jpg	0.0	192.93416956192323	0.11666913178578397
197.0	98.51942020411207	body	0.0		46.0	body	body-78.jpg	0.0	193.050838693709	0.3832641590879575
197.0	98.70282442218104	pulse	0.0	t		body	body-78.jpg	0.0	193.23424291177798	
197.0	98.90268436320002	ISI	1.0		7.0	body	body-78.jpg	0.0	193.43410285279697	0.1167186353904981
198.0	99.01940299859052	body	0.0		46.0	body	body-11.jpg	0.0	193.55082148818747	0.3832813646095019
198.0	99.40268436320002	ISI	1.0		7.0	body	body-11.jpg	0.0	193.93410285279697	0.11668633730641886
198.0	99.43886516002658	pulse	1.0	t		body	body-11.jpg	0.0	193.97028364962352	
199.0	99.51937070050644	body	0.0		46.0	body	body-32.jpg	0.0	194.0507891901034	0.383297362725898
199.0	99.90266806323234	ISI	1.0		7.0	body	body-32.jpg	0.0	194.43408655282929	0.11668784656285425
200.0	100.0193559097952	body	0.0		46.0	body	body-133.jpg	0.0	194.55077439939214	0.38328106275730534
200.0	100.10277763523663	pulse	0.0	t		body	body-133.jpg	0.0	194.63419612483358	
200.0	100.4026369725525	ISI	1.0		6.0	body	body-133.jpg	0.0	194.93405546214944	0.11669901505956659
201.0	100.51933598761207	body	0.0		46.0	body	body-23.jpg	0.0	195.050754477209	0.3832985701310463
201.0	100.80275318528584	pulse	0.0	t		body	body-23.jpg	0.0	195.33417167488278	
201.0	100.90263455774311	ISI	1.0		6.0	body	body-23.jpg	0.0	195.43405304734006	0.11667456510713237
202.0	101.01930912285025	body	0.0		46.0	body	body-108.jpg	0.0	195.5507276124472	0.38331064418071037
202.0	101.40261976703096	ISI	1.0		7.0	body	body-108.jpg	0.0	195.9340382566279	0.1166778854721997
203.0	101.51929765250316	body	0.0		45.0	body	body-105.jpg	0.0	196.0507161421001	0.3833040034533042
203.0	101.50929098159031	pulse	0.0	t		body	body-105.jpg	0.0	196.04070947118726	
203.0	101.90260165595646	ISI	1.0		7.0	body	body-105.jpg	0.0	196.4340201455534	0.1166833187935481
204.0	102.01928497475001	body	0.0		46.0	body	body-42.jpg	0.0	196.55070346434695	0.3832943442130272
204.0	102.20269522984472	pulse	0.0	t		body	body-42.jpg	0.0	196.73411371944167	
204.0	102.40257931896303	ISI	1.0		7.0	body	body-42.jpg	0.0	196.93399780855998	0.11669388358859578
205.0	102.51927320255163	body	0.0		46.0	body	body-24.jpg	0.0	197.05069169214858	0.38328468497275026
205.0	102.90255788752438	ISI	1.0		6.0	body	body-24.jpg	0.0	197.43397637712133	0.11669810950570536
205.0	102.94750112439579	pulse	1.0	t		body	body-24.jpg	0.0	197.47891961399273	
206.0	103.01925599703009	body	0.0		46.0	body	body-91.jpg	0.0	197.55067448662703	0.38329675902332383
206.0	103.40255275605341	ISI	1.0		7.0	body	body-91.jpg	0.0	197.93397124565035	0.11667003733873571
207.0	103.51922279339215	body	0.0		46.0	body	body-84.jpg	0.0	198.0506412829891	0.3833139645439587
207.0	103.60273688531743	pulse	0.0	t		body	body-84.jpg	0.0	198.13415537491437	
207.0	103.9025367579361	ISI	1.0		7.0	body	body-84.jpg	0.0	198.43395524753305	0.11669026137315086
208.0	104.01922701930926	body	0.0		46.0	body	body-81.jpg	0.0	198.5506455089062	0.3832726109230862
208.0	104.3026242947999	pulse	0.0	t		body	body-81.jpg	0.0	198.83404278439684	
208.0	104.40249963023234	ISI	1.0		7.0	body	body-81.jpg	0.0	198.9339181198293	0.11667999843029975
209.0	104.51917962866264	body	0.0		46.0	body	body-81.jpg	1.0	199.0505981182596	0.3833556200179373
209.0	104.90253524868058	ISI	1.0		7.0	body	body-81.jpg	1.0	199.43395373827752	0.11667788547129021
210.0	105.01921313415187	body	0.0		45.0	body	body-3.jpg	0.0	199.5506316237488	0.3833064182636008
210.0	105.0091639022121	pulse	0.0	t		body	body-3.jpg	0.0	199.54058239180904	
210.0	105.20263697255268	response	0.0	b		body	body-3.jpg	0.0	199.73405546214963	
210.0	105.40251955241547	ISI	1.0		7.0	body	body-3.jpg	0.0	199.93393804201241	0.1166872428602801
211.0	105.51920679527575	body	0.0		46.0	body	body-57.jpg	0.0	200.0506252848727	0.3832985701301368
211.0	105.70261765407213	pulse	0.0	t		body	body-57.jpg	0.0	200.23403614366907	
211.0	105.90250536540589	ISI	1.0		7.0	body	body-57.jpg	0.0	200.43392385500283	0.11668694100990251
212.0	106.01919230641579	body	0.0		46.0	body	body-90.jpg	0.0	200.55061079601273	0.38327985535215703
212.0	106.40247216176795	ISI	1.0		7.0	body	body-90.jpg	0.0	200.9338906513649	0.11668331879445759
212.0	106.4392150056301	pulse	1.0	t		body	body-90.jpg	0.0	200.97063349522705	
213.0	106.5191554805624	body	0.0		46.0	body	body-54.jpg	0.0	201.05057397015935	0.3832931368078789
213.0	106.90244861737028	ISI	1.0		6.0	body	body-54.jpg	0.0	201.43386710696723	0.11670988170499186
214.0	107.01915849907527	body	0.0		46.0	body	body-77.jpg	0.0	201.55057698867222	0.3832943442130272
214.0	107.10258595969117	pulse	0.0	t		body	body-77.jpg	0.0	201.6340044492881	
214.0	107.4024528432883	ISI	1.0		7.0	body	body-77.jpg	0.0	201.93387133288525	0.11669086507481552
215.0	107.51914370836312	body	0.0		46.0	body	body-63.jpg	0.0	202.05056219796006	0.3832801572043536
215.0	107.80254188940762	pulse	0.0	t		body	body-63.jpg	0.0	202.33396037900457	
215.0	107.90242386556747	ISI	1.0		7.0	body	body-63.jpg	0.0	202.43384235516442	0.11669901505956659
216.0	108.01912288062704	car	0.0		46.0	object	car-102.jpg	0.0	202.55054137022398	0.383297362725898
216.0	108.40242024335294	ISI	1.0		6.0	object	car-102.jpg	0.0	202.93383873294988	0.11667516880970652
217.0	108.51909541216264	car	0.0		45.0	object	car-62.jpg	0.0	203.0505139017596	0.3833049090071654
217.0	108.50972474184164	pulse	0.0	t		object	car-62.jpg	0.0	203.04114323143858	
217.0	108.90240032116981	ISI	1.0		7.0	object	car-62.jpg	0.0	203.43381881076675	0.11668965767057671
218.0	109.01908997884038	car	0.0		46.0	object	car-32.jpg	0.0	203.55050846843733	0.3833009849404334
218.0	109.20250778021637	pulse	0.0	t		object	car-32.jpg	0.0	203.7339262698133	
218.0	109.40239096378082	ISI	1.0		6.0	object	car-32.jpg	0.0	203.93380945337776	0.11668633730732836
219.0	109.51907730108815	car	0.0		46.0	object	car-81.jpg	0.0	204.0504957906851	0.3833021923455817
219.0	109.90237949343373	ISI	1.0		6.0	object	car-81.jpg	0.0	204.43379798303067	0.11667999843029975
219.0	109.94660885209032	pulse	1.0	t		object	car-81.jpg	0.0	204.47802734168727	
220.0	110.01905949186403	car	0.0		46.0	object	car-3.jpg	0.0	204.55047798146097	0.38327683684019576
220.0	110.40233632870422	ISI	1.0		7.0	object	car-3.jpg	0.0	204.93375481830117	0.11669026137315086
221.0	110.51902659007737	car	0.0		46.0	object	car-37.jpg	0.0	205.05044507967432	0.38329796642756264
221.0	110.60246310623097	pulse	0.0	t		object	car-37.jpg	0.0	205.13388159582792	
221.0	110.90232455650494	ISI	1.0		7.0	object	car-37.jpg	0.0	205.43374304610188	0.11670082616728905
222.0	111.01902538267223	car	0.0		46.0	object	car-87.jpg	0.0	205.55044387226917	0.3832813646085924
222.0	111.30245948401534	pulse	0.0	t		object	car-87.jpg	0.0	205.8338779736123	
222.0	111.40230674728082	ISI	1.0		7.0	object	car-87.jpg	0.0	205.93372523687776	0.1166857336047542
223.0	111.51899248088557	car	0.0		46.0	object	car-128.jpg	0.0	206.05041097048252	0.38332120897484856
223.0	111.90231368986042	ISI	1.0		6.0	object	car-128.jpg	0.0	206.43373217945737	0.11665826513944921
224.0	112.01897195499987	car	0.0		45.0	object	car-98.jpg	0.0	206.55039044459681	0.38330581456102664
224.0	112.00944009610976	pulse	0.0	t		object	car-98.jpg	0.0	206.5408585857067	
224.0	112.4022777695609	ISI	1.0		6.0	object	car-98.jpg	0.0	206.93369625915784	0.11669871320827951
225.0	112.51897648276918	car	0.0		46.0	object	car-96.jpg	0.0	207.05039497236612	0.38329675902241434
225.0	112.70242416741894	pulse	0.0	t		object	car-96.jpg	0.0	207.23384265701588	
225.0	112.90227324179159	ISI	1.0		6.0	object	car-96.jpg	0.0	207.43369173138854	0.1166884502663379
226.0	113.01896169205793	car	0.0		46.0	object	car-14.jpg	0.0	207.55038018165487	0.38328468497275026
226.0	113.40224637703068	ISI	1.0		7.0	object	car-14.jpg	0.0	207.93366486662762	0.11669841135699244
226.0	113.43840332760828	pulse	1.0	t		object	car-14.jpg	0.0	207.96982181720523	
227.0	113.51894478838767	car	0.0		46.0	object	car-40.jpg	0.0	208.05036327798462	0.3832825720137407
227.0	113.90222736040141	ISI	1.0		6.0	object	car-40.jpg	0.0	208.43364584999836	0.11668241324059636
228.0	114.01890977364201	house	0.0		46.0	place	house-112.jpg	0.0	208.55032826323895	0.383297362725898
228.0	114.10233663055533	pulse	0.0	t		place	house-112.jpg	0.0	208.63375512015227	
228.0	114.4022071363679	ISI	1.0		6.0	place	house-112.jpg	0.0	208.93362562596485	0.11669931690994417
229.0	114.51890645327785	house	0.0		46.0	place	house-23.jpg	0.0	209.0503249428748	0.38329917383362044
229.0	114.80231368986006	pulse	0.0	t		place	house-23.jpg	0.0	209.333732179457	
229.0	114.90220562711147	ISI	1.0		7.0	place	house-23.jpg	0.0	209.43362411670842	0.11667184844645817
230.0	115.01887747555793	house	0.0		46.0	place	house-65.jpg	0.0	209.55029596515487	0.3833061164114042
230.0	115.40218359196933	ISI	1.0		6.0	place	house-65.jpg	0.0	209.93360208156628	0.11668965767057671
231.0	115.51887324963991	house	0.0		45.0	place	house-46.jpg	0.0	210.05029173923685	0.3832855905266115
231.0	115.50892543972168	pulse	0.0	t		place	house-46.jpg	0.0	210.04034392931862	
231.0	115.90215884016652	ISI	1.0		7.0	place	house-46.jpg	0.0	210.43357732976347	0.11668965767057671
232.0	116.0188484978371	house	0.0		46.0	place	house-36.jpg	0.0	210.55026698743404	0.3833115497345716
232.0	116.20227776956108	pulse	0.0	t		place	house-36.jpg	0.0	210.73369625915802	
232.0	116.40216004757167	ISI	1.0		7.0	place	house-36.jpg	0.0	210.93357853716861	0.1166857336047542
233.0	116.51884578117642	house	0.0		46.0	place	house-118.jpg	0.0	211.05026427077337	0.38329645717112726
233.0	116.90214223834755	ISI	1.0		6.0	place	house-118.jpg	0.0	211.4335607279445	0.11668543175346713
233.0	116.94899438254834	pulse	1.0	t		place	house-118.jpg	0.0	211.48041287214528	
234.0	117.01882767010102	house	0.0		46.0	place	house-6.jpg	0.0	211.55024615969796	0.38328619422918564
234.0	117.4021138643302	ISI	1.0		6.0	place	house-6.jpg	0.0	211.93353235392715	0.11669780765441828
235.0	117.51881167198462	house	0.0		46.0	place	house-95.jpg	0.0	212.05023016158157	0.3832970608737014
235.0	117.6022327937244	pulse	0.0	t		place	house-95.jpg	0.0	212.13365128332134	
235.0	117.90210873285832	ISI	1.0		7.0	place	house-95.jpg	0.0	212.43352722245527	0.11668603545604128
236.0	118.01879476831436	house	0.0		46.0	place	house-114.jpg	0.0	212.5502132579113	0.3832801572043536
236.0	118.30219777897855	pulse	0.0	t		place	house-114.jpg	0.0	212.8336162685755	
236.0	118.40207492551872	ISI	1.0		7.0	place	house-114.jpg	0.0	212.93349341511566	0.1166872428602801
237.0	118.518762168379	house	0.0		46.0	place	house-114.jpg	1.0	213.05018065797594	0.38329766457627557
237.0	118.90205983295527	ISI	1.0		6.0	place	house-114.jpg	1.0	213.43347832255222	0.1167002224647149
238.0	119.01876005541999	house	0.0		45.0	place	house-136.jpg	0.0	213.55017854501693	0.383299475683998
238.0	119.00991339887514	pulse	0.0	t		place	house-136.jpg	0.0	213.5413318884721	
238.0	119.08549574540666	response	0.0	b		place	house-136.jpg	0.0	213.6169142350036	
238.0	119.40205953110399	ISI	1.0		6.0	place	house-136.jpg	0.0	213.93347802070093	0.11668512990218005
239.0	119.51874466100617	house	0.0		46.0	place	house-78.jpg	0.0	214.0501631506031	0.38329645717203675
239.0	119.70215250129058	pulse	0.0	t		place	house-78.jpg	0.0	214.23357099088753	
239.0	119.9020411181782	ISI	1.0		7.0	place	house-78.jpg	0.0	214.43345960777515	0.11669086507481552
240.0	120.01873198325302	word	0.0		46.0	character	word-139.jpg	0.0	214.55015047284996	0.3832798553530665
240.0	120.40201183860609	ISI	1.0		7.0	character	word-139.jpg	0.0	214.93343032820303	0.1167002224647149
240.0	120.43972513424887	pulse	1.0	t		character	word-139.jpg	0.0	214.97114362384582	
241.0	120.5187120610708	word	0.0		46.0	character	word-16.jpg	0.0	215.05013055066775	0.38328468497275026
241.0	120.90199674604355	ISI	1.0		6.0	character	word-16.jpg	0.0	215.4334152356405	0.1166872428602801
242.0	121.01868398890383	word	0.0		46.0	character	word-133.jpg	0.0	215.55010247850078	0.38331094603199745
242.0	121.1021054124949	pulse	0.0	t		character	word-133.jpg	0.0	215.63352390209184	
242.0	121.40199493493583	ISI	1.0		6.0	character	word-133.jpg	0.0	215.93341342453277	0.11667245214903232
243.0	121.51866738708486	word	0.0		46.0	character	word-101.jpg	0.0	216.0500858766818	0.38329524976688845
243.0	121.80209303659376	pulse	0.0	t		character	word-101.jpg	0.0	216.3335115261907	
243.0	121.90196263685175	ISI	1.0		6.0	character	word-101.jpg	0.0	216.4333811264487	0.11669750580313121
244.0	122.01866014265488	word	0.0		46.0	character	word-25.jpg	0.0	216.55007863225183	0.3833021923455817
244.0	122.40196233500046	ISI	1.0		6.0	character	word-25.jpg	0.0	216.9333808245974	0.11668392249703174
245.0	122.5186462574975	word	0.0		45.0	character	word-62.jpg	0.0	217.05006474709444	0.38329887198142387
245.0	122.50926472053106	pulse	0.0	t		character	word-62.jpg	0.0	217.040683210128	
245.0	122.90194512947892	ISI	1.0		7.0	character	word-62.jpg	0.0	217.43336361907586	0.11668694100990251
246.0	123.01863207048882	word	0.0		46.0	character	word-62.jpg	1.0	217.55005056008577	0.3832753275837604
246.0	123.20204685335193	pulse	0.0	t		character	word-62.jpg	1.0	217.73346534294888	
246.0	123.40190739807258	ISI	1.0		6.0	character	word-62.jpg	1.0	217.93332588766953	0.11669931691085367
247.0	123.51860671498343	word	0.0		46.0	character	word-50.jpg	0.0	218.05002520458038	0.3833061164114042
247.0	123.77701915849957	response	0.0	b		character	word-50.jpg	0.0	218.30843764809651	
247.0	123.90191283139484	ISI	1.0		6.0	character	word-50.jpg	0.0	218.43333132099178	0.1166935817373087
247.0	123.94649475231654	pulse	1.0	t		character	word-50.jpg	0.0	218.47791324191348	
248.0	124.01860641313215	word	0.0		46.0	character	word-41.jpg	0.0	218.5500249027291	0.38326898870764126
248.0	124.40187540183979	ISI	1.0		7.0	character	word-41.jpg	0.0	218.93329389143673	0.11670837244764698
249.0	124.51858377428744	word	0.0		46.0	character	word-38.jpg	0.0	219.05000226388438	0.3832747238820957
249.0	124.60200127381268	pulse	0.0	t		character	word-38.jpg	0.0	219.13341976340962	
249.0	124.90185849816953	ISI	1.0		6.0	character	word-38.jpg	0.0	219.43327698776648	0.11670927800150821
250.0	125.01856777617104	word	0.0		46.0	character	word-144.jpg	0.0	219.54998626576798	0.38327683684110525
250.0	125.30196746647198	pulse	0.0	t		character	word-144.jpg	0.0	219.83338595606892	
250.0	125.40184461301214	ISI	1.0		7.0	character	word-144.jpg	0.0	219.9332631026091	0.11668694100899302
251.0	125.51853155402114	word	0.0		46.0	character	word-61.jpg	0.0	220.04995004361808	0.3833166812055424
251.0	125.90184823522668	ISI	1.0		7.0	character	word-61.jpg	0.0	220.43326672482362	0.11668030028158682
252.0	126.01852853550827	word	0.0		45.0	character	word-18.jpg	0.0	220.5499470251052	0.3832880053369081
252.0	126.00825200957479	pulse	0.0	t		character	word-18.jpg	0.0	220.53967049917173	
252.0	126.40181654084518	ISI	1.0		7.0	character	word-18.jpg	0.0	220.93323503044212	0.11670082616728905
253.0	126.51851736701246	word	0.0		46.0	character	word-69.jpg	0.0	221.0499358566094	0.38327834609572164
253.0	126.70198738865474	pulse	0.0	t		character	word-69.jpg	0.0	221.2334058782517	
253.0	126.90179571310819	ISI	1.0		6.0	character	word-69.jpg	0.0	221.43321420270513	0.11670444838273397
254.0	127.01850016149092	word	0.0		46.0	character	word-35.jpg	0.0	221.54991865108786	0.3832538961451064
254.0	127.40175405763603	ISI	1.0		7.0	character	word-35.jpg	0.0	221.93317254723297	0.11669690210055705
254.0	127.43880750643712	pulse	1.0	t		character	word-35.jpg	0.0	221.97022599603406	
255.0	127.51845095973658	word	0.0		46.0	character	word-31.jpg	0.0	222.04986944933353	0.38330581456011714
255.0	127.9017567742967	ISI	1.0		7.0	character	word-31.jpg	0.0	222.43317526389365	0.11665766143778455
256.0	128.01841443573448	word	0.0		46.0	character	word-126.jpg	0.0	222.54983292533143	0.383299475683998
256.0	128.10184431116068	pulse	0.0	t		character	word-126.jpg	0.0	222.63326280075762	
256.0	128.40171391141848	ISI	1.0		7.0	character	word-126.jpg	0.0	222.93313240101543	0.11669660024926998
257.0	128.51841051166775	word	0.0		46.0	character	word-19.jpg	0.0	223.0498290012647	0.38330551270973956
257.0	128.80183163340826	pulse	0.0	t		character	word-19.jpg	0.0	223.3332501230052	
257.0	128.9017160243775	ISI	1.0		7.0	character	word-19.jpg	0.0	223.43313451397444	0.1166845261996059
258.0	129.0184005505771	word	0.0		46.0	character	word-33.jpg	0.0	223.54981904017404	0.38327713869148283
258.0	129.40167768926858	ISI	1.0		7.0	character	word-33.jpg	0.0	223.93309617886553	0.11670052431509248
259.0	129.51837821358367	word	0.0		45.0	character	word-28.jpg	0.0	224.04979670318062	0.3833037016020171
259.0	129.5102007612686	pulse	0.0	t		character	word-28.jpg	0.0	224.04161925086555	
259.0	129.9016819151857	ISI	1.0		7.0	character	word-28.jpg	0.0	224.43310040478264	0.11668512990218005
260.0	130.01836704508787	word	0.0		46.0	character	word-66.jpg	0.0	224.54978553468482	0.3832973627249885
260.0	130.20177639462872	pulse	0.0	t		character	word-66.jpg	0.0	224.73319488422567	
260.0	130.40166440781286	ISI	1.0		7.0	character	word-66.jpg	0.0	224.9330828974098	0.11668633730732836
261.0	130.5183507451202	word	0.0		46.0	character	word-115.jpg	0.0	225.04976923471713	0.383299475683998
261.0	130.90165022080419	ISI	1.0		7.0	character	word-115.jpg	0.0	225.43306871040113	0.1166872428602801
261.0	130.93513608963804	pulse	1.0	t		character	word-115.jpg	0.0	225.46655457923498	
262.0	131.01833746366447	word	0.0		46.0	character	word-6.jpg	0.0	225.5497559532614	0.38329524976688845
262.0	131.40163271343135	ISI	1.0		7.0	character	word-6.jpg	0.0	225.9330512030283	0.11667064104130986
263.0	131.51830335447266	word	0.0		46.0	character	word-141.jpg	0.0	226.0497218440696	0.383313058991007
263.0	131.6017274947253	pulse	0.0	t		character	word-141.jpg	0.0	226.13314598432225	
263.0	131.90161641346367	ISI	1.0		6.0	character	word-141.jpg	0.0	226.43303490306062	0.11668784656285425
264.0	132.01830426002653	car	0.0		46.0	object	car-63.jpg	0.0	226.54972274962347	0.38328227016336314
264.0	132.30171421327032	pulse	0.0	t		object	car-63.jpg	0.0	226.83313270286726	
264.0	132.4015865301899	ISI	1.0		8.0	object	car-63.jpg	0.0	226.93300501978683	0.11669690210055705
265.0	132.51828343229045	car	0.0		46.0	object	car-121.jpg	0.0	227.0497019218874	0.3833000793865722
265.0	132.90158351167702	ISI	1.0		7.0	object	car-121.jpg	0.0	227.43300200127396	0.11668030028158682
266.0	133.0182638119586	car	0.0		45.0	object	car-21.jpg	0.0	227.54968230155555	0.38333569783480925
266.0	133.01002961160793	pulse	0.0	t		object	car-21.jpg	0.0	227.54144810120488	
266.0	133.4015995097934	ISI	1.0		6.0	object	car-21.jpg	0.0	227.93301799939036	0.1166700373396452
267.0	133.51826954713306	car	0.0		46.0	object	car-106.jpg	0.0	228.04968803673	0.38328106275730534
267.0	133.70166410596175	pulse	0.0	t		object	car-106.jpg	0.0	228.2330825955587	
267.0	133.90155060989036	ISI	1.0		7.0	object	car-106.jpg	0.0	228.4329690994873	0.11669086507572501
268.0	134.0182414749661	car	0.0		46.0	object	car-74.jpg	0.0	228.54965996456303	0.38329404236174014
268.0	134.40153551732783	ISI	1.0		6.0	object	car-74.jpg	0.0	228.93295400692477	0.11668543175346713
268.0	134.44381914280257	pulse	1.0	t		object	car-74.jpg	0.0	228.9752376323995	
269.0	134.5182209490813	car	0.0		46.0	object	car-1.jpg	0.0	229.04963943867824	0.3832970608737014
269.0	134.901518009955	ISI	1.0		7.0	object	car-1.jpg	0.0	229.43293649955194	0.1166857336047542
270.0	135.01820374355975	car	0.0		46.0	object	car-109.jpg	0.0	229.5496222331567	0.3832973627249885
270.0	135.1016230541918	pulse	0.0	t		object	car-109.jpg	0.0	229.63304154378875	
270.0	135.40150110628474	ISI	1.0		8.0	object	car-109.jpg	0.0	229.93291959588169	0.11668663915861544
271.0	135.51818774544336	car	0.0		46.0	object	car-109.jpg	1.0	230.0496062350403	0.3832852886753244
271.0	135.8016007171991	pulse	0.0	t		object	car-109.jpg	1.0	230.33301920679605	
271.0	135.90147303411868	ISI	1.0		6.0	object	car-109.jpg	1.0	230.43289152371563	0.1166793947277256
272.0	136.0181524288464	car	0.0		46.0	object	car-52.jpg	0.0	230.54957091844335	0.3833169830568295
272.0	136.0765790593714	response	0.0	b		object	car-52.jpg	0.0	230.60799754896834	
272.0	136.40146941190324	ISI	1.0		6.0	object	car-52.jpg	0.0	230.93288790150018	0.11666520771905198
273.0	136.5181346196223	car	0.0		45.0	object	car-82.jpg	0.0	231.04955310921923	0.38331758675940364
273.0	136.50938334807415	pulse	0.0	t		object	car-82.jpg	0.0	231.0408018376711	
273.0	136.9014522063817	ISI	1.0		7.0	object	car-82.jpg	0.0	231.43287069597864	0.11667335770289355
274.0	137.01812556408458	car	0.0		46.0	object	car-22.jpg	0.0	231.54954405368153	0.383297362725898
274.0	137.2015451765683	pulse	0.0	t		object	car-22.jpg	0.0	231.73296366616523	
274.0	137.40142292681048	ISI	1.0		6.0	object	car-22.jpg	0.0	231.93284141640743	0.11670173172024079
275.0	137.51812465853072	car	0.0		46.0	object	car-131.jpg	0.0	232.04954314812767	0.38327925165049237
275.0	137.90140391018122	ISI	1.0		6.0	object	car-131.jpg	0.0	232.43282239977816	0.10836580749764835
275.0	137.94215714979964	pulse	1.0	t		object	car-131.jpg	0.0	232.47357563939659	
276.0	138.00976971767886	car	0.0		47.0	object	car-136.jpg	0.0	232.5411882072758	0.39161608142694604
276.0	138.4013857991058	ISI	1.0		6.0	object	car-136.jpg	0.0	232.93280428870276	0.10835645010865846
277.0	138.50974224921447	car	0.0		47.0	object	car-88.jpg	0.0	233.0411607388114	0.3916272499236584
277.0	138.60150835071545	pulse	0.0	t		object	car-88.jpg	0.0	233.1329268403124	
277.0	138.90136949913813	ISI	1.0		5.0	object	car-88.jpg	0.0	233.43278798873507	0.11671622058111097
278.0	139.01808571971924	car	0.0		46.0	object	car-129.jpg	0.0	233.54950420931618	0.3832686868563542
278.0	139.301489334086	pulse	0.0	t		object	car-129.jpg	0.0	233.83290782368294	
278.0	139.4013544065756	ISI	1.0		4.0	object	car-129.jpg	0.0	233.93277289617254	0.10835675195994554
279.0	139.50971115853554	car	0.0		47.0	object	car-144.jpg	0.0	234.04112964813248	0.39166015171031177
279.0	139.90137131024585	ISI	1.0		5.0	object	car-144.jpg	0.0	234.4327897998428	0.11668392249703174
280.0	140.01805523274288	car	0.0		45.0	object	car-97.jpg	0.0	234.54947372233983	0.38331064418071037
280.0	140.00533974867903	pulse	0.0	t		object	car-97.jpg	0.0	234.53675823827598	
280.0	140.4013658769236	ISI	1.0		7.0	object	car-97.jpg	0.0	234.93278436652054	0.11669086507481552
281.0	140.5180567419984	car	0.0		46.0	object	car-17.jpg	0.0	235.04947523159535	0.3832943442130272
281.0	140.7014630730273	pulse	0.0	t		object	car-17.jpg	0.0	235.23288156262424	
281.0	140.90135108621143	ISI	1.0		6.0	object	car-17.jpg	0.0	235.43276957580838	0.11667124474479351
282.0	141.01802233095623	car	0.0		46.0	object	car-15.jpg	0.0	235.54944082055317	0.38330460715496883
282.0	141.4013269381112	ISI	1.0		6.0	object	car-15.jpg	0.0	235.93274542770814	0.11669780765441828
282.0	141.44688866820252	pulse	1.0	t		object	car-15.jpg	0.0	235.97830715779946	
283.0	141.51802474576562	car	0.0		46.0	object	car-61.jpg	0.0	236.04944323536256	0.3832864960804727
283.0	141.9013112418461	ISI	1.0		7.0	object	car-61.jpg	0.0	236.43272973144303	0.11669720395184413
284.0	142.01800844579793	car	0.0		46.0	object	car-24.jpg	0.0	236.54942693539488	0.38329494791560137
284.0	142.1014274545787	pulse	0.0	t		object	car-24.jpg	0.0	236.63284594417564	
284.0	142.40130339371353	ISI	1.0		7.0	object	car-24.jpg	0.0	236.93272188331048	0.1166727540003194
285.0	142.51797614771385	car	0.0		46.0	object	car-10.jpg	0.0	237.0493946373108	0.3832632535340963
285.0	142.8013731213532	pulse	0.0	t		object	car-10.jpg	0.0	237.33279161095015	
285.0	142.90123940124795	ISI	1.0		7.0	object	car-10.jpg	0.0	237.4326578908449	0.11669992061342782
286.0	143.01793932186138	car	0.0		46.0	object	car-75.jpg	0.0	237.54935781145832	0.38329283495659183
286.0	143.40123215681797	ISI	1.0		7.0	object	car-75.jpg	0.0	237.9326506464149	0.11668573360384471
287.0	143.5179178904218	car	0.0		45.0	object	car-29.jpg	0.0	238.04933638001876	0.38327713869148283
287.0	143.50974707883506	pulse	0.0	t		object	car-29.jpg	0.0	238.041165568432	
287.0	143.9011950291133	ISI	1.0		7.0	object	car-29.jpg	0.0	238.43261351871024	0.1167159187298239
288.0	144.01791094784312	adult	0.0		46.0	face	adult-4.jpg	0.0	238.54932943744006	0.3832931368078789
288.0	144.2013196936814	pulse	0.0	t		face	adult-4.jpg	0.0	238.73273818327834	
288.0	144.401204084651	ISI	1.0		6.0	face	adult-4.jpg	0.0	238.93262257424794	0.11668603545604128
289.0	144.51789012010704	adult	0.0		46.0	face	adult-5.jpg	0.0	239.04930860970398	0.3832789497992053
289.0	144.90116906990625	ISI	1.0		7.0	face	adult-5.jpg	0.0	239.4325875595032	0.11670505208439863
289.0	144.94067234348313	pulse	1.0	t		face	adult-5.jpg	0.0	239.47209083308007	
290.0	145.01787412199064	adult	0.0		46.0	face	adult-97.jpg	0.0	239.5492926115876	0.38329796642756264
290.0	145.4011720884182	ISI	1.0		6.0	face	adult-97.jpg	0.0	239.93259057801515	0.1166857336047542
291.0	145.51785782202296	adult	0.0		46.0	face	adult-80.jpg	0.0	240.0492763116199	0.38329796642756264
291.0	145.60127230303442	pulse	0.0	t		face	adult-80.jpg	0.0	240.13269079263137	
291.0	145.90115578845052	ISI	1.0		8.0	face	adult-80.jpg	0.0	240.43257427804747	0.11668482805089297
292.0	146.01784061650142	adult	0.0		46.0	face	adult-36.jpg	0.0	240.54925910609836	0.38326778130249295
292.0	146.30125902157943	pulse	0.0	t		face	adult-36.jpg	0.0	240.83267751117637	
292.0	146.4011083978039	ISI	1.0		7.0	face	adult-36.jpg	0.0	240.93252688740085	0.11672738907691382
293.0	146.51783578688082	adult	0.0		46.0	face	adult-141.jpg	0.0	241.04925427647777	0.3832765349889087
293.0	146.90111232186973	ISI	1.0		8.0	face	adult-141.jpg	0.0	241.43253081146668	0.11669056322443794
294.0	147.01780288509417	adult	0.0		45.0	face	adult-141.jpg	1.0	241.54922137469111	0.38330309789944295
294.0	147.00964686421867	pulse	0.0	t		face	adult-141.jpg	1.0	241.5410653538156	
294.0	147.4011059829936	ISI	1.0		8.0	face	adult-141.jpg	1.0	241.93252447259056	0.11668814841414132
295.0	147.51779413140775	adult	0.0		46.0	face	adult-77.jpg	0.0	242.0492126210047	0.3832837794197985
295.0	147.68453585841962	response	0.0	b		face	adult-77.jpg	0.0	242.21595434801657	
295.0	147.70117450322869	pulse	0.0	t		face	adult-77.jpg	0.0	242.23259299282563	
295.0	147.90107791082755	ISI	1.0		6.0	face	adult-77.jpg	0.0	242.4324964004245	0.11669660024926998
296.0	148.01777451107682	adult	0.0		46.0	face	adult-89.jpg	0.0	242.54919300067377	0.38328860903857276
296.0	148.4010631201154	ISI	1.0		7.0	face	adult-89.jpg	0.0	242.93248160971234	0.11669569469631824
296.0	148.43828500191648	pulse	1.0	t		face	adult-89.jpg	0.0	242.96970349151343	
297.0	148.5177588148117	adult	0.0		46.0	face	adult-1.jpg	0.0	243.04917730440866	0.38333056636292895
297.0	148.90108938117464	ISI	1.0		7.0	face	adult-1.jpg	0.0	243.4325078707716	0.11668814841414132
298.0	149.01777752958878	adult	0.0		46.0	face	adult-45.jpg	0.0	243.54919601918573	0.38325208503829344
298.0	149.10115397734353	pulse	0.0	t		face	adult-45.jpg	0.0	243.63257246694047	
298.0	149.40102961462708	ISI	1.0		7.0	face	adult-45.jpg	0.0	243.93244810422402	0.1166990150586571
299.0	149.51772862968573	adult	0.0		46.0	face	adult-76.jpg	0.0	244.04914711928268	0.38329766457718506
299.0	149.80113314960636	pulse	0.0	t		face	adult-76.jpg	0.0	244.3325516392033	
299.0	149.90102629426292	ISI	1.0		7.0	face	adult-76.jpg	0.0	244.43244478385986	0.11668905396800255
300.0	150.01771534823092	adult	0.0		46.0	face	adult-127.jpg	0.0	244.54913383782787	0.383293438659166
300.0	150.4010087868901	ISI	1.0		7.0	face	adult-127.jpg	0.0	244.93242727648703	0.11667879102515144
301.0	150.51768757791524	adult	0.0		45.0	face	adult-137.jpg	0.0	245.04910606751218	0.38330460715587833
301.0	150.5102034779302	pulse	0.0	t		face	adult-137.jpg	0.0	245.04162196752713	
301.0	150.90099218507112	ISI	1.0		7.0	face	adult-137.jpg	0.0	245.43241067466806	0.11668512990218005
302.0	151.0176773149733	adult	0.0		46.0	face	adult-138.jpg	0.0	245.54909580457024	0.38328770348471153
302.0	151.20109541819966	pulse	0.0	t		face	adult-138.jpg	0.0	245.7325139077966	
302.0	151.400965018458	ISI	1.0		7.0	face	adult-138.jpg	0.0	245.93238350805495	0.11669871320827951
303.0	151.5176637316663	adult	0.0		46.0	face	adult-79.jpg	0.0	246.04908222126323	0.38328227016336314
303.0	151.90094600182965	ISI	1.0		7.0	face	adult-79.jpg	0.0	246.4323644914266	0.11668120583544805
303.0	151.93990564129854	pulse	1.0	t		face	adult-79.jpg	0.0	246.47132413089548	
304.0	152.0176272076651	adult	0.0		46.0	face	adult-115.jpg	0.0	246.54904569726204	0.38331607750296826
304.0	152.40094328516807	ISI	1.0		6.0	face	adult-115.jpg	0.0	246.932361774765	0.11667396140546771
305.0	152.51761724657354	adult	0.0		46.0	face	adult-51.jpg	0.0	247.04903573617048	0.3832982682788497
305.0	152.60105044236298	pulse	0.0	t		face	adult-51.jpg	0.0	247.13246893195992	
305.0	152.9009155148524	ISI	1.0		6.0	face	adult-51.jpg	0.0	247.43233400444933	0.10834618716580735
306.0	153.0092617020182	adult	0.0		47.0	face	adult-28.jpg	0.0	247.54068019161514	0.391649285065796
306.0	153.3010296146267	pulse	0.0	t		face	adult-28.jpg	0.0	247.83244810422366	
306.0	153.400910987084	ISI	1.0		6.0	face	adult-28.jpg	0.0	247.93232947668093	0.1083534315957877
307.0	153.50926441867978	adult	0.0		47.0	face	adult-28.jpg	1.0	248.04068290827672	0.391629664733955
307.0	153.90089408341373	ISI	1.0		6.0	face	adult-28.jpg	1.0	248.43231257301068	0.10833441496652085
308.0	154.00922849838025	adult	0.0		46.0	face	adult-8.jpg	0.0	248.5406469879772	0.39164837951193476
308.0	154.00444385415813	pulse	0.0	t		face	adult-8.jpg	0.0	248.53586234375507	
308.0	154.2259818466655	response	0.0	b		face	adult-8.jpg	0.0	248.75740033626244	
308.0	154.4008768778922	ISI	1.0		5.0	face	adult-8.jpg	0.0	248.93229536748913	0.10834256495127192
309.0	154.50921944284346	adult	0.0		47.0	face	adult-20.jpg	0.0	249.0406379324404	0.39164234248619323
309.0	154.70099550543455	pulse	0.0	t		face	adult-20.jpg	0.0	249.2324139950315	
309.0	154.90086178532965	ISI	1.0		6.0	face	adult-20.jpg	0.0	249.4322802749266	0.10834890382739104
310.0	155.00921068915704	adult	0.0		47.0	face	adult-133.jpg	0.0	249.540629178754	0.39166558503256965
310.0	155.4008762741896	ISI	1.0		6.0	face	adult-133.jpg	0.0	249.93229476378656	0.11667818732257729
310.0	155.44749025775127	pulse	1.0	t		face	adult-133.jpg	0.0	249.9789087473482	
311.0	155.5175544615122	adult	0.0		46.0	face	adult-126.jpg	0.0	250.04897295110914	0.38330822937132325
311.0	155.9008626908835	ISI	1.0		6.0	face	adult-126.jpg	0.0	250.43228118048046	0.11670625948954694
312.0	156.01756895037306	car	0.0		46.0	object	car-46.jpg	0.0	250.54898743997	0.38325842391350307
312.0	156.10096622586298	pulse	0.0	t		object	car-46.jpg	0.0	250.63238471545992	
312.0	156.40082737428656	ISI	1.0		6.0	object	car-46.jpg	0.0	250.9322458638835	0.1166935817373087
313.0	156.51752095602387	car	0.0		46.0	object	car-101.jpg	0.0	251.04893944562082	0.3832931368078789
313.0	156.80093543703515	pulse	0.0	t		object	car-101.jpg	0.0	251.3323539266321	
313.0	156.90081409283175	ISI	1.0		6.0	object	car-101.jpg	0.0	251.4322325824287	0.11670112801766663
314.0	157.01751522084942	car	0.0		46.0	object	car-79.jpg	0.0	251.54893371044636	0.3832629516828092
314.0	157.40077817253223	ISI	1.0		6.0	object	car-79.jpg	0.0	251.93219666212917	0.11666400031390367
315.0	157.51744217284613	car	0.0		45.0	object	car-139.jpg	0.0	252.04886066244308	0.3833193978671261
315.0	157.50922095209899	pulse	0.0	t		object	car-139.jpg	0.0	252.04063944169593	
315.0	157.90076157071326	ISI	1.0		6.0	object	car-139.jpg	0.0	252.4321800603102	0.11668512990218005
316.0	158.01744670061544	car	0.0		46.0	object	car-38.jpg	0.0	252.54886519021238	0.38328589237789856
316.0	158.2008645019905	pulse	0.0	t		object	car-38.jpg	0.0	252.73228299158745	
316.0	158.40073259299334	ISI	1.0		7.0	object	car-38.jpg	0.0	252.93215108259028	0.11669780765441828
317.0	158.51743040064775	car	0.0		46.0	object	car-7.jpg	0.0	253.0488488902447	0.3832961553198402
317.0	158.9007265559676	ISI	1.0		8.0	object	car-7.jpg	0.0	253.43214504556454	0.1166727540003194
317.0	158.9329690994873	pulse	1.0	t		object	car-7.jpg	0.0	253.46438758908425	
318.0	159.0173993099679	car	0.0		46.0	object	car-34.jpg	0.0	253.54881779956486	0.3832997775361946
318.0	159.4006990875041	ISI	1.0		7.0	object	car-34.jpg	0.0	253.93211757710105	0.11669720395184413
319.0	159.51739629145595	car	0.0		46.0	object	car-83.jpg	0.0	254.0488147810529	0.3832867979317598
319.0	159.60082375207185	pulse	0.0	t		object	car-83.jpg	0.0	254.1322422416688	
319.0	159.9006830893877	ISI	1.0		7.0	object	car-83.jpg	0.0	254.43210157898466	0.11669810950479587
320.0	160.0173811988925	car	0.0		46.0	object	car-55.jpg	0.0	254.54879968848945	0.3832825720146502
320.0	160.30079477435083	pulse	0.0	t		object	car-55.jpg	0.0	254.83221326394778	
320.0	160.40066377090716	ISI	1.0		7.0	object	car-55.jpg	0.0	254.9320822605041	0.11670142986895371
321.0	160.5173652007761	car	0.0		46.0	object	car-19.jpg	0.0	255.04878369037306	0.383285590527521
321.0	160.90065079130363	ISI	1.0		7.0	object	car-19.jpg	0.0	255.43206928090058	0.11667758362000313
322.0	161.01732837492364	car	0.0		45.0	object	car-92.jpg	0.0	255.54874686452058	0.3833154738003941
322.0	161.0089429470945	pulse	0.0	t		object	car-92.jpg	0.0	255.54036143669146	
322.0	161.40064384872403	ISI	1.0		6.0	object	car-92.jpg	0.0	255.93206233832097	0.11668694100990251
323.0	161.51733078973393	car	0.0		46.0	object	car-94.jpg	0.0	256.0487492793309	0.38330068308914633
323.0	161.7007398374235	pulse	0.0	t		object	car-94.jpg	0.0	256.23215832702044	
323.0	161.90063147282308	ISI	1.0		11.0	object	car-94.jpg	0.0	256.43204996242	0.09997887041208742
324.0	162.00061034323517	baseline	0.0		48.0		baseline	0.0	256.5320288328321	0.40000452776894235
324.0	162.4006148710041	ISI	1.0		11.0		baseline	0.0	256.93203336060105	0.09998973705751268
324.0	162.40534880421637	pulse	1.0	t			baseline	0.0	256.9367672938133	
325.0	162.50060460806162	baseline	0.0		48.0		baseline	0.0	257.03202309765857	0.39999396297480416
325.0	162.90059857103643	ISI	1.0		11.0		baseline	0.0	257.43201706063337	0.10000965923973126
326.0	163.00060823027616	baseline	0.0		48.0		baseline	0.0	257.5320267198731	0.400044372134289
326.0	163.10077605957395	pulse	0.0	t			baseline	0.0	257.6321945491709	
326.0	163.40065260241045	ISI	1.0		11.0		baseline	0.0	257.9320710920074	0.09999547223105765
327.0	163.5006480746415	baseline	0.0		48.0		baseline	0.0	258.03206656423845	0.3999894352064075
327.0	163.8007413466794	pulse	0.0	t			baseline	0.0	258.33215983627633	
327.0	163.9006375098479	ISI	1.0		11.0		baseline	0.0	258.43205599944486	0.09998973705751268
328.0	164.00062724690542	baseline	0.0		48.0		baseline	0.0	258.53204573650237	0.3999909444619334
328.0	164.40061819136736	ISI	1.0		11.0		baseline	0.0	258.9320366809643	0.09998279447881941
329.0	164.50060098584618	baseline	0.0		47.0		baseline	0.0	259.0320194754431	0.39998883150383335
329.0	164.50502340856474	pulse	0.0	t			baseline	0.0	259.0364418981617	
329.0	164.90058981735	ISI	1.0		11.0		baseline	0.0	259.43200830694695	0.09999396297462226
330.0	165.00058378032463	baseline	0.0		48.0		baseline	0.0	259.5320022699216	0.4000117721989227
330.0	165.2007075393385	pulse	0.0	t			baseline	0.0	259.73212602893545	
330.0	165.40059555252355	ISI	1.0		11.0		baseline	0.0	259.9320140421205	0.09998611484297726
331.0	165.50058166736653	baseline	0.0		48.0		baseline	0.0	260.0320001569635	0.3999728333865278
331.0	165.90055450075306	ISI	1.0		11.0		baseline	0.0	260.43197299035	0.09998883150365145
331.0	165.90534970977023	pulse	1.0	t			baseline	0.0	260.4367681993672	
332.0	166.0005433322567	baseline	0.0		48.0		baseline	0.0	260.53196182185366	0.4000093573886261
332.0	166.40055268964534	ISI	1.0		11.0		baseline	0.0	260.9319711792423	0.10001237590222445
333.0	166.50056506554756	baseline	0.0		48.0		baseline	0.0	261.0319835551445	0.39995894822914124
333.0	166.60064807464187	pulse	0.0	t			baseline	0.0	261.1320665642388	
333.0	166.9005240137767	ISI	1.0		11.0		baseline	0.0	261.43194250337365	0.0999921518668998
334.0	167.0005161656436	baseline	0.0		48.0		baseline	0.0	261.53193465524055	0.39998128522256593
334.0	167.30063539688945	pulse	0.0	t			baseline	0.0	261.8320538864864	
334.0	167.40049745086617	ISI	1.0		11.0		baseline	0.0	261.9319159404631	0.10000513147133461
335.0	167.5005025823375	baseline	0.0		48.0		baseline	0.0	262.03192107193445	0.3999984907441103
335.0	167.9005010730816	ISI	1.0		7.0		baseline	0.0	262.43191956267856	0.11663049482467613
336.0	168.0171315679063	house	0.0		45.0	place	house-63.jpg	0.0	262.54855005750323	0.38331637935425533
336.0	168.00742463528877	pulse	0.0	t		place	house-63.jpg	0.0	262.5388431248857	
336.0	168.40044794726055	ISI	1.0		6.0	place	house-63.jpg	0.0	262.9318664368575	0.11668150768673513
337.0	168.51712945494728	house	0.0		46.0	place	house-50.jpg	0.0	263.0485479445442	0.3832982682797592
337.0	168.70054303040524	pulse	0.0	t		place	house-50.jpg	0.0	263.2319615200022	
337.0	168.90042772322704	ISI	1.0		7.0	place	house-50.jpg	0.0	263.431846212824	0.11669448729026044
338.0	169.0171222105173	house	0.0		46.0	place	house-75.jpg	0.0	263.54854070011424	0.3832943442130272
338.0	169.40041655473033	ISI	1.0		7.0	place	house-75.jpg	0.0	263.9318350443273	0.11668573360384471
338.0	169.4368810917358	pulse	1.0	t		place	house-75.jpg	0.0	263.96829958133276	
339.0	169.51710228833417	house	0.0		46.0	place	house-75.jpg	1.0	264.0485207779311	0.3832961553207497
339.0	169.90039844365492	ISI	1.0		6.0	place	house-75.jpg	1.0	264.43181693325187	0.11668422434831882
340.0	170.01708266800324	house	0.0		46.0	place	house-132.jpg	0.0	264.5485011576002	0.3832880053369081
340.0	170.10061064508682	pulse	0.0	t		place	house-132.jpg	0.0	264.63202913468376	
340.0	170.18381624503127	response	0.0	b		place	house-132.jpg	0.0	264.7152347346282	
340.0	170.40037067334015	ISI	1.0		6.0	place	house-132.jpg	0.0	264.9317891629371	0.11669750580222171
341.0	170.51706817914237	house	0.0		46.0	place	house-124.jpg	0.0	265.0484866687393	0.383297362725898
341.0	170.80046907684846	pulse	0.0	t		place	house-124.jpg	0.0	265.3318875664454	
341.0	170.90036554186827	ISI	1.0		7.0	place	house-124.jpg	0.0	265.4317840314652	0.11668965767057671
342.0	171.01705519953885	house	0.0		46.0	place	house-142.jpg	0.0	265.5484736891358	0.383293438659166
342.0	171.400348638198	ISI	1.0		7.0	place	house-142.jpg	0.0	265.93176712779496	0.11667245214903232
343.0	171.51702109034704	house	0.0		45.0	place	house-96.jpg	0.0	266.048439579944	0.3833127571397199
343.0	171.5071170488609	pulse	0.0	t		place	house-96.jpg	0.0	266.03853553845784	
343.0	171.90033384748676	ISI	1.0		7.0	place	house-96.jpg	0.0	266.4317523370837	0.11669750580313121
344.0	172.0170313532899	house	0.0		46.0	place	house-108.jpg	0.0	266.54844984288684	0.383287703485621
344.0	172.2004394954256	pulse	0.0	t		place	house-108.jpg	0.0	266.73185798502254	
344.0	172.40031905677552	ISI	1.0		6.0	place	house-108.jpg	0.0	266.93173754637246	0.11668241324059636
345.0	172.5170014700161	house	0.0		46.0	place	house-86.jpg	0.0	267.04841995961306	0.3832843831214632
345.0	172.90028585313758	ISI	1.0		7.0	place	house-86.jpg	0.0	267.4317043427345	0.11668331879445759
345.0	172.9359963657107	pulse	1.0	t		place	house-86.jpg	0.0	267.46741485530765	
346.0	173.01696917193203	house	0.0		46.0	place	house-64.jpg	0.0	267.548387661529	0.383315171949107
346.0	173.40028434388114	ISI	1.0		6.0	place	house-64.jpg	0.0	267.9317028334781	0.11667124474388402
347.0	173.51695558862502	house	0.0		46.0	place	house-3.jpg	0.0	268.04837407822197	0.3833127571397199
347.0	173.6004609268648	pulse	0.0	t		place	house-3.jpg	0.0	268.13187941646174	
347.0	173.90026834576474	ISI	1.0		11.0	place	house-3.jpg	0.0	268.4316868353617	0.10003018512543349
348.0	174.00029853089018	baseline	0.0		48.0		baseline	0.0	268.5317170204871	0.3999686074694182
348.0	174.30039572699388	pulse	0.0	t			baseline	0.0	268.83181421659083	
348.0	174.4002671383596	ISI	1.0		11.0		baseline	0.0	268.93168562795654	0.10000301851232507
349.0	174.50027015687192	baseline	0.0		48.0		baseline	0.0	269.03168864646887	0.3999897370576946
349.0	174.90025989392961	ISI	1.0		11.0		baseline	0.0	269.43167838352656	0.09999396297462226
350.0	175.00025385690424	baseline	0.0		47.0		baseline	0.0	269.5316723465012	0.3999858129909626
350.0	175.0046696388954	pulse	0.0	t			baseline	0.0	269.53608812849234	
350.0	175.4002396698952	ISI	1.0		11.0		baseline	0.0	269.93165815949214	0.09999818889264134
351.0	175.50023785878784	baseline	0.0		48.0		baseline	0.0	270.0316563483848	0.3999800778174176
351.0	175.7003622215043	pulse	0.0	t			baseline	0.0	270.23178071110124	
351.0	175.90021793660526	ISI	1.0		11.0		baseline	0.0	270.4316364262022	0.10003893881184922
352.0	176.0002568754171	baseline	0.0		48.0		baseline	0.0	270.53167536501405	0.39996679636169574
352.0	176.4002236717788	ISI	1.0		11.0		baseline	0.0	270.93164216137575	0.09999486852939299
352.0	176.40497631976905	pulse	1.0	t			baseline	0.0	270.936394809366	
353.0	176.5002185403082	baseline	0.0		48.0		baseline	0.0	271.03163702990514	0.3999897370567851
353.0	176.90020827736498	ISI	1.0		11.0		baseline	0.0	271.4316267669619	0.09997947411466157
354.0	177.00018775147964	baseline	0.0		48.0		baseline	0.0	271.5316062410766	0.4000027166612199
354.0	177.1003133216018	pulse	0.0	t			baseline	0.0	271.63173181119873	
354.0	177.40019046814086	ISI	1.0		11.0		baseline	0.0	271.9316089577378	0.09999667963620595
355.0	177.50018714777707	baseline	0.0		48.0		baseline	0.0	272.031605637374	0.39996166489072493
355.0	177.80028766424493	pulse	0.0	t			baseline	0.0	272.3317061538419	
355.0	177.9001488126678	ISI	1.0		11.0		baseline	0.0	272.43156730226474	0.10001479071161157
356.0	178.0001636033794	baseline	0.0		48.0		baseline	0.0	272.53158209297635	0.39998913335512043
356.0	178.40015273673453	ISI	1.0		11.0		baseline	0.0	272.93157122633147	0.10000482962004753
357.0	178.50015756635457	baseline	0.0		47.0		baseline	0.0	273.0315760559515	0.3999710222797148
357.0	178.50438016354292	pulse	0.0	t			baseline	0.0	273.03579865313986	
357.0	178.9001285886343	ISI	1.0		11.0		baseline	0.0	273.43154707823123	0.09999758519006718
358.0	179.00012617382436	baseline	0.0		48.0		baseline	0.0	273.5315446634213	0.39999788704062667
358.0	179.2002345384244	pulse	0.0	t			baseline	0.0	273.73165302802136	
358.0	179.40012406086498	ISI	1.0		11.0		baseline	0.0	273.9315425504619	0.09999969814907672
359.0	179.50012375901406	baseline	0.0		48.0		baseline	0.0	274.031542248611	0.3999855111396755
359.0	179.90010927015373	ISI	1.0		5.0		baseline	0.0	274.4315277597507	0.1166480021975076
359.0	179.95665204700435	pulse	1.0	t			baseline	0.0	274.4880705366013	
360.0	180.01675727235124	word	0.0		46.0	character	word-143.jpg	0.0	274.5481757619482	0.38329645717203675
360.0	180.40005372952328	ISI	1.0		6.0	character	word-143.jpg	0.0	274.9314722191202	0.1166872428602801
361.0	180.51674097238356	word	0.0		46.0	character	word-93.jpg	0.0	275.0481594619805	0.38329524976688845
361.0	180.60016873485074	pulse	0.0	t		character	word-93.jpg	0.0	275.1315872244477	
361.0	180.90003622215045	ISI	1.0		6.0	character	word-93.jpg	0.0	275.4314547117474	0.1166766780670514
362.0	181.0167129002175	word	0.0		46.0	character	word-73.jpg	0.0	275.54813138981444	0.38328709978304687
362.0	181.30012647567582	pulse	0.0	t		character	word-73.jpg	0.0	275.83154496527277	
362.0	181.40000000000055	ISI	1.0		7.0	character	word-73.jpg	0.0	275.9314184895975	0.11671018355536944
363.0	181.51671018355592	word	0.0		46.0	character	word-73.jpg	1.0	276.04812867315286	0.38328347756760195
363.0	181.89999366112352	ISI	1.0		6.0	character	word-73.jpg	1.0	276.43141215072046	0.11669388358859578
364.0	182.0166875447121	word	0.0		45.0	character	word-59.jpg	0.0	276.54810603430906	0.3832997775352851
364.0	182.00717530615293	pulse	0.0	t		character	word-59.jpg	0.0	276.5385937957499	
364.0	182.21677085565807	response	0.0	b		character	word-59.jpg	0.0	276.748189345255	
364.0	182.3999873222474	ISI	1.0		7.0	character	word-59.jpg	0.0	276.93140581184434	0.11667003733873571
365.0	182.51665735958613	word	0.0		46.0	character	word-75.jpg	0.0	277.0480758491831	0.3833009849413429
365.0	182.7000712368963	pulse	0.0	t		character	word-75.jpg	0.0	277.23148972649324	
365.0	182.89995834452748	ISI	1.0		6.0	character	word-75.jpg	0.0	277.4313768341244	0.11670263727410202
366.0	183.01666098180158	word	0.0		46.0	character	word-86.jpg	0.0	277.5480794713985	0.3832922312540177
366.0	183.3999532130556	ISI	1.0		5.0	character	word-86.jpg	0.0	277.93137170265254	0.11668995952186378
366.0	183.44981662536338	pulse	1.0	t		character	word-86.jpg	0.0	277.9812351149603	
367.0	183.51664317257746	word	0.0		46.0	character	word-46.jpg	0.0	278.0480616621744	0.3832946460643143
367.0	183.89993781864177	ISI	1.0		6.0	character	word-46.jpg	0.0	278.4313563082387	0.11667245214903232
368.0	184.0166102707908	word	0.0		46.0	character	word-134.jpg	0.0	278.54802876038775	0.3833012867917205
368.0	184.10003410919217	pulse	0.0	t		character	word-134.jpg	0.0	278.6314525987891	
368.0	184.39991155758253	ISI	1.0		7.0	character	word-134.jpg	0.0	278.9313300471795	0.11669901505956659
369.0	184.5166105726421	word	0.0		46.0	character	word-49.jpg	0.0	279.04802906223904	0.38327955350177945
369.0	184.80000271666177	pulse	0.0	t		character	word-49.jpg	0.0	279.3314212062587	
369.0	184.89989012614387	ISI	1.0		6.0	character	word-49.jpg	0.0	279.4313086157408	0.11668905396800255
370.0	185.01657918011188	word	0.0		46.0	character	word-55.jpg	0.0	279.5479976697088	0.3833115497345716
370.0	185.39989072984645	ISI	1.0		6.0	character	word-55.jpg	0.0	279.9313092194434	0.11668241324059636
371.0	185.51657314308704	word	0.0		45.0	character	word-111.jpg	0.0	280.047991632684	0.3832880053359986
371.0	185.50685232531123	pulse	0.0	t		character	word-111.jpg	0.0	280.0382708149082	
371.0	185.89986114842304	ISI	1.0		6.0	character	word-111.jpg	0.0	280.43127963802	0.11668301694317051
372.0	186.0165441653662	body	0.0		46.0	body	body-119.jpg	0.0	280.54796265496316	0.38329675902332383
372.0	186.19996951302346	pulse	0.0	t		body	body-119.jpg	0.0	280.7313880026204	
372.0	186.39984092438954	ISI	1.0		6.0	body	body-119.jpg	0.0	280.9312594139865	0.11669116692701209
373.0	186.51653209131655	body	0.0		46.0	body	body-135.jpg	0.0	281.0479505809135	0.38330702196526545
373.0	186.8998391132818	ISI	1.0		6.0	body	body-135.jpg	0.0	281.43125760287876	0.11668754471156717
373.0	186.94070796193046	pulse	1.0	t		body	body-135.jpg	0.0	281.4721264515274	
374.0	187.01652665799338	body	0.0		46.0	body	body-67.jpg	0.0	281.5479451475903	0.3832955516181755
374.0	187.39982220961156	ISI	1.0		6.0	body	body-67.jpg	0.0	281.9312406992085	0.11668935581928963
375.0	187.51651156543085	body	0.0		46.0	body	body-20.jpg	0.0	282.0479300550278	0.38330309789944295
375.0	187.59993661123644	pulse	0.0	t		body	body-20.jpg	0.0	282.1313551008334	
375.0	187.8998146633303	ISI	1.0		7.0	body	body-20.jpg	0.0	282.43123315292723	0.11668120583544805
376.0	188.01649586916574	body	0.0		46.0	body	body-49.jpg	0.0	282.5479143587627	0.3832723090717991
376.0	188.29989586131796	pulse	0.0	t		body	body-49.jpg	0.0	282.8313143509149	
376.0	188.39976817823754	ISI	1.0		7.0	body	body-49.jpg	0.0	282.9311866678345	0.11670112801766663
377.0	188.5164693062552	body	0.0		46.0	body	body-71.jpg	0.0	283.04788779585215	0.3833049090071654
377.0	188.89977421526237	ISI	1.0		7.0	body	body-71.jpg	0.0	283.4311927048593	0.11665735958649748
378.0	189.01643157484887	body	0.0		45.0	body	body-69.jpg	0.0	283.5478500644458	0.38332634044581937
378.0	189.00652692966014	pulse	0.0	t		body	body-69.jpg	0.0	283.5379454192571	
378.0	189.39975791529469	ISI	1.0		6.0	body	body-69.jpg	0.0	283.93117640489163	0.11667879102515144
379.0	189.51643670631984	body	0.0		46.0	body	body-144.jpg	0.0	284.0478551959168	0.3833052108584525
379.0	189.69986356323352	pulse	0.0	t		body	body-144.jpg	0.0	284.23128205283047	
379.0	189.8997419171783	ISI	1.0		7.0	body	body-144.jpg	0.0	284.43116040677523	0.11667486695932894
380.0	190.01641678413762	body	0.0		46.0	body	body-2.jpg	0.0	284.54783527373456	0.38330822937041376
380.0	190.39972501350803	ISI	1.0		6.0	body	body-2.jpg	0.0	284.931143503105	0.11668935581928963
380.0	190.44632420635753	pulse	1.0	t		body	body-2.jpg	0.0	284.9777426959545	
381.0	190.51641436932732	body	0.0		46.0	body	body-80.jpg	0.0	285.04783285892427	0.3832961553207497
381.0	190.89971052464807	ISI	1.0		7.0	body	body-80.jpg	0.0	285.431129014245	0.11668543175255763
382.0	191.01639595640063	body	0.0		46.0	body	body-55.jpg	0.0	285.5478144459976	0.3832943442130272
382.0	191.09981677628912	pulse	0.0	t		body	body-55.jpg	0.0	285.63123526588606	
382.0	191.39969030061366	ISI	1.0		6.0	body	body-55.jpg	0.0	285.9311087902106	0.11669750580313121
383.0	191.5163878064168	body	0.0		46.0	body	body-40.jpg	0.0	286.04780629601373	0.3832765349889087
383.0	191.79979293003998	pulse	0.0	t		body	body-40.jpg	0.0	286.33121141963693	
383.0	191.8996643414057	ISI	1.0		11.0	body	body-40.jpg	0.0	286.43108283100264	0.10004618324182957
384.0	191.99971052464753	baseline	0.0		48.0		baseline	0.0	286.53112901424447	0.39996558895745693
384.0	192.39967611360498	ISI	1.0		11.0		baseline	0.0	286.9310946032019	0.10000573517390876
385.0	192.4996818487789	baseline	0.0		47.0		baseline	0.0	287.03110033837584	0.3999827944780918
385.0	192.50417098062462	pulse	0.0	t			baseline	0.0	287.03558947022157	
385.0	192.89966464325698	ISI	1.0		11.0		baseline	0.0	287.4310831328539	0.09999396297553176
386.0	192.99965860623252	baseline	0.0		48.0		baseline	0.0	287.53107709582946	0.39998913335421094
386.0	193.19976968749324	pulse	0.0	t			baseline	0.0	287.7311881770902	
386.0	193.39964773958673	ISI	1.0		11.0		baseline	0.0	287.93106622918367	0.09999577408234472
387.0	193.49964351366907	baseline	0.0		48.0		baseline	0.0	288.031062003266	0.4000087536869614
387.0	193.89965226735603	ISI	1.0		11.0		baseline	0.0	288.431070756953	0.09997615375050373
387.0	193.9045066392182	pulse	1.0	t			baseline	0.0	288.43592512881514	
388.0	193.99962842110654	baseline	0.0		48.0		baseline	0.0	288.5310469107035	0.39999275557056535
388.0	194.3996211766771	ISI	1.0		11.0		baseline	0.0	288.93103966627405	0.0999960759336318
389.0	194.49961725261073	baseline	0.0		48.0		baseline	0.0	289.0310357422077	0.39997464449425024
389.0	194.59973859681395	pulse	0.0	t			baseline	0.0	289.1311570864109	
389.0	194.89959189710498	ISI	1.0		11.0		baseline	0.0	289.4310103867019	0.10003712770412676
390.0	194.9996290248091	baseline	0.0		48.0		baseline	0.0	289.53104751440605	0.39997343709001143
390.0	195.29971927833412	pulse	0.0	t			baseline	0.0	289.83113776793107	
390.0	195.39960246189912	ISI	1.0		11.0		baseline	0.0	289.93102095149607	0.09998973705751268
391.0	195.49959219895663	baseline	0.0		48.0		baseline	0.0	290.0310106885536	0.39999034075935924
