trial_nr	onset	event_type	phase	response	nr_frames	face_age	face_sex	face_eth	attractiveness	expression	face_id	sub_id	ses	run	trial_type	catch	rating_type	onset_abs	duration
-1.0	0.0566879673033327	fix	0.0		714													21.17973914014692	5.966203526226309
-1.0	0.7065335703873643	pulse	0.0	t														21.829584743230953	
-1.0	1.4064961408321324	pulse	0.0	t														22.52954731367572	
-1.0	2.1064599186811392	pulse	0.0	t														23.229511091524728	
-1.0	2.8064493538877286	pulse	0.0	t														23.929500526731317	
-1.0	3.5064258094898832	pulse	0.0	t														24.629476982333472	
-1.0	4.20640618915786	pulse	0.0	t														25.32945736200145	
-1.0	4.906377211437757	pulse	0.0	t														26.029428384281346	
-1.0	5.606360307767318	pulse	0.0	t														26.729411480610906	
0.0	6.022891493529642	face	0.0		144	20.0	female	white	3.9502586549940313	neutral	091	sub-07	1.0	5.0	091_neutral	0.0		27.14594266637323	1.233304758081431
0.0	6.3063606096193325	pulse	0.0	t		20.0	female	white	3.9502586549940313	neutral	091	sub-07	1.0	5.0	091_neutral	0.0		27.42941178246292	
0.0	7.006307483798082	pulse	0.0	t		20.0	female	white	3.9502586549940313	neutral	091	sub-07	1.0	5.0	091_neutral	0.0		28.12935865664167	
0.0	7.2561962516110725	fix	1.0		445	20.0	female	white	3.9502586549940313	neutral	091	sub-07	1.0	5.0	091_neutral	0.0		28.37924742445466	3.7581779050924524
0.0	7.706280920888275	pulse	1.0	t		20.0	female	white	3.9502586549940313	neutral	091	sub-07	1.0	5.0	091_neutral	0.0		28.829332093731864	
0.0	8.406265224622985	pulse	1.0	t		20.0	female	white	3.9502586549940313	neutral	091	sub-07	1.0	5.0	091_neutral	0.0		29.529316397466573	
0.0	9.106232624687436	pulse	1.0	t		20.0	female	white	3.9502586549940313	neutral	091	sub-07	1.0	5.0	091_neutral	0.0		30.229283797531025	
0.0	9.806238661712086	pulse	1.0	t		20.0	female	white	3.9502586549940313	neutral	091	sub-07	1.0	5.0	091_neutral	0.0		30.929289834555675	
0.0	10.506194591429448	pulse	1.0	t		20.0	female	white	3.9502586549940313	neutral	091	sub-07	1.0	5.0	091_neutral	0.0		31.629245764273037	
1.0	11.014374156703525	face	0.0		146	20.0	male	black	2.609629924393156	smiling	043	sub-07	1.0	5.0	043_smiling	0.0		32.13742532954711	1.2416400786014492
1.0	11.206171650734177	pulse	0.0	t		20.0	male	black	2.609629924393156	smiling	043	sub-07	1.0	5.0	043_smiling	0.0		32.329222823577766	
1.0	11.906145691526035	pulse	0.0	t		20.0	male	black	2.609629924393156	smiling	043	sub-07	1.0	5.0	043_smiling	0.0		33.029196864369624	
1.0	12.256014235304974	fix	1.0		444	20.0	male	black	2.609629924393156	smiling	043	sub-07	1.0	5.0	043_smiling	0.0		33.37906540814856	3.75821141058168
1.0	12.606137541542012	pulse	1.0	t		20.0	male	black	2.609629924393156	smiling	043	sub-07	1.0	5.0	043_smiling	0.0		33.7291887143856	
1.0	13.306104036053512	pulse	1.0	t		20.0	male	black	2.609629924393156	smiling	043	sub-07	1.0	5.0	043_smiling	0.0		34.4291552088971	
1.0	14.006066002795706	pulse	1.0	t		20.0	male	black	2.609629924393156	smiling	043	sub-07	1.0	5.0	043_smiling	0.0		35.129117175639294	
1.0	14.706044269504673	pulse	1.0	t		20.0	male	black	2.609629924393156	smiling	043	sub-07	1.0	5.0	043_smiling	0.0		35.82909544234826	
1.0	15.406036723223224	pulse	1.0	t		20.0	male	black	2.609629924393156	smiling	043	sub-07	1.0	5.0	043_smiling	0.0		36.52908789606681	
2.0	16.014225645886654	face	0.0		146	34.0	male	white	2.651014723438122	smiling	121	sub-07	1.0	5.0	121_smiling	0.0		37.13727681873024	1.2416295138082205
2.0	16.106076567589298	pulse	0.0	t		34.0	male	white	2.651014723438122	smiling	121	sub-07	1.0	5.0	121_smiling	0.0		37.22912774043289	
2.0	16.805990238131017	pulse	0.0	t		34.0	male	white	2.651014723438122	smiling	121	sub-07	1.0	5.0	121_smiling	0.0		37.929041410974605	
2.0	17.255855159694875	fix	1.0		445	34.0	male	white	2.651014723438122	smiling	121	sub-07	1.0	5.0	121_smiling	0.0		38.37890633253846	3.7582047698533643
2.0	17.506006538098518	pulse	1.0	t		34.0	male	white	2.651014723438122	smiling	121	sub-07	1.0	5.0	121_smiling	0.0		38.62905771094211	
2.0	18.20594254563275	pulse	1.0	t		34.0	male	white	2.651014723438122	smiling	121	sub-07	1.0	5.0	121_smiling	0.0		39.32899371847634	
2.0	18.905950393765124	pulse	1.0	t		34.0	male	white	2.651014723438122	smiling	121	sub-07	1.0	5.0	121_smiling	0.0		40.02900156660871	
2.0	19.605902097564467	pulse	1.0	t		34.0	male	white	2.651014723438122	smiling	121	sub-07	1.0	5.0	121_smiling	0.0		40.728953270408056	
2.0	20.305872214290503	pulse	1.0	t		34.0	male	white	2.651014723438122	smiling	121	sub-07	1.0	5.0	121_smiling	0.0		41.42892338713409	
3.0	21.01405992954824	face	0.0		147	54.0	female	white	2.286908077994429	smiling	136	sub-07	1.0	5.0	136_smiling	0.0		42.13711110239183	1.241643398965607
3.0	21.00675150699226	pulse	0.0	t		54.0	female	white	2.286908077994429	smiling	136	sub-07	1.0	5.0	136_smiling	0.0		42.12980267983585	
3.0	21.70582421994095	pulse	0.0	t		54.0	female	white	2.286908077994429	smiling	136	sub-07	1.0	5.0	136_smiling	0.0		42.82887539278454	
3.0	22.255703328513846	fix	1.0		444	54.0	female	white	2.286908077994429	smiling	136	sub-07	1.0	5.0	136_smiling	0.0		43.378754501357434	3.7581932995062743
3.0	22.405807919973086	pulse	1.0	t		54.0	female	white	2.286908077994429	smiling	136	sub-07	1.0	5.0	136_smiling	0.0		43.528859092816674	
3.0	23.105780753360705	pulse	1.0	t		54.0	female	white	2.286908077994429	smiling	136	sub-07	1.0	5.0	136_smiling	0.0		44.22883192620429	
3.0	23.805758718219295	pulse	1.0	t		54.0	female	white	2.286908077994429	smiling	136	sub-07	1.0	5.0	136_smiling	0.0		44.92880989106288	
3.0	24.50573728677955	pulse	1.0	t		54.0	female	white	2.286908077994429	smiling	136	sub-07	1.0	5.0	136_smiling	0.0		45.62878845962314	
3.0	25.20571404423299	pulse	1.0	t		54.0	female	white	2.286908077994429	smiling	136	sub-07	1.0	5.0	136_smiling	0.0		46.32876521707658	
3.0	25.905682349852214	pulse	1.0	t		54.0	female	white	2.286908077994429	smiling	136	sub-07	1.0	5.0	136_smiling	0.0		47.0287335226958	
4.0	26.01389662802012	face	0.0		147	40.0	male	black	2.408674890569041	neutral	061	sub-07	1.0	5.0	061_neutral	0.0		47.13694780086371	1.2416258915927756
4.0	26.6056648424792	pulse	0.0	t		40.0	male	black	2.408674890569041	neutral	061	sub-07	1.0	5.0	061_neutral	0.0		47.72871601532279	
4.0	27.255522519612896	fix	1.0		444	40.0	male	black	2.408674890569041	neutral	061	sub-07	1.0	5.0	061_neutral	0.0		48.378573692456484	3.7581893754395423
4.0	27.30563677031205	pulse	1.0	t		40.0	male	black	2.408674890569041	neutral	061	sub-07	1.0	5.0	061_neutral	0.0		48.42868794315564	
4.0	28.005626507369925	pulse	1.0	t		40.0	male	black	2.408674890569041	neutral	061	sub-07	1.0	5.0	061_neutral	0.0		49.128677680213514	
4.0	28.705586663004397	pulse	1.0	t		40.0	male	black	2.408674890569041	neutral	061	sub-07	1.0	5.0	061_neutral	0.0		49.828637835847985	
4.0	29.405560703796255	pulse	1.0	t		40.0	male	black	2.408674890569041	neutral	061	sub-07	1.0	5.0	061_neutral	0.0		50.52861187663984	
4.0	30.10555044085413	pulse	1.0	t		40.0	male	black	2.408674890569041	neutral	061	sub-07	1.0	5.0	061_neutral	0.0		51.22860161369772	
4.0	30.80552629275371	pulse	1.0	t		40.0	male	black	2.408674890569041	neutral	061	sub-07	1.0	5.0	061_neutral	0.0		51.9285774655973	
5.0	31.013711895052438	face	0.0		146	28.0	male	white	3.9076800636689217	neutral	033	sub-07	1.0	5.0	033_neutral	0.0		52.13676306789603	1.2416506433955874
5.0	31.505500031694282	pulse	0.0	t		28.0	male	white	3.9076800636689217	neutral	033	sub-07	1.0	5.0	033_neutral	0.0		52.62855120453787	
5.0	32.20547497804091	pulse	0.0	t		28.0	male	white	3.9076800636689217	neutral	033	sub-07	1.0	5.0	033_neutral	0.0		53.3285261508845	
5.0	32.255362538448026	fix	1.0		445	28.0	male	white	3.9076800636689217	neutral	033	sub-07	1.0	5.0	033_neutral	0.0		53.378413711291614	3.7582062791097997
5.0	32.90551150204192	pulse	1.0	t		28.0	male	white	3.9076800636689217	neutral	033	sub-07	1.0	5.0	033_neutral	0.0		54.02856267488551	
5.0	33.60546139473445	pulse	1.0	t		28.0	male	white	3.9076800636689217	neutral	033	sub-07	1.0	5.0	033_neutral	0.0		54.728512567578036	
5.0	34.30541762630219	pulse	1.0	t		28.0	male	white	3.9076800636689217	neutral	033	sub-07	1.0	5.0	033_neutral	0.0		55.428468799145776	
5.0	35.00537748008537	pulse	1.0	t		28.0	male	white	3.9076800636689217	neutral	033	sub-07	1.0	5.0	033_neutral	0.0		56.12842865292896	
5.0	35.70537204676293	pulse	1.0	t		28.0	male	white	3.9076800636689217	neutral	033	sub-07	1.0	5.0	033_neutral	0.0		56.82842321960652	
6.0	36.013568817557825	face	0.0		146	31.0	female	west_asian	2.364902506963788	smiling	006	sub-07	1.0	5.0	006_smiling	0.0		57.136619990401414	1.2416267971475463
6.0	36.40535001162152	pulse	0.0	t		31.0	female	west_asian	2.364902506963788	smiling	006	sub-07	1.0	5.0	006_smiling	0.0		57.52840118446511	
6.0	37.10535212458035	pulse	0.0	t		31.0	female	west_asian	2.364902506963788	smiling	006	sub-07	1.0	5.0	006_smiling	0.0		58.22840329742394	
6.0	37.25519561470537	fix	1.0		445	31.0	female	west_asian	2.364902506963788	smiling	006	sub-07	1.0	5.0	006_smiling	0.0		58.37824678754896	3.75834241402481
6.0	37.80529054692488	pulse	1.0	t		31.0	female	west_asian	2.364902506963788	smiling	006	sub-07	1.0	5.0	006_smiling	0.0		58.92834171976847	
6.0	38.50527183214672	pulse	1.0	t		31.0	female	west_asian	2.364902506963788	smiling	006	sub-07	1.0	5.0	006_smiling	0.0		59.62832300499031	
6.0	39.205243759980476	pulse	1.0	t		31.0	female	west_asian	2.364902506963788	smiling	006	sub-07	1.0	5.0	006_smiling	0.0		60.328294932824065	
6.0	39.90523621369903	pulse	1.0	t		31.0	female	west_asian	2.364902506963788	smiling	006	sub-07	1.0	5.0	006_smiling	0.0		61.028287386542615	
6.0	40.60520210450704	pulse	1.0	t		31.0	female	west_asian	2.364902506963788	smiling	006	sub-07	1.0	5.0	006_smiling	0.0		61.72825327735063	
7.0	41.01353802873018	face	0.0		146	24.0	male	white	3.1153999204138483	smiling	012	sub-07	1.0	5.0	012_smiling	0.0		62.13658920157377	1.241485832611943
7.0	41.305178861960485	pulse	0.0	t		24.0	male	white	3.1153999204138483	smiling	012	sub-07	1.0	5.0	012_smiling	0.0		62.42823003480407	
7.0	42.005161958290046	pulse	0.0	t		24.0	male	white	3.1153999204138483	smiling	012	sub-07	1.0	5.0	012_smiling	0.0		63.128213131133634	
7.0	42.255023861342124	fix	1.0		445	24.0	male	white	3.1153999204138483	smiling	012	sub-07	1.0	5.0	012_smiling	0.0		63.37807503418571	3.7583421121735228
7.0	42.705143243512794	pulse	1.0	t		24.0	male	white	3.1153999204138483	smiling	012	sub-07	1.0	5.0	012_smiling	0.0		63.82819441635638	
7.0	43.405115775048216	pulse	1.0	t		24.0	male	white	3.1153999204138483	smiling	012	sub-07	1.0	5.0	012_smiling	0.0		64.5281669478918	
7.0	44.10508377881524	pulse	1.0	t		24.0	male	white	3.1153999204138483	smiling	012	sub-07	1.0	5.0	012_smiling	0.0		65.22813495165883	
7.0	44.80505993256702	pulse	1.0	t		24.0	male	white	3.1153999204138483	smiling	012	sub-07	1.0	5.0	012_smiling	0.0		65.92811110541061	
7.0	45.505034275210164	pulse	1.0	t		24.0	male	white	3.1153999204138483	smiling	012	sub-07	1.0	5.0	012_smiling	0.0		66.62808544805375	
8.0	46.01336597351565	face	0.0		146	25.0	female	west_asian	2.6756864305610826	smiling	064	sub-07	1.0	5.0	064_smiling	0.0		67.13641714635924	1.2415111881164194
8.0	46.205022503010696	pulse	0.0	t		25.0	female	west_asian	2.6756864305610826	smiling	064	sub-07	1.0	5.0	064_smiling	0.0		67.32807367585428	
8.0	46.90499473269574	pulse	0.0	t		25.0	female	west_asian	2.6756864305610826	smiling	064	sub-07	1.0	5.0	064_smiling	0.0		68.02804590553933	
8.0	47.254877161632066	fix	1.0		444	25.0	female	west_asian	2.6756864305610826	smiling	064	sub-07	1.0	5.0	064_smiling	0.0		68.37792833447565	3.7665165459766285
8.0	47.60497390495948	pulse	1.0	t		25.0	female	west_asian	2.6756864305610826	smiling	064	sub-07	1.0	5.0	064_smiling	0.0		68.72802507780307	
8.0	48.30495700128904	pulse	1.0	t		25.0	female	west_asian	2.6756864305610826	smiling	064	sub-07	1.0	5.0	064_smiling	0.0		69.42800817413263	
8.0	49.00491926988252	pulse	1.0	t		25.0	female	west_asian	2.6756864305610826	smiling	064	sub-07	1.0	5.0	064_smiling	0.0		70.12797044272611	
8.0	49.704908403236914	pulse	1.0	t		25.0	female	west_asian	2.6756864305610826	smiling	064	sub-07	1.0	5.0	064_smiling	0.0		70.8279595760805	
8.0	50.404870671830395	pulse	1.0	t		25.0	female	west_asian	2.6756864305610826	smiling	064	sub-07	1.0	5.0	064_smiling	0.0		71.52792184467398	
9.0	51.021393707608695	face	0.0		145	32.0	male	white	2.389176283326701	neutral	092	sub-07	1.0	5.0	092_neutral	0.0		72.14444488045228	1.233326491371372
9.0	51.10486342740023	pulse	0.0	t		32.0	male	white	2.389176283326701	neutral	092	sub-07	1.0	5.0	092_neutral	0.0		72.22791460024382	
9.0	51.80484471262298	pulse	0.0	t		32.0	male	white	2.389176283326701	neutral	092	sub-07	1.0	5.0	092_neutral	0.0		72.92789588546657	
9.0	52.25472019898007	fix	1.0		445	32.0	male	white	2.389176283326701	neutral	092	sub-07	1.0	5.0	092_neutral	0.0		73.37777137182366	3.766521979299796
9.0	52.50482509229096	pulse	1.0	t		32.0	male	white	2.389176283326701	neutral	092	sub-07	1.0	5.0	092_neutral	0.0		73.62787626513455	
9.0	53.204786757181864	pulse	1.0	t		32.0	male	white	2.389176283326701	neutral	092	sub-07	1.0	5.0	092_neutral	0.0		74.32783793002545	
9.0	53.90476532574303	pulse	1.0	t		32.0	male	white	2.389176283326701	neutral	092	sub-07	1.0	5.0	092_neutral	0.0		75.02781649858662	
9.0	54.604743592452905	pulse	1.0	t		32.0	male	white	2.389176283326701	neutral	092	sub-07	1.0	5.0	092_neutral	0.0		75.7277947652965	
9.0	55.30472548137732	pulse	1.0	t		32.0	male	white	2.389176283326701	neutral	092	sub-07	1.0	5.0	092_neutral	0.0		76.4277766542209	
10.0	56.02124217827986	face	0.0		146	26.0	female	white	4.854755272582572	neutral	027	sub-07	1.0	5.0	027_neutral	0.0		77.14429335112345	1.2332996266095506
10.0	56.007301479977286	pulse	0.0	t		26.0	female	white	4.854755272582572	neutral	027	sub-07	1.0	5.0	027_neutral	0.0		77.13035265282087	
10.0	56.704685938862895	pulse	0.0	t		26.0	female	white	4.854755272582572	neutral	027	sub-07	1.0	5.0	027_neutral	0.0		77.82773711170648	
10.0	57.25454180488941	fix	1.0		443	26.0	female	white	4.854755272582572	neutral	027	sub-07	1.0	5.0	027_neutral	0.0		78.377592977733	3.766529525580154
10.0	57.40465152782053	pulse	1.0	t		26.0	female	white	4.854755272582572	neutral	027	sub-07	1.0	5.0	027_neutral	0.0		78.52770270066412	
10.0	58.10461953158756	pulse	1.0	t		26.0	female	white	4.854755272582572	neutral	027	sub-07	1.0	5.0	027_neutral	0.0		79.22767070443115	
10.0	58.8046189278848	pulse	1.0	t		26.0	female	white	4.854755272582572	neutral	027	sub-07	1.0	5.0	027_neutral	0.0		79.92767010072839	
10.0	59.50459025201599	pulse	1.0	t		26.0	female	white	4.854755272582572	neutral	027	sub-07	1.0	5.0	027_neutral	0.0		80.62764142485958	
10.0	60.204555840972716	pulse	1.0	t		26.0	female	white	4.854755272582572	neutral	027	sub-07	1.0	5.0	027_neutral	0.0		81.3276070138163	
10.0	60.90453561693903	pulse	1.0	t		26.0	female	white	4.854755272582572	neutral	027	sub-07	1.0	5.0	027_neutral	0.0		82.02758678978262	
11.0	61.02107133046957	face	0.0		146	40.0	female	west_asian	1.5777954635893354	neutral	038	sub-07	1.0	5.0	038_neutral	1.0	trustworthiness	82.14412250331316	1.2333180395371528
11.0	61.60451267624376	pulse	0.0	t		40.0	female	west_asian	1.5777954635893354	neutral	038	sub-07	1.0	5.0	038_neutral	1.0	trustworthiness	82.72756384908735	
11.0	62.25438937000672	fix	1.0		176	40.0	female	west_asian	1.5777954635893354	neutral	038	sub-07	1.0	5.0	038_neutral	1.0	trustworthiness	83.37744054285031	1.508301211329126
11.0	62.30449667812718	pulse	1.0	t		40.0	female	west_asian	1.5777954635893354	neutral	038	sub-07	1.0	5.0	038_neutral	1.0	trustworthiness	83.42754785097077	
11.0	63.00447585039092	pulse	1.0	t		40.0	female	west_asian	1.5777954635893354	neutral	038	sub-07	1.0	5.0	038_neutral	1.0	trustworthiness	84.1275270232345	
11.0	63.70444325045537	pulse	1.0	t		40.0	female	west_asian	1.5777954635893354	neutral	038	sub-07	1.0	5.0	038_neutral	1.0	trustworthiness	84.82749442329896	
11.0	63.762690581335846	rating	2.0		294	40.0	female	west_asian	1.5777954635893354	neutral	038	sub-07	1.0	5.0	038_neutral	1.0	trustworthiness	84.88574175417943	2.4915535982172514
11.0	64.39920190528483	pulse	2.0	t		40.0	female	west_asian	1.5777954635893354	neutral	038	sub-07	1.0	5.0	038_neutral	1.0	trustworthiness	85.52225307812841	
11.0	65.09931570320805	pulse	2.0	t		40.0	female	west_asian	1.5777954635893354	neutral	038	sub-07	1.0	5.0	038_neutral	1.0	trustworthiness	86.22236687605164	
11.0	65.32939276583329	response	2.0	e		40.0	female	west_asian	1.5777954635893354	neutral	038	sub-07	1.0	5.0	038_neutral	1.0	trustworthiness	86.45244393867688	
11.0	65.80438408760983	pulse	2.0	t		40.0	female	west_asian	1.5777954635893354	neutral	038	sub-07	1.0	5.0	038_neutral	1.0	trustworthiness	86.92743526045342	
11.0	66.2542441795531	fix	3.0		444	40.0	female	west_asian	1.5777954635893354	neutral	038	sub-07	1.0	5.0	038_neutral	1.0	trustworthiness	87.37729535239669	3.7665358644571825
11.0	66.5043557135914	pulse	3.0	t		40.0	female	west_asian	1.5777954635893354	neutral	038	sub-07	1.0	5.0	038_neutral	1.0	trustworthiness	87.62740688643498	
11.0	67.2043810690966	pulse	3.0	t		40.0	female	west_asian	1.5777954635893354	neutral	038	sub-07	1.0	5.0	038_neutral	1.0	trustworthiness	88.32743224194019	
11.0	67.90432522661467	pulse	3.0	t		40.0	female	west_asian	1.5777954635893354	neutral	038	sub-07	1.0	5.0	038_neutral	1.0	trustworthiness	89.02737639945826	
11.0	68.60428115633204	pulse	3.0	t		40.0	female	west_asian	1.5777954635893354	neutral	038	sub-07	1.0	5.0	038_neutral	1.0	trustworthiness	89.72733232917562	
11.0	69.30426908228219	pulse	3.0	t		40.0	female	west_asian	1.5777954635893354	neutral	038	sub-07	1.0	5.0	038_neutral	1.0	trustworthiness	90.42732025512578	
12.0	70.02078004401028	face	0.0		146	21.0	male	east_asian/white	3.501790688420215	neutral	036	sub-07	1.0	5.0	036_neutral	1.0	trustworthiness	91.14383121685387	1.2333020414198472
12.0	70.00695495473792	pulse	0.0	t		21.0	male	east_asian/white	3.501790688420215	neutral	036	sub-07	1.0	5.0	036_neutral	1.0	trustworthiness	91.13000612758151	
12.0	70.7042241064446	pulse	0.0	t		21.0	male	east_asian/white	3.501790688420215	neutral	036	sub-07	1.0	5.0	036_neutral	1.0	trustworthiness	91.82727527928819	
12.0	71.25408208543013	fix	1.0		177	21.0	male	east_asian/white	3.501790688420215	neutral	036	sub-07	1.0	5.0	036_neutral	1.0	trustworthiness	92.37713325827372	1.4999631741466146
12.0	71.40419211021162	pulse	1.0	t		21.0	male	east_asian/white	3.501790688420215	neutral	036	sub-07	1.0	5.0	036_neutral	1.0	trustworthiness	92.52724328305521	
12.0	72.10416433989667	pulse	1.0	t		21.0	male	east_asian/white	3.501790688420215	neutral	036	sub-07	1.0	5.0	036_neutral	1.0	trustworthiness	93.22721551274026	
12.0	72.75404525957674	rating	2.0		294	21.0	male	east_asian/white	3.501790688420215	neutral	036	sub-07	1.0	5.0	036_neutral	1.0	trustworthiness	93.87709643242033	2.499917292756436
12.0	72.79893355952026	pulse	2.0	t		21.0	male	east_asian/white	3.501790688420215	neutral	036	sub-07	1.0	5.0	036_neutral	1.0	trustworthiness	93.92198473236385	
12.0	73.49889311145307	pulse	2.0	t		21.0	male	east_asian/white	3.501790688420215	neutral	036	sub-07	1.0	5.0	036_neutral	1.0	trustworthiness	94.62194428429666	
12.0	74.19887107631075	pulse	2.0	t		21.0	male	east_asian/white	3.501790688420215	neutral	036	sub-07	1.0	5.0	036_neutral	1.0	trustworthiness	95.32192224915434	
12.0	74.34885311616199	response	2.0	y		21.0	male	east_asian/white	3.501790688420215	neutral	036	sub-07	1.0	5.0	036_neutral	1.0	trustworthiness	95.47190428900558	
12.0	74.90407197341301	pulse	2.0	t		21.0	male	east_asian/white	3.501790688420215	neutral	036	sub-07	1.0	5.0	036_neutral	1.0	trustworthiness	96.0271231462566	
12.0	75.25396255233318	fix	3.0		444	21.0	male	east_asian/white	3.501790688420215	neutral	036	sub-07	1.0	5.0	036_neutral	1.0	trustworthiness	96.37701372517677	3.7665108108030836
12.0	75.60405205123061	pulse	3.0	t		21.0	male	east_asian/white	3.501790688420215	neutral	036	sub-07	1.0	5.0	036_neutral	1.0	trustworthiness	96.7271032240742	
12.0	76.30406503083395	pulse	3.0	t		21.0	male	east_asian/white	3.501790688420215	neutral	036	sub-07	1.0	5.0	036_neutral	1.0	trustworthiness	97.42711620367754	
12.0	77.00400707539393	pulse	3.0	t		21.0	male	east_asian/white	3.501790688420215	neutral	036	sub-07	1.0	5.0	036_neutral	1.0	trustworthiness	98.12705824823752	
12.0	77.70398171988836	pulse	3.0	t		21.0	male	east_asian/white	3.501790688420215	neutral	036	sub-07	1.0	5.0	036_neutral	1.0	trustworthiness	98.82703289273195	
12.0	78.40397115509404	pulse	3.0	t		21.0	male	east_asian/white	3.501790688420215	neutral	036	sub-07	1.0	5.0	036_neutral	1.0	trustworthiness	99.52702232793763	
13.0	79.02047336313626	face	0.0		145	19.0	male	white	2.243931555909272	neutral	130	sub-07	1.0	5.0	130_neutral	0.0		100.14352453597985	1.2333126062139854
13.0	79.10395394957322	pulse	0.0	t		19.0	male	white	2.243931555909272	neutral	130	sub-07	1.0	5.0	130_neutral	0.0		100.22700512241681	
13.0	79.80392014223253	pulse	0.0	t		19.0	male	white	2.243931555909272	neutral	130	sub-07	1.0	5.0	130_neutral	0.0		100.92697131507612	
13.0	80.25378596935025	fix	1.0		445	19.0	male	white	2.243931555909272	neutral	130	sub-07	1.0	5.0	130_neutral	0.0		101.37683714219384	3.758203562448216
13.0	80.50389025895856	pulse	1.0	t		19.0	male	white	2.243931555909272	neutral	130	sub-07	1.0	5.0	130_neutral	0.0		101.62694143180215	
13.0	81.20387697750357	pulse	1.0	t		19.0	male	white	2.243931555909272	neutral	130	sub-07	1.0	5.0	130_neutral	0.0		102.32692815034716	
13.0	81.90384860348513	pulse	1.0	t		19.0	male	white	2.243931555909272	neutral	130	sub-07	1.0	5.0	130_neutral	0.0		103.02689977632872	
13.0	82.60385011274138	pulse	1.0	t		19.0	male	white	2.243931555909272	neutral	130	sub-07	1.0	5.0	130_neutral	0.0		103.72690128558497	
13.0	83.30379970358263	pulse	1.0	t		19.0	male	white	2.243931555909272	neutral	130	sub-07	1.0	5.0	130_neutral	0.0		104.42685087642622	
14.0	84.01198953179846	face	0.0		147	24.0	female	east_asian	2.9076800636689217	neutral	034	sub-07	1.0	5.0	034_neutral	0.0		105.13504070464205	1.24164098415622
14.0	84.00528692470925	pulse	0.0	t		24.0	female	east_asian	2.9076800636689217	neutral	034	sub-07	1.0	5.0	034_neutral	0.0		105.12833809755284	
14.0	84.70380423135066	pulse	0.0	t		24.0	female	east_asian	2.9076800636689217	neutral	034	sub-07	1.0	5.0	034_neutral	0.0		105.82685540419425	
14.0	85.25363051595468	fix	1.0		443	24.0	female	east_asian	2.9076800636689217	neutral	034	sub-07	1.0	5.0	034_neutral	0.0		106.37668168879827	3.7582627252941165
14.0	85.4038561497664	pulse	1.0	t		24.0	female	east_asian	2.9076800636689217	neutral	034	sub-07	1.0	5.0	034_neutral	0.0		106.52690732260999	
14.0	86.10370914820578	pulse	1.0	t		24.0	female	east_asian	2.9076800636689217	neutral	034	sub-07	1.0	5.0	034_neutral	0.0		107.22676032104937	
14.0	86.8036910371311	pulse	1.0	t		24.0	female	east_asian	2.9076800636689217	neutral	034	sub-07	1.0	5.0	034_neutral	0.0		107.92674220997469	
14.0	87.50367171865037	pulse	1.0	t		24.0	female	east_asian	2.9076800636689217	neutral	034	sub-07	1.0	5.0	034_neutral	0.0		108.62672289149396	
14.0	88.20364243907898	pulse	1.0	t		24.0	female	east_asian	2.9076800636689217	neutral	034	sub-07	1.0	5.0	034_neutral	0.0		109.32669361192256	
14.0	88.90361647987083	pulse	1.0	t		24.0	female	east_asian	2.9076800636689217	neutral	034	sub-07	1.0	5.0	034_neutral	0.0		110.02666765271442	
15.0	89.0118932412488	face	0.0		147	24.0	female	east_asian	4.409868682849185	smiling	030	sub-07	1.0	5.0	030_smiling	0.0		110.13494441409239	1.2415772935410132
15.0	89.6035838799362	pulse	0.0	t		24.0	female	east_asian	4.409868682849185	smiling	030	sub-07	1.0	5.0	030_smiling	0.0		110.72663505277978	
15.0	90.25347053478981	fix	1.0		443	24.0	female	east_asian	4.409868682849185	smiling	030	sub-07	1.0	5.0	030_smiling	0.0		111.3765217076334	3.758268762319858
15.0	90.30358508734116	pulse	1.0	t		24.0	female	east_asian	4.409868682849185	smiling	030	sub-07	1.0	5.0	030_smiling	0.0		111.42663626018475	
15.0	91.00355671332272	pulse	1.0	t		24.0	female	east_asian	4.409868682849185	smiling	030	sub-07	1.0	5.0	030_smiling	0.0		112.12660788616631	
15.0	91.70355942998413	pulse	1.0	t		24.0	female	east_asian	4.409868682849185	smiling	030	sub-07	1.0	5.0	030_smiling	0.0		112.82661060282771	
15.0	92.4035084171228	pulse	1.0	t		24.0	female	east_asian	4.409868682849185	smiling	030	sub-07	1.0	5.0	030_smiling	0.0		113.52655958996638	
15.0	93.10347762829406	pulse	1.0	t		24.0	female	east_asian	4.409868682849185	smiling	030	sub-07	1.0	5.0	030_smiling	0.0		114.22652880113765	
15.0	93.80346253573134	pulse	1.0	t		24.0	female	east_asian	4.409868682849185	smiling	030	sub-07	1.0	5.0	030_smiling	0.0		114.92651370857493	
16.0	94.01173929710967	face	0.0		146	20.0	male	black	2.609629924393156	neutral	043	sub-07	1.0	5.0	043_neutral	0.0		115.13479046995326	1.2415528435894885
16.0	94.50344170799508	pulse	0.0	t		20.0	male	black	2.609629924393156	neutral	043	sub-07	1.0	5.0	043_neutral	0.0		115.62649288083867	
16.0	95.20342299321783	pulse	0.0	t		20.0	male	black	2.609629924393156	neutral	043	sub-07	1.0	5.0	043_neutral	0.0		116.32647416606142	
16.0	95.25329214069916	fix	1.0		445	20.0	male	black	2.609629924393156	neutral	043	sub-07	1.0	5.0	043_neutral	0.0		116.37634331354275	3.7582847604353447
16.0	95.90338918587713	pulse	1.0	t		20.0	male	black	2.609629924393156	neutral	043	sub-07	1.0	5.0	043_neutral	0.0		117.02644035872072	
16.0	96.60335960445445	pulse	1.0	t		20.0	male	black	2.609629924393156	neutral	043	sub-07	1.0	5.0	043_neutral	0.0		117.72641077729804	
16.0	97.30333998412243	pulse	1.0	t		20.0	male	black	2.609629924393156	neutral	043	sub-07	1.0	5.0	043_neutral	0.0		118.42639115696602	
16.0	98.00331794898102	pulse	1.0	t		20.0	male	black	2.609629924393156	neutral	043	sub-07	1.0	5.0	043_neutral	0.0		119.12636912182461	
16.0	98.70327719906163	pulse	1.0	t		20.0	male	black	2.609629924393156	neutral	043	sub-07	1.0	5.0	043_neutral	0.0		119.82632837190522	
17.0	99.0115769011345	face	0.0		146	31.0	female	east_asian	3.395941106247513	neutral	087	sub-07	1.0	5.0	087_neutral	0.0		120.13462807397809	1.241552541739111
17.0	99.40327357684691	pulse	0.0	t		31.0	female	east_asian	3.395941106247513	neutral	087	sub-07	1.0	5.0	087_neutral	0.0		120.5263247496905	
17.0	100.10324761763877	pulse	0.0	t		31.0	female	east_asian	3.395941106247513	neutral	087	sub-07	1.0	5.0	087_neutral	0.0		121.22629879048236	
17.0	100.25312944287361	fix	1.0		444	31.0	female	east_asian	3.395941106247513	neutral	087	sub-07	1.0	5.0	087_neutral	0.0		121.3761806157172	3.7581899791421165
17.0	100.80325486206948	pulse	1.0	t		31.0	female	east_asian	3.395941106247513	neutral	087	sub-07	1.0	5.0	087_neutral	0.0		121.92630603491307	
17.0	101.50321652696039	pulse	1.0	t		31.0	female	east_asian	3.395941106247513	neutral	087	sub-07	1.0	5.0	087_neutral	0.0		122.62626769980398	
17.0	102.20319449181807	pulse	1.0	t		31.0	female	east_asian	3.395941106247513	neutral	087	sub-07	1.0	5.0	087_neutral	0.0		123.32624566466166	
17.0	102.90316068447828	pulse	1.0	t		31.0	female	east_asian	3.395941106247513	neutral	087	sub-07	1.0	5.0	087_neutral	0.0		124.02621185732187	
17.0	103.60315223264297	pulse	1.0	t		31.0	female	east_asian	3.395941106247513	neutral	087	sub-07	1.0	5.0	087_neutral	0.0		124.72620340548656	
18.0	104.01131942201573	face	0.0		146	22.0	male	black	2.767608436132113	neutral	044	sub-07	1.0	5.0	044_neutral	0.0		125.13437059485932	1.241638871196301
18.0	104.30311027531843	pulse	0.0	t		22.0	male	black	2.767608436132113	neutral	044	sub-07	1.0	5.0	044_neutral	0.0		125.42616144816202	
18.0	105.00309246609504	pulse	0.0	t		22.0	male	black	2.767608436132113	neutral	044	sub-07	1.0	5.0	044_neutral	0.0		126.12614363893863	
18.0	105.25295829321203	fix	1.0		444	22.0	male	black	2.767608436132113	neutral	044	sub-07	1.0	5.0	044_neutral	0.0		126.37600946605562	3.7665518625735785
18.0	105.70306379022531	pulse	1.0	t		22.0	male	black	2.767608436132113	neutral	044	sub-07	1.0	5.0	044_neutral	0.0		126.8261149630689	
18.0	106.40304567915064	pulse	1.0	t		22.0	male	black	2.767608436132113	neutral	044	sub-07	1.0	5.0	044_neutral	0.0		127.52609685199423	
18.0	107.10301700328091	pulse	1.0	t		22.0	male	black	2.767608436132113	neutral	044	sub-07	1.0	5.0	044_neutral	0.0		128.2260681761245	
18.0	107.80299466628821	pulse	1.0	t		22.0	male	black	2.767608436132113	neutral	044	sub-07	1.0	5.0	044_neutral	0.0		128.9260458391318	
18.0	108.50296900893227	pulse	1.0	t		22.0	male	black	2.767608436132113	neutral	044	sub-07	1.0	5.0	044_neutral	0.0		129.62602018177586	
19.0	109.01951015578561	face	0.0		145	21.0	male	black	2.969757262236371	smiling	137	sub-07	1.0	5.0	137_smiling	0.0		130.1425613286292	1.2333032488249955
19.0	109.20295119970797	pulse	0.0	t		21.0	male	black	2.969757262236371	smiling	137	sub-07	1.0	5.0	137_smiling	0.0		130.32600237255156	
19.0	109.90292976826913	pulse	0.0	t		21.0	male	black	2.969757262236371	smiling	137	sub-07	1.0	5.0	137_smiling	0.0		131.02598094111272	
19.0	110.2528134046106	fix	1.0		444	21.0	male	black	2.969757262236371	smiling	137	sub-07	1.0	5.0	137_smiling	0.0		131.3758645774542	3.7582461234751463
19.0	110.60291527940899	pulse	1.0	t		21.0	male	black	2.969757262236371	smiling	137	sub-07	1.0	5.0	137_smiling	0.0		131.72596645225258	
19.0	111.30288962205213	pulse	1.0	t		21.0	male	black	2.969757262236371	smiling	137	sub-07	1.0	5.0	137_smiling	0.0		132.42594079489572	
19.0	112.00286305914142	pulse	1.0	t		21.0	male	black	2.969757262236371	smiling	137	sub-07	1.0	5.0	137_smiling	0.0		133.125914231985	
19.0	112.70282442218104	pulse	1.0	t		21.0	male	black	2.969757262236371	smiling	137	sub-07	1.0	5.0	137_smiling	0.0		133.82587559502463	
19.0	113.40282019626375	pulse	1.0	t		21.0	male	black	2.969757262236371	smiling	137	sub-07	1.0	5.0	137_smiling	0.0		134.52587136910734	
20.0	114.01105952808575	face	0.0		146	24.0	female	black	3.0955033824114606	smiling	099	sub-07	1.0	5.0	099_smiling	0.0		135.13411070092934	1.2415836324180418
20.0	114.10280389629588	pulse	0.0	t		24.0	female	black	3.0955033824114606	smiling	099	sub-07	1.0	5.0	099_smiling	0.0		135.22585506913947	
20.0	114.80276133526968	pulse	0.0	t		24.0	female	black	3.0955033824114606	smiling	099	sub-07	1.0	5.0	099_smiling	0.0		135.92581250811327	
20.0	115.2526431605038	fix	1.0		1185	24.0	female	black	3.0955033824114606	smiling	099	sub-07	1.0	5.0	099_smiling	0.0		136.37569433334738	10.016329247273461
20.0	115.50272209460672	pulse	1.0	t		24.0	female	black	3.0955033824114606	smiling	099	sub-07	1.0	5.0	099_smiling	0.0		136.6257732674503	
20.0	116.20272118905268	pulse	1.0	t		24.0	female	black	3.0955033824114606	smiling	099	sub-07	1.0	5.0	099_smiling	0.0		137.32577236189627	
20.0	116.90270156872066	pulse	1.0	t		24.0	female	black	3.0955033824114606	smiling	099	sub-07	1.0	5.0	099_smiling	0.0		138.02575274156425	
20.0	117.6026695724886	pulse	1.0	t		24.0	female	black	3.0955033824114606	smiling	099	sub-07	1.0	5.0	099_smiling	0.0		138.72572074533218	
20.0	118.30267470395938	pulse	1.0	t		24.0	female	black	3.0955033824114606	smiling	099	sub-07	1.0	5.0	099_smiling	0.0		139.42572587680297	
20.0	119.00263093552803	pulse	1.0	t		24.0	female	black	3.0955033824114606	smiling	099	sub-07	1.0	5.0	099_smiling	0.0		140.12568210837162	
20.0	119.70261463556017	pulse	1.0	t		24.0	female	black	3.0955033824114606	smiling	099	sub-07	1.0	5.0	099_smiling	0.0		140.82566580840376	
20.0	120.40259078931103	pulse	1.0	t		24.0	female	black	3.0955033824114606	smiling	099	sub-07	1.0	5.0	099_smiling	0.0		141.52564196215462	
20.0	121.10255154864808	pulse	1.0	t		24.0	female	black	3.0955033824114606	smiling	099	sub-07	1.0	5.0	099_smiling	0.0		142.22560272149167	
20.0	121.80254430421792	pulse	1.0	t		24.0	female	black	3.0955033824114606	smiling	099	sub-07	1.0	5.0	099_smiling	0.0		142.9255954770615	
20.0	122.50255486901187	pulse	1.0	t		24.0	female	black	3.0955033824114606	smiling	099	sub-07	1.0	5.0	099_smiling	0.0		143.62560604185546	
20.0	123.20248695247938	pulse	1.0	t		24.0	female	black	3.0955033824114606	smiling	099	sub-07	1.0	5.0	099_smiling	0.0		144.32553812532296	
20.0	123.90247367102438	pulse	1.0	t		24.0	female	black	3.0955033824114606	smiling	099	sub-07	1.0	5.0	099_smiling	0.0		145.02552484386797	
20.0	124.60245012662654	pulse	1.0	t		24.0	female	black	3.0955033824114606	smiling	099	sub-07	1.0	5.0	099_smiling	0.0		145.72550129947012	
21.0	125.26897240777726	face	0.0		145	24.0	female	black	3.0955033824114606	neutral	099	sub-07	1.0	5.0	099_neutral	0.0		146.39202358062084	1.2333080784446793
21.0	125.30243141184928	pulse	0.0	t		24.0	female	black	3.0955033824114606	neutral	099	sub-07	1.0	5.0	099_neutral	0.0		146.42548258469287	
21.0	126.0024087730053	pulse	0.0	t		24.0	female	black	3.0955033824114606	neutral	099	sub-07	1.0	5.0	099_neutral	0.0		147.1254599458489	
21.0	126.50228048622193	fix	1.0		443	24.0	female	black	3.0955033824114606	neutral	099	sub-07	1.0	5.0	099_neutral	0.0		147.62533165906552	3.7582675549147098
21.0	126.70238371935102	pulse	1.0	t		24.0	female	black	3.0955033824114606	neutral	099	sub-07	1.0	5.0	099_neutral	0.0		147.8254348921946	
21.0	127.4023595712506	pulse	1.0	t		24.0	female	black	3.0955033824114606	neutral	099	sub-07	1.0	5.0	099_neutral	0.0		148.5254107440942	
21.0	128.10232968797663	pulse	1.0	t		24.0	female	black	3.0955033824114606	neutral	099	sub-07	1.0	5.0	099_neutral	0.0		149.22538086082022	
21.0	128.80230101210782	pulse	1.0	t		24.0	female	black	3.0955033824114606	neutral	099	sub-07	1.0	5.0	099_neutral	0.0		149.9253521849514	
21.0	129.50228018437065	pulse	1.0	t		24.0	female	black	3.0955033824114606	neutral	099	sub-07	1.0	5.0	099_neutral	0.0		150.62533135721424	
21.0	130.20226780846951	pulse	1.0	t		24.0	female	black	3.0955033824114606	neutral	099	sub-07	1.0	5.0	099_neutral	0.0		151.3253189813131	
22.0	130.26054804113664	face	0.0		147	40.0	male	white	1.868682849184242	neutral	172	sub-07	1.0	5.0	172_neutral	1.0	dominance	151.38359921398023	1.2415712565161812
22.0	130.90227837326347	pulse	0.0	t		40.0	male	white	1.868682849184242	neutral	172	sub-07	1.0	5.0	172_neutral	1.0	dominance	152.02532954610706	
22.0	131.50211929765283	fix	1.0		177	40.0	male	white	1.868682849184242	neutral	172	sub-07	1.0	5.0	172_neutral	1.0	dominance	152.6251704704964	1.4999405353028123
22.0	131.6022300770628	pulse	1.0	t		40.0	male	white	1.868682849184242	neutral	172	sub-07	1.0	5.0	172_neutral	1.0	dominance	152.7252812499064	
22.0	132.3021669901509	pulse	1.0	t		40.0	male	white	1.868682849184242	neutral	172	sub-07	1.0	5.0	172_neutral	1.0	dominance	153.4252181629945	
22.0	133.00205983295564	rating	2.0		294	40.0	male	white	1.868682849184242	neutral	172	sub-07	1.0	5.0	172_neutral	1.0	dominance	154.12511100579923	2.499917594607723
22.0	132.9982033813376	pulse	2.0	t		40.0	male	white	1.868682849184242	neutral	172	sub-07	1.0	5.0	172_neutral	1.0	dominance	154.12125455418118	
22.0	133.69692655053495	pulse	2.0	t		40.0	male	white	1.868682849184242	neutral	172	sub-07	1.0	5.0	172_neutral	1.0	dominance	154.81997772337854	
22.0	134.3970056355629	pulse	2.0	t		40.0	male	white	1.868682849184242	neutral	172	sub-07	1.0	5.0	172_neutral	1.0	dominance	155.52005680840648	
22.0	134.69689847836798	response	2.0	y		40.0	male	white	1.868682849184242	neutral	172	sub-07	1.0	5.0	172_neutral	1.0	dominance	155.81994965121157	
22.0	135.1020873014195	pulse	2.0	t		40.0	male	white	1.868682849184242	neutral	172	sub-07	1.0	5.0	172_neutral	1.0	dominance	156.22513847426308	
22.0	135.50197742756336	fix	3.0		444	40.0	male	white	1.868682849184242	neutral	172	sub-07	1.0	5.0	172_neutral	1.0	dominance	156.62502860040695	3.7665355626058954
22.0	135.8021304661488	pulse	3.0	t		40.0	male	white	1.868682849184242	neutral	172	sub-07	1.0	5.0	172_neutral	1.0	dominance	156.9251816389924	
22.0	136.50206556812918	pulse	3.0	t		40.0	male	white	1.868682849184242	neutral	172	sub-07	1.0	5.0	172_neutral	1.0	dominance	157.62511674097277	
22.0	137.20203508115264	pulse	3.0	t		40.0	male	white	1.868682849184242	neutral	172	sub-07	1.0	5.0	172_neutral	1.0	dominance	158.32508625399623	
22.0	137.90201425341638	pulse	3.0	t		40.0	male	white	1.868682849184242	neutral	172	sub-07	1.0	5.0	172_neutral	1.0	dominance	159.02506542625997	
22.0	138.6019895016134	pulse	3.0	t		40.0	male	white	1.868682849184242	neutral	172	sub-07	1.0	5.0	172_neutral	1.0	dominance	159.72504067445698	
23.0	139.26851299016926	face	0.0		145	28.0	female	white	5.676880222841227	smiling	124	sub-07	1.0	5.0	124_smiling	0.0		160.39156416301284	1.2333080784446793
23.0	139.30197440905067	pulse	0.0	t		28.0	female	white	5.676880222841227	smiling	124	sub-07	1.0	5.0	124_smiling	0.0		160.42502558189426	
23.0	140.00194422392542	pulse	0.0	t		28.0	female	white	5.676880222841227	smiling	124	sub-07	1.0	5.0	124_smiling	0.0		161.124995396769	
23.0	140.50182106861394	fix	1.0		443	28.0	female	white	5.676880222841227	smiling	124	sub-07	1.0	5.0	124_smiling	0.0		161.62487224145752	3.758197525423384
23.0	140.70192822580884	pulse	1.0	t		28.0	female	white	5.676880222841227	smiling	124	sub-07	1.0	5.0	124_smiling	0.0		161.82497939865243	
23.0	141.40189743698102	pulse	1.0	t		28.0	female	white	5.676880222841227	smiling	124	sub-07	1.0	5.0	124_smiling	0.0		162.5249486098246	
23.0	142.10186695000448	pulse	1.0	t		28.0	female	white	5.676880222841227	smiling	124	sub-07	1.0	5.0	124_smiling	0.0		163.22491812284807	
23.0	142.80185608335978	pulse	1.0	t		28.0	female	white	5.676880222841227	smiling	124	sub-07	1.0	5.0	124_smiling	0.0		163.92490725620337	
23.0	143.5018192575062	pulse	1.0	t		28.0	female	white	5.676880222841227	smiling	124	sub-07	1.0	5.0	124_smiling	0.0		164.6248704303498	
23.0	144.20180839086152	pulse	1.0	t		28.0	female	white	5.676880222841227	smiling	124	sub-07	1.0	5.0	124_smiling	0.0		165.3248595637051	
24.0	144.26001859403732	face	0.0		147	27.0	male	black	3.5523278949462798	neutral	042	sub-07	1.0	5.0	042_neutral	0.0		165.3830697668809	1.2416249860398239
24.0	144.90179148719108	pulse	0.0	t		27.0	male	black	3.5523278949462798	neutral	042	sub-07	1.0	5.0	042_neutral	0.0		166.02484266003466	
24.0	145.50164358007714	fix	1.0		443	27.0	male	black	3.5523278949462798	neutral	042	sub-07	1.0	5.0	042_neutral	0.0		166.62469475292073	3.7665434107375404
24.0	145.60175556689228	pulse	1.0	t		27.0	male	black	3.5523278949462798	neutral	042	sub-07	1.0	5.0	042_neutral	0.0		166.72480673973587	
24.0	146.30175737799982	pulse	1.0	t		27.0	male	black	3.5523278949462798	neutral	042	sub-07	1.0	5.0	042_neutral	0.0		167.4248085508434	
24.0	147.0017084780966	pulse	1.0	t		27.0	male	black	3.5523278949462798	neutral	042	sub-07	1.0	5.0	042_neutral	0.0		168.12475965094018	
24.0	147.70168704665684	pulse	1.0	t		27.0	male	black	3.5523278949462798	neutral	042	sub-07	1.0	5.0	042_neutral	0.0		168.82473821950043	
24.0	148.4016707466899	pulse	1.0	t		27.0	male	black	3.5523278949462798	neutral	042	sub-07	1.0	5.0	042_neutral	0.0		169.52472191953348	
24.0	149.10162909121664	pulse	1.0	t		27.0	male	black	3.5523278949462798	neutral	042	sub-07	1.0	5.0	042_neutral	0.0		170.22468026406023	
25.0	149.26818699081468	face	0.0		146	30.0	female	black	2.7345801830481498	neutral	062	sub-07	1.0	5.0	062_neutral	0.0		170.39123816365827	1.2333101914036888
25.0	149.80162184678647	pulse	0.0	t		30.0	female	black	2.7345801830481498	neutral	062	sub-07	1.0	5.0	062_neutral	0.0		170.92467301963006	
25.0	150.50149718221837	fix	1.0		444	30.0	female	black	2.7345801830481498	neutral	062	sub-07	1.0	5.0	062_neutral	0.0		171.62454835506196	3.7665068867363516
25.0	150.50880137885633	pulse	1.0	t		30.0	female	black	2.7345801830481498	neutral	062	sub-07	1.0	5.0	062_neutral	0.0		171.63185255169992	
25.0	151.20159075610718	pulse	1.0	t		30.0	female	black	2.7345801830481498	neutral	062	sub-07	1.0	5.0	062_neutral	0.0		172.32464192895077	
25.0	151.90154427101425	pulse	1.0	t		30.0	female	black	2.7345801830481498	neutral	062	sub-07	1.0	5.0	062_neutral	0.0		173.02459544385783	
25.0	152.60153551732765	pulse	1.0	t		30.0	female	black	2.7345801830481498	neutral	062	sub-07	1.0	5.0	062_neutral	0.0		173.72458669017124	
25.0	153.30151106737594	pulse	1.0	t		30.0	female	black	2.7345801830481498	neutral	062	sub-07	1.0	5.0	062_neutral	0.0		174.42456224021953	
25.0	154.00149114519354	pulse	1.0	t		30.0	female	black	2.7345801830481498	neutral	062	sub-07	1.0	5.0	062_neutral	0.0		175.12454231803713	
26.0	154.26800406895472	face	0.0		145	27.0	female	white	4.181058495821727	smiling	039	sub-07	1.0	5.0	039_smiling	0.0		175.3910552417983	1.2333261895209944
26.0	154.70146820449827	pulse	0.0	t		27.0	female	white	4.181058495821727	smiling	039	sub-07	1.0	5.0	039_smiling	0.0		175.82451937734186	
26.0	155.401445263803	pulse	0.0	t		27.0	female	white	4.181058495821727	smiling	039	sub-07	1.0	5.0	039_smiling	0.0		176.5244964366466	
26.0	155.50133025847572	fix	1.0		445	27.0	female	white	4.181058495821727	smiling	039	sub-07	1.0	5.0	039_smiling	0.0		176.6243814313193	3.7581480218177603
26.0	156.1014138712726	pulse	1.0	t		27.0	female	white	4.181058495821727	smiling	039	sub-07	1.0	5.0	039_smiling	0.0		177.2244650441162	
26.0	156.80139425094148	pulse	1.0	t		27.0	female	white	4.181058495821727	smiling	039	sub-07	1.0	5.0	039_smiling	0.0		177.92444542378507	
26.0	157.5013740269069	pulse	1.0	t		27.0	female	white	4.181058495821727	smiling	039	sub-07	1.0	5.0	039_smiling	0.0		178.62442519975048	
26.0	158.20135018065776	pulse	1.0	t		27.0	female	white	4.181058495821727	smiling	039	sub-07	1.0	5.0	039_smiling	0.0		179.32440135350134	
26.0	158.9013317677318	pulse	1.0	t		27.0	female	white	4.181058495821727	smiling	039	sub-07	1.0	5.0	039_smiling	0.0		180.02438294057538	
27.0	159.25947828029348	face	0.0		146	32.0	male	white	2.389176283326701	smiling	092	sub-07	1.0	5.0	092_smiling	0.0		180.38252945313707	1.241696524785766
27.0	159.6013070159288	pulse	0.0	t		32.0	male	white	2.389176283326701	smiling	092	sub-07	1.0	5.0	092_smiling	0.0		180.72435818877238	
27.0	160.30127381229067	pulse	0.0	t		32.0	male	white	2.389176283326701	smiling	092	sub-07	1.0	5.0	092_smiling	0.0		181.42432498513426	
27.0	160.50117480507924	fix	1.0		444	32.0	male	white	2.389176283326701	smiling	092	sub-07	1.0	5.0	092_smiling	0.0		181.62422597792283	3.7583010604039373
27.0	161.0012626437947	pulse	1.0	t		32.0	male	white	2.389176283326701	smiling	092	sub-07	1.0	5.0	092_smiling	0.0		182.12431381663828	
27.0	161.70123668458655	pulse	1.0	t		32.0	male	white	2.389176283326701	smiling	092	sub-07	1.0	5.0	092_smiling	0.0		182.82428785743014	
27.0	162.40121132908098	pulse	1.0	t		32.0	male	white	2.389176283326701	smiling	092	sub-07	1.0	5.0	092_smiling	0.0		183.52426250192457	
27.0	163.1011772198899	pulse	1.0	t		32.0	male	white	2.389176283326701	smiling	092	sub-07	1.0	5.0	092_smiling	0.0		184.2242283927335	
27.0	163.80116937175717	pulse	1.0	t		32.0	male	white	2.389176283326701	smiling	092	sub-07	1.0	5.0	092_smiling	0.0		184.92422054460076	
28.0	164.25947586548318	face	0.0		146	27.0	male	black	3.5523278949462798	smiling	042	sub-07	1.0	5.0	042_smiling	0.0		185.38252703832677	1.2415105844138452
28.0	164.50115156253287	pulse	0.0	t		27.0	male	black	3.5523278949462798	smiling	042	sub-07	1.0	5.0	042_smiling	0.0		185.62420273537646	
28.0	165.20111352927506	pulse	0.0	t		27.0	male	black	3.5523278949462798	smiling	042	sub-07	1.0	5.0	042_smiling	0.0		186.32416470211865	
28.0	165.50098644989703	fix	1.0		444	27.0	male	black	3.5523278949462798	smiling	042	sub-07	1.0	5.0	042_smiling	0.0		186.62403762274062	3.7665361663084695
28.0	165.9011017570765	pulse	1.0	t		27.0	male	black	3.5523278949462798	smiling	042	sub-07	1.0	5.0	042_smiling	0.0		187.0241529299201	
28.0	166.60105376272713	pulse	1.0	t		27.0	male	black	3.5523278949462798	smiling	042	sub-07	1.0	5.0	042_smiling	0.0		187.72410493557072	
28.0	167.301041386826	pulse	1.0	t		27.0	male	black	3.5523278949462798	smiling	042	sub-07	1.0	5.0	042_smiling	0.0		188.4240925596696	
28.0	168.00102659611366	pulse	1.0	t		27.0	male	black	3.5523278949462798	smiling	042	sub-07	1.0	5.0	042_smiling	0.0		189.12407776895725	
28.0	168.70100908874156	pulse	1.0	t		27.0	male	black	3.5523278949462798	smiling	042	sub-07	1.0	5.0	042_smiling	0.0		189.82406026158515	
29.0	169.2675226162055	face	0.0		145	20.0	male	black	3.1070433744528456	smiling	082	sub-07	1.0	5.0	082_smiling	1.0	attractiveness	190.39057378904909	1.2333162284285208
29.0	169.4009903739634	pulse	0.0	t		20.0	male	black	3.1070433744528456	smiling	082	sub-07	1.0	5.0	082_smiling	1.0	attractiveness	190.52404154680698	
29.0	170.10106764788452	pulse	0.0	t		20.0	male	black	3.1070433744528456	smiling	082	sub-07	1.0	5.0	082_smiling	1.0	attractiveness	191.2241188207281	
29.0	170.50083884463402	fix	1.0		177	20.0	male	black	3.1070433744528456	smiling	082	sub-07	1.0	5.0	082_smiling	1.0	attractiveness	191.6238900174776	1.4999290649557224
29.0	170.80094177591218	pulse	1.0	t		20.0	male	black	3.1070433744528456	smiling	082	sub-07	1.0	5.0	082_smiling	1.0	attractiveness	191.92399294875577	
29.0	171.50091581670404	pulse	1.0	t		20.0	male	black	3.1070433744528456	smiling	082	sub-07	1.0	5.0	082_smiling	1.0	attractiveness	192.62396698954763	
29.0	172.00076790958974	rating	2.0		294	20.0	male	black	3.1070433744528456	smiling	082	sub-07	1.0	5.0	082_smiling	1.0	attractiveness	193.12381908243333	2.4999420445592477
29.0	172.19566269933512	pulse	2.0	t		20.0	male	black	3.1070433744528456	smiling	082	sub-07	1.0	5.0	082_smiling	1.0	attractiveness	193.3187138721787	
29.0	172.89563553272274	pulse	2.0	t		20.0	male	black	3.1070433744528456	smiling	082	sub-07	1.0	5.0	082_smiling	1.0	attractiveness	194.01868670556632	
29.0	173.475843146015	response	2.0	g		20.0	male	black	3.1070433744528456	smiling	082	sub-07	1.0	5.0	082_smiling	1.0	attractiveness	194.59889431885858	
29.0	173.59562859014386	pulse	2.0	t		20.0	male	black	3.1070433744528456	smiling	082	sub-07	1.0	5.0	082_smiling	1.0	attractiveness	194.71867976298745	
29.0	174.3008231483691	pulse	2.0	t		20.0	male	black	3.1070433744528456	smiling	082	sub-07	1.0	5.0	082_smiling	1.0	attractiveness	195.42387432121268	
29.0	174.500709954149	fix	3.0		444	20.0	male	black	3.1070433744528456	smiling	082	sub-07	1.0	5.0	082_smiling	1.0	attractiveness	195.62376112699258	3.7665268089194797
29.0	175.00080262248412	pulse	3.0	t		20.0	male	black	3.1070433744528456	smiling	082	sub-07	1.0	5.0	082_smiling	1.0	attractiveness	196.1238537953277	
29.0	175.70077455031696	pulse	3.0	t		20.0	male	black	3.1070433744528456	smiling	082	sub-07	1.0	5.0	082_smiling	1.0	attractiveness	196.82382572316055	
29.0	176.40074828925844	pulse	3.0	t		20.0	male	black	3.1070433744528456	smiling	082	sub-07	1.0	5.0	082_smiling	1.0	attractiveness	197.52379946210203	
29.0	177.10071599117418	pulse	3.0	t		20.0	male	black	3.1070433744528456	smiling	082	sub-07	1.0	5.0	082_smiling	1.0	attractiveness	198.22376716401777	
29.0	177.80070572823115	pulse	3.0	t		20.0	male	black	3.1070433744528456	smiling	082	sub-07	1.0	5.0	082_smiling	1.0	attractiveness	198.92375690107474	
30.0	178.26723676306847	face	0.0		145	27.0	female	white	4.181058495821727	neutral	039	sub-07	1.0	5.0	039_neutral	0.0		199.39028793591206	1.2333141154695113
30.0	178.50069274862744	pulse	0.0	t		27.0	female	white	4.181058495821727	neutral	039	sub-07	1.0	5.0	039_neutral	0.0		199.62374392147103	
30.0	179.20066286535348	pulse	0.0	t		27.0	female	white	4.181058495821727	neutral	039	sub-07	1.0	5.0	039_neutral	0.0		200.32371403819707	
30.0	179.50055087853798	fix	1.0		444	27.0	female	white	4.181058495821727	neutral	039	sub-07	1.0	5.0	039_neutral	0.0		200.62360205138157	3.7665201681920735
30.0	179.90064384872403	pulse	1.0	t		27.0	female	white	4.181058495821727	neutral	039	sub-07	1.0	5.0	039_neutral	0.0		201.02369502156762	
30.0	180.60061849321937	pulse	1.0	t		27.0	female	white	4.181058495821727	neutral	039	sub-07	1.0	5.0	039_neutral	0.0		201.72366966606296	
30.0	181.3005837803248	pulse	1.0	t		27.0	female	white	4.181058495821727	neutral	039	sub-07	1.0	5.0	039_neutral	0.0		202.4236349531684	
30.0	182.00056808405952	pulse	1.0	t		27.0	female	white	4.181058495821727	neutral	039	sub-07	1.0	5.0	039_neutral	0.0		203.1236192569031	
30.0	182.7005508785378	pulse	1.0	t		27.0	female	white	4.181058495821727	neutral	039	sub-07	1.0	5.0	039_neutral	0.0		203.82360205138139	
31.0	183.26707104673005	face	0.0		145	28.0	female	white	5.676880222841227	neutral	124	sub-07	1.0	5.0	124_neutral	0.0		204.39012221957364	1.2333089839985405
31.0	183.4005013749329	pulse	0.0	t		28.0	female	white	5.676880222841227	neutral	124	sub-07	1.0	5.0	124_neutral	0.0		204.5235525477765	
31.0	184.10049896012242	pulse	0.0	t		28.0	female	white	5.676880222841227	neutral	124	sub-07	1.0	5.0	124_neutral	0.0		205.223550132966	
31.0	184.5003800307286	fix	1.0		444	28.0	female	white	5.676880222841227	neutral	124	sub-07	1.0	5.0	124_neutral	0.0		205.62343120357218	3.758260612335107
31.0	184.80048266015456	pulse	1.0	t		28.0	female	white	5.676880222841227	neutral	124	sub-07	1.0	5.0	124_neutral	0.0		205.92353383299815	
31.0	185.50048598051853	pulse	1.0	t		28.0	female	white	5.676880222841227	neutral	124	sub-07	1.0	5.0	124_neutral	0.0		206.62353715336212	
31.0	186.2004488528146	pulse	1.0	t		28.0	female	white	5.676880222841227	neutral	124	sub-07	1.0	5.0	124_neutral	0.0		207.32350002565818	
31.0	186.90041564917647	pulse	1.0	t		28.0	female	white	5.676880222841227	neutral	124	sub-07	1.0	5.0	124_neutral	0.0		208.02346682202005	
31.0	187.60037761591866	pulse	1.0	t		28.0	female	white	5.676880222841227	neutral	124	sub-07	1.0	5.0	124_neutral	0.0		208.72342878876225	
32.0	188.2586406430637	face	0.0		146	36.0	female	white	2.7548746518105847	neutral	011	sub-07	1.0	5.0	011_neutral	0.0		209.3816918159073	1.2415760861367744
32.0	188.30036644742177	pulse	0.0	t		36.0	female	white	2.7548746518105847	neutral	011	sub-07	1.0	5.0	011_neutral	0.0		209.42341762026535	
32.0	189.0003483363471	pulse	0.0	t		36.0	female	white	2.7548746518105847	neutral	011	sub-07	1.0	5.0	011_neutral	0.0		210.12339950919068	
32.0	189.50021672920047	fix	1.0		443	36.0	female	white	2.7548746518105847	neutral	011	sub-07	1.0	5.0	011_neutral	0.0		210.62326790204406	3.7665277144724314
32.0	189.70030939753542	pulse	1.0	t		36.0	female	white	2.7548746518105847	neutral	011	sub-07	1.0	5.0	011_neutral	0.0		210.823360570379	
32.0	190.40029279571627	pulse	1.0	t		36.0	female	white	2.7548746518105847	neutral	011	sub-07	1.0	5.0	011_neutral	0.0		211.52334396855986	
32.0	191.10027559019454	pulse	1.0	t		36.0	female	white	2.7548746518105847	neutral	011	sub-07	1.0	5.0	011_neutral	0.0		212.22332676303813	
32.0	191.80025295135056	pulse	1.0	t		36.0	female	white	2.7548746518105847	neutral	011	sub-07	1.0	5.0	011_neutral	0.0		212.92330412419415	
32.0	192.50023363287073	pulse	1.0	t		36.0	female	white	2.7548746518105847	neutral	011	sub-07	1.0	5.0	011_neutral	0.0		213.62328480571432	
32.0	193.20020344774548	pulse	1.0	t		36.0	female	white	2.7548746518105847	neutral	011	sub-07	1.0	5.0	011_neutral	0.0		214.32325462058907	
33.0	193.2667444436729	face	0.0		146	24.0	female	east_asian	2.9076800636689217	smiling	034	sub-07	1.0	5.0	034_smiling	0.0		214.3897956165165	1.2332902692214702
33.0	193.9001808089015	pulse	0.0	t		24.0	female	east_asian	2.9076800636689217	smiling	034	sub-07	1.0	5.0	034_smiling	0.0		215.02323198174508	
33.0	194.50003471289438	fix	1.0		443	24.0	female	east_asian	2.9076800636689217	smiling	034	sub-07	1.0	5.0	034_smiling	0.0		215.62308588573796	3.758193299505365
33.0	194.60015243488306	pulse	1.0	t		24.0	female	east_asian	2.9076800636689217	smiling	034	sub-07	1.0	5.0	034_smiling	0.0		215.72320360772665	
33.0	195.30013251270066	pulse	1.0	t		24.0	female	east_asian	2.9076800636689217	smiling	034	sub-07	1.0	5.0	034_smiling	0.0		216.42318368554425	
33.0	196.00010957200539	pulse	1.0	t		24.0	female	east_asian	2.9076800636689217	smiling	034	sub-07	1.0	5.0	034_smiling	0.0		217.12316074484897	
33.0	196.7000848202024	pulse	1.0	t		24.0	female	east_asian	2.9076800636689217	smiling	034	sub-07	1.0	5.0	034_smiling	0.0		217.82313599304598	
33.0	197.40005493692843	pulse	1.0	t		24.0	female	east_asian	2.9076800636689217	smiling	034	sub-07	1.0	5.0	034_smiling	0.0		218.52310610977202	
33.0	198.100038033258	pulse	1.0	t		24.0	female	east_asian	2.9076800636689217	smiling	034	sub-07	1.0	5.0	034_smiling	0.0		219.22308920610158	
34.0	198.25822801239974	face	0.0		147	28.0	male	white	3.9076800636689217	smiling	033	sub-07	1.0	5.0	033_smiling	0.0		219.38127918524333	1.2416633211487351
34.0	198.80001418700886	pulse	0.0	t		28.0	male	white	3.9076800636689217	smiling	033	sub-07	1.0	5.0	033_smiling	0.0		219.92306535985244	
34.0	199.49989133354848	fix	1.0		444	28.0	male	white	3.9076800636689217	smiling	033	sub-07	1.0	5.0	033_smiling	0.0		220.62294250639206	3.7582219753749087
34.0	199.50736064282228	pulse	1.0	t		28.0	male	white	3.9076800636689217	smiling	033	sub-07	1.0	5.0	033_smiling	0.0		220.63041181566587	
34.0	200.1999779648586	pulse	1.0	t		28.0	male	white	3.9076800636689217	smiling	033	sub-07	1.0	5.0	033_smiling	0.0		221.32302913770218	
34.0	200.8999486852872	pulse	1.0	t		28.0	male	white	3.9076800636689217	smiling	033	sub-07	1.0	5.0	033_smiling	0.0		222.0229998581308	
34.0	201.59991638720294	pulse	1.0	t		28.0	male	white	3.9076800636689217	smiling	033	sub-07	1.0	5.0	033_smiling	0.0		222.72296756004653	
34.0	202.29991940571563	pulse	1.0	t		28.0	male	white	3.9076800636689217	smiling	033	sub-07	1.0	5.0	033_smiling	0.0		223.42297057855922	
34.0	202.99986627989438	pulse	1.0	t		28.0	male	white	3.9076800636689217	smiling	033	sub-07	1.0	5.0	033_smiling	0.0		224.12291745273797	
35.0	203.25811330892338	face	0.0		146	37.0	male	white	3.898925586947871	smiling	101	sub-07	1.0	5.0	101_smiling	0.0		224.38116448176697	1.241619854568853
35.0	203.69985179103423	pulse	0.0	t		37.0	male	white	3.898925586947871	smiling	101	sub-07	1.0	5.0	101_smiling	0.0		224.82290296387782	
35.0	204.39984303734855	pulse	0.0	t		37.0	male	white	3.898925586947871	smiling	101	sub-07	1.0	5.0	101_smiling	0.0		225.52289421019213	
35.0	204.49973316349224	fix	1.0		444	37.0	male	white	3.898925586947871	smiling	101	sub-07	1.0	5.0	101_smiling	0.0		225.62278433633583	3.7583258122058396
35.0	205.09980289113173	pulse	1.0	t		37.0	male	white	3.898925586947871	smiling	101	sub-07	1.0	5.0	101_smiling	0.0		226.22285406397532	
35.0	205.79978719486644	pulse	1.0	t		37.0	male	white	3.898925586947871	smiling	101	sub-07	1.0	5.0	101_smiling	0.0		226.92283836771003	
35.0	206.49976666898056	pulse	1.0	t		37.0	male	white	3.898925586947871	smiling	101	sub-07	1.0	5.0	101_smiling	0.0		227.62281784182414	
35.0	207.19974403013657	pulse	1.0	t		37.0	male	white	3.898925586947871	smiling	101	sub-07	1.0	5.0	101_smiling	0.0		228.32279520298016	
35.0	207.89970660058134	pulse	1.0	t		37.0	male	white	3.898925586947871	smiling	101	sub-07	1.0	5.0	101_smiling	0.0		229.02275777342493	
36.0	208.25805897569808	face	0.0		146	27.0	female	white	3.504576203740549	smiling	144	sub-07	1.0	5.0	144_smiling	0.0		229.38111014854167	1.2415006233231907
36.0	208.5997032802179	pulse	0.0	t		27.0	female	white	3.504576203740549	smiling	144	sub-07	1.0	5.0	144_smiling	0.0		229.7227544530615	
36.0	209.29968003767135	pulse	0.0	t		27.0	female	white	3.504576203740549	smiling	144	sub-07	1.0	5.0	144_smiling	0.0		230.42273121051494	
36.0	209.49955959902127	fix	1.0		444	27.0	female	white	3.504576203740549	smiling	144	sub-07	1.0	5.0	144_smiling	0.0		230.62261077186486	3.766509905248313
36.0	209.99965951178638	pulse	1.0	t		27.0	female	white	3.504576203740549	smiling	144	sub-07	1.0	5.0	144_smiling	0.0		231.12271068462996	
36.0	210.69962660999954	pulse	1.0	t		27.0	female	white	3.504576203740549	smiling	144	sub-07	1.0	5.0	144_smiling	0.0		231.82267778284313	
36.0	211.39959431191528	pulse	1.0	t		27.0	female	white	3.504576203740549	smiling	144	sub-07	1.0	5.0	144_smiling	0.0		232.52264548475887	
36.0	212.09956533419518	pulse	1.0	t		27.0	female	white	3.504576203740549	smiling	144	sub-07	1.0	5.0	144_smiling	0.0		233.22261650703877	
36.0	212.79955778791373	pulse	1.0	t		27.0	female	white	3.504576203740549	smiling	144	sub-07	1.0	5.0	144_smiling	0.0		233.92260896075732	
37.0	213.26606950426958	face	0.0		145	34.0	male	white	2.651014723438122	neutral	121	sub-07	1.0	5.0	121_neutral	1.0	attractiveness	234.38912067711317	1.2333120025114113
37.0	213.4995360546227	pulse	0.0	t		34.0	male	white	2.651014723438122	neutral	121	sub-07	1.0	5.0	121_neutral	1.0	attractiveness	234.62258722746628	
37.0	214.19950586949744	pulse	0.0	t		34.0	male	white	2.651014723438122	neutral	121	sub-07	1.0	5.0	121_neutral	1.0	attractiveness	235.32255704234103	
37.0	214.499381506781	fix	1.0		177	34.0	male	white	2.651014723438122	neutral	121	sub-07	1.0	5.0	121_neutral	1.0	attractiveness	235.62243267962458	1.4999655889569112
37.0	214.89949500285275	pulse	1.0	t		34.0	male	white	2.651014723438122	neutral	121	sub-07	1.0	5.0	121_neutral	1.0	attractiveness	236.02254617569633	
37.0	215.5994596862556	pulse	1.0	t		34.0	male	white	2.651014723438122	neutral	121	sub-07	1.0	5.0	121_neutral	1.0	attractiveness	236.7225108590992	
37.0	215.9993470957379	rating	2.0		294	34.0	male	white	2.651014723438122	neutral	121	sub-07	1.0	5.0	121_neutral	1.0	attractiveness	237.1223982685815	2.4999166890547713
37.0	216.29445740727897	pulse	2.0	t		34.0	male	white	2.651014723438122	neutral	121	sub-07	1.0	5.0	121_neutral	1.0	attractiveness	237.41750858012256	
37.0	216.9941772893153	pulse	2.0	t		34.0	male	white	2.651014723438122	neutral	121	sub-07	1.0	5.0	121_neutral	1.0	attractiveness	238.1172284621589	
37.0	217.69416370600902	pulse	2.0	t		34.0	male	white	2.651014723438122	neutral	121	sub-07	1.0	5.0	121_neutral	1.0	attractiveness	238.8172148788526	
37.0	217.74104965755032	response	2.0	b		34.0	male	white	2.651014723438122	neutral	121	sub-07	1.0	5.0	121_neutral	1.0	attractiveness	238.8641008303939	
37.0	218.39936822532582	pulse	2.0	t		34.0	male	white	2.651014723438122	neutral	121	sub-07	1.0	5.0	121_neutral	1.0	attractiveness	239.5224193981694	
37.0	218.49926378479267	fix	3.0		444	34.0	male	white	2.651014723438122	neutral	121	sub-07	1.0	5.0	121_neutral	1.0	attractiveness	239.62231495763626	3.7665310348365892
37.0	219.09934709573827	pulse	3.0	t		34.0	male	white	2.651014723438122	neutral	121	sub-07	1.0	5.0	121_neutral	1.0	attractiveness	240.22239826858186	
37.0	219.7993199291259	pulse	3.0	t		34.0	male	white	2.651014723438122	neutral	121	sub-07	1.0	5.0	121_neutral	1.0	attractiveness	240.92237110196947	
37.0	220.49929668657933	pulse	3.0	t		34.0	male	white	2.651014723438122	neutral	121	sub-07	1.0	5.0	121_neutral	1.0	attractiveness	241.62234785942292	
37.0	221.1992773680986	pulse	3.0	t		34.0	male	white	2.651014723438122	neutral	121	sub-07	1.0	5.0	121_neutral	1.0	attractiveness	242.32232854094218	
37.0	221.89926801070942	pulse	3.0	t		34.0	male	white	2.651014723438122	neutral	121	sub-07	1.0	5.0	121_neutral	1.0	attractiveness	243.022319183553	
38.0	222.26579481962926	face	0.0		146	21.0	male	east_asian/white	3.501790688420215	smiling	036	sub-07	1.0	5.0	036_smiling	0.0		243.38884599247285	1.241637060089488
38.0	222.59924114594833	pulse	0.0	t		21.0	male	east_asian/white	3.501790688420215	smiling	036	sub-07	1.0	5.0	036_smiling	0.0		243.72229231879192	
38.0	223.29920190528537	pulse	0.0	t		21.0	male	east_asian/white	3.501790688420215	smiling	036	sub-07	1.0	5.0	036_smiling	0.0		244.42225307812896	
38.0	223.50743187971875	fix	1.0		444	21.0	male	east_asian/white	3.501790688420215	smiling	036	sub-07	1.0	5.0	036_smiling	0.0		244.63048305256234	3.7581643217854435
38.0	223.9991880201278	pulse	1.0	t		21.0	male	east_asian/white	3.501790688420215	smiling	036	sub-07	1.0	5.0	036_smiling	0.0		245.1222391929714	
38.0	224.6991705127548	pulse	1.0	t		21.0	male	east_asian/white	3.501790688420215	smiling	036	sub-07	1.0	5.0	036_smiling	0.0		245.82222168559838	
38.0	225.39914425169536	pulse	1.0	t		21.0	male	east_asian/white	3.501790688420215	smiling	036	sub-07	1.0	5.0	036_smiling	0.0		246.52219542453895	
38.0	226.09911134990944	pulse	1.0	t		21.0	male	east_asian/white	3.501790688420215	smiling	036	sub-07	1.0	5.0	036_smiling	0.0		247.22216252275302	
38.0	226.79909746475187	pulse	1.0	t		21.0	male	east_asian/white	3.501790688420215	smiling	036	sub-07	1.0	5.0	036_smiling	0.0		247.92214863759546	
39.0	227.2655962015042	face	0.0		146	40.0	female	west_asian	1.5777954635893354	smiling	038	sub-07	1.0	5.0	038_smiling	0.0		248.38864737434778	1.2416750933471121
39.0	227.49908237218915	pulse	0.0	t		40.0	female	west_asian	1.5777954635893354	smiling	038	sub-07	1.0	5.0	038_smiling	0.0		248.62213354503274	
39.0	228.199056412981	pulse	0.0	t		40.0	female	west_asian	1.5777954635893354	smiling	038	sub-07	1.0	5.0	038_smiling	0.0		249.3221075858246	
39.0	228.5072712948513	fix	1.0		444	40.0	female	west_asian	1.5777954635893354	smiling	038	sub-07	1.0	5.0	038_smiling	0.0		249.6303224676949	3.7498775993171876
39.0	228.89907331665108	pulse	1.0	t		40.0	female	west_asian	1.5777954635893354	smiling	038	sub-07	1.0	5.0	038_smiling	0.0		250.02212448949467	
39.0	229.5989963445818	pulse	1.0	t		40.0	female	west_asian	1.5777954635893354	smiling	038	sub-07	1.0	5.0	038_smiling	0.0		250.72204751742538	
39.0	230.29898427053104	pulse	1.0	t		40.0	female	west_asian	1.5777954635893354	smiling	038	sub-07	1.0	5.0	038_smiling	0.0		251.42203544337463	
39.0	230.99896102798448	pulse	1.0	t		40.0	female	west_asian	1.5777954635893354	smiling	038	sub-07	1.0	5.0	038_smiling	0.0		252.12201220082807	
39.0	231.69893446507467	pulse	1.0	t		40.0	female	west_asian	1.5777954635893354	smiling	038	sub-07	1.0	5.0	038_smiling	0.0		252.82198563791826	
40.0	232.2571488941685	fix	0.0		720													253.38020006701208	5.999787194865348
40.0	232.39892239102392	pulse	0.0	t														253.5219735638675	
40.0	233.09889522441154	pulse	0.0	t														254.22194639725512	
40.0	233.79886081336826	pulse	0.0	t														254.92191198621185	
40.0	234.4988402874833	pulse	0.0	t														255.62189146032688	
40.0	235.19881674308544	pulse	0.0	t														256.32186791592903	
40.0	235.8987977264569	pulse	0.0	t														257.0218488993005	
40.0	236.5987684468846	pulse	0.0	t														257.7218196197282	
40.0	237.29874490248676	pulse	0.0	t														258.42179607533035	
40.0	237.99872135808891	pulse	0.0	t														259.1217725309325	
