trial_nr	onset	event_type	phase	response	nr_frames	rating_type	face_id	repetition	session	rating	onset_abs	duration
0.0	0.005215431621763855	cue	0.0		480						716.4691672847257	4.000447951199021
0.0	4.005663382820785	fix	1.0		120						720.4696152359247	1.017153753200546
0.0	5.022817136021331	face	0.0		147	attractiveness	141	1.0	2		721.4867689891253	1.2833614208211657
0.0	6.306178556842497	rating	1.0		186	attractiveness	141	1.0	2		722.7701304099464	1.5582516139547806
0.0	7.864430170797277	fix	2.0		60	attractiveness	141	1.0	2	0.8499999999999996	724.3283820239012	0.5167563625436742
1.0	8.381186533340951	face	0.0		147	attractiveness	137	1.0	2		724.8451383864449	1.2334447476023342
1.0	9.614631280943286	rating	1.0		143	attractiveness	137	1.0	2		726.0785831340472	1.2001300386618823
1.0	10.814761319605168	fix	2.0		60	attractiveness	137	1.0	2	0.9100000000000001	727.2787131727091	0.5167539477115497
2.0	11.331515267316718	face	0.0		147	attractiveness	092	1.0	2		727.7954671204207	1.2334453513321932
2.0	12.564960618648911	rating	1.0		59	attractiveness	092	1.0	2		729.0289124717528	0.5000538809108548
2.0	13.065014499559766	fix	2.0		60	attractiveness	092	1.0	2	-1.2200000000000002	729.5289663526637	0.5167566644086037
3.0	13.58177116396837	face	0.0		147	attractiveness	087	1.0	2		730.0457230170723	1.2334444457665086
3.0	14.815215609734878	rating	1.0		74	attractiveness	087	1.0	2		731.2791674628388	0.625074218318332
3.0	15.44028982805321	fix	2.0		60	attractiveness	087	1.0	2	-0.31000000000000005	731.9042416811571	0.5167460995144211
4.0	15.957035927567631	face	0.0		147	attractiveness	036	1.0	2		732.4209877806716	1.2334459550329484
4.0	17.19048188260058	rating	1.0		127	attractiveness	036	1.0	2		733.6544337357045	1.0667833633779082
4.0	18.257265245978488	fix	2.0		60	attractiveness	036	1.0	2	0.9299999999999997	734.7212170990824	0.516755758842919
5.0	18.774021004821407	face	0.0		147	attractiveness	038	1.0	2		735.2379728579253	1.2334450494672637
5.0	20.00746605428867	rating	1.0		97	attractiveness	038	1.0	2		736.4714179073926	0.8167544608586468
5.0	20.824220515147317	fix	2.0		60	attractiveness	038	1.0	2	-0.8399999999999999	737.2881723682513	0.5167602866422385
6.0	21.340980801789556	face	0.0		147	attractiveness	124	1.0	2		737.8049326548935	1.2334396161022596
6.0	22.574420417891815	rating	1.0		92	attractiveness	124	1.0	2		739.0383722709958	0.7750838323845528
6.0	23.349504250276368	fix	2.0		60	attractiveness	124	1.0	2	1.5199999999999996	739.8134561033803	0.5167554569779895
7.0	23.866259707254358	face	0.0		147	attractiveness	030	1.0	2		740.3302115603583	1.2334474642993882
7.0	25.099707171553746	rating	1.0		102	attractiveness	030	1.0	2		741.5636590246577	0.8584241837961599
7.0	25.958131355349906	fix	2.0		60	attractiveness	030	1.0	2	1.3499999999999996	742.4220832084538	0.5167542495764792
8.0	26.474885604926385	face	0.0		147	attractiveness	117	1.0	2		742.9388374580303	1.233444143901579
8.0	27.708329748827964	rating	1.0		108	attractiveness	117	1.0	2		744.1722816019319	0.908435337303672
8.0	28.616765086131636	fix	2.0		60	attractiveness	117	1.0	2	1.1500000000000004	745.0807169392356	0.5167548533063382
9.0	29.133519939437974	face	0.0		147	attractiveness	009	1.0	2		745.5974717925419	1.2334444457374047
9.0	30.36696438517538	rating	1.0		96	attractiveness	009	1.0	2		746.8309162382793	0.8084202748141252
9.0	31.175384659989504	fix	2.0		60	attractiveness	009	1.0	2	0.9199999999999999	747.6393365130934	0.516755758842919
10.0	31.692140418832423	face	0.0		147	attractiveness	018	1.0	2		748.1560922719364	1.233444143901579
10.0	32.925584562734	rating	1.0		219	attractiveness	018	1.0	2		749.3895364158379	1.833536933758296
10.0	34.7591214964923	fix	2.0		60	attractiveness	018	1.0	2	1.33	751.2230733495962	0.5167581736750435
11.0	35.27587967016734	face	0.0		147	attractiveness	024	1.0	2		751.7398315232713	1.2334423327993136
11.0	36.509322002966655	rating	1.0		64	attractiveness	024	1.0	2		752.9732738560706	0.5417263205454219
11.0	37.05104832351208	fix	2.0		60	attractiveness	024	1.0	2	-1.17	753.515000176616	0.5167527402809355
12.0	37.56780106379301	face	0.0		147	attractiveness	101	1.0	2		754.031752916897	1.2334453513321932
12.0	38.801246415125206	rating	1.0		281	attractiveness	101	1.0	2		755.2651982682291	2.35026311094407
12.0	41.151509526069276	fix	2.0		60	attractiveness	101	1.0	2	0.6900000000000004	757.6154613791732	0.5167554569779895
13.0	41.668264983047266	face	0.0		147	attractiveness	091	1.0	2		758.1322168361512	1.233441427233629
13.0	42.901706410280894	rating	1.0		75	attractiveness	091	1.0	2		759.3656582633848	0.6334020654612686
13.0	43.53510847574216	fix	2.0		60	attractiveness	091	1.0	2	-1.0099999999999998	759.9990603288461	0.5167548532772344
14.0	44.0518633290194	face	0.0		147	attractiveness	061	1.0	2		760.5158151821233	1.2334438420366496
14.0	45.28530717105605	rating	1.0		93	attractiveness	061	1.0	2		761.74925902416	0.7834210369910579
14.0	46.068728208047105	fix	2.0		60	attractiveness	061	1.0	2	-1.02	762.532680061151	0.5167521366092842
15.0	46.58548034465639	face	0.0		147	attractiveness	100	1.0	2		763.0494321977603	1.233447766135214
15.0	47.8189281107916	rating	1.0		267	attractiveness	100	1.0	2		764.2828799638955	2.233580581843853
15.0	50.052508692635456	fix	2.0		60	attractiveness	100	1.0	2	-1.33	766.5164605457394	0.5167569662735332
16.0	50.56926565890899	face	0.0		147	attractiveness	012	1.0	2		767.0332175120129	1.2334417290694546
16.0	51.802707387978444	rating	1.0		116	attractiveness	012	1.0	2		768.2666592410824	0.9751076184620615
16.0	52.777815006440505	fix	2.0		60	attractiveness	012	1.0	2	-0.22999999999999998	769.2417668595444	0.5167533440107945
17.0	53.2945683504513	face	0.0		147	attractiveness	043	1.0	2		769.7585202035552	1.233445653168019
17.0	54.52801400361932	rating	1.0		68	attractiveness	043	1.0	2		770.9919658567233	0.5750645741063636
17.0	55.10307857772568	fix	2.0		60	attractiveness	043	1.0	2	-1.31	771.5670304308296	0.51675515511306
18.0	55.61983373283874	face	0.0		147	attractiveness	066	1.0	2		772.0837855859427	1.2334471624344587
18.0	56.8532808952732	rating	1.0		118	attractiveness	066	1.0	2		773.3172327483771	0.9917732739413623
18.0	57.84505416921456	fix	2.0		60	attractiveness	066	1.0	2	0.6699999999999999	774.3090060223185	0.5167542495764792
19.0	58.36180841879104	face	0.0		147	attractiveness	144	1.0	2		774.825760271895	1.2334438420366496
19.0	59.59525226082769	rating	1.0		80	attractiveness	144	1.0	2		776.0592041139316	0.6750760143622756
19.0	60.27032827518997	fix	2.0		60	attractiveness	144	1.0	2	-1.92	776.7342801282939	0.5167500236129854
20.0	60.78707829880295	face	0.0		147	attractiveness	033	1.0	2		777.2510301519069	1.2334468605695292
20.0	62.02052515937248	rating	1.0		106	attractiveness	033	1.0	2		778.4844770124764	0.8917636447877157
20.0	62.9122888041602	fix	2.0		60	attractiveness	033	1.0	2	1.4900000000000002	779.3762406572641	0.516753645875724
21.0	63.42904245003592	face	0.0		147	attractiveness	006	1.0	2		779.8929943031399	1.2334447476023342
21.0	64.66248719763826	rating	1.0		76	attractiveness	006	1.0	2		781.1264390507422	0.6417368552356493
21.0	65.3042240528739	fix	2.0		60	attractiveness	006	1.0	2	-1.83	781.7681759059778	0.516753645875724
22.0	65.82097769874963	face	0.0		147	attractiveness	102	1.0	2		782.2849295518536	1.2334444457374047
22.0	67.05442214448703	rating	1.0		135	attractiveness	102	1.0	2		783.518373997591	1.1334607760654762
22.0	68.18788292055251	fix	2.0		60	attractiveness	102	1.0	2	-1.2200000000000002	784.6518347736564	0.5167451939487364
23.0	68.70462811450125	face	0.0		147	attractiveness	172	1.0	2		785.1685799676052	1.2334513883979525
23.0	69.9380795028992	rating	1.0		99	attractiveness	172	1.0	2		786.4020313560031	0.8334270589693915
23.0	70.77150656186859	fix	2.0		60	attractiveness	172	1.0	2	-1.4900000000000002	787.2354584149725	0.5167524384451099
24.0	71.2882590003137	face	0.0		147	attractiveness	070	1.0	2		787.7522108534176	1.2334453513030894
24.0	72.52170435161679	rating	1.0		144	attractiveness	070	1.0	2		788.9856562047207	1.2084690543997567
24.0	73.73017340601655	fix	2.0		60	attractiveness	070	1.0	2	-2.7199999999999998	790.1941252591205	0.5167512310435995
25.0	74.24692463706015	face	0.0		147	attractiveness	121	1.0	2		790.7108764901641	1.233445653168019
25.0	75.48037029022817	rating	1.0		103	attractiveness	121	1.0	2		791.9443221433321	0.8667625958332792
25.0	76.34713288606144	fix	2.0		60	attractiveness	121	1.0	2	-2.62	792.8110847391654	0.5167551551421639
26.0	76.86388804120361	face	0.0		147	attractiveness	039	1.0	2		793.3278398943075	1.2334444457374047
26.0	78.09733248694101	rating	1.0		149	attractiveness	039	1.0	2		794.561284340045	1.250139381038025
26.0	79.34747186797904	fix	2.0		60	attractiveness	039	1.0	2	1.83	795.811423721083	0.5167578718392178
27.0	79.86422973981826	face	0.0		147	attractiveness	027	1.0	2		796.3281815929222	1.2334396160731558
27.0	81.09766935589141	rating	1.0		136	attractiveness	027	1.0	2		797.5616212089953	1.1417931510077324
27.0	82.23946250689914	fix	2.0		60	attractiveness	027	1.0	2	1.6500000000000004	798.7034143600031	0.5167533440107945
28.0	82.75621585090994	face	0.0		147	attractiveness	064	1.0	2		799.2201677040139	1.233446256868774
28.0	83.98966210777871	rating	1.0		103	attractiveness	064	1.0	2		800.4536139608826	0.8667674254975282
28.0	84.85642953327624	fix	2.0		60	attractiveness	064	1.0	2	0.7400000000000002	801.3203813863802	0.5167473069450352
29.0	85.37317684022128	face	0.0		147	attractiveness	062	1.0	2		801.8371286933252	1.2334459550038446
29.0	86.60662279522512	rating	1.0		59	attractiveness	062	1.0	2		803.070574648329	0.5000565976079088
29.0	87.10667939283303	fix	2.0		60	attractiveness	062	1.0	2	-1.83	803.570631245937	0.5167494199122302
30.0	87.62342881274526	face	0.0		147	attractiveness	099	1.0	2		804.0873806658492	1.233448369865073
30.0	88.85687718261033	rating	1.0		71	attractiveness	099	1.0	2		805.3208290357143	0.6000656230316963
30.0	89.45694280564203	fix	2.0		60	attractiveness	099	1.0	2	0.8399999999999999	805.920894658746	0.5167587773757987
31.0	89.97370158301783	face	0.0		147	attractiveness	042	1.0	2		806.4376534361218	1.2334372012701351
31.0	91.20713878428796	rating	1.0		117	attractiveness	042	1.0	2		807.6710906373919	0.9834436156379525
31.0	92.19058239992592	fix	2.0		60	attractiveness	042	1.0	2	0.6799999999999997	808.6545342530299	0.5167542495764792
32.0	92.7073366495024	face	0.0		147	attractiveness	005	1.0	2		809.1712885026063	1.2334429365000688
32.0	93.94077958600246	rating	1.0		90	attractiveness	005	1.0	2		810.4047314391064	0.7584187806060072
32.0	94.69919836660847	fix	2.0		60	attractiveness	005	1.0	2	-2.83	811.1631502197124	0.5167521366092842
33.0	95.21595050321775	face	0.0		147	attractiveness	126	1.0	2		811.6799023563217	1.2334471624344587
33.0	96.44939766565221	rating	1.0		318	attractiveness	126	1.0	2		812.9133495187561	2.658629806683166
33.0	99.10802747233538	fix	2.0		60	attractiveness	126	1.0	2	0.6900000000000004	815.5719793254393	0.5167551551421639
34.0	99.62478262747754	face	0.0		147	attractiveness	130	1.0	2		816.0887344805815	1.2334661792265251
34.0	100.85824880670407	rating	1.0		141	attractiveness	130	1.0	2		817.322200659808	1.1834423478576355
34.0	102.0416911545617	fix	2.0		60	attractiveness	130	1.0	2	-2.52	818.5056430076656	0.5167557588720229
35.0	102.55844691343373	face	0.0		147	attractiveness	082	1.0	2		819.0223987665377	1.2334423327702098
35.0	103.79188924620394	rating	1.0		177	attractiveness	082	1.0	2		820.2558410993079	1.4834993076801766
35.0	105.27538855388411	fix	2.0		60	attractiveness	082	1.0	2	1.0099999999999998	821.739340406988	0.5167512310435995
36.0	105.79213978492771	face	0.0		147	attractiveness	044	1.0	2		822.2560916380316	1.233448973565828
36.0	107.02558875849354	rating	1.0		182	attractiveness	044	1.0	2		823.4895406115975	1.525166615814669
36.0	108.55075537430821	fix	2.0		60	attractiveness	044	1.0	2	1.3099999999999996	825.0147072274121	0.5167560606787447
37.0	109.06751143498695	face	0.0		147	attractiveness	011	1.0	2		825.5314632880909	1.2334429365000688
37.0	110.30095437148702	rating	1.0		88	attractiveness	011	1.0	2		826.764906224591	0.7417504084587563
37.0	111.04270477994578	fix	2.0		60	attractiveness	011	1.0	2	0.03000000000000025	827.5066566330497	0.5167527403100394
38.0	111.55945752025582	face	0.0		147	attractiveness	136	1.0	2		828.0234093733598	1.2334447476023342
38.0	112.79290226785815	rating	1.0		88	attractiveness	136	1.0	2		829.2568541209621	0.7417467862542253
38.0	113.53464905411238	fix	2.0		60	attractiveness	136	1.0	2	-1.15	829.9986009072163	0.516755758842919
39.0	114.0514048129553	face	0.0		147	attractiveness	034	1.0	2		830.5153566660592	1.2334447476023342
39.0	115.28484956055763	rating	1.0		124	attractiveness	034	1.0	2		831.7488014136616	1.0417817107227165
39.0	116.32663127128035	fix	2.0		60	attractiveness	034	1.0	2	-0.8199999999999998	832.7905831243843	0.5000562957720831
40.0	116.82668756705243	cue	0.0		480						833.2906394201564	4.0004512715677265
40.0	120.82713883862016	fix	1.0		120						837.2910906917241	1.0168099416187033
40.0	121.84394878023886	face	0.0		147	trustworthiness	066	1.0	2		838.3079006333428	1.233445653168019
40.0	123.07739443340688	rating	1.0		105	trustworthiness	066	1.0	2		839.5413462865108	0.8834285531484056
40.0	123.96082298655529	fix	2.0		60	trustworthiness	066	1.0	2	-2.4699999999999998	840.4247748396592	0.5167536458466202
41.0	124.4775766324019	face	0.0		147	trustworthiness	024	1.0	2		840.9415284855058	1.233443540200824
41.0	125.71102017260273	rating	1.0		73	trustworthiness	024	1.0	2		842.1749720257067	0.6167545212374534
41.0	126.32777469384018	fix	2.0		60	trustworthiness	024	1.0	2	-0.6299999999999999	842.7917265469441	0.5167328179522883
42.0	126.84450751179247	face	0.0		147	trustworthiness	124	1.0	2		843.3084593648964	1.233445653168019
42.0	128.0779531649605	rating	1.0		83	trustworthiness	124	1.0	2		844.5419050180644	0.7000773651525378
42.0	128.77803053011303	fix	2.0		60	trustworthiness	124	1.0	2	0.41999999999999993	845.241982383217	0.5167467032442801
43.0	129.2947772333573	face	0.0		147	trustworthiness	121	1.0	2		845.7587290864612	1.2334516902337782
43.0	130.5282289235911	rating	1.0		62	trustworthiness	121	1.0	2		846.992180776695	0.5250609669310506
43.0	131.05328989052214	fix	2.0		60	trustworthiness	121	1.0	2	-2.0	847.5172417436261	0.5167482125107199
44.0	131.57003810303286	face	0.0		147	trustworthiness	009	1.0	2		848.0339899561368	1.2334501809673384
44.0	132.8034882840002	rating	1.0		91	trustworthiness	009	1.0	2		849.2674401371041	0.7667499481758568
44.0	133.57023823217605	fix	2.0		60	trustworthiness	009	1.0	2	2.34	850.03419008528	0.5167554569779895
45.0	134.08699368915404	face	0.0		147	trustworthiness	100	1.0	2		850.550945542258	1.233443540200824
45.0	135.32043722935487	rating	1.0		150	trustworthiness	100	1.0	2		851.7843890824588	1.258470548549667
45.0	136.57890777790453	fix	2.0		60	trustworthiness	100	1.0	2	-0.5099999999999998	853.0428596310085	0.5167566644086037
46.0	137.09566444231314	face	0.0		147	trustworthiness	034	1.0	2		853.5596162954171	1.2334492754307576
46.0	138.3291137177439	rating	1.0		251	trustworthiness	034	1.0	2		854.7930655708478	2.1002423584868666
46.0	140.42935607623076	fix	2.0		60	trustworthiness	034	1.0	2	-1.0899999999999999	856.8933079293347	0.5167415717151016
47.0	140.94609764794586	face	0.0		147	trustworthiness	137	1.0	2		857.4100495010498	1.2334438420366496
47.0	142.1795414899825	rating	1.0		146	trustworthiness	137	1.0	2		858.6434933430864	1.2251362191163935
47.0	143.4046777090989	fix	2.0		60	trustworthiness	137	1.0	2	-1.15	859.8686295622028	0.5167524384451099
48.0	143.92143014754402	face	0.0		147	trustworthiness	006	1.0	2		860.385382000648	1.2334432383358944
48.0	145.1548733858799	rating	1.0		115	trustworthiness	006	1.0	2		861.6188252389838	0.9667791676183697
48.0	146.12165255349828	fix	2.0		60	trustworthiness	006	1.0	2	-2.01	862.5856044066022	0.5167527403100394
49.0	146.63840529380832	face	0.0		147	trustworthiness	062	1.0	2		863.1023571469123	1.233441427204525
49.0	147.87184672101284	rating	1.0		89	trustworthiness	062	1.0	2		864.3357985741168	0.7500806704629213
49.0	148.62192739147577	fix	2.0		60	trustworthiness	062	1.0	2	-2.74	865.0858792445797	0.5167542495764792
50.0	149.13868164105224	face	0.0		147	trustworthiness	064	1.0	2		865.6026334941562	1.2334468605695292
50.0	150.37212850162177	rating	1.0		241	trustworthiness	064	1.0	2		866.8360803547257	2.016892045881832
50.0	152.3890205475036	fix	2.0		60	trustworthiness	064	1.0	2	0.3700000000000001	868.8529724006075	0.5167524384451099
51.0	152.90577298594872	face	0.0		147	trustworthiness	141	1.0	2		869.3697248390527	1.2334444457665086
51.0	154.13921743171522	rating	1.0		210	trustworthiness	141	1.0	2		870.6031692848192	1.758533786953194
51.0	155.89775121866842	fix	2.0		60	trustworthiness	141	1.0	2	0.4900000000000002	872.3617030717724	0.5167512310435995
52.0	156.41450244971202	face	0.0		147	trustworthiness	099	1.0	2		872.878454302816	1.2334438420366496
52.0	157.64794629174867	rating	1.0		130	trustworthiness	099	1.0	2		874.1118981448526	1.0917913549637888
52.0	158.73973764671246	fix	2.0		60	trustworthiness	099	1.0	2	2.17	875.2036894998164	0.5167666256020311
53.0	159.2565042723145	face	0.0		147	trustworthiness	036	1.0	2		875.7204561254184	1.2334293530439027
53.0	160.4899336253584	rating	1.0		84	trustworthiness	036	1.0	2		876.9538854784623	0.7084215123904869
53.0	161.19835513774888	fix	2.0		60	trustworthiness	036	1.0	2	1.1500000000000004	877.6623069908528	0.5167448921129107
54.0	161.7151000298618	face	0.0		147	trustworthiness	061	1.0	2		878.1790518829657	1.2334444457665086
54.0	162.9485444756283	rating	1.0		115	trustworthiness	061	1.0	2		879.4124963287322	0.9667710175563116
54.0	163.9153154931846	fix	2.0		60	trustworthiness	061	1.0	2	0.8499999999999996	880.3792673462885	0.5167569662444293
55.0	164.43207245942904	face	0.0		147	trustworthiness	012	1.0	2		880.896024312533	1.2334423327702098
55.0	165.66551479219925	rating	1.0		198	trustworthiness	012	1.0	2		882.1294666453032	1.6585314023250248
55.0	167.32404619452427	fix	2.0		60	trustworthiness	012	1.0	2	-0.5099999999999998	883.7879980476282	0.5167403642844874
56.0	167.84078655880876	face	0.0		147	trustworthiness	117	1.0	2		884.3047384119127	1.2334432383358944
56.0	169.07422979714465	rating	1.0		225	trustworthiness	117	1.0	2		885.5381816502486	1.883545974327717
56.0	170.95777577147237	fix	2.0		60	trustworthiness	117	1.0	2	-1.4700000000000002	887.4217276245763	0.5167542495764792
57.0	171.47453002104885	face	0.0		147	trustworthiness	027	1.0	2		887.9384818741528	1.233444143901579
57.0	172.70797416495043	rating	1.0		238	trustworthiness	027	1.0	2		889.1719260180544	1.9918876765295863
57.0	174.69986184148001	fix	2.0		60	trustworthiness	027	1.0	2	-0.43000000000000016	891.163813694584	0.5167551551421639
58.0	175.21661699662218	face	0.0		147	trustworthiness	092	1.0	2		891.6805688497261	1.2334447476023342
58.0	176.4500617442245	rating	1.0		107	trustworthiness	092	1.0	2		892.9140135973284	0.9001005475292914
58.0	177.3501622917538	fix	2.0		60	trustworthiness	092	1.0	2	0.9900000000000002	893.8141141448577	0.5167530421749689
59.0	177.86691533392877	face	0.0		147	trustworthiness	005	1.0	2		894.3308671870327	1.2334465587045997
59.0	179.10036189263337	rating	1.0		164	trustworthiness	005	1.0	2		895.5643137457373	1.375153681379743
59.0	180.47551557401312	fix	2.0		60	trustworthiness	005	1.0	2	-0.16000000000000014	896.939467427117	0.5167467032151762
60.0	180.9922622772283	face	0.0		147	trustworthiness	102	1.0	2		897.4562141303322	1.2334522939636372
60.0	182.22571457119193	rating	1.0		135	trustworthiness	102	1.0	2		898.6896664242959	1.133456851937808
60.0	183.35917142312974	fix	2.0		60	trustworthiness	102	1.0	2	1.4900000000000002	899.8231232762337	0.5167506273428444
61.0	183.87592205047258	face	0.0		147	trustworthiness	039	1.0	2		900.3398739035765	1.2334688959235791
61.0	185.10939094639616	rating	1.0		110	trustworthiness	039	1.0	2		901.5733427995001	0.925081674096873
61.0	186.03447262049303	fix	2.0		60	trustworthiness	039	1.0	2	2.5300000000000002	902.498424473597	0.5167527403100394
62.0	186.55122536080307	face	0.0		147	trustworthiness	091	1.0	2		903.015177213907	1.233443540200824
62.0	187.7846689010039	rating	1.0		88	trustworthiness	091	1.0	2		904.2486207541078	0.7417485973564908
62.0	188.5264174983604	fix	2.0		60	trustworthiness	091	1.0	2	-1.2400000000000002	904.9903693514643	0.5167732663685456
63.0	189.04319076472893	face	0.0		147	trustworthiness	042	1.0	2		905.5071426178329	1.2334254289453384
63.0	190.27661619367427	rating	1.0		125	trustworthiness	042	1.0	2		906.7405680467782	1.0501168023911305
63.0	191.3267329960654	fix	2.0		60	trustworthiness	042	1.0	2	0.0	907.7906848491693	0.5167569662444293
64.0	191.84348996230983	face	0.0		147	trustworthiness	011	1.0	2		908.3074418154138	1.233455916197272
64.0	193.0769458785071	rating	1.0		79	trustworthiness	011	1.0	2		909.540897731611	0.6667496764857788
64.0	193.74369555499288	fix	2.0		60	trustworthiness	011	1.0	2	1.5099999999999998	910.2076474080968	0.516728893853724
65.0	194.2604244488466	face	0.0		147	trustworthiness	101	1.0	2		910.7243763019505	1.233446256868774
65.0	195.49387070571538	rating	1.0		101	trustworthiness	101	1.0	2		911.9578225588193	0.8500951292517129
65.0	196.3439658349671	fix	2.0		60	trustworthiness	101	1.0	2	0.8600000000000003	912.807917688071	0.516761192237027
66.0	196.86072702720412	face	0.0		147	trustworthiness	043	1.0	2		913.324678880308	1.2334356919745915
66.0	198.0941627191787	rating	1.0		80	trustworthiness	043	1.0	2		914.5581145722826	0.6750742032309063
66.0	198.76923692240962	fix	2.0		60	trustworthiness	043	1.0	2	-1.1099999999999999	915.2331887755136	0.5167551551421639
67.0	199.28599207755178	face	0.0		147	trustworthiness	136	1.0	2		915.7499439306557	1.2334444457665086
67.0	200.5194365233183	rating	1.0		90	trustworthiness	136	1.0	2		916.9833883764222	0.7584139509417582
67.0	201.27785047426005	fix	2.0		60	trustworthiness	136	1.0	2	-1.56	917.741802327364	0.5167575699742883
68.0	201.79460804423434	face	0.0		147	trustworthiness	070	1.0	2		918.2585598973383	1.2334417290694546
68.0	203.0280497733038	rating	1.0		105	trustworthiness	070	1.0	2		919.4920016264077	0.8834397217433434
68.0	203.91148949504714	fix	2.0		60	trustworthiness	070	1.0	2	-2.44	920.3754413481511	0.5167439865472261
69.0	204.42823348159436	face	0.0		147	trustworthiness	172	1.0	2		920.8921853346983	1.233447766135214
69.0	205.66168124772958	rating	1.0		80	trustworthiness	172	1.0	2		922.1256331008335	0.6750739013950806
69.0	206.33675514912466	fix	2.0		60	trustworthiness	172	1.0	2	-1.5299999999999998	922.8007070022286	0.5167539477115497
70.0	206.8535090968362	face	0.0		147	trustworthiness	033	1.0	2		923.3174609499401	1.2334426346351393
70.0	208.08695173147134	rating	1.0		99	trustworthiness	033	1.0	2		924.5509035845753	0.8334255496738479
70.0	208.9203772811452	fix	2.0		60	trustworthiness	033	1.0	2	1.2199999999999998	925.3843291342491	0.5167521366092842
71.0	209.43712941775448	face	0.0		147	trustworthiness	044	1.0	2		925.9010812708584	1.2334498791315127
71.0	210.670579296886	rating	1.0		62	trustworthiness	044	1.0	2		927.1345311499899	0.5250546280003618
71.0	211.19563392488635	fix	2.0		60	trustworthiness	044	1.0	2	-1.4500000000000002	927.6595857779903	0.5167524384451099
72.0	211.71238636333146	face	0.0		147	trustworthiness	018	1.0	2		928.1763382164354	1.2334459550329484
72.0	212.9458323183644	rating	1.0		156	trustworthiness	018	1.0	2		929.4097841714683	1.3084801927907392
72.0	214.25431251115515	fix	2.0		60	trustworthiness	018	1.0	2	1.96	930.7182643642591	0.5167542495764792
73.0	214.77106676073163	face	0.0		147	trustworthiness	144	1.0	2		931.2350186138356	1.2334450494672637
73.0	216.0045118101989	rating	1.0		69	trustworthiness	144	1.0	2		932.4684636633028	0.5833942323515657
73.0	216.58790604255046	fix	2.0		60	trustworthiness	144	1.0	2	0.8899999999999997	933.0518578956544	0.5167581736750435
74.0	217.1046642162255	face	0.0		147	trustworthiness	126	1.0	2		933.5686160693294	1.2334429365000688
74.0	218.33810715272557	rating	1.0		48	trustworthiness	126	1.0	2		934.8020590058295	0.40837602299870923
74.0	218.74648317572428	fix	2.0		60	trustworthiness	126	1.0	2	-1.3399999999999999	935.2104350288282	0.5167530421749689
75.0	219.26323621789925	face	0.0		147	trustworthiness	030	1.0	2		935.7271880710032	1.2334453513030894
75.0	220.49668156920234	rating	1.0		194	trustworthiness	030	1.0	2		936.9606334223063	1.6251822820340749
75.0	222.1218638512364	fix	2.0		60	trustworthiness	030	1.0	2	0.7999999999999998	938.5858157043403	0.5167491180473007
76.0	222.6386129692837	face	0.0		147	trustworthiness	038	1.0	2		939.1025648223876	1.233448369865073
76.0	223.8720613391488	rating	1.0		84	trustworthiness	038	1.0	2		940.3360131922527	0.708411853061989
76.0	224.58047319221077	fix	2.0		60	trustworthiness	038	1.0	2	1.33	941.0444250453147	0.5167521366092842
77.0	225.09722532882006	face	0.0		147	trustworthiness	082	1.0	2		941.561177181924	1.2334450494672637
77.0	226.33067037828732	rating	1.0		109	trustworthiness	082	1.0	2		942.7946222313913	0.9167707307788078
77.0	227.24744110906613	fix	2.0		60	trustworthiness	082	1.0	2	2.01	943.7113929621701	0.5167451939487364
78.0	227.76418630301487	face	0.0		147	trustworthiness	087	1.0	2		944.2281381561188	1.2334622551570646
78.0	228.99764855817193	rating	1.0		224	trustworthiness	087	1.0	2		945.4616004112759	1.8752015251957346
78.0	230.87285008336767	fix	2.0		60	trustworthiness	087	1.0	2	0.40000000000000036	947.3368019364716	0.51675092917867
79.0	231.38960101254634	face	0.0		147	trustworthiness	130	1.0	2		947.8535528656503	1.2334447476023342
79.0	232.62304576014867	rating	1.0		110	trustworthiness	130	1.0	2		949.0869976132526	0.9251015964837279
79.0	233.5481473566324	fix	2.0		60	trustworthiness	130	1.0	2	-0.5899999999999999	950.0120992097363	0.5000578050094191
80.0	234.04820516164182	cue	0.0		480						950.5121570147458	4.000447347498266
80.0	238.04865250914008	fix	1.0		120						954.512604362244	1.0168120545858983
80.0	239.06546456372598	face	0.0		147	dominance	062	1.0	2		955.5294164168299	1.233444143901579
80.0	240.29890870762756	rating	1.0		133	dominance	062	1.0	2		956.7628605607315	1.1167902909219265
80.0	241.4156989985495	fix	2.0		60	dominance	062	1.0	2	2.41	957.8796508516534	0.5167545514414087
81.0	241.9324535499909	face	0.0		147	dominance	121	1.0	2		958.3964054030948	1.2334465587045997
81.0	243.1659001086955	rating	1.0		105	dominance	121	1.0	2		959.6298519617994	0.8834300624148455
81.0	244.04933017111034	fix	2.0		60	dominance	121	1.0	2	2.96	960.5132820242143	0.5167524384742137
82.0	244.56608260958456	face	0.0		147	dominance	030	1.0	2		961.0300344626885	1.233446256868774
82.0	245.79952886645333	rating	1.0		246	dominance	030	1.0	2		962.2634807195573	2.0585641836514696
82.0	247.8580930501048	fix	2.0		60	dominance	030	1.0	2	0.2699999999999996	964.3220449032087	0.5167503254779149
83.0	248.3748433755827	face	0.0		147	dominance	036	1.0	2		964.8387952286866	1.2334459550038446
83.0	249.60828933058656	rating	1.0		60	dominance	036	1.0	2		966.0722411836905	0.5083895762800239
83.0	250.11667890686658	fix	2.0		60	dominance	036	1.0	2	-1.5099999999999998	966.5806307599705	0.51675515511306
84.0	250.63343406197964	face	0.0		147	dominance	039	1.0	2		967.0973859150836	1.233441427233629
84.0	251.86687548921327	rating	1.0		197	dominance	039	1.0	2		968.3308273423172	1.6501848402258474
84.0	253.51706032943912	fix	2.0		60	dominance	039	1.0	2	-2.01	969.981012182543	0.5167542495764792
85.0	254.0338145790156	face	0.0		147	dominance	027	1.0	2		970.4977664321195	1.2334444457374047
85.0	255.267259024753	rating	1.0		67	dominance	027	1.0	2		971.7312108778569	0.5667279732006136
85.0	255.83398699795362	fix	2.0		60	dominance	027	1.0	2	-1.1600000000000001	972.2979388510576	0.5167518347443547
86.0	256.35073883269797	face	0.0		147	dominance	144	1.0	2		972.8146906858019	1.2334610477264505
86.0	257.5841998804244	rating	1.0		55	dominance	144	1.0	2		974.0481517335284	0.4667041569191497
86.0	258.05090403734357	fix	2.0		60	dominance	144	1.0	2	0.8099999999999996	974.5148558904475	0.5167494199122302
87.0	258.5676534572558	face	0.0		147	dominance	141	1.0	2		975.0316053103597	1.233448369835969
87.0	259.80110182709177	rating	1.0		58	dominance	141	1.0	2		976.2650536801957	0.4917202985670883
87.0	260.29282212565886	fix	2.0		60	dominance	141	1.0	2	-1.1	976.7567739787628	0.5167545514414087
88.0	260.80957667710027	face	0.0		147	dominance	011	1.0	2		977.2735285302042	1.233442936470965
88.0	262.04301961357123	rating	1.0		99	dominance	011	1.0	2		978.5069714666752	0.833427360834321
88.0	262.87644697440555	fix	2.0		60	dominance	011	1.0	2	1.2400000000000002	979.3403988275095	0.5167536458466202
89.0	263.3932006202522	face	0.0		147	dominance	091	1.0	2		979.8571524733561	1.233446860598633
89.0	264.6266474808508	rating	1.0		99	dominance	091	1.0	2		981.0905993339547	0.833421927440213
89.0	265.460069408291	fix	2.0		60	dominance	091	1.0	2	-3.0300000000000002	981.924021261395	0.5167533440107945
90.0	265.9768227523018	face	0.0		147	dominance	082	1.0	2		982.4407746054057	1.2334459550329484
90.0	267.21026870733476	rating	1.0		258	dominance	082	1.0	2		983.6742205604387	2.1585744164767675
90.0	269.36884312381153	fix	2.0		60	dominance	082	1.0	2	-0.06000000000000005	985.8327949769155	0.5167539477406535
91.0	269.8855970715522	face	0.0		147	dominance	126	1.0	2		986.3495489246561	1.2334453513030894
91.0	271.1190424228553	rating	1.0		111	dominance	126	1.0	2		987.5829942759592	0.9334357825573534
91.0	272.0524782054126	fix	2.0		60	dominance	126	1.0	2	2.5300000000000002	988.5164300585166	0.5167587773757987
92.0	272.5692369827884	face	0.0		147	dominance	136	1.0	2		989.0331888358924	1.2334501809673384
92.0	273.80268716375576	rating	1.0		104	dominance	136	1.0	2		990.2666390168597	0.8750973856367636
92.0	274.6777845493925	fix	2.0		60	dominance	136	1.0	2	2.24	991.1417364024965	0.5167714552371763
93.0	275.1945560046297	face	0.0		147	dominance	005	1.0	2		991.6585078577336	1.2334184863138944
93.0	276.4279744909436	rating	1.0		71	dominance	005	1.0	2		992.8919263440475	0.600064415630186
93.0	277.0280389065738	fix	2.0		60	dominance	005	1.0	2	-0.06000000000000005	993.4919907596777	0.5167506273137406
94.0	277.5447895338875	face	0.0		147	dominance	061	1.0	2		994.0087413869915	1.233448973565828
94.0	278.77823850745335	rating	1.0		183	dominance	061	1.0	2		995.2421903605573	1.5335035185562447
94.0	280.3117420260096	fix	2.0		60	dominance	061	1.0	2	0.8099999999999996	996.7756938791135	0.5167503254779149
95.0	280.8284923514875	face	0.0		147	dominance	064	1.0	2		997.2924442045914	1.2334480680001434
95.0	282.06194041948766	rating	1.0		164	dominance	064	1.0	2		998.5258922725916	1.3751518702483736
95.0	283.43709228973603	fix	2.0		60	dominance	064	1.0	2	1.4299999999999997	999.90104414284	0.5167521365801804
96.0	283.9538444263162	face	0.0		147	dominance	034	1.0	2		1000.4177962794201	1.2334477661643177
96.0	285.1872921924805	rating	1.0		85	dominance	034	1.0	2		1001.6512440455845	0.7167430206027348
96.0	285.90403521308326	fix	2.0		60	dominance	034	1.0	2	1.5199999999999996	1002.3679870661872	0.5167521365801804
97.0	286.42078734966344	face	0.0		147	dominance	102	1.0	2		1002.8847392027674	1.2334643681242596
97.0	287.6542517177877	rating	1.0		100	dominance	102	1.0	2		1004.1182035708916	0.8417452467838302
97.0	288.49599696457153	fix	2.0		60	dominance	102	1.0	2	-2.06	1004.9599488176755	0.5167500236129854
98.0	289.0127469881845	face	0.0		147	dominance	117	1.0	2		1005.4766988412885	1.2334471624344587
98.0	290.246194150619	rating	1.0		116	dominance	117	1.0	2		1006.7101460037229	0.9751097314583603
98.0	291.22130388207734	fix	2.0		60	dominance	117	1.0	2	1.67	1007.6852557351813	0.51675092917867
99.0	291.738054811256	face	0.0		147	dominance	009	1.0	2		1008.2020066643599	1.233447766135214
99.0	292.9715025773912	rating	1.0		112	dominance	009	1.0	2		1009.4354544304952	0.9417663463682402
99.0	293.91326892375946	fix	2.0		60	dominance	009	1.0	2	-1.3599999999999999	1010.3772207768634	0.5167518347443547
100.0	294.4300207585038	face	0.0		147	dominance	137	1.0	2		1010.8939726116078	1.2334468605695292
100.0	295.66346761907334	rating	1.0		151	dominance	137	1.0	2		1012.1274194721773	1.2668074513494503
100.0	296.9302750704228	fix	2.0		60	dominance	137	1.0	2	0.03000000000000025	1013.3942269235267	0.516757871810114
101.0	297.4470329422329	face	0.0		147	dominance	024	1.0	2		1013.9109847953368	1.2334423327702098
101.0	298.6804752750031	rating	1.0		90	dominance	024	1.0	2		1015.144427128107	0.7584154602373019
101.0	299.4388907352404	fix	2.0		60	dominance	024	1.0	2	0.4800000000000004	1015.9028425883444	0.5167524384451099
102.0	299.95564317368553	face	0.0		147	dominance	012	1.0	2		1016.4195950267895	1.2334474642993882
102.0	301.1890906379849	rating	1.0		77	dominance	012	1.0	2		1017.6530424910889	0.6500713431742042
102.0	301.8391619811591	fix	2.0		60	dominance	012	1.0	2	1.6900000000000004	1018.3031138342631	0.5167527403100394
103.0	302.35591472146916	face	0.0		147	dominance	130	1.0	2		1018.8198665745731	1.2334426346060354
103.0	303.5893573560752	rating	1.0		62	dominance	130	1.0	2		1020.0533092091791	0.5250597595295403
103.0	304.11441711560474	fix	2.0		60	dominance	130	1.0	2	-1.88	1020.5783689687087	0.5167521366092842
104.0	304.631169252214	face	0.0		147	dominance	092	1.0	2		1021.095121105318	1.2334465587337036
104.0	305.8646158109477	rating	1.0		327	dominance	092	1.0	2		1022.3285676640517	2.733638386882376
104.0	308.5982541978301	fix	2.0		60	dominance	092	1.0	2	0.6500000000000004	1025.062206050934	0.5167527402809355
105.0	309.11500693811104	face	0.0		147	dominance	018	1.0	2		1025.578958791215	1.2334474642993882
105.0	310.3484544024104	rating	1.0		83	dominance	018	1.0	2		1026.8124062555144	0.7000764595868532
105.0	311.0485308619973	fix	2.0		60	dominance	018	1.0	2	-2.08	1027.5124827151012	0.5167530421749689
106.0	311.56528390417225	face	0.0		147	dominance	038	1.0	2		1028.0292357572762	1.2334444457374047
106.0	312.79872834990965	rating	1.0		106	dominance	038	1.0	2		1029.2626802030136	0.8917645503534004
106.0	313.69049290026305	fix	2.0		60	dominance	038	1.0	2	-2.77	1030.154444753367	0.5167494199122302
107.0	314.2072423201753	face	0.0		147	dominance	042	1.0	2		1030.6711941732792	1.233448369835969
107.0	315.44069069001125	rating	1.0		92	dominance	042	1.0	2		1031.9046425431152	0.775087152782362
107.0	316.2157778427936	fix	2.0		60	dominance	042	1.0	2	-1.4900000000000002	1032.6797296958975	0.5167551551421639
108.0	316.7325329979358	face	0.0		147	dominance	124	1.0	2		1033.1964848510397	1.233451086533023
108.0	317.9659840844688	rating	1.0		137	dominance	124	1.0	2		1034.4299359375727	1.150118281453615
108.0	319.1161023659224	fix	2.0		60	dominance	124	1.0	2	1.83	1035.5800542190264	0.5167518347443547
109.0	319.63285420066677	face	0.0		147	dominance	033	1.0	2		1036.0968060537707	1.233448369835969
109.0	320.86630257050274	rating	1.0		97	dominance	033	1.0	2		1037.3302544236067	0.8167559701541904
109.0	321.68305854065693	fix	2.0		60	dominance	033	1.0	2	-2.4	1038.1470103937609	0.5167554569779895
110.0	322.1998139976349	face	0.0		147	dominance	066	1.0	2		1038.6637658507389	1.2334429365000688
110.0	323.433256934135	rating	1.0		86	dominance	066	1.0	2		1039.897208787239	0.7250832437421195
110.0	324.1583401778771	fix	2.0		60	dominance	066	1.0	2	2.3099999999999996	1040.622292030981	0.51675092917867
111.0	324.6750911070558	face	0.0		147	dominance	101	1.0	2		1041.1390429601597	1.2334447476023342
111.0	325.9085358546581	rating	1.0		112	dominance	101	1.0	2		1042.372487707762	0.9417714778974187
111.0	326.85030733255553	fix	2.0		60	dominance	101	1.0	2	-0.56	1043.3142591856595	0.5167527403100394
112.0	327.36706007286557	face	0.0		147	dominance	172	1.0	2		1043.8310119259695	1.2334450494672637
112.0	328.60050512233283	rating	1.0		275	dominance	172	1.0	2		1045.0644569754368	2.3002761057578027
112.0	330.90078122809064	fix	2.0		60	dominance	172	1.0	2	0.5899999999999999	1047.3647330811946	0.5167391568829771
113.0	331.4175203849736	face	0.0		147	dominance	006	1.0	2		1047.8814722380775	1.2334405216388404
113.0	332.65096090661245	rating	1.0		245	dominance	006	1.0	2		1049.1149127597164	2.05022879014723
113.0	334.7011896967597	fix	2.0		60	dominance	006	1.0	2	2.12	1051.1651415498636	0.5167708515655249
114.0	335.2179605483252	face	0.0		147	dominance	043	1.0	2		1051.6819124014291	1.2334269382117782
114.0	336.451387486537	rating	1.0		56	dominance	043	1.0	2		1052.915339339641	0.4750543412519619
114.0	336.92644182778895	fix	2.0		60	dominance	043	1.0	2	-2.13	1053.3903936808929	0.5167506273137406
115.0	337.4431924551027	face	0.0		147	dominance	087	1.0	2		1053.9071443082066	1.2334459550329484
115.0	338.67663841013564	rating	1.0		91	dominance	087	1.0	2		1055.1405902632396	0.7667502500116825
115.0	339.4433886601473	fix	2.0		60	dominance	087	1.0	2	1.1399999999999997	1055.9073405132513	0.5167467032151762
116.0	339.9601353633625	face	0.0		147	dominance	070	1.0	2		1056.4240872164664	1.2334522939636372
116.0	341.19358765732613	rating	1.0		93	dominance	070	1.0	2		1057.65753951043	0.7834204332611989
116.0	341.97700809058733	fix	2.0		60	dominance	070	1.0	2	2.76	1058.4409599436913	0.5167542495764792
117.0	342.4937623401638	face	0.0		147	dominance	099	1.0	2		1058.9577141932677	1.233453803230077
117.0	343.7272161433939	rating	1.0		89	dominance	099	1.0	2		1060.1911679964978	0.750074029667303
117.0	344.4772901730612	fix	2.0		60	dominance	099	1.0	2	-1.62	1060.9412420261651	0.5167527403100394
118.0	344.99404291337123	face	0.0		147	dominance	044	1.0	2		1061.4579947664752	1.2334450494672637
118.0	346.2274879628385	rating	1.0		165	dominance	044	1.0	2		1062.6914398159424	1.3834869618585799
118.0	347.6109749246971	fix	2.0		60	dominance	044	1.0	2	-1.7200000000000002	1064.074926777801	0.5167524384742137
119.0	348.1277273631713	face	0.0		147	dominance	100	1.0	2		1064.5916792162752	1.2334471624344587
119.0	349.36117452560575	rating	1.0		66	dominance	100	1.0	2		1065.8251263787097	0.5583916741306894
119.0	349.91956619973644	fix	2.0		60	dominance	100	1.0	2	1.5300000000000002	1066.3835180528404	0.5000611254072282
120.0	350.41962732514367	cue	0.0		3600						1066.8835791782476	30.00337382100406
120.0	380.4230011461477	fix	1.0		120						1096.8869529992517	1.000110176682938
120.0	381.42311132283066	cue	0.0		480						1097.8870631759346	4.000446743768407
120.0	385.42355806659907	fix	1.0		120						1101.887509919703	1.0168090360530186
120.0	386.4403671026521	face	0.0		147	trustworthiness	012	2.0	2		1102.904318955756	1.2334444457374047
120.0	387.6738115483895	rating	1.0		110	trustworthiness	012	2.0	2		1104.1377634014934	0.9251049168815371
120.0	388.59891646527103	fix	2.0		60	trustworthiness	012	2.0	2	-1.15	1105.062868318375	0.5167533440107945
121.0	389.1156698092818	face	0.0		147	trustworthiness	126	2.0	2		1105.5796216623858	1.2334450494672637
121.0	390.3491148587491	rating	1.0		69	trustworthiness	126	2.0	2		1106.813066711853	0.5833972508844454
121.0	390.93251210963354	fix	2.0		60	trustworthiness	126	2.0	2	-2.2	1107.3964639627375	0.5167503254779149
122.0	391.44926243511145	face	0.0		147	trustworthiness	044	2.0	2		1107.9132142882154	1.2334492754016537
122.0	392.6827117105131	rating	1.0		168	trustworthiness	044	2.0	2		1109.146663563617	1.4084901238093153
122.0	394.0912018343224	fix	2.0		60	trustworthiness	044	2.0	2	1.9400000000000004	1110.5551536874264	0.5167500236129854
123.0	394.6079518579354	face	0.0		147	trustworthiness	172	2.0	2		1111.0719037110393	1.2334474642993882
123.0	395.8413993222348	rating	1.0		104	trustworthiness	172	2.0	2		1112.3053511753387	0.8750952726404648
123.0	396.71649459487526	fix	2.0		60	trustworthiness	172	2.0	2	1.5999999999999996	1113.1804464479792	0.5167590792407282
124.0	397.233253674116	face	0.0		147	trustworthiness	091	2.0	2		1113.69720552722	1.2334411253395956
124.0	398.4666947994556	rating	1.0		174	trustworthiness	091	2.0	2		1114.9306466525595	1.4584934290905949
124.0	399.9251882285462	fix	2.0		60	trustworthiness	091	2.0	2	-0.7200000000000002	1116.38914008165	0.516755758842919
125.0	400.4419439873891	face	0.0		147	trustworthiness	009	2.0	2		1116.905895840493	1.2334453513321932
125.0	401.6753893387213	rating	1.0		68	trustworthiness	009	2.0	2		1118.1393411918252	0.5750639703765046
125.0	402.2504533090978	fix	2.0		60	trustworthiness	009	2.0	2	1.8899999999999997	1118.7144051622017	0.5167521366092842
126.0	402.7672054457071	face	0.0		147	trustworthiness	005	2.0	2		1119.231157298811	1.233444143901579
126.0	404.00064958960866	rating	1.0		58	trustworthiness	005	2.0	2		1120.4646014427126	0.49172120410366915
126.0	404.4923707937123	fix	2.0		60	trustworthiness	005	2.0	2	-0.10999999999999988	1120.9563226468163	0.5167524384451099
127.0	405.00912323215744	face	0.0		147	trustworthiness	117	2.0	2		1121.4730750852614	1.2334459550329484
127.0	406.2425691871904	rating	1.0		56	trustworthiness	117	2.0	2		1122.7065210402943	0.47505132271908224
127.0	406.71762050990947	fix	2.0		60	trustworthiness	117	2.0	2	-1.52	1123.1815723630134	0.5167512310144957
128.0	407.23437174092396	face	0.0		147	trustworthiness	038	2.0	2		1123.698323594028	1.2334474642993882
128.0	408.46781920522335	rating	1.0		93	trustworthiness	038	2.0	2		1124.9317710583273	0.7834231499582529
128.0	409.2512423551816	fix	2.0		60	trustworthiness	038	2.0	2	1.88	1125.7151942082855	0.5167494199122302
129.0	409.76799177509383	face	0.0		147	trustworthiness	099	2.0	2		1126.2319436281978	1.2334429365000688
129.0	411.0014347115939	rating	1.0		89	trustworthiness	099	2.0	2		1127.4653865646978	0.7500851982622407
129.0	411.75151990985614	fix	2.0		60	trustworthiness	099	2.0	2	3.0999999999999996	1128.21547176296	0.5167554569779895
130.0	412.26827536683413	face	0.0		147	trustworthiness	030	2.0	2		1128.732227219938	1.233444143901579
130.0	413.5017195107357	rating	1.0		109	trustworthiness	030	2.0	2		1129.9656713638396	0.9167665048444178
130.0	414.41848601558013	fix	2.0		60	trustworthiness	030	2.0	2	1.0099999999999998	1130.882437868684	0.5167521365801804
131.0	414.9352381521603	face	0.0		147	trustworthiness	027	2.0	2		1131.3991900052642	1.233446860598633
131.0	416.16868501275894	rating	1.0		67	trustworthiness	027	2.0	2		1132.6326368658629	0.5667530270584393
131.0	416.7354380398174	fix	2.0		60	trustworthiness	027	2.0	2	-0.77	1133.1993898929213	0.5167216493573505
132.0	417.25215968917473	face	0.0		147	trustworthiness	034	2.0	2		1133.7161115422787	1.2334516902337782
132.0	418.4856113794085	rating	1.0		73	trustworthiness	034	2.0	2		1134.9495632325124	0.6167336933431216
132.0	419.10234507275163	fix	2.0		60	trustworthiness	034	2.0	2	-1.44	1135.5662969258556	0.5167551551421639
133.0	419.6191002278938	face	0.0		147	trustworthiness	136	2.0	2		1136.0830520809977	1.2334465587045997
133.0	420.8525467865984	rating	1.0		71	trustworthiness	136	2.0	2		1137.3164986397023	0.6000647174951155
133.0	421.4526115040935	fix	2.0		60	trustworthiness	136	2.0	2	-1.9	1137.9165633571974	0.5167515328794252
134.0	421.96936303697294	face	0.0		147	trustworthiness	062	2.0	2		1138.4333148900769	1.2334471624344587
134.0	423.2028101994074	rating	1.0		103	trustworthiness	062	2.0	2		1139.6667620525113	0.8667604828660842
134.0	424.0695706822735	fix	2.0		60	trustworthiness	062	2.0	2	-3.1	1140.5335225353774	0.516753645875724
135.0	424.5863243281492	face	0.0		147	trustworthiness	036	2.0	2		1141.0502761812531	1.2334459550038446
135.0	425.81977028315305	rating	1.0		166	trustworthiness	036	2.0	2		1142.283722136257	1.3918238646292593
135.0	427.2115941477823	fix	2.0		60	trustworthiness	036	2.0	2	-0.45999999999999996	1143.6755460008862	0.5167485143465456
136.0	427.72834266212885	face	0.0		147	trustworthiness	064	2.0	2		1144.1922945152328	1.2334471624344587
136.0	428.9617898245633	rating	1.0		115	trustworthiness	064	2.0	2		1145.4257416776672	0.9667746398190502
136.0	429.92856446438236	fix	2.0		60	trustworthiness	064	2.0	2	0.9299999999999997	1146.3925163174863	0.5167563625436742
137.0	430.44532082692604	face	0.0		147	trustworthiness	061	2.0	2		1146.90927268003	1.23344082350377
137.0	431.6787616504298	rating	1.0		61	trustworthiness	061	2.0	2		1148.1427135035337	0.5167228567879647
137.0	432.19548450721777	fix	2.0		60	trustworthiness	061	2.0	2	1.2199999999999998	1148.6594363603217	0.5167539477115497
138.0	432.7122384549293	face	0.0		147	trustworthiness	144	2.0	2		1149.1761903080333	1.2334447476023342
138.0	433.94568320253165	rating	1.0		58	trustworthiness	144	2.0	2		1150.4096350556356	0.49171939300140366
138.0	434.43740259553306	fix	2.0		60	trustworthiness	144	2.0	2	1.1100000000000003	1150.901354448637	0.516753645875724
139.0	434.9541562414088	face	0.0		147	trustworthiness	100	2.0	2		1151.4181080945127	1.233445653168019
139.0	436.1876018945768	rating	1.0		41	trustworthiness	100	2.0	2		1152.6515537476807	0.35003853164380416
139.0	436.5376404262206	fix	2.0		60	trustworthiness	100	2.0	2	-0.9900000000000002	1153.0015922793245	0.5167515328794252
140.0	437.05439195910003	face	0.0		147	trustworthiness	092	2.0	2		1153.518343812204	1.2334447476023342
140.0	438.28783670670236	rating	1.0		111	trustworthiness	092	2.0	2		1154.7517885598063	0.9334391029551625
140.0	439.2212758096575	fix	2.0		60	trustworthiness	092	2.0	2	0.6600000000000001	1155.6852276627615	0.5167503254779149
141.0	439.73802613513544	face	0.0		147	trustworthiness	033	2.0	2		1156.2019779882394	1.233446256868774
141.0	440.9714723920042	rating	1.0		73	trustworthiness	033	2.0	2		1157.4354242451082	0.616735504445387
141.0	441.5882078964496	fix	2.0		60	trustworthiness	033	2.0	2	1.7699999999999996	1158.0521597495535	0.516755758842919
142.0	442.1049636552925	face	0.0		147	trustworthiness	011	2.0	2		1158.5689155083965	1.233441427204525
142.0	443.33840508249705	rating	1.0		222	trustworthiness	011	2.0	2		1159.802356935601	1.858541001274716
142.0	445.19694608377176	fix	2.0		60	trustworthiness	011	2.0	2	1.37	1161.6608979368757	0.5167518347443547
143.0	445.7136979185161	face	0.0		147	trustworthiness	006	2.0	2		1162.17764977162	1.2334498791315127
143.0	446.94714779764763	rating	1.0		169	trustworthiness	006	2.0	2		1163.4110996507516	1.4168231024523266
143.0	448.36397090009996	fix	2.0		60	trustworthiness	006	2.0	2	-1.4700000000000002	1164.827922753204	0.5167527402809355
144.0	448.8807236403809	face	0.0		147	trustworthiness	070	2.0	2		1165.3446754934848	1.233446256897878
144.0	450.11416989727877	rating	1.0		69	trustworthiness	070	2.0	2		1166.5781217503827	0.5833969490195159
144.0	450.6975668462983	fix	2.0		60	trustworthiness	070	2.0	2	-2.08	1167.1615186994022	0.5167518347443547
145.0	451.21431868104264	face	0.0		147	trustworthiness	066	2.0	2		1167.6782705341466	1.2334465587337036
145.0	452.44776523977634	rating	1.0		99	trustworthiness	066	2.0	2		1168.9117170928803	0.8334237385715824
145.0	453.2811889783479	fix	2.0		60	trustworthiness	066	2.0	2	-2.8	1169.7451408314519	0.5167485143756494
146.0	453.7979374927236	face	0.0		147	trustworthiness	042	2.0	2		1170.2618893458275	1.2334492754016537
146.0	455.03138676812523	rating	1.0		57	trustworthiness	042	2.0	2		1171.4953386212292	0.48339728108840063
146.0	455.51478404921363	fix	2.0		60	trustworthiness	042	2.0	2	2.88	1171.9787359023176	0.5167418735509273
147.0	456.03152592276456	face	0.0		147	trustworthiness	124	2.0	2		1172.4954777758685	1.233448973565828
147.0	457.2649748963304	rating	1.0		309	trustworthiness	124	2.0	2		1173.7289267494343	2.583615793118952
147.0	459.84859068944934	fix	2.0		60	trustworthiness	124	2.0	2	1.67	1176.3125425425533	0.5167482125107199
148.0	460.36533890196006	face	0.0		147	trustworthiness	137	2.0	2		1176.829290755064	1.2334541050659027
148.0	461.59879300702596	rating	1.0		117	trustworthiness	137	2.0	2		1178.06274486013	0.9834399934043176
148.0	462.5822330004303	fix	2.0		60	trustworthiness	137	2.0	2	-1.4	1179.0461848535342	0.516753042145865
149.0	463.09898604257614	face	0.0		147	trustworthiness	101	2.0	2		1179.56293789568	1.2334562180622015
149.0	464.33244226063835	rating	1.0		351	trustworthiness	101	2.0	2		1180.7963941137423	2.975321934733074
149.0	467.3077641953714	fix	2.0		60	trustworthiness	101	2.0	2	0.29000000000000004	1183.7717160484754	0.516753645875724
150.0	467.82451784124714	face	0.0		147	trustworthiness	018	2.0	2		1184.288469694351	1.2334438420366496
150.0	469.0579616832838	rating	1.0		152	trustworthiness	018	2.0	2		1185.5219135363877	1.2751434485253412
150.0	470.33310513180913	fix	2.0		60	trustworthiness	018	2.0	2	2.09	1186.797056984913	0.51675515511306
151.0	470.8498602869222	face	0.0		147	trustworthiness	039	2.0	2		1187.3138121400261	1.2334426346351393
151.0	472.08330292155733	rating	1.0		74	trustworthiness	039	2.0	2		1188.5472547746613	0.6250718035153113
151.0	472.70837472507264	fix	2.0		60	trustworthiness	039	2.0	2	2.2300000000000004	1189.1723265781766	0.5167506273137406
152.0	473.2251253523864	face	0.0		147	trustworthiness	121	2.0	2		1189.6890772054903	1.233447766135214
152.0	474.4585731185216	rating	1.0		108	trustworthiness	121	2.0	2		1190.9225249716255	0.9084317150700372
152.0	475.36700483359164	fix	2.0		60	trustworthiness	121	2.0	2	-2.75	1191.8309566866956	0.5167500236129854
153.0	475.8837548572046	face	0.0		147	trustworthiness	087	2.0	2		1192.3477067103086	1.2334498791315127
153.0	477.11720473633613	rating	1.0		130	trustworthiness	087	2.0	2		1193.58115658944	1.091787732730154
153.0	478.2089924690663	fix	2.0		60	trustworthiness	087	2.0	2	-0.6000000000000001	1194.6729443221702	0.51675092917867
154.0	478.72574339824496	face	0.0		147	trustworthiness	043	2.0	2		1195.189695251349	1.2334465587337036
154.0	479.95918995697866	rating	1.0		216	trustworthiness	043	2.0	2		1196.4231418100826	1.808536790398648
154.0	481.7677267473773	fix	2.0		60	trustworthiness	043	2.0	2	1.2199999999999998	1198.2316786004812	0.5167485143465456
155.0	482.28447526172386	face	0.0		147	trustworthiness	141	2.0	2		1198.7484271148278	1.2334474642993882
155.0	483.51792272602324	rating	1.0		314	trustworthiness	141	2.0	2		1199.9818745791272	2.6252921568229795
155.0	486.1432148828462	fix	2.0		60	trustworthiness	141	2.0	2	0.4900000000000002	1202.6071667359502	0.5167539477406535
156.0	486.6599688305869	face	0.0		147	trustworthiness	130	2.0	2		1203.1239206836908	1.2334468605695292
156.0	487.8934156911564	rating	1.0		46	trustworthiness	130	2.0	2		1204.3573675442603	0.3917040286469273
156.0	488.28511971980333	fix	2.0		60	trustworthiness	130	2.0	2	-1.06	1204.7490715729073	0.51675515511306
157.0	488.8018748749164	face	0.0		147	trustworthiness	102	2.0	2		1205.2658267280203	1.233444143901579
157.0	490.035319018818	rating	1.0		195	trustworthiness	102	2.0	2		1206.499270871922	1.633517373673385
157.0	491.66883639249136	fix	2.0		60	trustworthiness	102	2.0	2	0.1200000000000001	1208.1327882455953	0.5167563625436742
158.0	492.18559275503503	face	0.0		147	trustworthiness	024	2.0	2		1208.649544608139	1.233443540200824
158.0	493.41903629523586	rating	1.0		197	trustworthiness	024	2.0	2		1209.8829881483398	1.6501818216929678
158.0	495.0692181169288	fix	2.0		60	trustworthiness	024	2.0	2	-0.5899999999999999	1211.5331699700328	0.5167584755108692
159.0	495.5859765924397	face	0.0		147	trustworthiness	082	2.0	2		1212.0499284455436	1.2334402198030148
159.0	496.8194168122427	rating	1.0		87	trustworthiness	082	2.0	2		1213.2833686653466	0.7334138075821102
159.0	497.5528306198248	fix	2.0		60	trustworthiness	082	2.0	2	1.75	1214.0167824729288	0.5000562957429793
160.0	498.0528869155678	cue	0.0		480						1214.5168387686717	4.0004518752975855
160.0	502.0533387908654	fix	1.0		120						1218.5172906439693	1.0168093379179481
160.0	503.07014812878333	face	0.0		147	attractiveness	064	2.0	2		1219.5340999818873	1.2334471624344587
160.0	504.3035952912178	rating	1.0		266	attractiveness	064	2.0	2		1220.7675471443217	2.2252476032008417
160.0	506.52884289441863	fix	2.0		60	attractiveness	064	2.0	2	0.5700000000000003	1222.9927947475226	0.5167503254779149
161.0	507.04559321989655	face	0.0		147	attractiveness	039	2.0	2		1223.5095450730005	1.2334480680001434
161.0	508.2790412878967	rating	1.0		124	attractiveness	039	2.0	2		1224.7429931410006	1.0417805033212062
161.0	509.3208217912179	fix	2.0		60	attractiveness	039	2.0	2	1.5199999999999996	1225.7847736443218	0.5167536458466202
162.0	509.8375754370645	face	0.0		147	attractiveness	082	2.0	2		1226.3015272901685	1.233444143901579
162.0	511.0710195809661	rating	1.0		158	attractiveness	082	2.0	2		1227.53497143407	1.3251482631021645
162.0	512.3961678440683	fix	2.0		60	attractiveness	082	2.0	2	2.0599999999999996	1228.8601196971722	0.5167548532772344
163.0	512.9129226973455	face	0.0		147	attractiveness	061	2.0	2		1229.3768745504494	1.233442936470965
163.0	514.1463656338165	rating	1.0		159	attractiveness	061	2.0	2		1230.6103174869204	1.333481845445931
163.0	515.4798474792624	fix	2.0		60	attractiveness	061	2.0	2	-1.6800000000000002	1231.9437993323663	0.5167539477406535
164.0	515.996601427003	face	0.0		147	attractiveness	136	2.0	2		1232.460553280107	1.233442936470965
164.0	517.230044363474	rating	1.0		163	attractiveness	136	2.0	2		1233.693996216578	1.3668194953061175
164.0	518.5968638587801	fix	2.0		60	attractiveness	136	2.0	2	-1.58	1235.060815711884	0.5167527403100394
165.0	519.1136165990902	face	0.0		147	attractiveness	030	2.0	2		1235.577568452194	1.23344504943816
165.0	520.3470616485283	rating	1.0		73	attractiveness	030	2.0	2		1236.8110135016323	0.6167454656388145
165.0	520.9638071141671	fix	2.0		60	attractiveness	030	2.0	2	0.9400000000000004	1237.427758967271	0.5167412698501721
166.0	521.4805483840173	face	0.0		147	attractiveness	009	2.0	2		1237.9445002371212	1.2334474642993882
166.0	522.7139958483167	rating	1.0		72	attractiveness	009	2.0	2		1239.1779477014206	0.6084016202366911
166.0	523.3223974685534	fix	2.0		60	attractiveness	009	2.0	2	1.2199999999999998	1239.7863493216573	0.5167521365801804
167.0	523.8391496051336	face	0.0		147	attractiveness	102	2.0	2		1240.3031014582375	1.2334498791315127
167.0	525.0725994842651	rating	1.0		60	attractiveness	102	2.0	2		1241.536551337369	0.5083841428859159
167.0	525.580983627151	fix	2.0		60	attractiveness	102	2.0	2	-2.0300000000000002	1242.044935480255	0.5167512310435995
168.0	526.0977348581946	face	0.0		147	attractiveness	027	2.0	2		1242.5616867112985	1.2334498791315127
168.0	527.3311847373261	rating	1.0		125	attractiveness	027	2.0	2		1243.79513659043	1.0501113689679187
168.0	528.381296106294	fix	2.0		60	attractiveness	027	2.0	2	-0.43999999999999995	1244.845247959398	0.5167512310435995
169.0	528.8980473373376	face	0.0		147	attractiveness	044	2.0	2		1245.3619991904416	1.2334522939636372
169.0	530.1314996313013	rating	1.0		93	attractiveness	044	2.0	2		1246.5954514844052	0.7834153017611243
169.0	530.9149149330624	fix	2.0		60	attractiveness	044	2.0	2	1.5099999999999998	1247.3788667861663	0.5167506273137406
170.0	531.4316655603761	face	0.0		147	attractiveness	066	2.0	2		1247.89561741348	1.2334504828322679
170.0	532.6651160432084	rating	1.0		105	attractiveness	066	2.0	2		1249.1290678963123	0.8834285531484056
170.0	533.5485445963568	fix	2.0		60	attractiveness	066	2.0	2	1.2400000000000002	1250.0124964494607	0.5167545514414087
171.0	534.0652991477982	face	0.0		147	attractiveness	099	2.0	2		1250.5292510009021	1.2334459550038446
171.0	535.2987451028021	rating	1.0		123	attractiveness	099	2.0	2		1251.762696955906	1.0334445061162114
171.0	536.3321896089183	fix	2.0		60	attractiveness	099	2.0	2	1.2800000000000002	1252.7961414620222	0.5167545514414087
172.0	536.8489441603597	face	0.0		147	attractiveness	124	2.0	2		1253.3128960134636	1.2334525957994629
172.0	538.0823967561591	rating	1.0		126	attractiveness	124	2.0	2		1254.546348609263	1.0584437439392786
172.0	539.1408405000984	fix	2.0		60	attractiveness	124	2.0	2	1.5199999999999996	1255.6047923532024	0.5167497217771597
173.0	539.6575902218756	face	0.0		147	attractiveness	130	2.0	2		1256.1215420749795	1.233448369865073
173.0	540.8910385917407	rating	1.0		106	attractiveness	130	2.0	2		1257.3549904448446	0.8917639466235414
173.0	541.7828025383642	fix	2.0		60	attractiveness	130	2.0	2	-1.4700000000000002	1258.2467543914681	0.5167521365801804
174.0	542.2995546749444	face	0.0		147	attractiveness	121	2.0	2		1258.7635065280483	1.2334480680001434
174.0	543.5330027429445	rating	1.0		172	attractiveness	121	2.0	2		1259.9969545960485	1.4418241514067631
174.0	544.9748268943513	fix	2.0		60	attractiveness	121	2.0	2	-2.95	1261.4387787474552	0.516757871810114
175.0	545.4915847661614	face	0.0		147	attractiveness	024	2.0	2		1261.9555366192653	1.233442030934384
175.0	546.7250267970958	rating	1.0		104	attractiveness	024	2.0	2		1263.1889786501997	0.8750952726404648
175.0	547.6001220697362	fix	2.0		60	attractiveness	024	2.0	2	-0.6699999999999999	1264.0640739228402	0.5167593810765538
176.0	548.1168814508128	face	0.0		147	attractiveness	137	2.0	2		1264.5808333039167	1.2334429365000688
176.0	549.3503243873129	rating	1.0		74	attractiveness	137	2.0	2		1265.8142762404168	0.6250690867891535
176.0	549.975393474102	fix	2.0		60	attractiveness	137	2.0	2	-1.7200000000000002	1266.439345327206	0.5167497217771597
177.0	550.4921431958792	face	0.0		147	attractiveness	144	2.0	2		1266.9560950489831	1.2334468605695292
177.0	551.7255900564487	rating	1.0		80	attractiveness	144	2.0	2		1268.1895419095526	0.6750742032600101
177.0	552.4006642597087	fix	2.0		60	attractiveness	144	2.0	2	-1.44	1268.8646161128127	0.5167512310144957
178.0	552.9174154907232	face	0.0		147	attractiveness	070	2.0	2		1269.3813673438272	1.2334474642993882
178.0	554.1508629550226	rating	1.0		69	attractiveness	070	2.0	2		1270.6148148081265	0.5833954397821799
178.0	554.7342583948048	fix	2.0		60	attractiveness	070	2.0	2	-3.07	1271.1982102479087	0.5167524384451099
179.0	555.2510108332499	face	0.0		147	attractiveness	092	2.0	2		1271.7149626863538	1.2334507846680935
179.0	556.484461617918	rating	1.0		117	attractiveness	092	2.0	2		1272.948413471022	0.983436974871438
179.0	557.4678985927894	fix	2.0		60	attractiveness	092	2.0	2	-0.4900000000000002	1273.9318504458934	0.5167548533063382
180.0	557.9846534460958	face	0.0		147	attractiveness	043	2.0	2		1274.4486052991997	1.2334471624344587
180.0	559.2181006085302	rating	1.0		283	attractiveness	043	2.0	2		1275.6820524616342	2.366932086792076
180.0	561.5850326953223	fix	2.0		60	attractiveness	043	2.0	2	-0.54	1278.0489845484262	0.5167460995144211
181.0	562.1017787948367	face	0.0		147	attractiveness	101	2.0	2		1278.5657306479407	1.2334495772665832
181.0	563.3352283721033	rating	1.0		55	attractiveness	101	2.0	2		1279.7991802252072	0.4667144199484028
181.0	563.8019427920517	fix	2.0		60	attractiveness	101	2.0	2	1.08	1280.2658946451556	0.5167545514414087
182.0	564.3186973434931	face	0.0		147	attractiveness	091	2.0	2		1280.782649196597	1.2334471624344587
182.0	565.5521445059276	rating	1.0		60	attractiveness	091	2.0	2		1282.0160963590315	0.5083859540172853
182.0	566.0605304599449	fix	2.0		60	attractiveness	091	2.0	2	-1.87	1282.5244823130488	0.5167554569779895
183.0	566.5772859169228	face	0.0		147	attractiveness	141	2.0	2		1283.0412377700268	1.2334453513321932
183.0	567.810731268255	rating	1.0		81	attractiveness	141	2.0	2		1284.274683121359	0.6834092948411126
183.0	568.4941405630962	fix	2.0		60	attractiveness	141	2.0	2	-1.06	1284.9580924162	0.5167530421749689
184.0	569.0108936052711	face	0.0		147	attractiveness	042	2.0	2		1285.474845458375	1.2334444457374047
184.0	570.2443380510085	rating	1.0		91	attractiveness	042	2.0	2		1286.7082899041125	0.7667523630079813
184.0	571.0110904140165	fix	2.0		60	attractiveness	042	2.0	2	1.6900000000000004	1287.4750422671204	0.5167515328794252
185.0	571.5278419468959	face	0.0		147	attractiveness	018	2.0	2		1287.9917937999999	1.233446860598633
185.0	572.7612888074946	rating	1.0		139	attractiveness	018	2.0	2		1289.2252406605985	1.166794199933065
185.0	573.9280830074276	fix	2.0		60	attractiveness	018	2.0	2	1.75	1290.3920348605316	0.5167563625436742
186.0	574.4448393699713	face	0.0		147	attractiveness	006	2.0	2		1290.9087912230752	1.2334417290694546
186.0	575.6782810990408	rating	1.0		71	attractiveness	006	2.0	2		1292.1422329521447	0.6000647174660116
186.0	576.2783458165068	fix	2.0		60	attractiveness	006	2.0	2	-2.6	1292.7422976696107	0.5167518347443547
187.0	576.7950976512511	face	0.0		147	attractiveness	100	2.0	2		1293.259049504355	1.2334465587337036
187.0	578.0285442099848	rating	1.0		179	attractiveness	100	2.0	2		1294.4924960630888	1.5001685853931122
187.0	579.5287127953779	fix	2.0		60	attractiveness	100	2.0	2	-2.17	1295.9926646484819	0.5167533440107945
188.0	580.0454661393887	face	0.0		147	attractiveness	012	2.0	2		1296.5094179924927	1.233446860598633
188.0	581.2789129999874	rating	1.0		103	attractiveness	012	2.0	2		1297.7428648530913	0.8667598791362252
188.0	582.1456728791236	fix	2.0		60	attractiveness	012	2.0	2	1.7199999999999998	1298.6096247322275	0.5167548533063382
189.0	582.6624277324299	face	0.0		147	attractiveness	172	2.0	2		1299.1263795855339	1.2334432383358944
189.0	583.8958709707658	rating	1.0		472	attractiveness	172	2.0	2		1300.3598228238698	3.942107139417203
189.0	587.837978110183	fix	2.0		60	attractiveness	172	2.0	2	-1.19	1304.301929963287	0.5167545514123049
190.0	588.3547326615953	face	0.0		147	attractiveness	033	2.0	2		1304.8186845146993	1.2334471624344587
190.0	589.5881798240298	rating	1.0		89	attractiveness	033	2.0	2		1306.0521316771337	0.7500824815942906
190.0	590.3382623056241	fix	2.0		60	attractiveness	033	2.0	2	2.8499999999999996	1306.802214158728	0.5167494199122302
191.0	590.8550117255363	face	0.0		147	attractiveness	062	2.0	2		1307.3189635786403	1.2334453513030894
191.0	592.0884570768394	rating	1.0		215	attractiveness	062	2.0	2		1308.5524089299433	1.8002041135914624
191.0	593.8886611904309	fix	2.0		60	attractiveness	062	2.0	2	-1.94	1310.3526130435348	0.5167560607078485
192.0	594.4054172511387	face	0.0		147	attractiveness	005	2.0	2		1310.8693691042427	1.233441427204525
192.0	595.6388586783432	rating	1.0		91	attractiveness	005	2.0	2		1312.1028105314472	0.7667520611430518
192.0	596.4056107394863	fix	2.0		60	attractiveness	005	2.0	2	-2.9699999999999998	1312.8695625925902	0.5167548532772344
193.0	596.9223655927635	face	0.0		147	attractiveness	034	2.0	2		1313.3863174458675	1.2334432383358944
193.0	598.1558088310994	rating	1.0		78	attractiveness	034	2.0	2		1314.6197606842034	0.6584085477807093
193.0	598.8142173788801	fix	2.0		60	attractiveness	034	2.0	2	-1.6400000000000001	1315.278169231984	0.5167533440107945
194.0	599.3309707228909	face	0.0		147	attractiveness	117	2.0	2		1315.7949225759949	1.2334450494672637
194.0	600.5644157723582	rating	1.0		211	attractiveness	117	2.0	2		1317.0283676254621	1.766860124829691
194.0	602.3312758971879	fix	2.0		60	attractiveness	117	2.0	2	0.9299999999999997	1318.7952277502918	0.5167506273428444
195.0	602.8480265245307	face	0.0		147	attractiveness	038	2.0	2		1319.3119783776347	1.2334480680001434
195.0	604.0814745925309	rating	1.0		114	attractiveness	038	2.0	2		1320.5454264456348	0.9584407555812504
195.0	605.0399153481121	fix	2.0		60	attractiveness	038	2.0	2	-2.44	1321.503867201216	0.5167518347443547
196.0	605.5566671828565	face	0.0		147	attractiveness	126	2.0	2		1322.0206190359604	1.233444143901579
196.0	606.790111326758	rating	1.0		179	attractiveness	126	2.0	2		1323.254063179862	1.500170094659552
196.0	608.2902814214176	fix	2.0		60	attractiveness	126	2.0	2	-0.7400000000000002	1324.7542332745215	0.5167488162114751
197.0	608.8070302376291	face	0.0		147	attractiveness	011	2.0	2		1325.270982090733	1.2334474642702844
197.0	610.0404777018994	rating	1.0		92	attractiveness	011	2.0	2		1326.5044295550033	0.7750892657495569
197.0	610.8155669676489	fix	2.0		60	attractiveness	011	2.0	2	-1.21	1327.2795188207529	0.5167524384451099
198.0	611.332319406094	face	0.0		147	attractiveness	036	2.0	2		1327.796271259198	1.233443540200824
198.0	612.5657629462949	rating	1.0		177	attractiveness	036	2.0	2		1329.0297147993988	1.4834981002786662
198.0	614.0492610465735	fix	2.0		60	attractiveness	036	2.0	2	0.8300000000000001	1330.5132128996775	0.5167512310435995
199.0	614.5660122776171	face	0.0		147	attractiveness	087	2.0	2		1331.029964130721	1.233447766135214
199.0	615.7994600437523	rating	1.0		76	attractiveness	087	2.0	2		1332.2634118968563	0.6417362515348941
199.0	616.4411962952872	fix	2.0		60	attractiveness	087	2.0	2	-1.0299999999999998	1332.9051481483912	0.5000559939071536
200.0	616.9412522891944	cue	0.0		480						1333.4052041422983	4.000450667866971
200.0	620.9417029570614	fix	1.0		120						1337.4056548101653	1.0168072249216493
200.0	621.958510181983	face	0.0		147	dominance	018	2.0	2		1338.422462035087	1.2334459550329484
200.0	623.191956137016	rating	1.0		291	dominance	018	2.0	2		1339.6559079901199	2.433605575351976
200.0	625.6255617123679	fix	2.0		60	dominance	018	2.0	2	-1.9900000000000002	1342.0895135654719	0.5167527403100394
201.0	626.142314452678	face	0.0		147	dominance	039	2.0	2		1342.606266305782	1.233445653168019
201.0	627.375760105846	rating	1.0		108	dominance	039	2.0	2		1343.83971195895	0.9084305076685268
201.0	628.2841906135145	fix	2.0		60	dominance	039	2.0	2	-3.0	1344.7481424666184	0.5167575699451845
202.0	628.8009481834597	face	0.0		147	dominance	126	2.0	2		1345.2649000365636	1.2334429365000688
202.0	630.0343911199598	rating	1.0		225	dominance	126	2.0	2		1346.4983429730637	1.8835420502000488
202.0	631.9179331701598	fix	2.0		60	dominance	126	2.0	2	0.9199999999999999	1348.3818850232637	0.5167572681093588
203.0	632.4346904382692	face	0.0		147	dominance	034	2.0	2		1348.898642291373	1.2334447476023342
203.0	633.6681351858715	rating	1.0		170	dominance	034	2.0	2		1350.1320870389754	1.4251554773945827
203.0	635.0932906632661	fix	2.0		60	dominance	034	2.0	2	0.9500000000000002	1351.55724251637	0.5167527403100394
204.0	635.6100434035761	face	0.0		147	dominance	124	2.0	2		1352.07399525668	1.2334438420657534
204.0	636.8434872456419	rating	1.0		71	dominance	124	2.0	2		1353.3074390987458	0.6000680378638208
204.0	637.4435552835057	fix	2.0		60	dominance	124	2.0	2	2.0199999999999996	1353.9075071366096	0.5167539477115497
205.0	637.9603092312173	face	0.0		147	dominance	027	2.0	2		1354.4242610843212	1.2334471624344587
205.0	639.1937563936517	rating	1.0		121	dominance	027	2.0	2		1355.6577082467556	1.01677643583389
205.0	640.2105328294856	fix	2.0		60	dominance	027	2.0	2	-0.41999999999999993	1356.6744846825895	0.5167524384451099
206.0	640.7272852679307	face	0.0		147	dominance	092	2.0	2		1357.1912371210346	1.233446860598633
206.0	641.9607321285293	rating	1.0		82	dominance	092	2.0	2		1358.4246839816333	0.6917434809438419
206.0	642.6524756094732	fix	2.0		60	dominance	092	2.0	2	-1.0099999999999998	1359.1164274625771	0.5167527402809355
207.0	643.1692283497541	face	0.0		147	dominance	117	2.0	2		1359.633180202858	1.2334453513321932
207.0	644.4026737010863	rating	1.0		59	dominance	117	2.0	2		1360.8666255541903	0.5000526735093445
207.0	644.9027263745957	fix	2.0		60	dominance	117	2.0	2	0.9199999999999999	1361.3666782276996	0.5167587773757987
208.0	645.4194851519715	face	0.0		147	dominance	038	2.0	2		1361.8834370050754	1.2334420309052803
208.0	646.6529271828767	rating	1.0		91	dominance	038	2.0	2		1363.1168790359807	0.7667514574422967
208.0	647.419678640319	fix	2.0		60	dominance	038	2.0	2	-2.56	1363.883630493423	0.5167512310435995
209.0	647.9364298713626	face	0.0		147	dominance	130	2.0	2		1364.4003817244666	1.2334589347301517
209.0	649.1698888060928	rating	1.0		212	dominance	130	2.0	2		1365.6338406591967	1.7751852552755736
209.0	650.9450740613684	fix	2.0		60	dominance	130	2.0	2	0.05999999999999961	1367.4090259144723	0.5167530421749689
210.0	651.4618271035433	face	0.0		147	dominance	005	2.0	2		1367.9257789566473	1.2334465587337036
210.0	652.695273662277	rating	1.0		37	dominance	005	2.0	2		1369.159225515381	0.31669907068135217
210.0	653.0119727329584	fix	2.0		60	dominance	005	2.0	2	0.0	1369.4759245860623	0.5167494199122302
211.0	653.5287221528706	face	0.0		147	dominance	033	2.0	2		1369.9926740059745	1.2334525957994629
211.0	654.7621747486701	rating	1.0		343	dominance	033	2.0	2		1371.226126601774	2.866994721465744
211.0	657.6291694701358	fix	2.0		60	dominance	033	2.0	2	1.17	1374.0931213232398	0.516760588507168
212.0	658.145930058643	face	0.0		147	dominance	121	2.0	2		1374.609881911747	1.2334257308102679
212.0	659.3793557894533	rating	1.0		83	dominance	121	2.0	2		1375.8433076425572	0.700075855886098
212.0	660.0794316453394	fix	2.0		60	dominance	121	2.0	2	3.3099999999999996	1376.5433834984433	0.5167545514414087
213.0	660.5961861967808	face	0.0		147	dominance	082	2.0	2		1377.0601380498847	1.2334447476023342
213.0	661.8296309443831	rating	1.0		73	dominance	082	2.0	2		1378.293582797487	0.6167327877483331
213.0	662.4463637321314	fix	2.0		60	dominance	082	2.0	2	-1.9	1378.9103155852354	0.5167554570070934
214.0	662.9631191891385	face	0.0		147	dominance	061	2.0	2		1379.4270710422425	1.2334631606936455
214.0	664.1965823498322	rating	1.0		155	dominance	061	2.0	2		1380.660534202936	1.300124575092923
214.0	665.4967069249251	fix	2.0		60	dominance	061	2.0	2	0.5	1381.960658778029	0.5167524384451099
215.0	666.0134593633702	face	0.0		147	dominance	006	2.0	2		1382.4774112164741	1.2334465587337036
215.0	667.2469059221039	rating	1.0		83	dominance	006	2.0	2		1383.7108577752078	0.7000779688823968
215.0	667.9469838909863	fix	2.0		60	dominance	006	2.0	2	3.0300000000000002	1384.4109357440902	0.5167521365801804
216.0	668.4637360275665	face	0.0		147	dominance	144	2.0	2		1384.9276878806704	1.233446256868774
216.0	669.6971822844353	rating	1.0		104	dominance	144	2.0	2		1386.1611341375392	0.8750988949032035
216.0	670.5722811793385	fix	2.0		60	dominance	144	2.0	2	2.2300000000000004	1387.0362330324424	0.5167500236129854
217.0	671.0890312029514	face	0.0		147	dominance	136	2.0	2		1387.5529830560554	1.2334474642993882
217.0	672.3224786672508	rating	1.0		77	dominance	136	2.0	2		1388.7864305203548	0.6500716450100299
217.0	672.9725503122609	fix	2.0		60	dominance	136	2.0	2	1.2699999999999996	1389.4365021653648	0.5167494199122302
218.0	673.4892997321731	face	0.0		147	dominance	070	2.0	2		1389.953251585277	1.2334495772665832
218.0	674.7227493094397	rating	1.0		73	dominance	070	2.0	2		1391.1867011625436	0.6167333914781921
218.0	675.3394827009179	fix	2.0		60	dominance	070	2.0	2	1.54	1391.8034345540218	0.5167497217771597
219.0	675.856232422695	face	0.0		147	dominance	036	2.0	2		1392.320184275799	1.2334507846680935
219.0	677.0896832073631	rating	1.0		58	dominance	036	2.0	2		1393.553635060467	0.4917181855707895
219.0	677.5814013929339	fix	2.0		60	dominance	036	2.0	2	-2.2800000000000002	1394.0453532460378	0.5167509292077739
220.0	678.0981523221417	face	0.0		147	dominance	011	2.0	2		1394.5621041752456	1.2334471624344587
220.0	679.3315994845761	rating	1.0		128	dominance	011	2.0	2		1395.79555133768	1.075121473550098
220.0	680.4067209581262	fix	2.0		60	dominance	011	2.0	2	2.13	1396.8706728112302	0.5167485143465456
221.0	680.9234694724728	face	0.0		147	dominance	102	2.0	2		1397.3874213255767	1.2334438420366496
221.0	682.1569133145094	rating	1.0		117	dominance	102	2.0	2		1398.6208651676134	0.9834424082364421
221.0	683.1403557227459	fix	2.0		60	dominance	102	2.0	2	-1.65	1399.6043075758498	0.5167500236420892
222.0	683.657105746388	face	0.0		147	dominance	091	2.0	2		1400.121057599492	1.233455916197272
222.0	684.8905616625852	rating	1.0		101	dominance	091	2.0	2		1401.3545135156892	0.850090299587464
222.0	685.7406519621727	fix	2.0		60	dominance	091	2.0	2	-3.31	1402.2046038152766	0.5167560606787447
223.0	686.2574080228515	face	0.0		147	dominance	100	2.0	2		1402.7213598759554	1.233439917967189
223.0	687.4908479408186	rating	1.0		96	dominance	100	2.0	2		1403.9547997939226	0.8084220859163906
223.0	688.299270026735	fix	2.0		60	dominance	100	2.0	2	2.74	1404.763221879839	0.5167512310435995
224.0	688.8160212577786	face	0.0		147	dominance	044	2.0	2		1405.2799731108826	1.2334507846680935
224.0	690.0494720424467	rating	1.0		223	dominance	044	2.0	2		1406.5134238955507	1.8668712632497773
224.0	691.9163433056965	fix	2.0		60	dominance	044	2.0	2	-0.6499999999999999	1408.3802951588004	0.516753645875724
225.0	692.4330969515722	face	0.0		147	dominance	066	2.0	2		1408.8970488046762	1.2334468605695292
225.0	693.6665438121418	rating	1.0		106	dominance	066	2.0	2		1410.1304956652457	0.8917663614556659
225.0	694.5583101735974	fix	2.0		60	dominance	066	2.0	2	3.5700000000000003	1411.0222620267014	0.5167527403100394
226.0	695.0750629139075	face	0.0		147	dominance	042	2.0	2		1411.5390147670114	1.2334465587337036
226.0	696.3085094726412	rating	1.0		162	dominance	042	2.0	2		1412.772461325745	1.3584834981011227
226.0	697.6669929707423	fix	2.0		60	dominance	042	2.0	2	-3.56	1414.1309448238462	0.5167515328794252
227.0	698.1837445036217	face	0.0		147	dominance	172	2.0	2		1414.6476963567256	1.2334447476023342
227.0	699.417189251224	rating	1.0		338	dominance	172	2.0	2		1415.881141104328	2.8253147355280817
227.0	702.2425039867521	fix	2.0		60	dominance	172	2.0	2	0.9800000000000004	1418.706455839856	0.5167560606787447
228.0	702.7592600474309	face	0.0		147	dominance	137	2.0	2		1419.2232119005348	1.2334423327993136
228.0	703.9927023802302	rating	1.0		220	dominance	137	2.0	2		1420.4566542333341	1.8418720253976062
228.0	705.8345744056278	fix	2.0		60	dominance	137	2.0	2	-0.04999999999999982	1422.2985262587317	0.5167732663685456
229.0	706.3513476719963	face	0.0		147	dominance	009	2.0	2		1422.8152995251003	1.2334299567737617
229.0	707.5847776287701	rating	1.0		203	dominance	009	2.0	2		1424.048729481874	1.7001996159960981
229.0	709.2849772447662	fix	2.0		60	dominance	009	2.0	2	-1.6	1425.7489290978701	0.5167445902479813
230.0	709.8017218350142	face	0.0		147	dominance	087	2.0	2		1426.265673688118	1.2334405216388404
230.0	711.035162356653	rating	1.0		273	dominance	087	2.0	2		1427.499114209757	2.2835856982856058
230.0	713.3187480549386	fix	2.0		60	dominance	087	2.0	2	-1.6	1429.7826999080426	0.516753645875724
231.0	713.8355017008143	face	0.0		147	dominance	043	2.0	2		1430.2994535539183	1.2334468605695292
231.0	715.0689485613839	rating	1.0		811	dominance	043	2.0	2		1431.5329004144878	6.767426704609534
231.0	721.8363752659934	fix	2.0		60	dominance	043	2.0	2	-2.41	1438.3003271190973	0.51675092917867
232.0	722.3531261951721	face	0.0		147	dominance	012	2.0	2		1438.817078048276	1.233447766135214
232.0	723.5865739613073	rating	1.0		54	dominance	012	2.0	2		1440.0505258144112	0.45837932830909267
232.0	724.0449532896164	fix	2.0		60	dominance	012	2.0	2	1.2599999999999998	1440.5089051427203	0.516756362572778
233.0	724.5617096521892	face	0.0		147	dominance	141	2.0	2		1441.025661505293	1.233444143901579
233.0	725.7951537960907	rating	1.0		91	dominance	141	2.0	2		1442.2591056491947	0.7667505518475082
233.0	726.5619043479383	fix	2.0		60	dominance	141	2.0	2	-1.0699999999999998	1443.0258562010422	0.5167464013793506
234.0	727.0786507493176	face	0.0		147	dominance	062	2.0	2		1443.5426026024215	1.2334535013651475
234.0	728.3121042506828	rating	1.0		91	dominance	062	2.0	2		1444.7760561037867	0.7667529667087365
234.0	729.0788572173915	fix	2.0		60	dominance	062	2.0	2	3.5199999999999996	1445.5428090704954	0.5167506273137406
235.0	729.5956078447052	face	0.0		147	dominance	030	2.0	2		1446.0595596978092	1.2334465587337036
235.0	730.8290544034389	rating	1.0		257	dominance	030	2.0	2		1447.2930062565429	2.150238721165806
235.0	732.9792931246047	fix	2.0		60	dominance	030	2.0	2	-1.37	1449.4432449777087	0.5167515328794252
236.0	733.4960446574842	face	0.0		147	dominance	099	2.0	2		1449.959996510588	1.2334507846971974
236.0	734.7294954421814	rating	1.0		89	dominance	099	2.0	2		1451.1934472952853	0.7500791611673776
236.0	735.4795746033487	fix	2.0		60	dominance	099	2.0	2	-2.91	1451.9435264564527	0.5167515328794252
237.0	735.9963261362282	face	0.0		147	dominance	101	2.0	2		1452.460277989332	1.233448369865073
237.0	737.2297745060932	rating	1.0		70	dominance	101	2.0	2		1453.6937263591972	0.5917296258558054
237.0	737.821504131949	fix	2.0		60	dominance	101	2.0	2	-1.04	1454.285455985053	0.5167512310144957
238.0	738.3382553629635	face	0.0		147	dominance	064	2.0	2		1454.8022072160675	1.2334471624344587
238.0	739.571702525398	rating	1.0		58	dominance	064	2.0	2		1456.035654378502	0.4917215059977025
238.0	740.0634240313957	fix	2.0		60	dominance	064	2.0	2	1.1500000000000004	1456.5273758844996	0.5167593810765538
239.0	740.5801834124723	face	0.0		147	dominance	024	2.0	2		1457.0441352655762	1.2334368994052056
239.0	741.8136203118775	rating	1.0		100	dominance	024	2.0	2		1458.2775721649814	0.8417570190795232
239.0	742.655377330957	fix	2.0		60	dominance	024	2.0	2	1.0099999999999998	1459.119329184061	0.5000593143049628
