trial_nr	onset	event_type	phase	response	nr_frames	face_age	face_sex	face_eth	attractiveness	expression	face_id	sub_id	ses	run	trial_type	catch	rating_type	onset_abs	duration
-1.0	0.056216856151991124	fix	0.0		714													32.69655448872743	5.965284988795133
-1.0	0.7050339407491037	pulse	0.0	t														33.34537157332454	
-1.0	1.4050211420319556	pulse	0.0	t														34.045358774607394	
-1.0	2.1050017024708723	pulse	0.0	t														34.74533933504631	
-1.0	2.8049964501670956	pulse	0.0	t														35.445334082742534	
-1.0	3.5049872737282612	pulse	0.0	t														36.1453249063037	
-1.0	4.204969343449875	pulse	0.0	t														36.84530697602531	
-1.0	4.9049577521587935	pulse	0.0	t														37.54529538473423	
-1.0	5.604951594285467	pulse	0.0	t														38.245289226860905	
0.0	6.0215018449471245	face	0.0		144	28.0	female	white	5.676880222841227	neutral	124	sub-06	2.0	2.0	124_neutral	0.0		38.66183947752256	1.2333251429591883
0.0	6.304954492108209	pulse	0.0	t		28.0	female	white	5.676880222841227	neutral	124	sub-06	2.0	2.0	124_neutral	0.0		38.94529212468365	
0.0	7.004929619129484	pulse	0.0	t		28.0	female	white	5.676880222841227	neutral	124	sub-06	2.0	2.0	124_neutral	0.0		39.64526725170492	
0.0	7.254826987906313	fix	1.0		445	28.0	female	white	5.676880222841227	neutral	124	sub-06	2.0	2.0	124_neutral	0.0		39.89516462048175	3.7582464187740925
0.0	7.704899916446038	pulse	1.0	t		28.0	female	white	5.676880222841227	neutral	124	sub-06	2.0	2.0	124_neutral	0.0		40.345237549021476	
0.0	8.404907342116871	pulse	1.0	t		28.0	female	white	5.676880222841227	neutral	124	sub-06	2.0	2.0	124_neutral	0.0		41.04524497469231	
0.0	9.104903599095792	pulse	1.0	t		28.0	female	white	5.676880222841227	neutral	124	sub-06	2.0	2.0	124_neutral	0.0		41.74524123167123	
0.0	9.804893818944038	pulse	1.0	t		28.0	female	white	5.676880222841227	neutral	124	sub-06	2.0	2.0	124_neutral	0.0		42.445231451519476	
0.0	10.504878303517899	pulse	1.0	t		28.0	female	white	5.676880222841227	neutral	124	sub-06	2.0	2.0	124_neutral	0.0		43.14521593609334	
1.0	11.013073406680405	face	0.0		146	23.0	male	white	2.6275368085953046	smiling	141	sub-06	2.0	2.0	141_smiling	1.0	attractiveness	43.65341103925584	1.2416648354036397
1.0	11.204880899484124	pulse	0.0	t		23.0	male	white	2.6275368085953046	smiling	141	sub-06	2.0	2.0	141_smiling	1.0	attractiveness	43.84521853205956	
1.0	11.904874439754167	pulse	0.0	t		23.0	male	white	2.6275368085953046	smiling	141	sub-06	2.0	2.0	141_smiling	1.0	attractiveness	44.545212072329605	
1.0	12.254738242084045	fix	1.0		177	23.0	male	white	2.6275368085953046	smiling	141	sub-06	2.0	2.0	141_smiling	1.0	attractiveness	44.89507587465948	1.508359614975916
1.0	12.604861641037019	pulse	1.0	t		23.0	male	white	2.6275368085953046	smiling	141	sub-06	2.0	2.0	141_smiling	1.0	attractiveness	45.24519927361246	
1.0	13.30483465506245	pulse	1.0	t		23.0	male	white	2.6275368085953046	smiling	141	sub-06	2.0	2.0	141_smiling	1.0	attractiveness	45.94517228763789	
1.0	13.763097857059961	rating	2.0		293	23.0	male	white	2.6275368085953046	smiling	141	sub-06	2.0	2.0	141_smiling	1.0	attractiveness	46.4034354896354	2.491579711859913
1.0	13.999793228271074	pulse	2.0	t		23.0	male	white	2.6275368085953046	smiling	141	sub-06	2.0	2.0	141_smiling	1.0	attractiveness	46.64013086084651	
1.0	14.699578487529607	pulse	2.0	t		23.0	male	white	2.6275368085953046	smiling	141	sub-06	2.0	2.0	141_smiling	1.0	attractiveness	47.339916120105045	
1.0	15.23814367888258	response	2.0	b		23.0	male	white	2.6275368085953046	smiling	141	sub-06	2.0	2.0	141_smiling	1.0	attractiveness	47.87848131145802	
1.0	15.399554821977063	pulse	2.0	t		23.0	male	white	2.6275368085953046	smiling	141	sub-06	2.0	2.0	141_smiling	1.0	attractiveness	48.0398924545525	
1.0	16.104807005003522	pulse	2.0	t		23.0	male	white	2.6275368085953046	smiling	141	sub-06	2.0	2.0	141_smiling	1.0	attractiveness	48.74514463757896	
1.0	16.254677568919874	fix	3.0		444	23.0	male	white	2.6275368085953046	smiling	141	sub-06	2.0	2.0	141_smiling	1.0	attractiveness	48.89501520149531	3.7582615116009492
1.0	16.804799941560532	pulse	3.0	t		23.0	male	white	2.6275368085953046	smiling	141	sub-06	2.0	2.0	141_smiling	1.0	attractiveness	49.44513757413597	
1.0	17.504777483434054	pulse	3.0	t		23.0	male	white	2.6275368085953046	smiling	141	sub-06	2.0	2.0	141_smiling	1.0	attractiveness	50.14511511600949	
1.0	18.20477464598264	pulse	3.0	t		23.0	male	white	2.6275368085953046	smiling	141	sub-06	2.0	2.0	141_smiling	1.0	attractiveness	50.84511227855808	
1.0	18.90474886743425	pulse	3.0	t		23.0	male	white	2.6275368085953046	smiling	141	sub-06	2.0	2.0	141_smiling	1.0	attractiveness	51.54508650000969	
1.0	19.60474059656508	pulse	3.0	t		23.0	male	white	2.6275368085953046	smiling	141	sub-06	2.0	2.0	141_smiling	1.0	attractiveness	52.24507822914052	
2.0	20.012939080520823	face	0.0		146	28.0	male	white	3.9076800636689217	smiling	033	sub-06	2.0	2.0	033_smiling	0.0		52.65327671309626	1.2416772115217327
2.0	20.304731420126245	pulse	0.0	t		28.0	male	white	3.9076800636689217	smiling	033	sub-06	2.0	2.0	033_smiling	0.0		52.94506905270168	
2.0	21.004727677105166	pulse	0.0	t		28.0	male	white	3.9076800636689217	smiling	033	sub-06	2.0	2.0	033_smiling	0.0		53.645065309680604	
2.0	21.254616292042556	fix	1.0		445	28.0	male	white	3.9076800636689217	smiling	033	sub-06	2.0	2.0	033_smiling	0.0		53.894953924617994	3.7582379667909436
2.0	21.704710652396443	pulse	1.0	t		28.0	male	white	3.9076800636689217	smiling	033	sub-06	2.0	2.0	033_smiling	0.0		54.34504828497188	
2.0	22.40471053165379	pulse	1.0	t		28.0	male	white	3.9076800636689217	smiling	033	sub-06	2.0	2.0	033_smiling	0.0		55.04504816422923	
2.0	23.10469320508855	pulse	1.0	t		28.0	male	white	3.9076800636689217	smiling	033	sub-06	2.0	2.0	033_smiling	0.0		55.74503083766399	
2.0	23.804682217510504	pulse	1.0	t		28.0	male	white	3.9076800636689217	smiling	033	sub-06	2.0	2.0	033_smiling	0.0		56.44501985008594	
2.0	24.504670626219422	pulse	1.0	t		28.0	male	white	3.9076800636689217	smiling	033	sub-06	2.0	2.0	033_smiling	0.0		57.14500825879486	
3.0	25.0128542588335	face	0.0		146	22.0	male	black	2.767608436132113	smiling	044	sub-06	2.0	2.0	044_smiling	0.0		57.65319189140894	1.241688682070162
3.0	25.204670203620253	pulse	0.0	t		22.0	male	black	2.767608436132113	smiling	044	sub-06	2.0	2.0	044_smiling	0.0		57.84500783619569	
3.0	25.904650462202653	pulse	0.0	t		22.0	male	black	2.767608436132113	smiling	044	sub-06	2.0	2.0	044_smiling	0.0		58.54498809477809	
3.0	26.25454294090366	fix	1.0		445	22.0	male	black	2.767608436132113	smiling	044	sub-06	2.0	2.0	044_smiling	0.0		58.8948805734791	3.766597279910343
3.0	26.604650341460115	pulse	1.0	t		22.0	male	black	2.767608436132113	smiling	044	sub-06	2.0	2.0	044_smiling	0.0		59.24498797403555	
3.0	27.304633618607795	pulse	1.0	t		22.0	male	black	2.767608436132113	smiling	044	sub-06	2.0	2.0	044_smiling	0.0		59.94497125118323	
3.0	28.0046202161775	pulse	1.0	t		22.0	male	black	2.767608436132113	smiling	044	sub-06	2.0	2.0	044_smiling	0.0		60.64495784875294	
3.0	28.704622812143725	pulse	1.0	t		22.0	male	black	2.767608436132113	smiling	044	sub-06	2.0	2.0	044_smiling	0.0		61.34496044471916	
3.0	29.404606693004553	pulse	1.0	t		22.0	male	black	2.767608436132113	smiling	044	sub-06	2.0	2.0	044_smiling	0.0		62.04494432557999	
4.0	30.021140220814004	face	0.0		145	24.0	male	white	3.1153999204138483	smiling	012	sub-06	2.0	2.0	012_smiling	0.0		62.66147785338944	1.2333121631281756
4.0	30.104599327705046	pulse	0.0	t		24.0	male	white	3.1153999204138483	smiling	012	sub-06	2.0	2.0	012_smiling	0.0		62.744936960280484	
4.0	30.8045868308443	pulse	0.0	t		24.0	male	white	3.1153999204138483	smiling	012	sub-06	2.0	2.0	012_smiling	0.0		63.44492446341974	
4.0	31.25445238394218	fix	1.0		444	24.0	male	white	3.1153999204138483	smiling	012	sub-06	2.0	2.0	012_smiling	0.0		63.89479001651762	3.7665990910495566
4.0	31.504566787570184	pulse	1.0	t		24.0	male	white	3.1153999204138483	smiling	012	sub-06	2.0	2.0	012_smiling	0.0		64.14490442014562	
4.0	32.20456696868405	pulse	1.0	t		24.0	male	white	3.1153999204138483	smiling	012	sub-06	2.0	2.0	012_smiling	0.0		64.84490460125949	
4.0	32.90454451055757	pulse	1.0	t		24.0	male	white	3.1153999204138483	smiling	012	sub-06	2.0	2.0	012_smiling	0.0		65.54488214313301	
4.0	33.60452476913997	pulse	1.0	t		24.0	male	white	3.1153999204138483	smiling	012	sub-06	2.0	2.0	012_smiling	0.0		66.24486240171541	
4.0	34.304531591097884	pulse	1.0	t		24.0	male	white	3.1153999204138483	smiling	012	sub-06	2.0	2.0	012_smiling	0.0		66.94486922367332	
5.0	35.02105147499174	face	0.0		146	34.0	male	white	2.651014723438122	smiling	121	sub-06	2.0	2.0	121_smiling	0.0		67.66138910756717	1.2333429524949224
5.0	35.00736529953815	pulse	0.0	t		34.0	male	white	2.651014723438122	smiling	121	sub-06	2.0	2.0	121_smiling	0.0		67.64770293211359	
5.0	35.70450418252403	pulse	0.0	t		34.0	male	white	2.651014723438122	smiling	121	sub-06	2.0	2.0	121_smiling	0.0		68.34484181509947	
5.0	36.25439442748666	fix	1.0		444	34.0	male	white	2.651014723438122	smiling	121	sub-06	2.0	2.0	121_smiling	0.0		68.8947320600621	3.7583994600390724
5.0	36.404501948785764	pulse	1.0	t		34.0	male	white	2.651014723438122	smiling	121	sub-06	2.0	2.0	121_smiling	0.0		69.0448395813612	
5.0	37.10447647209389	pulse	1.0	t		34.0	male	white	2.651014723438122	smiling	121	sub-06	2.0	2.0	121_smiling	0.0		69.74481410466933	
5.0	37.80447484206866	pulse	1.0	t		34.0	male	white	2.651014723438122	smiling	121	sub-06	2.0	2.0	121_smiling	0.0		70.4448124746441	
5.0	38.50446355263398	pulse	1.0	t		34.0	male	white	2.651014723438122	smiling	121	sub-06	2.0	2.0	121_smiling	0.0		71.14480118520942	
5.0	39.20445196134301	pulse	1.0	t		34.0	male	white	2.651014723438122	smiling	121	sub-06	2.0	2.0	121_smiling	0.0		71.84478959391845	
5.0	39.90444821832193	pulse	1.0	t		34.0	male	white	2.651014723438122	smiling	121	sub-06	2.0	2.0	121_smiling	0.0		72.54478585089737	
6.0	40.01279388752573	face	0.0		147	30.0	female	black	2.7345801830481498	neutral	062	sub-06	2.0	2.0	062_neutral	1.0	dominance	72.65313152010117	1.2415250758265302
6.0	40.604438438170064	pulse	0.0	t		30.0	female	black	2.7345801830481498	neutral	062	sub-06	2.0	2.0	062_neutral	1.0	dominance	73.2447760707455	
6.0	41.25431896335226	fix	1.0		176	30.0	female	black	2.7345801830481498	neutral	062	sub-06	2.0	2.0	062_neutral	1.0	dominance	73.8946565959277	1.4999954721517952
6.0	41.30442654502235	pulse	1.0	t		30.0	female	black	2.7345801830481498	neutral	062	sub-06	2.0	2.0	062_neutral	1.0	dominance	73.94476417759779	
6.0	42.00440740731801	pulse	1.0	t		30.0	female	black	2.7345801830481498	neutral	062	sub-06	2.0	2.0	062_neutral	1.0	dominance	74.64474503989345	
6.0	42.704416040415026	pulse	1.0	t		30.0	female	black	2.7345801830481498	neutral	062	sub-06	2.0	2.0	062_neutral	1.0	dominance	75.34475367299046	
6.0	42.75431443550406	rating	2.0		295	30.0	female	black	2.7345801830481498	neutral	062	sub-06	2.0	2.0	062_neutral	1.0	dominance	75.3946520680795	2.4999302711396467
6.0	43.3991455045109	pulse	2.0	t		30.0	female	black	2.7345801830481498	neutral	062	sub-06	2.0	2.0	062_neutral	1.0	dominance	76.03948313708634	
6.0	43.974254957691755	response	2.0	y		30.0	female	black	2.7345801830481498	neutral	062	sub-06	2.0	2.0	062_neutral	1.0	dominance	76.6145925902672	
6.0	44.09916319330409	pulse	2.0	t		30.0	female	black	2.7345801830481498	neutral	062	sub-06	2.0	2.0	062_neutral	1.0	dominance	76.73950082587953	
6.0	44.80436587185818	pulse	2.0	t		30.0	female	black	2.7345801830481498	neutral	062	sub-06	2.0	2.0	062_neutral	1.0	dominance	77.44470350443362	
6.0	45.2542447066437	fix	3.0		444	30.0	female	black	2.7345801830481498	neutral	062	sub-06	2.0	2.0	062_neutral	1.0	dominance	77.89458233921914	3.7666084486022555
6.0	45.50435488428025	pulse	3.0	t		30.0	female	black	2.7345801830481498	neutral	062	sub-06	2.0	2.0	062_neutral	1.0	dominance	78.14469251685568	
6.0	46.20435446168108	pulse	3.0	t		30.0	female	black	2.7345801830481498	neutral	062	sub-06	2.0	2.0	062_neutral	1.0	dominance	78.84469209425652	
6.0	46.90434407781618	pulse	3.0	t		30.0	female	black	2.7345801830481498	neutral	062	sub-06	2.0	2.0	062_neutral	1.0	dominance	79.54468171039161	
6.0	47.60431829926779	pulse	3.0	t		30.0	female	black	2.7345801830481498	neutral	062	sub-06	2.0	2.0	062_neutral	1.0	dominance	80.24465593184323	
6.0	48.304325121225475	pulse	3.0	t		30.0	female	black	2.7345801830481498	neutral	062	sub-06	2.0	2.0	062_neutral	1.0	dominance	80.94466275380091	
7.0	49.02085315524596	face	0.0		146	19.0	female	white	4.298846000795861	smiling	100	sub-06	2.0	2.0	100_smiling	0.0		81.6611907878214	1.2333332930857068
7.0	49.0072750444333	pulse	0.0	t		19.0	female	white	4.298846000795861	smiling	100	sub-06	2.0	2.0	100_smiling	0.0		81.64761267700874	
7.0	49.704304051639156	pulse	0.0	t		19.0	female	white	4.298846000795861	smiling	100	sub-06	2.0	2.0	100_smiling	0.0		82.3446416842146	
7.0	50.254186448331666	fix	1.0		444	19.0	female	white	4.298846000795861	smiling	100	sub-06	2.0	2.0	100_smiling	0.0		82.8945240809071	3.766581583370453
7.0	50.40428370650852	pulse	1.0	t		19.0	female	white	4.298846000795861	smiling	100	sub-06	2.0	2.0	100_smiling	0.0		83.04462133908396	
7.0	51.10427000222171	pulse	1.0	t		19.0	female	white	4.298846000795861	smiling	100	sub-06	2.0	2.0	100_smiling	0.0		83.74460763479715	
7.0	51.80427501304007	pulse	1.0	t		19.0	female	white	4.298846000795861	smiling	100	sub-06	2.0	2.0	100_smiling	0.0		84.4446126456155	
7.0	52.50424742335258	pulse	1.0	t		19.0	female	white	4.298846000795861	smiling	100	sub-06	2.0	2.0	100_smiling	0.0		85.14458505592802	
7.0	53.204250924888356	pulse	1.0	t		19.0	female	white	4.298846000795861	smiling	100	sub-06	2.0	2.0	100_smiling	0.0		85.8445885574638	
7.0	53.90422756119233	pulse	1.0	t		19.0	female	white	4.298846000795861	smiling	100	sub-06	2.0	2.0	100_smiling	0.0		86.54456519376777	
8.0	54.02076803170212	face	0.0		146	26.0	female	white	4.854755272582572	smiling	027	sub-06	2.0	2.0	027_smiling	0.0		86.66110566427756	1.2333263503853686
8.0	54.60423468500653	pulse	0.0	t		26.0	female	white	4.854755272582572	smiling	027	sub-06	2.0	2.0	027_smiling	0.0		87.24457231758197	
8.0	55.25409438208749	fix	1.0		444	26.0	female	white	4.854755272582572	smiling	027	sub-06	2.0	2.0	027_smiling	0.0		87.89443201466293	3.7666156931593378
8.0	55.30420769903208	pulse	1.0	t		26.0	female	white	4.854755272582572	smiling	027	sub-06	2.0	2.0	027_smiling	0.0		87.94454533160751	
8.0	56.00421452098976	pulse	1.0	t		26.0	female	white	4.854755272582572	smiling	027	sub-06	2.0	2.0	027_smiling	0.0		88.6445521535652	
8.0	56.704199609276884	pulse	1.0	t		26.0	female	white	4.854755272582572	smiling	027	sub-06	2.0	2.0	027_smiling	0.0		89.34453724185232	
8.0	57.404200997816815	pulse	1.0	t		26.0	female	white	4.854755272582572	smiling	027	sub-06	2.0	2.0	027_smiling	0.0		90.04453863039225	
8.0	58.10418487867787	pulse	1.0	t		26.0	female	white	4.854755272582572	smiling	027	sub-06	2.0	2.0	027_smiling	0.0		90.74452251125331	
8.0	58.804131933040935	pulse	1.0	t		26.0	female	white	4.854755272582572	smiling	027	sub-06	2.0	2.0	027_smiling	0.0		91.44446956561637	
9.0	59.020710075246825	face	0.0		145	24.0	female	east_asian	4.409868682849185	smiling	030	sub-06	2.0	2.0	030_smiling	0.0		91.66104770782226	1.2333103519888482
9.0	59.504166223943685	pulse	0.0	t		24.0	female	east_asian	4.409868682849185	smiling	030	sub-06	2.0	2.0	030_smiling	0.0		92.14450385651912	
9.0	60.20415433079597	pulse	0.0	t		24.0	female	east_asian	4.409868682849185	smiling	030	sub-06	2.0	2.0	030_smiling	0.0		92.84449196337141	
9.0	60.25402042723567	fix	1.0		445	24.0	female	east_asian	4.409868682849185	smiling	030	sub-06	2.0	2.0	030_smiling	0.0		92.89435805981111	3.7666135801634937
9.0	60.904138513513544	pulse	1.0	t		24.0	female	east_asian	4.409868682849185	smiling	030	sub-06	2.0	2.0	030_smiling	0.0		93.54447614608898	
9.0	61.604114546104256	pulse	1.0	t		24.0	female	east_asian	4.409868682849185	smiling	030	sub-06	2.0	2.0	030_smiling	0.0		94.2444521786797	
9.0	62.30411291607902	pulse	1.0	t		24.0	female	east_asian	4.409868682849185	smiling	030	sub-06	2.0	2.0	030_smiling	0.0		94.94445054865446	
9.0	63.00410826748839	pulse	1.0	t		24.0	female	east_asian	4.409868682849185	smiling	030	sub-06	2.0	2.0	030_smiling	0.0		95.64444590006383	
9.0	63.70408279079652	pulse	1.0	t		24.0	female	east_asian	4.409868682849185	smiling	030	sub-06	2.0	2.0	030_smiling	0.0		96.34442042337196	
10.0	64.02063400739917	face	0.0		145	31.0	female	west_asian	2.364902506963788	smiling	006	sub-06	2.0	2.0	006_smiling	1.0	trustworthiness	96.6609716399746	1.2333293689507627
10.0	64.40407542549701	pulse	0.0	t		31.0	female	west_asian	2.364902506963788	smiling	006	sub-06	2.0	2.0	006_smiling	1.0	trustworthiness	97.04441305807245	
10.0	65.10407047504964	pulse	0.0	t		31.0	female	west_asian	2.364902506963788	smiling	006	sub-06	2.0	2.0	006_smiling	1.0	trustworthiness	97.74440810762508	
10.0	65.25396337634993	fix	1.0		177	31.0	female	west_asian	2.364902506963788	smiling	006	sub-06	2.0	2.0	006_smiling	1.0	trustworthiness	97.89430100892537	1.4999773607594307
10.0	65.80406341160665	pulse	1.0	t		31.0	female	west_asian	2.364902506963788	smiling	006	sub-06	2.0	2.0	006_smiling	1.0	trustworthiness	98.44440104418209	
10.0	66.50404578318489	pulse	1.0	t		31.0	female	west_asian	2.364902506963788	smiling	006	sub-06	2.0	2.0	006_smiling	1.0	trustworthiness	99.14438341576033	
10.0	66.75394073710936	rating	2.0		295	31.0	female	west_asian	2.364902506963788	smiling	006	sub-06	2.0	2.0	006_smiling	1.0	trustworthiness	99.3942783696848	2.4999607586501043
10.0	67.19876951200649	pulse	2.0	t		31.0	female	west_asian	2.364902506963788	smiling	006	sub-06	2.0	2.0	006_smiling	1.0	trustworthiness	99.83910714458193	
10.0	67.89887564476544	pulse	2.0	t		31.0	female	west_asian	2.364902506963788	smiling	006	sub-06	2.0	2.0	006_smiling	1.0	trustworthiness	100.53921327734088	
10.0	68.16551790130006	response	2.0	b		31.0	female	west_asian	2.364902506963788	smiling	006	sub-06	2.0	2.0	006_smiling	1.0	trustworthiness	100.8058555338755	
10.0	68.60400467032423	pulse	2.0	t		31.0	female	west_asian	2.364902506963788	smiling	006	sub-06	2.0	2.0	006_smiling	1.0	trustworthiness	101.24434230289967	
10.0	69.25390149575946	fix	3.0		443	31.0	female	west_asian	2.364902506963788	smiling	006	sub-06	2.0	2.0	006_smiling	1.0	trustworthiness	101.8942391283349	3.7665785648050587
10.0	69.30401058671237	pulse	3.0	t		31.0	female	west_asian	2.364902506963788	smiling	006	sub-06	2.0	2.0	006_smiling	1.0	trustworthiness	101.9443482192878	
10.0	70.00400291955634	pulse	3.0	t		31.0	female	west_asian	2.364902506963788	smiling	006	sub-06	2.0	2.0	006_smiling	1.0	trustworthiness	102.64434055213178	
10.0	70.70398921526953	pulse	3.0	t		31.0	female	west_asian	2.364902506963788	smiling	006	sub-06	2.0	2.0	006_smiling	1.0	trustworthiness	103.34432684784497	
10.0	71.40397641655227	pulse	3.0	t		31.0	female	west_asian	2.364902506963788	smiling	006	sub-06	2.0	2.0	006_smiling	1.0	trustworthiness	104.0443140491277	
10.0	72.10396633454388	pulse	3.0	t		31.0	female	west_asian	2.364902506963788	smiling	006	sub-06	2.0	2.0	006_smiling	1.0	trustworthiness	104.74430396711932	
10.0	72.80395504510943	pulse	3.0	t		31.0	female	west_asian	2.364902506963788	smiling	006	sub-06	2.0	2.0	006_smiling	1.0	trustworthiness	105.44429267768487	
11.0	73.02048006056452	face	0.0		145	22.0	female	white	4.614007162753682	neutral	009	sub-06	2.0	2.0	009_neutral	0.0		105.66081769313996	1.233347782199644
11.0	73.50395371694071	pulse	0.0	t		22.0	female	white	4.614007162753682	neutral	009	sub-06	2.0	2.0	009_neutral	0.0		106.14429134951615	
11.0	74.20393005138794	pulse	0.0	t		22.0	female	white	4.614007162753682	neutral	009	sub-06	2.0	2.0	009_neutral	0.0		106.84426768396338	
11.0	74.25382784276417	fix	1.0		445	22.0	female	white	4.614007162753682	neutral	009	sub-06	2.0	2.0	009_neutral	0.0		106.8941654753396	3.7665936576318018
11.0	74.90392902507574	pulse	1.0	t		22.0	female	white	4.614007162753682	neutral	009	sub-06	2.0	2.0	009_neutral	0.0		107.54426665765118	
11.0	75.60392709319399	pulse	1.0	t		22.0	female	white	4.614007162753682	neutral	009	sub-06	2.0	2.0	009_neutral	0.0		108.24426472576943	
11.0	76.30388773110121	pulse	1.0	t		22.0	female	white	4.614007162753682	neutral	009	sub-06	2.0	2.0	009_neutral	0.0		108.94422536367665	
11.0	77.00389545862868	pulse	1.0	t		22.0	female	white	4.614007162753682	neutral	009	sub-06	2.0	2.0	009_neutral	0.0		109.64423309120411	
11.0	77.70386847265422	pulse	1.0	t		22.0	female	white	4.614007162753682	neutral	009	sub-06	2.0	2.0	009_neutral	0.0		110.34420610522966	
12.0	78.02042150039597	face	0.0		145	47.0	male	east_asian	2.171110226820533	neutral	024	sub-06	2.0	2.0	024_neutral	0.0		110.6607591329714	1.233316690976153
12.0	78.40399482980115	pulse	0.0	t		47.0	male	east_asian	2.171110226820533	neutral	024	sub-06	2.0	2.0	024_neutral	0.0		111.04433246237659	
12.0	79.10386611817307	pulse	0.0	t		47.0	male	east_asian	2.171110226820533	neutral	024	sub-06	2.0	2.0	024_neutral	0.0		111.74420375074851	
12.0	79.25373819137212	fix	1.0		445	47.0	male	east_asian	2.171110226820533	neutral	024	sub-06	2.0	2.0	024_neutral	0.0		111.89407582394756	3.7665942613450625
12.0	79.80384728232525	pulse	1.0	t		47.0	male	east_asian	2.171110226820533	neutral	024	sub-06	2.0	2.0	024_neutral	0.0		112.44418491490069	
12.0	80.50383387989496	pulse	1.0	t		47.0	male	east_asian	2.171110226820533	neutral	024	sub-06	2.0	2.0	024_neutral	0.0		113.1441715124704	
12.0	81.20381745889927	pulse	1.0	t		47.0	male	east_asian	2.171110226820533	neutral	024	sub-06	2.0	2.0	024_neutral	0.0		113.8441550914747	
12.0	81.90382307343089	pulse	1.0	t		47.0	male	east_asian	2.171110226820533	neutral	024	sub-06	2.0	2.0	024_neutral	0.0		114.54416070600632	
12.0	82.60380816171778	pulse	1.0	t		47.0	male	east_asian	2.171110226820533	neutral	024	sub-06	2.0	2.0	024_neutral	0.0		115.24414579429322	
13.0	83.02033245271718	face	0.0		145	20.0	male	black	2.609629924393156	neutral	043	sub-06	2.0	2.0	043_neutral	0.0		115.66067008529262	1.2333302745203127
13.0	83.30379355186142	pulse	0.0	t		20.0	male	black	2.609629924393156	neutral	043	sub-06	2.0	2.0	043_neutral	0.0		115.94413118443686	
13.0	84.00377864014831	pulse	0.0	t		20.0	male	black	2.609629924393156	neutral	043	sub-06	2.0	2.0	043_neutral	0.0		116.64411627272375	
13.0	84.2536627272375	fix	1.0		444	20.0	male	black	2.609629924393156	neutral	043	sub-06	2.0	2.0	043_neutral	0.0		116.89400035981294	3.766616296872371
13.0	84.70378666953229	pulse	1.0	t		20.0	male	black	2.609629924393156	neutral	043	sub-06	2.0	2.0	043_neutral	0.0		117.34412430210773	
13.0	85.40376541883188	pulse	1.0	t		20.0	male	black	2.609629924393156	neutral	043	sub-06	2.0	2.0	043_neutral	0.0		118.04410305140732	
13.0	86.10375865724541	pulse	1.0	t		20.0	male	black	2.609629924393156	neutral	043	sub-06	2.0	2.0	043_neutral	0.0		118.74409628982085	
13.0	86.80373801025826	pulse	1.0	t		20.0	male	black	2.609629924393156	neutral	043	sub-06	2.0	2.0	043_neutral	0.0		119.4440756428337	
13.0	87.50373336166763	pulse	1.0	t		20.0	male	black	2.609629924393156	neutral	043	sub-06	2.0	2.0	043_neutral	0.0		120.14407099424307	
14.0	88.02027902410987	face	0.0		145	20.0	female	white	3.9502586549940313	smiling	091	sub-06	2.0	2.0	091_smiling	0.0		120.6606166566853	1.2333103519888482
14.0	88.20373233535543	pulse	0.0	t		20.0	female	white	3.9502586549940313	smiling	091	sub-06	2.0	2.0	091_smiling	0.0		120.84406996793086	
14.0	88.90371380136389	pulse	0.0	t		20.0	female	white	3.9502586549940313	smiling	091	sub-06	2.0	2.0	091_smiling	0.0		121.54405143393933	
14.0	89.25358937609872	fix	1.0		444	20.0	female	white	3.9502586549940313	smiling	091	sub-06	2.0	2.0	091_smiling	0.0		121.89392700867415	3.7665999966191066
14.0	89.60369798408124	pulse	1.0	t		20.0	female	white	3.9502586549940313	smiling	091	sub-06	2.0	2.0	091_smiling	0.0		122.24403561665667	
14.0	90.30368458165094	pulse	1.0	t		20.0	female	white	3.9502586549940313	smiling	091	sub-06	2.0	2.0	091_smiling	0.0		122.94402221422638	
14.0	91.00367721635143	pulse	1.0	t		20.0	female	white	3.9502586549940313	smiling	091	sub-06	2.0	2.0	091_smiling	0.0		123.64401484892687	
14.0	91.70367679375227	pulse	1.0	t		20.0	female	white	3.9502586549940313	smiling	091	sub-06	2.0	2.0	091_smiling	0.0		124.3440144263277	
14.0	92.40366580617433	pulse	1.0	t		20.0	female	white	3.9502586549940313	smiling	091	sub-06	2.0	2.0	091_smiling	0.0		125.04400343874977	
15.0	93.02018937271782	face	0.0		145	25.0	female	black	3.858336649423	neutral	126	sub-06	2.0	2.0	126_neutral	0.0		125.66052700529326	1.2333245392462686
15.0	93.10365753530505	pulse	0.0	t		25.0	female	black	3.858336649423	neutral	126	sub-06	2.0	2.0	126_neutral	0.0		125.74399516788048	
15.0	93.80363296418295	pulse	0.0	t		25.0	female	black	3.858336649423	neutral	126	sub-06	2.0	2.0	126_neutral	0.0		126.44397059675839	
15.0	94.25351391196409	fix	1.0		444	25.0	female	black	3.858336649423	neutral	126	sub-06	2.0	2.0	126_neutral	0.0		126.89385154453953	3.766607241176189
15.0	94.5036283155921	pulse	1.0	t		25.0	female	black	3.858336649423	neutral	126	sub-06	2.0	2.0	126_neutral	0.0		127.14396594816753	
15.0	95.20362366700147	pulse	1.0	t		25.0	female	black	3.858336649423	neutral	126	sub-06	2.0	2.0	126_neutral	0.0		127.8439612995769	
15.0	95.9036045292969	pulse	1.0	t		25.0	female	black	3.858336649423	neutral	126	sub-06	2.0	2.0	126_neutral	0.0		128.54394216187234	
15.0	96.60358750458818	pulse	1.0	t		25.0	female	black	3.858336649423	neutral	126	sub-06	2.0	2.0	126_neutral	0.0		129.24392513716361	
15.0	97.30358768570204	pulse	1.0	t		25.0	female	black	3.858336649423	neutral	126	sub-06	2.0	2.0	126_neutral	0.0		129.94392531827748	
16.0	98.02012115314028	face	0.0		146	30.0	female	black	2.7345801830481498	smiling	062	sub-06	2.0	2.0	062_smiling	0.0		130.66045878571572	1.2333338967987402
16.0	98.00621824469204	pulse	0.0	t		30.0	female	black	2.7345801830481498	smiling	062	sub-06	2.0	2.0	062_smiling	0.0		130.64655587726747	
16.0	98.70355906970235	pulse	0.0	t		30.0	female	black	2.7345801830481498	smiling	062	sub-06	2.0	2.0	062_smiling	0.0		131.3438967022778	
16.0	99.25345504993902	fix	1.0		443	30.0	female	black	2.7345801830481498	smiling	062	sub-06	2.0	2.0	062_smiling	0.0		131.89379268251446	3.766595468771129
16.0	99.40356498609049	pulse	1.0	t		30.0	female	black	2.7345801830481498	smiling	062	sub-06	2.0	2.0	062_smiling	0.0		132.04390261866592	
16.0	100.10354796138154	pulse	1.0	t		30.0	female	black	2.7345801830481498	smiling	062	sub-06	2.0	2.0	062_smiling	0.0		132.74388559395697	
16.0	100.80352852182045	pulse	1.0	t		30.0	female	black	2.7345801830481498	smiling	062	sub-06	2.0	2.0	062_smiling	0.0		133.4438661543959	
16.0	101.50352508065612	pulse	1.0	t		30.0	female	black	2.7345801830481498	smiling	062	sub-06	2.0	2.0	062_smiling	0.0		134.14386271323156	
16.0	102.20350896151695	pulse	1.0	t		30.0	female	black	2.7345801830481498	smiling	062	sub-06	2.0	2.0	062_smiling	0.0		134.84384659409238	
16.0	102.9035139723353	pulse	1.0	t		30.0	female	black	2.7345801830481498	smiling	062	sub-06	2.0	2.0	062_smiling	0.0		135.54385160491074	
17.0	103.02005051871015	face	0.0		146	31.0	male	west_asian	1.9538400318344609	smiling	070	sub-06	2.0	2.0	070_smiling	0.0		135.6603881512856	1.2333311800900901
17.0	103.60350389032692	pulse	0.0	t		31.0	male	west_asian	1.9538400318344609	smiling	070	sub-06	2.0	2.0	070_smiling	0.0		136.24384152290236	
17.0	104.25338169880024	fix	1.0		443	31.0	male	west_asian	1.9538400318344609	smiling	070	sub-06	2.0	2.0	070_smiling	0.0		136.89371933137568	3.766596676197196
17.0	104.30350799557596	pulse	1.0	t		31.0	male	west_asian	1.9538400318344609	smiling	070	sub-06	2.0	2.0	070_smiling	0.0		136.9438456281514	
17.0	105.00346863348341	pulse	1.0	t		31.0	male	west_asian	1.9538400318344609	smiling	070	sub-06	2.0	2.0	070_smiling	0.0		137.64380626605885	
17.0	105.703463079323	pulse	1.0	t		31.0	male	west_asian	1.9538400318344609	smiling	070	sub-06	2.0	2.0	070_smiling	0.0		138.34380071189844	
17.0	106.4034526954581	pulse	1.0	t		31.0	male	west_asian	1.9538400318344609	smiling	070	sub-06	2.0	2.0	070_smiling	0.0		139.04379032803354	
17.0	107.10344623572814	pulse	1.0	t		31.0	male	west_asian	1.9538400318344609	smiling	070	sub-06	2.0	2.0	070_smiling	0.0		139.74378386830358	
17.0	107.80343132401526	pulse	1.0	t		31.0	male	west_asian	1.9538400318344609	smiling	070	sub-06	2.0	2.0	070_smiling	0.0		140.4437689565907	
18.0	108.01997837499744	face	0.0		145	37.0	male	white	3.898925586947871	neutral	101	sub-06	2.0	2.0	101_neutral	0.0		140.66031600757287	1.233327255955146
18.0	108.50342878842025	pulse	0.0	t		37.0	male	white	3.898925586947871	neutral	101	sub-06	2.0	2.0	101_neutral	0.0		141.1437664209957	
18.0	109.2034256491122	pulse	0.0	t		37.0	male	white	3.898925586947871	neutral	101	sub-06	2.0	2.0	101_neutral	0.0		141.84376328168764	
18.0	109.25330563095258	fix	1.0		445	37.0	male	white	3.898925586947871	neutral	101	sub-06	2.0	2.0	101_neutral	0.0		141.89364326352802	3.7665785648050587
18.0	109.90341435967775	pulse	1.0	t		37.0	male	white	3.898925586947871	neutral	101	sub-06	2.0	2.0	101_neutral	0.0		142.5437519922532	
18.0	110.60337922357667	pulse	1.0	t		37.0	male	white	3.898925586947871	neutral	101	sub-06	2.0	2.0	101_neutral	0.0		143.2437168561521	
18.0	111.30336733042896	pulse	1.0	t		37.0	male	white	3.898925586947871	neutral	101	sub-06	2.0	2.0	101_neutral	0.0		143.9437049630044	
18.0	112.00337143567799	pulse	1.0	t		37.0	male	white	3.898925586947871	neutral	101	sub-06	2.0	2.0	101_neutral	0.0		144.64370906825343	
18.0	112.70335169426039	pulse	1.0	t		37.0	male	white	3.898925586947871	neutral	101	sub-06	2.0	2.0	101_neutral	0.0		145.34368932683583	
19.0	113.01988419575764	face	0.0		145	36.0	female	white	2.7548746518105847	neutral	011	sub-06	2.0	2.0	011_neutral	0.0		145.66022182833308	1.2333462729168332
19.0	113.40334553638695	pulse	0.0	t		36.0	female	white	2.7548746518105847	neutral	011	sub-06	2.0	2.0	011_neutral	0.0		146.0436831689624	
19.0	114.10334451007475	pulse	0.0	t		36.0	female	white	2.7548746518105847	neutral	011	sub-06	2.0	2.0	011_neutral	0.0		146.7436821426502	
19.0	114.25323046867447	fix	1.0		445	36.0	female	white	2.7548746518105847	neutral	011	sub-06	2.0	2.0	011_neutral	0.0		146.8935681012499	3.76659697805394
19.0	114.80332808907906	pulse	1.0	t		36.0	female	white	2.7548746518105847	neutral	011	sub-06	2.0	2.0	011_neutral	0.0		147.4436657216545	
19.0	115.50330532909607	pulse	1.0	t		36.0	female	white	2.7548746518105847	neutral	011	sub-06	2.0	2.0	011_neutral	0.0		148.1436429616715	
19.0	116.20329977493566	pulse	1.0	t		36.0	female	white	2.7548746518105847	neutral	011	sub-06	2.0	2.0	011_neutral	0.0		148.8436374075111	
19.0	116.90328818364469	pulse	1.0	t		36.0	female	white	2.7548746518105847	neutral	011	sub-06	2.0	2.0	011_neutral	0.0		149.54362581622013	
19.0	117.60328685547597	pulse	1.0	t		36.0	female	white	2.7548746518105847	neutral	011	sub-06	2.0	2.0	011_neutral	0.0		150.2436244880514	
20.0	118.01982744672841	face	0.0		145	25.0	female	west_asian	2.6756864305610826	neutral	064	sub-06	2.0	2.0	064_neutral	1.0	trustworthiness	150.66016507930385	1.2333133705542423
20.0	118.30327194376287	pulse	0.0	t		25.0	female	west_asian	2.6756864305610826	neutral	064	sub-06	2.0	2.0	064_neutral	1.0	trustworthiness	150.9436095763383	
20.0	119.00326095618493	pulse	0.0	t		25.0	female	west_asian	2.6756864305610826	neutral	064	sub-06	2.0	2.0	064_neutral	1.0	trustworthiness	151.64359858876037	
20.0	119.25314081728266	fix	1.0		177	25.0	female	west_asian	2.6756864305610826	neutral	064	sub-06	2.0	2.0	064_neutral	1.0	trustworthiness	151.8934784498581	1.4999957740083119
20.0	119.70324996860677	pulse	1.0	t		25.0	female	west_asian	2.6756864305610826	neutral	064	sub-06	2.0	2.0	064_neutral	1.0	trustworthiness	152.3435876011822	
20.0	120.4032447163031	pulse	1.0	t		25.0	female	west_asian	2.6756864305610826	neutral	064	sub-06	2.0	2.0	064_neutral	1.0	trustworthiness	153.04358234887854	
20.0	120.75313659129097	rating	2.0		294	25.0	female	west_asian	2.6756864305610826	neutral	064	sub-06	2.0	2.0	064_neutral	1.0	trustworthiness	153.3934742238664	2.4999441565405505
20.0	121.10324399184742	pulse	2.0	t		25.0	female	west_asian	2.6756864305610826	neutral	064	sub-06	2.0	2.0	064_neutral	1.0	trustworthiness	153.74358162442286	
20.0	121.79488727469425	response	2.0	y		25.0	female	west_asian	2.6756864305610826	neutral	064	sub-06	2.0	2.0	064_neutral	1.0	trustworthiness	154.43522490726968	
20.0	121.80622560999154	pulse	2.0	t		25.0	female	west_asian	2.6756864305610826	neutral	064	sub-06	2.0	2.0	064_neutral	1.0	trustworthiness	154.44656324256698	
20.0	122.50322080926526	pulse	2.0	t		25.0	female	west_asian	2.6756864305610826	neutral	064	sub-06	2.0	2.0	064_neutral	1.0	trustworthiness	155.1435584418407	
20.0	123.20319986042159	pulse	2.0	t		25.0	female	west_asian	2.6756864305610826	neutral	064	sub-06	2.0	2.0	064_neutral	1.0	trustworthiness	155.84353749299703	
20.0	123.25308074783152	fix	3.0		1185	25.0	female	west_asian	2.6756864305610826	neutral	064	sub-06	2.0	2.0	064_neutral	1.0	trustworthiness	155.89341838040696	10.016518495353694
20.0	123.9031976266831	pulse	3.0	t		25.0	female	west_asian	2.6756864305610826	neutral	064	sub-06	2.0	2.0	064_neutral	1.0	trustworthiness	156.54353525925853	
20.0	124.60317577226965	pulse	3.0	t		25.0	female	west_asian	2.6756864305610826	neutral	064	sub-06	2.0	2.0	064_neutral	1.0	trustworthiness	157.2435134048451	
20.0	125.30316478469172	pulse	3.0	t		25.0	female	west_asian	2.6756864305610826	neutral	064	sub-06	2.0	2.0	064_neutral	1.0	trustworthiness	157.94350241726715	
20.0	126.00315258968749	pulse	3.0	t		25.0	female	west_asian	2.6756864305610826	neutral	064	sub-06	2.0	2.0	064_neutral	1.0	trustworthiness	158.64349022226293	
20.0	126.70315729864956	pulse	3.0	t		25.0	female	west_asian	2.6756864305610826	neutral	064	sub-06	2.0	2.0	064_neutral	1.0	trustworthiness	159.343494931225	
20.0	127.40312487925735	pulse	3.0	t		25.0	female	west_asian	2.6756864305610826	neutral	064	sub-06	2.0	2.0	064_neutral	1.0	trustworthiness	160.0434625118328	
20.0	128.1031356253502	pulse	3.0	t		25.0	female	west_asian	2.6756864305610826	neutral	064	sub-06	2.0	2.0	064_neutral	1.0	trustworthiness	160.74347325792564	
20.0	128.80311860064126	pulse	3.0	t		25.0	female	west_asian	2.6756864305610826	neutral	064	sub-06	2.0	2.0	064_neutral	1.0	trustworthiness	161.4434562332167	
20.0	129.50311395205063	pulse	3.0	t		25.0	female	west_asian	2.6756864305610826	neutral	064	sub-06	2.0	2.0	064_neutral	1.0	trustworthiness	162.14345158462606	
20.0	130.20308696607617	pulse	3.0	t		25.0	female	west_asian	2.6756864305610826	neutral	064	sub-06	2.0	2.0	064_neutral	1.0	trustworthiness	162.8434245986516	
20.0	130.90307990263318	pulse	3.0	t		25.0	female	west_asian	2.6756864305610826	neutral	064	sub-06	2.0	2.0	064_neutral	1.0	trustworthiness	163.54341753520862	
20.0	131.603079480034	pulse	3.0	t		25.0	female	west_asian	2.6756864305610826	neutral	064	sub-06	2.0	2.0	064_neutral	1.0	trustworthiness	164.24341711260945	
20.0	132.30306637946023	pulse	3.0	t		25.0	female	west_asian	2.6756864305610826	neutral	064	sub-06	2.0	2.0	064_neutral	1.0	trustworthiness	164.94340401203567	
20.0	133.00306173086938	pulse	3.0	t		25.0	female	west_asian	2.6756864305610826	neutral	064	sub-06	2.0	2.0	064_neutral	1.0	trustworthiness	165.64339936344481	
21.0	133.2695992431852	face	0.0		145	40.0	male	black	2.408674890569041	smiling	061	sub-06	2.0	2.0	061_smiling	0.0		165.90993687576065	1.2333175965459304
21.0	133.70305496928313	pulse	0.0	t		40.0	male	black	2.408674890569041	smiling	061	sub-06	2.0	2.0	061_smiling	0.0		166.34339260185857	
21.0	134.40302949259126	pulse	0.0	t		40.0	male	black	2.408674890569041	smiling	061	sub-06	2.0	2.0	061_smiling	0.0		167.0433671251667	
21.0	134.50291683973114	fix	1.0		445	40.0	male	black	2.408674890569041	smiling	061	sub-06	2.0	2.0	061_smiling	0.0		167.14325447230658	3.7665761499524706
21.0	135.10303178670097	pulse	1.0	t		40.0	male	black	2.408674890569041	smiling	061	sub-06	2.0	2.0	061_smiling	0.0		167.7433694192764	
21.0	135.80301506384853	pulse	1.0	t		40.0	male	black	2.408674890569041	smiling	061	sub-06	2.0	2.0	061_smiling	0.0		168.44335269642397	
21.0	136.50301132082745	pulse	1.0	t		40.0	male	black	2.408674890569041	smiling	061	sub-06	2.0	2.0	061_smiling	0.0		169.1433489534029	
21.0	137.20299429611873	pulse	1.0	t		40.0	male	black	2.408674890569041	smiling	061	sub-06	2.0	2.0	061_smiling	0.0		169.84333192869417	
21.0	137.90297938440585	pulse	1.0	t		40.0	male	black	2.408674890569041	smiling	061	sub-06	2.0	2.0	061_smiling	0.0		170.5433170169813	
22.0	138.2694929896836	face	0.0		145	40.0	male	white	1.868682849184242	neutral	172	sub-06	2.0	2.0	172_neutral	0.0		170.90983062225905	1.2333465747735772
22.0	138.60297111353657	pulse	0.0	t		40.0	male	white	1.868682849184242	neutral	172	sub-06	2.0	2.0	172_neutral	0.0		171.243308746112	
22.0	139.30295227768875	pulse	0.0	t		40.0	male	white	1.868682849184242	neutral	172	sub-06	2.0	2.0	172_neutral	0.0		171.94328991026418	
22.0	139.5028395644572	fix	1.0		444	40.0	male	white	1.868682849184242	neutral	172	sub-06	2.0	2.0	172_neutral	0.0		172.14317719703263	3.7666117690241663
22.0	140.00294883652418	pulse	1.0	t		40.0	male	white	1.868682849184242	neutral	172	sub-06	2.0	2.0	172_neutral	0.0		172.64328646909962	
22.0	140.7029481120685	pulse	1.0	t		40.0	male	white	1.868682849184242	neutral	172	sub-06	2.0	2.0	172_neutral	0.0		173.34328574464394	
22.0	141.40292927622045	pulse	1.0	t		40.0	male	white	1.868682849184242	neutral	172	sub-06	2.0	2.0	172_neutral	0.0		174.04326690879589	
22.0	142.10293187218667	pulse	1.0	t		40.0	male	white	1.868682849184242	neutral	172	sub-06	2.0	2.0	172_neutral	0.0		174.7432695047621	
22.0	142.80290216950334	pulse	1.0	t		40.0	male	white	1.868682849184242	neutral	172	sub-06	2.0	2.0	172_neutral	0.0		175.44323980207878	
23.0	143.26945133348136	face	0.0		145	24.0	female	black	3.0955033824114606	smiling	099	sub-06	2.0	2.0	099_smiling	0.0		175.9097889660568	1.2333182002589638
23.0	143.502908387748	pulse	0.0	t		24.0	female	black	3.0955033824114606	smiling	099	sub-06	2.0	2.0	099_smiling	0.0		176.14324602032343	
23.0	144.20286842194218	pulse	0.0	t		24.0	female	black	3.0955033824114606	smiling	099	sub-06	2.0	2.0	099_smiling	0.0		176.84320605451762	
23.0	144.50276953374032	fix	1.0		444	24.0	female	black	3.0955033824114606	smiling	099	sub-06	2.0	2.0	099_smiling	0.0		177.14310716631576	3.7665906390664077
23.0	144.90288218660044	pulse	1.0	t		24.0	female	black	3.0955033824114606	smiling	099	sub-06	2.0	2.0	099_smiling	0.0		177.54321981917587	
23.0	145.60286938788317	pulse	1.0	t		24.0	female	black	3.0955033824114606	smiling	099	sub-06	2.0	2.0	099_smiling	0.0		178.2432070204586	
23.0	146.30285749473546	pulse	1.0	t		24.0	female	black	3.0955033824114606	smiling	099	sub-06	2.0	2.0	099_smiling	0.0		178.9431951273109	
23.0	147.00285073314922	pulse	1.0	t		24.0	female	black	3.0955033824114606	smiling	099	sub-06	2.0	2.0	099_smiling	0.0		179.64318836572465	
23.0	147.70289558903073	pulse	1.0	t		24.0	female	black	3.0955033824114606	smiling	099	sub-06	2.0	2.0	099_smiling	0.0		180.34323322160617	
24.0	148.26936017280673	face	0.0		145	26.0	male	white	2.7966573816155993	neutral	117	sub-06	2.0	2.0	117_neutral	1.0	attractiveness	180.90969780538217	1.2333438580646998
24.0	148.4028375118328	pulse	0.0	t		26.0	male	white	2.7966573816155993	neutral	117	sub-06	2.0	2.0	117_neutral	1.0	attractiveness	181.04317514440822	
24.0	149.10282229826316	pulse	0.0	t		26.0	male	white	2.7966573816155993	neutral	117	sub-06	2.0	2.0	117_neutral	1.0	attractiveness	181.7431599308386	
24.0	149.50270403087143	fix	1.0		177	26.0	male	white	2.7966573816155993	neutral	117	sub-06	2.0	2.0	117_neutral	1.0	attractiveness	182.14304166344687	1.4999797756120188
24.0	149.80280587726747	pulse	1.0	t		26.0	male	white	2.7966573816155993	neutral	117	sub-06	2.0	2.0	117_neutral	1.0	attractiveness	182.4431435098429	
24.0	150.50279368226325	pulse	1.0	t		26.0	male	white	2.7966573816155993	neutral	117	sub-06	2.0	2.0	117_neutral	1.0	attractiveness	183.14313131483868	
24.0	151.00268380648345	rating	2.0		294	26.0	male	white	2.7966573816155993	neutral	117	sub-06	2.0	2.0	117_neutral	1.0	attractiveness	183.64302143905888	2.499960758649877
24.0	151.20279446709037	pulse	2.0	t		26.0	male	white	2.7966573816155993	neutral	117	sub-06	2.0	2.0	117_neutral	1.0	attractiveness	183.8431320996658	
24.0	151.90278197022963	pulse	2.0	t		26.0	male	white	2.7966573816155993	neutral	117	sub-06	2.0	2.0	117_neutral	1.0	attractiveness	184.54311960280506	
24.0	152.60276856779933	pulse	2.0	t		26.0	male	white	2.7966573816155993	neutral	117	sub-06	2.0	2.0	117_neutral	1.0	attractiveness	185.24310620037477	
24.0	153.06943092797928	response	2.0	w		26.0	male	white	2.7966573816155993	neutral	117	sub-06	2.0	2.0	117_neutral	1.0	attractiveness	185.70976856055472	
24.0	153.30276301363892	pulse	2.0	t		26.0	male	white	2.7966573816155993	neutral	117	sub-06	2.0	2.0	117_neutral	1.0	attractiveness	185.94310064621436	
24.0	153.50264456513332	fix	3.0		444	26.0	male	white	2.7966573816155993	neutral	117	sub-06	2.0	2.0	117_neutral	1.0	attractiveness	186.14298219770876	3.7666024114714673
24.0	154.00274810192604	pulse	3.0	t		26.0	male	white	2.7966573816155993	neutral	117	sub-06	2.0	2.0	117_neutral	1.0	attractiveness	186.64308573450148	
24.0	154.70273620877833	pulse	3.0	t		26.0	male	white	2.7966573816155993	neutral	117	sub-06	2.0	2.0	117_neutral	1.0	attractiveness	187.34307384135377	
24.0	155.40271616550422	pulse	3.0	t		26.0	male	white	2.7966573816155993	neutral	117	sub-06	2.0	2.0	117_neutral	1.0	attractiveness	188.04305379807965	
24.0	156.1027148373355	pulse	3.0	t		26.0	male	white	2.7966573816155993	neutral	117	sub-06	2.0	2.0	117_neutral	1.0	attractiveness	188.74305246991094	
24.0	156.8027044534706	pulse	3.0	t		26.0	male	white	2.7966573816155993	neutral	117	sub-06	2.0	2.0	117_neutral	1.0	attractiveness	189.44304208604603	
25.0	157.2692469766048	face	0.0		145	21.0	male	east_asian/white	3.501790688420215	neutral	036	sub-06	2.0	2.0	036_neutral	0.0		189.90958460918023	1.2333227281069412
25.0	157.50269980487997	pulse	0.0	t		21.0	male	east_asian/white	3.501790688420215	neutral	036	sub-06	2.0	2.0	036_neutral	0.0		190.1430374374554	
25.0	158.2026824783145	pulse	0.0	t		21.0	male	east_asian/white	3.501790688420215	neutral	036	sub-06	2.0	2.0	036_neutral	0.0		190.84302011088994	
25.0	158.50256970471173	fix	1.0		444	21.0	male	east_asian/white	3.501790688420215	neutral	036	sub-06	2.0	2.0	036_neutral	0.0		191.14290733728717	3.7666006003323673
25.0	158.9026763204413	pulse	1.0	t		21.0	male	east_asian/white	3.501790688420215	neutral	036	sub-06	2.0	2.0	036_neutral	0.0		191.54301395301673	
25.0	159.60266593657616	pulse	1.0	t		21.0	male	east_asian/white	3.501790688420215	neutral	036	sub-06	2.0	2.0	036_neutral	0.0		192.2430035691516	
25.0	160.3026483081544	pulse	1.0	t		21.0	male	east_asian/white	3.501790688420215	neutral	036	sub-06	2.0	2.0	036_neutral	0.0		192.94298594072984	
25.0	161.00264184842445	pulse	1.0	t		21.0	male	east_asian/white	3.501790688420215	neutral	036	sub-06	2.0	2.0	036_neutral	0.0		193.64297948099988	
25.0	161.70263418126842	pulse	1.0	t		21.0	male	east_asian/white	3.501790688420215	neutral	036	sub-06	2.0	2.0	036_neutral	0.0		194.34297181384386	
26.0	162.2691703050441	face	0.0		145	54.0	female	white	2.286908077994429	neutral	136	sub-06	2.0	2.0	136_neutral	0.0		194.90950793761954	1.2333263503853686
26.0	162.40262289183397	pulse	0.0	t		54.0	female	white	2.286908077994429	neutral	136	sub-06	2.0	2.0	136_neutral	0.0		195.0429605244094	
26.0	163.10261884695637	pulse	0.0	t		54.0	female	white	2.286908077994429	neutral	136	sub-06	2.0	2.0	136_neutral	0.0		195.7429564795318	
26.0	163.50249665542947	fix	1.0		444	54.0	female	white	2.286908077994429	neutral	136	sub-06	2.0	2.0	136_neutral	0.0		196.1428342880049	3.7582542670440944
26.0	163.8025948795471	pulse	1.0	t		54.0	female	white	2.286908077994429	neutral	136	sub-06	2.0	2.0	136_neutral	0.0		196.44293251212252	
26.0	164.50258328825612	pulse	1.0	t		54.0	female	white	2.286908077994429	neutral	136	sub-06	2.0	2.0	136_neutral	0.0		197.14292092083156	
26.0	165.20257531924335	pulse	1.0	t		54.0	female	white	2.286908077994429	neutral	136	sub-06	2.0	2.0	136_neutral	0.0		197.8429129518188	
26.0	165.90256825580036	pulse	1.0	t		54.0	female	white	2.286908077994429	neutral	136	sub-06	2.0	2.0	136_neutral	0.0		198.5429058883758	
26.0	166.60255606079636	pulse	1.0	t		54.0	female	white	2.286908077994429	neutral	136	sub-06	2.0	2.0	136_neutral	0.0		199.2428936933718	
27.0	167.26075092247356	face	0.0		146	21.0	male	east_asian/white	3.501790688420215	smiling	036	sub-06	2.0	2.0	036_smiling	0.0		199.901088555049	1.2416705706777975
27.0	167.30254748807056	pulse	0.0	t		21.0	male	east_asian/white	3.501790688420215	smiling	036	sub-06	2.0	2.0	036_smiling	0.0		199.942885120646	
27.0	168.00253680234914	pulse	0.0	t		21.0	male	east_asian/white	3.501790688420215	smiling	036	sub-06	2.0	2.0	036_smiling	0.0		200.64287443492458	
27.0	168.50242149315136	fix	1.0		443	21.0	male	east_asian/white	3.501790688420215	smiling	036	sub-06	2.0	2.0	036_smiling	0.0		201.1427591257268	3.7665655849739323
27.0	168.70252913519312	pulse	1.0	t		21.0	male	east_asian/white	3.501790688420215	smiling	036	sub-06	2.0	2.0	036_smiling	0.0		201.34286676776856	
27.0	169.40251482719304	pulse	1.0	t		21.0	male	east_asian/white	3.501790688420215	smiling	036	sub-06	2.0	2.0	036_smiling	0.0		202.04285245976848	
27.0	170.10250504704118	pulse	1.0	t		21.0	male	east_asian/white	3.501790688420215	smiling	036	sub-06	2.0	2.0	036_smiling	0.0		202.74284267961661	
27.0	170.8024901353283	pulse	1.0	t		21.0	male	east_asian/white	3.501790688420215	smiling	036	sub-06	2.0	2.0	036_smiling	0.0		203.44282776790374	
27.0	171.5024815626025	pulse	1.0	t		21.0	male	east_asian/white	3.501790688420215	smiling	036	sub-06	2.0	2.0	036_smiling	0.0		204.14281919517794	
27.0	172.2024744991595	pulse	1.0	t		21.0	male	east_asian/white	3.501790688420215	smiling	036	sub-06	2.0	2.0	036_smiling	0.0		204.84281213173495	
28.0	172.2689870781253	face	0.0		146	22.0	female	west_asian	3.8205332272184642	neutral	066	sub-06	2.0	2.0	066_neutral	0.0		204.90932471070073	1.2333586490349262
28.0	172.90246985056888	pulse	0.0	t		22.0	female	west_asian	3.8205332272184642	neutral	066	sub-06	2.0	2.0	066_neutral	0.0		205.54280748314432	
28.0	173.50234572716022	fix	1.0		443	22.0	female	west_asian	3.8205332272184642	neutral	066	sub-06	2.0	2.0	066_neutral	0.0		206.14268335973566	3.7665746406701146
28.0	173.60245644813858	pulse	1.0	t		22.0	female	west_asian	3.8205332272184642	neutral	066	sub-06	2.0	2.0	066_neutral	0.0		206.24279408071402	
28.0	174.30243459372514	pulse	1.0	t		22.0	female	west_asian	3.8205332272184642	neutral	066	sub-06	2.0	2.0	066_neutral	0.0		206.94277222630058	
28.0	175.00241938015574	pulse	1.0	t		22.0	female	west_asian	3.8205332272184642	neutral	066	sub-06	2.0	2.0	066_neutral	0.0		207.64275701273118	
28.0	175.7024255984004	pulse	1.0	t		22.0	female	west_asian	3.8205332272184642	neutral	066	sub-06	2.0	2.0	066_neutral	0.0		208.34276323097583	
28.0	176.4023934808647	pulse	1.0	t		22.0	female	west_asian	3.8205332272184642	neutral	066	sub-06	2.0	2.0	066_neutral	0.0		209.04273111344014	
28.0	177.10239215269598	pulse	1.0	t		22.0	female	west_asian	3.8205332272184642	neutral	066	sub-06	2.0	2.0	066_neutral	0.0		209.74272978527142	
29.0	177.26892036783033	face	0.0		146	20.0	male	black	3.1070433744528456	neutral	082	sub-06	2.0	2.0	082_neutral	0.0		209.90925800040577	1.233338424646945
29.0	177.80239535237524	pulse	0.0	t		20.0	male	black	3.1070433744528456	neutral	082	sub-06	2.0	2.0	082_neutral	0.0		210.44273298495068	
29.0	178.50225879247728	fix	1.0		444	20.0	male	black	3.1070433744528456	neutral	082	sub-06	2.0	2.0	082_neutral	0.0		211.14259642505272	3.766608146745739
29.0	178.50969623572814	pulse	1.0	t		20.0	male	black	3.1070433744528456	neutral	082	sub-06	2.0	2.0	082_neutral	0.0		211.15003386830358	
29.0	179.20236220852735	pulse	1.0	t		20.0	male	black	3.1070433744528456	neutral	082	sub-06	2.0	2.0	082_neutral	0.0		211.84269984110279	
29.0	179.90235846550627	pulse	1.0	t		20.0	male	black	3.1070433744528456	neutral	082	sub-06	2.0	2.0	082_neutral	0.0		212.5426960980817	
29.0	180.6023471760716	pulse	1.0	t		20.0	male	black	3.1070433744528456	neutral	082	sub-06	2.0	2.0	082_neutral	0.0		213.24268480864703	
29.0	181.3023476590422	pulse	1.0	t		20.0	male	black	3.1070433744528456	neutral	082	sub-06	2.0	2.0	082_neutral	0.0		213.94268529161764	
29.0	182.0023185600719	pulse	1.0	t		20.0	male	black	3.1070433744528456	neutral	082	sub-06	2.0	2.0	082_neutral	0.0		214.64265619264734	
30.0	182.26886693922302	face	0.0		145	27.0	female	white	4.181058495821727	neutral	039	sub-06	2.0	2.0	039_neutral	0.0		214.90920457179845	1.2333130686977256
30.0	182.70234379527847	pulse	0.0	t		27.0	female	white	4.181058495821727	neutral	039	sub-06	2.0	2.0	039_neutral	0.0		215.3426814278539	
30.0	183.40229779234187	pulse	0.0	t		27.0	female	white	4.181058495821727	neutral	039	sub-06	2.0	2.0	039_neutral	0.0		216.0426354249173	
30.0	183.50218000792074	fix	1.0		444	27.0	female	white	4.181058495821727	neutral	039	sub-06	2.0	2.0	039_neutral	0.0		216.14251764049618	3.766596676197196
30.0	184.1022910307554	pulse	1.0	t		27.0	female	white	4.181058495821727	neutral	039	sub-06	2.0	2.0	039_neutral	0.0		216.74262866333083	
30.0	184.80228155246027	pulse	1.0	t		27.0	female	white	4.181058495821727	neutral	039	sub-06	2.0	2.0	039_neutral	0.0		217.4426191850357	
30.0	185.5022624147557	pulse	1.0	t		27.0	female	white	4.181058495821727	neutral	039	sub-06	2.0	2.0	039_neutral	0.0		218.14260004733114	
30.0	186.20226410515238	pulse	1.0	t		27.0	female	white	4.181058495821727	neutral	039	sub-06	2.0	2.0	039_neutral	0.0		218.84260173772782	
30.0	186.9022494952958	pulse	1.0	t		27.0	female	white	4.181058495821727	neutral	039	sub-06	2.0	2.0	039_neutral	0.0		219.54258712787123	
31.0	187.26877668411794	face	0.0		145	24.0	female	east_asian	2.9076800636689217	smiling	034	sub-06	2.0	2.0	034_smiling	0.0		219.90911431669338	1.2333441599212165
31.0	187.6022376021483	pulse	0.0	t		24.0	female	east_asian	2.9076800636689217	smiling	034	sub-06	2.0	2.0	034_smiling	0.0		220.24257523472374	
31.0	188.30222359600475	pulse	0.0	t		24.0	female	east_asian	2.9076800636689217	smiling	034	sub-06	2.0	2.0	034_smiling	0.0		220.9425612285802	
31.0	188.50212084403915	fix	1.0		444	24.0	female	east_asian	2.9076800636689217	smiling	034	sub-06	2.0	2.0	034_smiling	0.0		221.1424584766146	3.766596676197196
31.0	189.00222558825794	pulse	1.0	t		24.0	female	east_asian	2.9076800636689217	smiling	034	sub-06	2.0	2.0	034_smiling	0.0		221.64256322083338	
31.0	189.70221339325371	pulse	1.0	t		24.0	female	east_asian	2.9076800636689217	smiling	034	sub-06	2.0	2.0	034_smiling	0.0		222.34255102582915	
31.0	190.40219817968432	pulse	1.0	t		24.0	female	east_asian	2.9076800636689217	smiling	034	sub-06	2.0	2.0	034_smiling	0.0		223.04253581225976	
31.0	191.1021905125283	pulse	1.0	t		24.0	female	east_asian	2.9076800636689217	smiling	034	sub-06	2.0	2.0	034_smiling	0.0		223.74252814510373	
31.0	191.80217982680665	pulse	1.0	t		24.0	female	east_asian	2.9076800636689217	smiling	034	sub-06	2.0	2.0	034_smiling	0.0		224.4425174593821	
32.0	192.26871752023635	face	0.0		145	24.0	female	east_asian	2.9076800636689217	neutral	034	sub-06	2.0	2.0	034_neutral	0.0		224.9090551528118	1.2333124649846923
32.0	192.50217397078995	pulse	0.0	t		24.0	female	east_asian	2.9076800636689217	neutral	034	sub-06	2.0	2.0	034_neutral	0.0		225.1425116033654	
32.0	193.20215966278988	pulse	0.0	t		24.0	female	east_asian	2.9076800636689217	neutral	034	sub-06	2.0	2.0	034_neutral	0.0		225.84249729536532	
32.0	193.50202998522104	fix	1.0		444	24.0	female	east_asian	2.9076800636689217	neutral	034	sub-06	2.0	2.0	034_neutral	0.0		226.14236761779648	3.7665975817669732
32.0	193.90214082694206	pulse	1.0	t		24.0	female	east_asian	2.9076800636689217	neutral	034	sub-06	2.0	2.0	034_neutral	0.0		226.5424784595175	
32.0	194.60214191362547	pulse	1.0	t		24.0	female	east_asian	2.9076800636689217	neutral	034	sub-06	2.0	2.0	034_neutral	0.0		227.2424795462009	
32.0	195.3021049663853	pulse	1.0	t		24.0	female	east_asian	2.9076800636689217	neutral	034	sub-06	2.0	2.0	034_neutral	0.0		227.94244259896072	
32.0	196.00212084403915	pulse	1.0	t		24.0	female	east_asian	2.9076800636689217	neutral	034	sub-06	2.0	2.0	034_neutral	0.0		228.6424584766146	
32.0	196.7021080453219	pulse	1.0	t		24.0	female	east_asian	2.9076800636689217	neutral	034	sub-06	2.0	2.0	034_neutral	0.0		229.34244567789733	
33.0	197.26862756698802	face	0.0		145	19.0	male	white	2.243931555909272	smiling	130	sub-06	2.0	2.0	130_smiling	0.0		229.90896519956345	1.2333447636342498
33.0	197.40209252989575	pulse	0.0	t		19.0	male	white	2.243931555909272	smiling	130	sub-06	2.0	2.0	130_smiling	0.0		230.0424301624712	
33.0	198.1020875794486	pulse	0.0	t		19.0	male	white	2.243931555909272	smiling	130	sub-06	2.0	2.0	130_smiling	0.0		230.74242521202405	
33.0	198.50197233062227	fix	1.0		444	19.0	male	white	2.243931555909272	smiling	130	sub-06	2.0	2.0	130_smiling	0.0		231.1423099631977	3.766595770627646
33.0	198.80207659187067	pulse	1.0	t		19.0	male	white	2.243931555909272	smiling	130	sub-06	2.0	2.0	130_smiling	0.0		231.4424142244461	
33.0	199.50206077458802	pulse	1.0	t		19.0	male	white	2.243931555909272	smiling	130	sub-06	2.0	2.0	130_smiling	0.0		232.14239840716345	
33.0	200.2020519000057	pulse	1.0	t		19.0	male	white	2.243931555909272	smiling	130	sub-06	2.0	2.0	130_smiling	0.0		232.84238953258114	
33.0	200.90204332728013	pulse	1.0	t		19.0	male	white	2.243931555909272	smiling	130	sub-06	2.0	2.0	130_smiling	0.0		233.54238095985556	
33.0	201.60203052856286	pulse	1.0	t		19.0	male	white	2.243931555909272	smiling	130	sub-06	2.0	2.0	130_smiling	0.0		234.2423681611383	
34.0	202.2685681012499	face	0.0		145	31.0	male	west_asian	1.9538400318344609	neutral	070	sub-06	2.0	2.0	070_neutral	0.0		234.90890573382535	1.2333293689507627
34.0	202.30203101153324	pulse	0.0	t		31.0	male	west_asian	1.9538400318344609	neutral	070	sub-06	2.0	2.0	070_neutral	0.0		234.94236864410868	
34.0	203.0020200239553	pulse	0.0	t		31.0	male	west_asian	1.9538400318344609	neutral	070	sub-06	2.0	2.0	070_neutral	0.0		235.64235765653075	
34.0	203.50189747020067	fix	1.0		443	31.0	male	west_asian	1.9538400318344609	neutral	070	sub-06	2.0	2.0	070_neutral	0.0		236.1422351027761	3.766588526070791
34.0	203.70200239553333	pulse	1.0	t		31.0	male	west_asian	1.9538400318344609	neutral	070	sub-06	2.0	2.0	070_neutral	0.0		236.34234002810877	
34.0	204.40196122230168	pulse	1.0	t		31.0	male	west_asian	1.9538400318344609	neutral	070	sub-06	2.0	2.0	070_neutral	0.0		237.04229885487712	
34.0	205.10196834611588	pulse	1.0	t		31.0	male	west_asian	1.9538400318344609	neutral	070	sub-06	2.0	2.0	070_neutral	0.0		237.74230597869132	
34.0	205.80196550866435	pulse	1.0	t		31.0	male	west_asian	1.9538400318344609	neutral	070	sub-06	2.0	2.0	070_neutral	0.0		238.4423031412398	
34.0	206.50195904893462	pulse	1.0	t		31.0	male	west_asian	1.9538400318344609	neutral	070	sub-06	2.0	2.0	070_neutral	0.0		239.14229668151006	
34.0	207.20194655207388	pulse	1.0	t		31.0	male	west_asian	1.9538400318344609	neutral	070	sub-06	2.0	2.0	070_neutral	0.0		239.84228418464932	
35.0	207.26848599627147	face	0.0		146	34.0	male	white	2.651014723438122	neutral	121	sub-06	2.0	2.0	121_neutral	0.0		239.9088236288469	1.2333263503853686
35.0	207.90193616820898	pulse	0.0	t		34.0	male	white	2.651014723438122	neutral	121	sub-06	2.0	2.0	121_neutral	0.0		240.54227380078441	
35.0	208.50181234665683	fix	1.0		443	34.0	male	white	2.651014723438122	neutral	121	sub-06	2.0	2.0	121_neutral	0.0		241.14214997923227	3.7666036188977614
35.0	208.60193151961812	pulse	1.0	t		34.0	male	white	2.651014723438122	neutral	121	sub-06	2.0	2.0	121_neutral	0.0		241.24226915219356	
35.0	209.3019208338967	pulse	1.0	t		34.0	male	white	2.651014723438122	neutral	121	sub-06	2.0	2.0	121_neutral	0.0		241.94225846647214	
35.0	210.00190833703596	pulse	1.0	t		34.0	male	white	2.651014723438122	neutral	121	sub-06	2.0	2.0	121_neutral	0.0		242.6422459696114	
35.0	210.70189734945802	pulse	1.0	t		34.0	male	white	2.651014723438122	neutral	121	sub-06	2.0	2.0	121_neutral	0.0		243.34223498203346	
35.0	211.40188123031885	pulse	1.0	t		34.0	male	white	2.651014723438122	neutral	121	sub-06	2.0	2.0	121_neutral	0.0		244.0422188628943	
35.0	212.10187537430215	pulse	1.0	t		34.0	male	white	2.651014723438122	neutral	121	sub-06	2.0	2.0	121_neutral	0.0		244.7422130068776	
36.0	212.2684159655546	face	0.0		146	28.0	male	white	3.9076800636689217	neutral	033	sub-06	2.0	2.0	033_neutral	0.0		244.90875359813003	1.2333230299634579
36.0	212.80186499043702	pulse	0.0	t		28.0	male	white	3.9076800636689217	neutral	033	sub-06	2.0	2.0	033_neutral	0.0		245.44220262301246	
36.0	213.50173899551805	fix	1.0		444	28.0	male	white	3.9076800636689217	neutral	033	sub-06	2.0	2.0	033_neutral	0.0		246.1420766280935	3.7665909409229243
36.0	213.50921477454926	pulse	1.0	t		28.0	male	white	3.9076800636689217	neutral	033	sub-06	2.0	2.0	033_neutral	0.0		246.1495524071247	
36.0	214.20185267469037	pulse	1.0	t		28.0	male	white	3.9076800636689217	neutral	033	sub-06	2.0	2.0	033_neutral	0.0		246.8421903072658	
36.0	214.90183685740772	pulse	1.0	t		28.0	male	white	3.9076800636689217	neutral	033	sub-06	2.0	2.0	033_neutral	0.0		247.54217448998315	
36.0	215.60181017328978	pulse	1.0	t		28.0	male	white	3.9076800636689217	neutral	033	sub-06	2.0	2.0	033_neutral	0.0		248.24214780586522	
36.0	216.30180250613375	pulse	1.0	t		28.0	male	white	3.9076800636689217	neutral	033	sub-06	2.0	2.0	033_neutral	0.0		248.9421401387092	
36.0	217.00179423526447	pulse	1.0	t		28.0	male	white	3.9076800636689217	neutral	033	sub-06	2.0	2.0	033_neutral	0.0		249.6421318678399	
37.0	217.26832993644098	face	0.0		145	40.0	female	west_asian	1.5777954635893354	smiling	038	sub-06	2.0	2.0	038_smiling	0.0		249.90866756901642	1.2333429524951498
37.0	217.7017889829608	pulse	0.0	t		40.0	female	west_asian	1.5777954635893354	smiling	038	sub-06	2.0	2.0	038_smiling	0.0		250.34212661553624	
37.0	218.4017876547921	pulse	0.0	t		40.0	female	west_asian	1.5777954635893354	smiling	038	sub-06	2.0	2.0	038_smiling	0.0		251.04212528736753	
37.0	218.50167288893613	fix	1.0		444	40.0	female	west_asian	1.5777954635893354	smiling	038	sub-06	2.0	2.0	038_smiling	0.0		251.14201052151157	3.766595770627646
37.0	219.1017651966656	pulse	1.0	t		40.0	female	west_asian	1.5777954635893354	smiling	038	sub-06	2.0	2.0	038_smiling	0.0		251.74210282924105	
37.0	219.80174907752644	pulse	1.0	t		40.0	female	west_asian	1.5777954635893354	smiling	038	sub-06	2.0	2.0	038_smiling	0.0		252.44208671010188	
37.0	220.50173537323963	pulse	1.0	t		40.0	female	west_asian	1.5777954635893354	smiling	038	sub-06	2.0	2.0	038_smiling	0.0		253.14207300581506	
37.0	221.20173676177956	pulse	1.0	t		40.0	female	west_asian	1.5777954635893354	smiling	038	sub-06	2.0	2.0	038_smiling	0.0		253.842074394355	
37.0	221.9017303020496	pulse	1.0	t		40.0	female	west_asian	1.5777954635893354	smiling	038	sub-06	2.0	2.0	038_smiling	0.0		254.54206793462504	
38.0	222.26826865956377	face	0.0		145	28.0	female	white	5.676880222841227	smiling	124	sub-06	2.0	2.0	124_smiling	0.0		254.9086062921392	1.2333284633812127
38.0	222.6017229367501	pulse	0.0	t		28.0	female	white	5.676880222841227	smiling	124	sub-06	2.0	2.0	124_smiling	0.0		255.24206056932553	
38.0	223.30170832689373	pulse	0.0	t		28.0	female	white	5.676880222841227	smiling	124	sub-06	2.0	2.0	124_smiling	0.0		255.94204595946917	
38.0	223.501597122945	fix	1.0		444	28.0	female	white	5.676880222841227	smiling	124	sub-06	2.0	2.0	124_smiling	0.0		256.1419347555204	3.7665812815137087
38.0	224.001691302185	pulse	1.0	t		28.0	female	white	5.676880222841227	smiling	124	sub-06	2.0	2.0	124_smiling	0.0		256.64202893476045	
38.0	224.70168725730719	pulse	1.0	t		28.0	female	white	5.676880222841227	smiling	124	sub-06	2.0	2.0	124_smiling	0.0		257.3420248898826	
38.0	225.40167023259846	pulse	1.0	t		28.0	female	white	5.676880222841227	smiling	124	sub-06	2.0	2.0	124_smiling	0.0		258.0420078651739	
38.0	226.10166950814278	pulse	1.0	t		28.0	female	white	5.676880222841227	smiling	124	sub-06	2.0	2.0	124_smiling	0.0		258.7420071407182	
38.0	226.80165701128203	pulse	1.0	t		28.0	female	white	5.676880222841227	smiling	124	sub-06	2.0	2.0	124_smiling	0.0		259.44199464385747	
39.0	227.2681784044587	face	0.0		145	21.0	male	black	2.969757262236371	smiling	137	sub-06	2.0	2.0	137_smiling	0.0		259.90851603703413	1.2333278596681794
39.0	227.5016381754342	pulse	0.0	t		21.0	male	black	2.969757262236371	smiling	137	sub-06	2.0	2.0	137_smiling	0.0		260.14197580800965	
39.0	228.20162748971256	pulse	0.0	t		21.0	male	black	2.969757262236371	smiling	137	sub-06	2.0	2.0	137_smiling	0.0		260.841965122288	
39.0	228.50150626412687	fix	1.0		444	21.0	male	black	2.969757262236371	smiling	137	sub-06	2.0	2.0	137_smiling	0.0		261.1418438967023	3.7499453639663898
39.0	228.90162646340036	pulse	1.0	t		21.0	male	black	2.969757262236371	smiling	137	sub-06	2.0	2.0	137_smiling	0.0		261.5419640959758	
39.0	229.6016088349786	pulse	1.0	t		21.0	male	black	2.969757262236371	smiling	137	sub-06	2.0	2.0	137_smiling	0.0		262.24194646755404	
39.0	230.30161294022741	pulse	1.0	t		21.0	male	black	2.969757262236371	smiling	137	sub-06	2.0	2.0	137_smiling	0.0		262.94195057280285	
39.0	231.0015910858142	pulse	1.0	t		21.0	male	black	2.969757262236371	smiling	137	sub-06	2.0	2.0	137_smiling	0.0		263.64192871838964	
39.0	231.70157677781413	pulse	1.0	t		21.0	male	black	2.969757262236371	smiling	137	sub-06	2.0	2.0	137_smiling	0.0		264.34191441038956	
40.0	232.25145162809326	fix	0.0		720													264.8917892606687	5.999924535865603
40.0	232.4015736385063	pulse	0.0	t														265.04191127108174	
40.0	233.10160219413478	pulse	0.0	t														265.7419398267102	
40.0	233.8015546819156	pulse	0.0	t														266.44189231449104	
40.0	234.50154369433767	pulse	0.0	t														267.1418813269131	
40.0	235.20152244363726	pulse	0.0	t														267.8418600762127	
40.0	235.90151960618573	pulse	0.0	t														268.54185723876117	
40.0	236.60150620375543	pulse	0.0	t														269.2418438363309	
40.0	237.30149581989053	pulse	0.0	t														269.94183345246597	
40.0	238.00149388800878	pulse	0.0	t														270.6418315205842	
