trial_nr	onset	event_type	phase	response	nr_frames	face_age	face_sex	face_eth	attractiveness	expression	face_id	sub_id	ses	run	trial_type	catch	rating_type	onset_abs	duration
-1.0	0.06238674784981413	fix	0.0		713													96.76795877629229	5.957951625352507
-1.0	-75.72019840312714	response	0.0	b														20.985373625315333	
-1.0	0.7038973379731033	pulse	0.0	t														97.40946936641558	
-1.0	1.4038811283699033	pulse	0.0	t														98.10945315681238	
-1.0	2.1038558631225897	pulse	0.0	t														98.80942789156506	
-1.0	2.8038399553734052	pulse	0.0	t														99.50941198381588	
-1.0	3.5038303865767375	pulse	0.0	t														100.20940241501921	
-1.0	4.203819912214385	pulse	0.0	t														100.90939194065686	
-1.0	4.903800985917769	pulse	0.0	t														101.60937301436024	
-1.0	5.603786285590104	pulse	0.0	t														102.30935831403258	
0.0	6.020338373202321	face	0.0		144	27.0	female	white	3.504576203740549	neutral	144	sub-04	2.0	1.0	144_neutral	0.0		102.7259104016448	1.233307504622644
0.0	6.303763435180372	pulse	0.0	t		27.0	female	white	3.504576203740549	neutral	144	sub-04	2.0	1.0	144_neutral	0.0		103.00933546362285	
0.0	7.003763827591683	pulse	0.0	t		27.0	female	white	3.504576203740549	neutral	144	sub-04	2.0	1.0	144_neutral	0.0		103.70933585603416	
0.0	7.253645877824965	fix	1.0		445	27.0	female	white	3.504576203740549	neutral	144	sub-04	2.0	1.0	144_neutral	0.0		103.95921790626744	3.766584431356023
0.0	7.703747014278633	pulse	1.0	t		27.0	female	white	3.504576203740549	neutral	144	sub-04	2.0	1.0	144_neutral	0.0		104.40931904272111	
0.0	8.403731106531268	pulse	1.0	t		27.0	female	white	3.504576203740549	neutral	144	sub-04	2.0	1.0	144_neutral	0.0		105.10930313497374	
0.0	9.103711576524802	pulse	1.0	t		27.0	female	white	3.504576203740549	neutral	144	sub-04	2.0	1.0	144_neutral	0.0		105.80928360496728	
0.0	9.80370351700185	pulse	1.0	t		27.0	female	white	3.504576203740549	neutral	144	sub-04	2.0	1.0	144_neutral	0.0		106.50927554544432	
0.0	10.5036854962691	pulse	1.0	t		27.0	female	white	3.504576203740549	neutral	144	sub-04	2.0	1.0	144_neutral	0.0		107.20925752471157	
1.0	11.020230309180988	face	0.0		145	36.0	female	white	2.7548746518105847	neutral	011	sub-04	2.0	1.0	011_neutral	0.0		107.72580233762346	1.2333114287357603
1.0	11.203674418196897	pulse	0.0	t		36.0	female	white	2.7548746518105847	neutral	011	sub-04	2.0	1.0	011_neutral	0.0		107.90924644663937	
1.0	11.903659717869232	pulse	0.0	t		36.0	female	white	2.7548746518105847	neutral	011	sub-04	2.0	1.0	011_neutral	0.0		108.6092317463117	
1.0	12.253541737916748	fix	1.0		444	36.0	female	white	2.7548746518105847	neutral	011	sub-04	2.0	1.0	011_neutral	0.0		108.95911376635922	3.766585035065873
1.0	12.603645017539748	pulse	1.0	t		36.0	female	white	2.7548746518105847	neutral	011	sub-04	2.0	1.0	011_neutral	0.0		109.30921704598222	
1.0	13.303627600516847	pulse	1.0	t		36.0	female	white	2.7548746518105847	neutral	011	sub-04	2.0	1.0	011_neutral	0.0		110.00919962895932	
1.0	14.003613805753048	pulse	1.0	t		36.0	female	white	2.7548746518105847	neutral	011	sub-04	2.0	1.0	011_neutral	0.0		110.70918583419552	
1.0	14.703600312843264	pulse	1.0	t		36.0	female	white	2.7548746518105847	neutral	011	sub-04	2.0	1.0	011_neutral	0.0		111.40917234128574	
1.0	15.403582895820364	pulse	1.0	t		36.0	female	white	2.7548746518105847	neutral	011	sub-04	2.0	1.0	011_neutral	0.0		112.10915492426284	
2.0	16.02012677298262	face	0.0		145	54.0	female	white	2.286908077994429	smiling	136	sub-04	2.0	1.0	136_smiling	0.0		112.7256988014251	1.2333120324456104
2.0	16.103577854844843	pulse	0.0	t		54.0	female	white	2.286908077994429	smiling	136	sub-04	2.0	1.0	136_smiling	0.0		112.80914988328732	
2.0	16.803554702581096	pulse	0.0	t		54.0	female	white	2.286908077994429	smiling	136	sub-04	2.0	1.0	136_smiling	0.0		113.50912673102357	
2.0	17.25343880542823	fix	1.0		444	54.0	female	white	2.286908077994429	smiling	136	sub-04	2.0	1.0	136_smiling	0.0		113.9590108338707	3.758242673757195
2.0	17.503544530074578	pulse	1.0	t		54.0	female	white	2.286908077994429	smiling	136	sub-04	2.0	1.0	136_smiling	0.0		114.20911655851705	
2.0	18.203527414905693	pulse	1.0	t		54.0	female	white	2.286908077994429	smiling	136	sub-04	2.0	1.0	136_smiling	0.0		114.90909944334817	
2.0	18.90351573312546	pulse	1.0	t		54.0	female	white	2.286908077994429	smiling	136	sub-04	2.0	1.0	136_smiling	0.0		115.60908776156793	
2.0	19.60349771239271	pulse	1.0	t		54.0	female	white	2.286908077994429	smiling	136	sub-04	2.0	1.0	136_smiling	0.0		116.30906974083518	
2.0	20.303477276822377	pulse	1.0	t		54.0	female	white	2.286908077994429	smiling	136	sub-04	2.0	1.0	136_smiling	0.0		117.00904930526485	
3.0	21.011681479185427	face	0.0		146	21.0	male	black	2.969757262236371	neutral	137	sub-04	2.0	1.0	137_neutral	1.0	trustworthiness	117.7172535076279	1.2416483566576062
3.0	21.005719544888052	pulse	0.0	t		21.0	male	black	2.969757262236371	neutral	137	sub-04	2.0	1.0	137_neutral	1.0	trustworthiness	117.71129157333053	
3.0	21.703458139229042	pulse	0.0	t		21.0	male	black	2.969757262236371	neutral	137	sub-04	2.0	1.0	137_neutral	1.0	trustworthiness	118.40903016767152	
3.0	22.253329835843033	fix	1.0		177	21.0	male	black	2.969757262236371	neutral	137	sub-04	2.0	1.0	137_neutral	1.0	trustworthiness	118.95890186428551	1.5083364751390036
3.0	22.403442533335692	pulse	1.0	t		21.0	male	black	2.969757262236371	neutral	137	sub-04	2.0	1.0	137_neutral	1.0	trustworthiness	119.10901456177817	
3.0	23.10342390889309	pulse	1.0	t		21.0	male	black	2.969757262236371	neutral	137	sub-04	2.0	1.0	137_neutral	1.0	trustworthiness	119.80899593733557	
3.0	23.761666310982037	rating	2.0		293	21.0	male	black	2.969757262236371	neutral	137	sub-04	2.0	1.0	137_neutral	1.0	trustworthiness	120.46723833942451	2.4915817222081387
3.0	23.803423999450388	pulse	2.0	t		21.0	male	black	2.969757262236371	neutral	137	sub-04	2.0	1.0	137_neutral	1.0	trustworthiness	120.50899602789286	
3.0	24.503397526783374	pulse	2.0	t		21.0	male	black	2.969757262236371	neutral	137	sub-04	2.0	1.0	137_neutral	1.0	trustworthiness	121.20896955522585	
3.0	25.203384335727606	pulse	2.0	t		21.0	male	black	2.969757262236371	neutral	137	sub-04	2.0	1.0	137_neutral	1.0	trustworthiness	121.90895636417008	
3.0	25.67836525095845	response	2.0	e		21.0	male	black	2.969757262236371	neutral	137	sub-04	2.0	1.0	137_neutral	1.0	trustworthiness	122.38393727940093	
3.0	25.903360579754008	pulse	2.0	t		21.0	male	black	2.969757262236371	neutral	137	sub-04	2.0	1.0	137_neutral	1.0	trustworthiness	122.60893260819648	
3.0	26.253248033190175	fix	3.0		444	21.0	male	black	2.969757262236371	neutral	137	sub-04	2.0	1.0	137_neutral	1.0	trustworthiness	122.95882006163265	3.7665868461936043
3.0	26.60335221837704	pulse	3.0	t		21.0	male	black	2.969757262236371	neutral	137	sub-04	2.0	1.0	137_neutral	1.0	trustworthiness	123.30892424681952	
3.0	27.303333292080424	pulse	3.0	t		21.0	male	black	2.969757262236371	neutral	137	sub-04	2.0	1.0	137_neutral	1.0	trustworthiness	124.0089053205229	
3.0	28.003318893604956	pulse	3.0	t		21.0	male	black	2.969757262236371	neutral	137	sub-04	2.0	1.0	137_neutral	1.0	trustworthiness	124.70889092204743	
3.0	28.703305098841156	pulse	3.0	t		21.0	male	black	2.969757262236371	neutral	137	sub-04	2.0	1.0	137_neutral	1.0	trustworthiness	125.40887712728363	
3.0	29.40328798367409	pulse	3.0	t		21.0	male	black	2.969757262236371	neutral	137	sub-04	2.0	1.0	137_neutral	1.0	trustworthiness	126.10886001211657	
4.0	30.01983487938378	face	0.0		145	37.0	male	white	3.898925586947871	neutral	101	sub-04	2.0	1.0	101_neutral	0.0		126.72540690782625	1.233307504622644
4.0	30.10328354640842	pulse	0.0	t		37.0	male	white	3.898925586947871	neutral	101	sub-04	2.0	1.0	101_neutral	0.0		126.8088555748509	
4.0	30.803255866321706	pulse	0.0	t		37.0	male	white	3.898925586947871	neutral	101	sub-04	2.0	1.0	101_neutral	0.0		127.50882789476418	
4.0	31.253142384006424	fix	1.0		444	37.0	male	white	3.898925586947871	neutral	101	sub-04	2.0	1.0	101_neutral	0.0		127.9587144124489	3.758376697292988
4.0	31.503253843895436	pulse	1.0	t		37.0	male	white	3.898925586947871	neutral	101	sub-04	2.0	1.0	101_neutral	0.0		128.2088258723379	
4.0	32.20323189904957	pulse	1.0	t		37.0	male	white	3.898925586947871	neutral	101	sub-04	2.0	1.0	101_neutral	0.0		128.90880392749204	
4.0	32.903216595012054	pulse	1.0	t		37.0	male	white	3.898925586947871	neutral	101	sub-04	2.0	1.0	101_neutral	0.0		129.60878862345453	
4.0	33.603210950326684	pulse	1.0	t		37.0	male	white	3.898925586947871	neutral	101	sub-04	2.0	1.0	101_neutral	0.0		130.30878297876916	
4.0	34.303186590643236	pulse	1.0	t		37.0	male	white	3.898925586947871	neutral	101	sub-04	2.0	1.0	101_neutral	0.0		131.0087586190857	
5.0	35.01151908129941	face	0.0		147	28.0	female	white	5.676880222841227	smiling	124	sub-04	2.0	1.0	124_smiling	0.0		131.7170911097419	1.241521275782361
5.0	35.00567396481165	pulse	0.0	t		28.0	female	white	5.676880222841227	smiling	124	sub-04	2.0	1.0	124_smiling	0.0		131.71124599325412	
5.0	35.70315900111382	pulse	0.0	t		28.0	female	white	5.676880222841227	smiling	124	sub-04	2.0	1.0	124_smiling	0.0		132.4087310295563	
5.0	36.25304035708177	fix	1.0		443	28.0	female	white	5.676880222841227	smiling	124	sub-04	2.0	1.0	124_smiling	0.0		132.95861238552425	3.7665853369198885
5.0	36.403147923043434	pulse	1.0	t		28.0	female	white	5.676880222841227	smiling	124	sub-04	2.0	1.0	124_smiling	0.0		133.1087199514859	
5.0	37.10312718561727	pulse	1.0	t		28.0	female	white	5.676880222841227	smiling	124	sub-04	2.0	1.0	124_smiling	0.0		133.80869921405974	
5.0	37.8031100704502	pulse	1.0	t		28.0	female	white	5.676880222841227	smiling	124	sub-04	2.0	1.0	124_smiling	0.0		134.50868209889268	
5.0	38.50310382205498	pulse	1.0	t		28.0	female	white	5.676880222841227	smiling	124	sub-04	2.0	1.0	124_smiling	0.0		135.20867585049746	
5.0	39.203087310597766	pulse	1.0	t		28.0	female	white	5.676880222841227	smiling	124	sub-04	2.0	1.0	124_smiling	0.0		135.90865933904024	
5.0	39.903072308414266	pulse	1.0	t		28.0	female	white	5.676880222841227	smiling	124	sub-04	2.0	1.0	124_smiling	0.0		136.60864433685674	
6.0	40.01962569400166	face	0.0		146	32.0	male	white	2.389176283326701	smiling	092	sub-04	2.0	1.0	092_smiling	0.0		136.72519772244414	1.2333081083343131
6.0	40.60306334332563	pulse	0.0	t		32.0	male	white	2.389176283326701	smiling	092	sub-04	2.0	1.0	092_smiling	0.0		137.3086353717681	
6.0	41.252933802335974	fix	1.0		443	32.0	male	white	2.389176283326701	smiling	092	sub-04	2.0	1.0	092_smiling	0.0		137.95850583077845	3.7582553516585904
6.0	41.303046831868414	pulse	1.0	t		32.0	male	white	2.389176283326701	smiling	092	sub-04	2.0	1.0	092_smiling	0.0		138.0086188603109	
6.0	42.0030291129915	pulse	1.0	t		32.0	male	white	2.389176283326701	smiling	092	sub-04	2.0	1.0	092_smiling	0.0		138.70860114143397	
6.0	42.70303463693381	pulse	1.0	t		32.0	male	white	2.389176283326701	smiling	092	sub-04	2.0	1.0	092_smiling	0.0		139.40860666537628	
6.0	43.403001221606246	pulse	1.0	t		32.0	male	white	2.389176283326701	smiling	092	sub-04	2.0	1.0	092_smiling	0.0		140.10857325004872	
6.0	44.10297988047205	pulse	1.0	t		32.0	male	white	2.389176283326701	smiling	092	sub-04	2.0	1.0	092_smiling	0.0		140.80855190891452	
6.0	44.802963369013014	pulse	1.0	t		32.0	male	white	2.389176283326701	smiling	092	sub-04	2.0	1.0	092_smiling	0.0		141.5085353974555	
7.0	45.011189153994565	face	0.0		146	19.0	male	white	3.2522881018702745	smiling	018	sub-04	2.0	1.0	018_smiling	0.0		141.71676118243704	1.2416405084331927
7.0	45.50295983731303	pulse	0.0	t		19.0	male	white	3.2522881018702745	smiling	018	sub-04	2.0	1.0	018_smiling	0.0		142.2085318657555	
7.0	46.202933968355865	pulse	0.0	t		19.0	male	white	3.2522881018702745	smiling	018	sub-04	2.0	1.0	018_smiling	0.0		142.90850599679834	
7.0	46.25282966242776	fix	1.0		445	19.0	male	white	3.2522881018702745	smiling	018	sub-04	2.0	1.0	018_smiling	0.0		142.95840169087023	3.7665886573213356
7.0	46.90292983294421	pulse	1.0	t		19.0	male	white	3.2522881018702745	smiling	018	sub-04	2.0	1.0	018_smiling	0.0		143.60850186138669	
7.0	47.6029069825363	pulse	1.0	t		19.0	male	white	3.2522881018702745	smiling	018	sub-04	2.0	1.0	018_smiling	0.0		144.30847901097877	
7.0	48.30289409333636	pulse	1.0	t		19.0	male	white	3.2522881018702745	smiling	018	sub-04	2.0	1.0	018_smiling	0.0		145.00846612177884	
7.0	49.002883920828026	pulse	1.0	t		19.0	male	white	3.2522881018702745	smiling	018	sub-04	2.0	1.0	018_smiling	0.0		145.7084559492705	
7.0	49.70286257969383	pulse	1.0	t		19.0	male	white	3.2522881018702745	smiling	018	sub-04	2.0	1.0	018_smiling	0.0		146.4084346081363	
8.0	50.01941831974909	face	0.0		145	26.0	female	white	4.854755272582572	smiling	027	sub-04	2.0	1.0	027_smiling	0.0		146.72499034819157	1.2333072027686285
8.0	50.402859047992024	pulse	0.0	t		26.0	female	white	4.854755272582572	smiling	027	sub-04	2.0	1.0	027_smiling	0.0		147.1084310764345	
8.0	51.10283438645456	pulse	0.0	t		26.0	female	white	4.854755272582572	smiling	027	sub-04	2.0	1.0	027_smiling	0.0		147.80840641489704	
8.0	51.25272552251772	fix	1.0		445	26.0	female	white	4.854755272582572	smiling	027	sub-04	2.0	1.0	027_smiling	0.0		147.9582975509602	3.7665868461936043
8.0	51.802828439915174	pulse	1.0	t		26.0	female	white	4.854755272582572	smiling	027	sub-04	2.0	1.0	027_smiling	0.0		148.50840046835765	
8.0	52.50280951361856	pulse	1.0	t		26.0	female	white	4.854755272582572	smiling	027	sub-04	2.0	1.0	027_smiling	0.0		149.20838154206103	
8.0	53.20279451143506	pulse	1.0	t		26.0	female	white	4.854755272582572	smiling	027	sub-04	2.0	1.0	027_smiling	0.0		149.90836653987753	
8.0	53.902779811105574	pulse	1.0	t		26.0	female	white	4.854755272582572	smiling	027	sub-04	2.0	1.0	027_smiling	0.0		150.60835183954805	
8.0	54.60276118666479	pulse	1.0	t		26.0	female	white	4.854755272582572	smiling	027	sub-04	2.0	1.0	027_smiling	0.0		151.30833321510727	
9.0	55.019312368711326	face	0.0		145	27.0	female	white	4.181058495821727	smiling	039	sub-04	2.0	1.0	039_smiling	0.0		151.7248843971538	1.2333081083343131
9.0	55.30275554197942	pulse	0.0	t		27.0	female	white	4.181058495821727	smiling	039	sub-04	2.0	1.0	039_smiling	0.0		152.0083275704219	
9.0	56.00273088044196	pulse	0.0	t		27.0	female	white	4.181058495821727	smiling	039	sub-04	2.0	1.0	039_smiling	0.0		152.70830290888443	
9.0	56.25262047704564	fix	1.0		445	27.0	female	white	4.181058495821727	smiling	039	sub-04	2.0	1.0	039_smiling	0.0		152.9581925054881	3.76658714804762
9.0	56.70272402833689	pulse	1.0	t		27.0	female	white	4.181058495821727	smiling	039	sub-04	2.0	1.0	039_smiling	0.0		153.40829605677936	
9.0	57.402696951960024	pulse	1.0	t		27.0	female	white	4.181058495821727	smiling	039	sub-04	2.0	1.0	039_smiling	0.0		154.1082689804025	
9.0	58.102694325823904	pulse	1.0	t		27.0	female	white	4.181058495821727	smiling	039	sub-04	2.0	1.0	039_smiling	0.0		154.80826635426638	
9.0	58.80267630509297	pulse	1.0	t		27.0	female	white	4.181058495821727	smiling	039	sub-04	2.0	1.0	039_smiling	0.0		155.50824833353545	
9.0	59.50266854742404	pulse	1.0	t		27.0	female	white	4.181058495821727	smiling	039	sub-04	2.0	1.0	039_smiling	0.0		156.2082405758665	
10.0	60.01920762509326	face	0.0		145	19.0	female	white	4.298846000795861	smiling	100	sub-04	2.0	1.0	100_smiling	0.0		156.72477965353573	1.2333093157540134
10.0	60.202658676771534	pulse	0.0	t		19.0	female	white	4.298846000795861	smiling	100	sub-04	2.0	1.0	100_smiling	0.0		156.908230705214	
10.0	60.90263461894392	pulse	0.0	t		19.0	female	white	4.298846000795861	smiling	100	sub-04	2.0	1.0	100_smiling	0.0		157.6082066473864	
10.0	61.25251694084727	fix	1.0		444	19.0	female	white	4.298846000795861	smiling	100	sub-04	2.0	1.0	100_smiling	0.0		157.95808896928975	3.7583914881761302
10.0	61.602628068694685	pulse	1.0	t		19.0	female	white	4.298846000795861	smiling	100	sub-04	2.0	1.0	100_smiling	0.0		158.30820009713716	
10.0	62.30260733126852	pulse	1.0	t		19.0	female	white	4.298846000795861	smiling	100	sub-04	2.0	1.0	100_smiling	0.0		159.008179359711	
10.0	63.00258659384417	pulse	1.0	t		19.0	female	white	4.298846000795861	smiling	100	sub-04	2.0	1.0	100_smiling	0.0		159.70815862228665	
10.0	63.7025734027884	pulse	1.0	t		19.0	female	white	4.298846000795861	smiling	100	sub-04	2.0	1.0	100_smiling	0.0		160.40814543123088	
10.0	64.40255689133119	pulse	1.0	t		19.0	female	white	4.298846000795861	smiling	100	sub-04	2.0	1.0	100_smiling	0.0		161.10812891977366	
11.0	65.0109084290234	face	0.0		146	22.0	female	west_asian	3.8205332272184642	smiling	066	sub-04	2.0	1.0	066_smiling	0.0		161.71648045746588	1.241504975623684
11.0	65.10255426519325	pulse	0.0	t		22.0	female	west_asian	3.8205332272184642	smiling	066	sub-04	2.0	1.0	066_smiling	0.0		161.80812629363572	
11.0	65.80252658510835	pulse	0.0	t		22.0	female	west_asian	3.8205332272184642	smiling	066	sub-04	2.0	1.0	066_smiling	0.0		162.50809861355083	
11.0	66.25241340464709	fix	1.0		444	22.0	female	west_asian	3.8205332272184642	smiling	066	sub-04	2.0	1.0	066_smiling	0.0		162.95798543308956	3.766581714662607
11.0	66.50252395897041	pulse	1.0	t		22.0	female	west_asian	3.8205332272184642	smiling	066	sub-04	2.0	1.0	066_smiling	0.0		163.2080959874129	
11.0	67.2024986937231	pulse	1.0	t		22.0	female	west_asian	3.8205332272184642	smiling	066	sub-04	2.0	1.0	066_smiling	0.0		163.90807072216558	
11.0	67.90248097484618	pulse	1.0	t		22.0	female	west_asian	3.8205332272184642	smiling	066	sub-04	2.0	1.0	066_smiling	0.0		164.60805300328866	
11.0	68.60247170790353	pulse	1.0	t		22.0	female	west_asian	3.8205332272184642	smiling	066	sub-04	2.0	1.0	066_smiling	0.0		165.308043736346	
11.0	69.30245489459048	pulse	1.0	t		22.0	female	west_asian	3.8205332272184642	smiling	066	sub-04	2.0	1.0	066_smiling	0.0		166.00802692303296	
12.0	70.0189951193097	face	0.0		146	19.0	male	white	2.243931555909272	smiling	130	sub-04	2.0	1.0	130_smiling	0.0		166.72456714775217	1.233312334301445
12.0	70.00533407629882	pulse	0.0	t		19.0	male	white	2.243931555909272	smiling	130	sub-04	2.0	1.0	130_smiling	0.0		166.7109061047413	
12.0	70.70243002175448	pulse	0.0	t		19.0	male	white	2.243931555909272	smiling	130	sub-04	2.0	1.0	130_smiling	0.0		167.40800205019696	
12.0	71.25230745361114	fix	1.0		443	19.0	male	white	2.243931555909272	smiling	130	sub-04	2.0	1.0	130_smiling	0.0		167.9578794820536	3.76658714804762
12.0	71.40241984924796	pulse	1.0	t		19.0	male	white	2.243931555909272	smiling	130	sub-04	2.0	1.0	130_smiling	0.0		168.10799187769044	
12.0	72.10239790440392	pulse	1.0	t		19.0	male	white	2.243931555909272	smiling	130	sub-04	2.0	1.0	130_smiling	0.0		168.8079699328464	
12.0	72.80237867625146	pulse	1.0	t		19.0	male	white	2.243931555909272	smiling	130	sub-04	2.0	1.0	130_smiling	0.0		169.50795070469394	
12.0	73.50237182414821	pulse	1.0	t		19.0	male	white	2.243931555909272	smiling	130	sub-04	2.0	1.0	130_smiling	0.0		170.2079438525907	
12.0	74.2023580293826	pulse	1.0	t		19.0	male	white	2.243931555909272	smiling	130	sub-04	2.0	1.0	130_smiling	0.0		170.90793005782507	
12.0	74.90235208284321	pulse	1.0	t		19.0	male	white	2.243931555909272	smiling	130	sub-04	2.0	1.0	130_smiling	0.0		171.60792411128568	
13.0	75.01889460165876	face	0.0		146	24.0	female	east_asian	2.9076800636689217	smiling	034	sub-04	2.0	1.0	034_smiling	0.0		171.72446663010123	1.2333078064784786
13.0	75.60233557138599	pulse	0.0	t		24.0	female	east_asian	2.9076800636689217	smiling	034	sub-04	2.0	1.0	034_smiling	0.0		172.30790759982847	
13.0	76.25220240813724	fix	1.0		443	24.0	female	east_asian	2.9076800636689217	smiling	034	sub-04	2.0	1.0	034_smiling	0.0		172.9577744365797	3.7665874499034544
13.0	76.30231513581566	pulse	1.0	t		24.0	female	east_asian	2.9076800636689217	smiling	034	sub-04	2.0	1.0	034_smiling	0.0		173.00788716425814	
13.0	77.00230013363216	pulse	1.0	t		24.0	female	east_asian	2.9076800636689217	smiling	034	sub-04	2.0	1.0	034_smiling	0.0		173.70787216207464	
13.0	77.70227909435198	pulse	1.0	t		24.0	female	east_asian	2.9076800636689217	smiling	034	sub-04	2.0	1.0	034_smiling	0.0		174.40785112279445	
13.0	78.40226952555349	pulse	1.0	t		24.0	female	east_asian	2.9076800636689217	smiling	034	sub-04	2.0	1.0	034_smiling	0.0		175.10784155399597	
13.0	79.10224999554703	pulse	1.0	t		24.0	female	east_asian	2.9076800636689217	smiling	034	sub-04	2.0	1.0	034_smiling	0.0		175.8078220239895	
13.0	79.80223438965368	pulse	1.0	t		24.0	female	east_asian	2.9076800636689217	smiling	034	sub-04	2.0	1.0	034_smiling	0.0		176.50780641809615	
14.0	80.01878985804069	face	0.0		145	24.0	male	white	3.1153999204138483	smiling	012	sub-04	2.0	1.0	012_smiling	0.0		176.72436188648317	1.2333093157521944
14.0	80.50223176351756	pulse	0.0	t		24.0	male	white	3.1153999204138483	smiling	012	sub-04	2.0	1.0	012_smiling	0.0		177.20780379196003	
14.0	81.20220740383411	pulse	0.0	t		24.0	male	white	3.1153999204138483	smiling	012	sub-04	2.0	1.0	012_smiling	0.0		177.90777943227658	
14.0	81.25209917379289	fix	1.0		445	24.0	male	white	3.1153999204138483	smiling	012	sub-04	2.0	1.0	012_smiling	0.0		177.95767120223536	3.7665874499034544
14.0	81.90220145729472	pulse	1.0	t		24.0	male	white	3.1153999204138483	smiling	012	sub-04	2.0	1.0	012_smiling	0.0		178.6077734857372	
14.0	82.60217951245068	pulse	1.0	t		24.0	male	white	3.1153999204138483	smiling	012	sub-04	2.0	1.0	012_smiling	0.0		179.30775154089315	
14.0	83.30216269913763	pulse	1.0	t		24.0	male	white	3.1153999204138483	smiling	012	sub-04	2.0	1.0	012_smiling	0.0		180.0077347275801	
14.0	84.00215977114567	pulse	1.0	t		24.0	male	white	3.1153999204138483	smiling	012	sub-04	2.0	1.0	012_smiling	0.0		180.70773179958815	
14.0	84.7021339021885	pulse	1.0	t		24.0	male	white	3.1153999204138483	smiling	012	sub-04	2.0	1.0	012_smiling	0.0		181.40770593063098	
15.0	85.01868662369634	face	0.0		145	31.0	male	west_asian	1.9538400318344609	neutral	070	sub-04	2.0	1.0	070_neutral	0.0		181.72425865213881	1.233306900914613
15.0	85.40212614451957	pulse	0.0	t		31.0	male	west_asian	1.9538400318344609	neutral	070	sub-04	2.0	1.0	070_neutral	0.0		182.10769817296205	
15.0	86.10210480338537	pulse	0.0	t		31.0	male	west_asian	1.9538400318344609	neutral	070	sub-04	2.0	1.0	070_neutral	0.0		182.80767683182785	
15.0	86.25199352461095	fix	1.0		445	31.0	male	west_asian	1.9538400318344609	neutral	070	sub-04	2.0	1.0	070_neutral	0.0		182.95756555305343	3.7665874499034544
15.0	86.80209583829856	pulse	1.0	t		31.0	male	west_asian	1.9538400318344609	neutral	070	sub-04	2.0	1.0	070_neutral	0.0		183.50766786674103	
15.0	87.50207328974284	pulse	1.0	t		31.0	male	west_asian	1.9538400318344609	neutral	070	sub-04	2.0	1.0	070_neutral	0.0		184.2076453181853	
15.0	88.2020667394936	pulse	1.0	t		31.0	male	west_asian	1.9538400318344609	neutral	070	sub-04	2.0	1.0	070_neutral	0.0		184.90763876793608	
15.0	88.9020466057791	pulse	1.0	t		31.0	male	west_asian	1.9538400318344609	neutral	070	sub-04	2.0	1.0	070_neutral	0.0		185.60761863422158	
15.0	89.60203401843319	pulse	1.0	t		31.0	male	west_asian	1.9538400318344609	neutral	070	sub-04	2.0	1.0	070_neutral	0.0		186.30760604687566	
16.0	90.0185809745144	face	0.0		145	20.0	female	white	3.9502586549940313	smiling	091	sub-04	2.0	1.0	091_smiling	0.0		186.72415300295688	1.2332978452704992
16.0	90.30202505334637	pulse	0.0	t		20.0	female	white	3.9502586549940313	smiling	091	sub-04	2.0	1.0	091_smiling	0.0		187.00759708178884	
16.0	91.00200069366292	pulse	0.0	t		20.0	female	white	3.9502586549940313	smiling	091	sub-04	2.0	1.0	091_smiling	0.0		187.7075727221054	
16.0	91.2518788197849	fix	1.0		444	20.0	female	white	3.9502586549940313	smiling	091	sub-04	2.0	1.0	091_smiling	0.0		187.95745084822738	3.7665995240949997
16.0	91.7019944452677	pulse	1.0	t		20.0	female	white	3.9502586549940313	smiling	091	sub-04	2.0	1.0	091_smiling	0.0		188.40756647371018	
16.0	92.4019743115532	pulse	1.0	t		20.0	female	white	3.9502586549940313	smiling	091	sub-04	2.0	1.0	091_smiling	0.0		189.10754633999568	
16.0	93.10195930936788	pulse	1.0	t		20.0	female	white	3.9502586549940313	smiling	091	sub-04	2.0	1.0	091_smiling	0.0		189.80753133781036	
16.0	93.80194521274825	pulse	1.0	t		20.0	female	white	3.9502586549940313	smiling	091	sub-04	2.0	1.0	091_smiling	0.0		190.50751724119073	
16.0	94.50192990871074	pulse	1.0	t		20.0	female	white	3.9502586549940313	smiling	091	sub-04	2.0	1.0	091_smiling	0.0		191.2075019371532	
17.0	95.0184783438799	face	0.0		145	30.0	female	black	2.7345801830481498	neutral	062	sub-04	2.0	1.0	062_neutral	0.0		191.72405037232238	1.2333084101883287
17.0	95.20192426402537	pulse	0.0	t		30.0	female	black	2.7345801830481498	neutral	062	sub-04	2.0	1.0	062_neutral	0.0		191.90749629246784	
17.0	95.90189869692404	pulse	0.0	t		30.0	female	black	2.7345801830481498	neutral	062	sub-04	2.0	1.0	062_neutral	0.0		192.6074707253665	
17.0	96.25178675406823	fix	1.0		444	30.0	female	black	2.7345801830481498	neutral	062	sub-04	2.0	1.0	062_neutral	0.0		192.9573587825107	3.7665859406297386
17.0	96.6018948633664	pulse	1.0	t		30.0	female	black	2.7345801830481498	neutral	062	sub-04	2.0	1.0	062_neutral	0.0		193.30746689180887	
17.0	97.30186959811908	pulse	1.0	t		30.0	female	black	2.7345801830481498	neutral	062	sub-04	2.0	1.0	062_neutral	0.0		194.00744162656156	
17.0	98.00185519964543	pulse	1.0	t		30.0	female	black	2.7345801830481498	neutral	062	sub-04	2.0	1.0	062_neutral	0.0		194.7074272280879	
17.0	98.70184563084877	pulse	1.0	t		30.0	female	black	2.7345801830481498	neutral	062	sub-04	2.0	1.0	062_neutral	0.0		195.40741765929124	
17.0	99.40182700640617	pulse	1.0	t		30.0	female	black	2.7345801830481498	neutral	062	sub-04	2.0	1.0	062_neutral	0.0		196.10739903484864	
18.0	100.01837269469797	face	0.0		145	26.0	male	white	2.7966573816155993	neutral	117	sub-04	2.0	1.0	117_neutral	0.0		196.72394472314045	1.2333084101883287
18.0	100.1018213617208	pulse	0.0	t		26.0	male	white	2.7966573816155993	neutral	117	sub-04	2.0	1.0	117_neutral	0.0		196.80739339016327	
18.0	100.801802435426	pulse	0.0	t		26.0	male	white	2.7966573816155993	neutral	117	sub-04	2.0	1.0	117_neutral	0.0		197.50737446386847	
18.0	101.2516811048863	fix	1.0		444	26.0	male	white	2.7966573816155993	neutral	117	sub-04	2.0	1.0	117_neutral	0.0		197.95725313332878	3.766581714660788
18.0	101.50178954622424	pulse	1.0	t		26.0	male	white	2.7966573816155993	neutral	117	sub-04	2.0	1.0	117_neutral	0.0		198.20736157466672	
18.0	102.20176820509005	pulse	1.0	t		26.0	male	white	2.7966573816155993	neutral	117	sub-04	2.0	1.0	117_neutral	0.0		198.90734023353252	
18.0	102.90175199548685	pulse	1.0	t		26.0	male	white	2.7966573816155993	neutral	117	sub-04	2.0	1.0	117_neutral	0.0		199.60732402392932	
18.0	103.60174061556063	pulse	1.0	t		26.0	male	white	2.7966573816155993	neutral	117	sub-04	2.0	1.0	117_neutral	0.0		200.3073126440031	
18.0	104.30172168926401	pulse	1.0	t		26.0	male	white	2.7966573816155993	neutral	117	sub-04	2.0	1.0	117_neutral	0.0		201.0072937177065	
19.0	105.01826281954709	face	0.0		145	34.0	male	white	2.651014723438122	smiling	121	sub-04	2.0	1.0	121_smiling	1.0	trustworthiness	201.72383484798956	1.2333165602685767
19.0	105.00438293180196	pulse	0.0	t		34.0	male	white	2.651014723438122	smiling	121	sub-04	2.0	1.0	121_smiling	1.0	trustworthiness	201.70995496024443	
19.0	105.7017040609444	pulse	0.0	t		34.0	male	white	2.651014723438122	smiling	121	sub-04	2.0	1.0	121_smiling	1.0	trustworthiness	202.40727608938687	
19.0	106.25157937981567	fix	1.0		177	34.0	male	white	2.651014723438122	smiling	121	sub-04	2.0	1.0	121_smiling	1.0	trustworthiness	202.95715140825814	1.4999672487538191
19.0	106.40168845504923	pulse	1.0	t		34.0	male	white	2.651014723438122	smiling	121	sub-04	2.0	1.0	121_smiling	1.0	trustworthiness	203.1072604834917	
19.0	107.10166379351176	pulse	1.0	t		34.0	male	white	2.651014723438122	smiling	121	sub-04	2.0	1.0	121_smiling	1.0	trustworthiness	203.80723582195424	
19.0	107.75154662856949	rating	2.0		294	34.0	male	white	2.651014723438122	smiling	121	sub-04	2.0	1.0	121_smiling	1.0	trustworthiness	204.45711865701196	2.4999473263360414
19.0	107.80165482842494	pulse	2.0	t		34.0	male	white	2.651014723438122	smiling	121	sub-04	2.0	1.0	121_smiling	1.0	trustworthiness	204.50722685686742	
19.0	108.50164435406259	pulse	2.0	t		34.0	male	white	2.651014723438122	smiling	121	sub-04	2.0	1.0	121_smiling	1.0	trustworthiness	205.20721638250507	
19.0	109.20164414276405	pulse	2.0	t		34.0	male	white	2.651014723438122	smiling	121	sub-04	2.0	1.0	121_smiling	1.0	trustworthiness	205.90721617120653	
19.0	109.71001502935178	response	2.0	w		34.0	male	white	2.651014723438122	smiling	121	sub-04	2.0	1.0	121_smiling	1.0	trustworthiness	206.41558705779426	
19.0	109.90160740703504	pulse	2.0	t		34.0	male	white	2.651014723438122	smiling	121	sub-04	2.0	1.0	121_smiling	1.0	trustworthiness	206.60717943547752	
19.0	110.25149395490553	fix	3.0		444	34.0	male	white	2.651014723438122	smiling	121	sub-04	2.0	1.0	121_smiling	1.0	trustworthiness	206.957065983348	3.7665865443377697
19.0	110.60160055492997	pulse	3.0	t		34.0	male	white	2.651014723438122	smiling	121	sub-04	2.0	1.0	121_smiling	1.0	trustworthiness	207.30717258337245	
19.0	111.30157981750563	pulse	3.0	t		34.0	male	white	2.651014723438122	smiling	121	sub-04	2.0	1.0	121_smiling	1.0	trustworthiness	208.0071518459481	
19.0	112.001571154271	pulse	3.0	t		34.0	male	white	2.651014723438122	smiling	121	sub-04	2.0	1.0	121_smiling	1.0	trustworthiness	208.70714318271348	
19.0	112.70154890757294	pulse	3.0	t		34.0	male	white	2.651014723438122	smiling	121	sub-04	2.0	1.0	121_smiling	1.0	trustworthiness	209.40712093601542	
19.0	113.40154356474159	pulse	3.0	t		34.0	male	white	2.651014723438122	smiling	121	sub-04	2.0	1.0	121_smiling	1.0	trustworthiness	210.10711559318406	
20.0	114.0180804992433	face	0.0		145	20.0	male	black	2.609629924393156	neutral	043	sub-04	2.0	1.0	043_neutral	0.0		210.72365252768577	1.2333093157540134
20.0	114.1015249403008	pulse	0.0	t		20.0	male	black	2.609629924393156	neutral	043	sub-04	2.0	1.0	043_neutral	0.0		210.80709696874328	
20.0	114.80150359916661	pulse	0.0	t		20.0	male	black	2.609629924393156	neutral	043	sub-04	2.0	1.0	043_neutral	0.0		211.50707562760908	
20.0	115.25138981499731	fix	1.0		1185	20.0	male	black	2.609629924393156	neutral	043	sub-04	2.0	1.0	043_neutral	0.0		211.95696184343979	10.016456520379506
20.0	115.50149735077139	pulse	1.0	t		20.0	male	black	2.609629924393156	neutral	043	sub-04	2.0	1.0	043_neutral	0.0		212.20706937921386	
20.0	116.2014775189109	pulse	1.0	t		20.0	male	black	2.609629924393156	neutral	043	sub-04	2.0	1.0	043_neutral	0.0		212.90704954735338	
20.0	116.90146493156499	pulse	1.0	t		20.0	male	black	2.609629924393156	neutral	043	sub-04	2.0	1.0	043_neutral	0.0		213.60703696000746	
20.0	117.60144751454209	pulse	1.0	t		20.0	male	black	2.609629924393156	neutral	043	sub-04	2.0	1.0	043_neutral	0.0		214.30701954298456	
20.0	118.30143432348814	pulse	1.0	t		20.0	male	black	2.609629924393156	neutral	043	sub-04	2.0	1.0	043_neutral	0.0		215.0070063519306	
20.0	119.00142415098162	pulse	1.0	t		20.0	male	black	2.609629924393156	neutral	043	sub-04	2.0	1.0	043_neutral	0.0		215.7069961794241	
20.0	119.70140250799159	pulse	1.0	t		20.0	male	black	2.609629924393156	neutral	043	sub-04	2.0	1.0	043_neutral	0.0		216.40697453643406	
20.0	120.4013890150818	pulse	1.0	t		20.0	male	black	2.609629924393156	neutral	043	sub-04	2.0	1.0	043_neutral	0.0		217.10696104352428	
20.0	121.10137099434905	pulse	1.0	t		20.0	male	black	2.609629924393156	neutral	043	sub-04	2.0	1.0	043_neutral	0.0		217.80694302279153	
20.0	121.80136263297027	pulse	1.0	t		20.0	male	black	2.609629924393156	neutral	043	sub-04	2.0	1.0	043_neutral	0.0		218.50693466141274	
20.0	122.50134491409335	pulse	1.0	t		20.0	male	black	2.609629924393156	neutral	043	sub-04	2.0	1.0	043_neutral	0.0		219.20691694253583	
20.0	123.20133021376387	pulse	1.0	t		20.0	male	black	2.609629924393156	neutral	043	sub-04	2.0	1.0	043_neutral	0.0		219.90690224220634	
20.0	123.90131400416249	pulse	1.0	t		20.0	male	black	2.609629924393156	neutral	043	sub-04	2.0	1.0	043_neutral	0.0		220.60688603260496	
20.0	124.60129839826732	pulse	1.0	t		20.0	male	black	2.609629924393156	neutral	043	sub-04	2.0	1.0	043_neutral	0.0		221.3068704267098	
21.0	125.26784633537682	face	0.0		145	31.0	female	white	2.1822522881018704	neutral	102	sub-04	2.0	1.0	102_neutral	0.0		221.9734183638193	1.2333078064784786
21.0	125.30128490535753	pulse	0.0	t		31.0	female	white	2.1822522881018704	neutral	102	sub-04	2.0	1.0	102_neutral	0.0		222.0068569338	
21.0	126.00127684583458	pulse	0.0	t		31.0	female	white	2.1822522881018704	neutral	102	sub-04	2.0	1.0	102_neutral	0.0		222.70684887427706	
21.0	126.5011541418553	fix	1.0		443	31.0	female	white	2.1822522881018704	neutral	102	sub-04	2.0	1.0	102_neutral	0.0		223.20672617029777	3.766585638775723
21.0	126.7012645603445	pulse	1.0	t		31.0	female	white	2.1822522881018704	neutral	102	sub-04	2.0	1.0	102_neutral	0.0		223.40683658878697	
21.0	127.40124804888546	pulse	1.0	t		31.0	female	white	2.1822522881018704	neutral	102	sub-04	2.0	1.0	102_neutral	0.0		224.10682007732794	
21.0	128.10123153742825	pulse	1.0	t		31.0	female	white	2.1822522881018704	neutral	102	sub-04	2.0	1.0	102_neutral	0.0		224.80680356587072	
21.0	128.80121442226118	pulse	1.0	t		31.0	female	white	2.1822522881018704	neutral	102	sub-04	2.0	1.0	102_neutral	0.0		225.50678645070366	
21.0	129.5011997219317	pulse	1.0	t		31.0	female	white	2.1822522881018704	neutral	102	sub-04	2.0	1.0	102_neutral	0.0		226.20677175037417	
21.0	130.20118411603835	pulse	1.0	t		31.0	female	white	2.1822522881018704	neutral	102	sub-04	2.0	1.0	102_neutral	0.0		226.90675614448082	
22.0	130.26773978063102	face	0.0		146	26.0	female	white	4.854755272582572	neutral	027	sub-04	2.0	1.0	027_neutral	0.0		226.9733118090735	1.23331022131606
22.0	130.90117696207926	pulse	0.0	t		26.0	female	white	4.854755272582572	neutral	027	sub-04	2.0	1.0	027_neutral	0.0		227.60674899052174	
22.0	131.50105000194708	fix	1.0		443	26.0	female	white	4.854755272582572	neutral	027	sub-04	2.0	1.0	027_neutral	0.0		228.20662203038955	3.766585035065873
22.0	131.60116316731364	pulse	1.0	t		26.0	female	white	4.854755272582572	neutral	027	sub-04	2.0	1.0	027_neutral	0.0		228.30673519575612	
22.0	132.3011412224696	pulse	1.0	t		26.0	female	white	4.854755272582572	neutral	027	sub-04	2.0	1.0	027_neutral	0.0		229.00671325091207	
22.0	133.00112350359268	pulse	1.0	t		26.0	female	white	4.854755272582572	neutral	027	sub-04	2.0	1.0	027_neutral	0.0		229.70669553203516	
22.0	133.70111363294018	pulse	1.0	t		26.0	female	white	4.854755272582572	neutral	027	sub-04	2.0	1.0	027_neutral	0.0		230.40668566138265	
22.0	134.40109832890266	pulse	1.0	t		26.0	female	white	4.854755272582572	neutral	027	sub-04	2.0	1.0	027_neutral	0.0		231.10667035734514	
22.0	135.10108453413704	pulse	1.0	t		26.0	female	white	4.854755272582572	neutral	027	sub-04	2.0	1.0	027_neutral	0.0		231.80665656257952	
23.0	135.26763503701295	face	0.0		146	28.0	male	white	3.9076800636689217	neutral	033	sub-04	2.0	1.0	033_neutral	1.0	dominance	231.97320706545543	1.2333135417193262
23.0	135.80107224864696	pulse	0.0	t		28.0	male	white	3.9076800636689217	neutral	033	sub-04	2.0	1.0	033_neutral	1.0	dominance	232.50664427708944	
23.0	136.50094857873228	fix	1.0		177	28.0	male	white	3.9076800636689217	neutral	033	sub-04	2.0	1.0	033_neutral	1.0	dominance	233.20652060717475	1.4999678524618503
23.0	136.50888675645183	pulse	1.0	t		28.0	male	white	3.9076800636689217	neutral	033	sub-04	2.0	1.0	033_neutral	1.0	dominance	233.2144587848943	
23.0	137.2010404331504	pulse	1.0	t		28.0	male	white	3.9076800636689217	neutral	033	sub-04	2.0	1.0	033_neutral	1.0	dominance	233.90661246159289	
23.0	137.90102392169138	pulse	1.0	t		28.0	male	white	3.9076800636689217	neutral	033	sub-04	2.0	1.0	033_neutral	1.0	dominance	234.60659595013385	
23.0	138.00091643119413	rating	2.0		295	28.0	male	white	3.9076800636689217	neutral	033	sub-04	2.0	1.0	033_neutral	1.0	dominance	234.7064884596366	2.4999458170623257
23.0	138.60102008813556	pulse	2.0	t		28.0	male	white	3.9076800636689217	neutral	033	sub-04	2.0	1.0	033_neutral	1.0	dominance	235.30659211657803	
23.0	139.30100236925864	pulse	2.0	t		28.0	male	white	3.9076800636689217	neutral	033	sub-04	2.0	1.0	033_neutral	1.0	dominance	236.00657439770112	
23.0	139.79577530048846	response	2.0	y		28.0	male	white	3.9076800636689217	neutral	033	sub-04	2.0	1.0	033_neutral	1.0	dominance	236.50134732893093	
23.0	140.0009855559456	pulse	2.0	t		28.0	male	white	3.9076800636689217	neutral	033	sub-04	2.0	1.0	033_neutral	1.0	dominance	236.70655758438807	
23.0	140.50086224825645	fix	3.0		443	28.0	male	white	3.9076800636689217	neutral	033	sub-04	2.0	1.0	033_neutral	1.0	dominance	237.20643427669893	3.766584431356023
23.0	140.70097145932596	pulse	3.0	t		28.0	male	white	3.9076800636689217	neutral	033	sub-04	2.0	1.0	033_neutral	1.0	dominance	237.40654348776843	
23.0	141.40095524972276	pulse	3.0	t		28.0	male	white	3.9076800636689217	neutral	033	sub-04	2.0	1.0	033_neutral	1.0	dominance	238.10652727816523	
23.0	142.10093753084584	pulse	3.0	t		28.0	male	white	3.9076800636689217	neutral	033	sub-04	2.0	1.0	033_neutral	1.0	dominance	238.80650955928832	
23.0	142.8009155860018	pulse	3.0	t		28.0	male	white	3.9076800636689217	neutral	033	sub-04	2.0	1.0	033_neutral	1.0	dominance	239.50648761444427	
23.0	143.50090752647884	pulse	3.0	t		28.0	male	white	3.9076800636689217	neutral	033	sub-04	2.0	1.0	033_neutral	1.0	dominance	240.20647955492132	
23.0	144.20088799647237	pulse	3.0	t		28.0	male	white	3.9076800636689217	neutral	033	sub-04	2.0	1.0	033_neutral	1.0	dominance	240.90646002491485	
24.0	144.26744667961248	face	0.0		146	20.0	male	black	3.1070433744528456	smiling	082	sub-04	2.0	1.0	082_smiling	1.0	attractiveness	240.97301870805495	1.2333108250259102
24.0	144.90088567219027	pulse	0.0	t		20.0	male	black	3.1070433744528456	smiling	082	sub-04	2.0	1.0	082_smiling	1.0	attractiveness	241.60645770063275	
24.0	145.5007575046384	fix	1.0		177	20.0	male	black	3.1070433744528456	smiling	082	sub-04	2.0	1.0	082_smiling	1.0	attractiveness	242.20632953308086	1.4999702673012507
24.0	145.60086916073305	pulse	1.0	t		20.0	male	black	3.1070433744528456	smiling	082	sub-04	2.0	1.0	082_smiling	1.0	attractiveness	242.30644118917553	
24.0	146.30085264927402	pulse	1.0	t		20.0	male	black	3.1070433744528456	smiling	082	sub-04	2.0	1.0	082_smiling	1.0	attractiveness	243.0064246777165	
24.0	147.00072777193964	rating	2.0		294	20.0	male	black	3.1070433744528456	smiling	082	sub-04	2.0	1.0	082_smiling	1.0	attractiveness	243.7062998003821	2.4999479300458916
24.0	146.99692289209452	pulse	2.0	t		20.0	male	black	3.1070433744528456	smiling	082	sub-04	2.0	1.0	082_smiling	1.0	attractiveness	243.702494920537	
24.0	147.70082717272817	pulse	2.0	t		20.0	male	black	3.1070433744528456	smiling	082	sub-04	2.0	1.0	082_smiling	1.0	attractiveness	244.40639920117064	
24.0	148.40081066127095	pulse	2.0	t		20.0	male	black	3.1070433744528456	smiling	082	sub-04	2.0	1.0	082_smiling	1.0	attractiveness	245.10638268971343	
24.0	148.93413196065922	response	2.0	e		20.0	male	black	3.1070433744528456	smiling	082	sub-04	2.0	1.0	082_smiling	1.0	attractiveness	245.6397039891017	
24.0	149.1007887164269	pulse	2.0	t		20.0	male	black	3.1070433744528456	smiling	082	sub-04	2.0	1.0	082_smiling	1.0	attractiveness	245.80636074486938	
24.0	149.50067570198553	fix	3.0		444	20.0	male	black	3.1070433744528456	smiling	082	sub-04	2.0	1.0	082_smiling	1.0	attractiveness	246.206247730428	3.766585035065873
24.0	149.80077794020872	pulse	3.0	t		20.0	male	black	3.1070433744528456	smiling	082	sub-04	2.0	1.0	082_smiling	1.0	attractiveness	246.5063499686512	
24.0	150.50075931576794	pulse	3.0	t		20.0	male	black	3.1070433744528456	smiling	082	sub-04	2.0	1.0	082_smiling	1.0	attractiveness	247.2063313442104	
24.0	151.20073948390745	pulse	3.0	t		20.0	male	black	3.1070433744528456	smiling	082	sub-04	2.0	1.0	082_smiling	1.0	attractiveness	247.90631151234993	
24.0	151.90073504664178	pulse	3.0	t		20.0	male	black	3.1070433744528456	smiling	082	sub-04	2.0	1.0	082_smiling	1.0	attractiveness	248.60630707508426	
24.0	152.6007124980879	pulse	3.0	t		20.0	male	black	3.1070433744528456	smiling	082	sub-04	2.0	1.0	082_smiling	1.0	attractiveness	249.30628452653036	
25.0	153.2672607370514	face	0.0		145	32.0	male	white	2.389176283326701	neutral	092	sub-04	2.0	1.0	092_neutral	0.0		249.97283276549388	1.2333072027686285
25.0	153.30072345541703	pulse	0.0	t		32.0	male	white	2.389176283326701	neutral	092	sub-04	2.0	1.0	092_neutral	0.0		250.0062954838595	
25.0	154.00069004008947	pulse	0.0	t		32.0	male	white	2.389176283326701	neutral	092	sub-04	2.0	1.0	092_neutral	0.0		250.70626206853194	
25.0	154.50056793982003	fix	1.0		443	32.0	male	white	2.389176283326701	neutral	092	sub-04	2.0	1.0	092_neutral	0.0		251.2061399682625	3.7583981289826625
25.0	154.7006780564534	pulse	1.0	t		32.0	male	white	2.389176283326701	neutral	092	sub-04	2.0	1.0	092_neutral	0.0		251.40625008489587	
25.0	155.4006606394305	pulse	1.0	t		32.0	male	white	2.389176283326701	neutral	092	sub-04	2.0	1.0	092_neutral	0.0		252.10623266787297	
25.0	156.1006417131357	pulse	1.0	t		32.0	male	white	2.389176283326701	neutral	092	sub-04	2.0	1.0	092_neutral	0.0		252.80621374157818	
25.0	156.8006318424832	pulse	1.0	t		32.0	male	white	2.389176283326701	neutral	092	sub-04	2.0	1.0	092_neutral	0.0		253.50620387092567	
25.0	157.50061502917015	pulse	1.0	t		32.0	male	white	2.389176283326701	neutral	092	sub-04	2.0	1.0	092_neutral	0.0		254.20618705761262	
25.0	158.20060153626036	pulse	1.0	t		32.0	male	white	2.389176283326701	neutral	092	sub-04	2.0	1.0	092_neutral	0.0		254.90617356470284	
26.0	158.2589660688027	face	0.0		147	31.0	female	west_asian	2.364902506963788	neutral	006	sub-04	2.0	1.0	006_neutral	0.0		254.96453809724517	1.2414959199795703
26.0	158.900595891575	pulse	0.0	t		31.0	female	west_asian	2.364902506963788	neutral	006	sub-04	2.0	1.0	006_neutral	0.0		255.60616792001747	
26.0	159.50046198878226	fix	1.0		443	31.0	female	west_asian	2.364902506963788	neutral	006	sub-04	2.0	1.0	006_neutral	0.0		256.20603401722474	3.766589864742855
26.0	159.60057575785868	pulse	1.0	t		31.0	female	west_asian	2.364902506963788	neutral	006	sub-04	2.0	1.0	006_neutral	0.0		256.30614778630115	
26.0	160.30056196309488	pulse	1.0	t		31.0	female	west_asian	2.364902506963788	neutral	006	sub-04	2.0	1.0	006_neutral	0.0		257.00613399153735	
26.0	161.00054756462123	pulse	1.0	t		31.0	female	west_asian	2.364902506963788	neutral	006	sub-04	2.0	1.0	006_neutral	0.0		257.7061195930637	
26.0	161.70053165687204	pulse	1.0	t		31.0	female	west_asian	2.364902506963788	neutral	006	sub-04	2.0	1.0	006_neutral	0.0		258.4061036853145	
26.0	162.40052601218667	pulse	1.0	t		31.0	female	west_asian	2.364902506963788	neutral	006	sub-04	2.0	1.0	006_neutral	0.0		259.10609804062915	
26.0	163.10049803024594	pulse	1.0	t		31.0	female	west_asian	2.364902506963788	neutral	006	sub-04	2.0	1.0	006_neutral	0.0		259.8060700586884	
27.0	163.26705185352512	face	0.0		146	21.0	male	east_asian/white	3.501790688420215	smiling	036	sub-04	2.0	1.0	036_smiling	1.0	attractiveness	259.9726238819676	1.233312334299626
27.0	163.8004914799967	pulse	0.0	t		21.0	male	east_asian/white	3.501790688420215	smiling	036	sub-04	2.0	1.0	036_smiling	1.0	attractiveness	260.5060635084392	
27.0	164.50036418782474	fix	1.0		176	21.0	male	east_asian/white	3.501790688420215	smiling	036	sub-04	2.0	1.0	036_smiling	1.0	attractiveness	261.2059362162672	1.4999669468998036
27.0	164.5083515678798	pulse	1.0	t		21.0	male	east_asian/white	3.501790688420215	smiling	036	sub-04	2.0	1.0	036_smiling	1.0	attractiveness	261.2139235963223	
27.0	165.20046057006584	pulse	1.0	t		21.0	male	east_asian/white	3.501790688420215	smiling	036	sub-04	2.0	1.0	036_smiling	1.0	attractiveness	261.9060325985083	
27.0	165.9004488882838	pulse	1.0	t		21.0	male	east_asian/white	3.501790688420215	smiling	036	sub-04	2.0	1.0	036_smiling	1.0	attractiveness	262.60602091672627	
27.0	166.00033113472455	rating	2.0		295	21.0	male	east_asian/white	3.501790688420215	smiling	036	sub-04	2.0	1.0	036_smiling	1.0	attractiveness	262.705903163167	2.4999479300440726
27.0	166.60043177311672	pulse	2.0	t		21.0	male	east_asian/white	3.501790688420215	smiling	036	sub-04	2.0	1.0	036_smiling	1.0	attractiveness	263.3060038015592	
27.0	167.3004318636722	pulse	2.0	t		21.0	male	east_asian/white	3.501790688420215	smiling	036	sub-04	2.0	1.0	036_smiling	1.0	attractiveness	264.0060038921147	
27.0	167.7587331878185	response	2.0	y		21.0	male	east_asian/white	3.501790688420215	smiling	036	sub-04	2.0	1.0	036_smiling	1.0	attractiveness	264.464305216261	
27.0	168.0004117299577	pulse	2.0	t		21.0	male	east_asian/white	3.501790688420215	smiling	036	sub-04	2.0	1.0	036_smiling	1.0	attractiveness	264.7059837584002	
27.0	168.50027906476862	fix	3.0		443	21.0	male	east_asian/white	3.501790688420215	smiling	036	sub-04	2.0	1.0	036_smiling	1.0	attractiveness	265.2058510932111	3.7665814128085913
27.0	168.7003891814038	pulse	3.0	t		21.0	male	east_asian/white	3.501790688420215	smiling	036	sub-04	2.0	1.0	036_smiling	1.0	attractiveness	265.4059612098463	
27.0	169.40036602914006	pulse	3.0	t		21.0	male	east_asian/white	3.501790688420215	smiling	036	sub-04	2.0	1.0	036_smiling	1.0	attractiveness	266.10593805758253	
27.0	170.10034861211716	pulse	3.0	t		21.0	male	east_asian/white	3.501790688420215	smiling	036	sub-04	2.0	1.0	036_smiling	1.0	attractiveness	266.80592064055963	
27.0	170.80033270436797	pulse	3.0	t		21.0	male	east_asian/white	3.501790688420215	smiling	036	sub-04	2.0	1.0	036_smiling	1.0	attractiveness	267.50590473281045	
27.0	171.50032705968442	pulse	3.0	t		21.0	male	east_asian/white	3.501790688420215	smiling	036	sub-04	2.0	1.0	036_smiling	1.0	attractiveness	268.2058990881269	
27.0	172.20031145379107	pulse	3.0	t		21.0	male	east_asian/white	3.501790688420215	smiling	036	sub-04	2.0	1.0	036_smiling	1.0	attractiveness	268.90588348223355	
28.0	172.2668604775772	face	0.0		146	40.0	male	white	1.868682849184242	smiling	172	sub-04	2.0	1.0	172_smiling	0.0		268.9724325060197	1.2333132398653106
28.0	172.90030158313857	pulse	0.0	t		40.0	male	white	1.868682849184242	smiling	172	sub-04	2.0	1.0	172_smiling	0.0		269.60587361158105	
28.0	173.50017371744252	fix	1.0		443	40.0	male	white	1.868682849184242	smiling	172	sub-04	2.0	1.0	172_smiling	0.0		270.205745745885	3.7583265893936186
28.0	173.60028658095507	pulse	1.0	t		40.0	male	white	1.868682849184242	smiling	172	sub-04	2.0	1.0	172_smiling	0.0		270.30585860939755	
28.0	174.3002646361092	pulse	1.0	t		40.0	male	white	1.868682849184242	smiling	172	sub-04	2.0	1.0	172_smiling	0.0		271.0058366645517	
28.0	175.00024872836184	pulse	1.0	t		40.0	male	white	1.868682849184242	smiling	172	sub-04	2.0	1.0	172_smiling	0.0		271.7058207568043	
28.0	175.7002331224685	pulse	1.0	t		40.0	male	white	1.868682849184242	smiling	172	sub-04	2.0	1.0	172_smiling	0.0		272.40580515091096	
28.0	176.40021510173574	pulse	1.0	t		40.0	male	white	1.868682849184242	smiling	172	sub-04	2.0	1.0	172_smiling	0.0		273.1057871301782	
28.0	177.1001997976964	pulse	1.0	t		40.0	male	white	1.868682849184242	smiling	172	sub-04	2.0	1.0	172_smiling	0.0		273.8057718261389	
29.0	177.25850030683614	face	0.0		147	31.0	female	west_asian	2.364902506963788	smiling	006	sub-04	2.0	1.0	006_smiling	0.0		273.9640723352786	1.24156957255218
29.0	177.80019777527014	pulse	0.0	t		31.0	female	west_asian	2.364902506963788	smiling	006	sub-04	2.0	1.0	006_smiling	0.0		274.5057698037126	
29.0	178.50006987938832	fix	1.0		444	31.0	female	west_asian	2.364902506963788	smiling	006	sub-04	2.0	1.0	006_smiling	0.0		275.2056419078308	3.7582761796402337
29.0	178.5076889965767	pulse	1.0	t		31.0	female	west_asian	2.364902506963788	smiling	006	sub-04	2.0	1.0	006_smiling	0.0		275.21326102501916	
29.0	179.20016837461117	pulse	1.0	t		31.0	female	west_asian	2.364902506963788	smiling	006	sub-04	2.0	1.0	006_smiling	0.0		275.90574040305364	
29.0	179.90015035388024	pulse	1.0	t		31.0	female	west_asian	2.364902506963788	smiling	006	sub-04	2.0	1.0	006_smiling	0.0		276.6057223823227	
29.0	180.60013022016392	pulse	1.0	t		31.0	female	west_asian	2.364902506963788	smiling	006	sub-04	2.0	1.0	006_smiling	0.0		277.3057022486064	
29.0	181.3001188402377	pulse	1.0	t		31.0	female	west_asian	2.364902506963788	smiling	006	sub-04	2.0	1.0	006_smiling	0.0		278.0056908686802	
29.0	182.00010564918193	pulse	1.0	t		31.0	female	west_asian	2.364902506963788	smiling	006	sub-04	2.0	1.0	006_smiling	0.0		278.7056776776244	
30.0	182.25834605902855	face	0.0		146	22.0	female	white	4.614007162753682	smiling	009	sub-04	2.0	1.0	009_smiling	0.0		278.96391808747103	1.2416169637581334
30.0	182.70009577853125	pulse	0.0	t		22.0	female	white	4.614007162753682	smiling	009	sub-04	2.0	1.0	009_smiling	0.0		279.4056678069737	
30.0	183.40007715408865	pulse	0.0	t		22.0	female	white	4.614007162753682	smiling	009	sub-04	2.0	1.0	009_smiling	0.0		280.1056491825311	
30.0	183.4999630227867	fix	1.0		444	22.0	female	white	4.614007162753682	smiling	009	sub-04	2.0	1.0	009_smiling	0.0		280.20553505122916	3.7665868461936043
30.0	184.10006366117887	pulse	1.0	t		22.0	female	white	4.614007162753682	smiling	009	sub-04	2.0	1.0	009_smiling	0.0		280.80563568962134	
30.0	184.80004322560853	pulse	1.0	t		22.0	female	white	4.614007162753682	smiling	009	sub-04	2.0	1.0	009_smiling	0.0		281.505615254051	
30.0	185.50006927567847	pulse	1.0	t		22.0	female	white	4.614007162753682	smiling	009	sub-04	2.0	1.0	009_smiling	0.0		282.20564130412095	
30.0	186.20002529543308	pulse	1.0	t		22.0	female	white	4.614007162753682	smiling	009	sub-04	2.0	1.0	009_smiling	0.0		282.90559732387555	
30.0	186.90000606728245	pulse	1.0	t		22.0	female	white	4.614007162753682	smiling	009	sub-04	2.0	1.0	009_smiling	0.0		283.6055780957249	
31.0	187.2665498689803	face	0.0		145	27.0	female	white	4.181058495821727	neutral	039	sub-04	2.0	1.0	039_neutral	0.0		283.97212189742277	1.2333099194620445
31.0	187.59999468735623	pulse	0.0	t		27.0	female	white	4.181058495821727	neutral	039	sub-04	2.0	1.0	039_neutral	0.0		284.3055667157987	
31.0	188.29997485549393	pulse	0.0	t		27.0	female	white	4.181058495821727	neutral	039	sub-04	2.0	1.0	039_neutral	0.0		285.0055468839364	
31.0	188.49985978844234	fix	1.0		444	27.0	female	white	4.181058495821727	neutral	039	sub-04	2.0	1.0	039_neutral	0.0		285.2054318168848	3.7582544460947247
31.0	188.99996257000385	pulse	1.0	t		27.0	female	white	4.181058495821727	neutral	039	sub-04	2.0	1.0	039_neutral	0.0		285.7055345984463	
31.0	189.6999409270138	pulse	1.0	t		27.0	female	white	4.181058495821727	neutral	039	sub-04	2.0	1.0	039_neutral	0.0		286.4055129554563	
31.0	190.39992894337774	pulse	1.0	t		27.0	female	white	4.181058495821727	neutral	039	sub-04	2.0	1.0	039_neutral	0.0		287.1055009718202	
31.0	191.09991031893696	pulse	1.0	t		27.0	female	white	4.181058495821727	neutral	039	sub-04	2.0	1.0	039_neutral	0.0		287.80548234737944	
31.0	191.79990135384833	pulse	1.0	t		27.0	female	white	4.181058495821727	neutral	039	sub-04	2.0	1.0	039_neutral	0.0		288.5054733822908	
32.0	192.25811423453706	face	0.0		146	28.0	female	white	5.676880222841227	neutral	124	sub-04	2.0	1.0	124_neutral	0.0		288.96368626297954	1.2416414139970584
32.0	192.49989027577794	pulse	0.0	t		28.0	female	white	5.676880222841227	neutral	124	sub-04	2.0	1.0	124_neutral	0.0		289.2054623042204	
32.0	193.19987799028786	pulse	0.0	t		28.0	female	white	5.676880222841227	neutral	124	sub-04	2.0	1.0	124_neutral	0.0		289.90545001873033	
32.0	193.49975564853412	fix	1.0		444	28.0	female	white	5.676880222841227	neutral	124	sub-04	2.0	1.0	124_neutral	0.0		290.2053276769766	3.7584083920464764
32.0	193.89986087511897	pulse	1.0	t		28.0	female	white	5.676880222841227	neutral	124	sub-04	2.0	1.0	124_neutral	0.0		290.60543290356145	
32.0	194.59984013769463	pulse	1.0	t		28.0	female	white	5.676880222841227	neutral	124	sub-04	2.0	1.0	124_neutral	0.0		291.3054121661371	
32.0	195.29982785220454	pulse	1.0	t		28.0	female	white	5.676880222841227	neutral	124	sub-04	2.0	1.0	124_neutral	0.0		292.005399880647	
32.0	195.9998164722765	pulse	1.0	t		28.0	female	white	5.676880222841227	neutral	124	sub-04	2.0	1.0	124_neutral	0.0		292.705388500719	
32.0	196.69980026267513	pulse	1.0	t		28.0	female	white	5.676880222841227	neutral	124	sub-04	2.0	1.0	124_neutral	0.0		293.4053722911176	
33.0	197.2581640405806	face	0.0		146	24.0	female	black	3.0955033824114606	neutral	099	sub-04	2.0	1.0	099_neutral	0.0		293.96373606902307	1.241489279173038
33.0	197.39978737347337	pulse	0.0	t		24.0	female	black	3.0955033824114606	neutral	099	sub-04	2.0	1.0	099_neutral	0.0		294.10535940191585	
33.0	198.09976814532274	pulse	0.0	t		24.0	female	black	3.0955033824114606	neutral	099	sub-04	2.0	1.0	099_neutral	0.0		294.8053401737652	
33.0	198.49965331975363	fix	1.0		444	24.0	female	black	3.0955033824114606	neutral	099	sub-04	2.0	1.0	099_neutral	0.0		295.2052253481961	3.7665832239363226
33.0	198.79976340620306	pulse	1.0	t		24.0	female	black	3.0955033824114606	neutral	099	sub-04	2.0	1.0	099_neutral	0.0		295.50533543464553	
33.0	199.49973482055248	pulse	1.0	t		24.0	female	black	3.0955033824114606	neutral	099	sub-04	2.0	1.0	099_neutral	0.0		296.20530684899495	
33.0	200.19971981836898	pulse	1.0	t		24.0	female	black	3.0955033824114606	neutral	099	sub-04	2.0	1.0	099_neutral	0.0		296.90529184681145	
33.0	200.8997051180395	pulse	1.0	t		24.0	female	black	3.0955033824114606	neutral	099	sub-04	2.0	1.0	099_neutral	0.0		297.60527714648197	
33.0	201.5996991715001	pulse	1.0	t		24.0	female	black	3.0955033824114606	neutral	099	sub-04	2.0	1.0	099_neutral	0.0		298.3052711999426	
34.0	202.26623654368996	face	0.0		145	21.0	male	black	2.969757262236371	smiling	137	sub-04	2.0	1.0	137_smiling	0.0		298.97180857213243	1.2333099194620445
34.0	202.29970016761945	pulse	0.0	t		21.0	male	black	2.969757262236371	smiling	137	sub-04	2.0	1.0	137_smiling	0.0		299.0052721960619	
34.0	202.99966373374446	pulse	0.0	t		21.0	male	black	2.969757262236371	smiling	137	sub-04	2.0	1.0	137_smiling	0.0		299.70523576218693	
34.0	203.499546463152	fix	1.0		443	21.0	male	black	2.969757262236371	smiling	137	sub-04	2.0	1.0	137_smiling	0.0		300.2051184915945	3.7665895628870203
34.0	203.69965627793135	pulse	1.0	t		21.0	male	black	2.969757262236371	smiling	137	sub-04	2.0	1.0	137_smiling	0.0		300.40522830637383	
34.0	204.39963644607087	pulse	1.0	t		21.0	male	black	2.969757262236371	smiling	137	sub-04	2.0	1.0	137_smiling	0.0		301.10520847451335	
34.0	205.09962114203154	pulse	1.0	t		21.0	male	black	2.969757262236371	smiling	137	sub-04	2.0	1.0	137_smiling	0.0		301.805193170474	
34.0	205.79960493242834	pulse	1.0	t		21.0	male	black	2.969757262236371	smiling	137	sub-04	2.0	1.0	137_smiling	0.0		302.5051769608708	
34.0	206.49959506177584	pulse	1.0	t		21.0	male	black	2.969757262236371	smiling	137	sub-04	2.0	1.0	137_smiling	0.0		303.2051670902183	
34.0	207.19957553176937	pulse	1.0	t		21.0	male	black	2.969757262236371	smiling	137	sub-04	2.0	1.0	137_smiling	0.0		303.90514756021184	
35.0	207.26613602603902	face	0.0		146	40.0	male	black	2.408674890569041	neutral	061	sub-04	2.0	1.0	061_neutral	0.0		303.9717080544815	1.233307504624463
35.0	207.89956928337597	pulse	0.0	t		40.0	male	black	2.408674890569041	neutral	061	sub-04	2.0	1.0	061_neutral	0.0		304.60514131181844	
35.0	208.49944353066348	fix	1.0		443	40.0	male	black	2.408674890569041	neutral	061	sub-04	2.0	1.0	061_neutral	0.0		305.20501555910596	3.7665853369198885
35.0	208.59955307377277	pulse	1.0	t		40.0	male	black	2.408674890569041	neutral	061	sub-04	2.0	1.0	061_neutral	0.0		305.30512510221524	
35.0	209.29953867529912	pulse	1.0	t		40.0	male	black	2.408674890569041	neutral	061	sub-04	2.0	1.0	061_neutral	0.0		306.0051107037416	
35.0	209.99951763601894	pulse	1.0	t		40.0	male	black	2.408674890569041	neutral	061	sub-04	2.0	1.0	061_neutral	0.0		306.7050896644614	
35.0	210.69949840786649	pulse	1.0	t		40.0	male	black	2.408674890569041	neutral	061	sub-04	2.0	1.0	061_neutral	0.0		307.40507043630896	
35.0	211.39949155576323	pulse	1.0	t		40.0	male	black	2.408674890569041	neutral	061	sub-04	2.0	1.0	061_neutral	0.0		308.1050635842057	
35.0	212.09947323317647	pulse	1.0	t		40.0	male	black	2.408674890569041	neutral	061	sub-04	2.0	1.0	061_neutral	0.0		308.80504526161894	
36.0	212.26602886758337	face	0.0		146	22.0	female	west_asian	3.8205332272184642	neutral	066	sub-04	2.0	1.0	066_neutral	0.0		308.97160089602585	1.2333114287357603
36.0	212.79946426808783	pulse	0.0	t		22.0	female	west_asian	3.8205332272184642	neutral	066	sub-04	2.0	1.0	066_neutral	0.0		309.5050362965303	
36.0	213.49934029631913	fix	1.0		444	22.0	female	west_asian	3.8205332272184642	neutral	066	sub-04	2.0	1.0	066_neutral	0.0		310.2049123247616	3.758320250442921
36.0	213.50699050455296	pulse	1.0	t		22.0	female	west_asian	3.8205332272184642	neutral	066	sub-04	2.0	1.0	066_neutral	0.0		310.21256253299543	
36.0	214.19944211194525	pulse	1.0	t		22.0	female	west_asian	3.8205332272184642	neutral	066	sub-04	2.0	1.0	066_neutral	0.0		310.9050141403877	
36.0	214.89941805411763	pulse	1.0	t		22.0	female	west_asian	3.8205332272184642	neutral	066	sub-04	2.0	1.0	066_neutral	0.0		311.6049900825601	
36.0	215.59940003338488	pulse	1.0	t		22.0	female	west_asian	3.8205332272184642	neutral	066	sub-04	2.0	1.0	066_neutral	0.0		312.30497206182736	
36.0	216.29938472934737	pulse	1.0	t		22.0	female	west_asian	3.8205332272184642	neutral	066	sub-04	2.0	1.0	066_neutral	0.0		313.00495675778984	
36.0	216.99937878280616	pulse	1.0	t		22.0	female	west_asian	3.8205332272184642	neutral	066	sub-04	2.0	1.0	066_neutral	0.0		313.70495081124864	
37.0	217.25766054676205	face	0.0		146	47.0	male	east_asian	2.171110226820533	neutral	024	sub-04	2.0	1.0	024_neutral	0.0		313.96323257520453	1.2415731948094617
37.0	217.69936589360623	pulse	0.0	t		47.0	male	east_asian	2.171110226820533	neutral	024	sub-04	2.0	1.0	024_neutral	0.0		314.4049379220487	
37.0	218.39934877843916	pulse	0.0	t		47.0	male	east_asian	2.171110226820533	neutral	024	sub-04	2.0	1.0	024_neutral	0.0		315.10492080688164	
37.0	218.49923374157152	fix	1.0		444	47.0	male	east_asian	2.171110226820533	neutral	024	sub-04	2.0	1.0	024_neutral	0.0		315.204805770014	3.7665868461936043
37.0	219.09933528552938	pulse	1.0	t		47.0	male	east_asian	2.171110226820533	neutral	024	sub-04	2.0	1.0	024_neutral	0.0		315.80490731397185	
37.0	219.79931213326563	pulse	1.0	t		47.0	male	east_asian	2.171110226820533	neutral	024	sub-04	2.0	1.0	024_neutral	0.0		316.5048841617081	
37.0	220.49929894220986	pulse	1.0	t		47.0	male	east_asian	2.171110226820533	neutral	024	sub-04	2.0	1.0	024_neutral	0.0		317.20487097065234	
37.0	221.19928726042963	pulse	1.0	t		47.0	male	east_asian	2.171110226820533	neutral	024	sub-04	2.0	1.0	024_neutral	0.0		317.9048592888721	
37.0	221.8992743712297	pulse	1.0	t		47.0	male	east_asian	2.171110226820533	neutral	024	sub-04	2.0	1.0	024_neutral	0.0		318.60484639967217	
38.0	222.26582058776512	face	0.0		145	37.0	male	white	3.898925586947871	smiling	101	sub-04	2.0	1.0	101_smiling	0.0		318.9713926162076	1.2333081083343131
38.0	222.59926148202794	pulse	0.0	t		37.0	male	white	3.898925586947871	smiling	101	sub-04	2.0	1.0	101_smiling	0.0		319.3048335104704	
38.0	223.2992422538773	pulse	0.0	t		37.0	male	white	3.898925586947871	smiling	101	sub-04	2.0	1.0	101_smiling	0.0		320.0048142823198	
38.0	223.49912869609943	fix	1.0		445	37.0	male	white	3.898925586947871	smiling	101	sub-04	2.0	1.0	101_smiling	0.0		320.2047007245419	3.7666125038522296
38.0	223.9992296665314	pulse	1.0	t		37.0	male	white	3.898925586947871	smiling	101	sub-04	2.0	1.0	101_smiling	0.0		320.70480169497387	
38.0	224.6992086272512	pulse	1.0	t		37.0	male	white	3.898925586947871	smiling	101	sub-04	2.0	1.0	101_smiling	0.0		321.4047806556937	
38.0	225.39920056772826	pulse	1.0	t		37.0	male	white	3.898925586947871	smiling	101	sub-04	2.0	1.0	101_smiling	0.0		322.10477259617073	
38.0	226.09917952844808	pulse	1.0	t		37.0	male	white	3.898925586947871	smiling	101	sub-04	2.0	1.0	101_smiling	0.0		322.80475155689055	
38.0	226.7991687522317	pulse	1.0	t		37.0	male	white	3.898925586947871	smiling	101	sub-04	2.0	1.0	101_smiling	0.0		323.5047407806742	
39.0	227.26574119995166	face	0.0		146	20.0	male	black	3.1070433744528456	neutral	082	sub-04	2.0	1.0	082_neutral	0.0		323.97131322839414	1.2416356787543918
39.0	227.49915918343504	pulse	0.0	t		20.0	male	black	3.1070433744528456	neutral	082	sub-04	2.0	1.0	082_neutral	0.0		324.2047312118775	
39.0	228.19914146455812	pulse	0.0	t		20.0	male	black	3.1070433744528456	neutral	082	sub-04	2.0	1.0	082_neutral	0.0		324.9047134930006	
39.0	228.50737687870605	fix	1.0		444	20.0	male	black	3.1070433744528456	neutral	082	sub-04	2.0	1.0	082_neutral	0.0		325.21294890714853	3.7499027272897365
39.0	228.89913159390562	pulse	1.0	t		20.0	male	black	3.1070433744528456	neutral	082	sub-04	2.0	1.0	082_neutral	0.0		325.6047036223481	
39.0	229.59911478059257	pulse	1.0	t		20.0	male	black	3.1070433744528456	neutral	082	sub-04	2.0	1.0	082_neutral	0.0		326.30468680903505	
39.0	230.29911577671373	pulse	1.0	t		20.0	male	black	3.1070433744528456	neutral	082	sub-04	2.0	1.0	082_neutral	0.0		327.0046878051562	
39.0	230.99908055025662	pulse	1.0	t		20.0	male	black	3.1070433744528456	neutral	082	sub-04	2.0	1.0	082_neutral	0.0		327.7046525786991	
39.0	231.6990691703304	pulse	1.0	t		20.0	male	black	3.1070433744528456	neutral	082	sub-04	2.0	1.0	082_neutral	0.0		328.4046411987729	
40.0	232.2572796059958	fix	0.0		720													328.96285163443827	5.9998738246904395
40.0	232.39905597927645	pulse	0.0	t														329.10462800771893	
40.0	233.0990352418503	pulse	0.0	t														329.80460727029276	
40.0	233.7990241637799	pulse	0.0	t														330.5045961922224	
40.0	234.49900312449972	pulse	0.0	t														331.2045751529422	
40.0	235.19899083900782	pulse	0.0	t														331.9045628674503	
40.0	235.89897462940462	pulse	0.0	t														332.6045466578471	
40.0	236.59896385318825	pulse	0.0	t														333.3045358816307	
40.0	237.29894583245732	pulse	0.0	t														334.0045178608998	
40.0	237.9989293209983	pulse	0.0	t														334.70450134944076	
