trial_nr	onset	event_type	phase	response	nr_frames	trial_type	stim_name	task_probe	onset_abs	duration
0.0	0.053395559883483656	baseline	0.0		701		baseline	0.0	32.89291970245472	5.848108315491345
0.0	0.7017137254701993	pulse	0.0	t			baseline	0.0	33.541237868041435	
0.0	1.401688158290881	pulse	0.0	t			baseline	0.0	34.24121230086212	
0.0	2.101666817091427	pulse	0.0	t			baseline	0.0	34.94119095966266	
0.0	2.801668115071152	pulse	0.0	t			baseline	0.0	35.64119225764239	
0.0	3.5016407367575084	pulse	0.0	t			baseline	0.0	36.341164879328744	
0.0	4.201634790199705	pulse	0.0	t			baseline	0.0	37.04115893277094	
0.0	4.901618278692013	pulse	0.0	t			baseline	0.0	37.74114242126325	
0.0	5.601614746980204	pulse	0.0	t			baseline	0.0	38.44113888955144	
0.0	5.901503875374829	ISI	1.0		0		baseline	0.0	38.741028017946064	0.12499996226802068
1.0	6.026503837642849	number	0.0		45	character	number-104.jpg	0.0	38.866027980214085	0.3749564195804851
1.0	6.301578916706376	pulse	0.0	t		character	number-104.jpg	0.0	39.14110305927761	
1.0	6.401460257223334	ISI	1.0		472	character	number-104.jpg	0.0	39.24098439979457	4.016636777919757
1.0	7.001604966854757	pulse	1.0	t		character	number-104.jpg	0.0	39.84112910942599	
1.0	7.701594492461481	pulse	1.0	t		character	number-104.jpg	0.0	40.54111863503272	
1.0	8.40157737724212	pulse	1.0	t		character	number-104.jpg	0.0	41.241101519813355	
1.0	9.101574449241753	pulse	1.0	t		character	number-104.jpg	0.0	41.94109859181299	
1.0	9.801551296908201	pulse	1.0	t		character	number-104.jpg	0.0	42.64107543947944	
2.0	10.418097035143091	limb	0.0		46	body	limb-41.jpg	0.0	43.25762117771433	0.38324658503074716
2.0	10.501474112400956	pulse	0.0	t		body	limb-41.jpg	0.0	43.34099825497219	
2.0	10.801343620173839	ISI	1.0		352	body	limb-41.jpg	0.0	43.640867762745074	3.0166485502925298
2.0	11.201462128728963	pulse	1.0	t		body	limb-41.jpg	0.0	44.0409862713002	
2.0	11.901451956191067	pulse	1.0	t		body	limb-41.jpg	0.0	44.7409760987623	
2.0	12.601434237260491	pulse	1.0	t		body	limb-41.jpg	0.0	45.44095837983173	
2.0	13.301455759573173	pulse	1.0	t		body	limb-41.jpg	0.0	46.14097990214441	
3.0	13.817992170466368	car	0.0		46	object	car-11.jpg	0.0	46.657516313037604	0.38331631370192554
3.0	14.00141359032932	pulse	0.0	t		object	car-11.jpg	0.0	46.84093773290056	
3.0	14.201308484168294	ISI	1.0		712	object	car-11.jpg	0.0	47.04083262673953	6.016615949874904
3.0	14.701396475110187	pulse	1.0	t		object	car-11.jpg	0.0	47.54092061768142	
3.0	15.401388113706616	pulse	1.0	t		object	car-11.jpg	0.0	48.24091225627785	
3.0	16.101376431890458	pulse	1.0	t		object	car-11.jpg	0.0	48.94090057446169	
3.0	16.801431158332207	pulse	1.0	t		object	car-11.jpg	0.0	49.64095530090344	
3.0	17.50141223197852	pulse	1.0	t		object	car-11.jpg	0.0	50.340936374549756	
3.0	18.20140296500813	pulse	1.0	t		object	car-11.jpg	0.0	51.040927107579364	
3.0	18.901392490614626	pulse	1.0	t		object	car-11.jpg	0.0	51.74091663318586	
3.0	19.60139167560419	pulse	1.0	t		object	car-11.jpg	0.0	52.44091581817543	
4.0	20.217924434043198	limb	0.0		46	body	limb-138.jpg	0.0	53.05744857661443	0.3832610741053486
4.0	20.301307850271087	pulse	0.0	t		body	limb-138.jpg	0.0	53.14083199284232	
4.0	20.601185508148546	ISI	1.0		353	body	limb-138.jpg	0.0	53.44070965071978	3.016649757715413
4.0	21.001293451753327	pulse	1.0	t		body	limb-138.jpg	0.0	53.84081759432456	
4.0	21.701279958802843	pulse	1.0	t		body	limb-138.jpg	0.0	54.54080410137408	
4.0	22.40126857884229	pulse	1.0	t		body	limb-138.jpg	0.0	55.24079272141353	
4.0	23.10125055805588	pulse	1.0	t		body	limb-138.jpg	0.0	55.94077470062712	
5.0	23.61783526586396	adult	0.0		46	face	adult-86.jpg	0.0	56.457359408435195	0.3832927689556982
5.0	23.80124340407542	pulse	0.0	t		face	adult-86.jpg	0.0	56.64076754664666	
5.0	24.001128034819658	ISI	1.0		231	face	adult-86.jpg	0.0	56.84065217739089	2.0166633412229658
5.0	24.501222968443244	pulse	1.0	t		face	adult-86.jpg	0.0	57.34074711101448	
5.0	25.2012426796216	pulse	1.0	t		face	adult-86.jpg	0.0	58.040766822192836	
5.0	25.901220734710932	pulse	1.0	t		face	adult-86.jpg	0.0	58.74074487728217	
6.0	26.017791376042624	limb	0.0		46	body	limb-15.jpg	0.0	58.85731551861386	0.3833166155575327
6.0	26.401107991600156	ISI	1.0		233	body	limb-15.jpg	0.0	59.24063213417139	2.0166745098842966
6.0	26.601244370013546	pulse	1.0	t		body	limb-15.jpg	0.0	59.44076851258478	
6.0	27.301257138510437	pulse	1.0	t		body	limb-15.jpg	0.0	60.14078128108167	
6.0	28.001232476898394	pulse	1.0	t		body	limb-15.jpg	0.0	60.84075661946963	
7.0	28.417782501484453	number	0.0		46	character	number-134.jpg	0.0	61.25730664405569	0.3833190304032996
7.0	28.70116706476415	pulse	0.0	t		character	number-134.jpg	0.0	61.540691207335385	
7.0	28.801101531887753	ISI	1.0		231	character	number-134.jpg	0.0	61.64062567445899	2.016605988636229
7.0	29.401283067916665	pulse	1.0	t		character	number-134.jpg	0.0	62.2408072104879	
7.0	30.10113313618149	pulse	1.0	t		character	number-134.jpg	0.0	62.940657278752724	
8.0	30.81770752052398	house	0.0		45	place	house-5.jpg	0.0	63.65723166309522	0.38329367452297447
8.0	30.80937449156181	pulse	0.0	t		place	house-5.jpg	0.0	63.64889863413305	
8.0	31.201001195046956	ISI	1.0		234	place	house-5.jpg	0.0	64.04052533761819	2.016668170914272
8.0	31.501107659558784	pulse	1.0	t		place	house-5.jpg	0.0	64.34063180213002	
8.0	32.201094770319514	pulse	1.0	t		place	house-5.jpg	0.0	65.04061891289075	
8.0	32.90108489963768	pulse	1.0	t		place	house-5.jpg	0.0	65.74060904220892	
9.0	33.21766936596123	limb	0.0		46	body	limb-80.jpg	0.0	66.05719350853246	0.3832954856570723
9.0	33.6009648516183	ISI	1.0		233	body	limb-80.jpg	0.0	66.44048899418954	2.01669322493899
9.0	33.654489605749404	pulse	1.0	t		body	limb-80.jpg	0.0	66.49401374832064	
9.0	34.301058819303535	pulse	1.0	t		body	limb-80.jpg	0.0	67.14058296187477	
9.0	35.001124412551235	pulse	1.0	t		body	limb-80.jpg	0.0	67.84064855512247	
10.0	35.61765807655729	adult	0.0		46	face	adult-93.jpg	0.0	68.45718221912853	0.38326047039390687
10.0	35.70103394639227	pulse	0.0	t		face	adult-93.jpg	0.0	68.54055808896351	
10.0	36.0009185469512	ISI	1.0		234	face	adult-93.jpg	0.0	68.84044268952243	2.0166370797753643
10.0	36.40103192395895	pulse	1.0	t		face	adult-93.jpg	0.0	69.24055606653019	
10.0	37.101006356779635	pulse	1.0	t		face	adult-93.jpg	0.0	69.94053049935087	
10.0	37.80099739166485	pulse	1.0	t		face	adult-93.jpg	0.0	70.64052153423609	
11.0	38.01755562672656	limb	0.0		46	body	limb-65.jpg	0.0	70.8570797692978	0.383319634114514
11.0	38.400875260841076	ISI	1.0		593	body	limb-65.jpg	0.0	71.24039940341231	5.016625911113806
11.0	38.500987822838624	pulse	1.0	t		body	limb-65.jpg	0.0	71.34051196540986	
11.0	39.20097251875359	pulse	1.0	t		body	limb-65.jpg	0.0	72.04049666132482	
11.0	39.90095812023583	pulse	1.0	t		body	limb-65.jpg	0.0	72.74048226280706	
11.0	40.60095670151395	pulse	1.0	t		body	limb-65.jpg	0.0	73.44048084408519	
11.0	41.300965545886584	pulse	1.0	t		body	limb-65.jpg	0.0	74.14048968845782	
11.0	42.00099129417936	pulse	1.0	t		body	limb-65.jpg	0.0	74.8405154367506	
11.0	42.700982932776014	pulse	1.0	t		body	limb-65.jpg	0.0	75.54050707534725	
12.0	43.41750117195488	number	0.0		45	character	number-88.jpg	0.0	76.25702531452612	0.383302730194373
12.0	43.409156974331154	pulse	0.0	t		character	number-88.jpg	0.0	76.24868111690239	
12.0	43.800803902149255	ISI	1.0		229	character	number-88.jpg	0.0	76.64032804472049	2.0166633412229658
12.0	44.100956550586034	pulse	1.0	t		character	number-88.jpg	0.0	76.94048069315727	
12.0	44.80092887041678	pulse	1.0	t		character	number-88.jpg	0.0	77.64045301298802	
12.0	45.50092986654067	pulse	1.0	t		character	number-88.jpg	0.0	78.34045400911191	
13.0	45.81746724337222	adult	0.0		46	face	adult-69.jpg	0.0	78.65699138594346	0.38327224276690686
13.0	46.20073948613913	ISI	1.0		593	face	adult-69.jpg	0.0	79.04026362871036	5.016598744098928
13.0	46.25369373296212	pulse	1.0	t		face	adult-69.jpg	0.0	79.09321787553336	
13.0	46.900840698361435	pulse	1.0	t		face	adult-69.jpg	0.0	79.74036484093267	
13.0	47.60082358314207	pulse	1.0	t		face	adult-69.jpg	0.0	80.44034772571331	
13.0	48.30080797720143	pulse	1.0	t		face	adult-69.jpg	0.0	81.14033211977267	
13.0	49.000802030643854	pulse	1.0	t		face	adult-69.jpg	0.0	81.84032617321509	
13.0	49.700830193782394	pulse	1.0	t		face	adult-69.jpg	0.0	82.54035433635363	
13.0	50.40077444103122	pulse	1.0	t		face	adult-69.jpg	0.0	83.24029858360245	
13.0	51.10076275921483	pulse	1.0	t		face	adult-69.jpg	0.0	83.94028690178607	
14.0	51.217338230238056	number	0.0		46	character	number-113.jpg	0.0	84.05686237280929	0.3833117858659989
14.0	51.600650016104055	ISI	1.0		233	character	number-113.jpg	0.0	84.44017415867529	2.016695639784757
14.0	51.80075711451309	pulse	1.0	t		character	number-113.jpg	0.0	84.64028125708433	
14.0	52.50083085786491	pulse	1.0	t		character	number-113.jpg	0.0	85.34035500043615	
14.0	53.2008037814071	pulse	1.0	t		character	number-113.jpg	0.0	86.04032792397834	
15.0	53.61734565588881	car	0.0		46	object	car-46.jpg	0.0	86.45686979846005	0.3832586592595817
15.0	53.90075285834746	pulse	0.0	t		object	car-46.jpg	0.0	86.7402770009187	
15.0	54.000604315148394	ISI	1.0		232	object	car-46.jpg	0.0	86.84012845771963	2.0166591152426463
15.0	54.600702840854865	pulse	1.0	t		object	car-46.jpg	0.0	87.4402269834261	
15.0	55.300692970172804	pulse	1.0	t		object	car-46.jpg	0.0	88.14021711274404	
16.0	56.01726343039104	house	0.0		45	place	house-21.jpg	0.0	88.85678757296228	0.3833060506074162
16.0	56.00904269175612	pulse	0.0	t		place	house-21.jpg	0.0	88.84856683432736	
16.0	56.400569480998456	ISI	1.0		232	place	house-21.jpg	0.0	89.24009362356969	2.0166585115312046
16.0	56.700671417674585	pulse	1.0	t		place	house-21.jpg	0.0	89.54019556024582	
16.0	57.400672413798475	pulse	1.0	t		place	house-21.jpg	0.0	90.24019655636971	
16.0	58.10063869651458	pulse	1.0	t		place	house-21.jpg	0.0	90.94016283908581	
17.0	58.41722799252966	limb	0.0		46	body	limb-10.jpg	0.0	91.2567521351009	0.38329397637858165
17.0	58.80052196890824	ISI	1.0		232	body	limb-10.jpg	0.0	91.64004611147948	2.0250021054437184
17.0	58.86543241888171	pulse	1.0	t		body	limb-10.jpg	0.0	91.70495656145295	
17.0	59.500615936593476	pulse	1.0	t		body	limb-10.jpg	0.0	92.34014007916471	
17.0	60.20067458715948	pulse	1.0	t		body	limb-10.jpg	0.0	93.04019872973072	
18.0	60.82552407435196	number	0.0		45	character	number-32.jpg	0.0	93.6650482169232	0.37499566082396996
18.0	60.900623965955674	pulse	0.0	t		character	number-32.jpg	0.0	93.74014810852691	
18.0	61.20051973517593	ISI	1.0		232	character	number-32.jpg	0.0	94.04004387774717	2.0166591152428737
18.0	61.60064458270108	pulse	1.0	t		character	number-32.jpg	0.0	94.44016872527231	
18.0	62.300631995317644	pulse	1.0	t		character	number-32.jpg	0.0	95.14015613788888	
18.0	63.00065623433193	pulse	1.0	t		character	number-32.jpg	0.0	95.84018037690316	
19.0	63.217178850418804	adult	0.0		46	face	adult-37.jpg	0.0	96.05670299299004	0.38326258338383923
19.0	63.600441433802644	ISI	1.0		474	face	adult-37.jpg	0.0	96.43996557637388	4.01661323317353
19.0	63.70055278837708	pulse	1.0	t		face	adult-37.jpg	0.0	96.54007693094832	
19.0	64.40055982161539	pulse	1.0	t		face	adult-37.jpg	0.0	97.24008396418662	
19.0	65.10052278391868	pulse	1.0	t		face	adult-37.jpg	0.0	97.94004692648991	
19.0	65.80050174457529	pulse	1.0	t		face	adult-37.jpg	0.0	98.64002588714652	
19.0	66.50049368502755	pulse	1.0	t		face	adult-37.jpg	0.0	99.34001782759879	
19.0	67.20048864403702	pulse	1.0	t		face	adult-37.jpg	0.0	100.04001278660826	
20.0	67.61705466697617	car	0.0		46	object	car-48.jpg	0.0	100.45657880954741	0.38330212648315864
20.0	67.90047786778791	pulse	0.0	t		object	car-48.jpg	0.0	100.74000201035915	
20.0	68.00035679345933	ISI	1.0		353	object	car-48.jpg	0.0	100.83988093603057	3.0166911119488304
20.0	68.60046920452874	pulse	1.0	t		object	car-48.jpg	0.0	101.43999334709997	
20.0	69.30053147736339	pulse	1.0	t		object	car-48.jpg	0.0	102.14005561993463	
20.0	70.00050983430856	pulse	1.0	t		object	car-48.jpg	0.0	102.8400339768798	
20.0	70.70049090795487	pulse	1.0	t		object	car-48.jpg	0.0	103.54001505052611	
21.0	71.01704790540816	car	0.0		46	object	car-91.jpg	0.0	103.8565720479794	0.3832562444138148
21.0	71.40030414982198	ISI	1.0		231	object	car-91.jpg	0.0	104.23982829239321	2.016650361426855
21.0	71.46641568369887	pulse	1.0	t		object	car-91.jpg	0.0	104.3059398262701	
21.0	72.10042830307884	pulse	1.0	t		object	car-91.jpg	0.0	104.93995244565008	
21.0	72.80038945424803	pulse	1.0	t		object	car-91.jpg	0.0	105.63991359681927	
22.0	73.41695451124883	car	0.0		46	object	car-84.jpg	0.0	106.25647865382007	0.3833060506074162
22.0	73.50036811304858	pulse	0.0	t		object	car-84.jpg	0.0	106.33989225561982	
22.0	73.80026056185625	ISI	1.0		953	object	car-84.jpg	0.0	106.63978470442748	8.016582142034622
22.0	74.20037273144112	pulse	1.0	t		object	car-84.jpg	0.0	107.03989687401236	
22.0	74.90036225704785	pulse	1.0	t		object	car-84.jpg	0.0	107.73988639961908	
22.0	75.60034514182848	pulse	1.0	t		object	car-84.jpg	0.0	108.43986928439972	
22.0	76.30033466743498	pulse	1.0	t		object	car-84.jpg	0.0	109.13985881000622	
22.0	77.00030366685269	pulse	1.0	t		object	car-84.jpg	0.0	109.83982780942392	
22.0	77.70038284360771	pulse	1.0	t		object	car-84.jpg	0.0	110.53990698617895	
22.0	78.40035335230414	pulse	1.0	t		object	car-84.jpg	0.0	111.23987749487537	
22.0	79.10034831131361	pulse	1.0	t		object	car-84.jpg	0.0	111.93987245388485	
22.0	79.80035081671599	pulse	1.0	t		object	car-84.jpg	0.0	112.63987495928723	
22.0	80.50041520254081	pulse	1.0	t		object	car-84.jpg	0.0	113.33993934511204	
22.0	81.20034556442647	pulse	1.0	t		object	car-84.jpg	0.0	114.0398697069977	
23.0	81.81684270389087	number	0.0		46	character	number-78.jpg	0.0	114.6563668464621	0.3832737520453975
23.0	81.90023879805881	pulse	0.0	t		character	number-78.jpg	0.0	114.73976294063004	
23.0	82.20011645593627	ISI	1.0		234	character	number-78.jpg	0.0	115.0396405985075	2.0166633412227384
23.0	82.60023587005844	pulse	1.0	t		character	number-78.jpg	0.0	115.43976001262968	
23.0	83.3002069824663	pulse	1.0	t		character	number-78.jpg	0.0	116.13973112503754	
23.0	84.0002037526101	pulse	1.0	t		character	number-78.jpg	0.0	116.83972789518134	
24.0	84.216779797159	car	0.0		46	object	car-109.jpg	0.0	117.05630393973024	0.38330544689597446
24.0	84.60008524405498	ISI	1.0		473	object	car-109.jpg	0.0	117.43960938662622	4.024983994100467
24.0	84.70019176893788	pulse	1.0	t		object	car-109.jpg	0.0	117.53971591150912	
24.0	85.40016952217161	pulse	1.0	t		object	car-109.jpg	0.0	118.23969366474284	
24.0	86.10016538674813	pulse	1.0	t		object	car-109.jpg	0.0	118.93968952931937	
24.0	86.80014917709605	pulse	1.0	t		object	car-109.jpg	0.0	119.63967331966728	
24.0	87.50012813775265	pulse	1.0	t		object	car-109.jpg	0.0	120.33965228032389	
24.0	88.20018648646283	pulse	1.0	t		object	car-109.jpg	0.0	121.03971062903406	
25.0	88.62506923815545	car	0.0		45	object	car-59.jpg	0.0	121.46459338072668	0.37496155112785345
25.0	88.90014793948762	pulse	0.0	t		object	car-59.jpg	0.0	121.73967208205886	
25.0	89.0000307892833	ISI	1.0		233	object	car-59.jpg	0.0	121.83955493185454	2.0166621338000823
25.0	89.60019149726782	pulse	1.0	t		object	car-59.jpg	0.0	122.43971563983905	
25.0	90.3001496298798	pulse	1.0	t		object	car-59.jpg	0.0	123.13967377245103	
26.0	91.01669292308338	adult	0.0		45	face	adult-138.jpg	0.0	123.85621706565462	0.38329639122434855
26.0	91.00833936793242	pulse	0.0	t		face	adult-138.jpg	0.0	123.84786351050366	
26.0	91.39998931430773	ISI	1.0		232	face	adult-138.jpg	0.0	124.23951345687897	2.0166524744167873
26.0	91.70015373511751	pulse	1.0	t		face	adult-138.jpg	0.0	124.53967787768875	
26.0	92.40011639556519	pulse	1.0	t		face	adult-138.jpg	0.0	125.23964053813643	
26.0	93.10010139333599	pulse	1.0	t		face	adult-138.jpg	0.0	125.93962553590723	
27.0	93.41664178872452	number	0.0		46	character	number-65.jpg	0.0	126.25616593129575	0.38327375204562486
27.0	93.79991554077014	ISI	1.0		233	character	number-65.jpg	0.0	126.63943968334138	2.0166624356556895
27.0	93.85472770953993	pulse	1.0	t		character	number-65.jpg	0.0	126.69425185211117	
27.0	94.50002309196248	pulse	1.0	t		character	number-65.jpg	0.0	127.33954723453371	
27.0	95.19998092271862	pulse	1.0	t		character	number-65.jpg	0.0	128.03950506528986	
28.0	95.81657797642583	car	0.0		46	object	car-113.jpg	0.0	128.65610211899707	0.38330725803007226
28.0	95.90000455802146	pulse	0.0	t		object	car-113.jpg	0.0	128.7395287005927	
28.0	96.1998852344559	ISI	1.0		353	object	car-113.jpg	0.0	129.03940937702714	3.0166364760639226
28.0	96.59998502795656	pulse	1.0	t		object	car-113.jpg	0.0	129.4395091705278	
28.0	97.29996821459304	pulse	1.0	t		object	car-113.jpg	0.0	130.13949235716427	
28.0	97.9999692107167	pulse	1.0	t		object	car-113.jpg	0.0	130.83949335328793	
28.0	98.69996084931336	pulse	1.0	t		object	car-113.jpg	0.0	131.5394849918846	
29.0	99.21652171051983	number	0.0		46	character	number-133.jpg	0.0	132.05604585309106	0.3833190304032996
29.0	99.39992924501962	pulse	0.0	t		character	number-133.jpg	0.0	132.23945338759086	
29.0	99.59984074092313	ISI	1.0		352	character	number-133.jpg	0.0	132.43936488349436	3.0249770514190004
29.0	100.09998759373002	pulse	1.0	t		character	number-133.jpg	0.0	132.93951173630126	
29.0	100.79997017665505	pulse	1.0	t		character	number-133.jpg	0.0	133.6394943192263	
29.0	101.4999542688588	pulse	1.0	t		character	number-133.jpg	0.0	134.33947841143004	
29.0	102.19994439817674	pulse	1.0	t		character	number-133.jpg	0.0	135.03946854074798	
30.0	102.62481779234213	limb	0.0		45	body	limb-61.jpg	0.0	135.46434193491336	0.3749811717495959
30.0	102.89989890852007	pulse	0.0	t		body	limb-61.jpg	0.0	135.7394230510913	
30.0	102.99979896409172	ISI	1.0		352	body	limb-61.jpg	0.0	135.83932310666296	3.0166180628650636
30.0	103.59994880527029	pulse	1.0	t		body	limb-61.jpg	0.0	136.43947294784152	
30.0	104.2999181065436	pulse	1.0	t		body	limb-61.jpg	0.0	137.13944224911484	
30.0	104.99989253936428	pulse	1.0	t		body	limb-61.jpg	0.0	137.83941668193552	
30.0	105.69988387610533	pulse	1.0	t		body	limb-61.jpg	0.0	138.53940801867657	
31.0	106.01641702695679	car	0.0		46	object	car-20.jpg	0.0	138.85594116952802	0.3832870336968881
31.0	106.39970406065368	ISI	1.0		235	object	car-20.jpg	0.0	139.2392282032249	2.0166591152428737
31.0	106.43432781712136	pulse	1.0	t		object	car-20.jpg	0.0	139.2738519596926	
31.0	107.09979651906042	pulse	1.0	t		object	car-20.jpg	0.0	139.93932066163165	
31.0	107.79978212054266	pulse	1.0	t		object	car-20.jpg	0.0	140.6393062631139	
32.0	108.41636317589655	limb	0.0		46	body	limb-76.jpg	0.0	141.25588731846779	0.38328401513990684
32.0	108.49976983501483	pulse	0.0	t		body	limb-76.jpg	0.0	141.33929397758607	
32.0	108.79964719103646	ISI	1.0		231	body	limb-76.jpg	0.0	141.6391713336077	2.016667869058665
32.0	109.19978501835749	pulse	1.0	t		body	limb-76.jpg	0.0	142.03930916092872	
32.0	109.89974013241203	pulse	1.0	t		body	limb-76.jpg	0.0	142.73926427498327	
32.0	110.59974082668032	pulse	1.0	t		body	limb-76.jpg	0.0	143.43926496925155	
33.0	110.81631506009512	house	0.0		46	place	house-38.jpg	0.0	143.65583920266636	0.38329971163716436
33.0	111.19961477173229	ISI	1.0		233	place	house-38.jpg	0.0	144.03913891430352	2.01665790781999
33.0	111.29974544507286	pulse	1.0	t		place	house-38.jpg	0.0	144.1392695876441	
33.0	111.99969572943587	pulse	1.0	t		place	house-38.jpg	0.0	144.8392198720071	
33.0	112.69975770041492	pulse	1.0	t		place	house-38.jpg	0.0	145.53928184298616	
34.0	113.21627267955228	house	0.0		46	place	house-143.jpg	0.0	146.0557968221235	0.3832963912241212
34.0	113.39969651426077	pulse	0.0	t		place	house-143.jpg	0.0	146.239220656832	
34.0	113.5995690707764	ISI	1.0		233	place	house-143.jpg	0.0	146.43909321334763	2.0166648505014564
34.0	114.09970475492196	pulse	1.0	t		place	house-143.jpg	0.0	146.9392288974932	
34.0	114.7996625856781	pulse	1.0	t		place	house-143.jpg	0.0	147.63918672824934	
34.0	115.49965030015028	pulse	1.0	t		place	house-143.jpg	0.0	148.33917444272151	
35.0	115.61623392127785	number	0.0		46	character	number-69.jpg	0.0	148.4557580638491	0.3832969949357903
35.0	115.99953091621364	ISI	1.0		469	character	number-69.jpg	0.0	148.83905505878488	4.016658813387039
35.0	116.19967604844305	pulse	1.0	t		character	number-69.jpg	0.0	149.0392001910143	
35.0	116.89962271053764	pulse	1.0	t		character	number-69.jpg	0.0	149.73914685310888	
35.0	117.59960680274139	pulse	1.0	t		character	number-69.jpg	0.0	150.43913094531263	
35.0	118.2995921023678	pulse	1.0	t		character	number-69.jpg	0.0	151.13911624493903	
35.0	118.99955838508413	pulse	1.0	t		character	number-69.jpg	0.0	151.83908252765536	
35.0	119.69965597503779	pulse	1.0	t		character	number-69.jpg	0.0	152.53918011760902	
36.0	120.01618972960068	adult	0.0		46	face	adult-126.jpg	0.0	152.85571387217192	0.3832637908067227
36.0	120.3994535204074	ISI	1.0		233	face	adult-126.jpg	0.0	153.23897766297864	2.016665454212898
36.0	120.4515281596673	pulse	1.0	t		face	adult-126.jpg	0.0	153.29105230223854	
36.0	121.09955654376427	pulse	1.0	t		face	adult-126.jpg	0.0	153.9390806863355	
36.0	121.7995349007092	pulse	1.0	t		face	adult-126.jpg	0.0	154.63905904328044	
37.0	122.4161189746203	house	0.0		46	place	house-59.jpg	0.0	155.25564311719154	0.38329125967720756
37.0	122.49957966591228	pulse	0.0	t		place	house-59.jpg	0.0	155.33910380848351	
37.0	122.79941023429751	ISI	1.0		473	place	house-59.jpg	0.0	155.63893437686875	4.016658511531432
37.0	123.1994973498579	pulse	1.0	t		place	house-59.jpg	0.0	156.03902149242913	
37.0	123.89950498680741	pulse	1.0	t		place	house-59.jpg	0.0	156.73902912937865	
37.0	124.59948424931963	pulse	1.0	t		place	house-59.jpg	0.0	157.43900839189087	
37.0	125.29947528420462	pulse	1.0	t		place	house-59.jpg	0.0	158.13899942677585	
37.0	125.99945847084109	pulse	1.0	t		place	house-59.jpg	0.0	158.83898261341233	
37.0	126.69951923439748	pulse	1.0	t		place	house-59.jpg	0.0	159.53904337696872	
38.0	126.81606874582894	number	0.0		46	character	number-86.jpg	0.0	159.65559288840018	0.3832637908067227
38.0	127.19933253663567	ISI	1.0		353	character	number-86.jpg	0.0	160.0388566792069	3.016640098332573
38.0	127.39944386102434	pulse	1.0	t		character	number-86.jpg	0.0	160.23896800359557	
38.0	128.0994270476608	pulse	1.0	t		character	number-86.jpg	0.0	160.93895119023205	
38.0	128.79941989368035	pulse	1.0	t		character	number-86.jpg	0.0	161.6389440362516	
38.0	129.49937863000378	pulse	1.0	t		character	number-86.jpg	0.0	162.338902772575	
39.0	130.21597263496824	adult	0.0		45	face	adult-100.jpg	0.0	163.05549677753947	0.38330152277148954
39.0	130.20770480684132	pulse	0.0	t		face	adult-100.jpg	0.0	163.04722894941256	
39.0	130.59927415773973	ISI	1.0		356	face	adult-100.jpg	0.0	163.43879830031096	3.0166627375110693
39.0	130.89940416699756	pulse	1.0	t		face	adult-100.jpg	0.0	163.7389283095688	
39.0	131.59936712930084	pulse	1.0	t		face	adult-100.jpg	0.0	164.43889127187208	
39.0	132.29937023841467	pulse	1.0	t		face	adult-100.jpg	0.0	165.1388943809859	
39.0	132.99940926835916	pulse	1.0	t		face	adult-100.jpg	0.0	165.8389334109304	
40.0	133.6159368952508	adult	0.0		46	face	adult-100.jpg	1.0	166.45546103782203	0.38328642998567375
40.0	133.69932785787205	pulse	0.0	t		face	adult-100.jpg	1.0	166.53885200044328	
40.0	133.99922332523647	ISI	1.0		233	face	adult-100.jpg	1.0	166.8387474678077	2.0166388909096895
40.0	134.20766103776214	response	1.0	b		face	adult-100.jpg	1.0	167.04718518033337	
40.0	134.39932040203576	pulse	1.0	t		face	adult-100.jpg	1.0	167.238844544607	
40.0	135.09931022949786	pulse	1.0	t		face	adult-100.jpg	1.0	167.9388343720691	
40.0	135.79928919015447	pulse	1.0	t		face	adult-100.jpg	1.0	168.6388133327257	
41.0	136.01586221614616	house	0.0		46	place	house-113.jpg	0.0	168.8553863587174	0.38332204896050825
41.0	136.39918426510667	ISI	1.0		231	place	house-113.jpg	0.0	169.2387084076779	2.0166373816309715
41.0	136.49928626215387	pulse	1.0	t		place	house-113.jpg	0.0	169.3388104047251	
41.0	137.19926884507913	pulse	1.0	t		place	house-113.jpg	0.0	170.03879298765037	
41.0	137.89925806883002	pulse	1.0	t		place	house-113.jpg	0.0	170.73878221140126	
42.0	138.41582164673764	limb	0.0		46	body	limb-124.jpg	0.0	171.25534578930888	0.38330876730879027
42.0	138.5992418591777	pulse	0.0	t		body	limb-124.jpg	0.0	171.43876600174895	
42.0	138.79913041404643	ISI	1.0		233	body	limb-124.jpg	0.0	171.63865455661767	2.01666968019299
42.0	139.29923259220732	pulse	1.0	t		body	limb-124.jpg	0.0	172.13875673477855	
42.0	139.99928399823602	pulse	1.0	t		body	limb-124.jpg	0.0	172.83880814080726	
42.0	140.69928771106152	pulse	1.0	t		body	limb-124.jpg	0.0	173.53881185363275	
43.0	140.81580009423942	house	0.0		47	place	house-87.jpg	0.0	173.65532423681066	0.3916221756494451
43.0	141.20742226988887	ISI	1.0		713	place	house-87.jpg	0.0	174.0469464124601	6.016633457506487
43.0	141.39919724490255	pulse	1.0	t		place	house-87.jpg	0.0	174.2387213874738	
43.0	142.09918495937472	pulse	1.0	t		place	house-87.jpg	0.0	174.93870910194596	
43.0	142.79919108704598	pulse	1.0	t		place	house-87.jpg	0.0	175.63871522961722	
43.0	143.49915072893646	pulse	1.0	t		place	house-87.jpg	0.0	176.3386748715077	
43.0	144.19914629165714	pulse	1.0	t		place	house-87.jpg	0.0	177.03867043422838	
43.0	144.89914577850277	pulse	1.0	t		place	house-87.jpg	0.0	177.738669921074	
43.0	145.59910934451727	pulse	1.0	t		place	house-87.jpg	0.0	178.4386334870885	
43.0	146.29913962064575	pulse	1.0	t		place	house-87.jpg	0.0	179.13866376321698	
43.0	146.9991614448145	pulse	1.0	t		place	house-87.jpg	0.0	179.83868558738573	
44.0	147.22405572739535	house	0.0		46	place	house-27.jpg	0.0	180.0635798699666	0.3832671112195385
44.0	147.6073228386149	ISI	1.0		233	place	house-27.jpg	0.0	180.44684698118613	2.0166521725614075
44.0	147.699101466083	pulse	1.0	t		place	house-27.jpg	0.0	180.53862560865423	
44.0	148.39906654137667	pulse	1.0	t		place	house-27.jpg	0.0	181.2385906839479	
44.0	149.09906150038614	pulse	1.0	t		place	house-27.jpg	0.0	181.93858564295738	
45.0	149.6239750111763	house	0.0		46	place	house-81.jpg	0.0	182.46349915374753	0.3832933726671399
45.0	149.7990458944455	pulse	0.0	t		place	house-81.jpg	0.0	182.63857003701673	
45.0	150.00726838384344	ISI	1.0		834	place	house-81.jpg	0.0	182.84679252641467	7.016610214616321
45.0	150.49903632561927	pulse	1.0	t		place	house-81.jpg	0.0	183.3385604681905	
45.0	151.19902253081273	pulse	1.0	t		place	house-81.jpg	0.0	184.03854667338396	
45.0	151.89900903786202	pulse	1.0	t		place	house-81.jpg	0.0	184.73853318043325	
45.0	152.5990335787319	pulse	1.0	t		place	house-81.jpg	0.0	185.43855772130314	
45.0	153.2990569121789	pulse	1.0	t		place	house-81.jpg	0.0	186.13858105475015	
45.0	153.99904402293987	pulse	1.0	t		place	house-81.jpg	0.0	186.8385681655111	
45.0	154.69902871885506	pulse	1.0	t		place	house-81.jpg	0.0	187.5385528614263	
45.0	155.39901975374005	pulse	1.0	t		place	house-81.jpg	0.0	188.23854389631128	
45.0	156.099006864501	pulse	1.0	t		place	house-81.jpg	0.0	188.93853100707224	
45.0	156.79898914557043	pulse	1.0	t		place	house-81.jpg	0.0	189.63851328814167	
46.0	157.02387859845976	limb	0.0		46	body	limb-93.jpg	0.0	189.863402741031	0.3832601685380723
46.0	157.40713876699783	ISI	1.0		232	body	limb-93.jpg	0.0	190.24666290956907	2.016667567203058
46.0	157.49892101673458	pulse	1.0	t		body	limb-93.jpg	0.0	190.33844515930582	
46.0	158.19890420337106	pulse	1.0	t		body	limb-93.jpg	0.0	191.0384283459423	
46.0	158.89889131413202	pulse	1.0	t		body	limb-93.jpg	0.0	191.73841545670325	
47.0	159.4238063342009	adult	0.0		46	face	adult-82.jpg	0.0	192.26333047677213	0.38329216524425647
47.0	159.59888114159412	pulse	0.0	t		face	adult-82.jpg	0.0	192.43840528416536	
47.0	159.80709849944515	ISI	1.0		353	face	adult-82.jpg	0.0	192.64662264201638	3.016650361426855
47.0	160.29887821359398	pulse	1.0	t		face	adult-82.jpg	0.0	193.13840235616522	
47.0	160.99885355198148	pulse	1.0	t		face	adult-82.jpg	0.0	193.83837769455272	
47.0	161.6988548499612	pulse	1.0	t		face	adult-82.jpg	0.0	194.53837899253244	
47.0	162.39882264195603	pulse	1.0	t		face	adult-82.jpg	0.0	195.23834678452727	
48.0	162.823748860872	house	0.0		46	place	house-53.jpg	0.0	195.66327300344324	0.38333140648774133
48.0	163.09888008509915	pulse	0.0	t		place	house-53.jpg	0.0	195.9384042276704	
48.0	163.20708026735974	ISI	1.0		592	place	house-53.jpg	0.0	196.04660440993098	5.0166029700790205
48.0	163.79886749771595	pulse	1.0	t		place	house-53.jpg	0.0	196.63839164028718	
48.0	164.49885400476524	pulse	1.0	t		place	house-53.jpg	0.0	197.33837814733647	
48.0	165.19887492336647	pulse	1.0	t		place	house-53.jpg	0.0	198.0383990659377	
48.0	165.89884120608258	pulse	1.0	t		place	house-53.jpg	0.0	198.73836534865382	
48.0	166.59882650570944	pulse	1.0	t		place	house-53.jpg	0.0	199.43835064828068	
48.0	167.29881210719168	pulse	1.0	t		place	house-53.jpg	0.0	200.13833624976292	
48.0	167.99880102908674	pulse	1.0	t		place	house-53.jpg	0.0	200.83832517165797	
49.0	168.22368323743876	car	0.0		46	object	car-139.jpg	0.0	201.06320738001	0.3832619796726249
49.0	168.6069452171114	ISI	1.0		473	object	car-139.jpg	0.0	201.44646935968262	4.016628627814953
49.0	168.69872203344494	pulse	1.0	t		object	car-139.jpg	0.0	201.53824617601617	
49.0	169.39870401265853	pulse	1.0	t		object	car-139.jpg	0.0	202.23822815522976	
49.0	170.09869685867807	pulse	1.0	t		object	car-139.jpg	0.0	202.9382210012493	
49.0	170.79868125273742	pulse	1.0	t		object	car-139.jpg	0.0	203.63820539530866	
49.0	171.49866142081692	pulse	1.0	t		object	car-139.jpg	0.0	204.33818556338815	
49.0	172.19865668168222	pulse	1.0	t		object	car-139.jpg	0.0	205.03818082425346	
50.0	172.62357384492634	house	0.0		46	place	house-58.jpg	0.0	205.46309798749758	0.38329427823464357
50.0	172.8986477165672	pulse	0.0	t		place	house-58.jpg	0.0	205.73817185913845	
50.0	173.00686812316098	ISI	1.0		596	place	house-58.jpg	0.0	205.84639226573222	5.01664643730237
50.0	173.59863905330803	pulse	1.0	t		place	house-58.jpg	0.0	206.43816319587927	
50.0	174.2986955908841	pulse	1.0	t		place	house-58.jpg	0.0	207.13821973345534	
50.0	174.99870413340113	pulse	1.0	t		place	house-58.jpg	0.0	207.83822827597237	
50.0	175.69866317157994	pulse	1.0	t		place	house-58.jpg	0.0	208.53818731415117	
50.0	176.3986463582164	pulse	1.0	t		place	house-58.jpg	0.0	209.23817050078765	
50.0	177.09864131722588	pulse	1.0	t		place	house-58.jpg	0.0	209.93816545979712	
50.0	177.79862782427517	pulse	1.0	t		place	house-58.jpg	0.0	210.6381519668464	
51.0	178.02351456046335	house	0.0		46	place	house-58.jpg	1.0	210.8630387030346	0.3832598666826925
51.0	178.40677442714605	ISI	1.0		351	place	house-58.jpg	1.0	211.24629856971728	3.0166524744167873
51.0	178.49856331770843	pulse	1.0	t		place	house-58.jpg	1.0	211.33808746027967	
51.0	178.50690751533193	response	1.0	b		place	house-58.jpg	1.0	211.34643165790317	
51.0	179.1985386560964	pulse	1.0	t		place	house-58.jpg	1.0	212.03806279866762	
51.0	179.8985121833498	pulse	1.0	t		place	house-58.jpg	1.0	212.73803632592103	
51.0	180.5984902384389	pulse	1.0	t		place	house-58.jpg	1.0	213.43801438101013	
51.0	181.29850270507995	pulse	1.0	t		place	house-58.jpg	1.0	214.1380268476512	
52.0	181.42342690156283	car	0.0		46	object	car-133.jpg	0.0	214.26295104413407	0.3832891466872752
52.0	181.8067160482501	ISI	1.0		355	object	car-133.jpg	0.0	214.64624019082135	3.0250126703936076
52.0	181.99849162697546	pulse	1.0	t		object	car-133.jpg	0.0	214.8380157695467	
52.0	182.69850499918357	pulse	1.0	t		object	car-133.jpg	0.0	215.5380291417548	
52.0	183.39846584849693	pulse	1.0	t		object	car-133.jpg	0.0	216.23798999106816	
52.0	184.09851906566018	pulse	1.0	t		object	car-133.jpg	0.0	216.93804320823142	
52.0	184.798510402401	pulse	1.0	t		object	car-133.jpg	0.0	217.63803454497224	
53.0	184.83172871864372	house	0.0		45	place	house-68.jpg	0.0	217.67125286121495	0.37495521215760164
53.0	185.20668393080132	ISI	1.0		473	place	house-68.jpg	0.0	218.04620807337255	4.016633759362776
53.0	185.4984996261519	pulse	1.0	t		place	house-68.jpg	0.0	218.33802376872313	
53.0	186.19847798309684	pulse	1.0	t		place	house-68.jpg	0.0	219.03800212566807	
53.0	186.89849678870814	pulse	1.0	t		place	house-68.jpg	0.0	219.73802093127938	
53.0	187.59846126029015	pulse	1.0	t		place	house-68.jpg	0.0	220.4379854028614	
53.0	188.29844052280214	pulse	1.0	t		place	house-68.jpg	0.0	221.13796466537337	
53.0	188.99844514119468	pulse	1.0	t		place	house-68.jpg	0.0	221.83796928376591	
54.0	189.2233176901641	number	0.0		46	character	number-73.jpg	0.0	222.06284183273533	0.3832619796721701
54.0	189.60657966983626	ISI	1.0		233	character	number-73.jpg	0.0	222.4461038124075	2.016665152357291
54.0	189.69836856039865	pulse	1.0	t		character	number-73.jpg	0.0	222.53789270296988	
54.0	190.39833967280674	pulse	1.0	t		character	number-73.jpg	0.0	223.23786381537798	
54.0	191.09832648171187	pulse	1.0	t		character	number-73.jpg	0.0	223.9378506242831	
55.0	191.62324482219356	number	0.0		46	character	number-47.jpg	0.0	224.4627689647648	0.3832951838012377
55.0	191.79830997020372	pulse	0.0	t		character	number-47.jpg	0.0	224.63783411277495	
55.0	192.0065400059948	ISI	1.0		472	character	number-47.jpg	0.0	224.84606414856603	4.024989427503442
55.0	192.4983058347807	pulse	1.0	t		character	number-47.jpg	0.0	225.33782997735193	
55.0	193.19829264368582	pulse	1.0	t		character	number-47.jpg	0.0	226.03781678625705	
55.0	193.89827975444632	pulse	1.0	t		character	number-47.jpg	0.0	226.73780389701756	
55.0	194.59826203551575	pulse	1.0	t		character	number-47.jpg	0.0	227.43778617808698	
55.0	195.2983369862909	pulse	1.0	t		character	number-47.jpg	0.0	228.13786112886214	
55.0	195.9983090042656	pulse	1.0	t		character	number-47.jpg	0.0	228.83783314683683	
56.0	196.03152943349824	adult	0.0		45	face	adult-78.jpg	0.0	228.87105357606947	0.37496124927247365
56.0	196.4064906827707	ISI	1.0		236	face	adult-78.jpg	0.0	229.24601482534194	2.0166624356556895
56.0	196.698306076265	pulse	1.0	t		face	adult-78.jpg	0.0	229.53783021883623	
56.0	197.39828926290147	pulse	1.0	t		face	adult-78.jpg	0.0	230.2378134054727	
56.0	198.09826671427936	pulse	1.0	t		face	adult-78.jpg	0.0	230.9377908568506	
57.0	198.4231531184264	adult	0.0		46	face	adult-78.jpg	1.0	231.26267726099763	0.38327314833395576
57.0	198.7985719809676	pulse	0.0	t		face	adult-78.jpg	1.0	231.63809612353884	
57.0	198.80642626676035	ISI	1.0		231	face	adult-78.jpg	1.0	231.6459504093316	2.0166545874067197
57.0	198.98152643003414	response	1.0	b		face	adult-78.jpg	1.0	231.82105057260537	
57.0	199.49817301826442	pulse	1.0	t		face	adult-78.jpg	1.0	232.33769716083566	
57.0	200.19817944779106	pulse	1.0	t		face	adult-78.jpg	1.0	233.0377035903623	
58.0	200.82308085416707	limb	0.0		46	body	limb-13.jpg	0.0	233.6626049967383	0.383295485657527
58.0	200.89874068812833	pulse	0.0	t		body	limb-13.jpg	0.0	233.73826483069956	
58.0	201.2063763398246	ISI	1.0		233	body	limb-13.jpg	0.0	234.04590048239584	2.016663039366904
58.0	201.59815789529284	pulse	1.0	t		body	limb-13.jpg	0.0	234.43768203786408	
58.0	202.2981371578053	pulse	1.0	t		body	limb-13.jpg	0.0	235.13766130037652	
58.0	202.99812155186464	pulse	1.0	t		body	limb-13.jpg	0.0	235.83764569443588	
59.0	203.2230393791915	adult	0.0		46	face	adult-109.jpg	0.0	236.06256352176274	0.3832809965829256
59.0	203.60632037577443	ISI	1.0		353	face	adult-109.jpg	0.0	236.44584451834567	3.0166980546300692
59.0	203.6981150015954	pulse	1.0	t		face	adult-109.jpg	0.0	236.53763914416663	
59.0	204.39810362163462	pulse	1.0	t		face	adult-109.jpg	0.0	237.23762776420585	
59.0	205.09815412209628	pulse	1.0	t		face	adult-109.jpg	0.0	237.9376782646675	
59.0	205.79813972357852	pulse	1.0	t		face	adult-109.jpg	0.0	238.63766386614975	
59.0	206.49812140093672	pulse	1.0	t		face	adult-109.jpg	0.0	239.33764554350796	
60.0	206.6230184304045	car	0.0		46	object	car-4.jpg	0.0	239.46254257297574	0.3832619796726249
60.0	207.00628041007712	ISI	1.0		352	object	car-4.jpg	0.0	239.84580455264836	3.024962260488792
60.0	207.19805266838966	pulse	1.0	t		object	car-4.jpg	0.0	240.0375768109609	
60.0	207.89803253461332	pulse	1.0	t		object	car-4.jpg	0.0	240.73755667718456	
60.0	208.5980274936228	pulse	1.0	t		object	car-4.jpg	0.0	241.43755163619403	
60.0	209.29800947283638	pulse	1.0	t		object	car-4.jpg	0.0	242.13753361540762	
60.0	209.99800111143304	pulse	1.0	t		object	car-4.jpg	0.0	242.83752525400428	
61.0	210.03124267056592	limb	0.0		45	body	limb-30.jpg	0.0	242.87076681313715	0.37498449216263907
61.0	210.40622716272856	ISI	1.0		352	body	limb-30.jpg	0.0	243.2457513052998	3.0166751135957384
61.0	210.69798701477066	pulse	1.0	t		body	limb-30.jpg	0.0	243.5375111573419	
61.0	211.39797835151148	pulse	1.0	t		body	limb-30.jpg	0.0	244.23750249408272	
61.0	212.0979633492825	pulse	1.0	t		body	limb-30.jpg	0.0	244.93748749185374	
61.0	212.79801958500275	pulse	1.0	t		body	limb-30.jpg	0.0	245.63754372757398	
62.0	213.4229022763243	adult	0.0		46	face	adult-17.jpg	0.0	246.26242641889553	0.3832480943092378
62.0	213.49794753204287	pulse	0.0	t		face	adult-17.jpg	0.0	246.3374716746141	
62.0	213.80615037063353	ISI	1.0		231	face	adult-17.jpg	0.0	246.64567451320477	2.0166723968945917
62.0	214.19793403909216	pulse	1.0	t		face	adult-17.jpg	0.0	247.0374581816634	
62.0	214.89789458654968	pulse	1.0	t		face	adult-17.jpg	0.0	247.73741872912092	
62.0	215.59790131793216	pulse	1.0	t		face	adult-17.jpg	0.0	248.4374254605034	
63.0	215.82282276752812	number	0.0		46	character	number-76.jpg	0.0	248.66234691009936	0.38328975039848956
63.0	216.2061125179266	ISI	1.0		353	character	number-76.jpg	0.0	249.04563666049785	3.016633155651107
63.0	216.29792163282218	pulse	1.0	t		character	number-76.jpg	0.0	249.13744577539342	
63.0	216.99787674687695	pulse	1.0	t		character	number-76.jpg	0.0	249.8374008894482	
63.0	217.6978701966077	pulse	1.0	t		character	number-76.jpg	0.0	250.53739433917895	
63.0	218.39784462942862	pulse	1.0	t		character	number-76.jpg	0.0	251.23736877199985	
63.0	219.09783989029347	pulse	1.0	t		character	number-76.jpg	0.0	251.9373640328647	
64.0	219.22274567357772	car	0.0		46	object	car-120.jpg	0.0	252.06226981614896	0.38333955659209096
64.0	219.6060852301698	ISI	1.0		233	object	car-120.jpg	0.0	252.44560937274105	2.0166485502923024
64.0	219.79790216312813	pulse	1.0	t		object	car-120.jpg	0.0	252.63742630569936	
64.0	220.49788444419755	pulse	1.0	t		object	car-120.jpg	0.0	253.3374085867688	
64.0	221.1978700456798	pulse	1.0	t		object	car-120.jpg	0.0	254.03739418825103	
65.0	221.6227337804621	limb	0.0		46	body	limb-71.jpg	0.0	254.46225792303335	0.3832785817371587
65.0	221.89779316302838	pulse	0.0	t		body	limb-71.jpg	0.0	254.73731730559962	
65.0	222.00601236219927	ISI	1.0		359	body	limb-71.jpg	0.0	254.8455365047705	2.9999480808164662
65.0	222.59777906636646	pulse	1.0	t		body	limb-71.jpg	0.0	255.4373032089377	
65.0	223.29776376228165	pulse	1.0	t		body	limb-71.jpg	0.0	256.1372879048529	
65.0	223.99775208046503	pulse	1.0	t		body	limb-71.jpg	0.0	256.83727622303627	
65.0	224.6977379838031	pulse	1.0	t		body	limb-71.jpg	0.0	257.53726212637434	
66.0	225.00596044301574	baseline	0.0		708		baseline	0.0	257.845484585587	5.899973165026495
66.0	225.3977278112652	pulse	0.0	t			baseline	0.0	258.23725195383645	
66.0	226.09771612944905	pulse	0.0	t			baseline	0.0	258.9372402720203	
66.0	226.79770746618988	pulse	0.0	t			baseline	0.0	259.6372316087611	
66.0	227.49768431385655	pulse	0.0	t			baseline	0.0	260.3372084564278	
66.0	228.19776952772554	pulse	0.0	t			baseline	0.0	261.0372936702968	
66.0	228.89773641415331	pulse	0.0	t			baseline	0.0	261.73726055672455	
66.0	229.59772624161587	pulse	0.0	t			baseline	0.0	262.4372503841871	
66.0	230.29771274866516	pulse	0.0	t			baseline	0.0	263.1372368912364	
66.0	230.90593360804223	ISI	1.0		12		baseline	0.0	263.74545775061347	0.09999151785450522
66.0	230.99770317983894	pulse	1.0	t			baseline	0.0	263.8372273224102	
