trial_nr	onset	event_type	phase	response	nr_frames	rating_type	face_id	repetition	session	rating	onset_abs	duration
0.0	0.00830075295084498	cue	0.0		479						78.85372666045237	3.992147202152182
0.0	-2.725095326294877	response	0.0	space							76.12033058120664	
0.0	4.000447955103027	fix	1.0		120						82.84587386260455	1.0167940903734234
0.0	5.017242045476451	face	0.0		147	dominance	011	1.0	1		83.86266795297797	1.2837194883411485
0.0	6.300961533817599	rating	1.0		311	dominance	011	1.0	1		85.14638744131912	2.6000799316111625
0.0	8.901041465428762	fix	2.0		60	dominance	011	1.0	1	0.7800000000000002	87.74646737293028	0.5167156076736319
1.0	9.417757073102393	face	0.0		147	dominance	092	1.0	1		88.26318298060391	1.233492975194622
1.0	10.651250048297015	rating	1.0		315	dominance	092	1.0	1		89.49667595579854	2.6336527176747495
1.0	13.284902765971765	fix	2.0		60	dominance	092	1.0	1	3.6500000000000004	92.13032867347329	0.5167515286013895
2.0	13.801654294573154	face	0.0		147	dominance	117	1.0	1		92.64708020207468	1.2334990123254101
2.0	15.035153306898565	rating	1.0		194	dominance	117	1.0	1		93.88057921440009	1.625156663543521
2.0	16.660309970442086	fix	2.0		60	dominance	117	1.0	1	2.99	95.50573587794361	0.5167473026099287
3.0	17.177057273052014	face	0.0		147	dominance	064	1.0	1		96.02248318055354	1.2334639969669752
3.0	18.41052127001899	rating	1.0		166	dominance	064	1.0	1		97.25594717752051	1.3918312187277024
3.0	19.802352488746692	fix	2.0		60	dominance	064	1.0	1	1.8099999999999996	98.64777839624821	0.5167596787280218
4.0	20.319112167474714	face	0.0		147	dominance	024	1.0	1		99.16453807497624	1.2334652043930419
4.0	21.552577371867756	rating	1.0		115	dominance	024	1.0	1		100.39800327936928	0.9667698211078459
4.0	22.5193471929756	fix	2.0		60	dominance	024	1.0	1	1.17	101.36477310047712	0.5167629991499325
5.0	23.036110192125534	face	0.0		147	dominance	070	1.0	1		101.88153609962706	1.2334528282749488
5.0	24.269563020400483	rating	1.0		98	dominance	070	1.0	1		103.114988927902	0.8251058309024302
5.0	25.094668851302913	fix	2.0		60	dominance	070	1.0	1	2.9400000000000004	103.94009475880443	0.5167720548461148
6.0	25.611440906149028	face	0.0		147	dominance	033	1.0	1		104.45686681365055	1.2334335094565176
6.0	26.844874415605545	rating	1.0		102	dominance	033	1.0	1		105.69030032310707	0.8584347168828117
6.0	27.703309132488357	fix	2.0		60	dominance	033	1.0	1	2.88	106.54873503998988	0.5167560564495943
7.0	28.22006518893795	face	0.0		147	dominance	018	1.0	1		107.06549109643947	1.2334573561231537
7.0	29.453522545061105	rating	1.0		206	dominance	018	1.0	1		108.29894845256263	1.72520550393142
7.0	31.178728048992525	fix	2.0		60	dominance	018	1.0	1	-0.7799999999999998	110.02415395649405	0.516756358306111
8.0	31.695484407298636	face	0.0		147	dominance	102	1.0	1		110.54091031480016	1.2334612802580978
8.0	32.928945687556734	rating	1.0		78	dominance	102	1.0	1		111.77437159505826	0.6584152169502886
8.0	33.58736090450702	fix	2.0		60	dominance	102	1.0	1	-1.2400000000000002	112.43278681200854	0.5167636028629659
9.0	34.10412450736999	face	0.0		146	dominance	038	1.0	1		112.94955041487151	1.2334443762920273
9.0	35.337568883662016	rating	1.0		85	dominance	038	1.0	1		114.18299479116354	0.7234656028435893
9.0	36.061034486505605	fix	2.0		58	dominance	038	1.0	1	1.3499999999999996	114.90646039400713	0.5100786879625048
10.0	36.57111317446811	face	0.0		147	dominance	136	1.0	1		115.41653908196963	1.2346581414331013
10.0	37.80577131590121	rating	1.0		73	dominance	136	1.0	1		116.65119722340273	0.6238532470104019
10.0	38.42962456291161	fix	2.0		60	dominance	136	1.0	1	0.9000000000000004	117.27505047041313	0.5167955996562341
11.0	38.94642016256785	face	0.0		147	dominance	012	1.0	1		117.79184607006937	1.2334096627898816
11.0	40.17982982535773	rating	1.0		120	dominance	012	1.0	1		119.02525573285925	1.0084435310936897
11.0	41.18827335645142	fix	2.0		60	dominance	012	1.0	1	1.38	120.03369926395294	0.5168022405000556
12.0	41.705075596951474	face	0.0		147	dominance	044	1.0	1		120.550501504453	1.2334262648996628
12.0	42.93850186185114	rating	1.0		415	dominance	044	1.0	1		121.78392776935266	3.4754086533816917
12.0	46.41391051523283	fix	2.0		61	dominance	044	1.0	1	1.67	125.25933642273435	0.5250761282188705
13.0	46.9389866434517	face	0.0		146	dominance	006	1.0	1		125.78441255095322	1.225129436083762
13.0	48.16411607953546	rating	1.0		116	dominance	006	1.0	1		127.00954198703698	0.9751493586152264
13.0	49.13926543815069	fix	2.0		60	dominance	006	1.0	1	1.2599999999999998	127.98469134565221	0.5167207392346427
14.0	49.65598617738533	face	0.0		146	dominance	036	1.0	1		128.50141208488685	1.2334697322412467
14.0	50.88945590962658	rating	1.0		128	dominance	036	1.0	1		129.7348818171281	1.0751275645729947
14.0	51.96458347419957	fix	2.0		60	dominance	036	1.0	1	1.2400000000000002	130.8100093817011	0.5167512267451002
15.0	52.48133470094467	face	0.0		147	dominance	043	1.0	1		131.3267606084462	1.2334516208488822
15.0	53.714786321793554	rating	1.0		131	dominance	043	1.0	1		132.56021222929508	1.1001451326235383
15.0	54.81493145441709	fix	2.0		60	dominance	043	1.0	1	2.2300000000000004	133.6603573619186	0.5167572638758884
16.0	55.33168871829298	face	0.0		147	dominance	027	1.0	1		134.1771146257945	1.2334522245619155
16.0	56.565140942854896	rating	1.0		365	dominance	027	1.0	1		135.41056685035642	3.0587252839866323
16.0	59.62386622684153	fix	2.0		59	dominance	027	1.0	1	0.7699999999999996	138.46929213434305	0.516733719065769
17.0	60.1405999459073	face	0.0		146	dominance	172	1.0	1		138.98602585340882	1.233455846840343
17.0	61.37405579274764	rating	1.0		79	dominance	172	1.0	1		140.21948170024916	0.6750955074087415
17.0	62.04915130015638	fix	2.0		60	dominance	172	1.0	1	0.41999999999999993	140.8945772076579	0.5250782412147146
18.0	62.574229541371096	face	0.0		147	dominance	091	1.0	1		141.41965544887262	1.2334489041400047
18.0	63.8076784455111	rating	1.0		106	dominance	091	1.0	1		142.65310435301262	0.8917796012597137
18.0	64.69945804677081	fix	2.0		60	dominance	091	1.0	1	-0.10000000000000009	143.54488395427234	0.5167491137492561
19.0	65.21620716052007	face	0.0		147	dominance	141	1.0	1		144.0616330680216	1.2334564505533763
19.0	66.44966361107345	rating	1.0		181	dominance	141	1.0	1		145.29508951857497	1.5168505375461336
19.0	67.96651414861958	fix	2.0		60	dominance	141	1.0	1	-0.3999999999999999	146.8119400561211	0.5167509248883562
20.0	68.48326507350794	face	0.0		147	dominance	137	1.0	1		147.32869098100946	1.2334546394142762
20.0	69.71671971292221	rating	1.0		125	dominance	137	1.0	1		148.56214562042373	1.050128107915043
20.0	70.76684782083726	fix	2.0		60	dominance	137	1.0	1	0.9699999999999998	149.61227372833878	0.5167620935803825
21.0	71.28360991441764	face	0.0		147	dominance	101	1.0	1		150.12903582191916	1.233459770975287
21.0	72.51706968539293	rating	1.0		72	dominance	101	1.0	1		151.36249559289445	0.6167396958251175
21.0	73.13380938121804	fix	2.0		60	dominance	101	1.0	1	2.45	151.97923528871956	0.5167424729054346
22.0	73.65055185412348	face	0.0		147	dominance	066	1.0	1		152.495977761625	1.233454035701243
22.0	74.88400588982472	rating	1.0		77	dominance	066	1.0	1		153.72943179732624	0.6500872969108968
22.0	75.53409318673562	fix	2.0		60	dominance	066	1.0	1	3.2199999999999998	154.37951909423714	0.5167482081794788
23.0	76.0508413949151	face	0.0		147	dominance	009	1.0	1		154.89626730241662	1.233457054266637
23.0	77.28429844918173	rating	1.0		136	dominance	009	1.0	1		156.12972435668325	1.1418025423565723
23.0	78.4261009915383	fix	2.0		60	dominance	009	1.0	1	0.040000000000000036	157.27152689903983	0.5167614898671218
24.0	78.94286248140543	face	0.0		147	dominance	039	1.0	1		157.78828838890695	1.2334498097097821
24.0	80.17631229111521	rating	1.0		175	dominance	039	1.0	1		159.02173819861673	1.4668513223730315
24.0	81.64316361348824	fix	2.0		60	dominance	039	1.0	1	-0.06000000000000005	160.48858952098976	0.5167479063231895
25.0	82.15991151981143	face	0.0		147	dominance	126	1.0	1		161.00533742731295	1.233460978401581
25.0	83.39337249821301	rating	1.0		156	dominance	126	1.0	1		162.23879840571453	1.3085004008653414
25.0	84.70187289907835	fix	2.0		60	dominance	126	1.0	1	1.42	163.54729880657987	0.516743076618468
26.0	85.21861597569682	face	0.0		147	dominance	130	1.0	1		164.06404188319834	1.2334573561231537
26.0	86.45207333181997	rating	1.0		70	dominance	130	1.0	1		165.2974992393215	0.5917423521627825
26.0	87.04381568398276	fix	2.0		60	dominance	130	1.0	1	-0.33999999999999986	165.88924159148428	0.516803749782639
27.0	87.5606194337654	face	0.0		147	dominance	030	1.0	1		166.40604534126692	1.2334009089504434
27.0	88.79402034271584	rating	1.0		173	dominance	030	1.0	1		167.63944625021736	1.4501749560495227
27.0	90.24419529876536	fix	2.0		60	dominance	030	1.0	1	1.0099999999999998	169.08962120626688	0.5167466988968954
28.0	90.76094199766226	face	0.0		147	dominance	087	1.0	1		169.60636790516378	1.2334642988234918
28.0	91.99440629648575	rating	1.0		106	dominance	087	1.0	1		170.83983220398727	0.8917817142553304
28.0	92.88618801074108	fix	2.0		60	dominance	087	1.0	1	-0.3799999999999999	171.7316139182426	0.5167623954368992
29.0	93.40295040617798	face	0.0		147	dominance	005	1.0	1		172.2483763136795	1.2334531301316929
29.0	94.63640353630967	rating	1.0		68	dominance	005	1.0	1		173.4818294438112	0.5750774563878167
29.0	95.21148099269749	fix	2.0		60	dominance	005	1.0	1	-1.0299999999999998	174.056906900199	0.5167506230318395
30.0	95.72823161572933	face	0.0		147	dominance	100	1.0	1		174.57365752323085	1.2334772786546182
30.0	96.96170889438395	rating	1.0		148	dominance	100	1.0	1		175.80713480188547	1.2417840687362514
30.0	98.2034929631202	fix	2.0		60	dominance	100	1.0	1	1.0	177.04891887062172	0.5167509248885835
31.0	98.72024388800878	face	0.0		147	dominance	099	1.0	1		177.5656697955103	1.233456752409893
31.0	99.95370064041867	rating	1.0		146	dominance	099	1.0	1		178.7991265479202	1.2251608291637694
31.0	101.17886146958244	fix	2.0		60	dominance	099	1.0	1	0.29000000000000004	180.02428737708397	0.5167542453102669
32.0	101.69561571489271	face	0.0		147	dominance	121	1.0	1		180.54104162239423	1.2334534319882096
32.0	102.92906914688092	rating	1.0		187	dominance	121	1.0	1		181.77449505438244	1.5668548842802466
32.0	104.49592403116117	fix	2.0		60	dominance	121	1.0	1	-0.08000000000000007	183.3413499386627	0.5167397561965572
33.0	105.01266378735772	face	0.0		147	dominance	082	1.0	1		183.85808969485925	1.2334627895406811
33.0	106.2461265768984	rating	1.0		133	dominance	082	1.0	1		185.09155248439993	1.11680338755491
33.0	107.36292996445331	fix	2.0		60	dominance	082	1.0	1	1.2000000000000002	186.20835587195484	0.5167593768715051
34.0	107.87968934132482	face	0.0		147	dominance	062	1.0	1		186.72511524882634	1.2334591672622537
34.0	109.11314850858707	rating	1.0		104	dominance	062	1.0	1		187.9585744160886	0.8750944810965393
34.0	109.98824298968361	fix	2.0		60	dominance	062	1.0	1	2.1500000000000004	188.83366889718513	0.5167817142553304
35.0	110.50502470393894	face	0.0		147	dominance	124	1.0	1		189.35045061144046	1.2334338113132617
35.0	111.7384585152522	rating	1.0		188	dominance	124	1.0	1		190.58388442275373	1.5751882377373931
35.0	113.3136467529896	fix	2.0		60	dominance	124	1.0	1	0.8600000000000003	192.15907266049112	0.5167723567026314
36.0	113.83041910969223	face	0.0		147	dominance	034	1.0	1		192.67584501719375	1.2334501115660714
36.0	115.0638692212583	rating	1.0		238	dominance	034	1.0	1		193.90929512875982	2.033580030620442
36.0	117.09744925187874	fix	2.0		61	dominance	034	1.0	1	1.6900000000000004	195.94287515938026	0.525082769062692
37.0	117.62253202094143	face	0.0		146	dominance	061	1.0	1		196.46795792844296	1.2251233989529737
37.0	118.84765541989441	rating	1.0		204	dominance	061	1.0	1		197.69308132739593	1.7085472490002758
37.0	120.55620266889468	fix	2.0		60	dominance	061	1.0	1	2.3099999999999996	199.4016285763962	0.5167463970403787
38.0	121.07294906593506	face	0.0		147	dominance	144	1.0	1		199.91837497343658	1.2334552431273096
38.0	122.30640430906237	rating	1.0		67	dominance	144	1.0	1		201.1518302165639	0.5667332360951605
38.0	122.87313754515753	fix	2.0		60	dominance	144	1.0	1	-1.2400000000000002	201.71856345265905	0.5167735641289255
39.0	123.38991110928646	face	0.0		147	dominance	042	1.0	1		202.23533701678798	1.2334431688657332
39.0	124.62335427815219	rating	1.0		104	dominance	042	1.0	1		203.4687801856537	0.8751089702104764
39.0	125.49846324836267	fix	2.0		60	dominance	042	1.0	1	-0.6499999999999999	204.3438891558642	0.5000485989025947
40.0	125.99851184726526	cue	0.0		480						204.84393775476678	4.00048387603124
40.0	129.9989957232965	fix	1.0		119						208.84442163079802	1.0168423874195014
40.0	131.015838110716	face	0.0		147	attractiveness	012	1.0	1		209.86126401821753	1.2334310946043843
40.0	132.2492692053204	rating	1.0		150	attractiveness	012	1.0	1		211.0946951128219	1.2584785464521246
40.0	133.5077477517725	fix	2.0		60	attractiveness	012	1.0	1	1.6900000000000004	212.35317365927403	0.5167524341709395
41.0	134.02450018594345	face	0.0		147	attractiveness	036	1.0	1		212.86992609344497	1.2334790897939456
41.0	135.2579792757374	rating	1.0		247	attractiveness	036	1.0	1		214.10340518323892	2.0669487616637525
41.0	137.32492803740115	fix	2.0		60	attractiveness	036	1.0	1	0.7800000000000002	216.17035394490267	0.5167147021038545
42.0	137.841642739505	face	0.0		147	attractiveness	130	1.0	1		216.68706864700653	1.233448602283488
42.0	139.0750913417885	rating	1.0		54	attractiveness	130	1.0	1		217.92051724929001	0.4583896798872047
42.0	139.5334810216757	fix	2.0		60	attractiveness	130	1.0	1	-1.06	218.37890692917722	0.5167521323144229
43.0	140.05023315399012	face	0.0		147	attractiveness	066	1.0	1		218.89565906149164	1.233454941270793
43.0	141.2836880952609	rating	1.0		101	attractiveness	066	1.0	1		220.12911400276244	0.8501070986999366
43.0	142.13379519396085	fix	2.0		60	attractiveness	066	1.0	1	2.1900000000000004	220.97922110146237	0.5167533397407169
44.0	142.65054853370157	face	0.0		147	attractiveness	018	1.0	1		221.4959744412031	1.2334639969669752
44.0	143.88401253066854	rating	1.0		78	attractiveness	018	1.0	1		222.72943843817006	0.6584212540810768
44.0	144.54243378474962	fix	2.0		59	attractiveness	018	1.0	1	-1.19	223.38785969225114	0.5167479063229621
45.0	145.05918169107258	face	0.0		147	attractiveness	064	1.0	1		223.9046075985741	1.2334618839713585
45.0	146.29264357504394	rating	1.0		86	attractiveness	064	1.0	1		225.13806948254546	0.7250889873073447
45.0	147.01773256235128	fix	2.0		59	attractiveness	064	1.0	1	-0.029999999999999805	225.8631584698528	0.5167382469139739
46.0	147.53447080926526	face	0.0		147	attractiveness	027	1.0	1		226.37989671676678	1.233456752409893
46.0	148.76792756167515	rating	1.0		62	attractiveness	027	1.0	1		227.61335346917667	0.5250694873752764
46.0	149.29299704905043	fix	2.0		60	attractiveness	027	1.0	1	0.9199999999999999	228.13842295655195	0.516743076618468
47.0	149.8097401256689	face	0.0		147	attractiveness	100	1.0	1		228.65516603317042	1.2335014271775435
47.0	151.04324155284644	rating	1.0		78	attractiveness	100	1.0	1		229.88866746034796	0.6583786923092703
47.0	151.7016202451557	fix	2.0		60	attractiveness	100	1.0	1	1.4400000000000004	230.54704615265723	0.5168061646349997
48.0	152.2184264097907	face	0.0		146	attractiveness	092	1.0	1		231.06385231729223	1.2334087572203316
48.0	153.45183516701104	rating	1.0		141	attractiveness	092	1.0	1		232.29726107451256	1.1834678003592671
48.0	154.6353029673703	fix	2.0		61	attractiveness	092	1.0	1	-3.3	233.48072887487183	0.5250827690629194
49.0	155.16038573643323	face	0.0		146	attractiveness	030	1.0	1		234.00581164393475	1.2251273230879178
49.0	156.38551305952114	rating	1.0		101	attractiveness	030	1.0	1		235.23093896702267	0.8501064949869033
49.0	157.23561955450805	fix	2.0		60	attractiveness	030	1.0	1	2.0999999999999996	236.08104546200957	0.5167494156055454
50.0	157.7523689701136	face	0.0		147	attractiveness	117	1.0	1		236.59779487761512	1.2334573561231537
50.0	158.98582632623675	rating	1.0		149	attractiveness	117	1.0	1		237.83125223373827	1.2501473059908221
50.0	160.23597363222757	fix	2.0		60	attractiveness	117	1.0	1	-0.3999999999999999	239.0813995397291	0.5167645084327432
51.0	160.7527381406603	face	0.0		147	attractiveness	126	1.0	1		239.59816404816183	1.2334501115660714
51.0	161.98618825222638	rating	1.0		73	attractiveness	126	1.0	1		240.8316141597279	0.616759920213326
51.0	162.6029481724397	fix	2.0		61	attractiveness	126	1.0	1	0.5300000000000002	241.44837407994123	0.5250712985143764
52.0	163.1280194709541	face	0.0		146	attractiveness	062	1.0	1		241.9734453784556	1.2251614328768028
52.0	164.3531809038309	rating	1.0		73	attractiveness	062	1.0	1		243.1986068113324	0.616698039622861
52.0	164.96987894345375	fix	2.0		60	attractiveness	062	1.0	1	0.4400000000000004	243.81530485095527	0.5167702437067874
53.0	165.48664918716054	face	0.0		147	attractiveness	087	1.0	1		244.33207509466206	1.233454035701243
53.0	166.72010322286178	rating	1.0		91	attractiveness	087	1.0	1		245.5655291303633	0.7751286512566367
53.0	167.49523187411842	fix	2.0		60	attractiveness	087	1.0	1	0.41999999999999993	246.34065778161994	0.5167140983908212
54.0	168.01194597250924	face	0.0		147	attractiveness	039	1.0	1		246.85737188001076	1.2334642988234918
54.0	169.24541027133273	rating	1.0		71	attractiveness	039	1.0	1		248.09083617883425	0.6001185692482522
54.0	169.84552884058098	fix	2.0		60	attractiveness	039	1.0	1	1.12	248.6909547480825	0.5167014204162115
55.0	170.3622302609972	face	0.0		147	attractiveness	043	1.0	1		249.20765616849872	1.233448602283488
55.0	171.59567886328068	rating	1.0		180	attractiveness	043	1.0	1		250.4411047707822	1.5085138636670763
55.0	173.10419272694776	fix	2.0		60	attractiveness	043	1.0	1	0.8600000000000003	251.94961863444928	0.5167551508800443
56.0	173.6209478778278	face	0.0		147	attractiveness	099	1.0	1		252.46637378532932	1.2334676192454026
56.0	174.8544154970732	rating	1.0		124	attractiveness	099	1.0	1		253.69984140457473	1.0417847931919368
56.0	175.89620029026514	fix	2.0		60	attractiveness	099	1.0	1	0.09999999999999964	254.74162619776666	0.5167482081797061
57.0	176.41294849844485	face	0.0		147	attractiveness	070	1.0	1		255.25837440594637	1.2334676192454026
57.0	177.64641611769025	rating	1.0		50	attractiveness	070	1.0	1		256.4918420251918	0.42508584799952587
57.0	178.07150196568978	fix	2.0		60	attractiveness	070	1.0	1	-1.0499999999999998	256.9169278731913	0.5167134946775604
58.0	178.58821546036734	face	0.0		147	attractiveness	137	1.0	1		257.43364136786886	1.2334564505536036
58.0	179.82167191092094	rating	1.0		145	attractiveness	137	1.0	1		258.66709781842246	1.2168081568879643
58.0	181.0384800678089	fix	2.0		60	attractiveness	137	1.0	1	-0.31000000000000005	259.8839059753104	0.5167663195718433
59.0	181.55524638738075	face	0.0		147	attractiveness	042	1.0	1		260.40067229488227	1.2334522245621429
59.0	182.7886986119429	rating	1.0		240	attractiveness	042	1.0	1		261.6341245194444	2.0085724238354032
59.0	184.7972710357783	fix	2.0		60	attractiveness	042	1.0	1	0.7300000000000004	263.6426969432798	0.5167578675889217
60.0	185.31402890336722	face	0.0		147	attractiveness	102	1.0	1		264.15945481086874	1.2334612802580978
60.0	186.5474901836253	rating	1.0		60	attractiveness	102	1.0	1		265.39291609112684	0.5083885932035628
60.0	187.05587877682888	fix	2.0		60	attractiveness	102	1.0	1	-0.9700000000000002	265.9013046843304	0.5167485100362228
61.0	187.5726272868651	face	0.0		147	attractiveness	141	1.0	1		266.4180531943666	1.2334766749415849
61.0	188.80610396180668	rating	1.0		90	attractiveness	141	1.0	1		267.6515298693082	0.7584263252708752
61.0	189.56453028707756	fix	2.0		60	attractiveness	141	1.0	1	-0.9700000000000002	268.4099561945791	0.5167352283483524
62.0	190.0812655154259	face	0.0		147	attractiveness	144	1.0	1		268.92669142292743	1.233457054266637
62.0	191.31472256969255	rating	1.0		125	attractiveness	144	1.0	1		270.16014847719407	1.0501335413325705
62.0	192.36485611102512	fix	2.0		60	attractiveness	144	1.0	1	1.42	271.21028201852664	0.5167560564495943
63.0	192.8816121674747	face	0.0		147	attractiveness	011	1.0	1		271.72703807497624	1.2334751656590015
63.0	194.11508733313372	rating	1.0		130	attractiveness	011	1.0	1		272.96051324063524	1.091789743639083
63.0	195.2068770767728	fix	2.0		59	attractiveness	011	1.0	1	0.6200000000000001	274.0523029842743	0.5167937885169067
64.0	195.7236708652897	face	0.0		147	attractiveness	006	1.0	1		274.5690967727912	1.2334027200897708
64.0	196.95707358537948	rating	1.0		50	attractiveness	006	1.0	1		275.802499492881	0.42504660664940275
64.0	197.38212019202888	fix	2.0		60	attractiveness	006	1.0	1	-0.020000000000000018	276.2275460995304	0.5167503211753228
65.0	197.8988705132042	face	0.0		147	attractiveness	061	1.0	1		276.7442964207057	1.2334679211021466
65.0	199.13233843430635	rating	1.0		51	attractiveness	061	1.0	1		277.97776434180787	0.4333832805284601
65.0	199.5657217148348	fix	2.0		60	attractiveness	061	1.0	1	-0.3799999999999999	278.41114762233633	0.516744887757568
66.0	200.08246660259238	face	0.0		147	attractiveness	024	1.0	1		278.9278925100939	1.2334588654059644
66.0	201.31592546799834	rating	1.0		80	attractiveness	024	1.0	1		280.16135137549986	0.6750982241176189
66.0	201.99102369211596	fix	2.0		60	attractiveness	024	1.0	1	-0.73	280.8364495996175	0.5167451896140847
67.0	202.50776888173004	face	0.0		147	attractiveness	009	1.0	1		281.35319478923157	1.2334615821146144
67.0	203.74123046384466	rating	1.0		357	attractiveness	009	1.0	1		282.5866563713462	2.9920264595368735
67.0	206.73325692338153	fix	2.0		60	attractiveness	009	1.0	1	-0.040000000000000036	285.57868283088305	0.5167636028629659
68.0	207.2500205262445	face	0.0		147	attractiveness	136	1.0	1		286.095446433746	1.2334507152793321
68.0	208.48347124152383	rating	1.0		593	attractiveness	136	1.0	1		287.32889714902535	4.950590612502992
68.0	213.43406185402682	fix	2.0		59	attractiveness	136	1.0	1	-0.3700000000000001	292.27948776152834	0.5167491137492561
69.0	213.95081096777608	face	0.0		147	attractiveness	082	1.0	1		292.7962368752776	1.2334576579796703
69.0	215.18426862575575	rating	1.0		63	attractiveness	082	1.0	1		294.02969453325727	0.533404651971523
69.0	215.71767327772727	fix	2.0		60	attractiveness	082	1.0	1	-0.41999999999999993	294.5630991852288	0.5167494156057728
70.0	216.23442269333304	face	0.0		147	attractiveness	172	1.0	1		295.07984860083457	1.233459770975287
70.0	217.46788246430833	rating	1.0		150	attractiveness	172	1.0	1		296.31330837180985	1.2584836780133628
70.0	218.7263661423217	fix	2.0		60	attractiveness	172	1.0	1	-0.5499999999999998	297.5717920498232	0.5167633010064492
71.0	219.24312944332814	face	0.0		147	attractiveness	044	1.0	1		298.08855535082967	1.2334531301314655
71.0	220.4765825734596	rating	1.0		112	attractiveness	044	1.0	1		299.32200848096113	0.9417797220023658
71.0	221.41836229546198	fix	2.0		60	attractiveness	044	1.0	1	-0.27	300.2637882029635	0.516768734424204
72.0	221.93513102988618	face	0.0		147	attractiveness	121	1.0	1		300.7805569373877	1.2334353205956177
72.0	223.1685663504818	rating	1.0		54	attractiveness	121	1.0	1		302.0139922579833	0.45840447085765845
72.0	223.62697082133946	fix	2.0		60	attractiveness	121	1.0	1	0.08000000000000007	302.472396728841	0.5167340209222857
73.0	224.14370484226174	face	0.0		147	attractiveness	038	1.0	1		302.98913074976326	1.2334884473466445
73.0	225.37719328960839	rating	1.0		192	attractiveness	038	1.0	1		304.2226191971099	1.6085098791606924
73.0	226.98570316876908	fix	2.0		61	attractiveness	038	1.0	1	-0.8700000000000001	305.8311290762706	0.5250879006239302
74.0	227.510791069393	face	0.0		146	attractiveness	101	1.0	1		306.35621697689453	1.2251167581091522
74.0	228.73590782750216	rating	1.0		170	attractiveness	101	1.0	1		307.5813337350037	1.425196931205619
74.0	230.16110475870778	fix	2.0		60	attractiveness	101	1.0	1	-0.3599999999999999	309.0065306662093	0.5167285875047583
75.0	230.67783334621254	face	0.0		147	attractiveness	124	1.0	1		309.52325925371406	1.2334573561229263
75.0	231.91129070233546	rating	1.0		165	attractiveness	124	1.0	1		310.756716609837	1.4418413007360869
75.0	233.35313200307155	fix	2.0		60	attractiveness	124	1.0	1	2.1799999999999997	312.1985579105731	0.5167551508800443
76.0	233.8698871539516	face	0.0		147	attractiveness	034	1.0	1		312.7153130614531	1.233456752409893
76.0	235.1033439063615	rating	1.0		110	attractiveness	034	1.0	1		313.948769813863	0.9251096946661619
76.0	236.02845360102765	fix	2.0		60	attractiveness	034	1.0	1	1.3099999999999996	314.87387950852917	0.5167542453102669
77.0	236.54520784633792	face	0.0		147	attractiveness	005	1.0	1		315.39063375383944	1.2334534319882096
77.0	237.77866127832613	rating	1.0		104	attractiveness	005	1.0	1		316.62408718582765	0.8751159129108146
77.0	238.65377719123694	fix	2.0		60	attractiveness	005	1.0	1	-1.0299999999999998	317.49920309873846	0.5167476044664454
78.0	239.1705247957034	face	0.0		147	attractiveness	033	1.0	1		318.0159507032049	1.233504445743165
78.0	240.40402924144655	rating	1.0		131	attractiveness	033	1.0	1		319.2494551489481	1.1000793278983565
78.0	241.5041085693449	fix	2.0		60	attractiveness	033	1.0	1	3.0	320.34953447684643	0.516756056449367
79.0	242.02086462579427	face	0.0		142	attractiveness	091	1.0	1		320.8662905332958	1.233458261692931
79.0	243.2543228874872	rating	1.0		78	attractiveness	091	1.0	1		322.0997487949887	0.6584170280893886
79.0	243.9127399155766	fix	2.0		60	attractiveness	091	1.0	1	2.0999999999999996	322.7581658230781	0.5000621824469818
80.0	244.41280209802358	cue	0.0		480						323.2582280055251	4.000484479744273
80.0	248.41328657776785	fix	1.0		120						327.25871248526937	1.0168137110483713
80.0	249.43010028881622	face	0.0		147	trustworthiness	042	1.0	1		328.27552619631774	1.2334534319882096
80.0	250.66355372080443	rating	1.0		340	trustworthiness	042	1.0	1		329.50897962830595	2.8420082877730692
80.0	253.5055620085775	fix	2.0		60	trustworthiness	042	1.0	1	0.20999999999999996	332.350987916079	0.5167497174622895
81.0	254.0223117260398	face	0.0		147	trustworthiness	092	1.0	1		332.8677376335413	1.2334739582327074
81.0	255.2557856842725	rating	1.0		146	trustworthiness	092	1.0	1		334.101211591774	1.2251381899232001
81.0	256.4809238741957	fix	2.0		60	trustworthiness	092	1.0	1	-1.75	335.3263497816972	0.5167503211753228
82.0	256.997674195371	face	0.0		147	trustworthiness	100	1.0	1		335.84310010287254	1.2334766749415849
82.0	258.2311508703126	rating	1.0		165	trustworthiness	100	1.0	1		337.0765767778141	1.3834785464521246
82.0	259.6146294167647	fix	2.0		60	trustworthiness	100	1.0	1	0.0	338.46005532426625	0.5167578675889217
83.0	260.13138728435365	face	0.0		147	trustworthiness	034	1.0	1		338.9768131918552	1.2334552431273096
83.0	261.36484252748096	rating	1.0		67	trustworthiness	034	1.0	1		340.2102684349825	0.5667431973611201
83.0	261.9315857248421	fix	2.0		60	trustworthiness	034	1.0	1	0.9299999999999997	340.7770116323436	0.5167445859010513
84.0	262.44833031074313	face	0.0		147	trustworthiness	124	1.0	1		341.29375621824465	1.2334652043930419
84.0	263.6817955151362	rating	1.0		159	trustworthiness	124	1.0	1		342.5272214226377	1.3334859721230714
84.0	265.01528148725924	fix	2.0		60	trustworthiness	124	1.0	1	1.5599999999999996	343.86070739476077	0.5167623954368992
85.0	265.53204388269614	face	0.0		147	trustworthiness	062	1.0	1		344.37746979019767	1.23344528186135
85.0	266.7654891645575	rating	1.0		108	trustworthiness	062	1.0	1		345.610915072059	0.9084580805788391
85.0	267.67394724513633	fix	2.0		60	trustworthiness	062	1.0	1	0.3799999999999999	346.51937315263785	0.5167485100362228
86.0	268.19069575517256	face	0.0		147	trustworthiness	126	1.0	1		347.0361216626741	1.233457959836187
86.0	269.42415371500874	rating	1.0		859	trustworthiness	126	1.0	1		348.26957962251026	7.167527963989642
86.0	276.5916816789984	fix	2.0		59	trustworthiness	126	1.0	1	0.33000000000000007	355.4371075864999	0.516756358306111
87.0	277.1084380373045	face	0.0		147	trustworthiness	137	1.0	1		355.953863944806	1.2334498097097821
87.0	278.3418878470143	rating	1.0		93	trustworthiness	137	1.0	1		357.1873137545158	0.7834272912118649
87.0	279.12531513822614	fix	2.0		60	trustworthiness	137	1.0	1	0.3899999999999997	357.97074104572766	0.5167590750149884
88.0	279.64207421324113	face	0.0		147	trustworthiness	038	1.0	1		358.48750012074265	1.2334667136756252
88.0	280.87554092691676	rating	1.0		505	trustworthiness	038	1.0	1		359.7209668344183	4.21717853486075
88.0	285.0927194617775	fix	2.0		59	trustworthiness	038	1.0	1	-0.43000000000000016	363.938145369279	0.516742171048918
89.0	285.6094616328264	face	0.0		147	trustworthiness	033	1.0	1		364.45488754032795	1.2334655062495585
89.0	286.842927139076	rating	1.0		92	trustworthiness	033	1.0	1		365.6883530465775	0.775078241214942
89.0	287.6180053802909	fix	2.0		60	trustworthiness	033	1.0	1	1.2800000000000002	366.46343128779245	0.5167551508798169
90.0	288.13476053117074	face	0.0		147	trustworthiness	117	1.0	1		366.98018643867226	1.233454035701243
90.0	289.368214566872	rating	1.0		112	trustworthiness	117	1.0	1		368.2136404743735	0.9417854572764099
90.0	290.3100000241484	fix	2.0		60	trustworthiness	117	1.0	1	0.9500000000000002	369.1554259316499	0.5167578675889217
91.0	290.8267578917373	face	0.0		147	trustworthiness	005	1.0	1		369.67218379923884	1.2334585635492203
91.0	292.06021645528654	rating	1.0		51	trustworthiness	005	1.0	1		370.90564236278806	0.4334016937773413
91.0	292.4936181490639	fix	2.0		60	trustworthiness	005	1.0	1	0.7999999999999998	371.3390440565654	0.5167282856480142
92.0	293.0103464347119	face	0.0		147	trustworthiness	061	1.0	1		371.8557723422134	1.233460978401581
92.0	294.2438074131135	rating	1.0		191	trustworthiness	061	1.0	1		373.089233320615	1.6001849776866948
92.0	295.84399239080017	fix	2.0		60	trustworthiness	061	1.0	1	0.3799999999999999	374.6894182983017	0.5167548490235276
93.0	296.3607472398237	face	0.0		147	trustworthiness	082	1.0	1		375.2061731473252	1.2334612802580978
93.0	297.5942085200818	rating	1.0		89	trustworthiness	082	1.0	1		376.4396344275833	0.7501032349362049
93.0	298.344311755018	fix	2.0		60	trustworthiness	082	1.0	1	0.9000000000000004	377.1897376625195	0.5167485100359954
94.0	298.861060265054	face	0.0		147	trustworthiness	027	1.0	1		377.7064861725555	1.2334507152793321
94.0	300.0945109803333	rating	1.0		74	trustworthiness	027	1.0	1		378.93993688783485	0.6251074609276657
94.0	300.719618441261	fix	2.0		60	trustworthiness	027	1.0	1	2.08	379.5650443487625	0.5167255689391368
95.0	301.2363440102001	face	0.0		147	trustworthiness	087	1.0	1		380.08176991770165	1.2334546394142762
95.0	302.4697986496144	rating	1.0		92	trustworthiness	087	1.0	1		381.3152245571159	0.7751029934509006
95.0	303.2449016430653	fix	2.0		60	trustworthiness	087	1.0	1	1.5499999999999998	382.0903275505668	0.516743076618468
96.0	303.7616447196838	face	0.0		147	trustworthiness	099	1.0	1		382.6070706271853	1.2334582616927037
96.0	304.9951029813765	rating	1.0		62	trustworthiness	099	1.0	1		383.840528888878	0.5250604316790941
96.0	305.52016341305557	fix	2.0		60	trustworthiness	099	1.0	1	0.6200000000000001	384.3655893205571	0.5167578675886944
97.0	306.03692128064426	face	0.0		147	trustworthiness	091	1.0	1		384.8823471881458	1.2334615821148418
97.0	307.2703828627591	rating	1.0		83	trustworthiness	091	1.0	1		386.1158087702606	0.7000732303961286
97.0	307.97045609315524	fix	2.0		60	trustworthiness	091	1.0	1	1.8200000000000003	386.81588200065676	0.5167590750149884
98.0	308.4872151681702	face	0.0		147	trustworthiness	009	1.0	1		387.33264107567175	1.2334537338447262
98.0	309.72066890201495	rating	1.0		90	trustworthiness	009	1.0	1		388.56609480951647	0.7584217974226704
98.0	310.4790906994376	fix	2.0		60	trustworthiness	009	1.0	1	3.1799999999999997	389.32451660693914	0.5167611880108325
99.0	310.99585188744845	face	0.0		147	trustworthiness	070	1.0	1		389.84127779495	1.2334591672622537
99.0	312.2293110547107	rating	1.0		106	trustworthiness	070	1.0	1		391.0747369622122	0.891780204972747
99.0	313.12109125968345	fix	2.0		59	trustworthiness	070	1.0	1	-0.3500000000000001	391.966517167185	0.5167334172092524
100.0	313.6378246768927	face	0.0		147	trustworthiness	144	1.0	1		392.4832505843942	1.2334878436333838
100.0	314.8713125205261	rating	1.0		136	trustworthiness	144	1.0	1		393.7167384280276	1.1417871476730852
100.0	316.0130996681992	fix	2.0		60	trustworthiness	144	1.0	1	1.42	394.8585255757007	0.5167415673356572
101.0	316.52984123553483	face	0.0		147	trustworthiness	018	1.0	1		395.37526714303635	1.2334670155323693
101.0	317.7633082510672	rating	1.0		237	trustworthiness	018	1.0	1		396.6087341585687	1.9835696467555408
101.0	319.74687789782274	fix	2.0		60	trustworthiness	018	1.0	1	2.63	398.59230380532426	0.5167497174622895
102.0	320.26362761528503	face	0.0		147	trustworthiness	043	1.0	1		399.10905352278655	1.2334667136756252
102.0	321.49709432896066	rating	1.0		91	trustworthiness	043	1.0	1		400.3425202364622	0.7667485100362228
102.0	322.2638428389969	fix	2.0		59	trustworthiness	043	1.0	1	1.3499999999999996	401.1092687464984	0.5167575657321777
103.0	322.78060040472906	face	0.0		147	trustworthiness	141	1.0	1		401.6260263122306	1.2334612802580978
103.0	324.01406168498715	rating	1.0		151	trustworthiness	141	1.0	1		402.8594875924887	1.2668137110485986
103.0	325.28087539603575	fix	2.0		60	trustworthiness	141	1.0	1	0.6200000000000001	404.1263013035373	0.5167524341709395
104.0	325.7976278302067	face	0.0		147	trustworthiness	121	1.0	1		404.6430537377082	1.2334636951104585
104.0	327.03109152531715	rating	1.0		230	trustworthiness	121	1.0	1		405.8765174328187	1.9252355688427087
104.0	328.95632709415986	fix	2.0		60	trustworthiness	121	1.0	1	1.92	407.8017530016614	0.516744887757568
105.0	329.4730719819174	face	0.0		147	trustworthiness	011	1.0	1		408.31849788941895	1.233468222958436
105.0	330.70654020487586	rating	1.0		100	trustworthiness	011	1.0	1		409.5519661123774	0.8417619728379577
105.0	331.5483021777138	fix	2.0		59	trustworthiness	011	1.0	1	1.38	410.39372808521534	0.5167645084325159
106.0	332.06506668614634	face	0.0		147	trustworthiness	006	1.0	1		410.91049259364786	1.233444678148544
106.0	333.2985113642949	rating	1.0		277	trustworthiness	006	1.0	1		412.1439372717964	2.3169813621698268
106.0	335.6154927264647	fix	2.0		60	trustworthiness	006	1.0	1	-0.029999999999999805	414.46091863396623	0.5167104761123937
107.0	336.1322032025771	face	0.0		147	trustworthiness	101	1.0	1		414.9776291100786	1.2334621858276478
107.0	337.36566538840475	rating	1.0		164	trustworthiness	101	1.0	1		416.2110912959063	1.3751696433746474
107.0	338.7408350317794	fix	2.0		60	trustworthiness	101	1.0	1	-0.52	417.5862609392809	0.5167518304579062
108.0	339.2575868622373	face	0.0		147	trustworthiness	044	1.0	1		418.1030127697388	1.2334567524101203
108.0	340.4910436146474	rating	1.0		91	trustworthiness	044	1.0	1		419.33646952214895	0.7667608861543158
108.0	341.25780450080174	fix	2.0		60	trustworthiness	044	1.0	1	1.7599999999999998	420.10323040830326	0.5167636028629659
109.0	341.7745681036647	face	0.0		147	trustworthiness	064	1.0	1		420.6199940111662	1.233446489287644
109.0	343.00801459295235	rating	1.0		113	trustworthiness	064	1.0	1		421.85344050045387	0.9501160940246791
109.0	343.95813068697703	fix	2.0		60	trustworthiness	064	1.0	1	1.17	422.80355659447855	0.5167648102892599
110.0	344.4748954972663	face	0.0		147	trustworthiness	012	1.0	1		423.3203214047678	1.2334395465873058
110.0	345.7083350438536	rating	1.0		103	trustworthiness	012	1.0	1		424.5537609513551	0.8668018782720992
110.0	346.5751369221257	fix	2.0		60	trustworthiness	012	1.0	1	1.5899999999999999	425.4205628296272	0.5167258707958808
111.0	347.0918627929216	face	0.0		147	trustworthiness	066	1.0	1		425.9372887004231	1.2334627895406811
111.0	348.32532558246226	rating	1.0		100	trustworthiness	066	1.0	1		427.1707514899638	0.8417640858335744
111.0	349.16708966829583	fix	2.0		60	trustworthiness	066	1.0	1	0.6900000000000004	428.01251557579735	0.5167454914706013
112.0	349.68383515976643	face	0.0		147	trustworthiness	030	1.0	1		428.52926106726795	1.2335119921567639
112.0	350.9173471519232	rating	1.0		93	trustworthiness	030	1.0	1		429.7627730594247	0.7833795978785929
112.0	351.7007267498018	fix	2.0		60	trustworthiness	030	1.0	1	2.55	430.5461526573033	0.5167482081797061
113.0	352.2174749579815	face	0.0		147	trustworthiness	172	1.0	1		431.062900865483	1.2334754675152908
113.0	353.4509504254968	rating	1.0		78	trustworthiness	172	1.0	1		432.2963763329983	0.6583998222670289
113.0	354.1093502477638	fix	2.0		60	trustworthiness	172	1.0	1	-0.4900000000000002	432.95477615526534	0.5167518304579062
114.0	354.6261020782217	face	0.0		147	trustworthiness	102	1.0	1		433.47152798572324	1.23346852481518
114.0	355.8595706030369	rating	1.0		111	trustworthiness	102	1.0	1		434.7049965105384	0.9334841006123042
114.0	356.7930547036492	fix	2.0		60	trustworthiness	102	1.0	1	1.4000000000000004	435.6384806111507	0.516707155690483
115.0	357.3097618593397	face	0.0		147	trustworthiness	024	1.0	1		436.1551877668412	1.2334615821146144
115.0	358.5432234414543	rating	1.0		91	trustworthiness	024	1.0	1		437.3886493489558	0.7667491137490288
115.0	359.30997255520333	fix	2.0		60	trustworthiness	024	1.0	1	0.9199999999999999	438.15539846270485	0.5167593768715051
116.0	359.82673193207484	face	0.0		147	trustworthiness	039	1.0	1		438.67215783957636	1.2334748638024848
116.0	361.0602067958773	rating	1.0		132	trustworthiness	039	1.0	1		439.90563270337884	1.1084510171358488
116.0	362.16865781301317	fix	2.0		60	trustworthiness	039	1.0	1	0.9000000000000004	441.0140837205147	0.5167596787280218
117.0	362.6854174917412	face	0.0		147	trustworthiness	136	1.0	1		441.5308433992427	1.233449507853038
117.0	363.91886699959423	rating	1.0		481	trustworthiness	136	1.0	1		442.76429290709575	4.01716778876812
117.0	367.93603478836235	fix	2.0		59	trustworthiness	136	1.0	1	0.7800000000000002	446.78146069586387	0.5167397561963298
118.0	368.4527745445587	face	0.0		147	trustworthiness	130	1.0	1		447.2982004520602	1.2334639969669752
118.0	369.68623854152565	rating	1.0		67	trustworthiness	130	1.0	1		448.5316644490272	0.566728708247183
118.0	370.25296724977284	fix	2.0		60	trustworthiness	130	1.0	1	2.0300000000000002	449.09839315727436	0.5167590750149884
119.0	370.7697263247878	face	0.0		147	trustworthiness	036	1.0	1		449.61515223228935	1.2334458855746107
119.0	372.00317221036244	rating	1.0		79	trustworthiness	036	1.0	1		450.84859811786396	0.6667506834032793
119.0	372.6699228937657	fix	2.0		60	trustworthiness	036	1.0	1	1.42	451.51534880126724	0.5000594657381043
120.0	373.1699823595038	cue	0.0		3600						452.01540826700534	30.003628919305356
120.0	403.1736112788092	fix	1.0		120						482.0190371863107	1.0001116869191264
120.0	404.1737229657283	cue	0.0		480						483.0191488732298	4.000487498309667
120.0	408.17421046403797	fix	1.0		120						487.0196363715395	1.016805862778483
120.0	409.19101632681645	face	0.0		147	attractiveness	126	2.0	1		488.036442234318	1.2334664118191085
120.0	410.42448273863556	rating	1.0		132	attractiveness	126	2.0	1		489.2699086461371	1.108461883971131
120.0	411.5329446226067	fix	2.0		60	attractiveness	126	2.0	1	0.9500000000000002	490.3783705301082	0.5168004293607282
121.0	412.0497450519674	face	0.0		147	attractiveness	034	2.0	1		490.89517095946894	1.2334108702161757
121.0	413.2831559221836	rating	1.0		134	attractiveness	034	2.0	1		492.1285818296851	1.125140363290484
121.0	414.4082962854741	fix	2.0		60	attractiveness	034	2.0	1	0.41999999999999993	493.2537221929756	0.525068581805499
122.0	414.9333648672796	face	0.0		146	attractiveness	082	2.0	1		493.7787907747811	1.2251378880669108
122.0	416.1585027553465	rating	1.0		120	attractiveness	082	2.0	1		495.003928662848	1.0084516812200945
122.0	417.1669544365666	fix	2.0		60	attractiveness	082	2.0	1	0.7000000000000002	496.0123803440681	0.5167578675886944
123.0	417.6837123041553	face	0.0		147	attractiveness	087	2.0	1		496.5291382116568	1.233457054266637
123.0	418.9171693584219	rating	1.0		105	attractiveness	087	2.0	1		497.76259526592344	0.8834374939629015
123.0	419.8006068523848	fix	2.0		60	attractiveness	087	2.0	1	1.17	498.64603275988634	0.5167614898673492
124.0	420.31736834225217	face	0.0		147	attractiveness	061	2.0	1		499.1627942497537	1.2334537338444989
124.0	421.55082207609667	rating	1.0		161	attractiveness	061	2.0	1		500.3962479835982	1.3501529808936539
124.0	422.9009750569903	fix	2.0		60	attractiveness	061	2.0	1	-0.2799999999999998	501.74640096449184	0.5168188426096094
125.0	423.4177938995999	face	0.0		147	attractiveness	070	2.0	1		502.26321980710145	1.23340030523741
125.0	424.65119420483734	rating	1.0		75	attractiveness	070	2.0	1		503.49662011233886	0.6333991581825558
125.0	425.2845933630199	fix	2.0		60	attractiveness	070	2.0	1	-0.8700000000000001	504.1300192705214	0.5167629991499325
126.0	425.8013563621698	face	0.0		147	attractiveness	064	2.0	1		504.64678226967135	1.233457054266637
126.0	427.03481341643646	rating	1.0		78	attractiveness	064	2.0	1		505.880239323938	0.6584137076674779
126.0	427.69322712410394	fix	2.0		60	attractiveness	064	2.0	1	0.8300000000000001	506.53865303160546	0.516754547167011
127.0	428.20998167127095	face	0.0		147	attractiveness	121	2.0	1		507.0554075787725	1.2334594691187704
127.0	429.4434411403897	rating	1.0		178	attractiveness	121	2.0	1		508.28886704789124	1.491843232617839
127.0	430.93528437300756	fix	2.0		60	attractiveness	121	2.0	1	1.3899999999999997	509.7807102805091	0.516756358306111
128.0	431.4520407313137	face	0.0		147	attractiveness	091	2.0	1		510.2974666388152	1.2334513189923655
128.0	432.68549205030604	rating	1.0		143	attractiveness	091	2.0	1		511.53091795780756	1.2001447703958092
128.0	433.88563682070185	fix	2.0		60	attractiveness	091	2.0	1	2.42	512.7310627282034	0.5167605842977991
129.0	434.40239740499965	face	0.0		147	attractiveness	066	2.0	1		513.2478233125012	1.2334501115660714
129.0	435.6358475165657	rating	1.0		119	attractiveness	066	2.0	1		514.4812734240672	1.0001162147673313
129.0	436.63596373133305	fix	2.0		60	attractiveness	066	2.0	1	2.8200000000000003	515.4813896388346	0.5167593768715051
130.0	437.15272310820455	face	0.0		147	attractiveness	043	2.0	1		515.9981490157061	1.2334504134228155
130.0	438.38617352162737	rating	1.0		338	attractiveness	043	2.0	1		517.2315994291289	2.8253473161330476
130.0	441.2115208377604	fix	2.0		61	attractiveness	043	2.0	1	0.040000000000000036	520.0569467452619	0.5250897117632576
131.0	441.7366105495237	face	0.0		146	attractiveness	141	2.0	1		520.5820364570252	1.2251221915266797
131.0	442.96173274105035	rating	1.0		213	attractiveness	141	2.0	1		521.8071586485519	1.783537770705152
131.0	444.7452705117555	fix	2.0		60	attractiveness	141	2.0	1	-0.9900000000000002	523.590696419257	0.516756358306111
132.0	445.2620268700616	face	0.0		147	attractiveness	027	2.0	1		524.1074527775631	1.2334627895406811
132.0	446.4954896596023	rating	1.0		112	attractiveness	027	2.0	1		525.3409155671038	0.9417815331414658
132.0	447.43727119274376	fix	2.0		60	attractiveness	027	2.0	1	2.01	526.2826971002453	0.5167466988968954
133.0	447.95401789164066	face	0.0		147	attractiveness	099	2.0	1		526.7994437991422	1.233461883971131
133.0	449.1874797756118	rating	1.0		123	attractiveness	099	2.0	1		528.0329056831133	1.0334508360219843
133.0	450.2209306116338	fix	2.0		60	attractiveness	099	2.0	1	0.8700000000000001	529.0663565191353	0.5167636028629659
134.0	450.73769421449674	face	0.0		147	attractiveness	018	2.0	1		529.5831201219983	1.2334564505533763
134.0	451.9711506650501	rating	1.0		276	attractiveness	018	2.0	1		530.8165765725516	2.308604239514807
134.0	454.2797549045649	fix	2.0		60	attractiveness	018	2.0	1	-0.27	533.1251808120664	0.5167629991499325
135.0	454.79651790371486	face	0.0		147	attractiveness	036	2.0	1		533.6419438112164	1.2334573561231537
135.0	456.029975259838	rating	1.0		160	attractiveness	036	2.0	1		534.8754011673395	1.3418208348628013
135.0	457.3717960947008	fix	2.0		60	attractiveness	036	2.0	1	0.6500000000000004	536.2172220022023	0.5167626972934158
136.0	457.8885587919942	face	0.0		147	attractiveness	100	2.0	1		536.7339846994957	1.233447394857194
136.0	459.1220061868514	rating	1.0		275	attractiveness	100	2.0	1		537.967432094353	2.300275413905865
136.0	461.4222816007573	fix	2.0		60	attractiveness	100	2.0	1	2.6900000000000004	540.2677075082588	0.5167590750149884
137.0	461.9390406757723	face	0.0		147	attractiveness	009	2.0	1		540.7844665832738	1.2334510171356214
137.0	463.1724916929079	rating	1.0		156	attractiveness	009	2.0	1		542.0179176004094	1.308500099009052
137.0	464.48099179191695	fix	2.0		60	attractiveness	009	2.0	1	2.54	543.3264176994185	0.5167539434537503
138.0	464.9977457353707	face	0.0		147	attractiveness	144	2.0	1		543.8431716428722	1.2334582616927037
138.0	466.2312039970634	rating	1.0		112	attractiveness	144	2.0	1		545.0766299045649	0.941775194154161
138.0	467.17297919121756	fix	2.0		60	attractiveness	144	2.0	1	1.96	546.0184050987191	0.516804655352189
139.0	467.68978384656975	face	0.0		147	attractiveness	044	2.0	1		546.5352097540713	1.2334069460812316
139.0	468.923190792651	rating	1.0		384	attractiveness	044	2.0	1		547.7686167001525	3.208718703514023
139.0	472.131909496165	fix	2.0		60	attractiveness	044	2.0	1	0.40000000000000036	550.9773354036665	0.5167599805847658
140.0	472.6486694767498	face	0.0		147	attractiveness	092	2.0	1		551.4940953842513	1.2334510171356214
140.0	473.8821204938854	rating	1.0		119	attractiveness	092	2.0	1		552.7275464013869	1.000116516623848
140.0	474.88223701050924	fix	2.0		60	attractiveness	092	2.0	1	-3.5300000000000002	553.7276629180108	0.5167681307111707
141.0	475.3990051412204	face	0.0		147	attractiveness	038	2.0	1		554.2444310487219	1.2334428670092166
141.0	476.63244800822963	rating	1.0		94	attractiveness	038	2.0	1		555.4778739157312	0.7917600409559782
141.0	477.4242080491856	fix	2.0		60	attractiveness	038	2.0	1	-2.25	556.2696339566871	0.5167569620191443
142.0	477.94096501120475	face	0.0		147	attractiveness	030	2.0	1		556.7863909187063	1.233457054266637
142.0	479.1744220654714	rating	1.0		200	attractiveness	030	2.0	1		558.0198479729729	1.6751984404884297
142.0	480.8496205059598	fix	2.0		60	attractiveness	030	2.0	1	2.7199999999999998	559.6950464134613	0.5167714511330814
143.0	481.3663919570929	face	0.0		147	attractiveness	101	2.0	1		560.2118178645944	1.2334522245619155
143.0	482.5998441816548	rating	1.0		162	attractiveness	101	2.0	1		561.4452700891563	1.358482712072373
143.0	483.9583268937272	fix	2.0		60	attractiveness	101	2.0	1	1.4699999999999998	562.8037528012287	0.5167654140020659
144.0	484.47509230772926	face	0.0		147	attractiveness	042	2.0	1		563.3205182152308	1.233455243127537
144.0	485.7085475508568	rating	1.0		83	attractiveness	042	2.0	1		564.5539734583583	0.7000880213665823
144.0	486.4086355722234	fix	2.0		60	attractiveness	042	2.0	1	0.6500000000000004	565.2540614797249	0.5167542453102669
145.0	486.92538981753364	face	0.0		147	attractiveness	102	2.0	1		565.7708157250352	1.2334522245619155
145.0	488.15884204209556	rating	1.0		92	attractiveness	102	2.0	1		567.0042679495971	0.7750863913413468
145.0	488.9339284334369	fix	2.0		60	attractiveness	102	2.0	1	-0.8300000000000001	567.7793543409384	0.5167633010064492
146.0	489.45069173444335	face	0.0		147	attractiveness	012	2.0	1		568.2961176419449	1.2334507152793321
146.0	490.6841424497227	rating	1.0		154	attractiveness	012	2.0	1		569.5295683572242	1.2918255438246433
146.0	491.97596799354733	fix	2.0		60	attractiveness	012	2.0	1	2.12	570.8213939010489	0.5167533397407169
147.0	492.49272133328805	face	0.0		147	attractiveness	124	2.0	1		571.3381472407896	1.2334612802580978
147.0	493.72618261354614	rating	1.0		215	attractiveness	124	2.0	1		572.5716085210477	1.8002077980411286
147.0	495.5263904115873	fix	2.0		60	attractiveness	124	2.0	1	3.74	574.3718163190888	0.5167463970403787
148.0	496.04313680862765	face	0.0		147	attractiveness	136	2.0	1		574.8885627161292	1.2334627895409085
148.0	497.27659959816856	rating	1.0		144	attractiveness	136	2.0	1		576.1220255056701	1.208485066553294
148.0	498.48508466472185	fix	2.0		60	attractiveness	136	2.0	1	-0.56	577.3305105722234	0.5167385487702632
149.0	499.0018232134921	face	0.0		147	attractiveness	006	2.0	1		577.8472491209936	1.2335110865869865
149.0	500.2353343000791	rating	1.0		601	attractiveness	006	2.0	1		579.0807602075806	5.017231178641168
149.0	505.25256547872027	fix	2.0		60	attractiveness	006	2.0	1	-0.06000000000000005	584.0979913862218	0.5167442840445347
150.0	505.7693097627648	face	0.0		147	attractiveness	137	2.0	1		584.6147356702663	1.2334652043930419
150.0	507.00277496715785	rating	1.0		279	attractiveness	137	2.0	1		585.8482008746594	2.333608827734224
150.0	509.3363837948921	fix	2.0		60	attractiveness	137	2.0	1	-0.020000000000000018	588.1818097023936	0.5167557545930777
151.0	509.85313954948515	face	0.0		147	attractiveness	011	2.0	1		588.6985654569867	1.2334646006800085
151.0	511.08660415016516	rating	1.0		99	attractiveness	011	2.0	1		589.9320300576667	0.8334231859628289
151.0	511.920027336128	fix	2.0		60	attractiveness	011	2.0	1	0.75	590.7654532436295	0.5167530378842002
152.0	512.4367803740122	face	0.0		147	attractiveness	033	2.0	1		591.2822062815137	1.2334606765450644
152.0	513.6702410505573	rating	1.0		108	attractiveness	033	2.0	1		592.5156669580588	0.908442685895352
152.0	514.5786837364526	fix	2.0		60	attractiveness	033	2.0	1	1.7999999999999998	593.4241096439541	0.5167593768715051
153.0	515.0954431133241	face	0.0		147	attractiveness	172	2.0	1		593.9408690208256	1.2334606765450644
153.0	516.3289037898692	rating	1.0		264	attractiveness	172	2.0	1		595.1743296973707	2.2085904144851156
153.0	518.5374942043543	fix	2.0		60	attractiveness	172	2.0	1	-1.0299999999999998	597.3829201118558	0.5167629991499325
154.0	519.0542572035042	face	0.0		147	attractiveness	117	2.0	1		597.8996831110057	1.2334504134228155
154.0	520.287707616927	rating	1.0		118	attractiveness	117	2.0	1		599.1331335244286	0.9917873891583895
154.0	521.2794950060854	fix	2.0		60	attractiveness	117	2.0	1	0.25	600.124920913587	0.5167466988968954
155.0	521.7962417049823	face	0.0		147	attractiveness	024	2.0	1		600.6416676124838	1.2334630913971978
155.0	523.0297047963795	rating	1.0		110	attractiveness	024	2.0	1		601.875130703881	0.9251075816703178
155.0	523.9548123780498	fix	2.0		60	attractiveness	024	2.0	1	-0.7000000000000002	602.8002382855514	0.5167605842977991
156.0	524.4715729623476	face	0.0		147	attractiveness	062	2.0	1		603.3169988698492	1.2334866362073171
156.0	525.705059598555	rating	1.0		70	attractiveness	062	2.0	1		604.5504855060565	0.591704318238726
156.0	526.2967639167937	fix	2.0		60	attractiveness	062	2.0	1	0.3600000000000003	605.1421898242952	0.5167491137492561
157.0	526.8135130305429	face	0.0		147	attractiveness	005	2.0	1		605.6589389380445	1.2334582616927037
157.0	528.0469712922356	rating	1.0		210	attractiveness	005	2.0	1		606.8923971997372	1.758549180882028
157.0	529.8055204731177	fix	2.0		60	attractiveness	005	2.0	1	-1.38	608.6509463806192	0.5167512267451002
158.0	530.3222716998628	face	0.0		147	attractiveness	130	2.0	1		609.1676976073643	1.2334896547727112
158.0	531.5557613546355	rating	1.0		119	attractiveness	130	2.0	1		610.401187262137	1.0000860291133904
158.0	532.5558473837489	fix	2.0		60	attractiveness	130	2.0	1	-2.08	611.4012732912504	0.5167527360276836
159.0	533.0726001197766	face	0.0		147	attractiveness	039	2.0	1		611.9180260272781	1.2334691285282133
159.0	534.3060692483048	rating	1.0		127	attractiveness	039	2.0	1		613.1514951558063	1.0667890795548374
159.0	535.3728583278596	fix	2.0		60	attractiveness	039	2.0	1	1.8200000000000003	614.2182842353611	0.5000917643876619
160.0	535.8729500922473	cue	0.0		480						614.7183759997488	4.000446445820444
160.0	539.8733965380677	fix	1.0		120						618.7188224455692	1.0168103906264605
160.0	540.8902069286942	face	0.0		147	trustworthiness	006	2.0	1		619.7356328361957	1.2334639969669752
160.0	542.1236709256611	rating	1.0		276	trustworthiness	006	2.0	1		620.9690968331627	2.308609974788851
160.0	544.43228090045	fix	2.0		60	trustworthiness	006	2.0	1	-0.3500000000000001	623.2777068079515	0.5167515286016169
161.0	544.9490324290516	face	0.0		147	trustworthiness	101	2.0	1		623.7944583365531	1.2334612802580978
161.0	546.1824937093097	rating	1.0		224	trustworthiness	101	2.0	1		625.0279196168112	1.8752272979734244
161.0	548.0577210072831	fix	2.0		60	trustworthiness	101	2.0	1	0.6299999999999999	626.9031469147847	0.5167476044664454
162.0	548.5744686117496	face	0.0		147	trustworthiness	012	2.0	1		627.4198945192511	1.2334636951104585
162.0	549.80793230686	rating	1.0		136	trustworthiness	012	2.0	1		628.6533582143616	1.1418085794873605
162.0	550.9497408863474	fix	2.0		60	trustworthiness	012	2.0	1	0.0	629.7951667938489	0.516745793327118
163.0	551.4664866796745	face	0.0		147	trustworthiness	009	2.0	1		630.311912587176	1.2334624876843918
163.0	552.6999491673589	rating	1.0		576	trustworthiness	009	2.0	1		631.5453750748604	4.808905492340045
163.0	557.508854659699	fix	2.0		60	trustworthiness	009	2.0	1	0.5999999999999996	636.3542805672005	0.5167527360276836
164.0	558.0256073957266	face	0.0		147	trustworthiness	102	2.0	1		636.8710333032282	1.233460978401581
164.0	559.2590683741282	rating	1.0		90	trustworthiness	102	2.0	1		638.1044942816297	0.7584260234143585
164.0	560.0174943975426	fix	2.0		60	trustworthiness	102	2.0	1	1.3899999999999997	638.8629203050441	0.5167551508800443
165.0	560.5342495484226	face	0.0		147	trustworthiness	082	2.0	1		639.3796754559241	1.2334585635492203
165.0	561.7677081119718	rating	1.0		84	trustworthiness	082	2.0	1		640.6131340194734	0.7084180544018182
165.0	562.4761261663737	fix	2.0		60	trustworthiness	082	2.0	1	2.5599999999999996	641.3215520738752	0.5167533397407169
166.0	562.9928795061144	face	0.0		147	trustworthiness	066	2.0	1		641.8383054136159	1.2334534319879822
166.0	564.2263329381024	rating	1.0		161	trustworthiness	066	2.0	1		643.0717588456039	1.3501632440161302
166.0	565.5764961821185	fix	2.0		60	trustworthiness	066	2.0	1	-0.31000000000000005	644.42192208962	0.5167530378842002
167.0	566.0932492200027	face	0.0		147	trustworthiness	141	2.0	1		644.9386751275042	1.2334573561229263
167.0	567.3267065761256	rating	1.0		74	trustworthiness	141	2.0	1		646.1721324836271	0.6250793882697963
167.0	567.9517859643954	fix	2.0		60	trustworthiness	141	2.0	1	1.7199999999999998	646.7972118718969	0.5167485100359954
168.0	568.4685344744314	face	0.0		147	trustworthiness	070	2.0	1		647.3139603819329	1.2334576579796703
168.0	569.7019921324111	rating	1.0		58	trustworthiness	070	2.0	1		648.5474180399126	0.49172490485489107
168.0	570.193717037266	fix	2.0		60	trustworthiness	070	2.0	1	-1.06	649.0391429447675	0.5167566601626277
169.0	570.7104736974286	face	0.0		147	trustworthiness	044	2.0	1		649.5558996049301	1.2335002197514768
169.0	571.9439739171801	rating	1.0		119	trustworthiness	044	2.0	1		650.7893998246816	1.0000760678476581
169.0	572.9440499850277	fix	2.0		60	trustworthiness	044	2.0	1	-0.6000000000000001	651.7894758925293	0.516756358306111
170.0	573.4608063433338	face	0.0		147	trustworthiness	130	2.0	1		652.3062322508354	1.2334627895409085
170.0	574.6942691328748	rating	1.0		72	trustworthiness	130	2.0	1		653.5396950403763	0.6084036256593208
170.0	575.3026727585341	fix	2.0		60	trustworthiness	130	2.0	1	1.3499999999999996	654.1480986660356	0.5167482081794788
171.0	575.8194209667136	face	0.0		147	trustworthiness	061	2.0	1		654.6648468742151	1.2334576579796703
171.0	577.0528786246932	rating	1.0		173	trustworthiness	061	2.0	1		655.8983045321947	1.4501725411973894
171.0	578.5030511658906	fix	2.0		60	trustworthiness	061	2.0	1	1.2599999999999998	657.3484770733921	0.5167578675886944
172.0	579.0198090334793	face	0.0		147	trustworthiness	136	2.0	1		657.8652349409808	1.2334633932539418
172.0	580.2532724267332	rating	1.0		84	trustworthiness	136	2.0	1		659.0986983342348	0.7084711811526176
172.0	580.9617436078859	fix	2.0		60	trustworthiness	136	2.0	1	1.2400000000000002	659.8071695153874	0.5166953832854233
173.0	581.4784389911713	face	0.0		147	trustworthiness	027	2.0	1		660.3238648986728	1.2334555449838263
173.0	582.7118945361551	rating	1.0		176	trustworthiness	027	2.0	1		661.5573204436566	1.47517863869939
173.0	584.1870731748545	fix	2.0		60	trustworthiness	027	2.0	1	2.09	663.032499082356	0.5167551508800443
174.0	584.7038283257345	face	0.0		147	trustworthiness	036	2.0	1		663.5492542332361	1.233455846840343
174.0	585.9372841725749	rating	1.0		140	trustworthiness	036	2.0	1		664.7827100800764	1.175147728589991
174.0	587.1124319011649	fix	2.0		60	trustworthiness	036	2.0	1	1.0300000000000002	665.9578578086664	0.5168094850569105
175.0	587.6292413862218	face	0.0		147	trustworthiness	024	2.0	1		666.4746672937233	1.23340302194606
175.0	588.8626444081679	rating	1.0		351	trustworthiness	024	2.0	1		667.7080703156694	2.933684533353926
175.0	591.7963289415218	fix	2.0		60	trustworthiness	024	2.0	1	0.75	670.6417548490233	0.5167521323146502
176.0	592.3130810738364	face	0.0		147	trustworthiness	099	2.0	1		671.158506981338	1.2334522245619155
176.0	593.5465332983983	rating	1.0		145	trustworthiness	099	2.0	1		672.3919592058999	1.2168169107278572
176.0	594.7633502091262	fix	2.0		60	trustworthiness	099	2.0	1	0.8600000000000003	673.6087761166277	0.5167518304579062
177.0	595.2801020395841	face	0.0		147	trustworthiness	144	2.0	1		674.1255279470856	1.2334627895409085
177.0	596.513564829125	rating	1.0		105	trustworthiness	144	2.0	1		675.3589907366265	0.8834323624016633
177.0	597.3969971915267	fix	2.0		60	trustworthiness	144	2.0	1	2.4400000000000004	676.2424230990282	0.5167614898673492
178.0	597.913758681394	face	0.0		147	trustworthiness	172	2.0	1		676.7591845888956	1.2334528282749488
178.0	599.147211509669	rating	1.0		90	trustworthiness	172	2.0	1		677.9926374171705	0.7584245141317751
178.0	599.9056360238008	fix	2.0		60	trustworthiness	172	2.0	1	1.3499999999999996	678.7510619313023	0.5167491137490288
179.0	600.4223851375498	face	0.0		147	trustworthiness	100	2.0	1		679.2678110450513	1.2334661099628192
179.0	601.6558512475126	rating	1.0		106	trustworthiness	100	2.0	1		680.5012771550141	0.8917699418502707
179.0	602.5476211893629	fix	2.0		60	trustworthiness	100	2.0	1	2.3200000000000003	681.3930470968644	0.5167605842977991
180.0	603.0643817736607	face	0.0		147	trustworthiness	137	2.0	1		681.9098076811622	1.2334492059965214
180.0	604.2978309796572	rating	1.0		111	trustworthiness	137	2.0	1		683.1432568871587	0.9334747430596053
180.0	605.2313057227168	fix	2.0		60	trustworthiness	137	2.0	1	1.3399999999999999	684.0767316302183	0.5167334172092524
181.0	605.748039139926	face	0.0		147	trustworthiness	126	2.0	1		684.5934650474276	1.233446791144388
181.0	606.9814859310704	rating	1.0		117	trustworthiness	126	2.0	1		685.826911838572	0.9834679211019193
181.0	607.9649538521724	fix	2.0		60	trustworthiness	126	2.0	1	1.7999999999999998	686.8103797596739	0.5167382469137465
182.0	608.4816920990861	face	0.0		147	trustworthiness	087	2.0	1		687.3271180065876	1.2334594691189977
182.0	609.7151515682051	rating	1.0		115	trustworthiness	087	2.0	1		688.5605774757066	0.9667861213606557
182.0	610.6819376895658	fix	2.0		60	trustworthiness	087	2.0	1	2.66	689.5273635970673	0.5167476044666728
183.0	611.1986852940324	face	0.0		147	trustworthiness	030	2.0	1		690.044111201534	1.2334579598359596
183.0	612.4321432538684	rating	1.0		83	trustworthiness	030	2.0	1		691.2775691613699	0.7000910399322038
183.0	613.1322342938006	fix	2.0		60	trustworthiness	030	2.0	1	2.55	691.9776602013021	0.5167521323144229
184.0	613.648986426115	face	0.0		147	trustworthiness	038	2.0	1		692.4944123336165	1.2334528282751762
184.0	614.8824392543902	rating	1.0		142	trustworthiness	038	2.0	1		693.7278651618917	1.19181322807799
184.0	616.0742524824682	fix	2.0		60	trustworthiness	038	2.0	1	1.0300000000000002	694.9196783899697	0.5167448877573406
185.0	616.5909973702255	face	0.0		147	trustworthiness	042	2.0	1		695.436423277727	1.2334700340979907
185.0	617.8244674043235	rating	1.0		118	trustworthiness	042	2.0	1		696.669893311825	0.9917858798753514
185.0	618.8162532841989	fix	2.0		60	trustworthiness	042	2.0	1	2.5300000000000002	697.6616791917004	0.5167666214288147
186.0	619.3330199056277	face	0.0		147	trustworthiness	043	2.0	1		698.1784458131292	1.233439848443595
186.0	620.5664597540713	rating	1.0		77	trustworthiness	043	2.0	1		699.4118856615728	0.6500737133669645
186.0	621.2165334674382	fix	2.0		60	trustworthiness	043	2.0	1	1.29	700.0619593749398	0.5167506230318395
187.0	621.7332840904701	face	0.0		147	trustworthiness	018	2.0	1		700.5787099979716	1.233471845236636
187.0	622.9667559357067	rating	1.0		81	trustworthiness	018	2.0	1		701.8121818432082	0.6834273515833047
187.0	623.65018328729	fix	2.0		60	trustworthiness	018	2.0	1	2.2800000000000002	702.4956091947915	0.5167358320613857
188.0	624.1669191193514	face	0.0		147	trustworthiness	091	2.0	1		703.0123450268529	1.2334540357014703
188.0	625.4003731550529	rating	1.0		109	trustworthiness	091	2.0	1		704.2457990625544	0.9167832839093535
188.0	626.3171564389622	fix	2.0		60	trustworthiness	091	2.0	1	0.9900000000000002	705.1625823464638	0.5167515286011621
189.0	626.8339079675634	face	0.0		147	trustworthiness	092	2.0	1		705.6793338750649	1.2334612802583251
189.0	628.0673692478217	rating	1.0		86	trustworthiness	092	2.0	1		706.9127951553232	0.7250838557465613
189.0	628.7924531035683	fix	2.0		60	trustworthiness	092	2.0	1	-1.9100000000000001	707.6378790110698	0.5167578675886944
190.0	629.309210971157	face	0.0		147	trustworthiness	039	2.0	1		708.1546368786585	1.2334576579796703
190.0	630.5426686291366	rating	1.0		111	trustworthiness	039	2.0	1		709.3880945366382	0.933437312849037
190.0	631.4761059419857	fix	2.0		60	trustworthiness	039	2.0	1	1.92	710.3215318494872	0.5167617917236385
191.0	631.9928677337093	face	0.0		147	trustworthiness	005	2.0	1		710.8382936412108	1.2334540357010155
191.0	633.2263217694103	rating	1.0		159	trustworthiness	005	2.0	1		712.0717476769119	1.3334932166799263
191.0	634.5598149860903	fix	2.0		60	trustworthiness	005	2.0	1	1.08	713.4052408935918	0.5167702437070147
192.0	635.0765852297973	face	0.0		147	trustworthiness	062	2.0	1		713.9220111372988	1.2334383391612391
192.0	636.3100235689585	rating	1.0		83	trustworthiness	062	2.0	1		715.15544947646	0.7001266590032174
192.0	637.0101502279617	fix	2.0		60	trustworthiness	062	2.0	1	0.2599999999999998	715.8555761354633	0.5167089668298104
193.0	637.5268591947915	face	0.0		147	trustworthiness	117	2.0	1		716.3722851022931	1.2334676192454026
193.0	638.760326814037	rating	1.0		116	trustworthiness	117	2.0	1		717.6057527215385	0.9751067968431926
193.0	639.7354336108801	fix	2.0		60	trustworthiness	117	2.0	1	1.7400000000000002	718.5808595183817	0.5167587731584717
194.0	640.2521923840386	face	0.0		147	trustworthiness	033	2.0	1		719.0976182915401	1.2334600728318037
194.0	641.4856524568704	rating	1.0		61	trustworthiness	033	2.0	1		720.3310783643719	0.5167276819352082
194.0	642.0023801388056	fix	2.0		60	trustworthiness	033	2.0	1	0.8700000000000001	720.8478060463071	0.5167512267448728
195.0	642.5191313655505	face	0.0		147	trustworthiness	121	2.0	1		721.364557273052	1.2334555449838263
195.0	643.7525869105343	rating	1.0		151	trustworthiness	121	2.0	1		722.5980128180358	1.2668149184746653
195.0	645.019401829009	fix	2.0		60	trustworthiness	121	2.0	1	2.4400000000000004	723.8648277365105	0.5167551508798169
196.0	645.5361569798888	face	0.0		147	trustworthiness	011	2.0	1		724.3815828873903	1.2334905603424886
196.0	646.7696475402313	rating	1.0		173	trustworthiness	011	2.0	1		725.6150734477328	1.4501505056700807
196.0	648.2197980459014	fix	2.0		60	trustworthiness	011	2.0	1	0.8700000000000001	727.0652239534029	0.5167768845508363
197.0	648.7365749304522	face	0.0		147	trustworthiness	124	2.0	1		727.5820008379537	1.2334286797517962
197.0	649.970003610204	rating	1.0		256	trustworthiness	124	2.0	1		728.8154295177055	2.141935962946718
197.0	652.1119395731507	fix	2.0		60	trustworthiness	124	2.0	1	0.9400000000000004	730.9573654806522	0.516745793327118
198.0	652.6286853664778	face	0.0		147	trustworthiness	034	2.0	1		731.4741112739794	1.2334624876843918
198.0	653.8621478541622	rating	1.0		104	trustworthiness	034	2.0	1		732.7075737616638	0.8751183277631753
198.0	654.7372661819254	fix	2.0		60	trustworthiness	034	2.0	1	1.9400000000000004	733.5826920894269	0.5250661669529109
199.0	655.2623323488783	face	0.0		146	trustworthiness	064	2.0	1		734.1077582563798	1.225134567645
199.0	656.4874669165233	rating	1.0		117	trustworthiness	064	2.0	1		735.3328928240248	0.9834510171358488
199.0	657.4709179336592	fix	2.0		59	trustworthiness	064	2.0	1	2.9800000000000004	736.3163438411607	0.5000552397464162
200.0	657.9709731734056	cue	0.0		480						736.8163990809071	4.0004844797440455
200.0	661.9714576531496	fix	1.0		120						740.8168835606511	1.0168149184746653
200.0	662.9882725716243	face	0.0		146	dominance	126	2.0	1		741.8336984791258	1.2334543375577596
200.0	664.221726909182	rating	1.0		111	dominance	126	2.0	1		743.0671528166836	0.9334493871106133
200.0	665.1551762962927	fix	2.0		60	dominance	126	2.0	1	1.67	744.0006022037942	0.5167406617661072
201.0	665.6719169580588	face	0.0		147	dominance	027	2.0	1		744.5173428655603	1.2334694303845026
201.0	666.9053863884433	rating	1.0		85	dominance	027	2.0	1		745.7508122959448	0.716747181867504
201.0	667.6221335703108	fix	2.0		60	dominance	027	2.0	1	0.6799999999999997	746.4675594778123	0.516755452736561
202.0	668.1388890230473	face	0.0		147	dominance	061	2.0	1		746.9843149305489	1.2334591672620263
202.0	669.3723481903094	rating	1.0		216	dominance	061	2.0	1		748.2177740978109	1.8085689222998553
202.0	671.1809171126092	fix	2.0		59	dominance	061	2.0	1	-0.7400000000000002	750.0263430201107	0.5167397561967846
203.0	671.697656868806	face	0.0		147	dominance	043	2.0	1		750.5430827763075	1.2334636951100038
203.0	672.931120563916	rating	1.0		428	dominance	043	2.0	1		751.7765464714175	3.5754179505634056
203.0	676.5065385144794	fix	2.0		60	dominance	043	2.0	1	0.3899999999999997	755.3519644219809	0.5167539434537503
204.0	677.0232924579332	face	0.0		147	dominance	066	2.0	1		755.8687183654347	1.233457054266637
204.0	678.2567495121998	rating	1.0		67	dominance	066	2.0	1		757.1021754197013	0.5667398769392094
204.0	678.823489389139	fix	2.0		60	dominance	066	2.0	1	3.6900000000000004	757.6689152966405	0.5167485100359954
205.0	679.340237899175	face	0.0		147	dominance	039	2.0	1		758.1856638066765	1.2334624876843918
205.0	680.5737003868594	rating	1.0		244	dominance	039	2.0	1		759.4191262943609	2.0419097617987063
205.0	682.6156101486581	fix	2.0		60	dominance	039	2.0	1	-0.5299999999999998	761.4610360561596	0.5167539434537503
206.0	683.1323640921119	face	0.0		147	dominance	172	2.0	1		761.9777899996134	1.2334564505536036
206.0	684.3658205426655	rating	1.0		103	dominance	172	2.0	1		763.211246450167	0.8667716926183857
206.0	685.2325922352838	fix	2.0		60	dominance	172	2.0	1	-1.33	764.0780181427854	0.5167530378839729
207.0	685.7493452731678	face	0.0		147	dominance	024	2.0	1		764.5947711806693	1.2334582616927037
207.0	686.9828035348605	rating	1.0		124	dominance	024	2.0	1		765.828229442362	1.0417926414620524
207.0	688.0245961763226	fix	2.0		60	dominance	024	2.0	1	-0.27	766.8700220838241	0.5167433784749846
208.0	688.5413395547976	face	0.0		147	dominance	101	2.0	1		767.3867654622991	1.2334694303849574
208.0	689.7748089851825	rating	1.0		124	dominance	101	2.0	1		768.620234892684	1.0417926414620524
208.0	690.8166016266446	fix	2.0		60	dominance	101	2.0	1	2.71	769.6620275341461	0.5167403599093632
209.0	691.3333419865539	face	0.0		147	dominance	137	2.0	1		770.1787678940555	1.2334633932537145
209.0	692.5668053798076	rating	1.0		113	dominance	137	2.0	1		771.4122312873092	0.9501169995946839
209.0	693.5169223794023	fix	2.0		60	dominance	137	2.0	1	2.1799999999999997	772.3623482869039	0.5167530378839729
210.0	694.0336754172863	face	0.0		147	dominance	011	2.0	1		772.8791013247878	1.2334576579796703
210.0	695.267133075266	rating	1.0		192	dominance	011	2.0	1		774.1125589827675	1.6085279905532843
210.0	696.8756610658193	fix	2.0		60	dominance	011	2.0	1	0.9199999999999999	775.7210869733208	0.516745491470374
211.0	697.3924065572896	face	0.0		147	dominance	036	2.0	1		776.2378324647912	1.233476071228779
211.0	698.6258826285184	rating	1.0		160	dominance	036	2.0	1		777.4713085360199	1.3418178162974073
211.0	699.9677004448158	fix	2.0		60	dominance	036	2.0	1	1.12	778.8131263523173	0.5167542453100396
212.0	700.4844546901259	face	0.0		147	dominance	042	2.0	1		779.3298805976274	1.2334543375577596
212.0	701.7179090276836	rating	1.0		84	dominance	042	2.0	1		780.5633349351851	0.7084147339801348
212.0	702.4263237616638	fix	2.0		60	dominance	042	2.0	1	1.0300000000000002	781.2717496691653	0.5167503211750955
213.0	702.9430740828388	face	0.0		147	dominance	100	2.0	1		781.7884999903404	1.2334636951104585
213.0	704.1765377779493	rating	1.0		141	dominance	100	2.0	1		783.0219636854508	1.183473233777022
213.0	705.3600110117263	fix	2.0		60	dominance	100	2.0	1	2.42	784.2054369192279	0.5167530378844276
214.0	705.8767640496108	face	0.0		147	dominance	044	2.0	1		784.7221899571123	1.23347395823248
214.0	707.1102380078432	rating	1.0		166	dominance	044	2.0	1		785.9556639153448	1.3918251815971416
214.0	708.5020631894404	fix	2.0		60	dominance	044	2.0	1	-0.4900000000000002	787.3474890969419	0.5167433784749846
215.0	709.0188065679154	face	0.0		147	dominance	091	2.0	1		787.8642324754169	1.2334893529159672
215.0	710.2522959208313	rating	1.0		85	dominance	091	2.0	1		789.0977218283329	0.7167305797579502
215.0	710.9690265005893	fix	2.0		60	dominance	091	2.0	1	-0.5	789.8144524080908	0.5167557545928503
216.0	711.4857822551821	face	0.0		147	dominance	006	2.0	1		790.3312081626837	1.2334573561229263
216.0	712.719239611305	rating	1.0		79	dominance	006	2.0	1		791.5646655188066	0.6667395147114803
216.0	713.3859791260165	fix	2.0		60	dominance	006	2.0	1	0.8499999999999996	792.2314050335181	0.5167605842975718
217.0	713.9027397103141	face	0.0		147	dominance	117	2.0	1		792.7481656178156	1.2334519227056262
217.0	715.1361916330197	rating	1.0		186	dominance	117	2.0	1		793.9816175405213	1.5585278698104048
217.0	716.6947195028301	fix	2.0		60	dominance	117	2.0	1	1.8499999999999996	795.5401454103317	0.5167500193188062
218.0	717.211469522149	face	0.0		147	dominance	082	2.0	1		796.0568954296505	1.2334561486968596
218.0	718.4449256708458	rating	1.0		155	dominance	082	2.0	1		797.2903515783473	1.3001543694340398
218.0	719.7450800402798	fix	2.0		60	dominance	082	2.0	1	0.0	798.5905059477814	0.5167533397407169
219.0	720.2618333800206	face	0.0		147	dominance	030	2.0	1		799.1072592875221	1.2334630913969704
219.0	721.4952964714175	rating	1.0		102	dominance	030	2.0	1		800.340722378919	0.8584289816085402
219.0	722.3537254530261	fix	2.0		60	dominance	030	2.0	1	-0.94	801.1991513605276	0.5167614898673492
220.0	722.8704869428934	face	0.0		147	dominance	070	2.0	1		801.715912850395	1.2334585635494477
220.0	724.1039455064429	rating	1.0		291	dominance	070	2.0	1		802.9493714139444	2.433625369472338
220.0	726.5375708759152	fix	2.0		60	dominance	070	2.0	1	1.25	805.3829967834167	0.5167442840443073
221.0	727.0543151599595	face	0.0		147	dominance	092	2.0	1		805.899741067461	1.23349357890811
221.0	728.2878087388676	rating	1.0		213	dominance	092	2.0	1		807.1332346463691	1.7835229797342436
221.0	730.0713317186019	fix	2.0		60	dominance	092	2.0	1	3.7699999999999996	808.9167576261034	0.5167494156057728
222.0	730.5880811342076	face	0.0		147	dominance	102	2.0	1		809.4335070417092	1.2334658081063026
222.0	731.821546942314	rating	1.0		170	dominance	102	2.0	1		810.6669728498155	1.4251591991383066
222.0	733.2467061414523	fix	2.0		60	dominance	102	2.0	1	-2.3	812.0921320489538	0.5167596787282491
223.0	733.7634658201805	face	0.0		147	dominance	087	2.0	1		812.608891727682	1.2334594691187704
223.0	734.9969252892993	rating	1.0		127	dominance	087	2.0	1		813.8423511968008	1.0667942111158482
223.0	736.0637195004151	fix	2.0		60	dominance	087	2.0	1	-2.3899999999999997	814.9091454079166	0.516753641597461
224.0	736.5804731420126	face	0.0		147	dominance	038	2.0	1		815.4258990495141	1.233460676544837
224.0	737.8139338185574	rating	1.0		171	dominance	038	2.0	1		816.6593597260589	1.4335154936925392
224.0	739.24744931225	fix	2.0		60	dominance	038	2.0	1	1.2000000000000002	818.0928752197515	0.5167367376311631
225.0	739.7641860498811	face	0.0		147	dominance	144	2.0	1		818.6096119573826	1.2334652043932692
225.0	740.9976512542744	rating	1.0		167	dominance	144	2.0	1		819.8430771617759	1.4001666851804657
225.0	742.3978179394549	fix	2.0		60	dominance	144	2.0	1	-0.6499999999999999	821.2432438469564	0.5167427747619513
226.0	742.9145607142168	face	0.0		147	dominance	005	2.0	1		821.7599866217183	1.2334673173886586
226.0	744.1480280316055	rating	1.0		132	dominance	005	2.0	1		822.993453939107	1.1084667136756252
226.0	745.2564947452811	fix	2.0		60	dominance	005	2.0	1	-1.7599999999999998	824.1019206527826	0.5167530378844276
227.0	745.7732477831655	face	0.0		147	dominance	033	2.0	1		824.618673690667	1.2334528282749488
227.0	747.0067006114405	rating	1.0		70	dominance	033	2.0	1		825.852126518942	0.5917366168887384
227.0	747.5984372283292	fix	2.0		60	dominance	033	2.0	1	2.3600000000000003	826.4438631358307	0.5167533397407169
228.0	748.1151905680699	face	0.0		147	dominance	062	2.0	1		826.9606164755714	1.233467921101692
228.0	749.3486584891716	rating	1.0		279	dominance	062	2.0	1		828.1940843966731	2.3336042998862467
228.0	751.6822627890579	fix	2.0		60	dominance	062	2.0	1	2.04	830.5276886965594	0.516782016111847
229.0	752.1990448051697	face	0.0		147	dominance	034	2.0	1		831.0444707126712	1.2334377354482058
229.0	753.4324825406179	rating	1.0		72	dominance	034	2.0	1		832.2779084481194	0.6084051349416768
229.0	754.0408876755596	fix	2.0		60	dominance	034	2.0	1	0.8300000000000001	832.8863135830611	0.5167445859010513
230.0	754.5576322614606	face	0.0		147	dominance	124	2.0	1		833.4030581689622	1.2334691285282133
230.0	755.7911013899889	rating	1.0		181	dominance	124	2.0	1		834.6365272974904	1.5168801194868138
230.0	757.3079815094757	fix	2.0		60	dominance	124	2.0	1	1.9900000000000002	836.1534074169772	0.5167131928210438
231.0	757.8246947022967	face	0.0		147	dominance	121	2.0	1		836.6701206097982	1.2334618839713585
231.0	759.0581565862681	rating	1.0		641	dominance	121	2.0	1		837.9035824937696	5.350643195912198
231.0	764.4087997821803	fix	2.0		60	dominance	121	2.0	1	1.0300000000000002	843.2542256896818	0.5167527360276836
232.0	764.925552518208	face	0.0		147	dominance	099	2.0	1		843.7709784257095	1.2334639969667478
232.0	766.1590165151747	rating	1.0		82	dominance	099	2.0	1		845.0044424226762	0.6917465177830309
232.0	766.8507630329577	fix	2.0		60	dominance	099	2.0	1	0.5599999999999996	845.6961889404593	0.5167491137494835
233.0	767.3675121467072	face	0.0		147	dominance	130	2.0	1		846.2129380542087	1.233458865405737
233.0	768.600971012113	rating	1.0		208	dominance	130	2.0	1		847.4463969196145	1.7418824739679621
233.0	770.3428534860809	fix	2.0		60	dominance	130	2.0	1	-0.56	849.1882793935824	0.5167436803312739
234.0	770.8595971664122	face	0.0		147	dominance	018	2.0	1		849.7050230739137	1.23347033595428
234.0	772.0930675023665	rating	1.0		540	dominance	018	2.0	1		850.938493409868	4.508870356239186
234.0	776.6019378586057	fix	2.0		60	dominance	018	2.0	1	-0.6400000000000001	855.4473637661072	0.5167460951834073
235.0	777.1186839537891	face	0.0		147	dominance	141	2.0	1		855.9641098612906	1.233464600680236
235.0	778.3521485544693	rating	1.0		101	dominance	141	2.0	1		857.1975744619708	0.8501013634254377
235.0	779.2022499178947	fix	2.0		60	dominance	141	2.0	1	-2.54	858.0476758253963	0.5167602824412825
236.0	779.719010200336	face	0.0		147	dominance	009	2.0	1		858.5644361078375	1.2334576579796703
236.0	780.9524678583157	rating	1.0		93	dominance	009	2.0	1		859.7978937658172	0.7834309134905197
236.0	781.7358987718062	fix	2.0		60	dominance	009	2.0	1	-0.4900000000000002	860.5813246793077	0.5167548490230729
237.0	782.2526536208293	face	0.0		147	dominance	012	2.0	1		861.0980795283308	1.233454941270793
237.0	783.4861085621001	rating	1.0		55	dominance	012	2.0	1		862.3315344696016	0.4667450688716599
237.0	783.9528536309717	fix	2.0		60	dominance	012	2.0	1	0.9199999999999999	862.7982795384733	0.516730700500375
238.0	784.4695843314721	face	0.0		147	dominance	136	2.0	1		863.3150102389736	1.2334486022837154
238.0	785.7030329337558	rating	1.0		86	dominance	136	2.0	1		864.5484588412573	0.7250953262946496
238.0	786.4281282600505	fix	2.0		59	dominance	136	2.0	1	1.4500000000000002	865.273554167552	0.5167551508798169
239.0	786.9448834109303	face	0.0		147	dominance	064	2.0	1		865.7903093184318	1.233454941270793
239.0	788.1783383522011	rating	1.0		109	dominance	064	2.0	1		867.0237642597026	0.9167700022217105
239.0	789.0951083544228	fix	2.0		60	dominance	064	2.0	1	2.3099999999999996	867.9405342619243	0.5000621824469818
