trial_nr	onset	event_type	phase	response	nr_frames	trial_type	stim_name	task_probe	onset_abs	duration
0.0	0.056514635019993875	baseline	0.0		41.0		baseline	0.0	95.1438976395184	0.3496853606920922
0.0	0.4061999957120861	ISI	1.0		11.0		baseline	0.0	95.49358300021049	0.10000902548563317
1.0	0.5062090211977193	baseline	0.0		48.0		baseline	0.0	95.59359202569613	0.4000053126619605
1.0	0.7063315142477222	pulse	0.0	t			baseline	0.0	95.79371451874613	
1.0	0.9062143338596798	ISI	1.0		11.0		baseline	0.0	95.99359733835809	0.099999064244912
2.0	1.0062133981045918	baseline	0.0		48.0		baseline	0.0	96.093596402603	0.399963958428998
2.0	1.4061773565335898	ISI	1.0		11.0		baseline	0.0	96.493560361032	0.10000600692728767
2.0	1.4107371890167997	pulse	1.0	t			baseline	0.0	96.4981201935152	
3.0	1.5061833634608774	baseline	0.0		48.0		baseline	0.0	96.59356636795928	0.39998840874250163
3.0	1.906171772203379	ISI	1.0		11.0		baseline	0.0	96.99355477670179	0.09999393270118162
4.0	2.0061657049045607	baseline	0.0		48.0		baseline	0.0	97.09354870940297	0.39998780502719455
4.0	2.1062758520529314	pulse	0.0	t			baseline	0.0	97.19365885655134	
4.0	2.4061535099317553	ISI	1.0		11.0		baseline	0.0	97.49353651443016	0.09999634754422004
5.0	2.5061498574759753	baseline	0.0		48.0		baseline	0.0	97.59353286197438	0.400008331220306
5.0	2.8062683962198207	pulse	0.0	t			baseline	0.0	97.89365140071823	
5.0	2.9061581886962813	ISI	1.0		11.0		baseline	0.0	97.99354119319469	0.09999393269754364
6.0	3.006152121393825	baseline	0.0		48.0		baseline	0.0	98.09353512589223	0.39998599389582523
6.0	3.40613811528965	ISI	1.0		11.0		baseline	0.0	98.49352111978806	0.10001113847829401
7.0	3.506149253767944	baseline	0.0		47.0		baseline	0.0	98.59353225826635	0.3999923328628938
7.0	3.5102686787540733	pulse	0.0	t			baseline	0.0	98.59765168325248	
7.0	3.906141586630838	ISI	1.0		11.0		baseline	0.0	98.99352459112924	0.10001023290897137
8.0	4.006151819539809	baseline	0.0		48.0		baseline	0.0	99.09353482403822	0.39996878811871284
8.0	4.206245032586594	pulse	0.0	t			baseline	0.0	99.293628037085	
8.0	4.406120607658522	ISI	1.0		11.0		baseline	0.0	99.49350361215693	0.10000419579591835
9.0	4.5061248034544406	baseline	0.0		48.0		baseline	0.0	99.59350780795285	0.3999986718336004
9.0	4.906123475288041	ISI	1.0		11.0		baseline	0.0	99.99350647978645	0.09998427331811399
9.0	4.910580978681537	pulse	1.0	t			baseline	0.0	99.99796398317994	
10.0	5.006107748606155	baseline	0.0		48.0		baseline	0.0	100.09349075310456	0.3999944458519167
10.0	5.406102194458072	ISI	1.0		11.0		baseline	0.0	100.49348519895648	0.09999966796021909
11.0	5.506101862418291	baseline	0.0		48.0		baseline	0.0	100.5934848669167	0.3999805604908033
11.0	5.606217744829337	pulse	0.0	t			baseline	0.0	100.69360074932774	
11.0	5.906082422909094	ISI	1.0		7.0		baseline	0.0	100.9934654274075	0.13335321556587587
12.0	6.03943563847497	car	0.0		44.0	object	car-9.jpg	0.0	101.12681864297338	0.3666321444325149
12.0	6.306187347956438	pulse	0.0	t		object	car-9.jpg	0.0	101.39357035245484	
12.0	6.406067782907485	ISI	1.0		7.0	object	car-9.jpg	0.0	101.49345078740589	0.11669410032118321
13.0	6.522761883228668	car	0.0		46.0	object	car-9.jpg	1.0	101.61014488772707	0.3832604703929974
13.0	6.906022353621665	ISI	1.0		7.0	object	car-9.jpg	1.0	101.99340535812007	0.11668293166076182
13.0	6.939810875315743	response	1.0	b		object	car-9.jpg	1.0	102.02719387981415	
14.0	7.022705285282427	car	0.0		45.0	object	car-64.jpg	0.0	102.11008828978083	0.38332386009278707
14.0	7.014482735510683	pulse	0.0	t		object	car-64.jpg	0.0	102.10186574000909	
14.0	7.406029145375214	ISI	1.0		7.0	object	car-64.jpg	0.0	102.49341214987362	0.11668745949646109
15.0	7.522716604871675	car	0.0		46.0	object	car-7.jpg	0.0	102.61009960937008	0.38330484318430535
15.0	7.706128969060956	pulse	0.0	t		object	car-7.jpg	0.0	102.79351197355936	
15.0	7.906021448055981	ISI	1.0		7.0	object	car-7.jpg	0.0	102.99340445255439	0.11668383722644649
16.0	8.022705285282427	car	0.0		46.0	object	car-60.jpg	0.0	103.11008828978083	0.3832933726662304
16.0	8.405998657948658	ISI	1.0		7.0	object	car-60.jpg	0.0	103.49338166244706	0.11667961124476278
16.0	8.443704663157405	pulse	1.0	t		object	car-60.jpg	0.0	103.53108766765581	
17.0	8.52267826919342	car	0.0		46.0	object	car-134.jpg	0.0	103.61006127369183	0.3833247656621097
17.0	8.90600303485553	ISI	1.0		7.0	object	car-134.jpg	0.0	103.99338603935394	0.10855456087301718
18.0	9.014557595728547	car	0.0		47.0	object	car-42.jpg	0.0	104.10194060022695	0.3914307991253736
18.0	9.106111340686766	pulse	0.0	t		object	car-42.jpg	0.0	104.19349434518517	
18.0	9.405988394853921	ISI	1.0		7.0	object	car-42.jpg	0.0	104.49337139935233	0.10835956208029529
19.0	9.514347956934216	car	0.0		47.0	object	car-1.jpg	0.0	104.60173096143262	0.3916221756480809
19.0	9.806089999488904	pulse	0.0	t		object	car-1.jpg	0.0	104.89347300398731	
19.0	9.905970132582297	ISI	1.0		6.0	object	car-1.jpg	0.0	104.9933531370807	0.10836107135764905
20.0	10.014331203939946	car	0.0		47.0	object	car-45.jpg	0.0	105.10171420843835	0.3916402869945159
20.0	10.405971490934462	ISI	1.0		6.0	object	car-45.jpg	0.0	105.49335449543287	0.10835080826291232
21.0	10.514322299197374	car	0.0		46.0	object	car-88.jpg	0.0	105.60170530369578	0.3916230812174035
21.0	10.509739223823999	pulse	0.0	t		object	car-88.jpg	0.0	105.5971222283224	
21.0	10.905945380414778	ISI	1.0		6.0	object	car-88.jpg	0.0	105.99332838491318	0.10837465486474684
22.0	11.014320035279525	car	0.0		47.0	object	car-68.jpg	0.0	106.10170303977793	0.3916224775057344
22.0	11.20607931379709	pulse	0.0	t		object	car-68.jpg	0.0	106.2934623182955	
22.0	11.40594251278526	ISI	1.0		6.0	object	car-68.jpg	0.0	106.49332551728367	0.11669923186855158
23.0	11.52264174465381	car	0.0		46.0	object	car-124.jpg	0.0	106.61002474915222	0.3833039376149827
23.0	11.905945682268793	ISI	1.0		7.0	object	car-124.jpg	0.0	106.9933286867672	0.11668685578479199
23.0	11.945633973980875	pulse	1.0	t		object	car-124.jpg	0.0	107.03301697847928	
24.0	12.022632538053585	adult	0.0		46.0	face	adult-48.jpg	0.0	107.11001554255199	0.38327827988177887
24.0	12.405910817935364	ISI	1.0		7.0	face	adult-48.jpg	0.0	107.49329382243377	0.11671341908368049
25.0	12.522624237019045	adult	0.0		46.0	face	adult-48.jpg	1.0	107.61000724151745	0.38333804731519194
25.0	12.606081306043052	pulse	0.0	t		face	adult-48.jpg	1.0	107.69346431054146	
25.0	12.905962284334237	ISI	1.0		7.0	face	adult-48.jpg	1.0	107.99334528883264	0.11666723516100319
26.0	13.02262951949524	adult	0.0		45.0	face	adult-53.jpg	0.0	108.11001252399365	0.3833039376186207
26.0	13.013701834766835	response	0.0	b		face	adult-53.jpg	0.0	108.10108483926524	
26.0	13.306033401542663	pulse	0.0	t		face	adult-53.jpg	0.0	108.39341640604107	
26.0	13.40593345711386	ISI	1.0		7.0	face	adult-53.jpg	0.0	108.49331646161227	0.11670949495965033
27.0	13.522642952073511	adult	0.0		46.0	face	adult-61.jpg	0.0	108.61002595657192	0.3832671112213575
27.0	13.905910063294868	ISI	1.0		7.0	face	adult-61.jpg	0.0	108.99329306779327	0.11668202609143918
28.0	14.022592089386308	adult	0.0		45.0	face	adult-28.jpg	0.0	109.10997509388471	0.38328884483053116
28.0	14.014420553234231	pulse	0.0	t		face	adult-28.jpg	0.0	109.10180355773264	
28.0	14.405880934216839	ISI	1.0		7.0	face	adult-28.jpg	0.0	109.49326393871524	0.11670738197426545
29.0	14.522588316191104	adult	0.0		46.0	face	adult-89.jpg	0.0	109.60997132068951	0.3833069561733282
29.0	14.70602392327055	pulse	0.0	t		face	adult-89.jpg	0.0	109.79340692776896	
29.0	14.905895272364432	ISI	1.0		7.0	face	adult-89.jpg	0.0	109.99327827686284	0.11668262980310828
30.0	15.02257790216754	adult	0.0		46.0	face	adult-84.jpg	0.0	110.10996090666595	0.3833087673083355
30.0	15.405886669475876	ISI	1.0		7.0	face	adult-84.jpg	0.0	110.49326967397428	0.11666753701865673
30.0	15.440447941811726	pulse	1.0	t		face	adult-84.jpg	0.0	110.52783094631013	
31.0	15.522554206494533	adult	0.0		46.0	face	adult-97.jpg	0.0	110.60993721099294	0.3833199359687569
31.0	15.90587414246329	ISI	1.0		7.0	face	adult-97.jpg	0.0	110.9932571469617	0.11670164671522798
32.0	16.022575789178518	adult	0.0		46.0	face	adult-50.jpg	0.0	111.10995879367692	0.38329367452388396
32.0	16.10598727798788	pulse	0.0	t		face	adult-50.jpg	0.0	111.19337028248628	
32.0	16.405869463702402	ISI	1.0		7.0	face	adult-50.jpg	0.0	111.49325246820081	0.11668262980310828
33.0	16.52255209350551	adult	0.0		46.0	face	adult-59.jpg	0.0	111.60993509800392	0.3833066543156747
33.0	16.805971672045416	pulse	0.0	t		face	adult-59.jpg	0.0	111.89335467654382	
33.0	16.905858747821185	ISI	1.0		7.0	face	adult-59.jpg	0.0	111.99324175231959	0.11668564836145379
34.0	17.02254439618264	adult	0.0		46.0	face	adult-58.jpg	0.0	112.10992740068104	0.38329065596553846
34.0	17.405835052148177	ISI	1.0		7.0	face	adult-58.jpg	0.0	112.49321805664658	0.11668444093811559
35.0	17.522519493086293	adult	0.0		45.0	face	adult-25.jpg	0.0	112.6099024975847	0.38332144524974865
35.0	17.514471717779088	pulse	0.0	t		face	adult-25.jpg	0.0	112.6018547222775	
35.0	17.90584093833604	ISI	1.0		7.0	face	adult-25.jpg	0.0	112.99322394283445	0.11668745949282311
36.0	18.022528397828864	word	0.0		46.0	character	word-68.jpg	0.0	113.10991140232727	0.3833033339069516
36.0	18.20595887336458	pulse	0.0	t		character	word-68.jpg	0.0	113.29334187786299	
36.0	18.405831731735816	ISI	1.0		8.0	character	word-68.jpg	0.0	113.49321473623422	0.11666965000767959
37.0	18.522501381743496	word	0.0		46.0	character	word-94.jpg	0.0	113.6098843862419	0.3833075598849973
37.0	18.905808941628493	ISI	1.0		7.0	character	word-94.jpg	0.0	113.9931919461269	0.11669621331020608
37.0	18.93813044453418	pulse	1.0	t		character	word-94.jpg	0.0	114.02551344903259	
38.0	19.0225051549387	word	0.0		46.0	character	word-94.jpg	1.0	114.1098881594371	0.38329699493624503
38.0	19.405802149874944	ISI	1.0		7.0	character	word-94.jpg	1.0	114.49318515437335	0.11669259104382945
39.0	19.522494740918773	word	0.0		45.0	character	word-121.jpg	0.0	114.60987774541718	0.3833305009175092
39.0	19.51521156614399	response	0.0	b		character	word-121.jpg	0.0	114.6025945706424	
39.0	19.605940943136375	pulse	0.0	t		character	word-121.jpg	0.0	114.69332394763478	
39.0	19.905825241836283	ISI	1.0		7.0	character	word-121.jpg	0.0	114.99320824633469	0.11669893001453602
40.0	20.02252417185082	word	0.0		46.0	character	word-123.jpg	0.0	115.10990717634922	0.38327345018842607
40.0	20.30590964069779	pulse	0.0	t		character	word-123.jpg	0.0	115.3932926451962	
40.0	20.405797622039245	ISI	1.0		8.0	character	word-123.jpg	0.0	115.49318062653765	0.11668655392713845
41.0	20.522484175966383	word	0.0		46.0	character	word-142.jpg	0.0	115.60986718046479	0.3833033339069516
41.0	20.905787509873335	ISI	1.0		7.0	character	word-142.jpg	0.0	115.99317051437174	0.11667870567907812
42.0	21.022466215552413	word	0.0		45.0	character	word-59.jpg	0.0	116.10984922005082	0.383311785866681
42.0	21.014410893851164	pulse	0.0	t		character	word-59.jpg	0.0	116.10179389834957	
42.0	21.405778001419094	ISI	1.0		8.0	character	word-59.jpg	0.0	116.4931610059175	0.11668655392713845
43.0	21.522464555346232	word	0.0		46.0	character	word-75.jpg	0.0	116.60984755984464	0.38330665431931266
43.0	21.705886277064565	pulse	0.0	t		character	word-75.jpg	0.0	116.79326928156297	
43.0	21.905771209665545	ISI	1.0		7.0	character	word-75.jpg	0.0	116.99315421416395	0.11667146113904892
44.0	22.022442670804594	word	0.0		46.0	character	word-81.jpg	0.0	117.109825675303	0.38332204896141775
44.0	22.40576471976601	ISI	1.0		7.0	character	word-81.jpg	0.0	117.49314772426442	0.11667900753673166
44.0	22.438782301956962	pulse	1.0	t		character	word-81.jpg	0.0	117.52616530645537	
45.0	22.522443727302743	word	0.0		46.0	character	word-27.jpg	0.0	117.60982673180115	0.3832918633852387
45.0	22.905735590687982	ISI	1.0		7.0	character	word-27.jpg	0.0	117.99311859518639	0.11671040053261095
46.0	23.022445991220593	word	0.0		46.0	character	word-72.jpg	0.0	118.109828995719	0.3832812984364864
46.0	23.105861404153984	pulse	0.0	t		character	word-72.jpg	0.0	118.19324440865239	
46.0	23.40572728965708	ISI	1.0		7.0	character	word-72.jpg	0.0	118.49311029415549	0.11667568712073262
47.0	23.522402976777812	word	0.0		46.0	character	word-10.jpg	0.0	118.60978598127622	0.3833142007133574
47.0	23.805847911204182	pulse	0.0	t		character	word-10.jpg	0.0	118.89323091570259	
47.0	23.90571717749117	ISI	1.0		7.0	character	word-10.jpg	0.0	118.99310018198958	0.11669923186855158
48.0	24.02241640935972	house	0.0		46.0	place	house-121.jpg	0.0	119.10979941385813	0.3832951838012377
48.0	24.40571159316096	ISI	1.0		7.0	place	house-121.jpg	0.0	119.49309459765936	0.11669319475186057
49.0	24.52240478791282	house	0.0		45.0	place	house-140.jpg	0.0	119.60978779241123	0.3833111821550119
49.0	24.510904688755545	pulse	0.0	t		place	house-140.jpg	0.0	119.59828769325395	
49.0	24.90571597006783	ISI	1.0		6.0	place	house-140.jpg	0.0	119.99309897456624	0.10835382682125783
50.0	25.01406979688909	house	0.0		47.0	place	house-124.jpg	0.0	120.1014528013875	0.3916381740018551
50.0	25.205823642001633	pulse	0.0	t		place	house-124.jpg	0.0	120.29320664650004	
50.0	25.405707970890944	ISI	1.0		6.0	place	house-124.jpg	0.0	120.49309097538935	0.10833601733611431
51.0	25.51404398822706	house	0.0		47.0	place	house-34.jpg	0.0	120.60142699272546	0.3916559834869986
51.0	25.905699971714057	ISI	1.0		6.0	place	house-34.jpg	0.0	120.99308297621246	0.10835111012056586
51.0	25.947250713208632	pulse	1.0	t		place	house-34.jpg	0.0	121.03463371770704	
52.0	26.014051081834623	house	0.0		47.0	place	house-120.jpg	0.0	121.10143408633303	0.39167017070940346
52.0	26.405721252544026	ISI	1.0		6.0	place	house-120.jpg	0.0	121.49310425704243	0.11669047805116861
53.0	26.522411730595195	house	0.0		46.0	place	house-130.jpg	0.0	121.6097947350936	0.3833507252529671
53.0	26.605811447032465	pulse	0.0	t		place	house-130.jpg	0.0	121.69319445153087	
53.0	26.905762455848162	ISI	1.0		6.0	place	house-130.jpg	0.0	121.99314546034657	0.1166388607234694
54.0	27.02240131657163	house	0.0		46.0	place	house-141.jpg	0.0	122.10978432107004	0.38330303205293603
54.0	27.3058184802685	pulse	0.0	t		place	house-141.jpg	0.0	122.3932014847669	
54.0	27.405704348624568	ISI	1.0		7.0	place	house-141.jpg	0.0	122.49308735312297	0.11668745949282311
55.0	27.52239180811739	house	0.0		46.0	place	house-56.jpg	0.0	122.6097748126158	0.38329940978292143
55.0	27.905691217900312	ISI	1.0		7.0	place	house-56.jpg	0.0	122.99307422239872	0.11668413908046205
56.0	28.022375356980774	house	0.0		45.0	place	house-49.jpg	0.0	123.10975836147918	0.3833148044250265
56.0	28.011926621289604	pulse	0.0	t		place	house-49.jpg	0.0	123.09930962578801	
56.0	28.4056901614058	ISI	1.0		7.0	place	house-49.jpg	0.0	123.4930731659042	0.1166844409344776
57.0	28.522374602340278	house	0.0		46.0	place	house-57.jpg	0.0	123.60975760683868	0.3832601685389818
57.0	28.705757988383994	pulse	0.0	t		place	house-57.jpg	0.0	123.7931409928824	
57.0	28.90563477087926	ISI	1.0		7.0	place	house-57.jpg	0.0	123.99301777537767	0.11669651516785962
58.0	29.02233128604712	house	0.0		46.0	place	house-73.jpg	0.0	124.10971429054553	0.3832957875129068
58.0	29.405627073560026	ISI	1.0		7.0	place	house-73.jpg	0.0	124.49301007805843	0.11669591145255254
58.0	29.44039723004971	pulse	1.0	t		place	house-73.jpg	0.0	124.52778023454812	
59.0	29.52232298501258	house	0.0		46.0	place	house-100.jpg	0.0	124.60970598951099	0.38330605060764356
59.0	29.905629035620223	ISI	1.0		11.0	place	house-100.jpg	0.0	124.99301204011863	0.10001053476662491
60.0	30.005639570386847	baseline	0.0		48.0		baseline	0.0	125.09302257488525	0.399978749355796
60.0	30.10579499589585	pulse	0.0	t			baseline	0.0	125.19317800039425	
60.0	30.405618319742644	ISI	1.0		11.0		baseline	0.0	125.49300132424105	0.09998155661742203
61.0	30.505599876360066	baseline	0.0		48.0		baseline	0.0	125.59298288085847	0.3999980681219313
61.0	30.805734715308063	pulse	0.0	t			baseline	0.0	125.89311771980647	
61.0	30.905597944481997	ISI	1.0		11.0		baseline	0.0	125.9929809489804	0.09999453641285072
62.0	31.005592480894848	baseline	0.0		48.0		baseline	0.0	126.09297548539325	0.3999941439979011
62.0	31.40558662489275	ISI	1.0		11.0		baseline	0.0	126.49296962939115	0.10000057352590375
63.0	31.505587198418652	baseline	0.0		47.0		baseline	0.0	126.59297020291706	0.3999881068848481
63.0	31.509740431247337	pulse	0.0	t			baseline	0.0	126.59712343574574	
63.0	31.9055753053035	ISI	1.0		11.0		baseline	0.0	126.9929583098019	0.09999906424854998
64.0	32.00557436955205	baseline	0.0		48.0		baseline	0.0	127.09295737405046	0.4000101423516753
64.0	32.20570139043775	pulse	0.0	t			baseline	0.0	127.29308439493616	
64.0	32.405584511903726	ISI	1.0		11.0		baseline	0.0	127.49296751640213	0.10000329022659571
65.0	32.50558780213032	baseline	0.0		48.0		baseline	0.0	127.59297080662873	0.3999775419324578
65.0	32.90556534406278	ISI	1.0		11.0		baseline	0.0	127.99294834856119	0.09999332898951252
65.0	32.91010374479083	pulse	1.0	t			baseline	0.0	127.99748674928924	
66.0	33.00555867305229	baseline	0.0		48.0		baseline	0.0	128.0929416775507	0.40000742565098335
66.0	33.405566098703275	ISI	1.0		11.0		baseline	0.0	128.49294910320168	0.09999483826686628
67.0	33.50556093697014	baseline	0.0		48.0		baseline	0.0	128.59294394146855	0.3999959551329084
67.0	33.6057030808297	pulse	0.0	t			baseline	0.0	128.6930860853281	
67.0	33.90555689210305	ISI	1.0		11.0		baseline	0.0	128.99293989660146	0.09999695125952712
68.0	34.00555384336258	baseline	0.0		48.0		baseline	0.0	129.09293684786098	0.3999941439979011
68.0	34.3056591004497	pulse	0.0	t			baseline	0.0	129.3930421049481	
68.0	34.40554798736048	ISI	1.0		11.0		baseline	0.0	129.49293099185888	0.09999846053688088
69.0	34.50554644789736	baseline	0.0		48.0		baseline	0.0	129.59292945239577	0.4000493835956149
69.0	34.905595831492974	ISI	1.0		11.0		baseline	0.0	129.99297883599138	0.10001023290897137
70.0	35.005606064401945	baseline	0.0		47.0		baseline	0.0	130.09298906890035	0.39997663636677316
70.0	35.009607161948225	pulse	0.0	t			baseline	0.0	130.09699016644663	
70.0	35.40558270076872	ISI	1.0		11.0		baseline	0.0	130.49296570526712	0.09999121599685168
71.0	35.50557391676557	baseline	0.0		48.0		baseline	0.0	130.59295692126398	0.4000035015269532
71.0	35.705694598684204	pulse	0.0	t			baseline	0.0	130.7930776031826	
71.0	35.90557741829252	ISI	1.0		7.0		baseline	0.0	130.99296042279093	0.12499634000050719
72.0	36.03057375829303	word	0.0		45.0	character	word-118.jpg	0.0	131.11795676279144	0.3749564195786661
72.0	36.4055301778717	ISI	1.0		7.0	character	word-118.jpg	0.0	131.4929131823701	0.11668806320813019
72.0	36.439407747006044	pulse	1.0	t		character	word-118.jpg	0.0	131.52679075150445	
73.0	36.52221824107983	word	0.0		46.0	character	word-29.jpg	0.0	131.60960124557823	0.383284920706501
73.0	36.90550316178633	ISI	1.0		8.0	character	word-29.jpg	0.0	131.99288616628473	0.11668504464978469
74.0	37.02218820643611	word	0.0		46.0	character	word-114.jpg	0.0	132.10957121093452	0.3833075598849973
74.0	37.10561358060659	pulse	0.0	t		character	word-114.jpg	0.0	132.192996585105	
74.0	37.40549576632111	ISI	1.0		8.0	character	word-114.jpg	0.0	132.49287877081952	0.11668142237977008
75.0	37.52217718870088	word	0.0		46.0	character	word-114.jpg	1.0	132.6095601931993	0.3833033339069516
75.0	37.805592239408725	pulse	0.0	t		character	word-114.jpg	1.0	132.89297524390713	
75.0	37.90548052260783	ISI	1.0		5.0	character	word-114.jpg	1.0	132.99286352710624	0.11668806320449221
76.0	38.022168585812324	word	0.0		46.0	character	word-1.jpg	0.0	133.10955159031073	0.38329910792890587
76.0	38.08063713290176	response	0.0	b		character	word-1.jpg	0.0	133.16802013740016	
76.0	38.40546769374123	ISI	1.0		6.0	character	word-1.jpg	0.0	133.49285069823964	0.11667598897474818
77.0	38.52214368271598	word	0.0		45.0	character	word-80.jpg	0.0	133.60952668721438	0.38330605060764356
77.0	38.51313660993401	pulse	0.0	t		character	word-80.jpg	0.0	133.60051961443241	
77.0	38.90544973332362	ISI	1.0		7.0	character	word-80.jpg	0.0	133.99283273782203	0.11670164671522798
78.0	39.02215138003885	word	0.0		46.0	character	word-17.jpg	0.0	134.10953438453726	0.3833075598849973
78.0	39.20557219618786	pulse	0.0	t		character	word-17.jpg	0.0	134.29295520068627	
78.0	39.40545893992385	ISI	1.0		6.0	character	word-17.jpg	0.0	134.49284194442225	0.11668595021546935
79.0	39.522144890139316	word	0.0		46.0	character	word-132.jpg	0.0	134.60952789463772	0.3833045413302898
79.0	39.905449431469606	ISI	1.0		7.0	character	word-132.jpg	0.0	134.992832435968	0.11668202609143918
79.0	39.94324267297998	pulse	1.0	t		character	word-132.jpg	0.0	135.03062567747838	
80.0	40.022131457561045	word	0.0		46.0	character	word-101.jpg	0.0	135.10951446205945	0.3833087673083355
80.0	40.40544022486938	ISI	1.0		5.0	character	word-101.jpg	0.0	135.4928232293678	0.11666965000767959
81.0	40.52210987487706	word	0.0		46.0	character	word-49.jpg	0.0	135.60949287937547	0.38332204896141775
81.0	40.60554400286492	pulse	0.0	t		character	word-49.jpg	0.0	135.69292700736332	
81.0	40.90543192383848	ISI	1.0		6.0	character	word-49.jpg	0.0	135.99281492833688	0.11666723516100319
82.0	41.02209915899948	word	0.0		46.0	character	word-47.jpg	0.0	136.1094821634979	0.38330242833762895
82.0	41.305525982079416	pulse	0.0	t		character	word-47.jpg	0.0	136.39290898657782	
82.0	41.40540158733711	ISI	1.0		6.0	character	word-47.jpg	0.0	136.49278459183552	0.1167088912516192
83.0	41.52211047858873	word	0.0		46.0	character	word-116.jpg	0.0	136.60949348308714	0.38330242833762895
83.0	41.90541290692636	ISI	1.0		7.0	character	word-116.jpg	0.0	136.99279591142476	0.11667961124476278
84.0	42.02209251817112	adult	0.0		45.0	face	adult-101.jpg	0.0	137.10947552266953	0.383311785866681
84.0	42.01308665281613	pulse	0.0	t		face	adult-101.jpg	0.0	137.10046965731453	
84.0	42.4054043040378	ISI	1.0		7.0	face	adult-101.jpg	0.0	137.4927873085362	0.11668474279576913
85.0	42.52208904683357	adult	0.0		46.0	face	adult-85.jpg	0.0	137.60947205133198	0.38332144524611067
85.0	42.705540350412775	pulse	0.0	t		face	adult-85.jpg	0.0	137.79292335491118	
85.0	42.90541049207968	ISI	1.0		7.0	face	adult-85.jpg	0.0	137.9927934965781	0.11669017619715305
86.0	43.022100668276835	adult	0.0		46.0	face	adult-63.jpg	0.0	138.10948367277524	0.3833157099907112
86.0	43.405416378267546	ISI	1.0		7.0	face	adult-63.jpg	0.0	138.49279938276595	0.11668927062783041
86.0	43.44124604832905	pulse	1.0	t		face	adult-63.jpg	0.0	138.52862905282745	
87.0	43.522105648895376	adult	0.0		46.0	face	adult-130.jpg	0.0	138.60948865339378	0.38330242834126693
87.0	43.90540807723664	ISI	1.0		7.0	face	adult-130.jpg	0.0	138.99279108173505	0.11668896877017687
88.0	44.02209704600682	adult	0.0		46.0	face	adult-74.jpg	0.0	139.10948005050523	0.3833033339069516
88.0	44.10551940162259	pulse	0.0	t		face	adult-74.jpg	0.0	139.192902406121	
88.0	44.40540037991377	ISI	1.0		7.0	face	adult-74.jpg	0.0	139.49278338441218	0.11668806320813019
89.0	44.5220884431219	adult	0.0		46.0	face	adult-108.jpg	0.0	139.6094714476203	0.3832897503962158
89.0	44.805497456713056	pulse	0.0	t		face	adult-108.jpg	0.0	139.89288046121146	
89.0	44.90537819351812	ISI	1.0		7.0	face	adult-108.jpg	0.0	139.99276119801652	0.11669923186855158
90.0	45.02207742538667	adult	0.0		46.0	face	adult-42.jpg	0.0	140.10946042988508	0.38330303204929805
90.0	45.40538045743597	ISI	1.0		7.0	face	adult-42.jpg	0.0	140.49276346193437	0.11668413908410002
91.0	45.52206459652007	adult	0.0		45.0	face	adult-67.jpg	0.0	140.60944760101847	0.3833111821550119
91.0	45.51309736869371	pulse	0.0	t		face	adult-67.jpg	0.0	140.6004803731921	
91.0	45.90537577867508	ISI	1.0		7.0	face	adult-67.jpg	0.0	140.99275878317349	0.11668353536879295
92.0	46.02205931404387	adult	0.0		46.0	face	adult-5.jpg	0.0	141.10944231854228	0.38329548565889127
92.0	46.205457491018024	pulse	0.0	t		face	adult-5.jpg	0.0	141.29284049551643	
92.0	46.405354799702764	ISI	1.0		7.0	face	adult-5.jpg	0.0	141.49273780420117	0.11669621331020608
93.0	46.52205101301297	adult	0.0		46.0	face	adult-117.jpg	0.0	141.60943401751138	0.3833114840090275
93.0	46.905362497022	ISI	1.0		7.0	face	adult-117.jpg	0.0	141.9927455015204	0.11667991310241632
93.0	46.941265819878026	pulse	1.0	t		face	adult-117.jpg	0.0	142.02864882437643	
94.0	47.02204241012441	adult	0.0		46.0	face	adult-2.jpg	0.0	142.10942541462282	0.3833039376149827
94.0	47.405346347739396	ISI	1.0		7.0	face	adult-2.jpg	0.0	142.4927293522378	0.1166726685660251
95.0	47.52201901630542	adult	0.0		46.0	face	adult-121.jpg	0.0	142.60940202080383	0.3832825058598246
95.0	47.60544801274591	pulse	0.0	t		face	adult-121.jpg	0.0	142.69283101724432	
95.0	47.905301522165246	ISI	1.0		7.0	face	adult-121.jpg	0.0	142.99268452666365	0.1167058726932737
96.0	48.02200739485852	adult	0.0		46.0	face	adult-123.jpg	0.0	143.10939039935693	0.38332084153807955
96.0	48.305444179179176	pulse	0.0	t		face	adult-123.jpg	0.0	143.39282718367758	
96.0	48.4053282363966	ISI	1.0		7.0	face	adult-123.jpg	0.0	143.492711240895	0.11668866691979929
97.0	48.5220169033164	adult	0.0		46.0	face	adult-29.jpg	0.0	143.6093999078148	0.3833021264836134
97.0	48.90531902980001	ISI	1.0		7.0	face	adult-29.jpg	0.0	143.99270203429842	0.11668413908046205
98.0	49.022003168880474	adult	0.0		45.0	face	adult-144.jpg	0.0	144.10938617337888	0.3833063524616591
98.0	49.013097519618896	pulse	0.0	t		face	adult-144.jpg	0.0	144.1004805241173	
98.0	49.40530952134213	ISI	1.0		7.0	face	adult-144.jpg	0.0	144.49269252584054	0.11668745949646109
99.0	49.521996980838594	adult	0.0		46.0	face	adult-31.jpg	0.0	144.609379985337	0.3833009190602752
99.0	49.70541840069927	pulse	0.0	t		face	adult-31.jpg	0.0	144.79280140519768	
99.0	49.90529789989887	ISI	1.0		7.0	face	adult-31.jpg	0.0	144.99268090439728	0.11669047805116861
100.0	50.02198837795004	adult	0.0		46.0	face	adult-51.jpg	0.0	145.10937138244844	0.38330303204929805
100.0	50.405291409999336	ISI	1.0		7.0	face	adult-51.jpg	0.0	145.49267441449774	0.11668534650380025
100.0	50.44107821655052	pulse	1.0	t		face	adult-51.jpg	0.0	145.52846122104893	
101.0	50.521976756503136	adult	0.0		46.0	face	adult-11.jpg	0.0	145.60935976100154	0.38330725803098176
101.0	50.90528401453412	ISI	1.0		7.0	face	adult-11.jpg	0.0	145.99266701903252	0.11667115928503335
102.0	51.02195517381915	adult	0.0		46.0	face	adult-77.jpg	0.0	146.10933817831756	0.3833193322607258
102.0	51.10538235912827	pulse	0.0	t		face	adult-77.jpg	0.0	146.19276536362668	
102.0	51.40527450607988	ISI	1.0		7.0	face	adult-77.jpg	0.0	146.49265751057828	0.11667478155504796
103.0	51.521949287634925	adult	0.0		46.0	face	adult-77.jpg	1.0	146.60933229213333	0.3833151062790421
103.0	51.805380940404575	pulse	0.0	t		face	adult-77.jpg	1.0	146.89276394490298	
103.0	51.90526439391397	ISI	1.0		7.0	face	adult-77.jpg	1.0	146.99264739841237	0.11666753701501875
104.0	52.021931930928986	adult	0.0		45.0	face	adult-69.jpg	0.0	147.1093149354274	0.38332325638475595
104.0	52.01244370013592	response	0.0	b		face	adult-69.jpg	0.0	147.09982670463432	
104.0	52.40525518731374	ISI	1.0		7.0	face	adult-69.jpg	0.0	147.49263819181215	0.11668444093811559
105.0	52.52193962825186	adult	0.0		45.0	face	adult-6.jpg	0.0	147.60932263275026	0.3832915615312231
105.0	52.5123523887778	pulse	0.0	t		face	adult-6.jpg	0.0	147.5997353932762	
105.0	52.90523118978308	ISI	1.0		7.0	face	adult-6.jpg	0.0	147.9926141942815	0.11668595021910733
106.0	53.02191714000219	adult	0.0		46.0	face	adult-135.jpg	0.0	148.1093001445006	0.3833066543156747
106.0	53.2053424839869	pulse	0.0	t		face	adult-135.jpg	0.0	148.2927254884853	
106.0	53.40522379431786	ISI	1.0		7.0	face	adult-135.jpg	0.0	148.49260679881627	0.11669108176647569
107.0	53.52191487608434	adult	0.0		46.0	face	adult-3.jpg	0.0	148.60929788058274	0.38329699493260705
107.0	53.905211871016945	ISI	1.0		11.0	face	adult-3.jpg	0.0	148.99259487551535	0.10003317394512123
107.0	53.90966605399808	pulse	1.0	t		face	adult-3.jpg	0.0	148.9970490584965	
108.0	54.00524504496207	baseline	0.0		48.0		baseline	0.0	149.09262804946047	0.3999977662679157
108.0	54.40524281122998	ISI	1.0		11.0		baseline	0.0	149.4926258157284	0.09999936610256555
109.0	54.50524217733255	baseline	0.0		48.0		baseline	0.0	149.59262518183095	0.39999203100887826
109.0	54.6053565504626	pulse	0.0	t			baseline	0.0	149.692739554961	
109.0	54.905234208341426	ISI	1.0		11.0		baseline	0.0	149.99261721283983	0.1000229108503845
110.0	55.00525711919181	baseline	0.0		48.0		baseline	0.0	150.09264012369022	0.3999793530674651
110.0	55.30535362246519	pulse	0.0	t			baseline	0.0	150.3927366269636	
110.0	55.405236472259276	ISI	1.0		11.0		baseline	0.0	150.49261947675768	0.09999031043116702
111.0	55.50522678269044	baseline	0.0		48.0		baseline	0.0	150.59260978718885	0.40000621822764515
111.0	55.90523300091809	ISI	1.0		11.0		baseline	0.0	150.9926160054165	0.09998578259546775
112.0	56.005218783513556	baseline	0.0		47.0		baseline	0.0	151.09260178801196	0.39999203100887826
112.0	56.00948913636239	pulse	0.0	t			baseline	0.0	151.0968721408608	
112.0	56.405210814522434	ISI	1.0		11.0		baseline	0.0	151.49259381902084	0.09999846053688088
113.0	56.505209275059315	baseline	0.0		48.0		baseline	0.0	151.59259227955772	0.3999887105965172
113.0	56.705319090167905	pulse	0.0	t			baseline	0.0	151.7927020946663	
113.0	56.90519798565583	ISI	1.0		11.0		baseline	0.0	151.99258099015424	0.09999332898951252
114.0	57.005191314645344	baseline	0.0		48.0		baseline	0.0	152.09257431914375	0.4000004829686077
114.0	57.40519179761395	ISI	1.0		11.0		baseline	0.0	152.49257480211236	0.09999664940187358
114.0	57.409819245775	pulse	1.0	t			baseline	0.0	152.4972022502734	
115.0	57.505188447015826	baseline	0.0		48.0		baseline	0.0	152.59257145151423	0.3999923328628938
115.0	57.90518077987872	ISI	1.0		11.0		baseline	0.0	152.99256378437713	0.10000238466091105
116.0	58.00518316453963	baseline	0.0		48.0		baseline	0.0	153.09256616903804	0.4000028978152841
116.0	58.10529150055663	pulse	0.0	t			baseline	0.0	153.19267450505504	
116.0	58.405186062354915	ISI	1.0		11.0		baseline	0.0	153.49256906685332	0.10000057352590375
117.0	58.50518663588082	baseline	0.0		48.0		baseline	0.0	153.59256964037922	0.3999793530674651
117.0	58.80528193173086	pulse	0.0	t			baseline	0.0	153.89266493622927	
117.0	58.90516598894828	ISI	1.0		11.0		baseline	0.0	153.9925489934467	0.09998759373047506
118.0	59.00515358267876	baseline	0.0		48.0		baseline	0.0	154.09253658717716	0.4000155757566972
118.0	59.405169158435456	ISI	1.0		11.0		baseline	0.0	154.49255216293386	0.09999544197853538
119.0	59.50516460041399	baseline	0.0		47.0		baseline	0.0	154.5925476049124	0.3999844846148335
119.0	59.5094657425434	pulse	0.0	t			baseline	0.0	154.5968487470418	
119.0	59.905149085028825	ISI	1.0		7.0		baseline	0.0	154.99253208952723	0.1166524442305672
120.0	60.02180152925939	adult	0.0		46.0	face	adult-138.jpg	0.0	155.1091845337578	0.38329005225386936
120.0	60.20522415654705	pulse	0.0	t		face	adult-138.jpg	0.0	155.29260716104545	
120.0	60.40509158151326	ISI	1.0		7.0	face	adult-138.jpg	0.0	155.49247458601167	0.11670979682094185
121.0	60.5218013783342	adult	0.0		46.0	face	adult-112.jpg	0.0	155.6091843828326	0.3832951838012377
121.0	60.90509656213544	ISI	1.0		7.0	face	adult-112.jpg	0.0	155.99247956663385	0.11669711887589074
121.0	60.94041700159869	pulse	1.0	t		face	adult-112.jpg	0.0	156.0278000060971	
122.0	61.02179368101133	adult	0.0		46.0	face	adult-43.jpg	0.0	156.10917668550974	0.38328642998749274
122.0	61.405080110998824	ISI	1.0		7.0	face	adult-43.jpg	0.0	156.49246311549723	0.11669168547450681
123.0	61.52177179647333	adult	0.0		46.0	face	adult-134.jpg	0.0	156.60915480097174	0.3832991079252679
123.0	61.60520592446119	pulse	0.0	t		face	adult-134.jpg	0.0	156.6925889289596	
123.0	61.9050709043986	ISI	1.0		7.0	face	adult-134.jpg	0.0	156.992453908897	0.11669349660951411
124.0	62.02176440100811	adult	0.0		46.0	face	adult-22.jpg	0.0	157.10914740550652	0.3833120877206966
124.0	62.30519454450041	pulse	0.0	t		face	adult-22.jpg	0.0	157.39257754899882	
124.0	62.40507648872881	ISI	1.0		7.0	face	adult-22.jpg	0.0	157.49245949322722	0.11668836506214575
125.0	62.521764853790955	adult	0.0		46.0	face	adult-66.jpg	0.0	157.60914785828936	0.38330605060764356
125.0	62.9050709043986	ISI	1.0		7.0	face	adult-66.jpg	0.0	157.992453908897	0.11667840382142458
126.0	63.02174930822002	adult	0.0		45.0	face	adult-86.jpg	0.0	158.10913231271843	0.3833015227719443
126.0	63.012035893058055	pulse	0.0	t		face	adult-86.jpg	0.0	158.09941889755646	
126.0	63.40505083099197	ISI	1.0		7.0	face	adult-86.jpg	0.0	158.49243383549037	0.11670013743423624
127.0	63.521750968426204	adult	0.0		46.0	face	adult-115.jpg	0.0	158.6091339729246	0.3832885429765156
127.0	63.70515850292577	pulse	0.0	t		face	adult-115.jpg	0.0	158.79254150742418	
127.0	63.90503951140272	ISI	1.0		7.0	face	adult-115.jpg	0.0	158.99242251590113	0.11670255228091264
128.0	64.02174206368363	adult	0.0		46.0	face	adult-116.jpg	0.0	159.10912506818204	0.3833003153486061
128.0	64.40504237903224	ISI	1.0		7.0	face	adult-116.jpg	0.0	159.49242538353064	0.11667236670837156
128.0	64.44174290284354	pulse	1.0	t		face	adult-116.jpg	0.0	159.52912590734195	
129.0	64.52171474574061	adult	0.0		46.0	face	adult-93.jpg	0.0	159.60909775023902	0.3832707334877341
129.0	64.90498547922834	ISI	1.0		7.0	face	adult-93.jpg	0.0	159.99236848372675	0.11668504464978469
130.0	65.02167052387813	adult	0.0		46.0	face	adult-27.jpg	0.0	160.10905352837653	0.3833229545271024
130.0	65.10510163331128	pulse	0.0	t		face	adult-27.jpg	0.0	160.19248463780968	
130.0	65.40499347840523	ISI	1.0		7.0	face	adult-27.jpg	0.0	160.49237648290364	0.1166702537193487
131.0	65.52166373212458	adult	0.0		46.0	face	adult-78.jpg	0.0	160.609046736623	0.3833223508154333
131.0	65.80510202572259	pulse	0.0	t		face	adult-78.jpg	0.0	160.892485030221	
131.0	65.90498608294001	ISI	1.0		7.0	face	adult-78.jpg	0.0	160.99236908743842	0.11668323351477738
132.0	66.02166931645479	car	0.0		46.0	object	car-115.jpg	0.0	161.1090523209532	0.38330605060764356
132.0	66.40497536706243	ISI	1.0		7.0	object	car-115.jpg	0.0	161.49235837156084	0.11667659269005526
133.0	66.52165195975249	car	0.0		45.0	object	car-130.jpg	0.0	161.6090349642509	0.38331299328638124
133.0	66.51188753097449	pulse	0.0	t		object	car-130.jpg	0.0	161.5992705354729	
133.0	66.90496495303887	ISI	1.0		5.0	object	car-130.jpg	0.0	161.99234795753728	0.11669017619715305
134.0	67.02165512923602	car	0.0		46.0	object	car-116.jpg	0.0	162.10903813373443	0.38330122091792873
134.0	67.20506688971727	pulse	0.0	t		object	car-116.jpg	0.0	162.29244989421568	
134.0	67.40495635015395	ISI	1.0		7.0	object	car-116.jpg	0.0	162.49233935465236	0.11668595021546935
135.0	67.52164230036942	car	0.0		46.0	object	car-103.jpg	0.0	162.60902530486783	0.3832942782319151
135.0	67.90493657860134	ISI	1.0		5.0	object	car-103.jpg	0.0	162.99231958309974	0.11668142238340806
135.0	67.95624058021349	pulse	1.0	t		object	car-103.jpg	0.0	163.0436235847119	
136.0	68.02161800098474	car	0.0		46.0	object	car-55.jpg	0.0	163.10900100548315	0.3833217471037642
136.0	68.40493974808851	ISI	1.0		6.0	object	car-55.jpg	0.0	163.49232275258692	0.11668413908046205
137.0	68.52162388716897	car	0.0		46.0	object	car-35.jpg	0.0	163.60900689166738	0.3832939763778995
137.0	68.60504624278474	pulse	0.0	t		object	car-35.jpg	0.0	163.69242924728314	
137.0	68.90491786354687	ISI	1.0		7.0	object	car-35.jpg	0.0	163.99230086804528	0.11669862815688248
138.0	69.02161649170375	car	0.0		46.0	object	car-35.jpg	1.0	164.10899949620216	0.3832879392648465
138.0	69.30502278859785	pulse	0.0	t		object	car-35.jpg	1.0	164.39240579309626	
138.0	69.4049044309686	ISI	1.0		7.0	object	car-35.jpg	1.0	164.492287435467	0.11671160795231117
138.0	69.46337358176606	response	1.0	b		object	car-35.jpg	1.0	164.55075658626447	
139.0	69.52161603892091	car	0.0		46.0	object	car-12.jpg	0.0	164.60899904341932	0.38327888359344797
139.0	69.90489492251436	ISI	1.0		7.0	object	car-12.jpg	0.0	164.99227792701276	0.11668745949282311
140.0	70.02158238200718	car	0.0		45.0	object	car-50.jpg	0.0	165.1089653865056	0.38332084153807955
140.0	70.01185176107174	pulse	0.0	t		object	car-50.jpg	0.0	165.09923476557015	
140.0	70.40490322354526	ISI	1.0		7.0	object	car-50.jpg	0.0	165.49228622804367	0.11668806320813019
141.0	70.52159128675339	car	0.0		46.0	object	car-120.jpg	0.0	165.6089742912518	0.3833181248337496
141.0	70.70503594950424	pulse	0.0	t		object	car-120.jpg	0.0	165.79241895400264	
141.0	70.90490941158714	ISI	1.0		7.0	object	car-120.jpg	0.0	165.99229241608555	0.11669983558022068
142.0	71.02160924716736	car	0.0		46.0	object	car-131.jpg	0.0	166.10899225166577	0.3833069561733282
142.0	71.40491620334069	ISI	1.0		7.0	object	car-131.jpg	0.0	166.4922992078391	0.11668987434313749
142.0	71.44131758813455	pulse	1.0	t		object	car-131.jpg	0.0	166.52870059263296	
143.0	71.52160607768383	car	0.0		46.0	object	car-81.jpg	0.0	166.60898908218223	0.3832972967902606
143.0	71.90490337447409	ISI	1.0		7.0	object	car-81.jpg	0.0	166.9922863789725	0.11669047805116861
144.0	72.02159385252526	word	0.0		46.0	character	word-25.jpg	0.0	167.10897685702366	0.38330605060764356
144.0	72.10501922669937	pulse	0.0	t		character	word-25.jpg	0.0	167.19240223119778	
144.0	72.4048999031329	ISI	1.0		5.0	character	word-25.jpg	0.0	167.4922829076313	0.11666934815366403
145.0	72.52156925128656	word	0.0		46.0	character	word-124.jpg	0.0	167.60895225578497	0.3833051450383209
145.0	72.80499486694316	pulse	0.0	t		character	word-124.jpg	0.0	167.89237787144157	
145.0	72.90487439632489	ISI	1.0		6.0	character	word-124.jpg	0.0	167.9922574008233	0.11671855063468684
146.0	73.02159294695957	word	0.0		46.0	character	word-144.jpg	0.0	168.10897595145798	0.3832873355531774
146.0	73.40488028251275	ISI	1.0		7.0	character	word-144.jpg	0.0	168.49226328701116	0.11668112052211654
147.0	73.52156140303487	word	0.0		45.0	character	word-45.jpg	0.0	168.60894440753327	0.3832945800932066
147.0	73.51187123076306	pulse	0.0	t		character	word-45.jpg	0.0	168.59925423526147	
147.0	73.90485598312807	ISI	1.0		7.0	character	word-45.jpg	0.0	168.99223898762648	0.11669591145255254
148.0	74.02155189458063	word	0.0		46.0	character	word-5.jpg	0.0	169.10893489907903	0.3832625833856582
148.0	74.20494886413144	pulse	0.0	t		character	word-5.jpg	0.0	169.29233186862984	
148.0	74.40481447796628	ISI	1.0		7.0	character	word-5.jpg	0.0	169.4921974824647	0.11668595021546935
149.0	74.52150042818175	word	0.0		46.0	character	word-5.jpg	1.0	169.60888343268016	0.38332144524974865
149.0	74.9048218734315	ISI	1.0		5.0	character	word-5.jpg	1.0	169.9922048779299	0.11668564835781581
149.0	74.95715852345529	pulse	1.0	t		character	word-5.jpg	1.0	170.0445415279537	
150.0	75.02150752178932	word	0.0		46.0	character	word-109.jpg	0.0	170.10889052628772	0.38330725803098176
150.0	75.05492928878812	response	0.0	b		character	word-109.jpg	0.0	170.14231229328652	
150.0	75.4048147798203	ISI	1.0		7.0	character	word-109.jpg	0.0	170.4921977843187	0.11666632959531853
151.0	75.52148110941562	word	0.0		46.0	character	word-19.jpg	0.0	170.60886411391402	0.3833244638044562
151.0	75.60492338750919	pulse	0.0	t		character	word-19.jpg	0.0	170.6923063920076	
151.0	75.90480557322007	ISI	1.0		6.0	character	word-19.jpg	0.0	170.99218857771848	0.11668323351477738
152.0	76.02148880673485	word	0.0		46.0	character	word-70.jpg	0.0	171.10887181123326	0.383305748753628
152.0	76.30488997208158	pulse	0.0	t		character	word-70.jpg	0.0	171.39227297658	
152.0	76.40479455548848	ISI	1.0		6.0	character	word-70.jpg	0.0	171.49217755998689	0.11669198732852237
153.0	76.521486542817	word	0.0		46.0	character	word-43.jpg	0.0	171.6088695473154	0.3832773743160942
153.0	76.9047639171331	ISI	1.0		5.0	character	word-43.jpg	0.0	171.9921469216315	0.11670134485757444
154.0	77.02146526199067	word	0.0		45.0	character	word-95.jpg	0.0	172.10884826648908	0.3833123895783501
154.0	77.01160182453532	pulse	0.0	t		character	word-95.jpg	0.0	172.09898482903372	
154.0	77.40477765156902	ISI	1.0		6.0	character	word-95.jpg	0.0	172.49216065606743	0.11668715763880755
155.0	77.52146480920783	word	0.0		46.0	character	word-55.jpg	0.0	172.60884781370623	0.383308465450682
155.0	77.70487687154309	pulse	0.0	t		character	word-55.jpg	0.0	172.7922598760415	
155.0	77.90477327465851	ISI	1.0		11.0	character	word-55.jpg	0.0	172.99215627915692	0.09998065104809939
156.0	78.00475392570661	baseline	0.0		48.0		baseline	0.0	173.09213693020502	0.39998508833014057
156.0	78.40473901403675	ISI	1.0		11.0		baseline	0.0	173.49212201853516	0.10002019414605456
156.0	78.40938064941656	pulse	1.0	t			baseline	0.0	173.49676365391497	
157.0	78.5047592081828	baseline	0.0		48.0		baseline	0.0	173.5921422126812	0.39998025863678777
157.0	78.90473946681959	ISI	1.0		11.0		baseline	0.0	173.992122471318	0.10001023290897137
158.0	79.00474969972856	baseline	0.0		48.0		baseline	0.0	174.09213270422697	0.3999775419324578
158.0	79.10486105430391	pulse	0.0	t			baseline	0.0	174.19224405880232	
158.0	79.40472724166102	ISI	1.0		11.0		baseline	0.0	174.49211024615943	0.10000389394190279
159.0	79.50473113560292	baseline	0.0		48.0		baseline	0.0	174.59211414010133	0.40000440709263785
159.0	79.80485057990882	pulse	0.0	t			baseline	0.0	174.89223358440722	
159.0	79.90473554269556	ISI	1.0		11.0		baseline	0.0	174.99211854719397	0.0999640489826561
160.0	80.00469959167822	baseline	0.0		48.0		baseline	0.0	175.09208259617662	0.4000605522560363
160.0	80.40476014393425	ISI	1.0		11.0		baseline	0.0	175.49214314843266	0.10000419579591835
161.0	80.50476433973017	baseline	0.0		47.0		baseline	0.0	175.59214734422858	0.4000047089502914
161.0	80.50907966908198	pulse	0.0	t			baseline	0.0	175.5964626735804	
161.0	80.90476904868046	ISI	1.0		11.0		baseline	0.0	175.99215205317887	0.09999302713185898
162.0	81.00476207581232	baseline	0.0		48.0		baseline	0.0	176.09214508031073	0.3999974644102622
162.0	81.20488336143899	pulse	0.0	t			baseline	0.0	176.2922663659374	
162.0	81.40475954022259	ISI	1.0		11.0		baseline	0.0	176.492142544721	0.09999966796021909
163.0	81.5047592081828	baseline	0.0		48.0		baseline	0.0	176.5921422126812	0.39999565327889286
163.0	81.9047548614617	ISI	1.0		11.0		baseline	0.0	176.9921378659601	0.09998849929615972
163.0	81.90945747169826	pulse	1.0	t			baseline	0.0	176.99684047619667	
164.0	82.00474336075786	baseline	0.0		48.0		baseline	0.0	177.09212636525626	0.4000101423516753
164.0	82.40475350310953	ISI	1.0		11.0		baseline	0.0	177.49213650760794	0.09998729187282152
165.0	82.50474079498235	baseline	0.0		48.0		baseline	0.0	177.59212379948076	0.3999929365782009
165.0	82.60485637553938	pulse	0.0	t			baseline	0.0	177.6922393800378	
165.0	82.90473373156055	ISI	1.0		11.0		baseline	0.0	177.99211673605896	0.09999725311354268
166.0	83.0047309846741	baseline	0.0		48.0		baseline	0.0	178.0921139891725	0.3999986718336004
166.0	83.30484529743262	pulse	0.0	t			baseline	0.0	178.39222830193103	
166.0	83.4047296565077	ISI	1.0		11.0		baseline	0.0	178.4921126610061	0.1000210997153772
167.0	83.50475075622307	baseline	0.0		48.0		baseline	0.0	178.59213376072148	0.39996758069537464
167.0	83.90471833691845	ISI	1.0		5.0		baseline	0.0	178.99210134141686	0.11665636835459736
168.0	84.02137470527305	house	0.0		45.0	place	house-70.jpg	0.0	179.10875770977145	0.38330423947263625
168.0	84.0115846187582	pulse	0.0	t		place	house-70.jpg	0.0	179.0989676232566	
168.0	84.40467894474568	ISI	1.0		6.0	place	house-70.jpg	0.0	179.4920619492441	0.11669349660951411
169.0	84.5213724413552	house	0.0		46.0	place	house-87.jpg	0.0	179.6087554458536	0.38329005225386936
169.0	84.70478812596048	pulse	0.0	t		place	house-87.jpg	0.0	179.79217113045888	
169.0	84.90466249360907	ISI	1.0		6.0	place	house-87.jpg	0.0	179.99204549810747	0.11670164671522798
170.0	85.0213641403243	house	0.0		46.0	place	house-137.jpg	0.0	180.1087471448227	0.3833003153486061
170.0	85.4046644556729	ISI	1.0		6.0	place	house-137.jpg	0.0	180.4920474601713	0.11668957248548395
170.0	85.44758592398284	pulse	1.0	t		place	house-137.jpg	0.0	180.53496892848125	
171.0	85.52135402815838	house	0.0		46.0	place	house-119.jpg	0.0	180.6087370326568	0.3833039376149827
171.0	85.90465796577337	ISI	1.0		5.0	place	house-119.jpg	0.0	180.99204097027177	0.11670134486121242
172.0	86.02135931063458	house	0.0		46.0	place	house-17.jpg	0.0	181.108742315133	0.38327465761176427
172.0	86.1047695920206	pulse	0.0	t		place	house-17.jpg	0.0	181.192152596519	
172.0	86.40463396824634	ISI	1.0		6.0	place	house-17.jpg	0.0	181.49201697274475	0.1167028541349282
173.0	86.52133682238127	house	0.0		46.0	place	house-22.jpg	0.0	181.60871982687968	0.3832985042135988
173.0	86.80474734525342	pulse	0.0	t		place	house-22.jpg	0.0	181.89213034975182	
173.0	86.90463532659487	ISI	1.0		6.0	place	house-22.jpg	0.0	181.99201833109328	0.11669410032118321
174.0	87.02132942691605	house	0.0		46.0	place	house-110.jpg	0.0	182.10871243141446	0.3832855244181701
174.0	87.40461495133422	ISI	1.0		6.0	place	house-110.jpg	0.0	182.49199795583263	0.11669560959853698
175.0	87.52131056093276	house	0.0		45.0	place	house-112.jpg	0.0	182.60869356543117	0.38329488194722217
175.0	87.51147972389663	pulse	0.0	t		place	house-112.jpg	0.0	182.59886272839503	
175.0	87.90460544287998	ISI	1.0		7.0	place	house-112.jpg	0.0	182.9919884473784	0.11668715763880755
176.0	88.02129260051879	house	0.0		46.0	place	house-78.jpg	0.0	183.1086756050172	0.38331903040307225
176.0	88.20473092430257	pulse	0.0	t		place	house-78.jpg	0.0	183.29211392880097	
176.0	88.40461163092186	ISI	1.0		6.0	place	house-78.jpg	0.0	183.49199463542027	0.11668685578479199
177.0	88.52129848670666	house	0.0		46.0	place	house-36.jpg	0.0	183.60868149120506	0.3833151062790421
177.0	88.9046135929857	ISI	1.0		5.0	place	house-36.jpg	0.0	183.9919965974841	0.11667961124476278
177.0	88.95365971382125	pulse	1.0	t		place	house-36.jpg	0.0	184.04104271831966	
178.0	89.02129320423046	house	0.0		46.0	place	house-54.jpg	0.0	184.10867620872887	0.38326862049871124
178.0	89.40456182472917	ISI	1.0		7.0	place	house-54.jpg	0.0	184.49194482922758	0.11668776135047665
179.0	89.52124958607965	house	0.0		46.0	place	house-90.jpg	0.0	184.60863259057805	0.38328642998385476
179.0	89.60467043241442	pulse	0.0	t		place	house-90.jpg	0.0	184.69205343691283	
179.0	89.9045360160635	ISI	1.0		7.0	place	house-90.jpg	0.0	184.9919190205619	0.11670164671522798
180.0	90.02123766277873	adult	0.0		46.0	face	adult-107.jpg	0.0	185.10862066727714	0.38330544689597446
180.0	90.30465814688796	pulse	0.0	t		face	adult-107.jpg	0.0	185.39204115138637	
180.0	90.4045431096747	ISI	1.0		7.0	face	adult-107.jpg	0.0	185.4919261141731	0.11668715763880755
181.0	90.52123026731351	adult	0.0		46.0	face	adult-15.jpg	0.0	185.60861327181192	0.38330665431931266
181.0	90.90453692163283	ISI	1.0		7.0	face	adult-15.jpg	0.0	185.99191992613123	0.11667538526671706
182.0	91.02121230689954	adult	0.0		45.0	face	adult-38.jpg	0.0	186.10859531139795	0.3832921652428922
182.0	91.01148591193851	pulse	0.0	t		face	adult-38.jpg	0.0	186.0988689164369	
182.0	91.40450447214243	ISI	1.0		7.0	face	adult-38.jpg	0.0	186.49188747664084	0.11668987433949951
183.0	91.52119434648193	adult	0.0		46.0	face	adult-68.jpg	0.0	186.60857735098034	0.3833138988557039
183.0	91.70463749995906	pulse	0.0	t		face	adult-68.jpg	0.0	186.79202050445747	
183.0	91.90450824533764	ISI	1.0		7.0	face	adult-68.jpg	0.0	186.99189124983604	0.11668776135047665
184.0	92.02119600668811	adult	0.0		46.0	face	adult-109.jpg	0.0	187.10857901118652	0.3833135970016883
184.0	92.4045096036898	ISI	1.0		7.0	face	adult-109.jpg	0.0	187.4918926081882	0.11668595021546935
184.0	92.44008722422586	pulse	1.0	t		face	adult-109.jpg	0.0	187.52747022872427	
185.0	92.52119555390527	adult	0.0		46.0	face	adult-34.jpg	0.0	187.60857855840368	0.38328944854220026
185.0	92.90448500244747	ISI	1.0		7.0	face	adult-34.jpg	0.0	187.99186800694588	0.11669953372620512
186.0	93.02118453617368	adult	0.0		46.0	face	adult-32.jpg	0.0	188.10856754067208	0.3832912596735696
186.0	93.10461051405582	pulse	0.0	t		face	adult-32.jpg	0.0	188.19199351855423	
186.0	93.40447579584725	ISI	1.0		7.0	face	adult-32.jpg	0.0	188.49185880034565	0.11670375970425084
187.0	93.5211795555515	adult	0.0		46.0	face	adult-4.jpg	0.0	188.6085625600499	0.38330242834126693
187.0	93.8045979266717	pulse	0.0	t		face	adult-4.jpg	0.0	188.8919809311701	
187.0	93.90448198389277	ISI	1.0		7.0	face	adult-4.jpg	0.0	188.99186498839117	0.11668625206948491
188.0	94.02116823596225	adult	0.0		46.0	face	adult-47.jpg	0.0	189.10855124046066	0.3833033339069516
188.0	94.4044715698692	ISI	1.0		7.0	face	adult-47.jpg	0.0	189.4918545743676	0.11668081866810098
189.0	94.5211523885373	adult	0.0		45.0	face	adult-57.jpg	0.0	189.6085353930357	0.38329940978292143
189.0	94.5133554553322	pulse	0.0	t		face	adult-57.jpg	0.0	189.6007384598306	
189.0	94.90445179832022	ISI	1.0		5.0	face	adult-57.jpg	0.0	189.99183480281863	0.11669711887589074
190.0	95.02114891719611	adult	0.0		46.0	face	adult-83.jpg	0.0	190.10853192169452	0.38330122091792873
190.0	95.20460173005631	pulse	0.0	t		face	adult-83.jpg	0.0	190.29198473455472	
190.0	95.40445013811404	ISI	1.0		7.0	face	adult-83.jpg	0.0	190.49183314261245	0.11671462650701869
191.0	95.52116476462106	adult	0.0		46.0	face	adult-141.jpg	0.0	190.60854776911947	0.38329608937056037
191.0	95.90446085399162	ISI	1.0		4.0	face	adult-141.jpg	0.0	190.99184385849003	0.11670858939396567
191.0	95.96967527267407	pulse	1.0	t		face	adult-141.jpg	0.0	191.05705827717247	
192.0	96.02116944338559	house	0.0		46.0	place	house-1.jpg	0.0	191.108552447884	0.383299711636937
192.0	96.40446915502253	ISI	1.0		6.0	place	house-1.jpg	0.0	191.49185215952093	0.11668836506214575
193.0	96.52115752008467	house	0.0		46.0	place	house-86.jpg	0.0	191.60854052458308	0.3832915615348611
193.0	96.60461458910868	pulse	0.0	t		place	house-86.jpg	0.0	191.69199759360708	
193.0	96.90444908161953	ISI	1.0		6.0	place	house-86.jpg	0.0	191.99183208611794	0.11669711887589074
194.0	97.02114620049542	house	0.0		46.0	place	house-20.jpg	0.0	192.10852920499383	0.38328099658247083
194.0	97.30455340295521	pulse	0.0	t		place	house-20.jpg	0.0	192.3919364074536	
194.0	97.4044271970779	ISI	1.0		6.0	place	house-20.jpg	0.0	192.4918102015763	0.11669681702187518
195.0	97.52112401409977	house	0.0		46.0	place	house-132.jpg	0.0	192.60850701859817	0.38330665431931266
195.0	97.90443066841908	ISI	1.0		6.0	place	house-132.jpg	0.0	192.9918136729175	0.11669289289784501
196.0	98.02112356131693	house	0.0		45.0	place	house-91.jpg	0.0	193.10850656581533	0.3833093710200046
196.0	98.01137694202407	pulse	0.0	t		place	house-91.jpg	0.0	193.09875994652248	
196.0	98.40443293233693	ISI	1.0		7.0	place	house-91.jpg	0.0	193.49181593683534	0.1166714611426869
197.0	98.52110439347962	house	0.0		46.0	place	house-135.jpg	0.0	193.60848739797802	0.3833181248337496
197.0	98.70453094488767	pulse	0.0	t		place	house-135.jpg	0.0	193.79191394938607	
197.0	98.90442251831337	ISI	1.0		7.0	place	house-135.jpg	0.0	193.99180552281177	0.11669047805480659
198.0	99.02111299636817	house	0.0		46.0	place	house-135.jpg	1.0	194.10849600086658	0.38327103534174967
198.0	99.40438403170992	ISI	1.0		7.0	place	house-135.jpg	1.0	194.49176703620833	0.11668353537243092
198.0	99.44398357783939	pulse	1.0	t		place	house-135.jpg	1.0	194.5313665823378	
198.0	99.47114546094963	response	1.0	b		place	house-135.jpg	1.0	194.55852846544803	
199.0	99.52106756708235	house	0.0		46.0	place	house-23.jpg	0.0	194.60845057158076	0.3833072580273438
199.0	99.9043748251097	ISI	1.0		7.0	place	house-23.jpg	0.0	194.9917578296081	0.11668413908410002
200.0	100.0210589641938	house	0.0		46.0	place	house-131.jpg	0.0	195.1084419686922	0.3833063524616591
200.0	100.10454199280866	pulse	0.0	t		place	house-131.jpg	0.0	195.19192499730707	
200.0	100.40436531665546	ISI	1.0		7.0	place	house-131.jpg	0.0	195.49174832115386	0.11668504464978469
201.0	100.52105036130524	house	0.0		46.0	place	house-129.jpg	0.0	195.60843336580365	0.3832933726662304
201.0	100.80446812871378	pulse	0.0	t		place	house-129.jpg	0.0	195.89185113321219	
201.0	100.90434373397147	ISI	1.0		6.0	place	house-129.jpg	0.0	195.99172673846988	0.11669742073354428
202.0	101.02104115470502	house	0.0		46.0	place	house-65.jpg	0.0	196.10842415920342	0.38329427823555307
202.0	101.40433543294057	ISI	1.0		7.0	place	house-65.jpg	0.0	196.49171843743898	0.11669228918617591
203.0	101.52102772212675	house	0.0		45.0	place	house-64.jpg	0.0	196.60841072662515	0.3832985042135988
203.0	101.5111461733286	pulse	0.0	t		place	house-64.jpg	0.0	196.598529177827	
203.0	101.90432622634034	ISI	1.0		6.0	place	house-64.jpg	0.0	196.99170923083875	0.11669591145619052
204.0	102.02102213779654	house	0.0		46.0	place	house-111.jpg	0.0	197.10840514229494	0.3833090691623511
204.0	102.20444687806958	pulse	0.0	t		place	house-111.jpg	0.0	197.29182988256798	
204.0	102.40433120695889	ISI	1.0		7.0	place	house-111.jpg	0.0	197.4917142114573	0.11668383722644649
205.0	102.52101504418533	house	0.0		46.0	place	house-118.jpg	0.0	197.60839804868374	0.38330605060764356
205.0	102.90432109479298	ISI	1.0		7.0	place	house-118.jpg	0.0	197.99170409929138	0.11668413908046205
205.0	102.94300631995065	pulse	1.0	t		place	house-118.jpg	0.0	198.03038932444906	
206.0	103.02100523387344	house	0.0		46.0	place	house-35.jpg	0.0	198.10838823837184	0.38330967287765816
206.0	103.4043149067511	ISI	1.0		6.0	place	house-35.jpg	0.0	198.4916979112495	0.11668172423742362
207.0	103.52099663098852	house	0.0		46.0	place	house-144.jpg	0.0	198.60837963548693	0.3832924670969078
207.0	103.60442532557136	pulse	0.0	t		place	house-144.jpg	0.0	198.69180833006976	
207.0	103.90428909808543	ISI	1.0		6.0	place	house-144.jpg	0.0	198.99167210258383	0.11669893001453602
208.0	104.02098802809996	house	0.0		46.0	place	house-39.jpg	0.0	199.10837103259837	0.3833051450383209
208.0	104.30440549365085	pulse	0.0	t		place	house-39.jpg	0.0	199.39178849814925	
208.0	104.40429317313829	ISI	1.0		7.0	place	house-39.jpg	0.0	199.4916761776367	0.11668685578479199
209.0	104.52098002892308	house	0.0		46.0	place	house-67.jpg	0.0	199.60836303342148	0.3833051450383209
209.0	104.9042851739614	ISI	1.0		7.0	place	house-67.jpg	0.0	199.9916681784598	0.11668474279576913
210.0	105.02096991675717	house	0.0		45.0	place	house-27.jpg	0.0	200.10835292125557	0.3833365380342002
210.0	105.01122903272335	pulse	0.0	t		place	house-27.jpg	0.0	200.09861203722176	
210.0	105.40430645479137	ISI	1.0		6.0	place	house-27.jpg	0.0	200.49168945928977	0.11667266856238712
211.0	105.52097912335375	house	0.0		46.0	place	house-50.jpg	0.0	200.60836212785216	0.38328824112250004
211.0	105.70437760218556	pulse	0.0	t		place	house-50.jpg	0.0	200.79176060668397	
211.0	105.90426736447625	ISI	1.0		7.0	place	house-50.jpg	0.0	200.99165036897466	0.11668413908046205
212.0	106.02095150355672	house	0.0		46.0	place	house-138.jpg	0.0	201.10833450805512	0.3833051450419589
212.0	106.40425664859868	ISI	1.0		6.0	place	house-138.jpg	0.0	201.49163965309708	0.11668685578115401
212.0	106.45059482178476	pulse	1.0	t		place	house-138.jpg	0.0	201.53797782628317	
213.0	106.52094350437983	house	0.0		46.0	place	house-107.jpg	0.0	201.60832650887824	0.3832903541115229
213.0	106.90423385849135	ISI	1.0		7.0	place	house-107.jpg	0.0	201.99161686298976	0.1167022504232591
214.0	107.02093610891461	house	0.0		46.0	place	house-51.jpg	0.0	202.10831911341302	0.38330242834126693
214.0	107.10435786081871	pulse	0.0	t		place	house-51.jpg	0.0	202.19174086531712	
214.0	107.40423853725588	ISI	1.0		7.0	place	house-51.jpg	0.0	202.49162154175428	0.11668534650380025
215.0	107.52092388375968	house	0.0		46.0	place	house-79.jpg	0.0	202.60830688825808	0.3833069561733282
215.0	107.80434195302223	pulse	0.0	t		place	house-79.jpg	0.0	202.89172495752064	
215.0	107.904230839933	ISI	1.0		7.0	place	house-79.jpg	0.0	202.9916138444314	0.1166708574310178
216.0	108.02090169736402	body	0.0		46.0	body	body-143.jpg	0.0	203.10828470186243	0.38330061720262165
216.0	108.40420231456665	ISI	1.0		7.0	body	body-143.jpg	0.0	203.49158531906505	0.11668776135047665
217.0	108.52089007591712	body	0.0		45.0	body	body-138.jpg	0.0	203.60827308041553	0.3833051450419589
217.0	108.51130193088102	pulse	0.0	t		body	body-138.jpg	0.0	203.59868493537942	
217.0	108.90419522095908	ISI	1.0		7.0	body	body-138.jpg	0.0	203.9915782254575	0.11670979681730387
218.0	109.02090501777639	body	0.0		46.0	body	body-48.jpg	0.0	204.1082880222748	0.3832831095714937
218.0	109.20431225042194	pulse	0.0	t		body	body-48.jpg	0.0	204.29169525492034	
218.0	109.40418812734788	ISI	1.0		7.0	body	body-48.jpg	0.0	204.49157113184629	0.11668444093811559
219.0	109.520872568286	body	0.0		46.0	body	body-110.jpg	0.0	204.6082555727844	0.38331027658932726
219.0	109.90418284487532	ISI	1.0		7.0	body	body-110.jpg	0.0	204.99156584937373	0.11669591145255254
219.0	109.94122537121439	pulse	1.0	t		body	body-110.jpg	0.0	205.0286083757128	
220.0	110.02087875632787	body	0.0		46.0	body	body-10.jpg	0.0	205.10826176082628	0.383284920706501
220.0	110.40416367703438	ISI	1.0		7.0	body	body-10.jpg	0.0	205.49154668153278	0.11670587269691168
221.0	110.52086954973129	body	0.0		46.0	body	body-41.jpg	0.0	205.6082525542297	0.38329005225386936
221.0	110.60429582947108	pulse	0.0	t		body	body-41.jpg	0.0	205.6916788339695	
221.0	110.90415960198516	ISI	1.0		7.0	body	body-41.jpg	0.0	205.99154260648356	0.11667659268641728
222.0	111.02083619467157	body	0.0		46.0	body	body-6.jpg	0.0	206.10821919916998	0.3833320102021389
222.0	111.30428414765265	pulse	0.0	t		body	body-6.jpg	0.0	206.39166715215106	
222.0	111.40416820487371	ISI	1.0		7.0	body	body-6.jpg	0.0	206.49155120937212	0.1166838372228085
223.0	111.52085204209652	body	0.0		46.0	body	body-116.jpg	0.0	206.60823504659493	0.3833353306145
223.0	111.90418737271102	ISI	1.0		5.0	body	body-116.jpg	0.0	206.99157037720943	0.11668504464978469
224.0	112.0208724173608	body	0.0		45.0	body	body-18.jpg	0.0	207.1082554218592	0.3833090691623511
224.0	112.01278449524034	pulse	0.0	t		body	body-18.jpg	0.0	207.10016749973875	
224.0	112.40418148652316	ISI	1.0		7.0	body	body-18.jpg	0.0	207.49156449102156	0.11668987433949951
225.0	112.52087136086266	body	0.0		46.0	body	body-12.jpg	0.0	207.60825436536106	0.38330242834126693
225.0	112.70428976216863	pulse	0.0	t		body	body-12.jpg	0.0	207.79167276666703	
225.0	112.90417378920392	ISI	1.0		7.0	body	body-12.jpg	0.0	207.99155679370233	0.11668685578115401
226.0	113.02086064498508	body	0.0		46.0	body	body-127.jpg	0.0	208.10824364948348	0.38327103534538765
226.0	113.40413168033047	ISI	1.0		7.0	body	body-127.jpg	0.0	208.49151468482887	0.11668323351477738
226.0	113.4420921499077	pulse	1.0	t		body	body-127.jpg	0.0	208.5294751544061	
227.0	113.52081491384524	body	0.0		46.0	body	body-24.jpg	0.0	208.60819791834365	0.3833114840090275
227.0	113.90412639785427	ISI	1.0		5.0	body	body-24.jpg	0.0	208.99150940235268	0.11668112052575452
228.0	114.02080751838002	car	0.0		46.0	object	car-143.jpg	0.0	209.10819052287843	0.38330061720262165
228.0	114.10421146079534	pulse	0.0	t		object	car-143.jpg	0.0	209.19159446529375	
228.0	114.40410813558265	ISI	1.0		7.0	object	car-143.jpg	0.0	209.49149114008105	0.11670496712758904
229.0	114.52081310271024	car	0.0		46.0	object	car-43.jpg	0.0	209.60819610720864	0.3833033339069516
229.0	114.80422332372473	pulse	0.0	t		object	car-43.jpg	0.0	209.89160632822313	
229.0	114.90411643661719	ISI	1.0		7.0	object	car-43.jpg	0.0	209.9914994411156	0.11667297042004066
230.0	115.02078940703723	car	0.0		46.0	object	car-48.jpg	0.0	210.10817241153563	0.3833069561733282
230.0	115.40409636321056	ISI	1.0		7.0	object	car-48.jpg	0.0	210.49147936770896	0.11667719640172436
231.0	115.52077355961228	car	0.0		45.0	object	car-25.jpg	0.0	210.6081565641107	0.3833027301916445
231.0	115.5118739474674	pulse	0.0	t		object	car-25.jpg	0.0	210.5992569519658	
231.0	115.90407628980392	ISI	1.0		7.0	object	car-25.jpg	0.0	210.99145929430233	0.11669410032118321
232.0	116.02077039012511	car	0.0		46.0	object	car-58.jpg	0.0	211.1081533946235	0.3833063524652971
232.0	116.20419482854777	pulse	0.0	t		object	car-58.jpg	0.0	211.29157783304618	
232.0	116.4040767425904	ISI	1.0		7.0	object	car-58.jpg	0.0	211.4914597470888	0.11668776135047665
233.0	116.52076450394088	car	0.0		46.0	object	car-99.jpg	0.0	211.6081475084393	0.38328944854220026
233.0	116.90405395248308	ISI	1.0		7.0	object	car-99.jpg	0.0	211.9914369569815	0.11668444093811559
233.0	116.94029988158218	pulse	1.0	t		object	car-99.jpg	0.0	212.02768288608058	
234.0	117.0207383934212	car	0.0		46.0	object	car-69.jpg	0.0	212.1081213979196	0.3833217471037642
234.0	117.40406014052496	ISI	1.0		7.0	object	car-69.jpg	0.0	212.49144314502337	0.11668504464978469
235.0	117.52074518517475	car	0.0		46.0	object	car-24.jpg	0.0	212.60812818967315	0.38329125967720756
235.0	117.60417116305689	pulse	0.0	t		object	car-24.jpg	0.0	212.6915541675553	
235.0	117.90403644485195	ISI	1.0		7.0	object	car-24.jpg	0.0	212.99141944935036	0.11669319475186057
236.0	118.02072963960381	car	0.0		46.0	object	car-86.jpg	0.0	213.10811264410222	0.3833111821550119
236.0	118.30415646268375	pulse	0.0	t		object	car-86.jpg	0.0	213.39153946718216	
236.0	118.40404082175883	ISI	1.0		7.0	object	car-86.jpg	0.0	213.49142382625723	0.11668715763880755
237.0	118.52072797939763	car	0.0		46.0	object	car-126.jpg	0.0	213.60811098389604	0.38329548565889127
237.0	118.90402346505653	ISI	1.0		7.0	object	car-126.jpg	0.0	213.99140646955493	0.11668927062783041
238.0	119.02071273568436	car	0.0		45.0	object	car-18.jpg	0.0	214.10809574018276	0.38334287700490677
238.0	119.01117832096133	pulse	0.0	t		object	car-18.jpg	0.0	214.09856132545974	
238.0	119.40405561268926	ISI	1.0		7.0	object	car-18.jpg	0.0	214.49143861718767	0.11667176299670245
239.0	119.52072737568596	car	0.0		46.0	object	car-127.jpg	0.0	214.60811038018437	0.38330605060764356
239.0	119.7041672087471	pulse	0.0	t		object	car-127.jpg	0.0	214.7915502132455	
239.0	119.90403342629361	ISI	1.0		7.0	object	car-127.jpg	0.0	214.99141643079201	0.11670134485757444
240.0	120.02073477115118	car	0.0		46.0	object	car-122.jpg	0.0	215.1081177756496	0.38330242833762895
240.0	120.40403719948881	ISI	1.0		7.0	object	car-122.jpg	0.0	215.49142020398722	0.11666844258434139
240.0	120.4409728689061	pulse	1.0	t		object	car-122.jpg	0.0	215.5283558734045	
241.0	120.52070564207315	car	0.0		46.0	object	car-113.jpg	0.0	215.60808864657156	0.38331963411474135
241.0	120.9040252761879	ISI	1.0		7.0	object	car-113.jpg	0.0	215.9914082806863	0.11669077990882215
242.0	121.02071605609672	car	0.0		46.0	object	car-41.jpg	0.0	216.10809906059512	0.3832601685389818
242.0	121.10410641500494	pulse	0.0	t		object	car-41.jpg	0.0	216.19148941950334	
242.0	121.4039762246357	ISI	1.0		7.0	object	car-41.jpg	0.0	216.4913592291341	0.11669893001089804
243.0	121.5206751546466	car	0.0		46.0	object	car-41.jpg	1.0	216.608058159145	0.3833015227719443
243.0	121.80409292205513	pulse	0.0	t		object	car-41.jpg	1.0	216.89147592655354	
243.0	121.90397667741854	ISI	1.0		5.0	object	car-41.jpg	1.0	216.99135968191695	0.11668504464978469
243.0	121.956408110138	response	1.0	b		object	car-41.jpg	1.0	217.0437911146364	
244.0	122.02066172206833	car	0.0		46.0	object	car-89.jpg	0.0	217.10804472656673	0.3833105784433428
244.0	122.40397230051167	ISI	1.0		7.0	object	car-89.jpg	0.0	217.49135530501007	0.11667719639808638
245.0	122.52064949690975	car	0.0		45.0	object	car-123.jpg	0.0	217.60803250140816	0.3832957875129068
245.0	122.51107312424574	pulse	0.0	t		object	car-123.jpg	0.0	217.59845612874415	
245.0	122.90394528442266	ISI	1.0		7.0	object	car-123.jpg	0.0	217.99132828892107	0.11670134485757444
246.0	123.02064662928024	car	0.0		46.0	object	car-135.jpg	0.0	218.10802963377864	0.38330605060764356
246.0	123.20406593615553	pulse	0.0	t		object	car-135.jpg	0.0	218.29144894065394	
246.0	123.40395267988788	ISI	1.0		7.0	object	car-135.jpg	0.0	218.49133568438629	0.11668685578479199
247.0	123.52063953567267	car	0.0		46.0	object	car-4.jpg	0.0	218.60802254017108	0.3832855244181701
247.0	123.90392506009084	ISI	1.0		7.0	object	car-4.jpg	0.0	218.99130806458925	0.11671523022232577
247.0	123.94039828654422	pulse	1.0	t		object	car-4.jpg	0.0	219.02778129104263	
248.0	124.02064029031317	car	0.0		46.0	object	car-95.jpg	0.0	219.10802329481157	0.3832918633852387
248.0	124.4039321536984	ISI	1.0		7.0	object	car-95.jpg	0.0	219.4913151581968	0.11668655393077643
249.0	124.52061870762918	car	0.0		46.0	object	car-52.jpg	0.0	219.6080017121276	0.3833075598849973
249.0	124.60404377994564	pulse	0.0	t		object	car-52.jpg	0.0	219.69142678444405	
249.0	124.90392626751418	ISI	1.0		7.0	object	car-52.jpg	0.0	219.9913092720126	0.11668444093811559
250.0	125.0206107084523	car	0.0		46.0	object	car-110.jpg	0.0	220.1079937129507	0.3833045413266518
250.0	125.30403209812721	pulse	0.0	t		object	car-110.jpg	0.0	220.39141510262561	
250.0	125.40391524977895	ISI	1.0		7.0	object	car-110.jpg	0.0	220.49129825427735	0.1166714611426869
251.0	125.52058671092163	car	0.0		46.0	object	car-111.jpg	0.0	220.60796971542004	0.38330605060764356
251.0	125.90389276152928	ISI	1.0		11.0	object	car-111.jpg	0.0	220.99127576602768	0.10000208280325751
252.0	126.00389484433254	baseline	0.0		47.0		baseline	0.0	221.09127784883094	0.4000065200852987
252.0	126.00828231720152	pulse	0.0	t			baseline	0.0	221.09566532169993	
252.0	126.40390136441783	ISI	1.0		11.0		baseline	0.0	221.49128436891624	0.09999634754422004
253.0	126.50389771196205	baseline	0.0		48.0		baseline	0.0	221.59128071646046	0.39998086234845687
253.0	126.70399666026788	pulse	0.0	t			baseline	0.0	221.79137966476628	
253.0	126.90387857431051	ISI	1.0		11.0		baseline	0.0	221.99126157880892	0.09999151785450522
254.0	127.00387009216502	baseline	0.0		48.0		baseline	0.0	222.09125309666342	0.4000792673105025
254.0	127.40394935947552	ISI	1.0		11.0		baseline	0.0	222.49133236397392	0.09999332898951252
254.0	127.40862299156288	pulse	1.0	t			baseline	0.0	222.49600599606129	
255.0	127.50394268846503	baseline	0.0		48.0		baseline	0.0	222.59132569296344	0.39997603265510406
255.0	127.90391872112014	ISI	1.0		11.0		baseline	0.0	222.99130172561854	0.10000630878494121
256.0	128.00392502990508	baseline	0.0		48.0		baseline	0.0	223.09130803440348	0.39999021987387096
256.0	128.10404061045847	pulse	0.0	t			baseline	0.0	223.19142361495688	
256.0	128.40391524977895	ISI	1.0		11.0		baseline	0.0	223.49129825427735	0.10000087538355729
257.0	128.5039161251625	baseline	0.0		48.0		baseline	0.0	223.5912991296609	0.39999323843221646
257.0	128.80402500451964	pulse	0.0	t			baseline	0.0	223.89140800901805	
257.0	128.90390936359472	ISI	1.0		11.0		baseline	0.0	223.99129236809313	0.10000117723757285
258.0	129.0039105408323	baseline	0.0		48.0		baseline	0.0	224.0912935453307	0.400002294103615
258.0	129.4039128349359	ISI	1.0		11.0		baseline	0.0	224.49129583943431	0.0999984605332429
259.0	129.50391129546915	baseline	0.0		47.0		baseline	0.0	224.59129429996756	0.39998206977179507
259.0	129.50832080380496	pulse	0.0	t			baseline	0.0	224.59570380830337	
259.0	129.90389336524095	ISI	1.0		11.0		baseline	0.0	224.99127636973935	0.09999393270118162
260.0	130.00388729794213	baseline	0.0		48.0		baseline	0.0	225.09127030244053	0.3999959551329084
260.0	130.2040116021235	pulse	0.0	t			baseline	0.0	225.2913946066219	
260.0	130.40388325307504	ISI	1.0		11.0		baseline	0.0	225.49126625757344	0.09999423455519718
261.0	130.50387748763023	baseline	0.0		48.0		baseline	0.0	225.59126049212864	0.3999965588445775
261.0	130.9038740464748	ISI	1.0		11.0		baseline	0.0	225.99125705097322	0.10002442012773827
261.0	130.90866932641802	pulse	1.0	t			baseline	0.0	225.99605233091643	
262.0	131.00389846660255	baseline	0.0		48.0		baseline	0.0	226.09128147110096	0.39996697698370554
262.0	131.40386544358626	ISI	1.0		11.0		baseline	0.0	226.49124844808466	0.10001264775564778
263.0	131.5038780913419	baseline	0.0		48.0		baseline	0.0	226.5912610958403	0.39998840873886365
263.0	131.60399004962528	pulse	0.0	t			baseline	0.0	226.6913730541237	
263.0	131.90386650008077	ISI	1.0		7.0		baseline	0.0	226.99124950457917	0.1166602924822655
264.0	132.02052679256303	car	0.0		46.0	object	car-142.jpg	0.0	227.10790979706144	0.38328522256051656
264.0	132.3039376172892	pulse	0.0	t		object	car-142.jpg	0.0	227.3913206217876	
264.0	132.40381201512355	ISI	1.0		7.0	object	car-142.jpg	0.0	227.49119501962195	0.11669681702187518
265.0	132.52050883214542	car	0.0		46.0	object	car-101.jpg	0.0	227.60789183664383	0.38329608937056037
265.0	132.90380492151598	ISI	1.0		7.0	object	car-101.jpg	0.0	227.9911879260144	0.11668987433949951
266.0	133.02049479585548	car	0.0		45.0	object	car-49.jpg	0.0	228.1078778003539	0.383311785866681
266.0	133.0109054433924	pulse	0.0	t		object	car-49.jpg	0.0	228.0982884478908	
266.0	133.40380658172216	ISI	1.0		7.0	object	car-49.jpg	0.0	228.49118958622057	0.11670255228091264
267.0	133.52050913400308	car	0.0		46.0	object	car-96.jpg	0.0	228.60789213850148	0.38328642998385476
267.0	133.70390670726192	pulse	0.0	t		object	car-96.jpg	0.0	228.79128971176033	
267.0	133.90379556398693	ISI	1.0		7.0	object	car-96.jpg	0.0	228.99117856848534	0.11668866691979929
268.0	134.02048423090673	car	0.0		46.0	object	car-105.jpg	0.0	229.10786723540514	0.3833039376149827
268.0	134.40378816852171	ISI	1.0		7.0	object	car-105.jpg	0.0	229.49117117302012	0.11668806320813019
268.0	134.44053095213167	pulse	1.0	t		object	car-105.jpg	0.0	229.52791395663007	
269.0	134.52047623172984	car	0.0		46.0	object	car-46.jpg	0.0	229.60785923622825	0.3832583574039745
269.0	134.90373458913382	ISI	1.0		7.0	object	car-46.jpg	0.0	229.99111759363223	0.11669560959853698
270.0	135.02043019873236	car	0.0		46.0	object	car-20.jpg	0.0	230.10781320323076	0.3832951838012377
270.0	135.10384651723143	pulse	0.0	t		object	car-20.jpg	0.0	230.19122952172984	
270.0	135.4037253825336	ISI	1.0		7.0	object	car-20.jpg	0.0	230.491108387032	0.11669591145255254
271.0	135.52042129398615	car	0.0		46.0	object	car-98.jpg	0.0	230.60780429848455	0.3832951838048757
271.0	135.80384298552235	pulse	0.0	t		object	car-98.jpg	0.0	230.89122599002076	
271.0	135.90371647779102	ISI	1.0		7.0	object	car-98.jpg	0.0	230.99109948228943	0.11668081866810098
272.0	136.02039729645912	car	0.0		46.0	object	car-141.jpg	0.0	231.10778030095753	0.383320539680426
272.0	136.40371783613955	ISI	1.0		7.0	object	car-141.jpg	0.0	231.49110084063796	0.11667870567907812
273.0	136.52039654181863	car	0.0		45.0	object	car-47.jpg	0.0	231.60777954631703	0.3833033339069516
273.0	136.51081956544294	pulse	0.0	t		object	car-47.jpg	0.0	231.59820256994135	
273.0	136.90369987572558	ISI	1.0		7.0	object	car-47.jpg	0.0	231.99108288022398	0.11668142237977008
274.0	137.02038129810535	car	0.0		46.0	object	car-56.jpg	0.0	232.10776430260375	0.38330423947263625
274.0	137.2038187163198	pulse	0.0	t		object	car-56.jpg	0.0	232.2912017208182	
274.0	137.40368553757799	ISI	1.0		7.0	object	car-56.jpg	0.0	232.4910685420764	0.11668413908046205
275.0	137.52036967665845	car	0.0		46.0	object	car-2.jpg	0.0	232.60775268115685	0.3833271805087861
275.0	137.90369685716723	ISI	1.0		5.0	object	car-2.jpg	0.0	232.99107986166564	0.11668112052575452
275.0	137.9582814267269	pulse	1.0	t		object	car-2.jpg	0.0	233.0456644312253	
276.0	138.020377977693	house	0.0		46.0	place	house-30.jpg	0.0	233.1077609821914	0.3833063524616591
276.0	138.40368433015465	ISI	1.0		6.0	place	house-30.jpg	0.0	233.49106733465305	0.11668625207312289
277.0	138.52037058222777	house	0.0		46.0	place	house-72.jpg	0.0	233.60775358672618	0.38328220400580904
277.0	138.60379263598588	pulse	0.0	t		place	house-72.jpg	0.0	233.6911756404843	
277.0	138.90365278623358	ISI	1.0		6.0	place	house-72.jpg	0.0	233.99103579073198	0.11670798568229657
278.0	139.02036077191588	house	0.0		46.0	place	house-117.jpg	0.0	234.10774377641428	0.3832873355531774
278.0	139.30376374839398	pulse	0.0	t		place	house-117.jpg	0.0	234.39114675289238	
278.0	139.40364810746905	ISI	1.0		6.0	place	house-117.jpg	0.0	234.49103111196746	0.11666995186169515
279.0	139.52031805933075	house	0.0		46.0	place	house-42.jpg	0.0	234.60770106382915	0.38333744360352284
279.0	139.90365550293427	ISI	1.0		6.0	place	house-42.jpg	0.0	234.99103850743268	0.11668021495643188
280.0	140.0203357178907	house	0.0		45.0	place	house-114.jpg	0.0	235.1077187223891	0.38329488194722217
280.0	140.01073730975622	pulse	0.0	t		place	house-114.jpg	0.0	235.09812031425463	
280.0	140.40363059983792	ISI	1.0		7.0	place	house-114.jpg	0.0	235.49101360433633	0.1167028541349282
281.0	140.52033345397285	house	0.0		46.0	place	house-75.jpg	0.0	235.60771645847126	0.3833365380342002
281.0	140.70378475755206	pulse	0.0	t		place	house-75.jpg	0.0	235.79116776205046	
281.0	140.90366999200705	ISI	1.0		6.0	place	house-75.jpg	0.0	235.99105299650546	0.11668655393077643
282.0	141.02035654593783	house	0.0		46.0	place	house-95.jpg	0.0	236.10773955043624	0.38330423947263625
282.0	141.40366078541047	ISI	1.0		5.0	place	house-95.jpg	0.0	236.49104378990887	0.11668927062783041
282.0	141.4543788850715	pulse	1.0	t		place	house-95.jpg	0.0	236.5417618895699	
283.0	141.5203500560383	house	0.0		46.0	place	house-59.jpg	0.0	236.6077330605367	0.38330182462595985
283.0	141.90365188066426	ISI	1.0		6.0	place	house-59.jpg	0.0	236.99103488516266	0.11668685578479199
284.0	142.02033873644905	house	0.0		46.0	place	house-108.jpg	0.0	237.10772174094745	0.3833039376186207
284.0	142.10376320505384	pulse	0.0	t		place	house-108.jpg	0.0	237.19114620955224	
284.0	142.40364267406767	ISI	1.0		7.0	place	house-108.jpg	0.0	237.49102567856607	0.11667297042004066
285.0	142.5203156444877	house	0.0		46.0	place	house-63.jpg	0.0	237.60769864898612	0.3833175211220805
285.0	142.80374790096903	pulse	0.0	t		place	house-63.jpg	0.0	237.89113090546743	
285.0	142.9036331656098	ISI	1.0		7.0	place	house-63.jpg	0.0	237.9910161701082	0.11667598897838616
286.0	143.02030915458818	house	0.0		46.0	place	house-123.jpg	0.0	238.10769215908658	0.38331601184472675
286.0	143.4036251664329	ISI	1.0		6.0	place	house-123.jpg	0.0	238.4910081709313	0.11666693330698763
287.0	143.5202920997399	house	0.0		45.0	place	house-61.jpg	0.0	238.6076751042383	0.38332446380809415
287.0	143.51090227390887	pulse	0.0	t		place	house-61.jpg	0.0	238.59828527840727	
287.0	143.90361656354798	ISI	1.0		6.0	place	house-61.jpg	0.0	238.9909995680464	0.11669017619351507
288.0	144.0203067397415	word	0.0		46.0	character	word-36.jpg	0.0	239.1076897442399	0.38327345019206405
288.0	144.20367563671243	pulse	0.0	t		character	word-36.jpg	0.0	239.29105864121084	
288.0	144.40358018993356	ISI	1.0		6.0	character	word-36.jpg	0.0	239.49096319443197	0.11667840382142458
289.0	144.520258593755	word	0.0		46.0	character	word-44.jpg	0.0	239.6076415982534	0.3833081635966664
289.0	144.90356675735165	ISI	1.0		6.0	character	word-44.jpg	0.0	239.99094976185006	0.11668534650743823
289.0	144.94711759483835	pulse	1.0	t		character	word-44.jpg	0.0	240.03450059933675	
290.0	145.0202521038591	word	0.0		46.0	character	word-28.jpg	0.0	240.1076351083575	0.3833045413266518
290.0	145.40355664518574	ISI	1.0		5.0	character	word-28.jpg	0.0	240.49093964968415	0.11668353537243092
291.0	145.52024018055818	word	0.0		46.0	character	word-69.jpg	0.0	240.60762318505658	0.383290957819554
291.0	145.60365800833824	pulse	0.0	t		character	word-69.jpg	0.0	240.69104101283665	
291.0	145.90353113837773	ISI	1.0		6.0	character	word-69.jpg	0.0	240.99091414287614	0.11670436341591994
292.0	146.02023550179365	word	0.0		46.0	character	word-139.jpg	0.0	241.10761850629206	0.3833045413266518
292.0	146.30364360981912	pulse	0.0	t		character	word-139.jpg	0.0	241.39102661431752	
292.0	146.4035400431203	ISI	1.0		7.0	character	word-139.jpg	0.0	241.4909230476187	0.11666180175961927
293.0	146.52020184487992	word	0.0		46.0	character	word-139.jpg	1.0	241.60758484937833	0.3833129932900192
293.0	146.90351483816994	ISI	1.0		7.0	character	word-139.jpg	1.0	241.99089784266835	0.11669410032118321
294.0	147.02020893849112	word	0.0		45.0	character	word-76.jpg	0.0	242.10759194298953	0.3833138988557039
294.0	147.01091781947616	pulse	0.0	t		character	word-76.jpg	0.0	242.09830082397457	
294.0	147.12030218172004	response	0.0	b		character	word-76.jpg	0.0	242.20768518621844	
294.0	147.40352283734683	ISI	1.0		7.0	character	word-76.jpg	0.0	242.49090584184523	0.11666904629601049
295.0	147.52019188364284	word	0.0		46.0	character	word-37.jpg	0.0	242.60757488814124	0.3832873355531774
295.0	147.70361783133922	pulse	0.0	t		character	word-37.jpg	0.0	242.79100083583762	
295.0	147.90347921919602	ISI	1.0		5.0	character	word-37.jpg	0.0	242.99086222369442	0.11670858939396567
296.0	148.02018780858998	word	0.0		46.0	character	word-8.jpg	0.0	243.1075708130884	0.38331661555639585
296.0	148.40350442414638	ISI	1.0		6.0	character	word-8.jpg	0.0	243.49088742864478	0.11668534650380025
296.0	148.44655478484856	pulse	1.0	t		character	word-8.jpg	0.0	243.53393778934696	
297.0	148.52018977065018	word	0.0		46.0	character	word-92.jpg	0.0	243.60757277514858	0.38328884483416914
297.0	148.90347861548435	ISI	1.0		7.0	character	word-92.jpg	0.0	243.99086161998275	0.11666149990196573
298.0	149.0201401153863	word	0.0		46.0	character	word-99.jpg	0.0	244.10752311988472	0.38334529185158317
298.0	149.10360473080073	pulse	0.0	t		character	word-99.jpg	0.0	244.19098773529913	
298.0	149.4034854072379	ISI	1.0		6.0	character	word-99.jpg	0.0	244.4908684117363	0.11668595021546935
299.0	149.52017135745336	word	0.0		46.0	character	word-133.jpg	0.0	244.60755436195177	0.3832921652428922
299.0	149.80358882300425	pulse	0.0	t		character	word-133.jpg	0.0	244.89097182750265	
299.0	149.90346352269626	ISI	1.0		6.0	character	word-133.jpg	0.0	244.99084652719466	0.11670164671522798
300.0	150.02016516941148	body	0.0		46.0	body	body-113.jpg	0.0	245.1075481739099	0.38333442504517734
300.0	150.40349959445666	ISI	1.0		7.0	body	body-113.jpg	0.0	245.49088259895507	0.11668413908046205
301.0	150.52018373353712	body	0.0		45.0	body	body-82.jpg	0.0	245.60756673803553	0.383290957823192
301.0	150.5106420742777	pulse	0.0	t		body	body-82.jpg	0.0	245.59802507877612	
301.0	150.90347469136032	ISI	1.0		7.0	body	body-82.jpg	0.0	245.99085769585872	0.11668262980310828
302.0	151.02015732116342	body	0.0		46.0	body	body-26.jpg	0.0	246.10754032566183	0.38332386009278707
302.0	151.203564855663	pulse	0.0	t		body	body-26.jpg	0.0	246.2909478601614	
302.0	151.4034811812562	ISI	1.0		7.0	body	body-26.jpg	0.0	246.49086418575462	0.11668987433949951
303.0	151.5201710555957	body	0.0		46.0	body	body-129.jpg	0.0	246.60755406009412	0.38329005225750734
303.0	151.90346110785322	ISI	1.0		7.0	body	body-129.jpg	0.0	246.99084411235162	0.11668896877017687
303.0	151.9390118632291	pulse	1.0	t		body	body-129.jpg	0.0	247.0263948677275	
304.0	152.0201500766234	body	0.0		46.0	body	body-53.jpg	0.0	247.1075330811218	0.38329759864791413
304.0	152.4034476752713	ISI	1.0		7.0	body	body-53.jpg	0.0	247.49083067976972	0.11666572588364943
305.0	152.52011340115496	body	0.0		46.0	body	body-53.jpg	1.0	247.60749640565336	0.3833277842204552
305.0	152.60356503677394	pulse	0.0	t		body	body-53.jpg	1.0	247.69094804127235	
305.0	152.9034411853754	ISI	1.0		7.0	body	body-53.jpg	1.0	247.99082418987382	0.11668474279213115
306.0	153.02012592816754	body	0.0		46.0	body	body-86.jpg	0.0	248.10750893266595	0.3833027301952825
306.0	153.06194773609604	response	0.0	b		body	body-86.jpg	0.0	248.14933074059445	
306.0	153.30354037516372	pulse	0.0	t		body	body-86.jpg	0.0	248.39092337966213	
306.0	153.40342865836283	ISI	1.0		7.0	body	body-86.jpg	0.0	248.49081166286123	0.11669047805116861
307.0	153.520119136414	body	0.0		46.0	body	body-29.jpg	0.0	248.6075021409124	0.38327043163371854
307.0	153.90338956804771	ISI	1.0		7.0	body	body-29.jpg	0.0	248.99077257254612	0.11668293165712385
308.0	154.02007249970484	body	0.0		45.0	body	body-46.jpg	0.0	249.10745550420324	0.38330725803098176
308.0	154.01031290061655	pulse	0.0	t		body	body-46.jpg	0.0	249.09769590511496	
308.0	154.40337975773582	ISI	1.0		7.0	body	body-46.jpg	0.0	249.49076276223423	0.11668534650380025
309.0	154.52006510423962	body	0.0		46.0	body	body-78.jpg	0.0	249.60744810873803	0.38330605060764356
309.0	154.70349286307464	pulse	0.0	t		body	body-78.jpg	0.0	249.79087586757305	
309.0	154.90337115484726	ISI	1.0		7.0	body	body-78.jpg	0.0	249.99075415934567	0.11668504464978469
310.0	155.02005619949705	body	0.0		46.0	body	body-42.jpg	0.0	250.10743920399545	0.38332084153807955
310.0	155.40337704103513	ISI	1.0		7.0	body	body-42.jpg	0.0	250.49076004553353	0.11667266856238712
310.0	155.43985690831323	pulse	1.0	t		body	body-42.jpg	0.0	250.52723991281164	
311.0	155.52004970959752	body	0.0		46.0	body	body-79.jpg	0.0	250.60743271409592	0.38332084153807955
311.0	155.9033705511356	ISI	1.0		7.0	body	body-79.jpg	0.0	250.990753555634	0.11666270732530393
312.0	156.0200332584609	adult	0.0		46.0	face	adult-79.jpg	0.0	251.1074162629593	0.3833160118483647
312.0	156.10347885696683	pulse	0.0	t		face	adult-79.jpg	0.0	251.19086186146524	
312.0	156.40334927030926	ISI	1.0		7.0	face	adult-79.jpg	0.0	251.49073227480767	0.11669711887589074
313.0	156.52004638918515	adult	0.0		46.0	face	adult-102.jpg	0.0	251.60742939368356	0.3833051450419589
313.0	156.8034662695827	pulse	0.0	t		face	adult-102.jpg	0.0	251.89084927408112	
313.0	156.9033515342271	ISI	1.0		7.0	face	adult-102.jpg	0.0	251.99073453872552	0.11668776135047665
314.0	157.0200392955776	adult	0.0		46.0	face	adult-54.jpg	0.0	252.107422300076	0.3832985042135988
314.0	157.4033377997912	ISI	1.0		7.0	face	adult-54.jpg	0.0	252.4907208042896	0.11668323351477738
315.0	157.52002103330597	adult	0.0		45.0	face	adult-20.jpg	0.0	252.60740403780437	0.3833075598849973
315.0	157.51031124041037	pulse	0.0	t		face	adult-20.jpg	0.0	252.59769424490878	
315.0	157.90332859319096	ISI	1.0		7.0	face	adult-20.jpg	0.0	252.99071159768937	0.116672064854356
316.0	158.02000065804532	adult	0.0		46.0	face	adult-13.jpg	0.0	253.10738366254373	0.3833120877206966
316.0	158.20344049110645	pulse	0.0	t		face	adult-13.jpg	0.0	253.29082349560485	
316.0	158.40331274576602	ISI	1.0		7.0	face	adult-13.jpg	0.0	253.49069575026442	0.11668202609143918
317.0	158.51999477185745	adult	0.0		46.0	face	adult-82.jpg	0.0	253.60737777635586	0.38330605060764356
317.0	158.9033008224651	ISI	1.0		7.0	face	adult-82.jpg	0.0	253.9906838269635	0.11668957248548395
317.0	158.93904023766663	pulse	1.0	t		face	adult-82.jpg	0.0	254.02642324216504	
318.0	159.01999039495058	adult	0.0		46.0	face	adult-94.jpg	0.0	254.107373399449	0.3833039376149827
318.0	159.40329433256557	ISI	1.0		7.0	face	adult-94.jpg	0.0	254.49067733706397	0.11669228918617591
319.0	159.51998662175174	adult	0.0		46.0	face	adult-96.jpg	0.0	254.60736962625015	0.38334287700490677
319.0	159.60344640747644	pulse	0.0	t		face	adult-96.jpg	0.0	254.69082941197485	
319.0	159.90332949875665	ISI	1.0		5.0	face	adult-96.jpg	0.0	254.99071250325505	0.11669108176647569
320.0	160.02002058052312	adult	0.0		46.0	face	adult-73.jpg	0.0	255.10740358502153	0.3832782798781409
320.0	160.3034223495779	pulse	0.0	t		face	adult-73.jpg	0.0	255.3908053540763	
320.0	160.40329886040126	ISI	1.0		7.0	face	adult-73.jpg	0.0	255.49068186489967	0.11671100424064207
321.0	160.5200098646419	adult	0.0		46.0	face	adult-80.jpg	0.0	255.6073928691403	0.3832683186446957
321.0	160.9032781832866	ISI	1.0		7.0	face	adult-80.jpg	0.0	255.990661187785	0.11667870567907812
322.0	161.01995688896568	adult	0.0		45.0	face	adult-30.jpg	0.0	256.1073398934641	0.38331420070971944
322.0	161.01027547050762	pulse	0.0	t		face	adult-30.jpg	0.0	256.097658475006	
322.0	161.4032710896754	ISI	1.0		7.0	face	adult-30.jpg	0.0	256.4906540941738	0.11668323351477738
323.0	161.51995432319018	adult	0.0		46.0	face	adult-114.jpg	0.0	256.6073373276886	0.383270129779703
323.0	161.7033775541895	pulse	0.0	t		face	adult-114.jpg	0.0	256.7907605586879	
323.0	161.90322445296988	ISI	1.0		7.0	face	adult-114.jpg	0.0	256.9906074574683	0.11675115105026634
324.0	162.01997560402015	body	0.0		46.0	body	body-125.jpg	0.0	257.10735860851855	0.38327737431245623
324.0	162.4032529783326	ISI	1.0		5.0	body	body-125.jpg	0.0	257.490635982831	0.11668413908410002
324.0	162.4583712288004	pulse	1.0	t		body	body-125.jpg	0.0	257.5457542332988	
325.0	162.5199371174167	body	0.0		46.0	body	body-130.jpg	0.0	257.6073201219151	0.3833081635966664
325.0	162.90324528101337	ISI	1.0		6.0	body	body-130.jpg	0.0	257.9906282855118	0.11668534650380025
326.0	163.01993062751717	body	0.0		46.0	body	body-25.jpg	0.0	258.1073136320156	0.38330423947263625
326.0	163.1033517757096	pulse	0.0	t		body	body-25.jpg	0.0	258.190734780208	
326.0	163.4032348669898	ISI	1.0		7.0	body	body-25.jpg	0.0	258.4906178714882	0.11668262980310828
327.0	163.5199174967929	body	0.0		46.0	body	body-11.jpg	0.0	258.6073005012913	0.3832945800895686
327.0	163.8033400938948	pulse	0.0	t		body	body-11.jpg	0.0	258.8907230983932	
327.0	163.90321207688248	ISI	1.0		7.0	body	body-11.jpg	0.0	258.9905950813809	0.11668293166076182
328.0	164.01989500854324	body	0.0		46.0	body	body-92.jpg	0.0	259.10727801304165	0.3833187285454187
328.0	164.40321373708866	ISI	1.0		7.0	body	body-92.jpg	0.0	259.49059674158707	0.11668172423742362
329.0	164.5198954613261	body	0.0		45.0	body	body-13.jpg	0.0	259.6072784658245	0.3832843169948319
329.0	164.5102333616378	pulse	0.0	t		body	body-13.jpg	0.0	259.5976163661362	
329.0	164.90317977832092	ISI	1.0		7.0	body	body-13.jpg	0.0	259.9905627828193	0.11669742073354428
330.0	165.01987719905446	body	0.0		46.0	body	body-40.jpg	0.0	260.10726020355287	0.3832991079252679
330.0	165.2033115987142	pulse	0.0	t		body	body-40.jpg	0.0	260.2906946032126	
330.0	165.40317630697973	ISI	1.0		7.0	body	body-40.jpg	0.0	260.49055931147814	0.11672096548136324
331.0	165.5198972724611	body	0.0		46.0	body	body-32.jpg	0.0	260.6072802769595	0.38330001349095255
331.0	165.90319728595205	ISI	1.0		7.0	body	body-32.jpg	0.0	260.99058029045045	0.1166774982593779
331.0	165.93906016014444	pulse	1.0	t		body	body-32.jpg	0.0	261.02644316464284	
332.0	166.01987478421142	body	0.0		46.0	body	body-32.jpg	1.0	261.10725778870983	0.3833060506040056
332.0	166.40318083481543	ISI	1.0		6.0	body	body-32.jpg	1.0	261.49056383931384	0.1083453748615284
332.0	166.48662401847832	response	1.0	b		body	body-32.jpg	1.0	261.57400702297673	
333.0	166.51152620967696	body	0.0		47.0	body	body-122.jpg	0.0	261.59890921417536	0.39167439669108717
333.0	166.60332657075924	pulse	0.0	t		body	body-122.jpg	0.0	261.69070957525764	
333.0	166.90320060636805	ISI	1.0		7.0	body	body-122.jpg	0.0	261.99058361086645	0.11669168547450681
334.0	167.01989229184255	body	0.0		46.0	body	body-120.jpg	0.0	262.10727529634096	0.3833009190602752
334.0	167.30331398337512	pulse	0.0	t		body	body-120.jpg	0.0	262.3906969878735	
334.0	167.40319321090283	ISI	1.0		7.0	body	body-120.jpg	0.0	262.49057621540123	0.11670074114590534
335.0	167.51989395204873	body	0.0		46.0	body	body-27.jpg	0.0	262.60727695654714	0.38329186338887666
335.0	167.9031858154376	ISI	1.0		7.0	body	body-27.jpg	0.0	262.990568819936	0.11668745949282311
336.0	168.01987327493043	word	0.0		45.0	character	word-140.jpg	0.0	263.10725627942884	0.38330182462959783
336.0	168.00998961314326	pulse	0.0	t		character	word-140.jpg	0.0	263.09737261764167	
336.0	168.40317509956003	ISI	1.0		7.0	character	word-140.jpg	0.0	263.49055810405844	0.1166980244415754
337.0	168.5198731240016	word	0.0		46.0	character	word-140.jpg	1.0	263.6072561285	0.38329488194722217
337.0	168.70327582881146	pulse	0.0	t		character	word-140.jpg	1.0	263.79065883330986	
337.0	168.90316800594883	ISI	1.0		4.0	character	word-140.jpg	1.0	263.99055101044723	0.11669742073354428
338.0	169.01986542668237	word	0.0		46.0	character	word-51.jpg	0.0	264.1072484311808	0.38329307081221486
338.0	169.10327450064506	response	0.0	b		character	word-51.jpg	0.0	264.19065750514346	
338.0	169.4031584974946	ISI	1.0		4.0	character	word-51.jpg	0.0	264.490541501993	0.11668927062783041
338.0	169.46653793526275	pulse	1.0	t		character	word-51.jpg	0.0	264.55392093976116	
339.0	169.51984776812242	word	0.0		46.0	character	word-128.jpg	0.0	264.6072307726208	0.38329699493624503
339.0	169.90314476305866	ISI	1.0		7.0	character	word-128.jpg	0.0	264.99052776755707	0.11669319475186057
340.0	170.01983795781052	word	0.0		46.0	character	word-138.jpg	0.0	265.10722096230893	0.38330423947627423
340.0	170.10332792910776	pulse	0.0	t		character	word-138.jpg	0.0	265.19071093360617	
340.0	170.4031421972868	ISI	1.0		7.0	character	word-138.jpg	0.0	265.4905252017852	0.11668685578115401
341.0	170.51982905306795	word	0.0		46.0	character	word-63.jpg	0.0	265.60721205756636	0.3833015227719443
341.0	170.8032377648051	pulse	0.0	t		character	word-63.jpg	0.0	265.8906207693035	
341.0	170.9031305758399	ISI	1.0		6.0	character	word-63.jpg	0.0	265.9905135803383	0.116672064854356
342.0	171.01980264069425	word	0.0		46.0	character	word-6.jpg	0.0	266.10718564519266	0.3832837132831628
342.0	171.40308635397741	ISI	1.0		6.0	character	word-6.jpg	0.0	266.4904693584758	0.11672670073676272
343.0	171.51981305471418	word	0.0		45.0	character	word-117.jpg	0.0	266.6071960592126	0.3832957875129068
343.0	171.50992154467895	pulse	0.0	t		character	word-117.jpg	0.0	266.59730454917735	
343.0	171.90310884222708	ISI	1.0		6.0	character	word-117.jpg	0.0	266.9904918467255	0.11669379846716765
344.0	172.01980264069425	word	0.0		46.0	character	word-2.jpg	0.0	267.10718564519266	0.38330182462595985
344.0	172.2032128918945	pulse	0.0	t		character	word-2.jpg	0.0	267.2905958963929	
344.0	172.4031044653202	ISI	1.0		7.0	character	word-2.jpg	0.0	267.4904874698186	0.11669047805116861
345.0	172.51979494337138	word	0.0		46.0	character	word-52.jpg	0.0	267.6071779478698	0.38326982792204944
345.0	172.90306477129343	ISI	1.0		6.0	character	word-52.jpg	0.0	267.99044777579184	0.11668383722644649
345.0	172.94719124763287	pulse	1.0	t		character	word-52.jpg	0.0	268.0345742521313	
346.0	173.01974860851988	word	0.0		46.0	character	word-34.jpg	0.0	268.1071316130183	0.3833075598849973
346.0	173.40305616840487	ISI	1.0		6.0	character	word-34.jpg	0.0	268.4904391729033	0.11667115928503335
347.0	173.5197273276899	word	0.0		46.0	character	word-93.jpg	0.0	268.6071103321883	0.383320539684064
347.0	173.60317262434182	pulse	0.0	t		character	word-93.jpg	0.0	268.69055562884023	
347.0	173.90304786737397	ISI	1.0		7.0	character	word-93.jpg	0.0	268.9904308718724	0.11668232794545474
348.0	174.01973019531943	word	0.0		46.0	character	word-18.jpg	0.0	269.10711319981783	0.3833075598886353
348.0	174.30315279242132	pulse	0.0	t		character	word-18.jpg	0.0	269.3905357969197	
348.0	174.40303775520806	ISI	1.0		4.0	character	word-18.jpg	0.0	269.49042075970647	0.1166844409344776
349.0	174.51972219614254	word	0.0		46.0	character	word-15.jpg	0.0	269.60710520064094	0.3833015227719443
349.0	174.90302371891448	ISI	1.0		6.0	character	word-15.jpg	0.0	269.9904067234129	0.11669319475549855
350.0	175.01971691366998	word	0.0		45.0	character	word-4.jpg	0.0	270.1070999181684	0.3833021264836134
350.0	175.01022777730395	pulse	0.0	t		character	word-4.jpg	0.0	270.09761078180236	
350.0	175.4030190401536	ISI	1.0		7.0	character	word-4.jpg	0.0	270.490402044652	0.11667840382142458
351.0	175.51969744397502	word	0.0		46.0	character	word-4.jpg	1.0	270.6070804484734	0.3833132951440348
351.0	175.70311403414598	pulse	0.0	t		character	word-4.jpg	1.0	270.7904970386444	
351.0	175.90301073911905	ISI	1.0		6.0	character	word-4.jpg	1.0	270.99039374361746	0.11668655392713845
352.0	176.0196972930462	word	0.0		46.0	character	word-83.jpg	0.0	271.1070802975446	0.38330786174265086
352.0	176.40300515478884	ISI	1.0		6.0	character	word-83.jpg	0.0	271.49038815928725	0.11667900753309368
352.0	176.44414597621653	pulse	1.0	t		character	word-83.jpg	0.0	271.53152898071494	
353.0	176.51968416232194	word	0.0		46.0	character	word-115.jpg	0.0	271.60706716682034	0.38330725803098176
353.0	176.90299142035292	ISI	1.0		7.0	character	word-115.jpg	0.0	271.9903744248513	0.11669802444521338
354.0	177.01968944479813	word	0.0		46.0	character	word-119.jpg	0.0	272.10707244929654	0.38329125967720756
354.0	177.10310334845417	pulse	0.0	t		character	word-119.jpg	0.0	272.1904863529526	
354.0	177.40298070447534	ISI	1.0		6.0	character	word-119.jpg	0.0	272.49036370897375	0.11665153866488254
355.0	177.51963224314022	word	0.0		46.0	character	word-112.jpg	0.0	272.6070152476386	0.38332023782641045
355.0	177.80307174416157	pulse	0.0	t		character	word-112.jpg	0.0	272.89045474866	
355.0	177.90295248096663	ISI	1.0		7.0	character	word-112.jpg	0.0	272.99033548546504	0.1167064764049428
356.0	178.01965895737158	word	0.0		46.0	character	word-56.jpg	0.0	273.10704196187	0.3833069561733282
356.0	178.4029659135449	ISI	1.0		6.0	character	word-56.jpg	0.0	273.4903489180433	0.11667749825573992
357.0	178.51964341180064	word	0.0		45.0	character	word-38.jpg	0.0	273.60702641629905	0.3833274823628017
357.0	178.5102560008163	pulse	0.0	t		character	word-38.jpg	0.0	273.5976390053147	
357.0	178.90297089416345	ISI	1.0		7.0	character	word-38.jpg	0.0	273.99035389866185	0.11668896877381485
358.0	179.01965986293726	word	0.0		46.0	character	word-9.jpg	0.0	274.10704286743567	0.38331963411474135
358.0	179.20309758300937	pulse	0.0	t		character	word-9.jpg	0.0	274.2904805875078	
358.0	179.402979497052	ISI	1.0		4.0	character	word-9.jpg	0.0	274.4903625015504	0.11669077990882215
359.0	179.51967027696082	word	0.0		46.0	character	word-31.jpg	0.0	274.60705328145923	0.38326862049871124
359.0	179.90293889745953	ISI	1.0		7.0	character	word-31.jpg	0.0	274.99032190195794	0.11668353536879295
359.0	179.9396774550878	pulse	1.0	t		character	word-31.jpg	0.0	275.0270604595862	
360.0	180.01962243282833	car	0.0		46.0	object	car-38.jpg	0.0	275.10700543732673	0.38330605060764356
360.0	180.40292848343597	ISI	1.0		7.0	object	car-38.jpg	0.0	275.4903114879344	0.11668564836145379
361.0	180.51961413179743	car	0.0		46.0	object	car-13.jpg	0.0	275.60699713629583	0.3833045413266518
361.0	180.60303920411388	pulse	0.0	t		object	car-13.jpg	0.0	275.6904222086123	
361.0	180.90291867312408	ISI	1.0		7.0	object	car-13.jpg	0.0	275.9903016776225	0.11668655393077643
362.0	181.01960522705485	car	0.0		46.0	object	car-129.jpg	0.0	276.10698823155326	0.38329699493260705
362.0	181.30303114456547	pulse	0.0	t		object	car-129.jpg	0.0	276.3904141490639	
362.0	181.40290222198746	ISI	1.0		7.0	object	car-129.jpg	0.0	276.49028522648587	0.11667810196740902
363.0	181.51958032395487	car	0.0		46.0	object	car-138.jpg	0.0	276.6069633284533	0.38329790050556767
363.0	181.90287822446044	ISI	1.0		7.0	object	car-138.jpg	0.0	276.99026122895884	0.11670375970425084
364.0	182.0195819841647	car	0.0		45.0	object	car-90.jpg	0.0	277.1069649886631	0.38331238957471214
364.0	182.0111562854945	pulse	0.0	t		object	car-90.jpg	0.0	277.0985392899929	
364.0	182.4028943737394	ISI	1.0		7.0	object	car-90.jpg	0.0	277.4902773782378	0.11666965000767959
365.0	182.51956402374708	car	0.0		46.0	object	car-90.jpg	1.0	277.6069470282455	0.3833003153486061
365.0	182.7029881603121	pulse	0.0	t		object	car-90.jpg	1.0	277.7903711648105	
365.0	182.9028643390957	ISI	1.0		5.0	object	car-90.jpg	1.0	277.9902473435941	0.11670858939396567
366.0	183.01957292848965	car	0.0		46.0	object	car-140.jpg	0.0	278.10695593298806	0.38329065596553846
366.0	183.02801190880928	response	0.0	b		object	car-140.jpg	0.0	278.1153949133077	
366.0	183.4028635844552	ISI	1.0		6.0	object	car-140.jpg	0.0	278.4902465889536	0.11668112052575452
366.0	183.4435081550837	pulse	1.0	t		object	car-140.jpg	0.0	278.5308911595821	
367.0	183.51954470498094	car	0.0		46.0	object	car-11.jpg	0.0	278.60692770947935	0.3833099747316737
367.0	183.90285467971262	ISI	1.0		7.0	object	car-11.jpg	0.0	278.990237684211	0.11669560959853698
368.0	184.01955028931116	car	0.0		46.0	object	car-139.jpg	0.0	279.10693329380956	0.38330665431931266
368.0	184.1029786820436	pulse	0.0	t		object	car-139.jpg	0.0	279.190361686542	
368.0	184.40285694363047	ISI	1.0		7.0	object	car-139.jpg	0.0	279.4902399481289	0.1167046652699355
369.0	184.5195616089004	car	0.0		46.0	object	car-132.jpg	0.0	279.6069446133988	0.3832831095751317
369.0	184.80294888888238	pulse	0.0	t		object	car-132.jpg	0.0	279.8903318933808	
369.0	184.90284471847554	ISI	1.0		5.0	object	car-132.jpg	0.0	279.99022772297394	0.11668685578115401
370.0	185.0195315742567	car	0.0		46.0	object	car-92.jpg	0.0	280.1069145787551	0.38329307081221486
370.0	185.4028246450689	ISI	1.0		7.0	object	car-92.jpg	0.0	280.4902076495673	0.11669379846352967
371.0	185.51951844353243	car	0.0		45.0	object	car-14.jpg	0.0	280.60690144803084	0.3833455937092367
371.0	185.50991430014255	pulse	0.0	t		object	car-14.jpg	0.0	280.59729730464096	
371.0	185.90286403724167	ISI	1.0		7.0	object	car-14.jpg	0.0	280.9902470417401	0.11668776135047665
372.0	186.01955179859215	body	0.0		46.0	body	body-33.jpg	0.0	281.10693480309055	0.3833027301916445
372.0	186.20296778505144	pulse	0.0	t		body	body-33.jpg	0.0	281.29035078954985	
372.0	186.4028545287838	ISI	1.0		7.0	body	body-33.jpg	0.0	281.4902375332822	0.11668595021910733
373.0	186.5195404790029	body	0.0		46.0	body	body-102.jpg	0.0	281.6069234835013	0.3832927689545613
373.0	186.90283324795746	ISI	1.0		7.0	body	body-102.jpg	0.0	281.99021625245587	0.11669862815688248
373.0	186.93874985246657	pulse	1.0	t		body	body-102.jpg	0.0	282.026132856965	
374.0	187.01953187611434	body	0.0		46.0	body	body-118.jpg	0.0	282.10691488061275	0.3833039376149827
374.0	187.40283581372933	ISI	1.0		7.0	body	body-118.jpg	0.0	282.49021881822773	0.11668927063146839
375.0	187.5195250843608	body	0.0		46.0	body	body-17.jpg	0.0	282.6069080888592	0.383320539680426
375.0	187.60291333028	pulse	0.0	t		body	body-17.jpg	0.0	282.6902963347784	
375.0	187.90284562404122	ISI	1.0		7.0	body	body-17.jpg	0.0	282.9902286285396	0.11663674773444654
376.0	188.01948237177567	body	0.0		46.0	body	body-112.jpg	0.0	283.1068653762741	0.3833027301952825
376.0	188.30289712062586	pulse	0.0	t		body	body-112.jpg	0.0	283.39028012512426	
376.0	188.40278510197095	ISI	1.0		7.0	body	body-112.jpg	0.0	283.49016810646935	0.11668534650380025
377.0	188.51947044847475	body	0.0		46.0	body	body-112.jpg	1.0	283.60685345297316	0.3833009190602752
377.0	188.90277136753502	ISI	1.0		7.0	body	body-112.jpg	1.0	283.99015437203343	0.11667508340906352
378.0	189.0194464509441	body	0.0		45.0	body	body-30.jpg	0.0	284.1068294554425	0.38332204896141775
378.0	189.0099219974618	pulse	0.0	t		body	body-30.jpg	0.0	284.0973050019602	
378.0	189.05285795484815	response	0.0	b		body	body-30.jpg	0.0	284.14024095934656	
378.0	189.4027684999055	ISI	1.0		7.0	body	body-30.jpg	0.0	284.4901515044039	0.11668534650380025
379.0	189.5194538464093	body	0.0		46.0	body	body-49.jpg	0.0	284.6068368509077	0.3832927689581993
379.0	189.70287466256195	pulse	0.0	t		body	body-49.jpg	0.0	284.79025766706036	
379.0	189.9027466153675	ISI	1.0		7.0	body	body-49.jpg	0.0	284.9901296198659	0.11669772258755984
380.0	190.01944433795506	body	0.0		46.0	body	body-70.jpg	0.0	285.10682734245347	0.3832915615348611
380.0	190.40273589948993	ISI	1.0		7.0	body	body-70.jpg	0.0	285.49011890398833	0.11672126733174082
380.0	190.4385236116068	pulse	1.0	t		body	body-70.jpg	0.0	285.5259066161052	
381.0	190.51945716682167	body	0.0		46.0	body	body-19.jpg	0.0	285.6068401713201	0.3832797891627706
381.0	190.90273695598444	ISI	1.0		7.0	body	body-19.jpg	0.0	285.99011996048284	0.11668927062783041
382.0	191.01942622661227	body	0.0		46.0	body	body-52.jpg	0.0	286.1068092311107	0.38330574874999
382.0	191.10284888408205	pulse	0.0	t		body	body-52.jpg	0.0	286.19023188858046	
382.0	191.40273197536226	ISI	1.0		7.0	body	body-52.jpg	0.0	286.49011497986066	0.11668655393077643
383.0	191.51941852929303	body	0.0		46.0	body	body-28.jpg	0.0	286.60680153379144	0.38330061720262165
383.0	191.802849276497	pulse	0.0	t		body	body-28.jpg	0.0	286.8902322809954	
383.0	191.90271914649566	ISI	1.0		7.0	body	body-28.jpg	0.0	286.99010215099406	0.11667447969739442
384.0	192.01939362619305	body	0.0		46.0	body	body-72.jpg	0.0	287.10677663069146	0.3833211433957331
384.0	192.40271476958878	ISI	1.0		7.0	body	body-72.jpg	0.0	287.4900977740872	0.11666753701501875
385.0	192.5193823066038	body	0.0		45.0	body	body-81.jpg	0.0	287.6067653111022	0.38331903040307225
385.0	192.50985211786247	pulse	0.0	t		body	body-81.jpg	0.0	287.59723512236087	
385.0	192.90270133700687	ISI	1.0		7.0	body	body-81.jpg	0.0	287.9900843415053	0.11668595021910733
386.0	193.01938728722598	body	0.0		46.0	body	body-115.jpg	0.0	288.1067702917244	0.3832927689545613
386.0	193.2028008588386	pulse	0.0	t		body	body-115.jpg	0.0	288.290183863337	
386.0	193.40268005618054	ISI	1.0		5.0	body	body-115.jpg	0.0	288.49006306067895	0.11669470403285231
387.0	193.5193747602134	body	0.0		46.0	body	body-134.jpg	0.0	288.6067577647118	0.38334498999392963
387.0	193.90271975020732	ISI	1.0		7.0	body	body-134.jpg	0.0	288.99010275470573	0.1167170413536951
387.0	193.9385527406812	pulse	1.0	t		body	body-134.jpg	0.0	289.0259357451796	
388.0	194.01943679156102	body	0.0		46.0	body	body-45.jpg	0.0	289.1068197960594	0.38325926297329715
388.0	194.40269605453432	ISI	1.0		5.0	body	body-45.jpg	0.0	289.4900790590327	0.11670375970425084
389.0	194.51939981423857	body	0.0		46.0	body	body-55.jpg	0.0	289.606782818737	0.38329820235594525
