trial_nr	onset	event_type	phase	response	nr_frames	face_age	face_sex	face_eth	attractiveness	expression	face_id	sub_id	ses	run	trial_type	catch	rating_type	onset_abs	duration
-1.0	0.05421057032253884	fix	0.0		714													31.54548377057563	5.966365726577351
-1.0	0.704144871425342	pulse	0.0	t														32.19541807167843	
-1.0	1.4041220209473977	pulse	0.0	t														32.89539522120049	
-1.0	2.104114866967393	pulse	0.0	t														33.59538806722048	
-1.0	2.804098959170915	pulse	0.0	t														34.295372159424005	
-1.0	3.504084258797775	pulse	0.0	t														34.995357459050865	
-1.0	4.204077406672695	pulse	0.0	t														35.695350606925786	
-1.0	4.904119455174623	pulse	0.0	t														36.39539265542771	
-1.0	5.604047402213837	pulse	0.0	t														37.09532060246693	
0.0	6.02057629689989	face	0.0		144	25.0	female	black	3.858336649423	smiling	126	sub-13	2.0	6.0	126_smiling	0.0		37.51184949715298	1.2333266220748555
0.0	6.304042964935434	pulse	0.0	t		25.0	female	black	3.858336649423	smiling	126	sub-13	2.0	6.0	126_smiling	0.0		37.795316165188524	
0.0	7.004022227447422	pulse	0.0	t		25.0	female	black	3.858336649423	smiling	126	sub-13	2.0	6.0	126_smiling	0.0		38.49529542770051	
0.0	7.253902918974745	fix	1.0		445	25.0	female	black	3.858336649423	smiling	126	sub-13	2.0	6.0	126_smiling	0.0		38.745176119227835	3.75826518688973
0.0	7.704012356764906	pulse	1.0	t		25.0	female	black	3.858336649423	smiling	126	sub-13	2.0	6.0	126_smiling	0.0		39.195285557017996	
0.0	8.4039907137103	pulse	1.0	t		25.0	female	black	3.858336649423	smiling	126	sub-13	2.0	6.0	126_smiling	0.0		39.89526391396339	
0.0	9.103990502410852	pulse	1.0	t		25.0	female	black	3.858336649423	smiling	126	sub-13	2.0	6.0	126_smiling	0.0		40.59526370266394	
0.0	9.803958294406584	pulse	1.0	t		25.0	female	black	3.858336649423	smiling	126	sub-13	2.0	6.0	126_smiling	0.0		41.295231494659674	
0.0	10.503957177539633	pulse	1.0	t		25.0	female	black	3.858336649423	smiling	126	sub-13	2.0	6.0	126_smiling	0.0		41.99523037779272	
1.0	11.012168105864475	face	0.0		146	30.0	female	black	2.7345801830481498	neutral	062	sub-13	2.0	6.0	062_neutral	0.0		42.503441306117566	1.2416626695930972
1.0	11.203957871808598	pulse	0.0	t		30.0	female	black	2.7345801830481498	neutral	062	sub-13	2.0	6.0	062_neutral	0.0		42.69523107206169	
1.0	11.903953434529285	pulse	0.0	t		30.0	female	black	2.7345801830481498	neutral	062	sub-13	2.0	6.0	062_neutral	0.0		43.395226634782375	
1.0	12.253830775457573	fix	1.0		445	30.0	female	black	2.7345801830481498	neutral	062	sub-13	2.0	6.0	062_neutral	0.0		43.74510397571066	3.7582500941034596
1.0	12.603926961782236	pulse	1.0	t		30.0	female	black	2.7345801830481498	neutral	062	sub-13	2.0	6.0	062_neutral	0.0		44.095200162035326	
1.0	13.303898376046163	pulse	1.0	t		30.0	female	black	2.7345801830481498	neutral	062	sub-13	2.0	6.0	062_neutral	0.0		44.79517157629925	
1.0	14.003913861244655	pulse	1.0	t		30.0	female	black	2.7345801830481498	neutral	062	sub-13	2.0	6.0	062_neutral	0.0		45.495187061497745	
1.0	14.703927233452305	pulse	1.0	t		30.0	female	black	2.7345801830481498	neutral	062	sub-13	2.0	6.0	062_neutral	0.0		46.195200433705395	
1.0	15.403871782556962	pulse	1.0	t		30.0	female	black	2.7345801830481498	neutral	062	sub-13	2.0	6.0	062_neutral	0.0		46.89514498281005	
2.0	16.012080869561032	face	0.0		146	28.0	female	white	5.676880222841227	neutral	124	sub-13	2.0	6.0	124_neutral	1.0	attractiveness	47.50335406981412	1.2416587454699766
2.0	16.103863723009454	pulse	0.0	t		28.0	female	white	5.676880222841227	neutral	124	sub-13	2.0	6.0	124_neutral	1.0	attractiveness	47.595136923262544	
2.0	16.80389007501344	pulse	0.0	t		28.0	female	white	5.676880222841227	neutral	124	sub-13	2.0	6.0	124_neutral	1.0	attractiveness	48.29516327526653	
2.0	17.25373961503101	fix	1.0		177	28.0	female	white	5.676880222841227	neutral	124	sub-13	2.0	6.0	124_neutral	1.0	attractiveness	48.7450128152841	1.50832714277567
2.0	17.503838246387204	pulse	1.0	t		28.0	female	white	5.676880222841227	neutral	124	sub-13	2.0	6.0	124_neutral	1.0	attractiveness	48.995111446640294	
2.0	18.203835318386155	pulse	1.0	t		28.0	female	white	5.676880222841227	neutral	124	sub-13	2.0	6.0	124_neutral	1.0	attractiveness	49.695108518639245	
2.0	18.76206675780668	rating	2.0		293	28.0	female	white	5.676880222841227	neutral	124	sub-13	2.0	6.0	124_neutral	1.0	attractiveness	50.25333995805977	2.4915880357675633
2.0	18.903822429147112	pulse	2.0	t		28.0	female	white	5.676880222841227	neutral	124	sub-13	2.0	6.0	124_neutral	1.0	attractiveness	50.3950956294002	
2.0	19.345467832594295	response	2.0	r		28.0	female	white	5.676880222841227	neutral	124	sub-13	2.0	6.0	124_neutral	1.0	attractiveness	50.836741032847385	
2.0	19.603788108152003	pulse	2.0	t		28.0	female	white	5.676880222841227	neutral	124	sub-13	2.0	6.0	124_neutral	1.0	attractiveness	51.09506130840509	
2.0	20.303795745101525	pulse	2.0	t		28.0	female	white	5.676880222841227	neutral	124	sub-13	2.0	6.0	124_neutral	1.0	attractiveness	51.795068945354615	
2.0	21.003776516892685	pulse	2.0	t		28.0	female	white	5.676880222841227	neutral	124	sub-13	2.0	6.0	124_neutral	1.0	attractiveness	52.495049717145776	
2.0	21.253654793574242	fix	3.0		444	28.0	female	white	5.676880222841227	neutral	124	sub-13	2.0	6.0	124_neutral	1.0	attractiveness	52.74492799382733	3.75826518688973
2.0	21.70376936291177	pulse	3.0	t		28.0	female	white	5.676880222841227	neutral	124	sub-13	2.0	6.0	124_neutral	1.0	attractiveness	53.19504256316486	
2.0	22.403743192021466	pulse	3.0	t		28.0	female	white	5.676880222841227	neutral	124	sub-13	2.0	6.0	124_neutral	1.0	attractiveness	53.895016392274556	
2.0	23.10374449000119	pulse	3.0	t		28.0	female	white	5.676880222841227	neutral	124	sub-13	2.0	6.0	124_neutral	1.0	attractiveness	54.59501769025428	
2.0	23.803728884060547	pulse	3.0	t		28.0	female	white	5.676880222841227	neutral	124	sub-13	2.0	6.0	124_neutral	1.0	attractiveness	55.29500208431364	
2.0	24.503709957706633	pulse	3.0	t		28.0	female	white	5.676880222841227	neutral	124	sub-13	2.0	6.0	124_neutral	1.0	attractiveness	55.99498315795972	
3.0	25.011919980463972	face	0.0		146	27.0	female	white	3.504576203740549	smiling	144	sub-13	2.0	6.0	144_smiling	0.0		56.50319318071706	1.2416451619619693
3.0	25.20371789651199	pulse	0.0	t		27.0	female	white	3.504576203740549	smiling	144	sub-13	2.0	6.0	144_smiling	0.0		56.69499109676508	
3.0	25.90369142376585	pulse	0.0	t		27.0	female	white	3.504576203740549	smiling	144	sub-13	2.0	6.0	144_smiling	0.0		57.39496462401894	
3.0	26.25356514242594	fix	1.0		444	27.0	female	white	3.504576203740549	smiling	144	sub-13	2.0	6.0	144_smiling	0.0		57.74483834267903	3.7665855379109416
3.0	26.603671893700266	pulse	1.0	t		27.0	female	white	3.504576203740549	smiling	144	sub-13	2.0	6.0	144_smiling	0.0		58.094945093953356	
3.0	27.303656589615457	pulse	1.0	t		27.0	female	white	3.504576203740549	smiling	144	sub-13	2.0	6.0	144_smiling	0.0		58.79492978986855	
3.0	28.003641285530648	pulse	1.0	t		27.0	female	white	3.504576203740549	smiling	144	sub-13	2.0	6.0	144_smiling	0.0		59.49491448578374	
3.0	28.703619944330967	pulse	1.0	t		27.0	female	white	3.504576203740549	smiling	144	sub-13	2.0	6.0	144_smiling	0.0		60.19489314458406	
3.0	29.403632109117098	pulse	1.0	t		27.0	female	white	3.504576203740549	smiling	144	sub-13	2.0	6.0	144_smiling	0.0		60.89490530937019	
4.0	30.020150680336883	face	0.0		145	25.0	female	west_asian	2.6756864305610826	smiling	064	sub-13	2.0	6.0	064_smiling	0.0		61.51142388058997	1.2333217923833217
4.0	30.10361499389728	pulse	0.0	t		25.0	female	west_asian	2.6756864305610826	smiling	064	sub-13	2.0	6.0	064_smiling	0.0		61.59488819415037	
4.0	30.803603010225743	pulse	0.0	t		25.0	female	west_asian	2.6756864305610826	smiling	064	sub-13	2.0	6.0	064_smiling	0.0		62.29487621047883	
4.0	31.253472472720205	fix	1.0		444	25.0	female	west_asian	2.6756864305610826	smiling	064	sub-13	2.0	6.0	064_smiling	0.0		62.744745672973295	3.7665798026528137
4.0	31.503589215419197	pulse	1.0	t		25.0	female	west_asian	2.6756864305610826	smiling	064	sub-13	2.0	6.0	064_smiling	0.0		62.99486241567229	
4.0	32.20360620989595	pulse	1.0	t		25.0	female	west_asian	2.6756864305610826	smiling	064	sub-13	2.0	6.0	064_smiling	0.0		63.69487941014904	
4.0	32.903566757353474	pulse	1.0	t		25.0	female	west_asian	2.6756864305610826	smiling	064	sub-13	2.0	6.0	064_smiling	0.0		64.39483995760656	
4.0	33.603558697805965	pulse	1.0	t		25.0	female	west_asian	2.6756864305610826	smiling	064	sub-13	2.0	6.0	064_smiling	0.0		65.09483189805906	
4.0	34.30354429928866	pulse	1.0	t		25.0	female	west_asian	2.6756864305610826	smiling	064	sub-13	2.0	6.0	064_smiling	0.0		65.79481749954175	
5.0	35.02005227537302	face	0.0		146	27.0	female	white	4.181058495821727	neutral	039	sub-13	2.0	6.0	039_neutral	0.0		66.51132547562611	1.2333495631091864
5.0	35.006213699963155	pulse	0.0	t		27.0	female	white	4.181058495821727	neutral	039	sub-13	2.0	6.0	039_neutral	0.0		66.49748690021624	
5.0	35.70352395421287	pulse	0.0	t		27.0	female	white	4.181058495821727	neutral	039	sub-13	2.0	6.0	039_neutral	0.0		67.19479715446596	
5.0	36.253401838482205	fix	1.0		443	27.0	female	white	4.181058495821727	neutral	039	sub-13	2.0	6.0	039_neutral	0.0		67.7446750387353	3.7665864434784453
5.0	36.40350925383973	pulse	1.0	t		27.0	female	white	4.181058495821727	neutral	039	sub-13	2.0	6.0	039_neutral	0.0		67.89478245409282	
5.0	37.10348429037185	pulse	1.0	t		27.0	female	white	4.181058495821727	neutral	039	sub-13	2.0	6.0	039_neutral	0.0		68.59475749062494	
5.0	37.80347774010261	pulse	1.0	t		27.0	female	white	4.181058495821727	neutral	039	sub-13	2.0	6.0	039_neutral	0.0		69.2947509403557	
5.0	38.50346303972856	pulse	1.0	t		27.0	female	white	4.181058495821727	neutral	039	sub-13	2.0	6.0	039_neutral	0.0		69.99473623998165	
5.0	39.20345256533528	pulse	1.0	t		27.0	female	white	4.181058495821727	neutral	039	sub-13	2.0	6.0	039_neutral	0.0		70.69472576558837	
5.0	39.903448429911805	pulse	1.0	t		27.0	female	white	4.181058495821727	neutral	039	sub-13	2.0	6.0	039_neutral	0.0		71.3947216301649	
6.0	40.01998828196065	face	0.0		146	24.0	female	east_asian	4.409868682849185	neutral	030	sub-13	2.0	6.0	030_neutral	0.0		71.51126148221374	1.2333251127956828
6.0	40.6034240701556	pulse	0.0	t		24.0	female	east_asian	4.409868682849185	neutral	030	sub-13	2.0	6.0	030_neutral	0.0		72.09469727040869	
6.0	41.25331339475633	fix	1.0		443	24.0	female	east_asian	4.409868682849185	neutral	030	sub-13	2.0	6.0	030_neutral	0.0		72.74458659500942	3.766585537911851
6.0	41.30342144401129	pulse	1.0	t		24.0	female	east_asian	4.409868682849185	neutral	030	sub-13	2.0	6.0	030_neutral	0.0		72.79469464426438	
6.0	42.003401008379115	pulse	1.0	t		24.0	female	east_asian	4.409868682849185	neutral	030	sub-13	2.0	6.0	030_neutral	0.0		73.4946742086322	
6.0	42.70339445810987	pulse	1.0	t		24.0	female	east_asian	4.409868682849185	neutral	030	sub-13	2.0	6.0	030_neutral	0.0		74.19466765836296	
6.0	43.40338247443742	pulse	1.0	t		24.0	female	east_asian	4.409868682849185	neutral	030	sub-13	2.0	6.0	030_neutral	0.0		74.89465567469051	
6.0	44.10336717035261	pulse	1.0	t		24.0	female	east_asian	4.409868682849185	neutral	030	sub-13	2.0	6.0	030_neutral	0.0		75.5946403706057	
6.0	44.80334582915384	pulse	1.0	t		24.0	female	east_asian	4.409868682849185	neutral	030	sub-13	2.0	6.0	030_neutral	0.0		76.29461902940693	
7.0	45.019898932668184	face	0.0		145	40.0	male	white	1.868682849184242	smiling	172	sub-13	2.0	6.0	172_smiling	0.0		76.51117213292127	1.233326320219021
7.0	45.50333837331709	pulse	0.0	t		40.0	male	white	1.868682849184242	smiling	172	sub-13	2.0	6.0	172_smiling	0.0		76.99461157357018	
7.0	46.203333030471185	pulse	0.0	t		40.0	male	white	1.868682849184242	smiling	172	sub-13	2.0	6.0	172_smiling	0.0		77.69460623072428	
7.0	46.253225252887205	fix	1.0		445	40.0	male	white	1.868682849184242	smiling	172	sub-13	2.0	6.0	172_smiling	0.0		77.7444984531403	3.766568030278904
7.0	46.903318933808805	pulse	1.0	t		40.0	male	white	1.868682849184242	smiling	172	sub-13	2.0	6.0	172_smiling	0.0		78.3945921340619	
7.0	47.60329940374413	pulse	1.0	t		40.0	male	white	1.868682849184242	smiling	172	sub-13	2.0	6.0	172_smiling	0.0		79.09457260399722	
7.0	48.30329889058976	pulse	1.0	t		40.0	male	white	1.868682849184242	smiling	172	sub-13	2.0	6.0	172_smiling	0.0		79.79457209084285	
7.0	49.003275436400145	pulse	1.0	t		40.0	male	white	1.868682849184242	smiling	172	sub-13	2.0	6.0	172_smiling	0.0		80.49454863665324	
7.0	49.70326948984257	pulse	1.0	t		40.0	male	white	1.868682849184242	smiling	172	sub-13	2.0	6.0	172_smiling	0.0		81.19454269009566	
8.0	50.01979328316611	face	0.0		145	31.0	female	white	2.1822522881018704	neutral	102	sub-13	2.0	6.0	102_neutral	0.0		81.5110664834192	1.2333423185718857
8.0	50.40326354328499	pulse	0.0	t		31.0	female	white	2.1822522881018704	neutral	102	sub-13	2.0	6.0	102_neutral	0.0		81.89453674353808	
8.0	51.103244315075244	pulse	0.0	t		31.0	female	white	2.1822522881018704	neutral	102	sub-13	2.0	6.0	102_neutral	0.0		82.59451751532833	
8.0	51.253135601737995	fix	1.0		445	31.0	female	white	2.1822522881018704	neutral	102	sub-13	2.0	6.0	102_neutral	0.0		82.74440880199109	3.7582350013180985
8.0	51.80323384068197	pulse	1.0	t		31.0	female	white	2.1822522881018704	neutral	102	sub-13	2.0	6.0	102_neutral	0.0		83.29450704093506	
8.0	52.50321521618389	pulse	1.0	t		31.0	female	white	2.1822522881018704	neutral	102	sub-13	2.0	6.0	102_neutral	0.0		83.99448841643698	
8.0	53.20321409931785	pulse	1.0	t		31.0	female	white	2.1822522881018704	neutral	102	sub-13	2.0	6.0	102_neutral	0.0		84.69448729957094	
8.0	53.903193361829835	pulse	1.0	t		31.0	female	white	2.1822522881018704	neutral	102	sub-13	2.0	6.0	102_neutral	0.0		85.39446656208293	
8.0	54.60318107630246	pulse	1.0	t		31.0	female	white	2.1822522881018704	neutral	102	sub-13	2.0	6.0	102_neutral	0.0		86.09445427655555	
9.0	55.01137060305609	face	0.0		146	36.0	female	white	2.7548746518105847	smiling	011	sub-13	2.0	6.0	011_smiling	0.0		86.50264380330918	1.2416623677381722
9.0	55.30317392232155	pulse	0.0	t		36.0	female	white	2.7548746518105847	smiling	011	sub-13	2.0	6.0	011_smiling	0.0		86.79444712257464	
9.0	56.00314956256534	pulse	0.0	t		36.0	female	white	2.7548746518105847	smiling	011	sub-13	2.0	6.0	011_smiling	0.0		87.49442276281843	
9.0	56.253032970794266	fix	1.0		444	36.0	female	white	2.7548746518105847	smiling	011	sub-13	2.0	6.0	011_smiling	0.0		87.74430617104736	3.7665982158514453
9.0	56.703148143843464	pulse	1.0	t		36.0	female	white	2.7548746518105847	smiling	011	sub-13	2.0	6.0	011_smiling	0.0		88.19442134409655	
9.0	57.40312921748955	pulse	1.0	t		36.0	female	white	2.7548746518105847	smiling	011	sub-13	2.0	6.0	011_smiling	0.0		88.89440241774264	
9.0	58.10312236536538	pulse	1.0	t		36.0	female	white	2.7548746518105847	smiling	011	sub-13	2.0	6.0	011_smiling	0.0		89.59439556561847	
9.0	58.8031127965387	pulse	1.0	t		36.0	female	white	2.7548746518105847	smiling	011	sub-13	2.0	6.0	011_smiling	0.0		90.29438599679179	
9.0	59.50309236090652	pulse	1.0	t		36.0	female	white	2.7548746518105847	smiling	011	sub-13	2.0	6.0	011_smiling	0.0		90.99436556115961	
10.0	60.01963118664571	face	0.0		145	30.0	female	black	2.7345801830481498	smiling	062	sub-13	2.0	6.0	062_smiling	1.0	trustworthiness	91.5109043868988	1.2333278294972843
10.0	60.20307886795581	pulse	0.0	t		30.0	female	black	2.7345801830481498	smiling	062	sub-13	2.0	6.0	062_smiling	1.0	trustworthiness	91.6943520682089	
10.0	60.903071713975805	pulse	0.0	t		30.0	female	black	2.7345801830481498	smiling	062	sub-13	2.0	6.0	062_smiling	1.0	trustworthiness	92.3943449142289	
10.0	61.252959016142995	fix	1.0		177	30.0	female	black	2.7345801830481498	smiling	062	sub-13	2.0	6.0	062_smiling	1.0	trustworthiness	92.74423221639609	1.499975096903654
10.0	61.60305973030336	pulse	1.0	t		30.0	female	black	2.7345801830481498	smiling	062	sub-13	2.0	6.0	062_smiling	1.0	trustworthiness	93.09433293055645	
10.0	62.303044124362714	pulse	1.0	t		30.0	female	black	2.7345801830481498	smiling	062	sub-13	2.0	6.0	062_smiling	1.0	trustworthiness	93.7943173246158	
10.0	62.75293411304665	rating	2.0		294	30.0	female	black	2.7345801830481498	smiling	062	sub-13	2.0	6.0	062_smiling	1.0	trustworthiness	94.24420731329974	2.499942496485346
10.0	63.00304210193008	pulse	2.0	t		30.0	female	black	2.7345801830481498	smiling	062	sub-13	2.0	6.0	062_smiling	1.0	trustworthiness	94.49431530218317	
10.0	63.70301562918303	pulse	2.0	t		30.0	female	black	2.7345801830481498	smiling	062	sub-13	2.0	6.0	062_smiling	1.0	trustworthiness	95.19428882943612	
10.0	63.953007705470554	response	2.0	b		30.0	female	black	2.7345801830481498	smiling	062	sub-13	2.0	6.0	062_smiling	1.0	trustworthiness	95.44428090572364	
10.0	64.40298825086938	pulse	2.0	t		30.0	female	black	2.7345801830481498	smiling	062	sub-13	2.0	6.0	062_smiling	1.0	trustworthiness	95.89426145112247	
10.0	65.10298834142577	pulse	2.0	t		30.0	female	black	2.7345801830481498	smiling	062	sub-13	2.0	6.0	062_smiling	1.0	trustworthiness	96.59426154167886	
10.0	65.252876609532	fix	3.0		444	30.0	female	black	2.7345801830481498	smiling	062	sub-13	2.0	6.0	062_smiling	1.0	trustworthiness	96.74414980978509	3.7665951972940093
10.0	65.80298480971396	pulse	3.0	t		30.0	female	black	2.7345801830481498	smiling	062	sub-13	2.0	6.0	062_smiling	1.0	trustworthiness	97.29425800996705	
10.0	66.50296648707263	pulse	3.0	t		30.0	female	black	2.7345801830481498	smiling	062	sub-13	2.0	6.0	062_smiling	1.0	trustworthiness	97.99423968732572	
10.0	67.20295661639011	pulse	3.0	t		30.0	female	black	2.7345801830481498	smiling	062	sub-13	2.0	6.0	062_smiling	1.0	trustworthiness	98.6942298166432	
10.0	67.90294916055427	pulse	3.0	t		30.0	female	black	2.7345801830481498	smiling	062	sub-13	2.0	6.0	062_smiling	1.0	trustworthiness	99.39422236080736	
10.0	68.60293113976786	pulse	3.0	t		30.0	female	black	2.7345801830481498	smiling	062	sub-13	2.0	6.0	062_smiling	1.0	trustworthiness	100.09420434002095	
11.0	69.019471806826	face	0.0		145	37.0	male	white	3.898925586947871	smiling	101	sub-13	2.0	6.0	101_smiling	0.0		100.5107450070791	1.2333039828963592
11.0	69.30291915609541	pulse	0.0	t		37.0	male	white	3.898925586947871	smiling	101	sub-13	2.0	6.0	101_smiling	0.0		100.7941923563485	
11.0	70.00290988912457	pulse	0.0	t		37.0	male	white	3.898925586947871	smiling	101	sub-13	2.0	6.0	101_smiling	0.0		101.49418308937766	
11.0	70.25277578972236	fix	1.0		444	37.0	male	white	3.898925586947871	smiling	101	sub-13	2.0	6.0	101_smiling	0.0		101.74404898997545	3.7666075733786784
11.0	70.70289790545303	pulse	1.0	t		37.0	male	white	3.898925586947871	smiling	101	sub-13	2.0	6.0	101_smiling	0.0		102.19417110570612	
11.0	71.40288743105975	pulse	1.0	t		37.0	male	white	3.898925586947871	smiling	101	sub-13	2.0	6.0	101_smiling	0.0		102.89416063131284	
11.0	72.10285944903444	pulse	1.0	t		37.0	male	white	3.898925586947871	smiling	101	sub-13	2.0	6.0	101_smiling	0.0		103.59413264928753	
11.0	72.80285501175513	pulse	1.0	t		37.0	male	white	3.898925586947871	smiling	101	sub-13	2.0	6.0	101_smiling	0.0		104.29412821200822	
11.0	73.50284604664012	pulse	1.0	t		37.0	male	white	3.898925586947871	smiling	101	sub-13	2.0	6.0	101_smiling	0.0		104.9941192468932	
12.0	74.01938336310104	face	0.0		145	40.0	female	west_asian	1.5777954635893354	smiling	038	sub-13	2.0	6.0	038_smiling	0.0		105.51065656335413	1.2333266220748555
12.0	74.20282953513288	pulse	0.0	t		40.0	female	west_asian	1.5777954635893354	smiling	038	sub-13	2.0	6.0	038_smiling	0.0		105.69410273538597	
12.0	74.9028263052769	pulse	0.0	t		40.0	female	west_asian	1.5777954635893354	smiling	038	sub-13	2.0	6.0	038_smiling	0.0		106.39409950553	
12.0	75.2527099851759	fix	1.0		444	40.0	female	west_asian	1.5777954635893354	smiling	038	sub-13	2.0	6.0	038_smiling	0.0		106.74398318542899	3.766564709866543
12.0	75.60279711582825	pulse	1.0	t		40.0	female	west_asian	1.5777954635893354	smiling	038	sub-13	2.0	6.0	038_smiling	0.0		107.09407031608134	
12.0	76.30279267854985	pulse	1.0	t		40.0	female	west_asian	1.5777954635893354	smiling	038	sub-13	2.0	6.0	038_smiling	0.0		107.79406587880294	
12.0	77.0027752614742	pulse	1.0	t		40.0	female	west_asian	1.5777954635893354	smiling	038	sub-13	2.0	6.0	038_smiling	0.0		108.49404846172729	
12.0	77.70278410584706	pulse	1.0	t		40.0	female	west_asian	1.5777954635893354	smiling	038	sub-13	2.0	6.0	038_smiling	0.0		109.19405730610015	
12.0	78.40276185908078	pulse	1.0	t		40.0	female	west_asian	1.5777954635893354	smiling	038	sub-13	2.0	6.0	038_smiling	0.0		109.89403505933387	
13.0	79.01927469504244	face	0.0		145	31.0	female	east_asian	3.395941106247513	neutral	087	sub-13	2.0	6.0	087_neutral	0.0		110.51054789529553	1.233347450119254
13.0	79.10274383829437	pulse	0.0	t		31.0	female	east_asian	3.395941106247513	neutral	087	sub-13	2.0	6.0	087_neutral	0.0		110.59401703854746	
13.0	79.8027324583336	pulse	0.0	t		31.0	female	east_asian	3.395941106247513	neutral	087	sub-13	2.0	6.0	087_neutral	0.0		111.29400565858668	
13.0	80.2526221451617	fix	1.0		444	31.0	female	east_asian	3.395941106247513	neutral	087	sub-13	2.0	6.0	087_neutral	0.0		111.74389534541478	3.766578293373641
13.0	80.50272017280622	pulse	1.0	t		31.0	female	east_asian	3.395941106247513	neutral	087	sub-13	2.0	6.0	087_neutral	0.0		111.99399337305931	
13.0	81.20271362253698	pulse	1.0	t		31.0	female	east_asian	3.395941106247513	neutral	087	sub-13	2.0	6.0	087_neutral	0.0		112.69398682279007	
13.0	81.9026832256659	pulse	1.0	t		31.0	female	east_asian	3.395941106247513	neutral	087	sub-13	2.0	6.0	087_neutral	0.0		113.39395642591899	
13.0	82.60268663663555	pulse	1.0	t		31.0	female	east_asian	3.395941106247513	neutral	087	sub-13	2.0	6.0	087_neutral	0.0		114.09395983688864	
13.0	83.30267042698324	pulse	1.0	t		31.0	female	east_asian	3.395941106247513	neutral	087	sub-13	2.0	6.0	087_neutral	0.0		114.79394362723633	
14.0	84.01920043853534	face	0.0		146	47.0	male	east_asian	2.171110226820533	neutral	024	sub-13	2.0	6.0	024_neutral	0.0		115.51047363878843	1.233332659188818
14.0	84.005413782309	pulse	0.0	t		47.0	male	east_asian	2.171110226820533	neutral	024	sub-13	2.0	6.0	024_neutral	0.0		115.4966869825621	
14.0	84.7026531004658	pulse	0.0	t		47.0	male	east_asian	2.171110226820533	neutral	024	sub-13	2.0	6.0	024_neutral	0.0		116.19392630071889	
14.0	85.25253309772415	fix	1.0		443	47.0	male	east_asian	2.171110226820533	neutral	024	sub-13	2.0	6.0	024_neutral	0.0		116.74380629797724	3.7665831230660842
14.0	85.40263840009175	pulse	1.0	t		47.0	male	east_asian	2.171110226820533	neutral	024	sub-13	2.0	6.0	024_neutral	0.0		116.89391160034484	
14.0	86.10262158672867	pulse	1.0	t		47.0	male	east_asian	2.171110226820533	neutral	024	sub-13	2.0	6.0	024_neutral	0.0		117.59389478698176	
14.0	86.80261141419032	pulse	1.0	t		47.0	male	east_asian	2.171110226820533	neutral	024	sub-13	2.0	6.0	024_neutral	0.0		118.29388461444341	
14.0	87.50259067670322	pulse	1.0	t		47.0	male	east_asian	2.171110226820533	neutral	024	sub-13	2.0	6.0	024_neutral	0.0		118.99386387695631	
14.0	88.2025925783937	pulse	1.0	t		47.0	male	east_asian	2.171110226820533	neutral	024	sub-13	2.0	6.0	024_neutral	0.0		119.6938657786468	
14.0	88.90256791678166	pulse	1.0	t		47.0	male	east_asian	2.171110226820533	neutral	024	sub-13	2.0	6.0	024_neutral	0.0		120.39384111703475	
15.0	89.01911622079024	face	0.0		146	26.0	male	white	2.7966573816155993	smiling	117	sub-13	2.0	6.0	117_smiling	0.0		120.51038942104333	1.2333269239297806
15.0	89.60256408321402	pulse	0.0	t		26.0	male	white	2.7966573816155993	smiling	117	sub-13	2.0	6.0	117_smiling	0.0		121.09383728346711	
15.0	90.25244314472002	fix	1.0		443	26.0	male	white	2.7966573816155993	smiling	117	sub-13	2.0	6.0	117_smiling	0.0		121.74371634497311	3.7665861416235202
15.0	90.30263420429765	pulse	1.0	t		26.0	male	white	2.7966573816155993	smiling	117	sub-13	2.0	6.0	117_smiling	0.0		121.79390740455074	
15.0	91.0025316639103	pulse	1.0	t		26.0	male	white	2.7966573816155993	smiling	117	sub-13	2.0	6.0	117_smiling	0.0		122.4938048641634	
15.0	91.70251726539209	pulse	1.0	t		26.0	male	white	2.7966573816155993	smiling	117	sub-13	2.0	6.0	117_smiling	0.0		123.19379046564518	
15.0	92.40250618728714	pulse	1.0	t		26.0	male	white	2.7966573816155993	smiling	117	sub-13	2.0	6.0	117_smiling	0.0		123.89377938754023	
15.0	93.10250114629707	pulse	1.0	t		26.0	male	white	2.7966573816155993	smiling	117	sub-13	2.0	6.0	117_smiling	0.0		124.59377434655016	
15.0	93.8024761828292	pulse	1.0	t		26.0	male	white	2.7966573816155993	smiling	117	sub-13	2.0	6.0	117_smiling	0.0		125.29374938308229	
16.0	94.01902928634354	face	0.0		145	34.0	male	white	2.651014723438122	neutral	121	sub-13	2.0	6.0	121_neutral	0.0		125.51030248659663	1.233310925576916
16.0	94.50247566967391	pulse	0.0	t		34.0	male	white	2.651014723438122	neutral	121	sub-13	2.0	6.0	121_neutral	0.0		125.993748869927	
16.0	95.20245432847514	pulse	0.0	t		34.0	male	white	2.651014723438122	neutral	121	sub-13	2.0	6.0	121_neutral	0.0		126.69372752872823	
16.0	95.25234021192045	fix	1.0		445	34.0	male	white	2.651014723438122	neutral	121	sub-13	2.0	6.0	121_neutral	0.0		126.74361341217354	3.7665994232747835
16.0	95.90246619140453	pulse	1.0	t		34.0	male	white	2.651014723438122	neutral	121	sub-13	2.0	6.0	121_neutral	0.0		127.39373939165762	
16.0	96.60243337968768	pulse	1.0	t		34.0	male	white	2.651014723438122	neutral	121	sub-13	2.0	6.0	121_neutral	0.0		128.09370657994077	
16.0	97.3024219997269	pulse	1.0	t		34.0	male	white	2.651014723438122	neutral	121	sub-13	2.0	6.0	121_neutral	0.0		128.79369519998	
16.0	98.0024012622398	pulse	1.0	t		34.0	male	white	2.651014723438122	neutral	121	sub-13	2.0	6.0	121_neutral	0.0		129.4936744624929	
16.0	98.70239501382639	pulse	1.0	t		34.0	male	white	2.651014723438122	neutral	121	sub-13	2.0	6.0	121_neutral	0.0		130.19366821407948	
17.0	99.01893963519524	face	0.0		145	21.0	male	black	2.969757262236371	smiling	137	sub-13	2.0	6.0	137_smiling	0.0		130.51021283544833	1.2333042847512843
17.0	99.40238876541298	pulse	0.0	t		21.0	male	black	2.969757262236371	smiling	137	sub-13	2.0	6.0	137_smiling	0.0		130.89366196566607	
17.0	100.10237980029797	pulse	0.0	t		21.0	male	black	2.969757262236371	smiling	137	sub-13	2.0	6.0	137_smiling	0.0		131.59365300055106	
17.0	100.25224391994652	fix	1.0		445	21.0	male	black	2.969757262236371	smiling	137	sub-13	2.0	6.0	137_smiling	0.0		131.7435171201996	3.766609384512776
17.0	100.80236419435732	pulse	1.0	t		21.0	male	black	2.969757262236371	smiling	137	sub-13	2.0	6.0	137_smiling	0.0		132.2936373946104	
17.0	101.50234677728258	pulse	1.0	t		21.0	male	black	2.969757262236371	smiling	137	sub-13	2.0	6.0	137_smiling	0.0		132.99361997753567	
17.0	102.20249477714151	pulse	1.0	t		21.0	male	black	2.969757262236371	smiling	137	sub-13	2.0	6.0	137_smiling	0.0		133.6937679773946	
17.0	102.90232371550519	pulse	1.0	t		21.0	male	black	2.969757262236371	smiling	137	sub-13	2.0	6.0	137_smiling	0.0		134.39359691575828	
17.0	103.60230177059475	pulse	1.0	t		21.0	male	black	2.969757262236371	smiling	137	sub-13	2.0	6.0	137_smiling	0.0		135.09357497084784	
18.0	104.0188533044593	face	0.0		145	24.0	female	east_asian	2.9076800636689217	smiling	034	sub-13	2.0	6.0	034_smiling	0.0		135.5101265047124	1.2333220942391563
18.0	104.30229491846967	pulse	0.0	t		24.0	female	east_asian	2.9076800636689217	smiling	034	sub-13	2.0	6.0	034_smiling	0.0		135.79356811872276	
18.0	105.0022799162407	pulse	0.0	t		24.0	female	east_asian	2.9076800636689217	smiling	034	sub-13	2.0	6.0	034_smiling	0.0		136.49355311649379	
18.0	105.25217539869845	fix	1.0		444	24.0	female	east_asian	2.9076800636689217	smiling	034	sub-13	2.0	6.0	034_smiling	0.0		136.74344859895155	3.766564709866543
18.0	105.70228030865292	pulse	1.0	t		24.0	female	east_asian	2.9076800636689217	smiling	034	sub-13	2.0	6.0	034_smiling	0.0		137.193553508906	
18.0	106.40226741941387	pulse	1.0	t		24.0	female	east_asian	2.9076800636689217	smiling	034	sub-13	2.0	6.0	034_smiling	0.0		137.89354061966696	
18.0	107.10224185223433	pulse	1.0	t		24.0	female	east_asian	2.9076800636689217	smiling	034	sub-13	2.0	6.0	034_smiling	0.0		138.59351505248742	
18.0	107.80223741495593	pulse	1.0	t		24.0	female	east_asian	2.9076800636689217	smiling	034	sub-13	2.0	6.0	034_smiling	0.0		139.29351061520902	
18.0	108.50222814798508	pulse	1.0	t		24.0	female	east_asian	2.9076800636689217	smiling	034	sub-13	2.0	6.0	034_smiling	0.0		139.99350134823817	
19.0	109.018740108565	face	0.0		145	31.0	male	west_asian	1.9538400318344609	smiling	070	sub-13	2.0	6.0	070_smiling	0.0		140.5100133088181	1.233347450119254
19.0	109.20221012719867	pulse	0.0	t		31.0	male	west_asian	1.9538400318344609	smiling	070	sub-13	2.0	6.0	070_smiling	0.0		140.69348332745176	
19.0	109.90218365445253	pulse	0.0	t		31.0	male	west_asian	1.9538400318344609	smiling	070	sub-13	2.0	6.0	070_smiling	0.0		141.39345685470562	
19.0	110.25208755868425	fix	1.0		444	31.0	male	west_asian	1.9538400318344609	smiling	070	sub-13	2.0	6.0	070_smiling	0.0		141.74336075893734	3.766583726776844
19.0	110.60219068769038	pulse	1.0	t		31.0	male	west_asian	1.9538400318344609	smiling	070	sub-13	2.0	6.0	070_smiling	0.0		142.09346388794347	
19.0	111.30217357247147	pulse	1.0	t		31.0	male	west_asian	1.9538400318344609	smiling	070	sub-13	2.0	6.0	070_smiling	0.0		142.79344677272456	
19.0	112.0021603813766	pulse	1.0	t		31.0	male	west_asian	1.9538400318344609	smiling	070	sub-13	2.0	6.0	070_smiling	0.0		143.4934335816297	
19.0	112.70215201997325	pulse	1.0	t		31.0	male	west_asian	1.9538400318344609	smiling	070	sub-13	2.0	6.0	070_smiling	0.0		144.19342522022635	
19.0	113.40212916949531	pulse	1.0	t		31.0	male	west_asian	1.9538400318344609	smiling	070	sub-13	2.0	6.0	070_smiling	0.0		144.8934023697484	
20.0	114.0186712854611	face	0.0		145	32.0	male	white	2.389176283326701	neutral	092	sub-13	2.0	6.0	092_neutral	0.0		145.5099444857142	1.233310925576916
20.0	114.10212261922607	pulse	0.0	t		32.0	male	white	2.389176283326701	neutral	092	sub-13	2.0	6.0	092_neutral	0.0		145.59339581947916	
20.0	114.80211123926529	pulse	0.0	t		32.0	male	white	2.389176283326701	neutral	092	sub-13	2.0	6.0	092_neutral	0.0		146.29338443951838	
20.0	115.25198221103801	fix	1.0		1185	32.0	male	white	2.389176283326701	neutral	092	sub-13	2.0	6.0	092_neutral	0.0		146.7432554112911	10.016492189030942
20.0	115.50210136858368	pulse	1.0	t		32.0	male	white	2.389176283326701	neutral	092	sub-13	2.0	6.0	092_neutral	0.0		146.99337456883677	
20.0	116.2020927053245	pulse	1.0	t		32.0	male	white	2.389176283326701	neutral	092	sub-13	2.0	6.0	092_neutral	0.0		147.6933659055776	
20.0	116.90206955299072	pulse	1.0	t		32.0	male	white	2.389176283326701	neutral	092	sub-13	2.0	6.0	092_neutral	0.0		148.39334275324381	
20.0	117.60210345138785	pulse	1.0	t		32.0	male	white	2.389176283326701	neutral	092	sub-13	2.0	6.0	092_neutral	0.0		149.09337665164094	
20.0	118.3020652062678	pulse	1.0	t		32.0	male	white	2.389176283326701	neutral	092	sub-13	2.0	6.0	092_neutral	0.0		149.7933384065209	
20.0	119.00203058341685	pulse	1.0	t		32.0	male	white	2.389176283326701	neutral	092	sub-13	2.0	6.0	092_neutral	0.0		150.49330378366994	
20.0	119.70202584428262	pulse	1.0	t		32.0	male	white	2.389176283326701	neutral	092	sub-13	2.0	6.0	092_neutral	0.0		151.1932990445357	
20.0	120.4020159736001	pulse	1.0	t		32.0	male	white	2.389176283326701	neutral	092	sub-13	2.0	6.0	092_neutral	0.0		151.8932891738532	
20.0	121.1020042917844	pulse	1.0	t		32.0	male	white	2.389176283326701	neutral	092	sub-13	2.0	6.0	092_neutral	0.0		152.5932774920375	
20.0	121.80198445986389	pulse	1.0	t		32.0	male	white	2.389176283326701	neutral	092	sub-13	2.0	6.0	092_neutral	0.0		153.29325766011698	
20.0	122.50197247619144	pulse	1.0	t		32.0	male	white	2.389176283326701	neutral	092	sub-13	2.0	6.0	092_neutral	0.0		153.99324567644453	
20.0	123.2019930929373	pulse	1.0	t		32.0	male	white	2.389176283326701	neutral	092	sub-13	2.0	6.0	092_neutral	0.0		154.6932662931904	
20.0	123.90193764204196	pulse	1.0	t		32.0	male	white	2.389176283326701	neutral	092	sub-13	2.0	6.0	092_neutral	0.0		155.39321084229505	
20.0	124.60192565836951	pulse	1.0	t		32.0	male	white	2.389176283326701	neutral	092	sub-13	2.0	6.0	092_neutral	0.0		156.0931988586226	
21.0	125.26847440006895	face	0.0		145	20.0	male	black	3.1070433744528456	smiling	082	sub-13	2.0	6.0	082_smiling	0.0		156.75974760032204	1.2333039828954497
21.0	125.30193450274237	pulse	0.0	t		20.0	male	black	3.1070433744528456	smiling	082	sub-13	2.0	6.0	082_smiling	0.0		156.79320770299546	
21.0	126.00191768937839	pulse	0.0	t		20.0	male	black	3.1070433744528456	smiling	082	sub-13	2.0	6.0	082_smiling	0.0		157.49319088963148	
21.0	126.5017783829644	fix	1.0		443	20.0	male	black	3.1070433744528456	smiling	082	sub-13	2.0	6.0	082_smiling	0.0		157.9930515832175	3.7665894620358813
21.0	126.70190751684095	pulse	1.0	t		20.0	male	black	3.1070433744528456	smiling	082	sub-13	2.0	6.0	082_smiling	0.0		158.19318071709404	
21.0	127.40188617564127	pulse	1.0	t		20.0	male	black	3.1070433744528456	smiling	082	sub-13	2.0	6.0	082_smiling	0.0		158.89315937589436	
21.0	128.10186875856652	pulse	1.0	t		20.0	male	black	3.1070433744528456	smiling	082	sub-13	2.0	6.0	082_smiling	0.0		159.59314195881961	
21.0	128.80184983221352	pulse	1.0	t		20.0	male	black	3.1070433744528456	smiling	082	sub-13	2.0	6.0	082_smiling	0.0		160.2931230324666	
21.0	129.5018408670985	pulse	1.0	t		20.0	male	black	3.1070433744528456	smiling	082	sub-13	2.0	6.0	082_smiling	0.0		160.9931140673516	
21.0	130.2018337131176	pulse	1.0	t		20.0	male	black	3.1070433744528456	smiling	082	sub-13	2.0	6.0	082_smiling	0.0		161.69310691337068	
22.0	130.26836784500028	face	0.0		146	31.0	female	white	2.1822522881018704	smiling	102	sub-13	2.0	6.0	102_smiling	1.0	dominance	161.75964104525337	1.233341111149457
22.0	130.90182022016688	pulse	0.0	t		31.0	female	white	2.1822522881018704	smiling	102	sub-13	2.0	6.0	102_smiling	1.0	dominance	162.39309342041997	
22.0	131.50170895614974	fix	1.0		177	31.0	female	white	2.1822522881018704	smiling	102	sub-13	2.0	6.0	102_smiling	1.0	dominance	162.99298215640283	1.4999775117485115
22.0	131.60181729216674	pulse	1.0	t		31.0	female	white	2.1822522881018704	smiling	102	sub-13	2.0	6.0	102_smiling	1.0	dominance	163.09309049241983	
22.0	132.3018143641666	pulse	1.0	t		31.0	female	white	2.1822522881018704	smiling	102	sub-13	2.0	6.0	102_smiling	1.0	dominance	163.7930875644197	
22.0	133.00168646789825	rating	2.0		294	31.0	female	white	2.1822522881018704	smiling	102	sub-13	2.0	6.0	102_smiling	1.0	dominance	164.49295966815134	2.499933138958113
22.0	132.99768627591766	pulse	2.0	t		31.0	female	white	2.1822522881018704	smiling	102	sub-13	2.0	6.0	102_smiling	1.0	dominance	164.48895947617075	
22.0	133.70177198362308	pulse	2.0	t		31.0	female	white	2.1822522881018704	smiling	102	sub-13	2.0	6.0	102_smiling	1.0	dominance	165.19304518387617	
22.0	134.38508971604733	response	2.0	d		31.0	female	white	2.1822522881018704	smiling	102	sub-13	2.0	6.0	102_smiling	1.0	dominance	165.87636291630042	
22.0	134.4017823372742	pulse	2.0	t		31.0	female	white	2.1822522881018704	smiling	102	sub-13	2.0	6.0	102_smiling	1.0	dominance	165.8930555375273	
22.0	135.10175918494133	pulse	2.0	t		31.0	female	white	2.1822522881018704	smiling	102	sub-13	2.0	6.0	102_smiling	1.0	dominance	166.59303238519442	
22.0	135.50161960685637	fix	3.0		444	31.0	female	white	2.1822522881018704	smiling	102	sub-13	2.0	6.0	102_smiling	1.0	dominance	166.99289280710946	3.7666039511104827
22.0	135.80173452332838	pulse	3.0	t		31.0	female	white	2.1822522881018704	smiling	102	sub-13	2.0	6.0	102_smiling	1.0	dominance	167.29300772358147	
22.0	136.5017240489351	pulse	3.0	t		31.0	female	white	2.1822522881018704	smiling	102	sub-13	2.0	6.0	102_smiling	1.0	dominance	167.9929972491882	
22.0	137.20170633000453	pulse	3.0	t		31.0	female	white	2.1822522881018704	smiling	102	sub-13	2.0	6.0	102_smiling	1.0	dominance	168.69297953025762	
22.0	137.90170491128265	pulse	3.0	t		31.0	female	white	2.1822522881018704	smiling	102	sub-13	2.0	6.0	102_smiling	1.0	dominance	169.39297811153574	
22.0	138.60167723111317	pulse	3.0	t		31.0	female	white	2.1822522881018704	smiling	102	sub-13	2.0	6.0	102_smiling	1.0	dominance	170.09295043136626	
23.0	139.26822355796685	face	0.0		145	19.0	male	white	3.2522881018702745	neutral	018	sub-13	2.0	6.0	018_neutral	1.0	dominance	170.75949675821994	1.2333118311444196
23.0	139.30168637734187	pulse	0.0	t		19.0	male	white	3.2522881018702745	neutral	018	sub-13	2.0	6.0	018_neutral	1.0	dominance	170.79295957759496	
23.0	140.00166896026622	pulse	0.0	t		19.0	male	white	3.2522881018702745	neutral	018	sub-13	2.0	6.0	018_neutral	1.0	dominance	171.4929421605193	
23.0	140.50153538911127	fix	1.0		177	19.0	male	white	3.2522881018702745	neutral	018	sub-13	2.0	6.0	018_neutral	1.0	dominance	171.99280858936436	1.4999938119581202
23.0	140.70164882648987	pulse	1.0	t		19.0	male	white	3.2522881018702745	neutral	018	sub-13	2.0	6.0	018_neutral	1.0	dominance	172.19292202674296	
23.0	141.4016428799323	pulse	1.0	t		19.0	male	white	3.2522881018702745	neutral	018	sub-13	2.0	6.0	018_neutral	1.0	dominance	172.8929160801854	
23.0	142.0015292010694	rating	2.0		294	19.0	male	white	3.2522881018702745	neutral	018	sub-13	2.0	6.0	018_neutral	1.0	dominance	173.49280240132248	2.4999497410226468
23.0	142.1016357259523	pulse	2.0	t		19.0	male	white	3.2522881018702745	neutral	018	sub-13	2.0	6.0	018_neutral	1.0	dominance	173.59290892620538	
23.0	142.80162313856817	pulse	2.0	t		19.0	male	white	3.2522881018702745	neutral	018	sub-13	2.0	6.0	018_neutral	1.0	dominance	174.29289633882127	
23.0	143.16827550733615	response	2.0	n		19.0	male	white	3.2522881018702745	neutral	018	sub-13	2.0	6.0	018_neutral	1.0	dominance	174.65954870758924	
23.0	143.50158610087237	pulse	2.0	t		19.0	male	white	3.2522881018702745	neutral	018	sub-13	2.0	6.0	018_neutral	1.0	dominance	174.99285930112546	
23.0	144.20159343596606	pulse	2.0	t		19.0	male	white	3.2522881018702745	neutral	018	sub-13	2.0	6.0	018_neutral	1.0	dominance	175.69286663621915	
23.0	144.50147894209204	fix	3.0		444	19.0	male	white	3.2522881018702745	neutral	018	sub-13	2.0	6.0	018_neutral	1.0	dominance	175.99275214234513	3.766584934200182
23.0	144.90156334095082	pulse	3.0	t		19.0	male	white	3.2522881018702745	neutral	018	sub-13	2.0	6.0	018_neutral	1.0	dominance	176.3928365412039	
23.0	145.6015661482088	pulse	3.0	t		19.0	male	white	3.2522881018702745	neutral	018	sub-13	2.0	6.0	018_neutral	1.0	dominance	177.0928393484619	
23.0	146.30154420329836	pulse	3.0	t		19.0	male	white	3.2522881018702745	neutral	018	sub-13	2.0	6.0	018_neutral	1.0	dominance	177.79281740355145	
23.0	147.00152437137785	pulse	3.0	t		19.0	male	white	3.2522881018702745	neutral	018	sub-13	2.0	6.0	018_neutral	1.0	dominance	178.49279757163094	
23.0	147.7015304990482	pulse	3.0	t		19.0	male	white	3.2522881018702745	neutral	018	sub-13	2.0	6.0	018_neutral	1.0	dominance	179.1928036993013	
24.0	148.26806387629222	face	0.0		145	23.0	male	white	2.6275368085953046	neutral	141	sub-13	2.0	6.0	141_neutral	0.0		179.7593370765453	1.2333100200094123
24.0	148.40151278011763	pulse	0.0	t		23.0	male	white	2.6275368085953046	neutral	141	sub-13	2.0	6.0	141_neutral	0.0		179.89278598037072	
24.0	149.10149717417698	pulse	0.0	t		23.0	male	white	2.6275368085953046	neutral	141	sub-13	2.0	6.0	141_neutral	0.0		180.59277037443007	
24.0	149.50137389630163	fix	1.0		444	23.0	male	white	2.6275368085953046	neutral	141	sub-13	2.0	6.0	141_neutral	0.0		180.99264709655472	3.766601536264716
24.0	149.80149303875442	pulse	1.0	t		23.0	male	white	2.6275368085953046	neutral	141	sub-13	2.0	6.0	141_neutral	0.0		181.2927662390075	
24.0	150.50148165879364	pulse	1.0	t		23.0	male	white	2.6275368085953046	neutral	141	sub-13	2.0	6.0	141_neutral	0.0		181.99275485904673	
24.0	151.2014678639871	pulse	1.0	t		23.0	male	white	2.6275368085953046	neutral	141	sub-13	2.0	6.0	141_neutral	0.0		182.69274106424018	
24.0	151.90144833392242	pulse	1.0	t		23.0	male	white	2.6275368085953046	neutral	141	sub-13	2.0	6.0	141_neutral	0.0		183.3927215341755	
24.0	152.60143695396164	pulse	1.0	t		23.0	male	white	2.6275368085953046	neutral	141	sub-13	2.0	6.0	141_neutral	0.0		184.09271015421473	
25.0	153.26797543256635	face	0.0		145	19.0	male	white	2.243931555909272	neutral	130	sub-13	2.0	6.0	130_neutral	0.0		184.75924863281944	1.23332692393069
25.0	153.30143644080636	pulse	0.0	t		19.0	male	white	2.243931555909272	neutral	130	sub-13	2.0	6.0	130_neutral	0.0		184.79270964105945	
25.0	154.00141419404008	pulse	0.0	t		19.0	male	white	2.243931555909272	neutral	130	sub-13	2.0	6.0	130_neutral	0.0		185.49268739429317	
25.0	154.50130235649704	fix	1.0		443	19.0	male	white	2.243931555909272	neutral	130	sub-13	2.0	6.0	130_neutral	0.0		185.99257555675013	3.766564709866543
25.0	154.7014082474825	pulse	1.0	t		19.0	male	white	2.243931555909272	neutral	130	sub-13	2.0	6.0	130_neutral	0.0		186.1926814477356	
25.0	155.40139354710936	pulse	1.0	t		19.0	male	white	2.243931555909272	neutral	130	sub-13	2.0	6.0	130_neutral	0.0		186.89266674736245	
25.0	156.10137039477559	pulse	1.0	t		19.0	male	white	2.243931555909272	neutral	130	sub-13	2.0	6.0	130_neutral	0.0		187.59264359502868	
25.0	156.80135931667064	pulse	1.0	t		19.0	male	white	2.243931555909272	neutral	130	sub-13	2.0	6.0	130_neutral	0.0		188.29263251692373	
25.0	157.50134944598904	pulse	1.0	t		19.0	male	white	2.243931555909272	neutral	130	sub-13	2.0	6.0	130_neutral	0.0		188.99262264624213	
25.0	158.20135708293856	pulse	1.0	t		19.0	male	white	2.243931555909272	neutral	130	sub-13	2.0	6.0	130_neutral	0.0		189.69263028319165	
26.0	158.26786706636358	face	0.0		146	27.0	female	white	4.181058495821727	smiling	039	sub-13	2.0	6.0	039_smiling	0.0		189.75914026661667	1.2333302443430512
26.0	158.90132517678921	pulse	0.0	t		27.0	female	white	4.181058495821727	smiling	039	sub-13	2.0	6.0	039_smiling	0.0		190.3925983770423	
26.0	159.50119731070663	fix	1.0		443	27.0	female	white	4.181058495821727	smiling	039	sub-13	2.0	6.0	039_smiling	0.0		190.99247051095972	3.758382306908061
26.0	159.60131138198267	pulse	1.0	t		27.0	female	white	4.181058495821727	smiling	039	sub-13	2.0	6.0	039_smiling	0.0		191.09258458223576	
26.0	160.3013099632608	pulse	1.0	t		27.0	female	white	4.181058495821727	smiling	039	sub-13	2.0	6.0	039_smiling	0.0		191.79258316351388	
26.0	161.00128922577278	pulse	1.0	t		27.0	female	white	4.181058495821727	smiling	039	sub-13	2.0	6.0	039_smiling	0.0		192.49256242602587	
26.0	161.70126939385227	pulse	1.0	t		27.0	female	white	4.181058495821727	smiling	039	sub-13	2.0	6.0	039_smiling	0.0		193.19254259410536	
26.0	162.40126737141873	pulse	1.0	t		27.0	female	white	4.181058495821727	smiling	039	sub-13	2.0	6.0	039_smiling	0.0		193.89254057167182	
26.0	163.10124542650829	pulse	1.0	t		27.0	female	white	4.181058495821727	smiling	039	sub-13	2.0	6.0	039_smiling	0.0		194.59251862676138	
27.0	163.2595796176147	face	0.0		147	31.0	female	west_asian	2.364902506963788	neutral	006	sub-13	2.0	6.0	006_neutral	0.0		194.75085281786778	1.2415470588539392
27.0	163.80123555582577	pulse	0.0	t		31.0	female	west_asian	2.364902506963788	neutral	006	sub-13	2.0	6.0	006_neutral	0.0		195.29250875607886	
27.0	164.50112667646863	fix	1.0		444	31.0	female	west_asian	2.364902506963788	neutral	006	sub-13	2.0	6.0	006_neutral	0.0		195.99239987672172	3.7665852360560166
27.0	164.50852516012674	pulse	1.0	t		31.0	female	west_asian	2.364902506963788	neutral	006	sub-13	2.0	6.0	006_neutral	0.0		195.99979836037983	
27.0	165.20120283466622	pulse	1.0	t		31.0	female	west_asian	2.364902506963788	neutral	006	sub-13	2.0	6.0	006_neutral	0.0		196.6924760349193	
27.0	165.90120805676997	pulse	1.0	t		31.0	female	west_asian	2.364902506963788	neutral	006	sub-13	2.0	6.0	006_neutral	0.0		197.39248125702306	
27.0	166.60118731928196	pulse	1.0	t		31.0	female	west_asian	2.364902506963788	neutral	006	sub-13	2.0	6.0	006_neutral	0.0		198.09246051953505	
27.0	167.30119073025162	pulse	1.0	t		31.0	female	west_asian	2.364902506963788	neutral	006	sub-13	2.0	6.0	006_neutral	0.0		198.7924639305047	
27.0	168.00116697420708	pulse	1.0	t		31.0	female	west_asian	2.364902506963788	neutral	006	sub-13	2.0	6.0	006_neutral	0.0		199.49244017446017	
28.0	168.26771191252465	face	0.0		145	24.0	female	east_asian	4.409868682849185	smiling	030	sub-13	2.0	6.0	030_smiling	0.0		199.75898511277774	1.2333229998057504
28.0	168.70115800909207	pulse	0.0	t		24.0	female	east_asian	4.409868682849185	smiling	030	sub-13	2.0	6.0	030_smiling	0.0		200.19243120934516	
28.0	169.40113878088323	pulse	0.0	t		24.0	female	east_asian	4.409868682849185	smiling	030	sub-13	2.0	6.0	030_smiling	0.0		200.89241198113632	
28.0	169.5010349123304	fix	1.0		444	24.0	female	east_asian	4.409868682849185	smiling	030	sub-13	2.0	6.0	030_smiling	0.0		200.9923081125835	3.7665846323443475
28.0	170.1011261934991	pulse	1.0	t		24.0	female	east_asian	4.409868682849185	smiling	030	sub-13	2.0	6.0	030_smiling	0.0		201.5923993937522	
28.0	170.80111783209577	pulse	1.0	t		24.0	female	east_asian	4.409868682849185	smiling	030	sub-13	2.0	6.0	030_smiling	0.0		202.29239103234886	
28.0	171.50109890574277	pulse	1.0	t		24.0	female	east_asian	4.409868682849185	smiling	030	sub-13	2.0	6.0	030_smiling	0.0		202.99237210599586	
28.0	172.20108420536872	pulse	1.0	t		24.0	female	east_asian	4.409868682849185	smiling	030	sub-13	2.0	6.0	030_smiling	0.0		203.6923574056218	
28.0	172.9010833903585	pulse	1.0	t		24.0	female	east_asian	4.409868682849185	smiling	030	sub-13	2.0	6.0	030_smiling	0.0		204.3923565906116	
29.0	173.26761954467474	face	0.0		145	20.0	female	white	3.9502586549940313	neutral	091	sub-13	2.0	6.0	091_neutral	0.0		204.75889274492783	1.2333121329993446
29.0	173.60107019926363	pulse	0.0	t		20.0	female	white	3.9502586549940313	neutral	091	sub-13	2.0	6.0	091_neutral	0.0		205.09234339951672	
29.0	174.30104463208409	pulse	0.0	t		20.0	female	white	3.9502586549940313	neutral	091	sub-13	2.0	6.0	091_neutral	0.0		205.79231783233718	
29.0	174.5009316776741	fix	1.0		444	20.0	female	white	3.9502586549940313	neutral	091	sub-13	2.0	6.0	091_neutral	0.0		205.99220487792718	3.7666012344088813
29.0	175.00103838367068	pulse	1.0	t		20.0	female	white	3.9502586549940313	neutral	091	sub-13	2.0	6.0	091_neutral	0.0		206.49231158392377	
29.0	175.7010270037099	pulse	1.0	t		20.0	female	white	3.9502586549940313	neutral	091	sub-13	2.0	6.0	091_neutral	0.0		207.192300203963	
29.0	176.40102196271982	pulse	1.0	t		20.0	female	white	3.9502586549940313	neutral	091	sub-13	2.0	6.0	091_neutral	0.0		207.8922951629729	
29.0	177.10100514935675	pulse	1.0	t		20.0	female	white	3.9502586549940313	neutral	091	sub-13	2.0	6.0	091_neutral	0.0		208.59227834960984	
29.0	177.80097445062984	pulse	1.0	t		20.0	female	white	3.9502586549940313	neutral	091	sub-13	2.0	6.0	091_neutral	0.0		209.29224765088293	
30.0	178.26753291208297	face	0.0		145	21.0	male	east_asian/white	3.501790688420215	neutral	036	sub-13	2.0	6.0	036_neutral	0.0		209.75880611233606	1.2333109255778254
30.0	178.50098389871346	pulse	0.0	t		21.0	male	east_asian/white	3.501790688420215	neutral	036	sub-13	2.0	6.0	036_neutral	0.0		209.99225709896655	
30.0	179.2009652742163	pulse	0.0	t		21.0	male	east_asian/white	3.501790688420215	neutral	036	sub-13	2.0	6.0	036_neutral	0.0		210.69223847446938	
30.0	179.5008438376608	fix	1.0		444	21.0	male	east_asian/white	3.501790688420215	neutral	036	sub-13	2.0	6.0	036_neutral	0.0		210.99211703791389	3.766597612139776
30.0	179.9009611387928	pulse	1.0	t		21.0	male	east_asian/white	3.501790688420215	neutral	036	sub-13	2.0	6.0	036_neutral	0.0		211.3922343390459	
30.0	180.6009322512	pulse	1.0	t		21.0	male	east_asian/white	3.501790688420215	neutral	036	sub-13	2.0	6.0	036_neutral	0.0		212.09220545145308	
30.0	181.30091483412525	pulse	1.0	t		21.0	male	east_asian/white	3.501790688420215	neutral	036	sub-13	2.0	6.0	036_neutral	0.0		212.79218803437834	
30.0	182.00091220798095	pulse	1.0	t		21.0	male	east_asian/white	3.501790688420215	neutral	036	sub-13	2.0	6.0	036_neutral	0.0		213.49218540823404	
30.0	182.7009065632783	pulse	1.0	t		21.0	male	east_asian/white	3.501790688420215	neutral	036	sub-13	2.0	6.0	036_neutral	0.0		214.19217976353139	
31.0	183.26744144980057	face	0.0		145	19.0	male	white	2.243931555909272	smiling	130	sub-13	2.0	6.0	130_smiling	1.0	trustworthiness	214.75871465005366	1.2333266220748555
31.0	183.40087073300492	pulse	0.0	t		19.0	male	white	2.243931555909272	smiling	130	sub-13	2.0	6.0	130_smiling	1.0	trustworthiness	214.892143933258	
31.0	184.10087565325284	pulse	0.0	t		19.0	male	white	2.243931555909272	smiling	130	sub-13	2.0	6.0	130_smiling	1.0	trustworthiness	215.59214885350593	
31.0	184.50076807187543	fix	1.0		177	19.0	male	white	2.243931555909272	smiling	130	sub-13	2.0	6.0	130_smiling	1.0	trustworthiness	215.99204127212852	1.4999750969027446
31.0	184.80087574381014	pulse	1.0	t		19.0	male	white	2.243931555909272	smiling	130	sub-13	2.0	6.0	130_smiling	1.0	trustworthiness	216.29214894406323	
31.0	185.50086074158025	pulse	1.0	t		19.0	male	white	2.243931555909272	smiling	130	sub-13	2.0	6.0	130_smiling	1.0	trustworthiness	216.99213394183334	
31.0	186.00074316877817	rating	2.0		294	19.0	male	white	2.243931555909272	smiling	130	sub-13	2.0	6.0	130_smiling	1.0	trustworthiness	217.49201636903126	2.499956381849188
31.0	186.2008505690428	pulse	2.0	t		19.0	male	white	2.243931555909272	smiling	130	sub-13	2.0	6.0	130_smiling	1.0	trustworthiness	217.6921237692959	
31.0	186.90083224640057	pulse	2.0	t		19.0	male	white	2.243931555909272	smiling	130	sub-13	2.0	6.0	130_smiling	1.0	trustworthiness	218.39210544665366	
31.0	186.99248198147689	response	2.0	w		19.0	male	white	2.243931555909272	smiling	130	sub-13	2.0	6.0	130_smiling	1.0	trustworthiness	218.48375518172998	
31.0	187.60080698107686	pulse	2.0	t		19.0	male	white	2.243931555909272	smiling	130	sub-13	2.0	6.0	130_smiling	1.0	trustworthiness	219.09208018132995	
31.0	188.30081159946985	pulse	2.0	t		19.0	male	white	2.243931555909272	smiling	130	sub-13	2.0	6.0	130_smiling	1.0	trustworthiness	219.79208479972294	
31.0	188.50069955062736	fix	3.0		444	19.0	male	white	2.243931555909272	smiling	130	sub-13	2.0	6.0	130_smiling	1.0	trustworthiness	219.99197275088045	3.766566521000641
31.0	189.00079538981754	pulse	3.0	t		19.0	male	white	2.243931555909272	smiling	130	sub-13	2.0	6.0	130_smiling	1.0	trustworthiness	220.49206859007063	
31.0	189.70077827459863	pulse	3.0	t		19.0	male	white	2.243931555909272	smiling	130	sub-13	2.0	6.0	130_smiling	1.0	trustworthiness	221.19205147485172	
31.0	190.40077383731932	pulse	3.0	t		19.0	male	white	2.243931555909272	smiling	130	sub-13	2.0	6.0	130_smiling	1.0	trustworthiness	221.8920470375724	
31.0	191.1007612499361	pulse	3.0	t		19.0	male	white	2.243931555909272	smiling	130	sub-13	2.0	6.0	130_smiling	1.0	trustworthiness	222.5920344501892	
31.0	191.8007396068806	pulse	3.0	t		19.0	male	white	2.243931555909272	smiling	130	sub-13	2.0	6.0	130_smiling	1.0	trustworthiness	223.2920128071337	
32.0	192.267266071628	face	0.0		145	24.0	male	white	3.1153999204138483	neutral	012	sub-13	2.0	6.0	012_neutral	0.0		223.7585392718811	1.2333438278510584
32.0	192.50074664011936	pulse	0.0	t		24.0	male	white	3.1153999204138483	neutral	012	sub-13	2.0	6.0	012_neutral	0.0		223.99201984037245	
32.0	193.20075337150138	pulse	0.0	t		24.0	male	white	3.1153999204138483	neutral	012	sub-13	2.0	6.0	012_neutral	0.0		224.69202657175447	
32.0	193.50060989947906	fix	1.0		444	24.0	male	white	3.1153999204138483	neutral	012	sub-13	2.0	6.0	012_neutral	0.0		224.99188309973215	3.7665686339905733
32.0	193.90071059854654	pulse	1.0	t		24.0	male	white	3.1153999204138483	neutral	012	sub-13	2.0	6.0	012_neutral	0.0		225.39198379879963	
32.0	194.60069167219262	pulse	1.0	t		24.0	male	white	3.1153999204138483	neutral	012	sub-13	2.0	6.0	012_neutral	0.0		226.09196487244571	
32.0	195.30068421635679	pulse	1.0	t		24.0	male	white	3.1153999204138483	neutral	012	sub-13	2.0	6.0	012_neutral	0.0		226.79195741660988	
32.0	196.00066166773468	pulse	1.0	t		24.0	male	white	3.1153999204138483	neutral	012	sub-13	2.0	6.0	012_neutral	0.0		227.49193486798777	
32.0	196.70066447499266	pulse	1.0	t		24.0	male	white	3.1153999204138483	neutral	012	sub-13	2.0	6.0	012_neutral	0.0		228.19193767524575	
33.0	197.26717853346963	face	0.0		145	40.0	female	west_asian	1.5777954635893354	neutral	038	sub-13	2.0	6.0	038_neutral	0.0		228.75845173372272	1.2333429222835548
33.0	197.40065279317605	pulse	0.0	t		40.0	female	west_asian	1.5777954635893354	neutral	038	sub-13	2.0	6.0	038_neutral	0.0		228.89192599342914	
33.0	198.10063779094708	pulse	0.0	t		40.0	female	west_asian	1.5777954635893354	neutral	038	sub-13	2.0	6.0	038_neutral	0.0		229.59191099120017	
33.0	198.5005214557532	fix	1.0		444	40.0	female	west_asian	1.5777954635893354	neutral	038	sub-13	2.0	6.0	038_neutral	0.0		229.99179465600628	3.76658674533428
33.0	198.80061343119087	pulse	1.0	t		40.0	female	west_asian	1.5777954635893354	neutral	038	sub-13	2.0	6.0	038_neutral	0.0		230.29188663144396	
33.0	199.5005966178269	pulse	1.0	t		40.0	female	west_asian	1.5777954635893354	neutral	038	sub-13	2.0	6.0	038_neutral	0.0		230.99186981807998	
33.0	200.2005861434336	pulse	1.0	t		40.0	female	west_asian	1.5777954635893354	neutral	038	sub-13	2.0	6.0	038_neutral	0.0		231.6918593436867	
33.0	200.9005853284234	pulse	1.0	t		40.0	female	west_asian	1.5777954635893354	neutral	038	sub-13	2.0	6.0	038_neutral	0.0		232.3918585286765	
33.0	201.60055885567635	pulse	1.0	t		40.0	female	west_asian	1.5777954635893354	neutral	038	sub-13	2.0	6.0	038_neutral	0.0		233.09183205592944	
34.0	202.26710820108747	face	0.0		145	34.0	male	white	2.651014723438122	smiling	121	sub-13	2.0	6.0	121_smiling	0.0		233.75838140134056	1.233309114442818
34.0	202.300562266646	pulse	0.0	t		34.0	male	white	2.651014723438122	smiling	121	sub-13	2.0	6.0	121_smiling	0.0		233.7918354668991	
34.0	203.00054816998454	pulse	0.0	t		34.0	male	white	2.651014723438122	smiling	121	sub-13	2.0	6.0	121_smiling	0.0		234.49182137023763	
34.0	203.50041731553029	fix	1.0		443	34.0	male	white	2.651014723438122	smiling	121	sub-13	2.0	6.0	121_smiling	0.0		234.99169051578338	3.7666003288413776
34.0	203.7005280362082	pulse	1.0	t		34.0	male	white	2.651014723438122	smiling	121	sub-13	2.0	6.0	121_smiling	0.0		235.1918012364613	
34.0	204.40052027851561	pulse	1.0	t		34.0	male	white	2.651014723438122	smiling	121	sub-13	2.0	6.0	121_smiling	0.0		235.8917934787687	
34.0	205.1005040688642	pulse	1.0	t		34.0	male	white	2.651014723438122	smiling	121	sub-13	2.0	6.0	121_smiling	0.0		236.5917772691173	
34.0	205.80052106334097	pulse	1.0	t		34.0	male	white	2.651014723438122	smiling	121	sub-13	2.0	6.0	121_smiling	0.0		237.29179426359406	
34.0	206.50047315883785	pulse	1.0	t		34.0	male	white	2.651014723438122	smiling	121	sub-13	2.0	6.0	121_smiling	0.0		237.99174635909094	
34.0	207.20046992898187	pulse	1.0	t		34.0	male	white	2.651014723438122	smiling	121	sub-13	2.0	6.0	121_smiling	0.0		238.69174312923496	
35.0	207.26701764437166	face	0.0		146	21.0	male	black	2.969757262236371	neutral	137	sub-13	2.0	6.0	137_neutral	0.0		238.75829084462475	1.2333251127965923
35.0	207.90045553046457	pulse	0.0	t		21.0	male	black	2.969757262236371	neutral	137	sub-13	2.0	6.0	137_neutral	0.0		239.39172873071766	
35.0	208.50034275716826	fix	1.0		443	21.0	male	black	2.969757262236371	neutral	137	sub-13	2.0	6.0	137_neutral	0.0		239.99161595742135	3.76657497296128
35.0	208.60045018761775	pulse	1.0	t		21.0	male	black	2.969757262236371	neutral	137	sub-13	2.0	6.0	137_neutral	0.0		240.09172338787084	
35.0	209.30043216683134	pulse	1.0	t		21.0	male	black	2.969757262236371	neutral	137	sub-13	2.0	6.0	137_neutral	0.0		240.79170536708443	
35.0	210.00042531470717	pulse	1.0	t		21.0	male	black	2.969757262236371	neutral	137	sub-13	2.0	6.0	137_neutral	0.0		241.49169851496026	
35.0	210.70039552154776	pulse	1.0	t		21.0	male	black	2.969757262236371	neutral	137	sub-13	2.0	6.0	137_neutral	0.0		242.19166872180085	
35.0	211.40038927313435	pulse	1.0	t		21.0	male	black	2.969757262236371	neutral	137	sub-13	2.0	6.0	137_neutral	0.0		242.89166247338744	
35.0	212.10038875997907	pulse	1.0	t		21.0	male	black	2.969757262236371	neutral	137	sub-13	2.0	6.0	137_neutral	0.0		243.59166196023216	
36.0	212.26691773012953	face	0.0		146	20.0	male	black	2.609629924393156	neutral	043	sub-13	2.0	6.0	043_neutral	0.0		243.75819093038263	1.2333242072281791
36.0	212.8003755688842	pulse	0.0	t		20.0	male	black	2.609629924393156	neutral	043	sub-13	2.0	6.0	043_neutral	0.0		244.29164876913728	
36.0	213.5002419373577	fix	1.0		444	20.0	male	black	2.609629924393156	neutral	043	sub-13	2.0	6.0	043_neutral	0.0		244.9915151376108	3.7665994232747835
36.0	213.5077524094877	pulse	1.0	t		20.0	male	black	2.609629924393156	neutral	043	sub-13	2.0	6.0	043_neutral	0.0		244.99902560974078	
36.0	214.20034224401297	pulse	1.0	t		20.0	male	black	2.609629924393156	neutral	043	sub-13	2.0	6.0	043_neutral	0.0		245.69161544426606	
36.0	214.9003263362165	pulse	1.0	t		20.0	male	black	2.609629924393156	neutral	043	sub-13	2.0	6.0	043_neutral	0.0		246.39159953646958	
36.0	215.60031254141086	pulse	1.0	t		20.0	male	black	2.609629924393156	neutral	043	sub-13	2.0	6.0	043_neutral	0.0		247.09158574166395	
36.0	216.30031444310134	pulse	1.0	t		20.0	male	black	2.609629924393156	neutral	043	sub-13	2.0	6.0	043_neutral	0.0		247.79158764335443	
36.0	217.0002843480861	pulse	1.0	t		20.0	male	black	2.609629924393156	neutral	043	sub-13	2.0	6.0	043_neutral	0.0		248.4915575483392	
37.0	217.2668413606325	face	0.0		145	20.0	male	black	2.609629924393156	smiling	043	sub-13	2.0	6.0	043_smiling	0.0		248.7581145608856	1.2333229998057504
37.0	217.70027659039442	pulse	0.0	t		20.0	male	black	2.609629924393156	smiling	043	sub-13	2.0	6.0	043_smiling	0.0		249.1915497906475	
37.0	218.40027366239428	pulse	0.0	t		20.0	male	black	2.609629924393156	smiling	043	sub-13	2.0	6.0	043_smiling	0.0		249.89154686264737	
37.0	218.50016436043825	fix	1.0		444	20.0	male	black	2.609629924393156	smiling	043	sub-13	2.0	6.0	043_smiling	0.0		249.99143756069134	3.7665861416226107
37.0	219.100261376866	pulse	1.0	t		20.0	male	black	2.609629924393156	smiling	043	sub-13	2.0	6.0	043_smiling	0.0		250.5915345771191	
37.0	219.80023550783153	pulse	1.0	t		20.0	male	black	2.609629924393156	smiling	043	sub-13	2.0	6.0	043_smiling	0.0		251.29150870808462	
37.0	220.5002434466369	pulse	1.0	t		20.0	male	black	2.609629924393156	smiling	043	sub-13	2.0	6.0	043_smiling	0.0		251.99151664688998	
37.0	221.20023085925277	pulse	1.0	t		20.0	male	black	2.609629924393156	smiling	043	sub-13	2.0	6.0	043_smiling	0.0		252.69150405950586	
37.0	221.90020076423752	pulse	1.0	t		20.0	male	black	2.609629924393156	smiling	043	sub-13	2.0	6.0	043_smiling	0.0		253.39147396449061	
38.0	222.26675050206086	face	0.0		145	28.0	male	white	3.9076800636689217	smiling	033	sub-13	2.0	6.0	033_smiling	0.0		253.75802370231395	1.2333254146515173
38.0	222.60019391211335	pulse	0.0	t		28.0	male	white	3.9076800636689217	smiling	033	sub-13	2.0	6.0	033_smiling	0.0		254.09146711236644	
38.0	223.30019038040155	pulse	0.0	t		28.0	male	white	3.9076800636689217	smiling	033	sub-13	2.0	6.0	033_smiling	0.0		254.79146358065464	
38.0	223.50007591671238	fix	1.0		444	28.0	male	white	3.9076800636689217	smiling	033	sub-13	2.0	6.0	033_smiling	0.0		254.99134911696547	3.7665861416235202
38.0	224.00017869858493	pulse	1.0	t		28.0	male	white	3.9076800636689217	smiling	033	sub-13	2.0	6.0	033_smiling	0.0		255.49145189883802	
38.0	224.70016158336603	pulse	1.0	t		28.0	male	white	3.9076800636689217	smiling	033	sub-13	2.0	6.0	033_smiling	0.0		256.1914347836191	
38.0	225.4001417514446	pulse	1.0	t		28.0	male	white	3.9076800636689217	smiling	033	sub-13	2.0	6.0	033_smiling	0.0		256.8914149516977	
38.0	226.10013127705133	pulse	1.0	t		28.0	male	white	3.9076800636689217	smiling	033	sub-13	2.0	6.0	033_smiling	0.0		257.5914044773044	
38.0	226.80010269131526	pulse	1.0	t		28.0	male	white	3.9076800636689217	smiling	033	sub-13	2.0	6.0	033_smiling	0.0		258.29137589156835	
39.0	227.2666620583359	face	0.0		145	25.0	female	west_asian	2.6756864305610826	neutral	064	sub-13	2.0	6.0	064_neutral	0.0		258.757935258589	1.2333127367110137
39.0	227.50011334682222	pulse	0.0	t		25.0	female	west_asian	2.6756864305610826	neutral	064	sub-13	2.0	6.0	064_neutral	0.0		258.9913865470753	
39.0	228.20011585222437	pulse	0.0	t		25.0	female	west_asian	2.6756864305610826	neutral	064	sub-13	2.0	6.0	064_neutral	0.0		259.69138905247746	
39.0	228.4999747950469	fix	1.0		444	25.0	female	west_asian	2.6756864305610826	neutral	064	sub-13	2.0	6.0	064_neutral	0.0		259.9912479953	3.749947250713376
39.0	228.90009058690066	pulse	1.0	t		25.0	female	west_asian	2.6756864305610826	neutral	064	sub-13	2.0	6.0	064_neutral	0.0		260.39136378715375	
39.0	229.60006803827855	pulse	1.0	t		25.0	female	west_asian	2.6756864305610826	neutral	064	sub-13	2.0	6.0	064_neutral	0.0		261.09134123853164	
39.0	230.30005454532784	pulse	1.0	t		25.0	female	west_asian	2.6756864305610826	neutral	064	sub-13	2.0	6.0	064_neutral	0.0		261.79132774558093	
39.0	231.00003773196477	pulse	1.0	t		25.0	female	west_asian	2.6756864305610826	neutral	064	sub-13	2.0	6.0	064_neutral	0.0		262.49131093221786	
39.0	231.7000236353024	pulse	1.0	t		25.0	female	west_asian	2.6756864305610826	neutral	064	sub-13	2.0	6.0	064_neutral	0.0		263.1912968355555	
40.0	232.2499220457603	fix	0.0		720													263.7411952460134	5.99989797276703
40.0	232.40001980173474	pulse	0.0	t														263.89129300198783	
40.0	233.10001747744536	pulse	0.0	t														264.59129067769845	
40.0	233.79998376016192	pulse	0.0	t														265.291256960415	
40.0	234.4999612115398	pulse	0.0	t														265.9912344117929	
40.0	235.19997911158407	pulse	0.0	t														266.69125231183716	
40.0	235.8999659204892	pulse	0.0	t														267.3912391207423	
40.0	236.59994488114535	pulse	0.0	t														268.09121808139844	
40.0	237.2999999094427	pulse	0.0	t														268.7912731096958	
40.0	237.99992332864713	pulse	0.0	t														269.4911965289002	
