trial_nr	onset	event_type	phase	response	nr_frames	face_age	face_sex	face_eth	attractiveness	expression	face_id	sub_id	ses	run	trial_type	catch	rating_type	onset_abs	duration
-1.0	0.058644903469030396	fix	0.0		713													24.954837058249723	5.957899356781127
-1.0	0.7001184169257613	pulse	0.0	t														25.596310571706454	
-1.0	1.4000973777729087	pulse	0.0	t														26.2962895325536	
-1.0	2.100089016445054	pulse	0.0	t														26.996281171225746	
-1.0	2.800053790201673	pulse	0.0	t														27.696245944982365	
-1.0	3.5000345621665474	pulse	0.0	t														28.39622671694724	
-1.0	4.200024389720966	pulse	0.0	t														29.096216544501658	
-1.0	4.900003048715007	pulse	0.0	t														29.7961952034957	
-1.0	5.5999889521808655	pulse	0.0	t														30.496181106961558	
0.0	6.016544260250157	face	0.0		144	21.0	male	black	2.969757262236371	smiling	137	sub-14	1.0	5.0	137_smiling	0.0		30.91273641503085	1.2332910034838278
0.0	6.29996972414574	pulse	0.0	t		21.0	male	black	2.969757262236371	smiling	137	sub-14	1.0	5.0	137_smiling	0.0		31.196161878926432	
0.0	6.999941138667964	pulse	0.0	t		21.0	male	black	2.969757262236371	smiling	137	sub-14	1.0	5.0	137_smiling	0.0		31.896133293448656	
0.0	7.249835263733985	fix	1.0		444	21.0	male	black	2.969757262236371	smiling	137	sub-14	1.0	5.0	137_smiling	0.0		32.14602741851468	3.758229342463892
0.0	7.699931569928594	pulse	1.0	t		21.0	male	black	2.969757262236371	smiling	137	sub-14	1.0	5.0	137_smiling	0.0		32.59612372470929	
0.0	8.399913549304983	pulse	1.0	t		21.0	male	black	2.969757262236371	smiling	137	sub-14	1.0	5.0	137_smiling	0.0		33.296105704085676	
0.0	9.099890699034404	pulse	1.0	t		21.0	male	black	2.969757262236371	smiling	137	sub-14	1.0	5.0	137_smiling	0.0		33.996082853815096	
0.0	9.799868452469127	pulse	1.0	t		21.0	male	black	2.969757262236371	smiling	137	sub-14	1.0	5.0	137_smiling	0.0		34.69606060724982	
0.0	10.499853752228773	pulse	1.0	t		21.0	male	black	2.969757262236371	smiling	137	sub-14	1.0	5.0	137_smiling	0.0		35.396045907009466	
1.0	11.008064606197877	face	0.0		146	19.0	male	white	2.243931555909272	neutral	130	sub-14	1.0	5.0	130_neutral	0.0		35.90425676097857	1.2416375403690836
1.0	11.199836033458269	pulse	0.0	t		19.0	male	white	2.243931555909272	neutral	130	sub-14	1.0	5.0	130_neutral	0.0		36.09602818823896	
1.0	11.899812881334583	pulse	0.0	t		19.0	male	white	2.243931555909272	neutral	130	sub-14	1.0	5.0	130_neutral	0.0		36.796005036115275	
1.0	12.24970214656696	fix	1.0		444	19.0	male	white	2.243931555909272	neutral	130	sub-14	1.0	5.0	130_neutral	0.0		37.14589430134765	3.7582130424034403
1.0	12.599800897771274	pulse	1.0	t		19.0	male	white	2.243931555909272	neutral	130	sub-14	1.0	5.0	130_neutral	0.0		37.49599305255197	
1.0	13.299778651205997	pulse	1.0	t		19.0	male	white	2.243931555909272	neutral	130	sub-14	1.0	5.0	130_neutral	0.0		38.19597080598669	
1.0	13.999757913906251	pulse	1.0	t		19.0	male	white	2.243931555909272	neutral	130	sub-14	1.0	5.0	130_neutral	0.0		38.89595006868694	
1.0	14.699753778520062	pulse	1.0	t		19.0	male	white	2.243931555909272	neutral	130	sub-14	1.0	5.0	130_neutral	0.0		39.595945933300754	
1.0	15.399719155982893	pulse	1.0	t		19.0	male	white	2.243931555909272	neutral	130	sub-14	1.0	5.0	130_neutral	0.0		40.295911310763586	
2.0	16.0079151889704	face	0.0		146	22.0	female	west_asian	3.8205332272184642	smiling	066	sub-14	1.0	5.0	066_smiling	0.0		40.90410734375109	1.2416523311658239
2.0	16.099702644624813	pulse	0.0	t		22.0	female	west_asian	3.8205332272184642	smiling	066	sub-14	1.0	5.0	066_smiling	0.0		40.995894799405505	
2.0	16.799703942592714	pulse	0.0	t		22.0	female	west_asian	3.8205332272184642	smiling	066	sub-14	1.0	5.0	066_smiling	0.0		41.69589609737341	
2.0	17.249567520136225	fix	1.0		444	22.0	female	west_asian	3.8205332272184642	smiling	066	sub-14	1.0	5.0	066_smiling	0.0		42.14575967491692	3.758216664638894
2.0	17.499671734878575	pulse	1.0	t		22.0	female	west_asian	3.8205332272184642	smiling	066	sub-14	1.0	5.0	066_smiling	0.0		42.39586388965927	
2.0	18.199647375343375	pulse	1.0	t		22.0	female	west_asian	3.8205332272184642	smiling	066	sub-14	1.0	5.0	066_smiling	0.0		43.09583953012407	
2.0	18.899627845455143	pulse	1.0	t		22.0	female	west_asian	3.8205332272184642	smiling	066	sub-14	1.0	5.0	066_smiling	0.0		43.795820000235835	
2.0	19.59961163594926	pulse	1.0	t		22.0	female	west_asian	3.8205332272184642	smiling	066	sub-14	1.0	5.0	066_smiling	0.0		44.49580379072995	
2.0	20.299592407914133	pulse	1.0	t		22.0	female	west_asian	3.8205332272184642	smiling	066	sub-14	1.0	5.0	066_smiling	0.0		45.195784562694826	
3.0	21.00778418477512	face	0.0		147	19.0	female	white	4.298846000795861	neutral	100	sub-14	1.0	5.0	100_neutral	0.0		45.90397633955581	1.2416502181940814
3.0	21.000258084302004	pulse	0.0	t		19.0	female	white	4.298846000795861	neutral	100	sub-14	1.0	5.0	100_neutral	0.0		45.8964502390827	
3.0	21.69956512040426	pulse	0.0	t		19.0	female	white	4.298846000795861	neutral	100	sub-14	1.0	5.0	100_neutral	0.0		46.59575727518495	
3.0	22.2494344029692	fix	1.0		443	19.0	female	white	4.298846000795861	neutral	100	sub-14	1.0	5.0	100_neutral	0.0		47.14562655774989	3.7582302480241196
3.0	22.399543175692997	pulse	1.0	t		19.0	female	white	4.298846000795861	neutral	100	sub-14	1.0	5.0	100_neutral	0.0		47.29573533047369	
3.0	23.099519118009994	pulse	1.0	t		19.0	female	white	4.298846000795861	neutral	100	sub-14	1.0	5.0	100_neutral	0.0		47.995711272790686	
3.0	23.79950139923949	pulse	1.0	t		19.0	female	white	4.298846000795861	neutral	100	sub-14	1.0	5.0	100_neutral	0.0		48.69569355402018	
3.0	24.499483378616787	pulse	1.0	t		19.0	female	white	4.298846000795861	neutral	100	sub-14	1.0	5.0	100_neutral	0.0		49.39567553339748	
3.0	25.19946203760992	pulse	1.0	t		19.0	female	white	4.298846000795861	neutral	100	sub-14	1.0	5.0	100_neutral	0.0		50.09565419239061	
3.0	25.899442809574794	pulse	1.0	t		19.0	female	white	4.298846000795861	neutral	100	sub-14	1.0	5.0	100_neutral	0.0		50.795634964355486	
4.0	26.00766465099332	face	0.0		147	28.0	male	east_asian	1.5563072025467568	neutral	005	sub-14	1.0	5.0	005_neutral	0.0		50.90385680577401	1.2416381440752957
4.0	26.599429014893758	pulse	0.0	t		28.0	male	east_asian	1.5563072025467568	neutral	005	sub-14	1.0	5.0	005_neutral	0.0		51.49562116967445	
4.0	27.249302795068616	fix	1.0		443	28.0	male	east_asian	1.5563072025467568	neutral	005	sub-14	1.0	5.0	005_neutral	0.0		52.14549494984931	3.758229342463892
4.0	27.299422162831434	pulse	1.0	t		28.0	male	east_asian	1.5563072025467568	neutral	005	sub-14	1.0	5.0	005_neutral	0.0		52.195614317612126	
4.0	27.999381503233963	pulse	1.0	t		28.0	male	east_asian	1.5563072025467568	neutral	005	sub-14	1.0	5.0	005_neutral	0.0		52.895573658014655	
4.0	28.69937133078838	pulse	1.0	t		28.0	male	east_asian	1.5563072025467568	neutral	005	sub-14	1.0	5.0	005_neutral	0.0		53.59556348556907	
4.0	29.399376854697948	pulse	1.0	t		28.0	male	east_asian	1.5563072025467568	neutral	005	sub-14	1.0	5.0	005_neutral	0.0		54.29556900947864	
4.0	30.099329554334872	pulse	1.0	t		28.0	male	east_asian	1.5563072025467568	neutral	005	sub-14	1.0	5.0	005_neutral	0.0		54.995521709115565	
4.0	30.799313646683004	pulse	1.0	t		28.0	male	east_asian	1.5563072025467568	neutral	005	sub-14	1.0	5.0	005_neutral	0.0		55.695505801463696	
5.0	31.007532137532507	face	0.0		146	27.0	female	white	4.181058495821727	smiling	039	sub-14	1.0	5.0	039_smiling	0.0		55.9037242923132	1.2416275792211309
5.0	31.499308605738406	pulse	0.0	t		27.0	female	white	4.181058495821727	smiling	039	sub-14	1.0	5.0	039_smiling	0.0		56.3955007605191	
5.0	32.19927126652419	pulse	0.0	t		27.0	female	white	4.181058495821727	smiling	039	sub-14	1.0	5.0	039_smiling	0.0		57.095463421304885	
5.0	32.24915971675364	fix	1.0		446	27.0	female	white	4.181058495821727	smiling	039	sub-14	1.0	5.0	039_smiling	0.0		57.14535187153433	3.76653271437317
5.0	32.89927045152126	pulse	1.0	t		27.0	female	white	4.181058495821727	smiling	039	sub-14	1.0	5.0	039_smiling	0.0		57.79546260630195	
5.0	33.59923613083629	pulse	1.0	t		27.0	female	white	4.181058495821727	smiling	039	sub-14	1.0	5.0	039_smiling	0.0		58.49542828561698	
5.0	34.29922414727298	pulse	1.0	t		27.0	female	white	4.181058495821727	smiling	039	sub-14	1.0	5.0	039_smiling	0.0		59.19541630205367	
5.0	34.99919737291293	pulse	1.0	t		27.0	female	white	4.181058495821727	smiling	039	sub-14	1.0	5.0	039_smiling	0.0		59.895389527693624	
5.0	35.69918569120273	pulse	1.0	t		27.0	female	white	4.181058495821727	smiling	039	sub-14	1.0	5.0	039_smiling	0.0		60.59537784598342	
6.0	36.01569243112681	face	0.0		146	40.0	male	white	1.868682849184242	neutral	172	sub-14	1.0	5.0	172_neutral	0.0		60.9118845859075	1.2416779886689255
6.0	36.39917944284571	pulse	0.0	t		40.0	male	white	1.868682849184242	neutral	172	sub-14	1.0	5.0	172_neutral	0.0		61.2953715976264	
6.0	37.09914542401475	pulse	0.0	t		40.0	male	white	1.868682849184242	neutral	172	sub-14	1.0	5.0	172_neutral	0.0		61.99533757879544	
6.0	37.257370419795734	fix	1.0		445	40.0	male	white	1.868682849184242	neutral	172	sub-14	1.0	5.0	172_neutral	0.0		62.153562574576426	3.7665574663187726
6.0	37.79912830895046	pulse	1.0	t		40.0	male	white	1.868682849184242	neutral	172	sub-14	1.0	5.0	172_neutral	0.0		62.69532046373115	
6.0	38.4991075716498	pulse	1.0	t		40.0	male	white	1.868682849184242	neutral	172	sub-14	1.0	5.0	172_neutral	0.0		63.395299726430494	
6.0	39.19909739920422	pulse	1.0	t		40.0	male	white	1.868682849184242	neutral	172	sub-14	1.0	5.0	172_neutral	0.0		64.09528955398491	
6.0	39.89906971928576	pulse	1.0	t		40.0	male	white	1.868682849184242	neutral	172	sub-14	1.0	5.0	172_neutral	0.0		64.79526187406645	
6.0	40.599060754252605	pulse	1.0	t		40.0	male	white	1.868682849184242	neutral	172	sub-14	1.0	5.0	172_neutral	0.0		65.4952529090333	
7.0	41.02392788611451	face	0.0		145	21.0	male	east_asian/white	3.501790688420215	smiling	036	sub-14	1.0	5.0	036_smiling	0.0		65.9201200408952	1.2333079072504916
7.0	41.29904122436437	pulse	0.0	t		21.0	male	east_asian/white	3.501790688420215	smiling	036	sub-14	1.0	5.0	036_smiling	0.0		66.19523337914507	
7.0	41.999018977799096	pulse	0.0	t		21.0	male	east_asian/white	3.501790688420215	smiling	036	sub-14	1.0	5.0	036_smiling	0.0		66.89521113257979	
7.0	42.257235793365	fix	1.0		444	21.0	male	east_asian/white	3.501790688420215	smiling	036	sub-14	1.0	5.0	036_smiling	0.0		67.15342794814569	3.7665656163489984
7.0	42.69901303129518	pulse	1.0	t		21.0	male	east_asian/white	3.501790688420215	smiling	036	sub-14	1.0	5.0	036_smiling	0.0		67.59520518607587	
7.0	43.39897569208097	pulse	1.0	t		21.0	male	east_asian/white	3.501790688420215	smiling	036	sub-14	1.0	5.0	036_smiling	0.0		68.29516784686166	
7.0	44.09896129369372	pulse	1.0	t		21.0	male	east_asian/white	3.501790688420215	smiling	036	sub-14	1.0	5.0	036_smiling	0.0		68.99515344847441	
7.0	44.798939650834654	pulse	1.0	t		21.0	male	east_asian/white	3.501790688420215	smiling	036	sub-14	1.0	5.0	036_smiling	0.0		69.69513180561535	
7.0	45.49893310062453	pulse	1.0	t		21.0	male	east_asian/white	3.501790688420215	smiling	036	sub-14	1.0	5.0	036_smiling	0.0		70.39512525540522	
8.0	46.023801409714	face	0.0		145	32.0	male	white	2.389176283326701	neutral	092	sub-14	1.0	5.0	092_neutral	1.0	trustworthiness	70.91999356449469	1.2333027757495074
8.0	46.19891085406016	pulse	0.0	t		32.0	male	white	2.389176283326701	neutral	092	sub-14	1.0	5.0	092_neutral	1.0	trustworthiness	71.09510300884085	
8.0	46.89888196672928	pulse	0.0	t		32.0	male	white	2.389176283326701	neutral	092	sub-14	1.0	5.0	092_neutral	1.0	trustworthiness	71.79507412150997	
8.0	47.257104185463504	fix	1.0		177	32.0	male	white	2.389176283326701	neutral	092	sub-14	1.0	5.0	092_neutral	1.0	trustworthiness	72.1532963402442	1.5083273692216608
8.0	47.59886937945976	pulse	1.0	t		32.0	male	white	2.389176283326701	neutral	092	sub-14	1.0	5.0	092_neutral	1.0	trustworthiness	72.49506153424045	
8.0	48.29885075513084	pulse	1.0	t		32.0	male	white	2.389176283326701	neutral	092	sub-14	1.0	5.0	092_neutral	1.0	trustworthiness	73.19504290991154	
8.0	48.765431554685165	rating	2.0		293	32.0	male	white	2.389176283326701	neutral	092	sub-14	1.0	5.0	092_neutral	1.0	trustworthiness	73.66162370946586	2.491566982233053
8.0	48.99883152709572	pulse	2.0	t		32.0	male	white	2.389176283326701	neutral	092	sub-14	1.0	5.0	092_neutral	1.0	trustworthiness	73.89502368187641	
8.0	49.69882105279703	pulse	2.0	t		32.0	male	white	2.389176283326701	neutral	092	sub-14	1.0	5.0	092_neutral	1.0	trustworthiness	74.59501320757772	
8.0	50.398799409937965	pulse	2.0	t		32.0	male	white	2.389176283326701	neutral	092	sub-14	1.0	5.0	092_neutral	1.0	trustworthiness	75.29499156471866	
8.0	50.409802253091584	response	2.0	e		32.0	male	white	2.389176283326701	neutral	092	sub-14	1.0	5.0	092_neutral	1.0	trustworthiness	75.30599440787228	
8.0	51.09877867263822	pulse	2.0	t		32.0	male	white	2.389176283326701	neutral	092	sub-14	1.0	5.0	092_neutral	1.0	trustworthiness	75.99497082741891	
8.0	51.25699853691822	fix	3.0		444	32.0	male	white	2.389176283326701	neutral	092	sub-14	1.0	5.0	092_neutral	1.0	trustworthiness	76.15319069169891	3.7582033831085937
8.0	51.79877755578218	pulse	3.0	t		32.0	male	white	2.389176283326701	neutral	092	sub-14	1.0	5.0	092_neutral	1.0	trustworthiness	76.69496971056287	
8.0	52.49873357580145	pulse	3.0	t		32.0	male	white	2.389176283326701	neutral	092	sub-14	1.0	5.0	092_neutral	1.0	trustworthiness	77.39492573058214	
8.0	53.19872008297352	pulse	3.0	t		32.0	male	white	2.389176283326701	neutral	092	sub-14	1.0	5.0	092_neutral	1.0	trustworthiness	78.09491223775422	
8.0	53.89869753455514	pulse	3.0	t		32.0	male	white	2.389176283326701	neutral	092	sub-14	1.0	5.0	092_neutral	1.0	trustworthiness	78.79488968933583	
8.0	54.59868011763865	pulse	3.0	t		32.0	male	white	2.389176283326701	neutral	092	sub-14	1.0	5.0	092_neutral	1.0	trustworthiness	79.49487227241934	
9.0	55.01520192002681	face	0.0		146	26.0	male	white	2.7966573816155993	neutral	117	sub-14	1.0	5.0	117_neutral	0.0		79.9113940748075	1.2416641034315035
9.0	55.29866843592754	pulse	0.0	t		26.0	male	white	2.7966573816155993	neutral	117	sub-14	1.0	5.0	117_neutral	0.0		80.19486059070823	
9.0	55.99864498195075	pulse	0.0	t		26.0	male	white	2.7966573816155993	neutral	117	sub-14	1.0	5.0	117_neutral	0.0		80.89483713673144	
9.0	56.256866023458315	fix	1.0		444	26.0	male	white	2.7966573816155993	neutral	117	sub-14	1.0	5.0	117_neutral	0.0		81.15305817823901	3.758205496078517
9.0	56.698631790975014	pulse	1.0	t		26.0	male	white	2.7966573816155993	neutral	117	sub-14	1.0	5.0	117_neutral	0.0		81.5948239457557	
9.0	57.39860471476277	pulse	1.0	t		26.0	male	white	2.7966573816155993	neutral	117	sub-14	1.0	5.0	117_neutral	0.0		82.29479686954346	
9.0	58.09859303305166	pulse	1.0	t		26.0	male	white	2.7966573816155993	neutral	117	sub-14	1.0	5.0	117_neutral	0.0		82.99478518783235	
9.0	58.798568069810244	pulse	1.0	t		26.0	male	white	2.7966573816155993	neutral	117	sub-14	1.0	5.0	117_neutral	0.0		83.69476022459094	
9.0	59.49856121774792	pulse	1.0	t		26.0	male	white	2.7966573816155993	neutral	117	sub-14	1.0	5.0	117_neutral	0.0		84.39475337252861	
10.0	60.01507151953683	face	0.0		146	19.0	male	white	2.243931555909272	smiling	130	sub-14	1.0	5.0	130_smiling	0.0		84.91126367431752	1.2416604811960497
10.0	60.19853927303575	pulse	0.0	t		19.0	male	white	2.243931555909272	smiling	130	sub-14	1.0	5.0	130_smiling	0.0		85.09473142781644	
10.0	60.898519139441305	pulse	0.0	t		19.0	male	white	2.243931555909272	smiling	130	sub-14	1.0	5.0	130_smiling	0.0		85.794711294222	
10.0	61.25673200073288	fix	1.0		444	19.0	male	white	2.243931555909272	smiling	130	sub-14	1.0	5.0	130_smiling	0.0		86.15292415551357	3.7665484107292286
10.0	61.5985014206708	pulse	1.0	t		19.0	male	white	2.243931555909272	smiling	130	sub-14	1.0	5.0	130_smiling	0.0		86.49469357545149	
10.0	62.29848007966484	pulse	1.0	t		19.0	male	white	2.243931555909272	smiling	130	sub-14	1.0	5.0	130_smiling	0.0		87.19467223444553	
10.0	62.99845481457032	pulse	1.0	t		19.0	male	white	2.243931555909272	smiling	130	sub-14	1.0	5.0	130_smiling	0.0		87.89464696935102	
10.0	63.69843951062376	pulse	1.0	t		19.0	male	white	2.243931555909272	smiling	130	sub-14	1.0	5.0	130_smiling	0.0		88.59463166540445	
10.0	64.39842269741257	pulse	1.0	t		19.0	male	white	2.243931555909272	smiling	130	sub-14	1.0	5.0	130_smiling	0.0		89.29461485219326	
11.0	65.02328041146211	face	0.0		145	23.0	male	white	2.6275368085953046	smiling	141	sub-14	1.0	5.0	141_smiling	0.0		89.9194725662428	1.2333196795161712
11.0	65.09841463793782	pulse	0.0	t		23.0	male	white	2.6275368085953046	smiling	141	sub-14	1.0	5.0	141_smiling	0.0		89.99460679271851	
11.0	65.79839420249118	pulse	0.0	t		23.0	male	white	2.6275368085953046	smiling	141	sub-14	1.0	5.0	141_smiling	0.0		90.69458635727187	
11.0	66.25660009097828	fix	1.0		444	23.0	male	white	2.6275368085953046	smiling	141	sub-14	1.0	5.0	141_smiling	0.0		91.15279224575897	3.7665677293198314
11.0	66.49835716513007	pulse	1.0	t		23.0	male	white	2.6275368085953046	smiling	141	sub-14	1.0	5.0	141_smiling	0.0		91.39454931991077	
11.0	67.19834487971275	pulse	1.0	t		23.0	male	white	2.6275368085953046	smiling	141	sub-14	1.0	5.0	141_smiling	0.0		92.09453703449344	
11.0	67.898324142413	pulse	1.0	t		23.0	male	white	2.6275368085953046	smiling	141	sub-14	1.0	5.0	141_smiling	0.0		92.7945162971937	
11.0	68.59830853661424	pulse	1.0	t		23.0	male	white	2.6275368085953046	smiling	141	sub-14	1.0	5.0	141_smiling	0.0		93.49450069139493	
11.0	69.29842152018591	pulse	1.0	t		23.0	male	white	2.6275368085953046	smiling	141	sub-14	1.0	5.0	141_smiling	0.0		94.1946136749666	
11.0	69.9982646471899	pulse	1.0	t		23.0	male	white	2.6275368085953046	smiling	141	sub-14	1.0	5.0	141_smiling	0.0		94.89445680197059	
12.0	70.02316782029811	face	0.0		146	26.0	female	white	4.854755272582572	smiling	027	sub-14	1.0	5.0	027_smiling	1.0	attractiveness	94.9193599750788	1.2332988516609475
12.0	70.6982593043922	pulse	0.0	t		26.0	female	white	4.854755272582572	smiling	027	sub-14	1.0	5.0	027_smiling	1.0	attractiveness	95.59445145917289	
12.0	71.25646667195906	fix	1.0		177	26.0	female	white	4.854755272582572	smiling	027	sub-14	1.0	5.0	027_smiling	1.0	attractiveness	96.15265882673975	1.4999603063324685
12.0	71.39824309488631	pulse	1.0	t		26.0	female	white	4.854755272582572	smiling	027	sub-14	1.0	5.0	027_smiling	1.0	attractiveness	96.294435249667	
12.0	72.09822537611672	pulse	1.0	t		26.0	female	white	4.854755272582572	smiling	027	sub-14	1.0	5.0	027_smiling	1.0	attractiveness	96.99441753089741	
12.0	72.75642697829153	rating	2.0		294	26.0	female	white	4.854755272582572	smiling	027	sub-14	1.0	5.0	027_smiling	1.0	attractiveness	97.65261913307222	2.4999334414169425
12.0	72.79824961491158	pulse	2.0	t		26.0	female	white	4.854755272582572	smiling	027	sub-14	1.0	5.0	027_smiling	1.0	attractiveness	97.69444176969228	
12.0	73.49818631634025	pulse	2.0	t		26.0	female	white	4.854755272582572	smiling	027	sub-14	1.0	5.0	027_smiling	1.0	attractiveness	98.39437847112094	
12.0	74.19817523833535	pulse	2.0	t		26.0	female	white	4.854755272582572	smiling	027	sub-14	1.0	5.0	027_smiling	1.0	attractiveness	99.09436739311604	
12.0	74.63981634057018	response	2.0	b		26.0	female	white	4.854755272582572	smiling	027	sub-14	1.0	5.0	027_smiling	1.0	attractiveness	99.53600849535087	
12.0	74.89813789912114	pulse	2.0	t		26.0	female	white	4.854755272582572	smiling	027	sub-14	1.0	5.0	027_smiling	1.0	attractiveness	99.79433005390183	
12.0	75.25636041970847	fix	3.0		444	26.0	female	white	4.854755272582572	smiling	027	sub-14	1.0	5.0	027_smiling	1.0	attractiveness	100.15255257448916	3.7582821667374446
12.0	75.59813195261722	pulse	3.0	t		26.0	female	white	4.854755272582572	smiling	027	sub-14	1.0	5.0	027_smiling	1.0	attractiveness	100.49432410739792	
12.0	76.2981063856696	pulse	3.0	t		26.0	female	white	4.854755272582572	smiling	027	sub-14	1.0	5.0	027_smiling	1.0	attractiveness	101.19429854045029	
12.0	76.99808051686887	pulse	3.0	t		26.0	female	white	4.854755272582572	smiling	027	sub-14	1.0	5.0	027_smiling	1.0	attractiveness	101.89427267164956	
12.0	77.69806883515867	pulse	3.0	t		26.0	female	white	4.854755272582572	smiling	027	sub-14	1.0	5.0	027_smiling	1.0	attractiveness	102.59426098993936	
12.0	78.39805172009437	pulse	3.0	t		26.0	female	white	4.854755272582572	smiling	027	sub-14	1.0	5.0	027_smiling	1.0	attractiveness	103.29424387487506	
13.0	79.01464258644592	face	0.0		146	26.0	male	white	2.7966573816155993	smiling	117	sub-14	1.0	5.0	117_smiling	0.0		103.91083474122661	1.24158320683091
13.0	79.09803973653106	pulse	0.0	t		26.0	male	white	2.7966573816155993	smiling	117	sub-14	1.0	5.0	117_smiling	0.0		103.99423189131176	
13.0	79.798018093672	pulse	0.0	t		26.0	male	white	2.7966573816155993	smiling	117	sub-14	1.0	5.0	117_smiling	0.0		104.69421024845269	
13.0	80.25622579327683	fix	1.0		444	26.0	male	white	2.7966573816155993	smiling	117	sub-14	1.0	5.0	117_smiling	0.0		105.15241794805752	3.766554145936425
13.0	80.49800339343165	pulse	1.0	t		26.0	male	white	2.7966573816155993	smiling	117	sub-14	1.0	5.0	117_smiling	0.0		105.39419554821234	
13.0	81.19798507095493	pulse	1.0	t		26.0	male	white	2.7966573816155993	smiling	117	sub-14	1.0	5.0	117_smiling	0.0		106.09417722573562	
13.0	81.89795557991874	pulse	1.0	t		26.0	male	white	2.7966573816155993	smiling	117	sub-14	1.0	5.0	117_smiling	0.0		106.79414773469944	
13.0	82.59793725744203	pulse	1.0	t		26.0	male	white	2.7966573816155993	smiling	117	sub-14	1.0	5.0	117_smiling	0.0		107.49412941222272	
13.0	83.2979180294069	pulse	1.0	t		26.0	male	white	2.7966573816155993	smiling	117	sub-14	1.0	5.0	117_smiling	0.0		108.1941101841876	
13.0	83.99789095319466	pulse	1.0	t		26.0	male	white	2.7966573816155993	smiling	117	sub-14	1.0	5.0	117_smiling	0.0		108.89408310797535	
14.0	84.02277993921325	face	0.0		146	26.0	female	white	4.854755272582572	neutral	027	sub-14	1.0	5.0	027_neutral	0.0		108.91897209399394	1.2333151517213992
14.0	84.69788983633862	pulse	0.0	t		26.0	female	white	4.854755272582572	neutral	027	sub-14	1.0	5.0	027_neutral	0.0		109.59408199111931	
14.0	85.25609509093465	fix	1.0		443	26.0	female	white	4.854755272582572	neutral	027	sub-14	1.0	5.0	027_neutral	0.0		110.15228724571534	3.7665628996719533
14.0	85.39786608050872	pulse	1.0	t		26.0	female	white	4.854755272582572	neutral	027	sub-14	1.0	5.0	027_neutral	0.0		110.29405823528941	
14.0	86.0978405135611	pulse	1.0	t		26.0	female	white	4.854755272582572	neutral	027	sub-14	1.0	5.0	027_neutral	0.0		110.99403266834179	
14.0	86.7978230966437	pulse	1.0	t		26.0	female	white	4.854755272582572	neutral	027	sub-14	1.0	5.0	027_neutral	0.0		111.69401525142439	
14.0	87.49781141493258	pulse	1.0	t		26.0	female	white	4.854755272582572	neutral	027	sub-14	1.0	5.0	027_neutral	0.0		112.39400356971328	
14.0	88.19779279060367	pulse	1.0	t		26.0	female	white	4.854755272582572	neutral	027	sub-14	1.0	5.0	027_neutral	0.0		113.09398494538436	
14.0	88.89776933662688	pulse	1.0	t		26.0	female	white	4.854755272582572	neutral	027	sub-14	1.0	5.0	027_neutral	0.0		113.79396149140757	
15.0	89.0226579906066	face	0.0		146	21.0	male	black	2.969757262236371	neutral	137	sub-14	1.0	5.0	137_neutral	0.0		113.9188501453873	1.2333157554285208
15.0	89.59775644750425	pulse	0.0	t		21.0	male	black	2.969757262236371	neutral	137	sub-14	1.0	5.0	137_neutral	0.0		114.49394860228495	
15.0	90.25597374603512	fix	1.0		443	21.0	male	black	2.969757262236371	neutral	137	sub-14	1.0	5.0	137_neutral	0.0		115.15216590081582	3.758316276123878
15.0	90.29775653806064	pulse	1.0	t		21.0	male	black	2.969757262236371	neutral	137	sub-14	1.0	5.0	137_neutral	0.0		115.19394869284133	
15.0	90.99774455449642	pulse	1.0	t		21.0	male	black	2.969757262236371	neutral	137	sub-14	1.0	5.0	137_neutral	0.0		115.89393670927711	
15.0	91.69769272633948	pulse	1.0	t		21.0	male	black	2.969757262236371	neutral	137	sub-14	1.0	5.0	137_neutral	0.0		116.59388488112018	
15.0	92.39767742239292	pulse	1.0	t		21.0	male	black	2.969757262236371	neutral	137	sub-14	1.0	5.0	137_neutral	0.0		117.29386957717361	
15.0	93.09766060918173	pulse	1.0	t		21.0	male	black	2.969757262236371	neutral	137	sub-14	1.0	5.0	137_neutral	0.0		117.99385276396242	
15.0	93.79763655149873	pulse	1.0	t		21.0	male	black	2.969757262236371	neutral	137	sub-14	1.0	5.0	137_neutral	0.0		118.69382870627942	
16.0	94.014290022159	face	0.0		146	47.0	male	east_asian	2.171110226820533	neutral	024	sub-14	1.0	5.0	024_neutral	0.0		118.9104821769397	1.2415358159132666
16.0	94.49764056614367	pulse	0.0	t		47.0	male	east_asian	2.171110226820533	neutral	024	sub-14	1.0	5.0	024_neutral	0.0		119.39383272092437	
16.0	95.19760201951703	pulse	0.0	t		47.0	male	east_asian	2.171110226820533	neutral	024	sub-14	1.0	5.0	024_neutral	0.0		120.09379417429773	
16.0	95.25582583807227	fix	1.0		444	47.0	male	east_asian	2.171110226820533	neutral	024	sub-14	1.0	5.0	024_neutral	0.0		120.15201799285296	3.7665517311115764
16.0	95.89759516745471	pulse	1.0	t		47.0	male	east_asian	2.171110226820533	neutral	024	sub-14	1.0	5.0	024_neutral	0.0		120.7937873222354	
16.0	96.59756356344678	pulse	1.0	t		47.0	male	east_asian	2.171110226820533	neutral	024	sub-14	1.0	5.0	024_neutral	0.0		121.49375571822748	
16.0	97.29754433541166	pulse	1.0	t		47.0	male	east_asian	2.171110226820533	neutral	024	sub-14	1.0	5.0	024_neutral	0.0		122.19373649019235	
16.0	97.99752631478896	pulse	1.0	t		47.0	male	east_asian	2.171110226820533	neutral	024	sub-14	1.0	5.0	024_neutral	0.0		122.89371846956965	
16.0	98.69750618119451	pulse	1.0	t		47.0	male	east_asian	2.171110226820533	neutral	024	sub-14	1.0	5.0	024_neutral	0.0		123.5936983359752	
17.0	99.02237756918385	face	0.0		145	30.0	female	black	2.7345801830481498	neutral	062	sub-14	1.0	5.0	062_neutral	0.0		123.91856972396454	1.2333302443712455
17.0	99.39749812171976	pulse	0.0	t		30.0	female	black	2.7345801830481498	neutral	062	sub-14	1.0	5.0	062_neutral	0.0		124.29369027650046	
17.0	100.09746108435866	pulse	0.0	t		30.0	female	black	2.7345801830481498	neutral	062	sub-14	1.0	5.0	062_neutral	0.0		124.99365323913935	
17.0	100.25570781355509	fix	1.0		444	30.0	female	black	2.7345801830481498	neutral	062	sub-14	1.0	5.0	062_neutral	0.0		125.15189996833578	3.758198553459806
17.0	100.79743551741103	pulse	1.0	t		30.0	female	black	2.7345801830481498	neutral	062	sub-14	1.0	5.0	062_neutral	0.0		125.69362767219172	
17.0	101.49743017461333	pulse	1.0	t		30.0	female	black	2.7345801830481498	neutral	062	sub-14	1.0	5.0	062_neutral	0.0		126.39362232939402	
17.0	102.19741607807828	pulse	1.0	t		30.0	female	black	2.7345801830481498	neutral	062	sub-14	1.0	5.0	062_neutral	0.0		127.09360823285897	
17.0	102.89739051113065	pulse	1.0	t		30.0	female	black	2.7345801830481498	neutral	062	sub-14	1.0	5.0	062_neutral	0.0		127.79358266591134	
17.0	103.59743769075249	pulse	1.0	t		30.0	female	black	2.7345801830481498	neutral	062	sub-14	1.0	5.0	062_neutral	0.0		128.49362984553318	
18.0	104.0139063670149	face	0.0		146	20.0	male	black	2.609629924393156	neutral	043	sub-14	1.0	5.0	043_neutral	0.0		128.9100985217956	1.2416586700783228
18.0	104.29737258106343	pulse	0.0	t		20.0	male	black	2.609629924393156	neutral	043	sub-14	1.0	5.0	043_neutral	0.0		129.19356473584412	
18.0	104.99734490114497	pulse	0.0	t		20.0	male	black	2.609629924393156	neutral	043	sub-14	1.0	5.0	043_neutral	0.0		129.89353705592566	
18.0	105.25556503709322	fix	1.0		444	20.0	male	black	2.609629924393156	neutral	043	sub-14	1.0	5.0	043_neutral	0.0		130.1517571918739	3.7582969575332754
18.0	105.69733352128696	pulse	1.0	t		20.0	male	black	2.609629924393156	neutral	043	sub-14	1.0	5.0	043_neutral	0.0		130.59352567606766	
18.0	106.3973055395154	pulse	1.0	t		20.0	male	black	2.609629924393156	neutral	043	sub-14	1.0	5.0	043_neutral	0.0		131.2934976942961	
18.0	107.09728540592187	pulse	1.0	t		20.0	male	black	2.609629924393156	neutral	043	sub-14	1.0	5.0	043_neutral	0.0		131.99347756070256	
18.0	107.79726195194417	pulse	1.0	t		20.0	male	black	2.609629924393156	neutral	043	sub-14	1.0	5.0	043_neutral	0.0		132.69345410672486	
18.0	108.49725057208707	pulse	1.0	t		20.0	male	black	2.609629924393156	neutral	043	sub-14	1.0	5.0	043_neutral	0.0		133.39344272686776	
19.0	109.0138619946265	face	0.0		146	31.0	female	white	2.1822522881018704	neutral	102	sub-14	1.0	5.0	102_neutral	0.0		133.9100541494072	1.2415789808901536
19.0	109.19724190890611	pulse	0.0	t		31.0	female	white	2.1822522881018704	neutral	102	sub-14	1.0	5.0	102_neutral	0.0		134.0934340636868	
19.0	109.89721905863553	pulse	0.0	t		31.0	female	white	2.1822522881018704	neutral	102	sub-14	1.0	5.0	102_neutral	0.0		134.79341121341622	
19.0	110.25544097551665	fix	1.0		444	31.0	female	white	2.1822522881018704	neutral	102	sub-14	1.0	5.0	102_neutral	0.0		135.15163313029734	3.758277638941763
19.0	110.59720375468896	pulse	1.0	t		31.0	female	white	2.1822522881018704	neutral	102	sub-14	1.0	5.0	102_neutral	0.0		135.49339590946965	
19.0	111.29717909329975	pulse	1.0	t		31.0	female	white	2.1822522881018704	neutral	102	sub-14	1.0	5.0	102_neutral	0.0		136.19337124808044	
19.0	111.99715292264591	pulse	1.0	t		31.0	female	white	2.1822522881018704	neutral	102	sub-14	1.0	5.0	102_neutral	0.0		136.8933450774266	
19.0	112.69713550572942	pulse	1.0	t		31.0	female	white	2.1822522881018704	neutral	102	sub-14	1.0	5.0	102_neutral	0.0		137.5933276605101	
19.0	113.39711899437043	pulse	1.0	t		31.0	female	white	2.1822522881018704	neutral	102	sub-14	1.0	5.0	102_neutral	0.0		138.29331114915112	
20.0	114.01371861445841	face	0.0		146	40.0	male	white	1.868682849184242	smiling	172	sub-14	1.0	5.0	172_smiling	0.0		138.9099107692391	1.2415810938609866
20.0	114.0971248201331	pulse	0.0	t		40.0	male	white	1.868682849184242	smiling	172	sub-14	1.0	5.0	172_smiling	0.0		138.9933169749138	
20.0	114.79708657536048	pulse	0.0	t		40.0	male	white	1.868682849184242	smiling	172	sub-14	1.0	5.0	172_smiling	0.0		139.69327873014117	
20.0	115.2552997083194	fix	1.0		1185	40.0	male	white	1.868682849184242	smiling	172	sub-14	1.0	5.0	172_smiling	0.0		140.1514918631001	10.00818776221604
20.0	115.4970830436805	pulse	1.0	t		40.0	male	white	1.868682849184242	smiling	172	sub-14	1.0	5.0	172_smiling	0.0		140.3932751984612	
20.0	116.19704962855485	pulse	1.0	t		40.0	male	white	1.868682849184242	smiling	172	sub-14	1.0	5.0	172_smiling	0.0		141.09324178333554	
20.0	116.8970225523417	pulse	1.0	t		40.0	male	white	1.868682849184242	smiling	172	sub-14	1.0	5.0	172_smiling	0.0		141.7932147071224	
20.0	117.59700966321998	pulse	1.0	t		40.0	male	white	1.868682849184242	smiling	172	sub-14	1.0	5.0	172_smiling	0.0		142.49320181800067	
20.0	118.29698530368387	pulse	1.0	t		40.0	male	white	1.868682849184242	smiling	172	sub-14	1.0	5.0	172_smiling	0.0		143.19317745846456	
20.0	118.99699595909442	pulse	1.0	t		40.0	male	white	1.868682849184242	smiling	172	sub-14	1.0	5.0	172_smiling	0.0		143.8931881138751	
20.0	119.69695469579074	pulse	1.0	t		40.0	male	white	1.868682849184242	smiling	172	sub-14	1.0	5.0	172_smiling	0.0		144.59314685057143	
20.0	120.39754822931536	pulse	1.0	t		40.0	male	white	1.868682849184242	smiling	172	sub-14	1.0	5.0	172_smiling	0.0		145.29374038409605	
20.0	121.09691865454442	pulse	1.0	t		40.0	male	white	1.868682849184242	smiling	172	sub-14	1.0	5.0	172_smiling	0.0		145.99311080932512	
20.0	121.79689489871453	pulse	1.0	t		40.0	male	white	1.868682849184242	smiling	172	sub-14	1.0	5.0	172_smiling	0.0		146.69308705349522	
20.0	122.49688019847417	pulse	1.0	t		40.0	male	white	1.868682849184242	smiling	172	sub-14	1.0	5.0	172_smiling	0.0		147.39307235325487	
20.0	123.19686368711609	pulse	1.0	t		40.0	male	white	1.868682849184242	smiling	172	sub-14	1.0	5.0	172_smiling	0.0		148.09305584189678	
20.0	123.89683812016847	pulse	1.0	t		40.0	male	white	1.868682849184242	smiling	172	sub-14	1.0	5.0	172_smiling	0.0		148.79303027494916	
20.0	124.59682372178122	pulse	1.0	t		40.0	male	white	1.868682849184242	smiling	172	sub-14	1.0	5.0	172_smiling	0.0		149.4930158765619	
21.0	125.26348747053544	face	0.0		146	31.0	female	west_asian	2.364902506963788	smiling	006	sub-14	1.0	5.0	006_smiling	0.0		150.15967962531613	1.2415128750863005
21.0	125.2968108326586	pulse	0.0	t		31.0	female	west_asian	2.364902506963788	smiling	006	sub-14	1.0	5.0	006_smiling	0.0		150.1930029874393	
21.0	125.99679251018279	pulse	0.0	t		31.0	female	west_asian	2.364902506963788	smiling	006	sub-14	1.0	5.0	006_smiling	0.0		150.89298466496348	
21.0	126.50500034562174	fix	1.0		443	31.0	female	west_asian	2.364902506963788	smiling	006	sub-14	1.0	5.0	006_smiling	0.0		151.40119250040243	3.7583467632757674
21.0	126.69677328214675	pulse	1.0	t		31.0	female	west_asian	2.364902506963788	smiling	006	sub-14	1.0	5.0	006_smiling	0.0		151.59296543692744	
21.0	127.39674771519913	pulse	1.0	t		31.0	female	west_asian	2.364902506963788	smiling	006	sub-14	1.0	5.0	006_smiling	0.0		152.29293986997982	
21.0	128.09673180754726	pulse	1.0	t		31.0	female	west_asian	2.364902506963788	smiling	006	sub-14	1.0	5.0	006_smiling	0.0		152.99292396232795	
21.0	128.79670865542357	pulse	1.0	t		31.0	female	west_asian	2.364902506963788	smiling	006	sub-14	1.0	5.0	006_smiling	0.0		153.69290081020426	
21.0	129.49672082009874	pulse	1.0	t		31.0	female	west_asian	2.364902506963788	smiling	006	sub-14	1.0	5.0	006_smiling	0.0		154.39291297487944	
21.0	130.19667472714718	pulse	1.0	t		31.0	female	west_asian	2.364902506963788	smiling	006	sub-14	1.0	5.0	006_smiling	0.0		155.09286688192788	
22.0	130.2633471088975	face	0.0		147	19.0	female	white	4.298846000795861	smiling	100	sub-14	1.0	5.0	100_smiling	0.0		155.1595392636782	1.2415198177050115
22.0	130.8966636491432	pulse	0.0	t		19.0	female	white	4.298846000795861	smiling	100	sub-14	1.0	5.0	100_smiling	0.0		155.79285580392389	
22.0	131.50486692660252	fix	1.0		443	19.0	female	white	4.298846000795861	smiling	100	sub-14	1.0	5.0	100_smiling	0.0		156.4010590813832	3.75827552597093
22.0	131.59664472296117	pulse	1.0	t		19.0	female	white	4.298846000795861	smiling	100	sub-14	1.0	5.0	100_smiling	0.0		156.49283687774187	
22.0	132.296622778249	pulse	1.0	t		19.0	female	white	4.298846000795861	smiling	100	sub-14	1.0	5.0	100_smiling	0.0		157.1928149330297	
22.0	132.99659389091812	pulse	1.0	t		19.0	female	white	4.298846000795861	smiling	100	sub-14	1.0	5.0	100_smiling	0.0		157.8927860456988	
22.0	133.6965819073548	pulse	1.0	t		19.0	female	white	4.298846000795861	smiling	100	sub-14	1.0	5.0	100_smiling	0.0		158.5927740621355	
22.0	134.39656781082067	pulse	1.0	t		19.0	female	white	4.298846000795861	smiling	100	sub-14	1.0	5.0	100_smiling	0.0		159.29275996560136	
22.0	135.0965205104576	pulse	1.0	t		19.0	female	white	4.298846000795861	smiling	100	sub-14	1.0	5.0	100_smiling	0.0		159.9927126652383	
23.0	135.26314245257345	face	0.0		147	31.0	female	east_asian	3.395941106247513	smiling	087	sub-14	1.0	5.0	087_smiling	0.0		160.15933460735414	1.249934875218969
23.0	135.7965405233108	pulse	0.0	t		31.0	female	east_asian	3.395941106247513	smiling	087	sub-14	1.0	5.0	087_smiling	0.0		160.6927326780915	
23.0	136.49652582307044	pulse	0.0	t		31.0	female	east_asian	3.395941106247513	smiling	087	sub-14	1.0	5.0	087_smiling	0.0		161.39271797785113	
23.0	136.51307732779242	fix	1.0		443	31.0	female	east_asian	3.395941106247513	smiling	087	sub-14	1.0	5.0	087_smiling	0.0		161.4092694825731	3.749873749989092
23.0	137.1965117265354	pulse	1.0	t		31.0	female	east_asian	3.395941106247513	smiling	087	sub-14	1.0	5.0	087_smiling	0.0		162.09270388131608	
23.0	137.89647076508572	pulse	1.0	t		31.0	female	east_asian	3.395941106247513	smiling	087	sub-14	1.0	5.0	087_smiling	0.0		162.79266291986642	
23.0	138.59645878152241	pulse	1.0	t		31.0	female	east_asian	3.395941106247513	smiling	087	sub-14	1.0	5.0	087_smiling	0.0		163.4926509363031	
23.0	139.29643593125093	pulse	1.0	t		31.0	female	east_asian	3.395941106247513	smiling	087	sub-14	1.0	5.0	087_smiling	0.0		164.19262808603162	
23.0	139.9964106661564	pulse	1.0	t		31.0	female	east_asian	3.395941106247513	smiling	087	sub-14	1.0	5.0	087_smiling	0.0		164.8926028209371	
24.0	140.2629510777815	face	0.0		146	30.0	female	black	2.7345801830481498	smiling	062	sub-14	1.0	5.0	062_smiling	0.0		165.1591432325622	1.2416481052232484
24.0	140.69642796233256	pulse	0.0	t		30.0	female	black	2.7345801830481498	smiling	062	sub-14	1.0	5.0	062_smiling	0.0		165.59262011711326	
24.0	141.39638005826419	pulse	0.0	t		30.0	female	black	2.7345801830481498	smiling	062	sub-14	1.0	5.0	062_smiling	0.0		166.29257221304488	
24.0	141.50459918300476	fix	1.0		444	30.0	female	black	2.7345801830481498	smiling	062	sub-14	1.0	5.0	062_smiling	0.0		166.40079133778545	3.7665550514948336
24.0	142.0963638487583	pulse	1.0	t		30.0	female	black	2.7345801830481498	smiling	062	sub-14	1.0	5.0	062_smiling	0.0		166.992556003539	
24.0	142.79634160219302	pulse	1.0	t		30.0	female	black	2.7345801830481498	smiling	062	sub-14	1.0	5.0	062_smiling	0.0		167.69253375697372	
24.0	143.49633897607237	pulse	1.0	t		30.0	female	black	2.7345801830481498	smiling	062	sub-14	1.0	5.0	062_smiling	0.0		168.39253113085306	
24.0	144.19630314612277	pulse	1.0	t		30.0	female	black	2.7345801830481498	smiling	062	sub-14	1.0	5.0	062_smiling	0.0		169.09249530090347	
24.0	144.89628180511681	pulse	1.0	t		30.0	female	black	2.7345801830481498	smiling	062	sub-14	1.0	5.0	062_smiling	0.0		169.7924739598975	
25.0	145.2711542344996	face	0.0		145	36.0	female	white	2.7548746518105847	neutral	011	sub-14	1.0	5.0	011_neutral	0.0		170.16734638928028	1.2333145480160965
25.0	145.5962755567607	pulse	0.0	t		36.0	female	white	2.7548746518105847	neutral	011	sub-14	1.0	5.0	011_neutral	0.0		170.4924677115414	
25.0	146.2962702139621	pulse	0.0	t		36.0	female	white	2.7548746518105847	neutral	011	sub-14	1.0	5.0	011_neutral	0.0		171.19246236874278	
25.0	146.5044687825157	fix	1.0		444	36.0	female	white	2.7548746518105847	neutral	011	sub-14	1.0	5.0	011_neutral	0.0		171.40066093729638	3.7665656163489984
25.0	146.99624374145606	pulse	1.0	t		36.0	female	white	2.7548746518105847	neutral	011	sub-14	1.0	5.0	011_neutral	0.0		171.89243589623675	
25.0	147.6961982522107	pulse	1.0	t		36.0	female	white	2.7548746518105847	neutral	011	sub-14	1.0	5.0	011_neutral	0.0		172.5923904069914	
25.0	148.3961793260287	pulse	1.0	t		36.0	female	white	2.7548746518105847	neutral	011	sub-14	1.0	5.0	011_neutral	0.0		173.29237148080938	
25.0	149.09618303882053	pulse	1.0	t		36.0	female	white	2.7548746518105847	neutral	011	sub-14	1.0	5.0	011_neutral	0.0		173.99237519360122	
25.0	149.79615898113752	pulse	1.0	t		36.0	female	white	2.7548746518105847	neutral	011	sub-14	1.0	5.0	011_neutral	0.0		174.69235113591822	
26.0	150.27103439886469	face	0.0		145	28.0	male	white	3.9076800636689217	smiling	033	sub-14	1.0	5.0	033_smiling	0.0		175.16722655364538	1.2332970405423112
26.0	150.49614277163255	pulse	0.0	t		28.0	male	white	3.9076800636689217	smiling	033	sub-14	1.0	5.0	033_smiling	0.0		175.39233492641324	
26.0	151.19612082692038	pulse	0.0	t		28.0	male	white	3.9076800636689217	smiling	033	sub-14	1.0	5.0	033_smiling	0.0		176.09231298170107	
26.0	151.504331439407	fix	1.0		444	28.0	male	white	3.9076800636689217	smiling	033	sub-14	1.0	5.0	033_smiling	0.0		176.4005235941877	3.7582263239346503
26.0	151.89610190073836	pulse	1.0	t		28.0	male	white	3.9076800636689217	smiling	033	sub-14	1.0	5.0	033_smiling	0.0		176.79229405551905	
26.0	152.5960739189668	pulse	1.0	t		28.0	male	white	3.9076800636689217	smiling	033	sub-14	1.0	5.0	033_smiling	0.0		177.4922660737475	
26.0	153.2960577094609	pulse	1.0	t		28.0	male	white	3.9076800636689217	smiling	033	sub-14	1.0	5.0	033_smiling	0.0		178.1922498642416	
26.0	153.99603817957268	pulse	1.0	t		28.0	male	white	3.9076800636689217	smiling	033	sub-14	1.0	5.0	033_smiling	0.0		178.89223033435337	
26.0	154.69602287562702	pulse	1.0	t		28.0	male	white	3.9076800636689217	smiling	033	sub-14	1.0	5.0	033_smiling	0.0		179.59221503040771	
27.0	155.26255776334165	face	0.0		146	24.0	female	east_asian	2.9076800636689217	neutral	034	sub-14	1.0	5.0	034_neutral	1.0	trustworthiness	180.15874991812234	1.241645992253325
27.0	155.39602598471265	pulse	0.0	t		24.0	female	east_asian	2.9076800636689217	neutral	034	sub-14	1.0	5.0	034_neutral	1.0	trustworthiness	180.29221813949334	
27.0	156.09599438070472	pulse	0.0	t		24.0	female	east_asian	2.9076800636689217	neutral	034	sub-14	1.0	5.0	034_neutral	1.0	trustworthiness	180.99218653548542	
27.0	156.50420375559497	fix	1.0		177	24.0	female	east_asian	2.9076800636689217	neutral	034	sub-14	1.0	5.0	034_neutral	1.0	trustworthiness	181.40039591037566	1.4999575896554234
27.0	156.79597183228725	pulse	1.0	t		24.0	female	east_asian	2.9076800636689217	neutral	034	sub-14	1.0	5.0	034_neutral	1.0	trustworthiness	181.69216398706794	
27.0	157.49597826175523	pulse	1.0	t		24.0	female	east_asian	2.9076800636689217	neutral	034	sub-14	1.0	5.0	034_neutral	1.0	trustworthiness	182.39217041653592	
27.0	158.0041613452504	rating	2.0		294	24.0	female	east_asian	2.9076800636689217	neutral	034	sub-14	1.0	5.0	034_neutral	1.0	trustworthiness	182.9003535000311	2.4999403840356536
27.0	158.1959397151295	pulse	2.0	t		24.0	female	east_asian	2.9076800636689217	neutral	034	sub-14	1.0	5.0	034_neutral	1.0	trustworthiness	183.0921318699102	
27.0	158.89591897782884	pulse	2.0	t		24.0	female	east_asian	2.9076800636689217	neutral	034	sub-14	1.0	5.0	034_neutral	1.0	trustworthiness	183.79211113260953	
27.0	159.59590095720614	pulse	2.0	t		24.0	female	east_asian	2.9076800636689217	neutral	034	sub-14	1.0	5.0	034_neutral	1.0	trustworthiness	184.49209311198683	
27.0	160.28754666269833	response	2.0	b		24.0	female	east_asian	2.9076800636689217	neutral	034	sub-14	1.0	5.0	034_neutral	1.0	trustworthiness	185.18373881747902	
27.0	160.29888184598803	pulse	2.0	t		24.0	female	east_asian	2.9076800636689217	neutral	034	sub-14	1.0	5.0	034_neutral	1.0	trustworthiness	185.19507400076873	
27.0	160.50410172928605	fix	3.0		444	24.0	female	east_asian	2.9076800636689217	neutral	034	sub-14	1.0	5.0	034_neutral	1.0	trustworthiness	185.40029388406674	3.7665420718158202
27.0	160.9958631048421	pulse	3.0	t		24.0	female	east_asian	2.9076800636689217	neutral	034	sub-14	1.0	5.0	034_neutral	1.0	trustworthiness	185.8920552596228	
27.0	161.69583602862895	pulse	3.0	t		24.0	female	east_asian	2.9076800636689217	neutral	034	sub-14	1.0	5.0	034_neutral	1.0	trustworthiness	186.59202818340964	
27.0	162.39581046168132	pulse	3.0	t		24.0	female	east_asian	2.9076800636689217	neutral	034	sub-14	1.0	5.0	034_neutral	1.0	trustworthiness	187.292002616462	
27.0	163.09581447632627	pulse	3.0	t		24.0	female	east_asian	2.9076800636689217	neutral	034	sub-14	1.0	5.0	034_neutral	1.0	trustworthiness	187.99200663110696	
27.0	163.79577472228812	pulse	3.0	t		24.0	female	east_asian	2.9076800636689217	neutral	034	sub-14	1.0	5.0	034_neutral	1.0	trustworthiness	188.6919668770688	
28.0	164.27064380110187	face	0.0		145	40.0	male	black	2.408674890569041	neutral	061	sub-14	1.0	5.0	061_neutral	0.0		189.16683595588256	1.2333211887817015
28.0	164.4957868869633	pulse	0.0	t		40.0	male	black	2.408674890569041	neutral	061	sub-14	1.0	5.0	061_neutral	0.0		189.39197904174398	
28.0	165.1957450199543	pulse	0.0	t		40.0	male	black	2.408674890569041	neutral	061	sub-14	1.0	5.0	061_neutral	0.0		190.091937174735	
28.0	165.50396498988357	fix	1.0		444	40.0	male	black	2.408674890569041	neutral	061	sub-14	1.0	5.0	061_neutral	0.0		190.40015714466426	3.7582426239960114
28.0	165.89573182897857	pulse	1.0	t		40.0	male	black	2.408674890569041	neutral	061	sub-14	1.0	5.0	061_neutral	0.0		190.79192398375926	
28.0	166.5957104879726	pulse	1.0	t		40.0	male	black	2.408674890569041	neutral	061	sub-14	1.0	5.0	061_neutral	0.0		191.4919026427533	
28.0	167.29569095808438	pulse	1.0	t		40.0	male	black	2.408674890569041	neutral	061	sub-14	1.0	5.0	061_neutral	0.0		192.19188311286507	
28.0	167.99566539113675	pulse	1.0	t		40.0	male	black	2.408674890569041	neutral	061	sub-14	1.0	5.0	061_neutral	0.0		192.89185754591745	
28.0	168.6956449556892	pulse	1.0	t		40.0	male	black	2.408674890569041	neutral	061	sub-14	1.0	5.0	061_neutral	0.0		193.5918371104699	
29.0	169.26220761387958	face	0.0		146	40.0	female	west_asian	1.5777954635893354	smiling	038	sub-14	1.0	5.0	038_smiling	0.0		194.15839976866027	1.2416230514254494
29.0	169.39563629250915	pulse	0.0	t		40.0	female	west_asian	1.5777954635893354	smiling	038	sub-14	1.0	5.0	038_smiling	0.0		194.29182844728984	
29.0	170.09561827188554	pulse	0.0	t		40.0	female	west_asian	1.5777954635893354	smiling	038	sub-14	1.0	5.0	038_smiling	0.0		194.99181042666623	
29.0	170.50383066530503	fix	1.0		444	40.0	female	west_asian	1.5777954635893354	smiling	038	sub-14	1.0	5.0	038_smiling	0.0		195.40002282008572	3.7665638052312715
29.0	170.7955975345858	pulse	1.0	t		40.0	female	west_asian	1.5777954635893354	smiling	038	sub-14	1.0	5.0	038_smiling	0.0		195.6917896893665	
29.0	171.49560094552453	pulse	1.0	t		40.0	female	west_asian	1.5777954635893354	smiling	038	sub-14	1.0	5.0	038_smiling	0.0		196.39179310030522	
29.0	172.19555726739782	pulse	1.0	t		40.0	female	west_asian	1.5777954635893354	smiling	038	sub-14	1.0	5.0	038_smiling	0.0		197.0917494221785	
29.0	172.8956337267582	pulse	1.0	t		40.0	female	west_asian	1.5777954635893354	smiling	038	sub-14	1.0	5.0	038_smiling	0.0		197.7918258815389	
29.0	173.5955209242984	pulse	1.0	t		40.0	female	west_asian	1.5777954635893354	smiling	038	sub-14	1.0	5.0	038_smiling	0.0		198.4917130790791	
30.0	174.2703944705363	face	0.0		145	22.0	female	white	4.614007162753682	neutral	009	sub-14	1.0	5.0	009_neutral	0.0		199.166586625317	1.2333024738964014
30.0	174.29552735376637	pulse	0.0	t		22.0	female	white	4.614007162753682	neutral	009	sub-14	1.0	5.0	009_neutral	0.0		199.19171950854707	
30.0	174.99548820343443	pulse	0.0	t		22.0	female	white	4.614007162753682	neutral	009	sub-14	1.0	5.0	009_neutral	0.0		199.89168035821513	
30.0	175.5036969444327	fix	1.0		443	22.0	female	white	4.614007162753682	neutral	009	sub-14	1.0	5.0	009_neutral	0.0		200.3998890992134	3.7583205020664536
30.0	175.69547108837014	pulse	1.0	t		22.0	female	white	4.614007162753682	neutral	009	sub-14	1.0	5.0	009_neutral	0.0		200.59166324315083	
30.0	176.39544582327562	pulse	1.0	t		22.0	female	white	4.614007162753682	neutral	009	sub-14	1.0	5.0	009_neutral	0.0		201.29163797805631	
30.0	177.09542991562284	pulse	1.0	t		22.0	female	white	4.614007162753682	neutral	009	sub-14	1.0	5.0	009_neutral	0.0		201.99162207040354	
30.0	177.79541068758772	pulse	1.0	t		22.0	female	white	4.614007162753682	neutral	009	sub-14	1.0	5.0	009_neutral	0.0		202.6916028423684	
30.0	178.4953911576995	pulse	1.0	t		22.0	female	white	4.614007162753682	neutral	009	sub-14	1.0	5.0	009_neutral	0.0		203.39158331248018	
30.0	179.19538551304868	pulse	1.0	t		22.0	female	white	4.614007162753682	neutral	009	sub-14	1.0	5.0	009_neutral	0.0		204.09157766782937	
31.0	179.26201744649916	face	0.0		147	20.0	female	white	3.9502586549940313	neutral	091	sub-14	1.0	5.0	091_neutral	0.0		204.15820960127985	1.2415493992975826
31.0	179.89535873868954	pulse	0.0	t		20.0	female	white	3.9502586549940313	neutral	091	sub-14	1.0	5.0	091_neutral	0.0		204.79155089347023	
31.0	180.50356684579674	fix	1.0		443	20.0	female	white	3.9502586549940313	neutral	091	sub-14	1.0	5.0	091_neutral	0.0		205.39975900057743	3.7582486610554042
31.0	180.59535249033252	pulse	1.0	t		20.0	female	white	3.9502586549940313	neutral	091	sub-14	1.0	5.0	091_neutral	0.0		205.4915446451132	
31.0	181.2953154529714	pulse	1.0	t		20.0	female	white	3.9502586549940313	neutral	091	sub-14	1.0	5.0	091_neutral	0.0		206.1915076077521	
31.0	181.9952971304947	pulse	1.0	t		20.0	female	white	3.9502586549940313	neutral	091	sub-14	1.0	5.0	091_neutral	0.0		206.89148928527538	
31.0	182.69528967472615	pulse	1.0	t		20.0	female	white	3.9502586549940313	neutral	091	sub-14	1.0	5.0	091_neutral	0.0		207.59148182950685	
31.0	183.39527738930974	pulse	1.0	t		20.0	female	white	3.9502586549940313	neutral	091	sub-14	1.0	5.0	091_neutral	0.0		208.29146954409043	
31.0	184.0952442760372	pulse	1.0	t		20.0	female	white	3.9502586549940313	neutral	091	sub-14	1.0	5.0	091_neutral	0.0		208.99143643081788	
32.0	184.26181550685214	face	0.0		147	19.0	male	white	3.2522881018702745	smiling	018	sub-14	1.0	5.0	018_smiling	1.0	attractiveness	209.15800766163284	1.2499520808387388
32.0	184.79523048135616	pulse	0.0	t		19.0	male	white	3.2522881018702745	smiling	018	sub-14	1.0	5.0	018_smiling	1.0	attractiveness	209.69142263613685	
32.0	185.4952160829689	pulse	0.0	t		19.0	male	white	3.2522881018702745	smiling	018	sub-14	1.0	5.0	018_smiling	1.0	attractiveness	210.3914082377496	
32.0	185.51176758769088	fix	1.0		176	19.0	male	white	3.2522881018702745	smiling	018	sub-14	1.0	5.0	018_smiling	1.0	attractiveness	210.40795974247158	1.49162886209524
32.0	186.19518296969636	pulse	1.0	t		19.0	male	white	3.2522881018702745	smiling	018	sub-14	1.0	5.0	018_smiling	1.0	attractiveness	211.09137512447705	
32.0	186.895155289777	pulse	1.0	t		19.0	male	white	3.2522881018702745	smiling	018	sub-14	1.0	5.0	018_smiling	1.0	attractiveness	211.7913474445577	
32.0	187.00339644978612	rating	2.0		295	19.0	male	white	3.2522881018702745	smiling	018	sub-14	1.0	5.0	018_smiling	1.0	attractiveness	211.89958860456682	2.4999310265930035
32.0	187.59516111553967	pulse	2.0	t		19.0	male	white	3.2522881018702745	smiling	018	sub-14	1.0	5.0	018_smiling	1.0	attractiveness	212.49135327032036	
32.0	188.29513585044515	pulse	2.0	t		19.0	male	white	3.2522881018702745	smiling	018	sub-14	1.0	5.0	018_smiling	1.0	attractiveness	213.19132800522584	
32.0	188.44512418382692	response	2.0	w		19.0	male	white	3.2522881018702745	smiling	018	sub-14	1.0	5.0	018_smiling	1.0	attractiveness	213.3413163386076	
32.0	188.99511269832146	pulse	2.0	t		19.0	male	white	3.2522881018702745	smiling	018	sub-14	1.0	5.0	018_smiling	1.0	attractiveness	213.89130485310216	
32.0	189.50332747637913	fix	3.0		443	19.0	male	white	3.2522881018702745	smiling	018	sub-14	1.0	5.0	018_smiling	1.0	attractiveness	214.39951963115982	3.7665638052312715
32.0	189.695102827729	pulse	3.0	t		19.0	male	white	3.2522881018702745	smiling	018	sub-14	1.0	5.0	018_smiling	1.0	attractiveness	214.59129498250968	
32.0	190.3950799774575	pulse	3.0	t		19.0	male	white	3.2522881018702745	smiling	018	sub-14	1.0	5.0	018_smiling	1.0	attractiveness	215.2912721322382	
32.0	191.0950628623932	pulse	3.0	t		19.0	male	white	3.2522881018702745	smiling	018	sub-14	1.0	5.0	018_smiling	1.0	attractiveness	215.9912550171739	
32.0	191.7950318620915	pulse	3.0	t		19.0	male	white	3.2522881018702745	smiling	018	sub-14	1.0	5.0	018_smiling	1.0	attractiveness	216.69122401687218	
32.0	192.49502259520523	pulse	3.0	t		19.0	male	white	3.2522881018702745	smiling	018	sub-14	1.0	5.0	018_smiling	1.0	attractiveness	217.39121474998592	
32.0	193.19499823566912	pulse	3.0	t		19.0	male	white	3.2522881018702745	smiling	018	sub-14	1.0	5.0	018_smiling	1.0	attractiveness	218.0911903904498	
33.0	193.2698912816104	face	0.0		146	20.0	male	black	3.1070433744528456	neutral	082	sub-14	1.0	5.0	082_neutral	0.0		218.1660834363911	1.2332994553671597
33.0	193.89499621325467	pulse	0.0	t		20.0	male	black	3.1070433744528456	neutral	082	sub-14	1.0	5.0	082_neutral	0.0		218.79118836803536	
33.0	194.50319073697756	fix	1.0		443	20.0	male	black	3.1070433744528456	neutral	082	sub-14	1.0	5.0	082_neutral	0.0		219.39938289175825	3.7582239091107112
33.0	194.59497698521955	pulse	1.0	t		20.0	male	black	3.1070433744528456	neutral	082	sub-14	1.0	5.0	082_neutral	0.0		219.49116914000024	
33.0	195.29495504050738	pulse	1.0	t		20.0	male	black	3.1070433744528456	neutral	082	sub-14	1.0	5.0	082_neutral	0.0		220.19114719528807	
33.0	195.99494305694407	pulse	1.0	t		20.0	male	black	3.1070433744528456	neutral	082	sub-14	1.0	5.0	082_neutral	0.0		220.89113521172476	
33.0	196.6949033029059	pulse	1.0	t		20.0	male	black	3.1070433744528456	neutral	082	sub-14	1.0	5.0	082_neutral	0.0		221.5910954576866	
33.0	197.39489282860723	pulse	1.0	t		20.0	male	black	3.1070433744528456	neutral	082	sub-14	1.0	5.0	082_neutral	0.0		222.29108498338792	
33.0	198.094868167218	pulse	1.0	t		20.0	male	black	3.1070433744528456	neutral	082	sub-14	1.0	5.0	082_neutral	0.0		222.9910603219987	
34.0	198.26141464608827	face	0.0		147	40.0	female	west_asian	1.5777954635893354	neutral	038	sub-14	1.0	5.0	038_neutral	0.0		223.15760680086896	1.2499910198730504
34.0	198.794861918861	pulse	0.0	t		40.0	female	west_asian	1.5777954635893354	neutral	038	sub-14	1.0	5.0	038_neutral	0.0		223.69105407364168	
34.0	199.4948574816226	pulse	0.0	t		40.0	female	west_asian	1.5777954635893354	neutral	038	sub-14	1.0	5.0	038_neutral	0.0		224.3910496364033	
34.0	199.51140566596132	fix	1.0		443	40.0	female	west_asian	1.5777954635893354	neutral	038	sub-14	1.0	5.0	038_neutral	0.0		224.407597820742	3.7500361468955816
34.0	200.19483251838028	pulse	1.0	t		40.0	female	west_asian	1.5777954635893354	neutral	038	sub-14	1.0	5.0	038_neutral	0.0		225.09102467316097	
34.0	200.89479970696084	pulse	1.0	t		40.0	female	west_asian	1.5777954635893354	neutral	038	sub-14	1.0	5.0	038_neutral	0.0		225.79099186174153	
34.0	201.59478078077882	pulse	1.0	t		40.0	female	west_asian	1.5777954635893354	neutral	038	sub-14	1.0	5.0	038_neutral	0.0		226.4909729355595	
34.0	202.2947615527437	pulse	1.0	t		40.0	female	west_asian	1.5777954635893354	neutral	038	sub-14	1.0	5.0	038_neutral	0.0		227.1909537075244	
34.0	202.99476496368243	pulse	1.0	t		40.0	female	west_asian	1.5777954635893354	neutral	038	sub-14	1.0	5.0	038_neutral	0.0		227.89095711846312	
35.0	203.2614418128569	face	0.0		146	27.0	female	white	3.504576203740549	smiling	144	sub-14	1.0	5.0	144_smiling	0.0		228.1576339676376	1.2414884249947136
35.0	203.6947324541161	pulse	0.0	t		27.0	female	white	3.504576203740549	smiling	144	sub-14	1.0	5.0	144_smiling	0.0		228.59092460889678	
35.0	204.39471020755082	pulse	0.0	t		27.0	female	white	3.504576203740549	smiling	144	sub-14	1.0	5.0	144_smiling	0.0		229.2909023623315	
35.0	204.50293023785161	fix	1.0		444	27.0	female	white	3.504576203740549	smiling	144	sub-14	1.0	5.0	144_smiling	0.0		229.3991223926323	3.758261640733508
35.0	205.0946973184291	pulse	1.0	t		27.0	female	white	3.504576203740549	smiling	144	sub-14	1.0	5.0	144_smiling	0.0		229.9908894732098	
35.0	205.79479128526327	pulse	1.0	t		27.0	female	white	3.504576203740549	smiling	144	sub-14	1.0	5.0	144_smiling	0.0		230.69098344004396	
35.0	206.49466520127135	pulse	1.0	t		27.0	female	white	3.504576203740549	smiling	144	sub-14	1.0	5.0	144_smiling	0.0		231.39085735605204	
35.0	207.19463450282274	pulse	1.0	t		27.0	female	white	3.504576203740549	smiling	144	sub-14	1.0	5.0	144_smiling	0.0		232.09082665760343	
35.0	207.89461587849382	pulse	1.0	t		27.0	female	white	3.504576203740549	smiling	144	sub-14	1.0	5.0	144_smiling	0.0		232.79080803327452	
36.0	208.26119187858512	face	0.0		146	24.0	female	east_asian	4.409868682849185	neutral	030	sub-14	1.0	5.0	030_neutral	0.0		233.15738403336582	1.2416034309817405
36.0	208.5945978578702	pulse	0.0	t		24.0	female	east_asian	4.409868682849185	neutral	030	sub-14	1.0	5.0	030_neutral	0.0		233.4907900126509	
36.0	209.2945786298351	pulse	0.0	t		24.0	female	east_asian	4.409868682849185	neutral	030	sub-14	1.0	5.0	030_neutral	0.0		234.19077078461578	
36.0	209.50279530956686	fix	1.0		444	24.0	female	east_asian	4.409868682849185	neutral	030	sub-14	1.0	5.0	030_neutral	0.0		234.39898746434756	3.7665505237000616
36.0	209.99455879809375	pulse	1.0	t		24.0	female	east_asian	4.409868682849185	neutral	030	sub-14	1.0	5.0	030_neutral	0.0		234.89075095287444	
36.0	210.69453926820552	pulse	1.0	t		24.0	female	east_asian	4.409868682849185	neutral	030	sub-14	1.0	5.0	030_neutral	0.0		235.5907314229862	
36.0	211.39451641793494	pulse	1.0	t		24.0	female	east_asian	4.409868682849185	neutral	030	sub-14	1.0	5.0	030_neutral	0.0		236.29070857271563	
36.0	212.09450081213527	pulse	1.0	t		24.0	female	east_asian	4.409868682849185	neutral	030	sub-14	1.0	5.0	030_neutral	0.0		236.99069296691596	
36.0	212.79447645260007	pulse	1.0	t		24.0	female	east_asian	4.409868682849185	neutral	030	sub-14	1.0	5.0	030_neutral	0.0		237.69066860738076	
37.0	213.26934583326693	face	0.0		145	31.0	male	west_asian	1.9538400318344609	smiling	070	sub-14	1.0	5.0	070_smiling	0.0		238.16553798804762	1.2333166609869295
37.0	213.49448529689198	pulse	0.0	t		31.0	male	west_asian	1.9538400318344609	smiling	070	sub-14	1.0	5.0	070_smiling	0.0		238.39067745167267	
37.0	214.194474218888	pulse	0.0	t		31.0	male	west_asian	1.9538400318344609	smiling	070	sub-14	1.0	5.0	070_smiling	0.0		239.09066637366868	
37.0	214.50266249425385	fix	1.0		444	31.0	male	west_asian	1.9538400318344609	smiling	070	sub-14	1.0	5.0	070_smiling	0.0		239.39885464903455	3.76656863487824
37.0	214.89444080376234	pulse	1.0	t		31.0	male	west_asian	1.9538400318344609	smiling	070	sub-14	1.0	5.0	070_smiling	0.0		239.79063295854303	
37.0	215.5944091997544	pulse	1.0	t		31.0	male	west_asian	1.9538400318344609	smiling	070	sub-14	1.0	5.0	070_smiling	0.0		240.4906013545351	
37.0	216.29438846245466	pulse	1.0	t		31.0	male	west_asian	1.9538400318344609	smiling	070	sub-14	1.0	5.0	070_smiling	0.0		241.19058061723536	
37.0	216.99436591403628	pulse	1.0	t		31.0	male	west_asian	1.9538400318344609	smiling	070	sub-14	1.0	5.0	070_smiling	0.0		241.89055806881697	
37.0	217.69435725085623	pulse	1.0	t		31.0	male	west_asian	1.9538400318344609	smiling	070	sub-14	1.0	5.0	070_smiling	0.0		242.59054940563692	
38.0	218.2692311291321	face	0.0		145	27.0	male	black	3.5523278949462798	smiling	042	sub-14	1.0	5.0	042_smiling	1.0	dominance	243.1654232839128	1.2332997572202657
38.0	218.394345267292	pulse	0.0	t		27.0	male	black	3.5523278949462798	smiling	042	sub-14	1.0	5.0	042_smiling	1.0	dominance	243.2905374220727	
38.0	219.09431637996204	pulse	0.0	t		27.0	male	black	3.5523278949462798	smiling	042	sub-14	1.0	5.0	042_smiling	1.0	dominance	243.99050853474273	
38.0	219.50253088635236	fix	1.0		177	27.0	male	black	3.5523278949462798	smiling	042	sub-14	1.0	5.0	042_smiling	1.0	dominance	244.39872304113305	1.4999587970669381
38.0	219.7943028871332	pulse	1.0	t		27.0	male	black	3.5523278949462798	smiling	042	sub-14	1.0	5.0	042_smiling	1.0	dominance	244.6904950419139	
38.0	220.49424954971073	pulse	1.0	t		27.0	male	black	3.5523278949462798	smiling	042	sub-14	1.0	5.0	042_smiling	1.0	dominance	245.39044170449142	
38.0	221.0024896834193	rating	2.0		294	27.0	male	black	3.5523278949462798	smiling	042	sub-14	1.0	5.0	042_smiling	1.0	dominance	245.8986818382	2.499934950682473
38.0	221.1942870700368	pulse	2.0	t		27.0	male	black	3.5523278949462798	smiling	042	sub-14	1.0	5.0	042_smiling	1.0	dominance	246.0904792248175	
38.0	221.89424731599865	pulse	2.0	t		27.0	male	black	3.5523278949462798	smiling	042	sub-14	1.0	5.0	042_smiling	1.0	dominance	246.79043947077935	
38.0	222.5942259749927	pulse	2.0	t		27.0	male	black	3.5523278949462798	smiling	042	sub-14	1.0	5.0	042_smiling	1.0	dominance	247.4904181297734	
38.0	222.65559630906228	response	2.0	y		27.0	male	black	3.5523278949462798	smiling	042	sub-14	1.0	5.0	042_smiling	1.0	dominance	247.55178846384297	
38.0	223.29420372842742	pulse	2.0	t		27.0	male	black	3.5523278949462798	smiling	042	sub-14	1.0	5.0	042_smiling	1.0	dominance	248.1903958832081	
38.0	223.50242463410177	fix	3.0		444	27.0	male	black	3.5523278949462798	smiling	042	sub-14	1.0	5.0	042_smiling	1.0	dominance	248.39861678888246	3.7665469014636983
38.0	223.9941902355995	pulse	3.0	t		27.0	male	black	3.5523278949462798	smiling	042	sub-14	1.0	5.0	042_smiling	1.0	dominance	248.89038239038018	
38.0	224.69416889459353	pulse	3.0	t		27.0	male	black	3.5523278949462798	smiling	042	sub-14	1.0	5.0	042_smiling	1.0	dominance	249.59036104937422	
38.0	225.3941557036178	pulse	3.0	t		27.0	male	black	3.5523278949462798	smiling	042	sub-14	1.0	5.0	042_smiling	1.0	dominance	250.2903478583985	
38.0	226.09413436261184	pulse	3.0	t		27.0	male	black	3.5523278949462798	smiling	042	sub-14	1.0	5.0	042_smiling	1.0	dominance	250.99032651739253	
38.0	226.79410638084028	pulse	3.0	t		27.0	male	black	3.5523278949462798	smiling	042	sub-14	1.0	5.0	042_smiling	1.0	dominance	251.69029853562097	
39.0	227.26897153556547	face	0.0		145	24.0	female	east_asian	4.409868682849185	smiling	030	sub-14	1.0	5.0	030_smiling	0.0		252.16516369034616	1.2333226980463223
39.0	227.49409801951242	pulse	0.0	t		24.0	female	east_asian	4.409868682849185	smiling	030	sub-14	1.0	5.0	030_smiling	0.0		252.3902901742931	
39.0	228.194085734096	pulse	0.0	t		24.0	female	east_asian	4.409868682849185	smiling	030	sub-14	1.0	5.0	030_smiling	0.0		253.0902778888767	
39.0	228.5022942336118	fix	1.0		444	24.0	female	east_asian	4.409868682849185	smiling	030	sub-14	1.0	5.0	030_smiling	0.0		253.39848638839248	3.7498994074931034
39.0	228.8940686190317	pulse	1.0	t		24.0	female	east_asian	4.409868682849185	smiling	030	sub-14	1.0	5.0	030_smiling	0.0		253.7902607738124	
39.0	229.59404003355394	pulse	1.0	t		24.0	female	east_asian	4.409868682849185	smiling	030	sub-14	1.0	5.0	030_smiling	0.0		254.49023218833463	
39.0	230.29401869254798	pulse	1.0	t		24.0	female	east_asian	4.409868682849185	smiling	030	sub-14	1.0	5.0	030_smiling	0.0		255.19021084732867	
39.0	230.9940021811899	pulse	1.0	t		24.0	female	east_asian	4.409868682849185	smiling	030	sub-14	1.0	5.0	030_smiling	0.0		255.8901943359706	
39.0	231.69397510497674	pulse	1.0	t		24.0	female	east_asian	4.409868682849185	smiling	030	sub-14	1.0	5.0	030_smiling	0.0		256.59016725975744	
40.0	232.2521936411049	fix	0.0		720													257.1483857958856	5.999840923476768
40.0	232.39396946032593	pulse	0.0	t														257.2901616151066	
40.0	233.09393151740642	pulse	0.0	t														257.9901236721871	
40.0	233.79392043940152	pulse	0.0	t														258.6901125941822	
40.0	234.493920529957	pulse	0.0	t														259.3901126847377	
40.0	235.19388711483225	pulse	0.0	t														260.09007926961294	
40.0	235.89386969791485	pulse	0.0	t														260.79006185269554	
40.0	236.5938679773526	pulse	0.0	t														261.4900601321333	
40.0	237.29382943072687	pulse	0.0	t														262.19002158550757	
40.0	237.99380235451372	pulse	0.0	t														262.8899945092944	
