trial_nr	onset	event_type	phase	response	nr_frames	rating_type	face_id	repetition	session	rating	onset_abs	duration
0.0	0.009089095228773658	cue	0.0		479.0						596.6907606725404	3.992097790708158
0.0	4.0011868859369315	fix	1.0		120.0						600.6828584632485	1.0251437499373424
0.0	5.026330635874274	face	0.0		146.0	dominance	030	1.0	1		601.7080022131859	1.2753659891982352
0.0	6.301696625072509	rating	1.0		142.0	dominance	030	1.0	1		602.9833682023841	1.1915426226978525
0.0	7.4932392477703615	fix	2.0		60.0	dominance	030	1.0	1	0.0	604.174910825082	0.5168393215431024
1.0	8.010078569313464	face	0.0		147.0	dominance	130	1.0	1		604.691750146625	1.2333546944628324
1.0	9.243433263776296	rating	1.0		145.0	dominance	130	1.0	1		605.9251048410879	1.2167887007976788
1.0	10.460221964573975	fix	2.0		60.0	dominance	130	1.0	1	0.5899999999999999	607.1418935418856	0.5167535952955404
2.0	10.976975559869516	face	0.0		147.0	dominance	042	1.0	1		607.6586471371811	1.2334452503582725
2.0	12.210420810227788	rating	1.0		72.0	dominance	042	1.0	1		608.8920923875394	0.6083925392808851
2.0	12.818813349508673	fix	2.0		60.0	dominance	042	1.0	1	0.8099999999999996	609.5004849268203	0.5168018917729569
3.0	13.33561524128163	face	0.0		147.0	dominance	136	1.0	1		610.0172868185932	1.233392124232978
3.0	14.569007365514608	rating	1.0		87.0	dominance	136	1.0	1		611.2506789428262	0.733462305051944
3.0	15.302469670566552	fix	2.0		60.0	dominance	136	1.0	1	0.3200000000000003	611.9841412478781	0.5166953376697165
4.0	15.819165008236268	face	0.0		147.0	dominance	102	1.0	1		612.5008365855479	1.2334431373874395
4.0	17.052608145623708	rating	1.0		100.0	dominance	102	1.0	1		613.7342797229353	0.841755081921292
4.0	17.894363227545	fix	2.0		60.0	dominance	102	1.0	1	-0.020000000000000018	614.5760348048566	0.5167517841773588
5.0	18.41111501172236	face	0.0		147.0	dominance	066	1.0	1		615.092786589034	1.233442231828576
5.0	19.644557243550935	rating	1.0		66.0	dominance	066	1.0	1		616.3262288208625	0.5583911960352452
5.0	20.20294843958618	fix	2.0		60.0	dominance	066	1.0	1	0.5199999999999996	616.8846200168978	0.5167566138252369
6.0	20.719705053411417	face	0.0		147.0	dominance	034	1.0	1		617.401376630723	1.233437402180698
6.0	21.953142455592115	rating	1.0		110.0	dominance	034	1.0	1		618.6348140329037	0.9250991058811451
6.0	22.87824156147326	fix	2.0		60.0	dominance	034	1.0	1	0.3600000000000003	619.5599131387849	0.5167421248820574
7.0	23.394983686355317	face	0.0		147.0	dominance	012	1.0	1		620.0766552636669	1.2334479670353176
7.0	24.628431653390635	rating	1.0		129.0	dominance	012	1.0	1		621.3101032307022	1.0834545021525628
7.0	25.711886155543198	fix	2.0		60.0	dominance	012	1.0	1	1.0199999999999996	622.3935577328548	0.5167403137638757
8.0	26.228626469307073	face	0.0		147.0	dominance	144	1.0	1		622.9102980466187	1.233448570741075
8.0	27.46207504004815	rating	1.0		80.0	dominance	144	1.0	1		624.1437466173597	0.6750712599437065
8.0	28.137146299991855	fix	2.0		60.0	dominance	144	1.0	1	-0.029999999999999805	624.8188178773034	0.5167517841773588
9.0	28.653898084169214	face	0.0		147.0	dominance	061	1.0	1		625.3355696614808	1.2334392132988796
9.0	29.887337297468093	rating	1.0		98.0	dominance	061	1.0	1		626.5690088747797	0.8250900804769117
9.0	30.712427377945005	fix	2.0		60.0	dominance	061	1.0	1	1.0	627.3940989552566	0.5167508786184953
10.0	31.2291782565635	face	0.0		147.0	dominance	172	1.0	1		627.9108498338751	1.233450985565014
10.0	32.462629242128514	rating	1.0		124.0	dominance	172	1.0	1		629.1443008194401	1.041774340142183
10.0	33.5044035822707	fix	2.0		60.0	dominance	172	1.0	1	2.08	630.1860751595823	0.5167442378528904
11.0	34.02114782012359	face	0.0		147.0	dominance	005	1.0	1		630.7028193974352	1.2334627578311483
11.0	35.254610577954736	rating	1.0		88.0	dominance	005	1.0	1		631.9362821552663	0.7417219082785778
11.0	35.996332486233314	fix	2.0		60.0	dominance	005	1.0	1	0.009999999999999787	632.6780040635449	0.5167499730596319
12.0	36.513082459292946	face	0.0		147.0	dominance	087	1.0	1		633.1947540366045	1.2334449485051664
12.0	37.74652740779811	rating	1.0		73.0	dominance	087	1.0	1		634.4281989851097	0.6167369631962174
12.0	38.36326437099433	fix	2.0		60.0	dominance	087	1.0	1	-0.4900000000000002	635.0449359483059	0.5167424267347087
13.0	38.88000679772904	face	0.0		147.0	dominance	091	1.0	1		635.5616783750406	1.2334521929774382
13.0	40.11345899070648	rating	1.0		93.0	dominance	091	1.0	1		636.7951305680181	0.7834156536728187
13.0	40.896874644379295	fix	2.0		60.0	dominance	091	1.0	1	-1.2200000000000002	637.5785462216909	0.5167418230294061
14.0	41.4136164674087	face	0.0		147.0	dominance	024	1.0	1		638.0952880447203	1.233450985565014
14.0	42.647067452973715	rating	1.0		85.0	dominance	024	1.0	1		639.3287390302853	0.7167441774822692
14.0	43.363811630455984	fix	2.0		60.0	dominance	024	1.0	1	0.9800000000000004	640.0454832077676	0.5167348804102403
15.0	43.880546510866225	face	0.0		147.0	dominance	101	1.0	1		640.5622180881778	1.233457626330619
15.0	45.114004137196844	rating	1.0		132.0	dominance	101	1.0	1		641.7956757145084	1.1084424959499302
15.0	46.222446633146774	fix	2.0		60.0	dominance	101	1.0	1	2.51	642.9041182104584	0.5167496712069806
16.0	46.739196304353754	face	0.0		147.0	dominance	117	1.0	1		643.4208678816653	1.233450985565014
16.0	47.97264728991877	rating	1.0		90.0	dominance	117	1.0	1		644.6543188672304	0.7584071338724243
16.0	48.73105442379119	fix	2.0		60.0	dominance	117	1.0	1	2.4400000000000004	645.4127260011028	0.5167590286491759
17.0	49.24781345244037	face	0.0		147.0	dominance	006	1.0	1		645.929485029752	1.2334395151519857
17.0	50.481252967592354	rating	1.0		157.0	dominance	006	1.0	1		647.162924544904	1.316808291056077
17.0	51.79806125864843	fix	2.0		60.0	dominance	006	1.0	1	-0.009999999999999787	648.47973283596	0.5167433322940269
18.0	52.31480459094246	face	0.0		147.0	dominance	036	1.0	1		648.996476168254	1.2334431373874395
18.0	53.5482477283299	rating	1.0		39.0	dominance	036	1.0	1		650.2299193056415	0.33337368101547327
18.0	53.88162140934537	fix	2.0		60.0	dominance	036	1.0	1	0.0	650.563292986657	0.516743634147133
19.0	54.398365043492504	face	0.0		147.0	dominance	011	1.0	1		651.0800366208041	1.2334476651822115
19.0	55.631812708674715	rating	1.0		55.0	dominance	011	1.0	1		652.3134842859863	0.4667157278386185
19.0	56.098528436513334	fix	2.0		60.0	dominance	011	1.0	1	-0.3900000000000001	652.7802000138249	0.5167421248820574
20.0	56.61527056139539	face	0.0		147.0	dominance	039	1.0	1		653.296942138707	1.2334521929769835
20.0	57.848722754372375	rating	1.0		79.0	dominance	039	1.0	1		654.530394331684	0.6667352879117061
20.0	58.51545804228408	fix	2.0		60.0	dominance	039	1.0	1	-1.08	655.1971296195957	0.516745747117966
21.0	59.03220378940205	face	0.0		147.0	dominance	038	1.0	1		655.7138753667136	1.233439515151531
21.0	60.26564330455358	rating	1.0		72.0	dominance	038	1.0	1		656.9473148818652	0.6084055189594437
21.0	60.87404882351302	fix	2.0		60.0	dominance	038	1.0	1	-0.020000000000000018	657.5557204008246	0.5167454452648599
22.0	61.39079426877788	face	0.0		147.0	dominance	009	1.0	1		658.0724658460895	1.2334458540640298
22.0	62.62424012284191	rating	1.0		90.0	dominance	009	1.0	1		659.3059117001535	0.7584086431379546
22.0	63.382648765979866	fix	2.0		60.0	dominance	009	1.0	1	-2.02	660.0643203432915	0.5167490675003137
23.0	63.89939783348018	face	0.0		147.0	dominance	070	1.0	1		660.5810694107918	1.233442533681682
23.0	65.13284036716186	rating	1.0		71.0	dominance	070	1.0	1		661.8145119444735	0.6000635098680505
23.0	65.73290387702991	fix	2.0		60.0	dominance	070	1.0	1	2.2199999999999998	662.4145754543415	0.5167529915893283
24.0	66.24965686861924	face	0.0		147.0	dominance	092	1.0	1		662.9313284459308	1.2334392132988796
24.0	67.48309608191812	rating	1.0		81.0	dominance	092	1.0	1		664.1647676592297	0.6834069301216914
24.0	68.16650301203981	fix	2.0		60.0	dominance	092	1.0	1	1.6900000000000004	664.8481745893514	0.5167445397059964
25.0	68.68324755174581	face	0.0		147.0	dominance	027	1.0	1		665.3649191290574	1.2334485707415297
25.0	69.91669612248734	rating	1.0		47.0	dominance	027	1.0	1		666.5983676997989	0.4000397238523874
25.0	70.31673584633972	fix	2.0		60.0	dominance	027	1.0	1	-0.08000000000000007	666.9984074236513	0.51675480270751
26.0	70.83349064904723	face	0.0		147.0	dominance	126	1.0	1		667.5151622263588	1.233437402180698
26.0	72.06692805122793	rating	1.0		53.0	dominance	126	1.0	1		668.7485996285395	0.45005404677704064
26.0	72.51698209800497	fix	2.0		60.0	dominance	126	1.0	1	0.2400000000000002	669.1986536753166	0.5167466526768294
27.0	73.0337287506818	face	0.0		147.0	dominance	043	1.0	1		669.7154003279934	1.2334392132988796
27.0	74.26716796398068	rating	1.0		69.0	dominance	043	1.0	1		670.9488395412923	0.5834368437526791
27.0	74.85060480773336	fix	2.0		60.0	dominance	043	1.0	1	0.17999999999999972	671.532276385045	0.5167028839937302
28.0	75.36730769172709	face	0.0		147.0	dominance	044	1.0	1		672.0489792690387	1.2334549096540286
28.0	76.60076260138112	rating	1.0		118.0	dominance	044	1.0	1		673.2824341786927	0.9917672616893469
28.0	77.59252986307047	fix	2.0		60.0	dominance	044	1.0	1	0.6900000000000004	674.2742014403821	0.516750274912738
29.0	78.1092801379832	face	0.0		147.0	dominance	100	1.0	1		674.7909517152948	1.2334455522113785
29.0	79.34272569019458	rating	1.0		67.0	dominance	100	1.0	1		676.0243972675062	0.5667169050648226
29.0	79.9094425952594	fix	2.0		60.0	dominance	100	1.0	1	-1.62	676.591114172571	0.5167514823247075
30.0	80.42619407758411	face	0.0		147.0	dominance	064	1.0	1		677.1078656548957	1.2334524948300896
30.0	81.6596465724142	rating	1.0		80.0	dominance	064	1.0	1		678.3413181497258	0.6750715617963579
30.0	82.33471813421056	fix	2.0		60.0	dominance	064	1.0	1	-1.0099999999999998	679.0163897115222	0.5167448415586477
31.0	82.85146297576921	face	0.0		147.0	dominance	082	1.0	1		679.5331345530808	1.2334410244166065
31.0	84.08490400018582	rating	1.0		71.0	dominance	082	1.0	1		680.7665755774974	0.600066830250853
31.0	84.68497083043667	fix	2.0		60.0	dominance	082	1.0	1	0.3799999999999999	681.3666424077483	0.5167463508237233
32.0	85.20171718126039	face	0.0		147.0	dominance	121	1.0	1		681.883388758572	1.2334473633295602
32.0	86.43516454458995	rating	1.0		78.0	dominance	121	1.0	1		683.1168361219015	0.658405352940008
32.0	87.09356989752996	fix	2.0		60.0	dominance	121	1.0	1	1.7400000000000002	683.7752414748416	0.5167327674394073
33.0	87.61030266496937	face	0.0		147.0	dominance	033	1.0	1		684.291974242281	1.233457928183725
33.0	88.84376059315309	rating	1.0		119.0	dominance	033	1.0	1		685.5254321704647	1.0001077615156646
33.0	89.84386835466876	fix	2.0		60.0	dominance	033	1.0	1	2.8200000000000003	686.5255399319803	0.5167448415591025
34.0	90.36061319622786	face	0.0		147.0	dominance	137	1.0	1		687.0422847735394	1.2334413262692578
34.0	91.59405452249712	rating	1.0		66.0	dominance	137	1.0	1		688.2757260998087	0.5583914978883513
34.0	92.15244602038547	fix	2.0		60.0	dominance	137	1.0	1	2.04	688.8341175976971	0.5167496712065258
35.0	92.669195691592	face	0.0		147.0	dominance	062	1.0	1		689.3508672689036	1.233442533681682
35.0	93.90263822527368	rating	1.0		49.0	dominance	062	1.0	1		690.5843098025853	0.41671136606282744
35.0	94.3193495913365	fix	2.0		60.0	dominance	062	1.0	1	0.0	691.0010211686481	0.5167487656476624
36.0	94.83609835698417	face	0.0		147.0	dominance	141	1.0	1		691.5177699342958	1.233448872594181
36.0	96.06954722957835	rating	1.0		79.0	dominance	141	1.0	1		692.7512188068899	0.6667361934705696
36.0	96.73628342304892	fix	2.0		60.0	dominance	141	1.0	1	0.4900000000000002	693.4179550003605	0.516745747117966
37.0	97.25302917016688	face	0.0		147.0	dominance	018	1.0	1		693.9347007474785	1.233448570741075
37.0	98.48647774090796	rating	1.0		36.0	dominance	018	1.0	1		695.1681493182195	0.3083642556562154
37.0	98.79484199656417	fix	2.0		60.0	dominance	018	1.0	1	0.0	695.4765135738758	0.516746048971072
38.0	99.31158804553525	face	0.0		147.0	dominance	124	1.0	1		695.9932596228468	1.2334386095926675
38.0	100.54502665512791	rating	1.0		73.0	dominance	124	1.0	1		697.2266982324395	0.6167324354009907
38.0	101.1617590905289	fix	2.0		60.0	dominance	124	1.0	1	-1.87	697.8434306678405	0.5167469545299355
39.0	101.67850604505884	face	0.0		147.0	dominance	099	1.0	1		698.3601776223704	1.2334543059478165
39.0	102.91196035100666	rating	1.0		93.0	dominance	099	1.0	1		699.5936319283182	0.7834090129076685
39.0	103.69536936391432	fix	2.0		60.0	dominance	099	1.0	1	-0.9199999999999999	700.3770409412259	0.5000623326413915
40.0	104.19543169655572	cue	0.0		480.0						700.8771032738673	4.000433762739249
40.0	108.19586545929496	fix	1.0		120.0						704.8775370366066	1.0167963074927684
40.0	109.21266176678773	face	0.0		147.0	trustworthiness	126	1.0	1		705.8943333440993	1.233449174447287
40.0	110.44611094123502	rating	1.0		67.0	trustworthiness	126	1.0	1		707.1277825185466	0.5667259606548214
40.0	111.01283690188984	fix	2.0		60.0	trustworthiness	126	1.0	1	-0.18000000000000016	707.6945084792014	0.5167451434117538
41.0	111.5295820453016	face	0.0		147.0	trustworthiness	034	1.0	1		708.2112536226132	1.2334482688879689
41.0	112.76303031418956	rating	1.0		63.0	trustworthiness	034	1.0	1		709.4447018915012	0.5333832799406082
41.0	113.29641359413017	fix	2.0		60.0	trustworthiness	034	1.0	1	0.03000000000000025	709.9780851714418	0.5167454452648599
42.0	113.81315903939503	face	0.0		147.0	trustworthiness	136	1.0	1		710.4948306167066	1.2334546078009225
42.0	115.04661364719595	rating	1.0		51.0	trustworthiness	136	1.0	1		711.7282852245075	0.4333775749191773
42.0	115.47999122211513	fix	2.0		60.0	trustworthiness	136	1.0	1	-1.8199999999999998	712.1616627994267	0.516746048971072
43.0	115.9967372710862	face	0.0		147.0	trustworthiness	033	1.0	1		712.6784088483978	1.2334491744468323
43.0	117.23018644553304	rating	1.0		54.0	trustworthiness	033	1.0	1		713.9118580228446	0.45837160577639224
43.0	117.68855805130943	fix	2.0		60.0	trustworthiness	033	1.0	1	0.0	714.370229628621	0.5167532934424344
44.0	118.20531134475186	face	0.0		147.0	trustworthiness	039	1.0	1		714.8869829220635	1.2334389114457736
44.0	119.43875025619764	rating	1.0		52.0	trustworthiness	039	1.0	1		716.1204218335092	0.4417132450976169
44.0	119.88046350129525	fix	2.0		60.0	trustworthiness	039	1.0	1	1.7800000000000002	716.5621350786068	0.5167433322940269
45.0	120.39720683358928	face	0.0		147.0	trustworthiness	117	1.0	1		717.0788784109009	1.2334473633295602
45.0	121.63065419691884	rating	1.0		65.0	trustworthiness	117	1.0	1		718.3123257742304	0.5500588462391534
45.0	122.180713043158	fix	2.0		60.0	trustworthiness	117	1.0	1	0.79	718.8623846204696	0.5167557082663734
46.0	122.69746875142437	face	0.0		147.0	trustworthiness	124	1.0	1		719.379140328736	1.233437704033804
46.0	123.93090645545817	rating	1.0		90.0	trustworthiness	124	1.0	1		720.6125780327698	0.758413774638484
46.0	124.68932023009665	fix	2.0		60.0	trustworthiness	124	1.0	1	2.5199999999999996	721.3709918074082	0.5167457471175112
47.0	125.20606597721417	face	0.0		147.0	trustworthiness	092	1.0	1		721.8877375545258	1.2334546078009225
47.0	126.43952058501509	rating	1.0		54.0	trustworthiness	092	1.0	1		723.1211921623267	0.4583824724841179
47.0	126.8979030574992	fix	2.0		60.0	trustworthiness	092	1.0	1	-0.73	723.5795746348108	0.5167430304409208
48.0	127.41464608794013	face	0.0		147.0	trustworthiness	011	1.0	1		724.0963176652517	1.233440118857743
48.0	128.64808620679787	rating	1.0		69.0	trustworthiness	011	1.0	1		725.3297577841095	0.583404847336169
48.0	129.23149105413404	fix	2.0		60.0	trustworthiness	011	1.0	1	1.88	725.9131626314456	0.5167427285878148
49.0	129.74823378272185	face	0.0		147.0	trustworthiness	030	1.0	1		726.4299053600334	1.2334431373874395
49.0	130.9816769201093	rating	1.0		102.0	trustworthiness	030	1.0	1		727.6633484974209	0.8584252148666565
49.0	131.84010213497595	fix	2.0		60.0	trustworthiness	030	1.0	1	3.12	728.5217737122875	0.516750576765844
50.0	132.3568527117418	face	0.0		147.0	trustworthiness	038	1.0	1		729.0385242890534	1.2334380058864554
50.0	133.59029071762825	rating	1.0		64.0	trustworthiness	038	1.0	1		730.2719622949398	0.5417231760611685
50.0	134.13201389368942	fix	2.0		60.0	trustworthiness	038	1.0	1	0.6500000000000004	730.813685471001	0.5167557082659187
51.0	134.64876960195534	face	0.0		147.0	trustworthiness	144	1.0	1		731.3304411792669	1.2334364966218345
51.0	135.88220609857717	rating	1.0		62.0	trustworthiness	144	1.0	1		732.5638776758888	0.5250705505891347
51.0	136.4072766491663	fix	2.0		60.0	trustworthiness	144	1.0	1	1.62	733.0889482264779	0.5167351822633464
52.0	136.92401183142965	face	0.0		147.0	trustworthiness	062	1.0	1		733.6056834087412	1.233441628122364
52.0	138.15745345955202	rating	1.0		66.0	trustworthiness	062	1.0	1		734.8391250368636	0.5584138350091052
52.0	138.71586729456112	fix	2.0		60.0	trustworthiness	062	1.0	1	-0.7200000000000002	735.3975388718727	0.5167279377915293
53.0	139.23259523235265	face	0.0		147.0	trustworthiness	061	1.0	1		735.9142668096642	1.23345128741812
53.0	140.46604651977077	rating	1.0		75.0	trustworthiness	061	1.0	1		737.1477180970824	0.6334013609343856
53.0	141.09944788070516	fix	2.0		61.0	trustworthiness	061	1.0	1	-0.08000000000000007	737.7811194580167	0.5250771913547396
54.0	141.6245250720599	face	0.0		146.0	trustworthiness	042	1.0	1		738.3061966493715	1.2251153153865744
54.0	142.84964038744647	rating	1.0		54.0	trustworthiness	042	1.0	1		739.5313119647581	0.45837915210086067
54.0	143.30801953954733	fix	2.0		60.0	trustworthiness	042	1.0	1	0.6699999999999999	739.9896911168589	0.5167780453871273
55.0	143.82479758493446	face	0.0		147.0	trustworthiness	137	1.0	1		740.506469162246	1.2334075187354756
55.0	145.05820510366993	rating	1.0		62.0	trustworthiness	137	1.0	1		741.7398766809815	0.5250557597923944
55.0	145.58326086346233	fix	2.0		60.0	trustworthiness	137	1.0	1	0.9699999999999998	742.2649324407739	0.5167541990017526
56.0	146.10001506246408	face	0.0		147.0	trustworthiness	066	1.0	1		742.7816866397757	1.2334446466520603
56.0	147.33345970911614	rating	1.0		91.0	trustworthiness	066	1.0	1		744.0151312864277	0.7667479355523028
56.0	148.10020764466844	fix	2.0		60.0	trustworthiness	066	1.0	1	0.41999999999999993	744.78187922198	0.5167397100581184
57.0	148.61694735472656	face	0.0		147.0	trustworthiness	009	1.0	1		745.2986189320382	1.233446759623348
57.0	149.8503941143499	rating	1.0		95.0	trustworthiness	009	1.0	1		746.5320656916615	0.8000924273837882
57.0	150.6504865417337	fix	2.0		60.0	trustworthiness	009	1.0	1	3.42	747.3321581190453	0.516739106352361
58.0	151.16722564808606	face	0.0		147.0	trustworthiness	006	1.0	1		747.8488972253976	1.2334452503582725
58.0	152.40067089844433	rating	1.0		52.0	trustworthiness	006	1.0	1		749.0823424757559	0.44175791933957953
58.0	152.8424288177839	fix	2.0		60.0	trustworthiness	006	1.0	1	-0.3799999999999999	749.5241003950955	0.5167092229066839
59.0	153.3591380406906	face	0.0		147.0	trustworthiness	099	1.0	1		750.0408096180022	1.233439515151531
59.0	154.59257755584213	rating	1.0		38.0	trustworthiness	099	1.0	1		751.2742491331537	0.32503227563029213
59.0	154.91760983147242	fix	2.0		60.0	trustworthiness	099	1.0	1	0.0	751.599281408784	0.5167472563825868
60.0	155.434357087855	face	0.0		147.0	trustworthiness	130	1.0	1		752.1160286651666	1.2334461559175907
60.0	156.6678032437726	rating	1.0		91.0	trustworthiness	130	1.0	1		753.3494748210842	0.7667488411107115
60.0	157.4345520848833	fix	2.0		60.0	trustworthiness	130	1.0	1	1.0599999999999996	754.1162236621949	0.516793439889625
61.0	157.95134552477293	face	0.0		147.0	trustworthiness	100	1.0	1		754.6330171020845	1.233405707617294
61.0	159.18475123239023	rating	1.0		106.0	trustworthiness	100	1.0	1		755.8664228097018	0.891754614049205
61.0	160.07650584643943	fix	2.0		60.0	trustworthiness	100	1.0	1	1.38	756.758177423751	0.516746048971072
62.0	160.5932518954105	face	0.0		147.0	trustworthiness	087	1.0	1		757.2749234727221	1.2334476651822115
62.0	161.82669956059271	rating	1.0		70.0	trustworthiness	087	1.0	1		758.5083711379043	0.5917329711901402
62.0	162.41843253178286	fix	2.0		60.0	trustworthiness	087	1.0	1	2.17	759.1001041090944	0.5167448415591025
63.0	162.93517737334196	face	0.0		147.0	trustworthiness	005	1.0	1		759.6168489506535	1.2334494762999384
63.0	164.1686268496419	rating	1.0		83.0	trustworthiness	005	1.0	1		760.8502984269535	0.7000728371253899
63.0	164.8686996867673	fix	2.0		60.0	trustworthiness	005	1.0	1	0.20999999999999996	761.5503712640789	0.5167928361834129
64.0	165.3854925229507	face	0.0		147.0	trustworthiness	012	1.0	1		762.0671641002623	1.2334002742636585
64.0	166.61889279721436	rating	1.0		75.0	trustworthiness	012	1.0	1		763.300564374526	0.633397436845371
64.0	167.25229023405973	fix	2.0		60.0	trustworthiness	012	1.0	1	0.2599999999999998	763.9339618113713	0.5167487656476624
65.0	167.7690389997074	face	0.0		147.0	trustworthiness	044	1.0	1		764.450710577019	1.23344192997547
65.0	169.00248092968286	rating	1.0		90.0	trustworthiness	044	1.0	1		765.6841525069945	0.7584110579618937
65.0	169.76089198764475	fix	2.0		60.0	trustworthiness	044	1.0	1	1.92	766.4425635649563	0.5167554064132673
66.0	170.27764739405802	face	0.0		147.0	trustworthiness	091	1.0	1		766.9593189713696	1.233444344799409
66.0	171.51109173885743	rating	1.0		147.0	trustworthiness	091	1.0	1		768.192763316169	1.233459739301452
66.0	172.74455147815888	fix	2.0		60.0	trustworthiness	091	1.0	1	2.62	769.4262230554705	0.5167442378528904
67.0	173.26129571601177	face	0.0		147.0	trustworthiness	070	1.0	1		769.9429672933234	1.2334549096540286
67.0	174.4947506256658	rating	1.0		61.0	trustworthiness	070	1.0	1		771.1764222029774	0.5167122414363803
67.0	175.01146286710218	fix	2.0		60.0	trustworthiness	070	1.0	1	-2.44	771.6931344444138	0.5167523878835709
68.0	175.52821525498575	face	0.0		147.0	trustworthiness	018	1.0	1		772.2098868322973	1.2334410244166065
68.0	176.76165627940236	rating	1.0		68.0	trustworthiness	018	1.0	1		773.443327856714	0.5750598197155341
68.0	177.3367160991179	fix	2.0		60.0	trustworthiness	018	1.0	1	0.6900000000000004	774.0183876764295	0.5167451434117538
69.0	177.85346124252965	face	0.0		147.0	trustworthiness	102	1.0	1		774.5351328198412	1.233449174447287
69.0	179.08691041697693	rating	1.0		150.0	trustworthiness	102	1.0	1		775.7685819942885	1.2584667498372255
69.0	180.34537716681416	fix	2.0		60.0	trustworthiness	102	1.0	1	0.15000000000000036	777.0270487441258	0.5167460489706173
70.0	180.86212321578478	face	0.0		147.0	trustworthiness	121	1.0	1		777.5437947930964	1.2334540040947104
70.0	182.0955772198795	rating	1.0		52.0	trustworthiness	121	1.0	1		778.7772487971911	0.44171233953875344
70.0	182.53728955941824	fix	2.0		60.0	trustworthiness	121	1.0	1	0.0	779.2189611367298	0.5167442378528904
71.0	183.05403379727113	face	0.0		147.0	trustworthiness	101	1.0	1		779.7357053745827	1.2334416281228187
71.0	184.28747542539395	rating	1.0		107.0	trustworthiness	101	1.0	1		780.9691470027055	0.9000975286994617
71.0	185.1875729540934	fix	2.0		60.0	trustworthiness	101	1.0	1	1.1100000000000003	781.869244531405	0.5167451434117538
72.0	185.70431809750517	face	0.0		147.0	trustworthiness	172	1.0	1		782.3859896748168	1.233453400388953
72.0	186.93777149789412	rating	1.0		90.0	trustworthiness	172	1.0	1		783.6194430752057	0.7584128690796206
72.0	187.69618436697374	fix	2.0		60.0	trustworthiness	172	1.0	1	-3.46	784.3778559442853	0.5167469545294807
73.0	188.21293132150322	face	0.0		147.0	trustworthiness	141	1.0	1		784.8946028988148	1.2334437410936516
73.0	189.44637506259687	rating	1.0		75.0	trustworthiness	141	1.0	1		786.1280466399085	0.6333962294334015
73.0	190.07977129203027	fix	2.0		60.0	trustworthiness	141	1.0	1	1.4900000000000002	786.7614428693419	0.516752689736677
74.0	190.59652398176695	face	0.0		147.0	trustworthiness	027	1.0	1		787.2781955590785	1.233444344799409
74.0	191.82996832656636	rating	1.0		70.0	trustworthiness	027	1.0	1		788.511639903878	0.5917236137474902
74.0	192.42169194031385	fix	2.0		60.0	trustworthiness	027	1.0	1	0.6799999999999997	789.1033635176254	0.516752689736677
75.0	192.93844463005053	face	0.0		147.0	trustworthiness	043	1.0	1		789.6201162073621	1.233437704033804
75.0	194.17188233408433	rating	1.0		109.0	trustworthiness	043	1.0	1		790.8535539113959	0.9167676616443714
75.0	195.0886499957287	fix	2.0		60.0	trustworthiness	043	1.0	1	0.28000000000000025	791.7703215730403	0.5167463508237233
76.0	195.60539634655242	face	0.0		147.0	trustworthiness	064	1.0	1		792.287067923864	1.2334527966831956
76.0	196.83884914323562	rating	1.0		67.0	trustworthiness	064	1.0	1		793.5205207205472	0.5667175087710348
76.0	197.40556665200666	fix	2.0		60.0	trustworthiness	064	1.0	1	1.29	794.0872382293182	0.5167469545299355
77.0	197.9223136065366	face	0.0		147.0	trustworthiness	082	1.0	1		794.6039851838482	1.2334470614759994
77.0	199.1557606680126	rating	1.0		94.0	trustworthiness	082	1.0	1		795.8374322453242	0.7917564553526972
77.0	199.9475171233653	fix	2.0		60.0	trustworthiness	082	1.0	1	0.23000000000000043	796.6291887006769	0.5167439359997843
78.0	200.46426105936507	face	0.0		147.0	trustworthiness	036	1.0	1		797.1459326366767	1.2334479670353176
78.0	201.6977090264004	rating	1.0		69.0	trustworthiness	036	1.0	1		798.379380603712	0.5833885472752627
78.0	202.28109757367565	fix	2.0		60.0	trustworthiness	036	1.0	1	0.0	798.9627691509872	0.5167451434117538
79.0	202.7978427170874	face	0.0		147.0	trustworthiness	024	1.0	1		799.479514294399	1.233448872594181
79.0	204.0312915896816	rating	1.0		78.0	trustworthiness	024	1.0	1		800.7129631669932	0.6584107862936435
79.0	204.68970237597523	fix	2.0		60.0	trustworthiness	024	1.0	1	1.9400000000000004	801.3713739532868	0.5000466362862426
80.0	205.18974901226147	cue	0.0		480.0						801.8714205895731	4.000441007211066
80.0	209.19019001947254	fix	1.0		120.0						805.8718615967841	1.0167920815511025
80.0	210.20698210102364	face	0.0		147.0	attractiveness	121	1.0	1		806.8886536783352	1.2334476651822115
80.0	211.44042976620585	rating	1.0		65.0	attractiveness	121	1.0	1		808.1221013435174	0.550060657357335
80.0	211.9904904235632	fix	2.0		60.0	attractiveness	121	1.0	1	0.16999999999999993	808.6721620008748	0.5167508786184953
81.0	212.50724130218168	face	0.0		147.0	attractiveness	101	1.0	1		809.1889128794933	1.233440118857743
81.0	213.74068142103943	rating	1.0		70.0	attractiveness	101	1.0	1		810.422352998351	0.5917305563662012
81.0	214.33241197740563	fix	2.0		60.0	attractiveness	101	1.0	1	1.88	811.0140835547172	0.5167433322940269
82.0	214.84915530969965	face	0.0		147.0	attractiveness	039	1.0	1		811.5308268870112	1.233446759623348
82.0	216.082602069323	rating	1.0		65.0	attractiveness	039	1.0	1		812.7642736466346	0.5500597517984716
82.0	216.63266182112147	fix	2.0		60.0	attractiveness	039	1.0	1	1.9699999999999998	813.3143333984331	0.5167439359997843
83.0	217.14940575712126	face	0.0		147.0	attractiveness	124	1.0	1		813.8310773344328	1.2334476651822115
83.0	218.38285342230347	rating	1.0		66.0	attractiveness	124	1.0	1		815.0645249996151	0.5583981386539563
83.0	218.94125156095743	fix	2.0		60.0	attractiveness	124	1.0	1	3.2800000000000002	815.622923138269	0.5167421248820574
84.0	219.45799368583948	face	0.0		147.0	attractiveness	006	1.0	1		816.1396652631511	1.2334497781530445
84.0	220.69144346399253	rating	1.0		57.0	attractiveness	006	1.0	1		817.3731150413041	0.4833837478126952
84.0	221.17482721180522	fix	2.0		60.0	attractiveness	006	1.0	1	-1.25	817.8564987891168	0.5167403137638757
85.0	221.6915675255691	face	0.0		147.0	attractiveness	100	1.0	1		818.3732391028807	1.2334476651822115
85.0	222.9250151907513	rating	1.0		57.0	attractiveness	100	1.0	1		819.6066867680629	0.48339038857875494
85.0	223.40840557933006	fix	2.0		60.0	attractiveness	100	1.0	1	0.0	820.0900771566417	0.5167442378528904
86.0	223.92514981718296	face	0.0		147.0	attractiveness	034	1.0	1		820.6068213944945	1.233448872594181
86.0	225.15859868977714	rating	1.0		60.0	attractiveness	034	1.0	1		821.8402702670887	0.508379287934531
86.0	225.66697797771167	fix	2.0		60.0	attractiveness	034	1.0	1	0.5300000000000002	822.3486495550233	0.5167433322940269
87.0	226.1837213100057	face	0.0		147.0	attractiveness	009	1.0	1		822.8653928873173	1.2334546078009225
87.0	227.41717591780662	rating	1.0		62.0	attractiveness	009	1.0	1		824.0988474951182	0.5250491190267894
87.0	227.9422250368334	fix	2.0		60.0	attractiveness	009	1.0	1	2.8899999999999997	824.623896614145	0.5167659712678869
88.0	228.4589910081013	face	0.0		147.0	attractiveness	042	1.0	1		825.1406625854129	1.233432874385926
88.0	229.69242388248722	rating	1.0		108.0	attractiveness	042	1.0	1		826.3740954597988	0.9084310859070683
88.0	230.6008549683943	fix	2.0		60.0	attractiveness	042	1.0	1	0.009999999999999787	827.2825265457059	0.5167375970872854
89.0	231.11759256548157	face	0.0		147.0	attractiveness	099	1.0	1		827.7992641427932	1.2334552115071347
89.0	232.3510477769887	rating	1.0		41.0	attractiveness	099	1.0	1		829.0327193543003	0.3500320416942486
89.0	232.70107981868296	fix	2.0		60.0	attractiveness	099	1.0	1	0.0	829.3827513959945	0.516748161941905
90.0	233.21782798062486	face	0.0		147.0	attractiveness	005	1.0	1		829.8994995579365	1.233446457770242
90.0	234.4512744383951	rating	1.0		72.0	attractiveness	005	1.0	1		831.1329460157067	0.60838982260384
90.0	235.05966426099894	fix	2.0		60.0	attractiveness	005	1.0	1	-2.29	831.7413358383105	0.516750274912738
91.0	235.57641453591168	face	0.0		147.0	attractiveness	117	1.0	1		832.2580861132233	1.233444646652515
91.0	236.8098591825642	rating	1.0		85.0	attractiveness	117	1.0	1		833.4915307598758	0.716750214541662
91.0	237.52660939710586	fix	2.0		60.0	attractiveness	117	1.0	1	3.13	834.2082809744174	0.5167360878226646
92.0	238.04334548492852	face	0.0		147.0	attractiveness	172	1.0	1		834.7250170622401	1.23345521150668
92.0	239.2768006964352	rating	1.0		58.0	attractiveness	172	1.0	1		835.9584722737468	0.49171277722552986
92.0	239.76851347366073	fix	2.0		60.0	attractiveness	172	1.0	1	-1.7200000000000002	836.4501850509723	0.5167472563825868
93.0	240.28526073004332	face	0.0		147.0	attractiveness	027	1.0	1		836.9669323073549	1.233444344799409
93.0	241.51870507484273	rating	1.0		36.0	attractiveness	027	1.0	1		838.2003766521543	0.3083651612155336
93.0	241.82707023605826	fix	2.0		60.0	attractiveness	027	1.0	1	0.0	838.5087418133699	0.5167490675003137
94.0	242.34381930355858	face	0.0		147.0	attractiveness	087	1.0	1		839.0254908808702	1.2334416281228187
94.0	243.5772609316814	rating	1.0		56.0	attractiveness	087	1.0	1		840.258932508993	0.4750583406357691
94.0	244.05231927231716	fix	2.0		60.0	attractiveness	087	1.0	1	0.2599999999999998	840.7339908496288	0.5167439359997843
95.0	244.56906320831695	face	0.0		147.0	attractiveness	030	1.0	1		841.2507347856285	1.233446759623348
95.0	245.8025099679403	rating	1.0		69.0	attractiveness	030	1.0	1		842.4841815452519	0.5833966973054885
95.0	246.38590666524578	fix	2.0		60.0	attractiveness	030	1.0	1	0.5099999999999998	843.0675782425574	0.5167967602724275
96.0	246.9027034255182	face	0.0		147.0	attractiveness	061	1.0	1		843.5843750028298	1.2333885019970694
96.0	248.13609192751528	rating	1.0		90.0	attractiveness	061	1.0	1		844.8177635048269	0.7584122653734084
96.0	248.8945041928887	fix	2.0		60.0	attractiveness	061	1.0	1	-0.16999999999999993	845.5761757702003	0.516745747117966
97.0	249.41124994000666	face	0.0		147.0	attractiveness	144	1.0	1		846.0929215173182	1.233453400388953
97.0	250.6447033403956	rating	1.0		67.0	attractiveness	144	1.0	1		847.3263749177072	0.5667199235949738
97.0	251.21142326399058	fix	2.0		60.0	attractiveness	144	1.0	1	0.16999999999999993	847.8930948413022	0.5167523878835709
98.0	251.72817565187415	face	0.0		147.0	attractiveness	070	1.0	1		848.4098472291857	1.233449174447287
98.0	252.96162482632144	rating	1.0		53.0	attractiveness	070	1.0	1		849.643296403633	0.450038652274543
98.0	253.41166347859598	fix	2.0		60.0	attractiveness	070	1.0	1	-1.0899999999999999	850.0933350559076	0.516759632355388
99.0	253.92842311095137	face	0.0		147.0	attractiveness	043	1.0	1		850.610094688263	1.2334340817978955
99.0	255.16185719274927	rating	1.0		89.0	attractiveness	043	1.0	1		851.8435287700609	0.7500856507845128
99.0	255.91194284353378	fix	2.0		60.0	attractiveness	043	1.0	1	-1.6800000000000002	852.5936144208454	0.5167442378528904
100.0	256.42868708138667	face	0.0		147.0	attractiveness	102	1.0	1		853.1103586586983	1.2334479670353176
100.0	257.662135048422	rating	1.0		53.0	attractiveness	102	1.0	1		854.3438066257336	0.4500510282468895
100.0	258.1121860766689	fix	2.0		60.0	attractiveness	102	1.0	1	-0.4900000000000002	854.7938576539805	0.5167529915893283
101.0	258.6289390682582	face	0.0		147.0	attractiveness	036	1.0	1		855.3106106455698	1.2334361947687285
101.0	259.86237526302693	rating	1.0		57.0	attractiveness	036	1.0	1		856.5440468403385	0.4833762014882268
101.0	260.34575146451516	fix	2.0		60.0	attractiveness	036	1.0	1	-0.6099999999999999	857.0274230418268	0.5167529915893283
102.0	260.8625044561045	face	0.0		147.0	attractiveness	011	1.0	1		857.5441760334161	1.233446759623348
102.0	262.09595121572784	rating	1.0		65.0	attractiveness	011	1.0	1		858.7776227930394	0.5500579406807447
102.0	262.6460091564086	fix	2.0		60.0	attractiveness	011	1.0	1	0.0	859.3276807337202	0.5167391063519062
103.0	263.1627482627605	face	0.0		147.0	attractiveness	126	1.0	1		859.8444198400721	1.2334461559175907
103.0	264.3961944186781	rating	1.0		59.0	attractiveness	126	1.0	1		861.0778659959897	0.5000584085523769
103.0	264.89625282723046	fix	2.0		60.0	attractiveness	126	1.0	1	-0.96	861.577924404542	0.5167451434117538
104.0	265.4129979706422	face	0.0		147.0	attractiveness	044	1.0	1		862.0946695479538	1.2334419299759247
104.0	266.64643990061813	rating	1.0		55.0	attractiveness	044	1.0	1		863.3281114779297	0.4667154259855124
104.0	267.11315532660365	fix	2.0		60.0	attractiveness	044	1.0	1	0.6699999999999999	863.7948269039152	0.5167526897362222
105.0	267.62990801633987	face	0.0		147.0	attractiveness	062	1.0	1		864.3115795936515	1.2334410244166065
105.0	268.8633490407565	rating	1.0		61.0	attractiveness	062	1.0	1		865.5450206180681	0.5167191840550913
105.0	269.38006822481157	fix	2.0		60.0	attractiveness	062	1.0	1	-1.8399999999999999	866.0617398021232	0.516752991589783
106.0	269.89682121640135	face	0.0		147.0	attractiveness	092	1.0	1		866.5784927937129	1.2334389114453188
106.0	271.13026012784667	rating	1.0		60.0	attractiveness	092	1.0	1		867.8119317051583	0.5083883435245298
106.0	271.6386484713712	fix	2.0		60.0	attractiveness	092	1.0	1	-1.33	868.3203200486828	0.5167463508237233
107.0	272.1553948221949	face	0.0		147.0	attractiveness	091	1.0	1		868.8370663995065	1.2334449485056211
107.0	273.38883977070054	rating	1.0		72.0	attractiveness	091	1.0	1		870.0705113480121	0.6083994818995961
107.0	273.99723925260014	fix	2.0		60.0	attractiveness	091	1.0	1	0.29000000000000004	870.6789108299117	0.5167490675003137
108.0	274.51398832010045	face	0.0		147.0	attractiveness	038	1.0	1		871.195659897412	1.2334482688884236
108.0	275.7474365889889	rating	1.0		66.0	attractiveness	038	1.0	1		872.4291081663005	0.558435568423647
108.0	276.3058721574125	fix	2.0		60.0	attractiveness	038	1.0	1	-2.23	872.9875437347241	0.516693828404641
109.0	276.82256598581716	face	0.0		147.0	attractiveness	130	1.0	1		873.5042375631288	1.2334549096540286
109.0	278.0560208954712	rating	1.0		74.0	attractiveness	130	1.0	1		874.7376924727828	0.6250590499898863
109.0	278.6810799454611	fix	2.0		60.0	attractiveness	130	1.0	1	-0.2999999999999998	875.3627515227727	0.5167463508237233
110.0	279.1978262962848	face	0.0		147.0	attractiveness	024	1.0	1		875.8794978735964	1.233453702242059
110.0	280.43127999852686	rating	1.0		89.0	attractiveness	024	1.0	1		877.1129515758385	0.7500778026069383
110.0	281.1813578011338	fix	2.0		60.0	attractiveness	024	1.0	1	1.71	877.8630293784454	0.5167451434117538
111.0	281.69810294454555	face	0.0		147.0	attractiveness	136	1.0	1		878.3797745218571	1.233450985565014
111.0	282.93155393011057	rating	1.0		54.0	attractiveness	136	1.0	1		879.6132255074222	0.4583722094826044
111.0	283.3899261395932	fix	2.0		60.0	attractiveness	136	1.0	1	-1.31	880.0715977169048	0.516750274912738
112.0	283.9066764145059	face	0.0		147.0	attractiveness	033	1.0	1		880.5883479918175	1.233448872594181
112.0	285.1401252871001	rating	1.0		59.0	attractiveness	033	1.0	1		881.8217968644117	0.5000493529628329
112.0	285.6401746400629	fix	2.0		60.0	attractiveness	033	1.0	1	2.7	882.3218462173745	0.516743634147133
113.0	286.15691827421006	face	0.0		147.0	attractiveness	137	1.0	1		882.8385898515216	1.233446457770242
113.0	287.3903647319803	rating	1.0		81.0	attractiveness	137	1.0	1		884.0720363092919	0.6834120616226755
113.0	288.073776793603	fix	2.0		60.0	attractiveness	137	1.0	1	0.2400000000000002	884.7554483709146	0.5167403137638757
114.0	288.59051710736685	face	0.0		147.0	attractiveness	018	1.0	1		885.2721886846784	1.233444646652515
114.0	289.82396175401936	rating	1.0		71.0	attractiveness	018	1.0	1		886.505633331331	0.6000638117211565
114.0	290.4240255657405	fix	2.0		60.0	attractiveness	018	1.0	1	0.2699999999999996	887.1056971430521	0.5167445397059964
115.0	290.9407701054465	face	0.0		147.0	attractiveness	012	1.0	1		887.6224416827581	1.233448570741075
115.0	292.1742186761876	rating	1.0		62.0	attractiveness	012	1.0	1		888.8558902534992	0.525064211676181
115.0	292.6992828878638	fix	2.0		60.0	attractiveness	012	1.0	1	0.9699999999999998	889.3809544651754	0.5167424267351635
116.0	293.21602531459894	face	0.0		147.0	attractiveness	066	1.0	1		889.8976968919105	1.233448570741075
116.0	294.44947388534	rating	1.0		56.0	attractiveness	066	1.0	1		891.1311454626516	0.47504898319311906
116.0	294.92452286853313	fix	2.0		60.0	attractiveness	066	1.0	1	0.2400000000000002	891.6061944458447	0.5167454452648599
117.0	295.441268313798	face	0.0		147.0	attractiveness	082	1.0	1		892.1229398911096	1.2334470614759994
117.0	296.674715375274	rating	1.0		75.0	attractiveness	082	1.0	1		893.3563869525856	0.6333980405515831
117.0	297.3081134158256	fix	2.0		60.0	attractiveness	082	1.0	1	0.16000000000000014	893.9897849931372	0.5167469545299355
118.0	297.8248603703555	face	0.0		147.0	attractiveness	141	1.0	1		894.5065319476671	1.2334413262697126
118.0	299.0583016966252	rating	1.0		40.0	attractiveness	141	1.0	1		895.7399732739368	0.341723538284441
118.0	299.40002523490966	fix	2.0		60.0	attractiveness	141	1.0	1	-0.7200000000000002	896.0816968122213	0.5167219007321364
119.0	299.9167471356418	face	0.0		147.0	attractiveness	064	1.0	1		896.5984187129534	1.233448570741075
119.0	301.1501957063829	rating	1.0		48.0	attractiveness	064	1.0	1		897.8318672836945	0.40837539403128176
119.0	301.55857110041416	fix	2.0		60.0	attractiveness	064	1.0	1	-1.15	898.2402426777257	0.5000550881695744
120.0	302.05862618858373	cue	0.0		3600.0						898.7402977658953	30.003271180797583
120.0	327.23649155068233	response	0.0	return							923.9181631279939	
120.0	332.0618973693813	fix	1.0		120.0						928.7435689466929	1.000111081898467
120.0	333.0620084512798	cue	0.0		480.0						929.7436800285914	4.000433159033491
120.0	337.0624416103133	fix	1.0		120.0						933.7441131876249	1.0168053630823124
120.0	338.0792469733956	face	0.0		147.0	dominance	044	2.0	1		934.7609185507072	1.233437100327592
120.0	339.3126840737232	rating	1.0		72.0	dominance	044	2.0	1		935.9943556510348	0.6083961615167937
120.0	339.92108023523997	fix	2.0		60.0	dominance	044	2.0	1	0.3799999999999999	936.6027518125516	0.5167535952955404
121.0	340.4378338305355	face	0.0		147.0	dominance	030	2.0	1		937.1195054078471	1.2334389114457736
121.0	341.6712727419813	rating	1.0		79.0	dominance	030	2.0	1		938.3529443192929	0.6667455509132196
121.0	342.3380182928945	fix	2.0		61.0	dominance	030	2.0	1	-2.69	939.0196898702061	0.525071154294892
122.0	342.8630894471894	face	0.0		146.0	dominance	061	2.0	1		939.544761024501	1.2251132024157414
122.0	344.08820264960514	rating	1.0		134.0	dominance	061	2.0	1		940.7698742269167	1.1251277215442315
122.0	345.21333037114937	fix	2.0		60.0	dominance	061	2.0	1	0.2599999999999998	941.895001948461	0.5167409174700879
123.0	345.73007128861946	face	0.0		147.0	dominance	034	2.0	1		942.411742865931	1.233444042946303
123.0	346.96351533156576	rating	1.0		61.0	dominance	034	2.0	1		943.6451869088773	0.5167246174091815
123.0	347.48023994897494	fix	2.0		60.0	dominance	034	2.0	1	-0.2599999999999998	944.1619115262865	0.5167523878835709
124.0	347.9969923368585	face	0.0		147.0	dominance	117	2.0	1		944.6786639141701	1.2334361947687285
124.0	349.23042853162724	rating	1.0		57.0	dominance	117	2.0	1		945.9121001089388	0.4833825404007257
124.0	349.71381107202797	fix	2.0		60.0	dominance	117	2.0	1	1.88	946.3954826493396	0.5167532934424344
125.0	350.2305643654704	face	0.0		147.0	dominance	136	2.0	1		946.912235942782	1.2334434392405456
125.0	351.46400780471095	rating	1.0		73.0	dominance	136	2.0	1		948.1456793820225	0.6167282094593247
125.0	352.08073601417027	fix	2.0		60.0	dominance	136	2.0	1	0.8499999999999996	948.7624075914819	0.5167535952955404
126.0	352.5974896094658	face	0.0		147.0	dominance	102	2.0	1		949.2791611867774	1.2334413262692578
126.0	353.83093093573507	rating	1.0		51.0	dominance	102	2.0	1		950.5126025130467	0.43338512124410045
126.0	354.26431605697917	fix	2.0		60.0	dominance	102	2.0	1	-1.9300000000000002	950.9459876342908	0.5167375970872854
127.0	354.78105365406645	face	0.0		147.0	dominance	082	2.0	1		951.462725231378	1.2334473633291054
127.0	356.01450101739556	rating	1.0		86.0	dominance	082	2.0	1		952.6961725947071	0.7250780365429819
127.0	356.73957905393854	fix	2.0		60.0	dominance	082	2.0	1	0.3700000000000001	953.4212506312501	0.5167532934424344
128.0	357.256332347381	face	0.0		147.0	dominance	027	2.0	1		953.9380039246926	1.2334389114457736
128.0	358.48977125882675	rating	1.0		53.0	dominance	027	2.0	1		955.1714428361383	0.4500458967463601
128.0	358.9398171555731	fix	2.0		61.0	dominance	027	2.0	1	-1.9	955.6214887328847	0.5250793043251178
129.0	359.4648964598982	face	0.0		146.0	dominance	130	2.0	1		956.1465680372098	1.2251132024157414
129.0	360.69000966231397	rating	1.0		60.0	dominance	130	2.0	1		957.3716812396256	0.5083907583484688
129.0	361.19840042066244	fix	2.0		60.0	dominance	130	2.0	1	0.3099999999999996	957.880071997974	0.5167445397059964
130.0	361.71514496036843	face	0.0		147.0	dominance	006	2.0	1		958.39681653768	1.233444344799409
130.0	362.94858930516784	rating	1.0		58.0	dominance	006	2.0	1		959.6302608824794	0.4917266624624972
130.0	363.44031596763034	fix	2.0		60.0	dominance	006	2.0	1	0.46999999999999975	960.1219875449419	0.5167382007934975
131.0	363.95705416842384	face	0.0		147.0	dominance	018	2.0	1		960.6387257457354	1.2334524948300896
131.0	365.1905066632539	rating	1.0		58.0	dominance	018	2.0	1		961.8721782405655	0.49171971984378615
131.0	365.6822263830977	fix	2.0		60.0	dominance	018	2.0	1	0.0	962.3638979604093	0.5167451434122086
132.0	366.1989715265099	face	0.0		147.0	dominance	036	2.0	1		962.8806431038215	1.233439515151531
132.0	367.43241104166145	rating	1.0		52.0	dominance	036	2.0	1		964.114082618973	0.44171233953875344
132.0	367.8741233812002	fix	2.0		60.0	dominance	036	2.0	1	-0.2599999999999998	964.5557949585118	0.5167505767653893
133.0	368.3908739579656	face	0.0		147.0	dominance	062	2.0	1		965.0725455352772	1.233448872594181
133.0	369.6243228305598	rating	1.0		50.0	dominance	062	2.0	1		966.3059944078714	0.42503737694596566
133.0	370.04936020750574	fix	2.0		60.0	dominance	062	2.0	1	1.5599999999999996	966.7310317848173	0.5167448415591025
134.0	370.56610504906484	face	0.0		147.0	dominance	038	2.0	1		967.2477766263764	1.2334567207717555
134.0	371.7995617698366	rating	1.0		110.0	dominance	038	2.0	1		968.4812333471482	0.9250906539978132
134.0	372.7246524238344	fix	2.0		61.0	dominance	038	2.0	1	-0.029999999999999805	969.406324001146	0.5250805117370874
135.0	373.2497329355715	face	0.0		146.0	dominance	005	2.0	1		969.9314045128831	1.2251116931506658
135.0	374.47484462872217	rating	1.0		60.0	dominance	005	2.0	1		971.1565162060338	0.5083943805843774
135.0	374.98323900930654	fix	2.0		60.0	dominance	005	2.0	1	-0.3500000000000001	971.6649105866181	0.5167418230289513
136.0	375.4999808323355	face	0.0		147.0	dominance	144	2.0	1		972.1816524096471	1.23345128741812
136.0	376.7334321197536	rating	1.0		59.0	dominance	144	2.0	1		973.4151036970652	0.5000487492570755
136.0	377.2334808690107	fix	2.0		60.0	dominance	144	2.0	1	-0.3599999999999999	973.9151524463223	0.5167523878835709
137.0	377.75023325689426	face	0.0		147.0	dominance	101	2.0	1		974.4319048342059	1.2334346855036529
137.0	378.9836679423979	rating	1.0		190.0	dominance	101	2.0	1		975.6653395197095	1.5918440530886073
137.0	380.5755119954865	fix	2.0		60.0	dominance	101	2.0	1	2.63	977.2571835727981	0.5167397100581184
138.0	381.09225170554464	face	0.0		147.0	dominance	141	2.0	1		977.7739232828562	1.2334543059482712
138.0	382.3257060114929	rating	1.0		127.0	dominance	141	2.0	1		979.0073775888045	1.0667771247353812
138.0	383.3924831362283	fix	2.0		60.0	dominance	141	2.0	1	-0.1200000000000001	980.0741547135399	0.5167418230289513
139.0	383.90922495925724	face	0.0		142.0	dominance	099	2.0	1		980.5908965365688	1.233449174447287
139.0	385.14267413370453	rating	1.0		56.0	dominance	099	2.0	1		981.8243457110161	0.4750722258731912
139.0	385.6177463595777	fix	2.0		60.0	dominance	099	2.0	1	0.5800000000000001	982.2994179368893	0.5167279377915293
140.0	386.13447429736925	face	0.0		147.0	dominance	066	2.0	1		982.8161458746808	1.233446759623348
140.0	387.3679210569926	rating	1.0		93.0	dominance	066	2.0	1		984.0495926343042	0.7834171629378943
140.0	388.1513382199305	fix	2.0		60.0	dominance	066	2.0	1	0.040000000000000036	984.8330097972421	0.516746048971072
141.0	388.66808426890157	face	0.0		147.0	dominance	012	2.0	1		985.3497558462132	1.233446457770242
141.0	389.9015307266718	rating	1.0		74.0	dominance	012	2.0	1		986.5832023039834	0.625065992609052
141.0	390.52659671928086	fix	2.0		60.0	dominance	012	2.0	1	0.4400000000000004	987.2082682965925	0.5167427285878148
142.0	391.0433394478687	face	0.0		147.0	dominance	121	2.0	1		987.7250110251803	1.2334431373874395
142.0	392.2767825852561	rating	1.0		79.0	dominance	121	2.0	1		988.9584541625677	0.6667367971767817
142.0	392.9435193824329	fix	2.0		60.0	dominance	121	2.0	1	1.92	989.6251909597445	0.516779856505309
143.0	393.4602992389382	face	0.0		147.0	dominance	137	2.0	1		990.1419708162498	1.233412650236005
143.0	394.6937118891742	rating	1.0		89.0	dominance	137	2.0	1		991.3753834664858	0.7500781044595897
143.0	395.4437899936338	fix	2.0		60.0	dominance	137	2.0	1	0.8700000000000001	992.1254615709454	0.5167557082663734
144.0	395.9605457019002	face	0.0		147.0	dominance	042	2.0	1		992.6422172792118	1.233439817004637
144.0	397.1939855189048	rating	1.0		64.0	dominance	042	2.0	1		993.8756570962164	0.541726496443971
144.0	397.7357120153488	fix	2.0		60.0	dominance	042	2.0	1	-1.29	994.4173835926604	0.5167457471175112
145.0	398.2524577624663	face	0.0		147.0	dominance	172	2.0	1		994.9341293397779	1.2334509855654687
145.0	399.48590874803176	rating	1.0		64.0	dominance	172	2.0	1		996.1675803253434	0.5417231760607137
145.0	400.0276319240925	fix	2.0		60.0	dominance	172	2.0	1	1.5499999999999998	996.7093035014041	0.5167517841773588
146.0	400.54438370826983	face	0.0		147.0	dominance	092	2.0	1		997.2260552855814	1.2334434392405456
146.0	401.7778271475104	rating	1.0		55.0	dominance	092	2.0	1		998.459498724822	0.466710294484983
146.0	402.24453744199536	fix	2.0		60.0	dominance	092	2.0	1	1.1399999999999997	998.926209019307	0.5167469545294807
147.0	402.76128439652484	face	0.0		147.0	dominance	064	2.0	1		999.4429559738364	1.2334482688884236
147.0	403.99473266541327	rating	1.0		66.0	dominance	064	2.0	1		1000.6764042427249	0.5583866682404732
147.0	404.55311933365374	fix	2.0		60.0	dominance	064	2.0	1	-1.7799999999999998	1001.2347909109653	0.5167481619414502
148.0	405.0698674955952	face	0.0		147.0	dominance	091	2.0	1		1001.7515390729068	1.233439817004637
148.0	406.3033073125998	rating	1.0		114.0	dominance	091	2.0	1		1002.9849788899114	0.9584372588005863
148.0	407.2617445714004	fix	2.0		60.0	dominance	091	2.0	1	-3.08	1003.943416148712	0.5167463508237233
149.0	407.77849092222414	face	0.0		147.0	dominance	009	2.0	1		1004.4601624995357	1.2334524948300896
149.0	409.0119434170542	rating	1.0		105.0	dominance	009	2.0	1		1005.6936149943658	0.8834231698124313
149.0	409.89536658686666	fix	2.0		60.0	dominance	009	2.0	1	-3.5300000000000002	1006.5770381641782	0.5167499730596319
150.0	410.4121165599263	face	0.0		147.0	dominance	039	2.0	1		1007.0937881372379	1.233440118857743
150.0	411.64555667878403	rating	1.0		68.0	dominance	039	2.0	1		1008.3272282560956	0.5750607252743976
150.0	412.22061740405843	fix	2.0		60.0	dominance	039	2.0	1	-0.8900000000000001	1008.90228898137	0.5167442378528904
151.0	412.7373616419113	face	0.0		147.0	dominance	126	2.0	1		1009.4190332192229	1.233455513359786
151.0	413.9708171552711	rating	1.0		45.0	dominance	126	2.0	1		1010.6524887325827	0.3833650631127057
151.0	414.3541822183838	fix	2.0		60.0	dominance	126	2.0	1	0.8600000000000003	1011.0358537956954	0.5167442378528904
152.0	414.8709264562367	face	0.0		147.0	dominance	033	2.0	1		1011.5525980335483	1.2334567207722102
152.0	416.1043831770089	rating	1.0		68.0	dominance	033	2.0	1		1012.7860547543205	0.5750534808025805
152.0	416.6794366578115	fix	2.0		60.0	dominance	033	2.0	1	3.29	1013.3611082351231	0.5167545008544039
153.0	417.1961911586659	face	0.0		147.0	dominance	024	2.0	1		1013.8778627359775	1.233437402180698
153.0	418.4296285608466	rating	1.0		75.0	dominance	024	2.0	1		1015.1113001381582	0.6334010590812795
153.0	419.0630296199279	fix	2.0		60.0	dominance	024	2.0	1	2.4000000000000004	1015.7447011972395	0.5167451434117538
154.0	419.5797747633396	face	0.0		147.0	dominance	087	2.0	1		1016.2614463406512	1.2334494763003931
154.0	420.81322423964	rating	1.0		60.0	dominance	087	2.0	1		1017.4948958169516	0.5083916639068775
154.0	421.3216159035469	fix	2.0		60.0	dominance	087	2.0	1	-2.74	1018.0032874808585	0.5167433322940269
155.0	421.8383592358409	face	0.0		147.0	dominance	070	2.0	1		1018.5200308131525	1.2334413262697126
155.0	423.07180056211064	rating	1.0		104.0	dominance	070	2.0	1		1019.7534721394222	0.8750947441058088
155.0	423.94689530621645	fix	2.0		60.0	dominance	070	2.0	1	3.12	1020.628566883528	0.5167448415586477
156.0	424.4636401477751	face	0.0		147.0	dominance	043	2.0	1		1021.1453117250867	1.2334527966831956
156.0	425.6970929444583	rating	1.0		64.0	dominance	043	2.0	1		1022.3787645217699	0.5417283075616979
156.0	426.23882125202	fix	2.0		60.0	dominance	043	2.0	1	0.2599999999999998	1022.9204928293316	0.5167360878222098
157.0	426.7555573398422	face	0.0		147.0	dominance	011	2.0	1		1023.4372289171538	1.233444344799409
157.0	427.9890016846416	rating	1.0		58.0	dominance	011	2.0	1		1024.6706732619532	0.49171911613802877
157.0	428.48072080077964	fix	2.0		60.0	dominance	011	2.0	1	0.41999999999999993	1025.1623923780912	0.5167442378528904
158.0	428.9974650386325	face	0.0		147.0	dominance	124	2.0	1		1025.6791366159441	1.2334482688884236
158.0	430.23091330752095	rating	1.0		82.0	dominance	124	2.0	1		1026.9125848848325	0.6917471280953578
158.0	430.9226604356163	fix	2.0		60.0	dominance	124	2.0	1	-1.8599999999999999	1027.604332012928	0.5167487656476624
159.0	431.43940920126397	face	0.0		147.0	dominance	100	2.0	1		1028.1210807785756	1.233491735717962
159.0	432.67290093698193	rating	1.0		70.0	dominance	100	2.0	1		1029.3545725142935	0.5916738080049981
159.0	433.26457474498693	fix	2.0		60.0	dominance	100	2.0	1	-2.85	1029.9462463222985	0.5000556918757866
160.0	433.7646304368627	cue	0.0		480.0						1030.4463020141743	4.000434064592355
160.0	437.7650645014551	fix	1.0		120.0						1034.4467360787667	1.016802344552616
160.0	438.7818668460077	face	0.0		147.0	trustworthiness	033	2.0	1		1035.4635384233193	1.2334458540644846
160.0	440.0153127000722	rating	1.0		67.0	trustworthiness	033	2.0	1		1036.6969842773838	0.5667319977142142
160.0	440.5820446977864	fix	2.0		60.0	trustworthiness	033	2.0	1	-0.71	1037.263716275098	0.5167400119112244
161.0	441.0987847096976	face	0.0		147.0	trustworthiness	144	2.0	1		1037.7804562870092	1.2334473633291054
161.0	442.3322320730267	rating	1.0		42.0	trustworthiness	144	2.0	1		1039.0139036503383	0.35836982484397595
161.0	442.6906018978707	fix	2.0		60.0	trustworthiness	144	2.0	1	1.37	1039.3722734751823	0.5167520860304649
162.0	443.20735398390116	face	0.0		147.0	trustworthiness	091	2.0	1		1039.8890255612127	1.2334392132984249
162.0	444.4407931971996	rating	1.0		66.0	trustworthiness	091	2.0	1		1041.1224647745112	0.5583905923290331
162.0	444.9991837895286	fix	2.0		60.0	trustworthiness	091	2.0	1	2.37	1041.6808553668402	0.5167587267965246
163.0	445.51594251632514	face	0.0		147.0	trustworthiness	038	2.0	1		1042.1976140936367	1.233455513359786
163.0	446.7493980296849	rating	1.0		46.0	trustworthiness	038	2.0	1		1043.4310696069965	0.3916940925255403
163.0	447.14109212221047	fix	2.0		60.0	trustworthiness	038	2.0	1	0.8099999999999996	1043.822763699522	0.5167454452648599
164.0	447.6578375674753	face	0.0		147.0	trustworthiness	042	2.0	1		1044.339509144787	1.2334392132988796
164.0	448.8912767807742	rating	1.0		58.0	trustworthiness	042	2.0	1		1045.5729483580858	0.49172636060984587
164.0	449.38300314138405	fix	2.0		60.0	trustworthiness	042	2.0	1	0.0	1046.0646747186956	0.516743634147133
165.0	449.8997467755312	face	0.0		147.0	trustworthiness	100	2.0	1		1046.5814183528428	1.2334413262692578
165.0	451.13318810180044	rating	1.0		116.0	trustworthiness	100	2.0	1		1047.814859679112	0.97510316580383
165.0	452.1082912676043	fix	2.0		60.0	trustworthiness	100	2.0	1	-0.029999999999999805	1048.7899628449159	0.5167689897980381
166.0	452.6250602574023	face	0.0		147.0	trustworthiness	172	2.0	1		1049.306731834714	1.2334310632677443
166.0	453.85849132067005	rating	1.0		85.0	trustworthiness	172	2.0	1		1050.5401628979816	0.7167363293046947
166.0	454.57522764997475	fix	2.0		60.0	trustworthiness	172	2.0	1	-2.88	1051.2568992272863	0.5167454452648599
167.0	455.0919730952396	face	0.0		147.0	trustworthiness	012	2.0	1		1051.7736446725512	1.233446457770242
167.0	456.32541955300985	rating	1.0		47.0	trustworthiness	012	2.0	1		1053.0070911303214	0.40004183682412986
167.0	456.725461389834	fix	2.0		60.0	trustworthiness	012	2.0	1	1.3200000000000003	1053.4071329671456	0.5167514823242527
168.0	457.24221287215823	face	0.0		147.0	trustworthiness	005	2.0	1		1053.9238844494698	1.2334479670353176
168.0	458.47566083919355	rating	1.0		46.0	trustworthiness	005	2.0	1		1055.1573324165051	0.39170978888114405
168.0	458.8673706280747	fix	2.0		60.0	trustworthiness	005	2.0	1	-0.7799999999999998	1055.5490422053863	0.5167430304409208
169.0	459.3841136585156	face	0.0		147.0	trustworthiness	024	2.0	1		1056.0657852358272	1.2334413262697126
169.0	460.61755498478533	rating	1.0		59.0	trustworthiness	024	2.0	1		1057.299226562097	0.500052069639878
169.0	461.1176070544252	fix	2.0		60.0	trustworthiness	024	2.0	1	2.84	1057.7992786317368	0.5167466526763747
170.0	461.6343537071016	face	0.0		147.0	trustworthiness	099	2.0	1		1058.3160252844132	1.2334540040951651
170.0	462.86780771119675	rating	1.0		36.0	trustworthiness	099	2.0	1		1059.5494792885083	0.3083564074786409
170.0	463.1761641186754	fix	2.0		60.0	trustworthiness	099	2.0	1	0.0	1059.857835695987	0.5167442378528904
171.0	463.6929083565283	face	0.0		147.0	trustworthiness	117	2.0	1		1060.3745799338399	1.2334543059478165
171.0	464.9263626624761	rating	1.0		48.0	trustworthiness	117	2.0	1		1061.6080342397877	0.4083693569718889
171.0	465.334732019448	fix	2.0		60.0	trustworthiness	117	2.0	1	1.0300000000000002	1062.0164035967596	0.5167427285878148
172.0	465.8514747480358	face	0.0		147.0	trustworthiness	062	2.0	1		1062.5331463253474	1.233453400388953
172.0	467.08492814842475	rating	1.0		48.0	trustworthiness	062	2.0	1		1063.7665997257363	0.40837811070832686
172.0	467.4933062591331	fix	2.0		60.0	trustworthiness	062	2.0	1	-0.94	1064.1749778364447	0.5167481619414502
173.0	468.0100544210745	face	0.0		147.0	trustworthiness	082	2.0	1		1064.6917259983861	1.23343800588691
173.0	469.24349242696144	rating	1.0		155.0	trustworthiness	082	2.0	1		1065.925164004273	1.3001472137007113
173.0	470.54363964066215	fix	2.0		60.0	trustworthiness	082	2.0	1	0.3099999999999996	1067.2253112179737	0.5167388044992549
174.0	471.0603784451614	face	0.0		147.0	trustworthiness	070	2.0	1		1067.742050022473	1.2334473633291054
174.0	472.2938258084905	rating	1.0		51.0	trustworthiness	070	2.0	1		1068.975497385802	0.43337636750720776
174.0	472.7272021759977	fix	2.0		60.0	trustworthiness	070	2.0	1	-2.49	1069.4088737533093	0.516745747117966
175.0	473.2439479231157	face	0.0		147.0	trustworthiness	036	2.0	1		1069.9256195004273	1.233447061476454
175.0	474.47739498459214	rating	1.0		79.0	trustworthiness	036	2.0	1		1071.1590665619037	0.6667392120007207
175.0	475.14413419659286	fix	2.0		60.0	trustworthiness	036	2.0	1	0.0	1071.8258057739044	0.5167457471175112
176.0	475.66087994371037	face	0.0		147.0	trustworthiness	061	2.0	1		1072.342551521022	1.233453702242059
176.0	476.89433364595243	rating	1.0		36.0	trustworthiness	061	2.0	1		1073.576005223264	0.3083630482442459
176.0	477.2026966941967	fix	2.0		60.0	trustworthiness	061	2.0	1	0.0	1073.8843682715083	0.5167475582356928
177.0	477.71944425243237	face	0.0		147.0	trustworthiness	030	2.0	1		1074.401115829744	1.2334455522113785
177.0	478.95288980464375	rating	1.0		63.0	trustworthiness	030	2.0	1		1075.6345613819553	0.5333917318243948
177.0	479.48628153646814	fix	2.0		60.0	trustworthiness	030	2.0	1	2.7300000000000004	1076.1679531137797	0.5167372952341793
178.0	480.0030188317023	face	0.0		147.0	trustworthiness	092	2.0	1		1076.684690409014	1.2334660782144056
178.0	481.2364849099167	rating	1.0		64.0	trustworthiness	092	2.0	1		1077.9181564872283	0.5417053667347318
178.0	481.77819027665146	fix	2.0		60.0	trustworthiness	092	2.0	1	-2.54	1078.459861853963	0.5167523878831162
179.0	482.2949426645346	face	0.0		147.0	trustworthiness	009	2.0	1		1078.9766142418462	1.2334407225639552
179.0	483.52838338709853	rating	1.0		63.0	trustworthiness	009	2.0	1		1080.2100549644101	0.5333932410890156
179.0	484.06177662818754	fix	2.0		60.0	trustworthiness	009	2.0	1	3.5300000000000002	1080.7434482054991	0.5167466526768294
180.0	484.5785232808644	face	0.0		147.0	trustworthiness	141	2.0	1		1081.260194858176	1.2334386095926675
180.0	485.81196189045704	rating	1.0		60.0	trustworthiness	141	2.0	1		1082.4936334677686	0.5083983046729372
180.0	486.32036019513	fix	2.0		60.0	trustworthiness	141	2.0	1	1.6900000000000004	1083.0020317724416	0.5167348804102403
181.0	486.8370950755402	face	0.0		147.0	trustworthiness	044	2.0	1		1083.5187666528518	1.2334479670353176
181.0	488.07054304257554	rating	1.0		65.0	trustworthiness	044	2.0	1		1084.7522146198871	0.5500564314156691
181.0	488.6205994739912	fix	2.0		60.0	trustworthiness	044	2.0	1	0.9699999999999998	1085.3022710513028	0.5167454452648599
182.0	489.13734491925607	face	0.0		147.0	trustworthiness	064	2.0	1		1085.8190164965677	1.2334537022416043
182.0	490.37079862149767	rating	1.0		62.0	trustworthiness	064	2.0	1		1087.0524701988093	0.5250587783225455
182.0	490.8958573998202	fix	2.0		60.0	trustworthiness	064	2.0	1	1.1900000000000004	1087.5775289771318	0.5167448415591025
183.0	491.4126022413793	face	0.0		147.0	trustworthiness	034	2.0	1		1088.094273818691	1.2334458540640298
183.0	492.64604809544335	rating	1.0		56.0	trustworthiness	034	2.0	1		1089.327719672755	0.4750507943113007
183.0	493.12109888975465	fix	2.0		60.0	trustworthiness	034	2.0	1	2.0300000000000002	1089.8027704670662	0.5167448415586477
184.0	493.6378437313133	face	0.0		147.0	trustworthiness	043	2.0	1		1090.319515308625	1.233446457770242
184.0	494.87129018908354	rating	1.0		60.0	trustworthiness	043	2.0	1		1091.5529617663951	0.5083826083177883
184.0	495.3796727974013	fix	2.0		60.0	trustworthiness	043	2.0	1	0.33999999999999986	1092.061344374713	0.5167478600887989
185.0	495.8964206574901	face	0.0		147.0	trustworthiness	121	2.0	1		1092.5780922348017	1.2334473633291054
185.0	497.12986802081923	rating	1.0		41.0	trustworthiness	121	2.0	1		1093.8115395981308	0.3500374750483388
185.0	497.47990549586757	fix	2.0		60.0	trustworthiness	121	2.0	1	0.009999999999999787	1094.1615770731792	0.5167394082050123
186.0	497.9966449040726	face	0.0		147.0	trustworthiness	102	2.0	1		1094.6783164813842	1.233453702242059
186.0	499.23009860631464	rating	1.0		36.0	trustworthiness	102	2.0	1		1095.9117701836262	0.30836817974477526
186.0	499.5384667860594	fix	2.0		60.0	trustworthiness	102	2.0	1	0.0	1096.220138363371	0.5167342767044829
187.0	500.0552010627639	face	0.0		147.0	trustworthiness	066	2.0	1		1096.7368726400755	1.233453400388953
187.0	501.28865446315285	rating	1.0		76.0	trustworthiness	066	2.0	1		1097.9703260404644	0.6417291829352507
187.0	501.9303836460881	fix	2.0		60.0	trustworthiness	066	2.0	1	0.20000000000000018	1098.6120552233997	0.5167487656476624
188.0	502.44713241173577	face	0.0		147.0	trustworthiness	126	2.0	1		1099.1288039890474	1.2334494763003931
188.0	503.68058188803616	rating	1.0		39.0	trustworthiness	126	2.0	1		1100.3622534653477	0.3333637198670658
188.0	504.0139456079032	fix	2.0		60.0	trustworthiness	126	2.0	1	-1.17	1100.6956171852148	0.5167424267351635
189.0	504.5306880346384	face	0.0		147.0	trustworthiness	027	2.0	1		1101.21235961195	1.2334527966827409
189.0	505.76414083132113	rating	1.0		70.0	trustworthiness	027	2.0	1		1102.4458124086327	0.5917248211599144
189.0	506.35586565248104	fix	2.0		60.0	trustworthiness	027	2.0	1	1.6500000000000004	1103.0375372297926	0.5167508786184953
190.0	506.87261653109954	face	0.0		147.0	trustworthiness	136	2.0	1		1103.5542881084111	1.2334413262697126
190.0	508.10605785736925	rating	1.0		44.0	trustworthiness	136	2.0	1		1104.7877294346808	0.37504448558365766
190.0	508.4811023429529	fix	2.0		61.0	trustworthiness	136	2.0	1	-1.5699999999999998	1105.1627739202645	0.5250774932073909
191.0	509.0061798361603	face	0.0		146.0	trustworthiness	011	2.0	1		1105.687851413472	1.2251298043297538
191.0	510.23130964049005	rating	1.0		47.0	trustworthiness	011	2.0	1		1106.9129812178016	0.4000276497336017
191.0	510.63133729022366	fix	2.0		60.0	trustworthiness	011	2.0	1	2.83	1107.3130088675352	0.5167375970872854
192.0	511.14807488731094	face	0.0		147.0	trustworthiness	039	2.0	1		1107.8297464646225	1.2334473633291054
192.0	512.38152225064	rating	1.0		76.0	trustworthiness	039	2.0	1		1109.0631938279516	0.6417430681726728
192.0	513.0232653188127	fix	2.0		61.0	trustworthiness	039	2.0	1	1.9800000000000004	1109.7049368961243	0.5250765876485275
193.0	513.5483419064612	face	0.0		146.0	trustworthiness	130	2.0	1		1110.2300134837728	1.2251153153865744
193.0	514.7734572218478	rating	1.0		65.0	trustworthiness	130	2.0	1		1111.4551287991594	0.5500531110328666
193.0	515.3235103328807	fix	2.0		60.0	trustworthiness	130	2.0	1	1.4400000000000004	1112.0051819101923	0.5167554064132673
194.0	515.840265739294	face	0.0		147.0	trustworthiness	018	2.0	1		1112.5219373166055	1.233444042946303
194.0	517.0737097822403	rating	1.0		56.0	trustworthiness	018	2.0	1		1113.7553813595518	0.475042040574408
194.0	517.5487518228147	fix	2.0		60.0	trustworthiness	018	2.0	1	0.7000000000000002	1114.2304234001263	0.5167445397059964
195.0	518.0654963625207	face	0.0		147.0	trustworthiness	101	2.0	1		1114.7471679398323	1.2334452503582725
195.0	519.2989416128789	rating	1.0		205.0	trustworthiness	101	2.0	1		1115.9806131901905	1.7168522408510398
195.0	521.01579385373	fix	2.0		60.0	trustworthiness	101	2.0	1	0.08000000000000007	1117.6974654310416	0.5167514823242527
196.0	521.5325453360542	face	0.0		147.0	trustworthiness	124	2.0	1		1118.2142169133658	1.233447061476454
196.0	522.7659923975307	rating	1.0		53.0	trustworthiness	124	2.0	1		1119.4476639748423	0.450041067098482
196.0	523.2160334646292	fix	2.0		60.0	trustworthiness	124	2.0	1	2.58	1119.8977050419408	0.516752991589783
197.0	523.732786456219	face	0.0		147.0	trustworthiness	006	2.0	1		1120.4144580335305	1.2334389114457736
197.0	524.9662253676647	rating	1.0		42.0	trustworthiness	006	2.0	1		1121.6478969449763	0.35837223966746024
197.0	525.3245976073322	fix	2.0		60.0	trustworthiness	006	2.0	1	-2.4299999999999997	1122.0062691846438	0.5167517841773588
198.0	525.8413493915095	face	0.0		147.0	trustworthiness	087	2.0	1		1122.5230209688211	1.2334455522113785
198.0	527.0747949437209	rating	1.0		61.0	trustworthiness	087	2.0	1		1123.7564665210325	0.5167231081441059
198.0	527.591518051865	fix	2.0		60.0	trustworthiness	087	2.0	1	1.5099999999999998	1124.2731896291766	0.5167388044992549
199.0	528.1082568563643	face	0.0		147.0	trustworthiness	137	2.0	1		1124.7899284336759	1.233446457770242
199.0	529.3417033141345	rating	1.0		59.0	trustworthiness	137	2.0	1		1126.023374891446	0.500052069639878
199.0	529.8417553837744	fix	2.0		60.0	trustworthiness	137	2.0	1	0.46999999999999975	1126.523426961086	0.5000572011404074
200.0	530.3418125849148	cue	0.0		480.0						1127.0234841622264	4.000462740626062
200.0	534.3422753255409	fix	1.0		120.0						1131.0239469028525	1.0167763851959535
200.0	535.3590517107368	face	0.0		147.0	attractiveness	130	2.0	1		1132.0407232880484	1.2334407225635005
200.0	536.5924924333003	rating	1.0		48.0	attractiveness	130	2.0	1		1133.274164010612	0.40837539403128176
200.0	537.0008678273316	fix	2.0		60.0	attractiveness	130	2.0	1	-1.33	1133.6825394046432	0.516745747117966
201.0	537.5176135744496	face	0.0		147.0	attractiveness	036	2.0	1		1134.1992851517612	1.2334527966827409
201.0	538.7510663711323	rating	1.0		50.0	attractiveness	036	2.0	1		1135.432737948444	0.4250367732402083
201.0	539.1761031443725	fix	2.0		60.0	attractiveness	036	2.0	1	-0.4900000000000002	1135.857774721684	0.5167517841773588
202.0	539.6928549285499	face	0.0		147.0	attractiveness	126	2.0	1		1136.3745265058615	1.233448872594181
202.0	540.9263038011441	rating	1.0		60.0	attractiveness	126	2.0	1		1137.6079753784556	0.5083859287005907
202.0	541.4346897298446	fix	2.0		60.0	attractiveness	126	2.0	1	-2.13	1138.1163613071562	0.5167454452648599
203.0	541.9514351751095	face	0.0		147.0	attractiveness	062	2.0	1		1138.633106752421	1.2334878116294021
203.0	543.1849229867389	rating	1.0		69.0	attractiveness	062	2.0	1		1139.8665945640505	0.5833468915629965
203.0	543.7682698783019	fix	2.0		60.0	attractiveness	062	2.0	1	-2.6799999999999997	1140.4499414556135	0.5167490675007684
204.0	544.2850189458027	face	0.0		147.0	attractiveness	137	2.0	1		1140.9666905231143	1.233444042946303
204.0	545.518462988749	rating	1.0		84.0	attractiveness	137	2.0	1		1142.2001345660606	0.7084076017449661
204.0	546.226870590494	fix	2.0		60.0	attractiveness	137	2.0	1	0.16999999999999993	1142.9085421678055	0.5167545008544039
205.0	546.7436250913483	face	0.0		147.0	attractiveness	102	2.0	1		1143.42529666866	1.233440118857743
205.0	547.9770652102061	rating	1.0		56.0	attractiveness	102	2.0	1		1144.6587367875177	0.475055623958724
205.0	548.4521208341648	fix	2.0		60.0	attractiveness	102	2.0	1	-0.6699999999999999	1145.1337924114764	0.5167415211758453
206.0	548.9688623553407	face	0.0		147.0	attractiveness	011	2.0	1		1145.6505339326523	1.2334506837123627
206.0	550.202313039053	rating	1.0		56.0	attractiveness	011	2.0	1		1146.8839846163646	0.4750498887519825
206.0	550.677362927805	fix	2.0		60.0	attractiveness	011	2.0	1	0.009999999999999787	1147.3590345051166	0.5167354841164524
207.0	551.1940984119215	face	0.0		147.0	attractiveness	044	2.0	1		1147.875769989233	1.2334570226244068
207.0	552.4275554345459	rating	1.0		63.0	attractiveness	044	2.0	1		1149.1092270118575	0.5333890151473497
207.0	552.9609444496932	fix	2.0		60.0	attractiveness	044	2.0	1	1.8899999999999997	1149.6426160270048	0.5167445397059964
208.0	553.4776889893992	face	0.0		147.0	attractiveness	038	2.0	1		1150.1593605667108	1.233442231828576
208.0	554.7111312212278	rating	1.0		56.0	attractiveness	038	2.0	1		1151.3928027985394	0.4750468702222861
208.0	555.1861780914501	fix	2.0		60.0	attractiveness	038	2.0	1	-3.46	1151.8678496687617	0.5167711027684163
209.0	555.7029491942185	face	0.0		147.0	attractiveness	144	2.0	1		1152.38462077153	1.233423818796382
209.0	556.9363730130149	rating	1.0		59.0	attractiveness	144	2.0	1		1153.6180445903265	0.5000505603752572
209.0	557.4364235733901	fix	2.0		60.0	attractiveness	144	2.0	1	2.58	1154.1180951507017	0.5167535952950857
210.0	557.9531771686852	face	0.0		147.0	attractiveness	061	2.0	1		1154.6348487459968	1.233439817004637
210.0	559.1866169856899	rating	1.0		50.0	attractiveness	061	2.0	1		1155.8682885630014	0.42506212889065864
210.0	559.6116791145805	fix	2.0		60.0	attractiveness	061	2.0	1	-0.9700000000000002	1156.293350691892	0.5167276359388779
211.0	560.1284067505194	face	0.0		147.0	attractiveness	012	2.0	1		1156.810078327831	1.233453702242059
211.0	561.3618604527614	rating	1.0		64.0	attractiveness	012	2.0	1		1158.043532030073	0.5417180445601844
211.0	561.9035784973216	fix	2.0		60.0	attractiveness	012	2.0	1	1.83	1158.5852500746332	0.5167529915893283
212.0	562.420331488911	face	0.0		147.0	attractiveness	101	2.0	1		1159.1020030662226	1.2334452503582725
212.0	563.6537767392692	rating	1.0		58.0	attractiveness	101	2.0	1		1160.3354483165808	0.49172032355045303
212.0	564.1454970628197	fix	2.0		60.0	attractiveness	101	2.0	1	2.88	1160.8271686401313	0.5167375970872854
213.0	564.662234659907	face	0.0		147.0	attractiveness	042	2.0	1		1161.3439062372186	1.2334820764222059
213.0	565.8957167363292	rating	1.0		54.0	attractiveness	042	2.0	1		1162.5773883136408	0.4583522871853347
213.0	566.3540690235145	fix	2.0		60.0	attractiveness	042	2.0	1	-0.7599999999999998	1163.035740600826	0.5167451434122086
214.0	566.8708141669267	face	0.0		147.0	attractiveness	066	2.0	1		1163.5524857442383	1.233448570741075
214.0	568.1042627376678	rating	1.0		36.0	attractiveness	066	2.0	1		1164.7859343149794	0.30836244453803374
214.0	568.4126251822058	fix	2.0		60.0	attractiveness	066	2.0	1	0.0	1165.0942967595174	0.5167400119112244
215.0	568.929365194117	face	0.0		147.0	attractiveness	091	2.0	1		1165.6110367714286	1.2334515892712261
215.0	570.1628167833883	rating	1.0		51.0	attractiveness	091	2.0	1		1166.8444883606999	0.4334062509524301
215.0	570.5962230343407	fix	2.0		60.0	attractiveness	091	2.0	1	0.4400000000000004	1167.2778946116523	0.5167125432894863
216.0	571.1129355776302	face	0.0		147.0	attractiveness	039	2.0	1		1167.7946071549418	1.2334473633295602
216.0	572.3463829409598	rating	1.0		69.0	attractiveness	039	2.0	1		1169.0280545182713	0.5834036399241995
216.0	572.929786580884	fix	2.0		60.0	attractiveness	039	2.0	1	0.7699999999999996	1169.6114581581955	0.516743936000239
217.0	573.4465305168842	face	0.0		147.0	attractiveness	141	2.0	1		1170.1282020941958	1.2334467596228933
217.0	574.6799772765071	rating	1.0		72.0	attractiveness	141	2.0	1		1171.3616488538187	0.6083979726349753
217.0	575.2883752491421	fix	2.0		60.0	attractiveness	141	2.0	1	0.0	1171.9700468264537	0.5167394082050123
218.0	575.8051146573471	face	0.0		147.0	attractiveness	009	2.0	1		1172.4867862346587	1.2334546078009225
218.0	577.038569265148	rating	1.0		93.0	attractiveness	009	2.0	1		1173.7202408424596	0.7834072017894869
218.0	577.8219764669375	fix	2.0		60.0	attractiveness	009	2.0	1	3.2199999999999998	1174.503648044249	0.5167493693538745
219.0	578.3387258362914	face	0.0		147.0	attractiveness	033	2.0	1		1175.020397413603	1.233450683711908
219.0	579.5721765200033	rating	1.0		74.0	attractiveness	033	2.0	1		1176.2538480973149	0.6250593518434471
219.0	580.1972358718467	fix	2.0		60.0	attractiveness	033	2.0	1	3.33	1176.8789074491583	0.5167720083272798
220.0	580.714007880174	face	0.0		147.0	attractiveness	064	2.0	1		1177.3956794574856	1.2334204984135795
220.0	581.9474283785876	rating	1.0		52.0	attractiveness	064	2.0	1		1178.6290999558992	0.441713848803829
220.0	582.3891422273914	fix	2.0		60.0	attractiveness	064	2.0	1	0.0	1179.070813804703	0.5167487656476624
221.0	582.9058909930391	face	0.0		147.0	attractiveness	124	2.0	1		1179.5875625703507	1.2334428355343334
221.0	584.1393338285734	rating	1.0		68.0	attractiveness	124	2.0	1		1180.821005405885	0.5750631400983366
221.0	584.7143969686717	fix	2.0		60.0	attractiveness	124	2.0	1	3.08	1181.3960685459833	0.5167427285878148
222.0	585.2311396972596	face	0.0		147.0	attractiveness	027	2.0	1		1181.9128112745711	1.233449174447287
222.0	586.4645888717068	rating	1.0		129.0	attractiveness	027	2.0	1		1183.1462604490184	1.0834466539745335
222.0	587.5480355256814	fix	2.0		60.0	attractiveness	027	2.0	1	0.4500000000000002	1184.229707102993	0.5167466526768294
223.0	588.0647821783582	face	0.0		147.0	attractiveness	100	2.0	1		1184.7464537556698	1.2334458540644846
223.0	589.2982280324227	rating	1.0		84.0	attractiveness	100	2.0	1		1185.9798996097343	0.7084181665991309
223.0	590.0066461990218	fix	2.0		60.0	attractiveness	100	2.0	1	1.92	1186.6883177763334	0.5167433322940269
224.0	590.5233895313158	face	0.0		147.0	attractiveness	034	2.0	1		1187.2050611086274	1.2334404207108491
224.0	591.7568299520267	rating	1.0		52.0	attractiveness	034	2.0	1		1188.4385015293383	0.4417183765981463
224.0	592.1985483286248	fix	2.0		60.0	attractiveness	034	2.0	1	1.0999999999999996	1188.8802199059364	0.5167469545299355
225.0	592.7152952831548	face	0.0		147.0	attractiveness	043	2.0	1		1189.3969668604664	1.2334404207103944
225.0	593.9487357038652	rating	1.0		78.0	attractiveness	043	2.0	1		1190.6304072811768	0.6584080696170531
225.0	594.6071437734822	fix	2.0		60.0	attractiveness	043	2.0	1	0.05999999999999961	1191.2888153507938	0.516739106352361
226.0	595.1238828798346	face	0.0		147.0	attractiveness	117	2.0	1		1191.8055544571462	1.233446759623348
226.0	596.3573296394579	rating	1.0		64.0	attractiveness	117	2.0	1		1193.0390012167695	0.5417237797664711
226.0	596.8990534192244	fix	2.0		60.0	attractiveness	117	2.0	1	2.8499999999999996	1193.580724996536	0.5167520860309196
227.0	597.4158055052553	face	0.0		147.0	attractiveness	121	2.0	1		1194.097477082567	1.233446457770242
227.0	598.6492519630256	rating	1.0		88.0	attractiveness	121	2.0	1		1195.3309235403372	0.7417475657821342
227.0	599.3909995288077	fix	2.0		60.0	attractiveness	121	2.0	1	1.88	1196.0726711061193	0.5167466526763747
228.0	599.9077461814841	face	0.0		147.0	attractiveness	030	2.0	1		1196.5894177587957	1.2334440429467577
228.0	601.1411902244308	rating	1.0		70.0	attractiveness	030	2.0	1		1197.8228618017424	0.5917290471011256
228.0	601.732919271532	fix	2.0		60.0	attractiveness	030	2.0	1	2.0300000000000002	1198.4145908488435	0.5167406156174366
229.0	602.2496598871494	face	0.0		147.0	attractiveness	136	2.0	1		1198.931331464461	1.2334470614759994
229.0	603.4831069486254	rating	1.0		56.0	attractiveness	136	2.0	1		1200.164778525937	0.475055623958724
229.0	603.9581625725841	fix	2.0		60.0	attractiveness	136	2.0	1	-2.2	1200.6398341498957	0.5167442378533451
230.0	604.4749068104375	face	0.0		147.0	attractiveness	005	2.0	1		1201.156578387749	1.2334479670348628
230.0	605.7083547774723	rating	1.0		61.0	attractiveness	005	2.0	1		1202.390026354784	0.5167228062909999
230.0	606.2250775837633	fix	2.0		60.0	attractiveness	005	2.0	1	-1.9	1202.906749161075	0.5167382007934975
231.0	606.7418157845568	face	0.0		147.0	attractiveness	172	2.0	1		1203.4234873618684	1.233453400388953
231.0	607.9752691849458	rating	1.0		54.0	attractiveness	172	2.0	1		1204.6569407622574	0.4583803595128302
231.0	608.4336495444586	fix	2.0		60.0	attractiveness	172	2.0	1	-2.42	1205.1153211217702	0.5167382007930428
232.0	608.9503877452516	face	0.0		147.0	attractiveness	099	2.0	1		1205.6320593225632	1.233453702242059
232.0	610.1838414474937	rating	1.0		36.0	attractiveness	099	2.0	1		1206.8655130248053	0.3083654630681849
232.0	610.4922069105619	fix	2.0		60.0	attractiveness	099	2.0	1	0.0	1207.1738784878735	0.5167484637945563
233.0	611.0089553743564	face	0.0		147.0	attractiveness	087	2.0	1		1207.690626951668	1.2334383077400162
233.0	612.2423936820965	rating	1.0		36.0	attractiveness	087	2.0	1		1208.924065259408	0.3083687834509874
233.0	612.5507624655475	fix	2.0		61.0	attractiveness	087	2.0	1	0.0	1209.232434042859	0.5250762857954214
234.0	613.0758387513429	face	0.0		146.0	attractiveness	006	2.0	1		1209.7575103286545	1.2251129005626353
234.0	614.3009516519055	rating	1.0		67.0	attractiveness	006	2.0	1		1210.982623229217	0.5667380347740618
234.0	614.8676896866796	fix	2.0		60.0	attractiveness	006	2.0	1	-2.9	1211.5493612639912	0.5167394082050123
235.0	615.3844290948846	face	0.0		147.0	attractiveness	082	2.0	1		1212.0661006721962	1.2334410244166065
235.0	616.6178701193012	rating	1.0		158.0	attractiveness	082	2.0	1		1213.2995416966128	1.325143055676108
235.0	617.9430131749773	fix	2.0		60.0	attractiveness	082	2.0	1	0.0	1214.6246847522889	0.5167511804716014
236.0	618.4597643554489	face	0.0		147.0	attractiveness	092	2.0	1		1215.1414359327605	1.2334470614759994
236.0	619.6932114169249	rating	1.0		69.0	attractiveness	092	2.0	1		1216.3748829942365	0.5833876417163992
236.0	620.2765990586413	fix	2.0		60.0	attractiveness	092	2.0	1	-2.17	1216.9582706359529	0.516807023273941
237.0	620.7934060819152	face	0.0		147.0	attractiveness	070	2.0	1		1217.4750776592268	1.2333915205267658
237.0	622.026797602442	rating	1.0		65.0	attractiveness	070	2.0	1		1218.7084691797536	0.5500503943558215
237.0	622.5768479967978	fix	2.0		60.0	attractiveness	070	2.0	1	-3.01	1219.2585195741094	0.51676416015016
238.0	623.093612156948	face	0.0		147.0	attractiveness	024	2.0	1		1219.7752837342596	1.2334295540031235
238.0	624.3270417109511	rating	1.0		55.0	attractiveness	024	2.0	1		1221.0087132882627	0.4667154259855124
238.0	624.7937571369366	fix	2.0		60.0	attractiveness	024	2.0	1	3.33	1221.4754287142482	0.5167472563825868
239.0	625.3105043933192	face	0.0		147.0	attractiveness	018	2.0	1		1221.9921759706308	1.2334455522113785
239.0	626.5439499455306	rating	1.0		61.0	attractiveness	018	2.0	1		1223.2256215228422	0.5167212970259243
239.0	627.0606712425565	fix	2.0		61.0	attractiveness	018	2.0	1	-0.4700000000000002	1223.742342819868	0.5083883435245298
