trial_nr	onset	event_type	phase	response	nr_frames	trial_type	stim_name	task_probe	onset_abs	duration
0.0	0.05649091975465126	baseline	0.0		41.0		baseline	0.0	90.63246430340541	0.3497386390149586
0.0	0.40622955876960987	ISI	1.0		11.0		baseline	0.0	90.98220294242037	0.09999695126634833
1.0	0.5062265100359582	baseline	0.0		48.0		baseline	0.0	91.08219989368672	0.3999905217592641
1.0	0.7063366266697813	pulse	0.0	t			baseline	0.0	91.28231001032054	
1.0	0.9062170317952223	ISI	1.0		11.0		baseline	0.0	91.48219041544598	0.10001325142593487
2.0	1.0062302832211572	baseline	0.0		48.0		baseline	0.0	91.58220366687192	0.399955204746675
2.0	1.4061854879678322	ISI	1.0		11.0		baseline	0.0	91.9821588716186	0.09999936610483928
2.0	1.4107824348270697	pulse	1.0	t			baseline	0.0	91.98675581847783	
3.0	1.5061848540726714	baseline	0.0		48.0		baseline	0.0	92.08215823772343	0.3999914273235845
3.0	1.906176281396256	ISI	1.0		11.0		baseline	0.0	92.48214966504702	0.09999634755695297
4.0	2.006172628953209	baseline	0.0		48.0		baseline	0.0	92.58214601260397	0.39999112546865945
4.0	2.106288812868115	pulse	0.0	t			baseline	0.0	92.68226219651888	
4.0	2.4061637544218684	ISI	1.0		11.0		baseline	0.0	92.98213713807263	0.09999815868559381
5.0	2.506161913107462	baseline	0.0		48.0		baseline	0.0	93.08213529675822	0.39999263474283
5.0	2.806267773588388	pulse	0.0	t			baseline	0.0	93.38224115723915	
5.0	2.906154547850292	ISI	1.0		11.0		baseline	0.0	93.48212793150105	0.0999975549757437
6.0	3.006152102826036	baseline	0.0		48.0		baseline	0.0	93.5821254864768	0.3999914273235845
6.0	3.4061435301496203	ISI	1.0		11.0		baseline	0.0	93.98211691380038	0.0999951401377075
7.0	3.506138670287328	baseline	0.0		47.0		baseline	0.0	94.08211205393809	0.3999923328879049
7.0	3.510193485912623	pulse	0.0	t			baseline	0.0	94.08616686956339	
7.0	3.9061310031752328	ISI	1.0		11.0		baseline	0.0	94.482104386826	0.10000147908840518
8.0	4.006132482263638	baseline	0.0		48.0		baseline	0.0	94.5821058659144	0.3999878050658481
8.0	4.206238976639725	pulse	0.0	t			baseline	0.0	94.78221236029049	
8.0	4.406120287329486	ISI	1.0		11.0		baseline	0.0	94.98209367098025	0.10000359207197107
9.0	4.506123879401457	baseline	0.0		48.0		baseline	0.0	95.08209726305222	0.39998961619494366
9.0	4.906113495596401	ISI	1.0		11.0		baseline	0.0	95.48208687924716	0.09999574384710286
9.0	4.910644939962367	pulse	1.0	t			baseline	0.0	95.48661832361313	
10.0	5.006109239443504	baseline	0.0		48.0		baseline	0.0	95.58208262309427	0.3999905217592641
10.0	5.406099761202768	ISI	1.0		11.0		baseline	0.0	95.98207314485353	0.09999785683066875
11.0	5.5060976180334364	baseline	0.0		48.0		baseline	0.0	96.0820710016842	0.39999414401654576
11.0	5.606212594529552	pulse	0.0	t			baseline	0.0	96.18218597818031	
11.0	5.906091762049982	ISI	1.0		7.0		baseline	0.0	96.48206514570074	0.1250140739807648
12.0	6.031105836030747	car	0.0		45.0	object	car-90.jpg	0.0	96.60707921968151	0.37495921186882697
12.0	6.3061800847667655	pulse	0.0	t		object	car-90.jpg	0.0	96.88215346841753	
12.0	6.406065047899574	ISI	1.0		6.0	object	car-90.jpg	0.0	96.98203843155034	0.11668016460771469
13.0	6.522745212507289	car	0.0		46.0	object	car-43.jpg	0.0	97.09871859615805	0.3832750099536497
13.0	6.906020222460938	ISI	1.0		5.0	object	car-43.jpg	0.0	97.4819936061117	0.1166973703311669
14.0	7.022717592792105	car	0.0		45.0	object	car-72.jpg	0.0	97.59869097644287	0.3832943286615773
14.0	7.014800846763137	pulse	0.0	t		object	car-72.jpg	0.0	97.5907742304139	
14.0	7.406011921453683	ISI	1.0		6.0	object	car-72.jpg	0.0	97.98198530510444	0.11668137202650541
15.0	7.522693293480188	car	0.0		46.0	object	car-35.jpg	0.0	98.09866667713095	0.3833091195469933
15.0	7.706122309756665	pulse	0.0	t		object	car-35.jpg	0.0	98.28209569340743	
15.0	7.906002413027181	ISI	1.0		7.0	object	car-35.jpg	0.0	98.48197579667794	0.11668469242977153
16.0	8.022687105456953	car	0.0		46.0	object	car-35.jpg	1.0	98.59866048910771	0.38330338430523625
16.0	8.405990489762189	ISI	1.0		7.0	object	car-35.jpg	1.0	98.98196387341295	0.11667865533354416
16.0	8.446403415064651	pulse	1.0	t		object	car-35.jpg	1.0	99.02237679871541	
17.0	8.522669145095733	car	0.0		45.0	object	car-63.jpg	0.0	99.0986425287465	0.38331153438548426
17.0	8.514506991108192	response	0.0	b		object	car-63.jpg	0.0	99.09048037475895	
17.0	8.905980679481218	ISI	1.0		6.0	object	car-63.jpg	0.0	99.48195406313198	0.11668227759082583
18.0	9.022662957072043	car	0.0		46.0	object	car-85.jpg	0.0	99.5986363407228	0.38328829156534994
18.0	9.106090494260116	pulse	0.0	t		object	car-85.jpg	0.0	99.68206387791088	
18.0	9.405951248637393	ISI	1.0		7.0	object	car-85.jpg	0.0	99.98192463228816	0.11671125565271723
19.0	9.52266250429011	car	0.0		46.0	object	car-115.jpg	0.0	100.09863588794087	0.38329644164468846
19.0	9.806073680947065	pulse	0.0	t		object	car-115.jpg	0.0	100.38204706459783	
19.0	9.905958945934799	ISI	1.0		7.0	object	car-115.jpg	0.0	100.48193232958556	0.11668257944620564
20.0	10.022641525381005	car	0.0		46.0	object	car-57.jpg	0.0	100.59861490903177	0.38330821398221815
20.0	10.405949739363223	ISI	1.0		6.0	object	car-57.jpg	0.0	100.98192312301398	0.11667986275278963
21.0	10.522629602116012	car	0.0		45.0	object	car-106.jpg	0.0	101.09860298576677	0.38330791212774784
21.0	10.514807638496222	pulse	0.0	t		object	car-106.jpg	0.0	101.09078102214698	
21.0	10.90593751424376	ISI	1.0		7.0	object	car-106.jpg	0.0	101.48191089789452	0.11668167388143047
22.0	11.02261918812519	car	0.0		46.0	object	car-46.jpg	0.0	101.59859257177595	0.3833064028535773
22.0	11.206043072869761	pulse	0.0	t		object	car-46.jpg	0.0	101.78201645652052	
22.0	11.405925590978768	ISI	1.0		7.0	object	car-46.jpg	0.0	101.98189897462953	0.11668378686499636
23.0	11.522609377843764	car	0.0		46.0	object	car-111.jpg	0.0	102.09858276149453	0.3832879897104249
23.0	11.90589736755419	ISI	1.0		5.0	object	car-111.jpg	0.0	102.48187075120495	0.11670069073443301
23.0	11.959121010875606	pulse	1.0	t		object	car-111.jpg	0.0	102.53509439452637	
24.0	12.022598058288622	adult	0.0		46.0	face	adult-81.jpg	0.0	102.59857144193938	0.38330519543433184
24.0	12.405903253722954	ISI	1.0		7.0	face	adult-81.jpg	0.0	102.98187663737372	0.11668559799409195
25.0	12.522588851717046	adult	0.0		46.0	face	adult-27.jpg	0.0	103.09856223536781	0.38333658833425943
25.0	12.606047178095196	pulse	0.0	t		face	adult-27.jpg	0.0	103.18202056174596	
25.0	12.905925440051305	ISI	1.0		7.0	face	adult-27.jpg	0.0	103.48189882370207	0.11669103138046921
26.0	13.022616471431775	adult	0.0		46.0	face	adult-57.jpg	0.0	103.59858985508254	0.3832698784221975
26.0	13.305999273737143	pulse	0.0	t		face	adult-57.jpg	0.0	103.8819726573879	
26.0	13.405886349853972	ISI	1.0		7.0	face	adult-57.jpg	0.0	103.98185973350473	0.11667986275233488
27.0	13.522566212606307	adult	0.0		46.0	face	adult-14.jpg	0.0	104.09853959625707	0.38330791212774784
27.0	13.905874124734055	ISI	1.0		6.0	face	adult-14.jpg	0.0	104.48184750838482	0.11668227759128058
28.0	14.022556402325336	adult	0.0		45.0	face	adult-26.jpg	0.0	104.5985297859761	0.3833054972892569
28.0	14.016758978897542	pulse	0.0	t		face	adult-26.jpg	0.0	104.5927323625483	
28.0	14.405861899614592	ISI	1.0		7.0	face	adult-26.jpg	0.0	104.98183528326535	0.11668408871992142
29.0	14.522545988334514	adult	0.0		46.0	face	adult-106.jpg	0.0	105.09851937198528	0.3833070065629727
29.0	14.70597047678848	pulse	0.0	t		face	adult-106.jpg	0.0	105.28194386043924	
29.0	14.905852994897486	ISI	1.0		7.0	face	adult-106.jpg	0.0	105.48182637854825	0.11668499428469659
30.0	15.022537989182183	adult	0.0		46.0	face	adult-60.jpg	0.0	105.59851137283295	0.3833036861601613
30.0	15.405841675342344	ISI	1.0		7.0	face	adult-60.jpg	0.0	105.9818150589931	0.11668650355841237
30.0	15.445707639733882	pulse	1.0	t		face	adult-60.jpg	0.0	106.02168102338464	
31.0	15.522528178900757	adult	0.0		46.0	face	adult-70.jpg	0.0	106.09850156255152	0.383303384305691
31.0	15.905831563206448	ISI	1.0		6.0	face	adult-70.jpg	0.0	106.48180494685721	0.11668227759082583
32.0	16.022513840797274	adult	0.0		46.0	face	adult-130.jpg	0.0	106.59848722444804	0.3833076102728228
32.0	16.105941679839816	pulse	0.0	t		face	adult-130.jpg	0.0	106.68191506349058	
32.0	16.405821451070096	ISI	1.0		6.0	face	adult-130.jpg	0.0	106.98179483472086	0.11668710726826248
33.0	16.52250855833836	adult	0.0		46.0	face	adult-123.jpg	0.0	107.09848194198912	0.38330036575734994
33.0	16.805928488784957	pulse	0.0	t		face	adult-123.jpg	0.0	107.38190187243572	
33.0	16.90580892409571	ISI	1.0		4.0	face	adult-123.jpg	0.0	107.48178230774647	0.11668167388143047
34.0	17.02249059797714	adult	0.0		46.0	face	adult-89.jpg	0.0	107.5984639816279	0.3833091195469933
34.0	17.405799717524133	ISI	1.0		6.0	face	adult-89.jpg	0.0	107.9817731011749	0.11668288130067594
35.0	17.52248259882481	adult	0.0		45.0	face	adult-120.jpg	0.0	108.09845598247557	0.3833070065634274
35.0	17.51120952919382	pulse	0.0	t		face	adult-120.jpg	0.0	108.08718291284458	
35.0	17.905789605388236	ISI	1.0		11.0	face	adult-120.jpg	0.0	108.481762989039	0.09999876239498917
36.0	18.005788367783225	baseline	0.0		48.0		baseline	0.0	108.58176175143399	0.39999082361418914
36.0	18.205894258449916	pulse	0.0	t			baseline	0.0	108.78186764210068	
36.0	18.405779191397414	ISI	1.0		11.0		baseline	0.0	108.98175257504818	0.09999846054051886
37.0	18.505777651937933	baseline	0.0		48.0		baseline	0.0	109.0817510355887	0.39999142732312976
37.0	18.905769079261063	ISI	1.0		11.0		baseline	0.0	109.48174246291182	0.09999725312127339
37.0	18.910379307732	pulse	1.0	t			baseline	0.0	109.48635269138276	
38.0	19.005766332382336	baseline	0.0		48.0		baseline	0.0	109.5817397160331	0.40005934465534665
38.0	19.405825677037683	ISI	1.0		11.0		baseline	0.0	109.98179906068845	0.0999975549757437
39.0	19.505823232013427	baseline	0.0		48.0		baseline	0.0	110.08179661566419	0.3999935403071504
39.0	19.605934284397335	pulse	0.0	t			baseline	0.0	110.1819076680481	
39.0	19.905816772320577	ISI	1.0		11.0		baseline	0.0	110.48179015597134	0.10000449763674624
40.0	20.005821269957323	baseline	0.0		48.0		baseline	0.0	110.58179465360809	0.3999823716794708
40.0	20.30591837664906	pulse	0.0	t			baseline	0.0	110.88189176029982	
40.0	20.405803641636794	ISI	1.0		11.0		baseline	0.0	110.98177702528756	0.09999876239498917
41.0	20.505802404031783	baseline	0.0		48.0		baseline	0.0	111.08177578768255	0.3999914273235845
41.0	20.905793831355368	ISI	1.0		11.0		baseline	0.0	111.48176721500613	0.0999978568311235
42.0	21.00579168818649	baseline	0.0		47.0		baseline	0.0	111.58176507183725	0.3999929365973003
42.0	21.00998233847531	pulse	0.0	t			baseline	0.0	111.58595572212607	
42.0	21.40578462478379	ISI	1.0		11.0		baseline	0.0	111.98175800843455	0.09999604570202791
43.0	21.50578067048582	baseline	0.0		48.0		baseline	0.0	112.08175405413658	0.39999263474283
43.0	21.705888975990547	pulse	0.0	t			baseline	0.0	112.28186235964131	
43.0	21.90577330522865	ISI	1.0		11.0		baseline	0.0	112.48174668887941	0.09999695126634833
44.0	22.005770256494998	baseline	0.0		48.0		baseline	0.0	112.58174364014576	0.39999052175880934
44.0	22.405760778253807	ISI	1.0		11.0		baseline	0.0	112.98173416190457	0.1000005735245395
44.0	22.41030882463474	pulse	1.0	t			baseline	0.0	112.9862822082855	
45.0	22.505761351778347	baseline	0.0		48.0		baseline	0.0	113.08173473542911	0.39999112546865945
45.0	22.905752477247006	ISI	1.0		11.0		baseline	0.0	113.48172586089777	0.09999574384710286
46.0	23.00574822109411	baseline	0.0		48.0		baseline	0.0	113.58172160474487	0.39999263474283
46.0	23.105863197590224	pulse	0.0	t			baseline	0.0	113.68183658124099	
46.0	23.40574085583694	ISI	1.0		11.0		baseline	0.0	113.9817142394877	0.09999996981423465
47.0	23.505740825651174	baseline	0.0		48.0		baseline	0.0	114.08171420930194	0.3999887106301685
47.0	23.8058466861321	pulse	0.0	t			baseline	0.0	114.38182006978286	
47.0	23.905729536281342	ISI	1.0		11.0		baseline	0.0	114.4817029199321	0.09999755497619844
48.0	24.00572709125754	baseline	0.0		48.0		baseline	0.0	114.5817004749083	0.39999112546865945
48.0	24.4057182167262	ISI	1.0		11.0		baseline	0.0	114.98169160037696	0.10000117723393487
49.0	24.505719393960135	baseline	0.0		47.0		baseline	0.0	115.0816927776109	0.399989918049414
49.0	24.50996015214696	pulse	0.0	t			baseline	0.0	115.08593353579772	
49.0	24.90570931200955	ISI	1.0		11.0		baseline	0.0	115.48168269566031	0.09999634755649822
50.0	25.005705659566047	baseline	0.0		48.0		baseline	0.0	115.58167904321681	0.39999263474283
50.0	25.205812757651984	pulse	0.0	t			baseline	0.0	115.78178614130275	
50.0	25.405698294308877	ISI	1.0		11.0		baseline	0.0	115.98167167795964	0.09999725312127339
51.0	25.50569554743015	baseline	0.0		48.0		baseline	0.0	116.08166893108091	0.3999923328879049
51.0	25.905687880318055	ISI	1.0		11.0		baseline	0.0	116.48166126396882	0.09998638634806412
51.0	25.910285732742068	pulse	1.0	t			baseline	0.0	116.48625911639283	
52.0	26.00567426666612	baseline	0.0		48.0		baseline	0.0	116.58164765031688	0.40000350151603925
52.0	26.40567776818216	ISI	1.0		11.0		baseline	0.0	116.98165115183292	0.09999815868559381
53.0	26.505675926867752	baseline	0.0		48.0		baseline	0.0	117.08164931051851	0.39999052175880934
53.0	26.60578637554181	pulse	0.0	t			baseline	0.0	117.18175975919257	
53.0	26.90566644862656	ISI	1.0		11.0		baseline	0.0	117.48163983227732	0.1000005735245395
54.0	27.0056670221511	baseline	0.0		48.0		baseline	0.0	117.58164040580186	0.39999323845222534
54.0	27.30576865666444	pulse	0.0	t			baseline	0.0	117.8817420403152	
54.0	27.405660260603327	ISI	1.0		11.0		baseline	0.0	117.98163364425409	0.09999574384710286
55.0	27.50565600445043	baseline	0.0		48.0		baseline	0.0	118.08162938810119	0.39998840877524344
55.0	27.905644413225673	ISI	1.0		11.0		baseline	0.0	118.48161779687644	0.09999815868604855
56.0	28.00564257191172	baseline	0.0		47.0		baseline	0.0	118.58161595556248	0.3999923328879049
56.0	28.009877896711714	pulse	0.0	t			baseline	0.0	118.58585128036248	
56.0	28.405634904799626	ISI	1.0		11.0		baseline	0.0	118.98160828845039	0.10000147908840518
57.0	28.50563638388803	baseline	0.0		48.0		baseline	0.0	119.0816097675388	0.39995580845607037
57.0	28.705747406086175	pulse	0.0	t			baseline	0.0	119.28172078973694	
57.0	28.905592192344102	ISI	1.0		11.0		baseline	0.0	119.48156557599486	0.10000570505599171
58.0	29.005597897400094	baseline	0.0		48.0		baseline	0.0	119.58157128105086	0.40000772748317104
58.0	29.405605624883265	ISI	1.0		11.0		baseline	0.0	119.98157900853403	0.10000117723348012
58.0	29.41021192924154	pulse	1.0	t			baseline	0.0	119.9861853128923	
59.0	29.505606802116745	baseline	0.0		48.0		baseline	0.0	120.0815801857675	0.3999956532907163
59.0	29.90560245540746	ISI	1.0		6.0		baseline	0.0	120.48157583905822	0.11664937541718245
60.0	30.022251830824644	adult	0.0		46.0	face	adult-129.jpg	0.0	120.5982252144754	0.38330398801508636
60.0	30.105676349464375	pulse	0.0	t		face	adult-129.jpg	0.0	120.68164973311514	
60.0	30.40555581883973	ISI	1.0		6.0	face	adult-129.jpg	0.0	120.98152920249049	0.11671397234613323
61.0	30.522269791185863	adult	0.0		46.0	face	adult-44.jpg	0.0	121.09824317483663	0.38327591551797013
61.0	30.805663158409516	pulse	0.0	t		face	adult-44.jpg	0.0	121.38163654206028	
61.0	30.905545706703833	ISI	1.0		6.0	face	adult-44.jpg	0.0	121.4815190903546	0.11668559799409195
62.0	31.022231304697925	adult	0.0		46.0	face	adult-19.jpg	0.0	121.59820468834869	0.3833048935794068
62.0	31.405536198277332	ISI	1.0		5.0	face	adult-19.jpg	0.0	121.9815095819281	0.11668348501052606
63.0	31.522219683287858	adult	0.0		45.0	face	adult-79.jpg	0.0	122.09819306693862	0.38330519543433184
63.0	31.50935976293522	pulse	0.0	t		face	adult-79.jpg	0.0	122.08533314658598	
63.0	31.90552487872219	ISI	1.0		6.0	face	adult-79.jpg	0.0	122.48149826237295	0.11669767218609195
64.0	32.02222255090828	adult	0.0		46.0	face	adult-68.jpg	0.0	122.59819593455904	0.38329191382308636
64.0	32.20563436146085	pulse	0.0	t		face	adult-68.jpg	0.0	122.78160774511161	
64.0	32.40551446473137	ISI	1.0		5.0	face	adult-68.jpg	0.0	122.98148784838213	0.11668982396122374
65.0	32.52220428869259	adult	0.0		46.0	face	adult-119.jpg	0.0	123.09817767234335	0.3832985546287091
65.0	32.9055028433213	ISI	1.0		7.0	face	adult-119.jpg	0.0	123.48147622697206	0.11668861654197826
65.0	32.945169885394535	pulse	1.0	t		face	adult-119.jpg	0.0	123.5211432690453	
66.0	33.02219145986328	adult	0.0		46.0	face	adult-134.jpg	0.0	123.59816484351404	0.3833021768864455
66.0	33.405493636749725	ISI	1.0		7.0	face	adult-134.jpg	0.0	123.98146702040049	0.11668740912273279
67.0	33.52218104587246	adult	0.0		46.0	face	adult-135.jpg	0.0	124.09815442952322	0.38330308245076594
67.0	33.6056025459643	pulse	0.0	t		face	adult-135.jpg	0.0	124.18157592961506	
67.0	33.905484128323224	ISI	1.0		7.0	face	adult-135.jpg	0.0	124.48145751197399	0.11668439057484647
68.0	34.02216851889807	adult	0.0		46.0	face	adult-66.jpg	0.0	124.59814190254883	0.38327199140530865
68.0	34.305556754589816	pulse	0.0	t		face	adult-66.jpg	0.0	124.88153013824058	
68.0	34.40544051030338	ISI	1.0		4.0	face	adult-66.jpg	0.0	124.98141389395414	0.11666597743169405
69.0	34.52210648773507	adult	0.0		46.0	face	adult-113.jpg	0.0	125.09807987138583	0.38332541970657985
69.0	34.90543190744165	ISI	1.0		6.0	face	adult-113.jpg	0.0	125.48140529109241	0.11667654234952352
70.0	35.022108449791176	adult	0.0		45.0	face	adult-109.jpg	0.0	125.59808183344194	0.3833112325305592
70.0	35.013824044606736	pulse	0.0	t		face	adult-109.jpg	0.0	125.5897974282575	
70.0	35.405419682321735	ISI	1.0		7.0	face	adult-109.jpg	0.0	125.9813930659725	0.11667684420490332
71.0	35.52209652652664	adult	0.0		46.0	face	adult-83.jpg	0.0	126.0980699101774	0.38331304365920005
71.0	35.70552825949608	pulse	0.0	t		face	adult-83.jpg	0.0	126.28150164314684	
71.0	35.90540957018584	ISI	1.0		7.0	face	adult-83.jpg	0.0	126.4813829538366	0.116683183155601
72.0	36.02209275334144	car	0.0		46.0	object	car-75.jpg	0.0	126.5980661369922	0.3833042898700114
72.0	36.40539704321145	ISI	1.0		6.0	object	car-75.jpg	0.0	126.98137042686221	0.1166855979936372
72.0	36.44929971194006	pulse	1.0	t		object	car-75.jpg	0.0	127.02527309559082	
73.0	36.52208264120509	car	0.0		46.0	object	car-101.jpg	0.0	127.09805602485585	0.3833054972892569
73.0	36.905388138494345	ISI	1.0		7.0	object	car-101.jpg	0.0	127.48136152214511	0.1166810701720351
74.0	37.02206920866638	car	0.0		46.0	object	car-101.jpg	1.0	127.59804259231714	0.3833064028535773
74.0	37.10549584028968	pulse	0.0	t		object	car-101.jpg	1.0	127.68146922394044	
74.0	37.40537561151996	ISI	1.0		5.0	object	car-101.jpg	1.0	127.98134899517072	0.11667925904293952
75.0	37.5220548705629	car	0.0		45.0	object	car-24.jpg	0.0	128.09802825421366	0.3833112325305592
75.0	37.51418551573852	response	0.0	b		object	car-24.jpg	0.0	128.09015889938928	
75.0	37.805472386171004	pulse	0.0	t		object	car-24.jpg	0.0	128.38144576982177	
75.0	37.905366103093456	ISI	1.0		7.0	object	car-24.jpg	0.0	128.48133948674422	0.11669706847669659
76.0	38.02206317157015	car	0.0		46.0	object	car-53.jpg	0.0	128.59803655522092	0.3832925175324817
76.0	38.405355689102635	ISI	1.0		6.0	object	car-53.jpg	0.0	128.9813290727534	0.11667956089786458
77.0	38.5220352500005	car	0.0		45.0	object	car-2.jpg	0.0	129.09800863365126	0.38331213809487963
77.0	38.51399836575774	pulse	0.0	t		object	car-2.jpg	0.0	129.0899717494085	
77.0	38.90534738809538	ISI	1.0		7.0	object	car-2.jpg	0.0	129.48132077174614	0.116685899849017
78.0	39.022033287944396	car	0.0		46.0	object	car-14.jpg	0.0	129.59800667159516	0.383300667612275
78.0	39.20545204115706	pulse	0.0	t		object	car-14.jpg	0.0	129.78142542480782	
78.0	39.40533395555667	ISI	1.0		7.0	object	car-14.jpg	0.0	129.98130733920743	0.11668891839690332
79.0	39.522022873953574	car	0.0		46.0	object	car-36.jpg	0.0	130.09799625760434	0.38330127132167036
79.0	39.905324145275245	ISI	1.0		6.0	object	car-36.jpg	0.0	130.481297528926	0.116668392270185
79.0	39.949213834247075	pulse	1.0	t		object	car-36.jpg	0.0	130.52518721789784	
80.0	40.02199253754543	car	0.0		46.0	object	car-124.jpg	0.0	130.5979659211962	0.38335137921967544
80.0	40.405343916765105	ISI	1.0		6.0	object	car-124.jpg	0.0	130.98131730041587	0.11668831468750795
81.0	40.52203223145261	car	0.0		46.0	object	car-47.jpg	0.0	131.09800561510338	0.38327048213159287
81.0	40.605422338644075	pulse	0.0	t		object	car-47.jpg	0.0	131.18139572229484	
81.0	40.905302713584206	ISI	1.0		6.0	object	car-47.jpg	0.0	131.48127609723497	0.11668499428424184
82.0	41.02198770786845	car	0.0		46.0	object	car-66.jpg	0.0	131.5979610915192	0.38330579914418195
82.0	41.30540703460565	pulse	0.0	t		object	car-66.jpg	0.0	131.8813804182564	
82.0	41.40529350701263	ISI	1.0		7.0	object	car-66.jpg	0.0	131.9812668906634	0.116692540654185
83.0	41.521986047666815	car	0.0		46.0	object	car-22.jpg	0.0	132.09795943131758	0.38329523422589773
83.0	41.90528128189271	ISI	1.0		6.0	object	car-22.jpg	0.0	132.48125466554347	0.11667895718846921
84.0	42.02196023908118	word	0.0		45.0	character	word-80.jpg	0.0	132.59793362273194	0.38331213809487963
84.0	42.013831892831604	pulse	0.0	t		character	word-80.jpg	0.0	132.58980527648237	
84.0	42.40527237717606	ISI	1.0		7.0	character	word-80.jpg	0.0	132.98124576082682	0.1166852961391669
85.0	42.52195767331523	word	0.0		46.0	character	word-98.jpg	0.0	133.097931056966	0.38330338430523625
85.0	42.70537853951146	pulse	0.0	t		character	word-98.jpg	0.0	133.28135192316222	
85.0	42.905261057620464	ISI	1.0		6.0	character	word-98.jpg	0.0	133.48123444127123	0.11668076831711005
86.0	43.021941825937574	word	0.0		46.0	character	word-72.jpg	0.0	133.59791520958834	0.3833103269662388
86.0	43.40525215290381	ISI	1.0		7.0	character	word-72.jpg	0.0	133.98122553655458	0.11668167388143047
86.0	43.44322609136361	pulse	1.0	t		character	word-72.jpg	0.0	134.01919947501437	
87.0	43.521933826785244	word	0.0		46.0	character	word-66.jpg	0.0	134.097907210436	0.3833054972892569
87.0	43.9052393240745	ISI	1.0		7.0	character	word-66.jpg	0.0	134.48121270772526	0.11668016460771469
88.0	44.021919488682215	word	0.0		46.0	character	word-77.jpg	0.0	134.59789287233298	0.38331093067563415
88.0	44.105352157401285	pulse	0.0	t		character	word-77.jpg	0.0	134.68132554105205	
88.0	44.40523041935785	ISI	1.0		6.0	character	word-77.jpg	0.0	134.9812038030086	0.1166783534786191
89.0	44.52190877283647	word	0.0		46.0	character	word-23.jpg	0.0	135.09788215648723	0.38331093067563415
89.0	44.80533081626663	pulse	0.0	t		character	word-23.jpg	0.0	135.3813041999174	
89.0	44.9052197035121	ISI	1.0		6.0	character	word-23.jpg	0.0	135.48119308716286	0.11667412751148731
90.0	45.02189383102359	word	0.0		46.0	character	word-58.jpg	0.0	135.59786721467435	0.383312741804275
90.0	45.405206572827865	ISI	1.0		5.0	character	word-58.jpg	0.0	135.98117995647863	0.11667986275278963
91.0	45.521886435580655	word	0.0		45.0	character	word-31.jpg	0.0	136.09785981923142	0.38329432866112256
91.0	45.513905394477206	pulse	0.0	t		character	word-31.jpg	0.0	136.08987877812797	
91.0	45.90518076424178	ISI	1.0		7.0	character	word-31.jpg	0.0	136.48115414789254	0.11669948331518754
92.0	46.021880247556965	word	0.0		46.0	character	word-112.jpg	0.0	136.59785363120773	0.38331545849814574
92.0	46.20529869891516	pulse	0.0	t		character	word-112.jpg	0.0	136.78127208256592	
92.0	46.40519570605511	ISI	1.0		7.0	character	word-112.jpg	0.0	136.98116908970587	0.11667322194671215
93.0	46.52186892800182	word	0.0		46.0	character	word-84.jpg	0.0	137.09784231165258	0.3833417198661664
93.0	46.90521064786799	ISI	1.0		7.0	character	word-84.jpg	0.0	137.48118403151875	0.11668197573635553
93.0	46.93905309958109	pulse	1.0	t		character	word-84.jpg	0.0	137.51502648323185	
94.0	47.021892623604344	word	0.0		46.0	character	word-24.jpg	0.0	137.5978660072551	0.38327199140530865
94.0	47.40516461500965	ISI	1.0		7.0	character	word-24.jpg	0.0	137.98113799866042	0.11668771097765784
95.0	47.52185232598731	word	0.0		46.0	character	word-37.jpg	0.0	138.09782570963807	0.38330187503152047
95.0	47.605271411240665	pulse	0.0	t		character	word-37.jpg	0.0	138.18124479489143	
95.0	47.90515420101883	ISI	1.0		7.0	character	word-37.jpg	0.0	138.4811275846696	0.11668348501052606
96.0	48.02183768602936	body	0.0		46.0	body	body-30.jpg	0.0	138.59781106968012	0.3833048935794068
96.0	48.3052588238952	pulse	0.0	t		body	body-30.jpg	0.0	138.88123220754596	
96.0	48.405142579608764	ISI	1.0		6.0	body	body-30.jpg	0.0	138.98111596325953	0.1166880128325829
97.0	48.52183059244135	body	0.0		46.0	body	body-60.jpg	0.0	139.0978039760921	0.38330127132167036
97.0	48.90513186376302	ISI	1.0		7.0	body	body-60.jpg	0.0	139.48110524741378	0.11668137202696016
98.0	49.02181323578998	body	0.0		45.0	body	body-128.jpg	0.0	139.59778661944074	0.38331002511131373
98.0	49.01396018112473	pulse	0.0	t		body	body-128.jpg	0.0	139.5899335647755	
98.0	49.40512326090129	ISI	1.0		7.0	body	body-128.jpg	0.0	139.98109664455205	0.11668197573635553
99.0	49.52180523663765	body	0.0		46.0	body	body-68.jpg	0.0	140.0977786202884	0.3833057991437272
99.0	49.70522912138222	pulse	0.0	t		body	body-68.jpg	0.0	140.28120250503298	
99.0	49.905111035781374	ISI	1.0		7.0	body	body-68.jpg	0.0	140.48108441943214	0.11668076831711005
100.0	50.021791804098484	body	0.0		46.0	body	body-64.jpg	0.0	140.59776518774925	0.3833097232563887
100.0	50.40510152735487	ISI	1.0		6.0	body	body-64.jpg	0.0	140.98107491100563	0.11668288130067594
100.0	50.44606775251896	pulse	1.0	t		body	body-64.jpg	0.0	141.02204113616972	
101.0	50.52178440865555	body	0.0		46.0	body	body-14.jpg	0.0	141.0977577923063	0.3833051954347866
101.0	50.905089604090335	ISI	1.0		7.0	body	body-14.jpg	0.0	141.4810629877411	0.11669495549267594
102.0	51.02178455958301	body	0.0		46.0	body	body-15.jpg	0.0	141.59775794323377	0.38329463051650237
102.0	51.105204550400686	pulse	0.0	t		body	body-15.jpg	0.0	141.68117793405145	
102.0	51.405079190099514	ISI	1.0		7.0	body	body-15.jpg	0.0	141.98105257375028	0.11668408871992142
103.0	51.521763278819435	body	0.0		46.0	body	body-17.jpg	0.0	142.0977366624702	0.3833067047080476
103.0	51.80518381297543	pulse	0.0	t		body	body-17.jpg	0.0	142.3811571966262	
103.0	51.90506998352748	ISI	1.0		7.0	body	body-17.jpg	0.0	142.48104336717824	0.11668167388188522
104.0	52.02175165740937	body	0.0		46.0	body	body-74.jpg	0.0	142.59772504106013	0.38330911954653857
104.0	52.40506077695591	ISI	1.0		7.0	body	body-74.jpg	0.0	142.98103416060667	0.11667624049505321
105.0	52.52173701745096	body	0.0		45.0	body	body-107.jpg	0.0	143.09771040110172	0.38331002511131373
105.0	52.513790991505175	pulse	0.0	t		body	body-107.jpg	0.0	143.08976437515594	
105.0	52.90504704256227	ISI	1.0		7.0	body	body-107.jpg	0.0	143.48102042621304	0.11668288130067594
106.0	53.02172992386295	body	0.0		46.0	body	body-22.jpg	0.0	143.5977033075137	0.383338399463355
106.0	53.20518640892669	pulse	0.0	t		body	body-22.jpg	0.0	143.78115979257745	
106.0	53.405068323326304	ISI	1.0		6.0	body	body-22.jpg	0.0	143.98104170697707	0.11672634839305829
107.0	53.52179467171936	body	0.0		46.0	body	body-20.jpg	0.0	144.09776805537012	0.3832324484255878
107.0	53.90502712014495	ISI	1.0		7.0	body	body-20.jpg	0.0	144.4810005037957	0.11668469242977153
107.0	53.944436076358215	pulse	1.0	t		body	body-20.jpg	0.0	144.52040946000898	
108.0	54.02171181257472	word	0.0		46.0	character	word-15.jpg	0.0	144.59768519622548	0.3833064028535773
108.0	54.4050182154283	ISI	1.0		7.0	character	word-15.jpg	0.0	144.98099159907906	0.11668922025182837
109.0	54.52170743568013	word	0.0		46.0	character	word-62.jpg	0.0	145.0976808193309	0.38329825277378404
109.0	54.60512440794946	pulse	0.0	t		character	word-62.jpg	0.0	145.18109779160022	
109.0	54.90500568845391	ISI	1.0		7.0	character	word-62.jpg	0.0	145.48097907210467	0.1166852961391669
110.0	55.02169098459308	word	0.0		46.0	character	word-62.jpg	1.0	145.59766436824384	0.3833048935794068
110.0	55.3051100094749	pulse	0.0	t		character	word-62.jpg	1.0	145.88108339312566	
110.0	55.404995878172485	ISI	1.0		6.0	character	word-62.jpg	1.0	145.98096926182325	0.11668288130067594
111.0	55.52167875947316	word	0.0		46.0	character	word-107.jpg	0.0	146.09765214312392	0.38330791212774784
111.0	55.755098252230255	response	0.0	b		character	word-107.jpg	0.0	146.33107163588102	
111.0	55.90498667160091	ISI	1.0		6.0	character	word-107.jpg	0.0	146.48096005525167	0.11667654234952352
112.0	56.02166321395043	word	0.0		45.0	character	word-135.jpg	0.0	146.5976365976012	0.38331062882116385
112.0	56.01378872759415	pulse	0.0	t		character	word-135.jpg	0.0	146.5897621112449	
112.0	56.4049738427716	ISI	1.0		6.0	character	word-135.jpg	0.0	146.98094722642236	0.11668408871992142
113.0	56.52165793149152	word	0.0		46.0	character	word-38.jpg	0.0	147.09763131514228	0.3833048935794068
113.0	56.70509057002573	pulse	0.0	t		character	word-38.jpg	0.0	147.2810639536765	
113.0	56.904962825070925	ISI	1.0		7.0	character	word-38.jpg	0.0	147.4809362087217	0.11665903477114625
114.0	57.02162185984207	word	0.0		46.0	character	word-140.jpg	0.0	147.59759524349283	0.38333115494788217
114.0	57.40495301478995	ISI	1.0		7.0	character	word-140.jpg	0.0	147.98092639844072	0.11667322194671215
114.0	57.43830283945772	pulse	1.0	t		character	word-140.jpg	0.0	148.01427622310848	
115.0	57.521626236736665	word	0.0		46.0	character	word-108.jpg	0.0	148.09759962038743	0.38331485478829563
115.0	57.90494109152496	ISI	1.0		7.0	character	word-108.jpg	0.0	148.48091447517572	0.11669103138046921
116.0	58.02163212290543	word	0.0		46.0	character	word-60.jpg	0.0	148.5976055065562	0.3832997620479546
116.0	58.105064791624955	pulse	0.0	t		character	word-60.jpg	0.0	148.68103817527572	
116.0	58.404931884953385	ISI	1.0		7.0	character	word-60.jpg	0.0	148.98090526860415	0.11668167388143047
117.0	58.521613558834815	word	0.0		46.0	character	word-21.jpg	0.0	149.09758694248558	0.38330942140191837
117.0	58.80503560226498	pulse	0.0	t		character	word-21.jpg	0.0	149.38100898591574	
117.0	58.904922980236734	ISI	1.0		7.0	character	word-21.jpg	0.0	149.4808963638875	0.11667956089786458
118.0	59.0216025411346	word	0.0		46.0	character	word-41.jpg	0.0	149.59757592478536	0.3833085158371432
118.0	59.40491105697174	ISI	1.0		7.0	character	word-41.jpg	0.0	149.9808844406225	0.11667624049505321
119.0	59.521587297466795	word	0.0		45.0	character	word-139.jpg	0.0	150.09756068111756	0.38334504026897775
119.0	59.51369500167675	pulse	0.0	t		character	word-139.jpg	0.0	150.0896683853275	
119.0	59.90493233773577	ISI	1.0		6.0	character	word-139.jpg	0.0	150.48090572138653	0.11668710726780773
120.0	60.02161944500358	adult	0.0		46.0	face	adult-143.jpg	0.0	150.59759282865434	0.3832532764076859
120.0	60.205007409026166	pulse	0.0	t		face	adult-143.jpg	0.0	150.78098079267693	
120.0	60.404872721411266	ISI	1.0		7.0	face	adult-143.jpg	0.0	150.98084610506203	0.11669435178328058
121.0	60.52156707319455	adult	0.0		46.0	face	adult-45.jpg	0.0	151.0975404568453	0.3833142510784455
121.0	60.90488132427299	ISI	1.0		7.0	face	adult-45.jpg	0.0	151.48085470792375	0.11668016460771469
121.0	60.94351843774439	pulse	1.0	t		face	adult-45.jpg	0.0	151.51949182139515	
122.0	61.02156148888071	adult	0.0		46.0	face	adult-1.jpg	0.0	151.59753487253147	0.3833091195469933
122.0	61.4048706084277	ISI	1.0		7.0	face	adult-1.jpg	0.0	151.98084399207846	0.1166807683166553
123.0	61.521551376744355	adult	0.0		46.0	face	adult-127.jpg	0.0	152.09752476039512	0.38330640285403206
123.0	61.60496201006299	pulse	0.0	t		face	adult-127.jpg	0.0	152.18093539371375	
123.0	61.90485777959839	ISI	1.0		7.0	face	adult-127.jpg	0.0	152.48083116324915	0.11668257944575089
124.0	62.02154035904414	adult	0.0		46.0	face	adult-48.jpg	0.0	152.5975137426949	0.3833118362399546
124.0	62.30496693029636	pulse	0.0	t		face	adult-48.jpg	0.0	152.88094031394712	
124.0	62.40485219528409	ISI	1.0		4.0	face	adult-48.jpg	0.0	152.98082557893486	0.11668197573635553
125.0	62.52153417102045	adult	0.0		46.0	face	adult-124.jpg	0.0	153.0975075546712	0.38329825277378404
125.0	62.90483242379423	ISI	1.0		7.0	face	adult-124.jpg	0.0	153.480805807445	0.11668257944620564
126.0	63.02151500324044	adult	0.0		45.0	face	adult-142.jpg	0.0	153.5974883868912	0.38331213809487963
126.0	63.0135759199552	pulse	0.0	t		face	adult-142.jpg	0.0	153.58954930360596	
126.0	63.40482714133532	ISI	1.0		8.0	face	adult-142.jpg	0.0	153.98080052498608	0.11668348501007131
127.0	63.52151062634539	adult	0.0		46.0	face	adult-96.jpg	0.0	154.09748400999615	0.383306100999107
127.0	63.704936322219055	pulse	0.0	t		face	adult-96.jpg	0.0	154.28090970586982	
127.0	63.904816727344496	ISI	1.0		6.0	face	adult-96.jpg	0.0	154.48079011099526	0.11668469242931678
128.0	64.02150141977381	adult	0.0		46.0	face	adult-82.jpg	0.0	154.59747480342457	0.38330579914418195
128.0	64.404807218918	ISI	1.0		7.0	face	adult-82.jpg	0.0	154.98078060256876	0.11667925904293952
128.0	64.43915467372335	pulse	1.0	t		face	adult-82.jpg	0.0	155.0151280573741	
129.0	64.52148647796093	adult	0.0		46.0	face	adult-53.jpg	0.0	155.0974598616117	0.38330579914418195
129.0	64.90479227710512	ISI	1.0		8.0	face	adult-53.jpg	0.0	155.48076566075588	0.11668408871992142
130.0	65.02147636582504	adult	0.0		46.0	face	adult-53.jpg	1.0	155.5974497494758	0.3833054972892569
130.0	65.10490752527039	pulse	0.0	t		face	adult-53.jpg	1.0	155.68088090892115	
130.0	65.4047818631143	ISI	1.0		6.0	face	adult-53.jpg	1.0	155.98075524676506	0.11668348501007131
130.0	65.47989360221754	response	1.0	b		face	adult-53.jpg	1.0	156.0558669858683	
131.0	65.52146534812437	adult	0.0		46.0	face	adult-55.jpg	0.0	156.09743873177513	0.383306100999107
131.0	65.80487622292685	pulse	0.0	t		face	adult-55.jpg	0.0	156.3808496065776	
131.0	65.90477144912347	ISI	1.0		8.0	face	adult-55.jpg	0.0	156.48074483277423	0.11668408871992142
132.0	66.0214555378434	adult	0.0		46.0	face	adult-6.jpg	0.0	156.59742892149416	0.3833387013178253
132.0	66.40479423916122	ISI	1.0		7.0	face	adult-6.jpg	0.0	156.98076762281198	0.11668167388143047
133.0	66.52147591304265	adult	0.0		45.0	face	adult-101.jpg	0.0	157.0974492966934	0.3833064028535773
133.0	66.51365093087497	pulse	0.0	t		face	adult-101.jpg	0.0	157.08962431452574	
133.0	66.90478231589623	ISI	1.0		7.0	face	adult-101.jpg	0.0	157.480755699547	0.1166852961391669
134.0	67.0214676120354	adult	0.0		46.0	face	adult-105.jpg	0.0	157.59744099568616	0.3832747080991794
134.0	67.20485919831572	pulse	0.0	t		face	adult-105.jpg	0.0	157.78083258196648	
134.0	67.40474232013457	ISI	1.0		5.0	face	adult-105.jpg	0.0	157.98071570378534	0.1166783534786191
135.0	67.52142067361319	adult	0.0		46.0	face	adult-136.jpg	0.0	158.09739405726395	0.3833133455141251
135.0	67.90473401912732	ISI	1.0		7.0	face	adult-136.jpg	0.0	158.48070740277808	0.11667956089786458
135.0	67.94235176891425	pulse	1.0	t		face	adult-136.jpg	0.0	158.518325152565	
136.0	68.02141358002518	adult	0.0		46.0	face	adult-97.jpg	0.0	158.59738696367594	0.38330610099865225
136.0	68.40471968102383	ISI	1.0		7.0	face	adult-97.jpg	0.0	158.9806930646746	0.116685899849017
137.0	68.52140558087285	adult	0.0		46.0	face	adult-50.jpg	0.0	159.0973789645236	0.3833036861601613
137.0	68.60483885330177	pulse	0.0	t		face	adult-50.jpg	0.0	159.18081223695253	
137.0	68.90470926703301	ISI	1.0		8.0	face	adult-50.jpg	0.0	159.48068265068378	0.11668137202650541
138.0	69.02139063905952	adult	0.0		46.0	face	adult-50.jpg	1.0	159.59736402271028	0.38330881769206826
138.0	69.30481419176385	pulse	0.0	t		face	adult-50.jpg	1.0	159.88078757541462	
138.0	69.40469945675159	ISI	1.0		6.0	face	adult-50.jpg	1.0	159.98067284040235	0.11668076831711005
139.0	69.5213802250687	adult	0.0		46.0	face	adult-117.jpg	0.0	160.09735360871946	0.3833091195469933
139.0	69.64647247944413	response	0.0	b		face	adult-117.jpg	0.0	160.2224458630949	
139.0	69.90468934461569	ISI	1.0		7.0	face	adult-117.jpg	0.0	160.48066272826645	0.11667080710867594
140.0	70.02136015172437	adult	0.0		45.0	face	adult-102.jpg	0.0	160.59733353537513	0.38331606220708636
140.0	70.01347781714276	pulse	0.0	t		face	adult-102.jpg	0.0	160.58945120079352	
140.0	70.40467621393145	ISI	1.0		7.0	face	adult-102.jpg	0.0	160.98064959758221	0.11668740912318754
141.0	70.52136362305464	adult	0.0		46.0	face	adult-38.jpg	0.0	161.0973370067054	0.38330610099865225
141.0	70.70478660223444	pulse	0.0	t		face	adult-38.jpg	0.0	161.2807599858852	
141.0	70.90466972405329	ISI	1.0		8.0	face	adult-38.jpg	0.0	161.48064310770405	0.11668469242977153
142.0	71.02135441648306	adult	0.0		46.0	face	adult-99.jpg	0.0	161.59732780013383	0.38330036575734994
142.0	71.40465478224041	ISI	1.0		6.0	face	adult-99.jpg	0.0	161.98062816589118	0.11668288130067594
142.0	71.4467493406737	pulse	1.0	t		face	adult-99.jpg	0.0	162.02272272432447	
143.0	71.52133766354109	adult	0.0		46.0	face	adult-36.jpg	0.0	162.09731104719185	0.3833070065629727
143.0	71.90464467010406	ISI	1.0		5.0	face	adult-36.jpg	0.0	162.48061805375482	0.116685899849017
144.0	72.02133056995308	house	0.0		46.0	place	house-98.jpg	0.0	162.59730395360384	0.3833042898700114
144.0	72.10476686093034	pulse	0.0	t		place	house-98.jpg	0.0	162.6807402445811	
144.0	72.40463485982309	ISI	1.0		7.0	place	house-98.jpg	0.0	162.98060824347385	0.11668227759128058
145.0	72.52131713741437	house	0.0		46.0	place	house-82.jpg	0.0	163.09729052106513	0.38330881769206826
145.0	72.80473857713469	pulse	0.0	t		place	house-82.jpg	0.0	163.38071196078545	
145.0	72.90462595510644	ISI	1.0		6.0	place	house-82.jpg	0.0	163.4805993387572	0.11668167388143047
146.0	73.02130762898787	house	0.0		46.0	place	house-114.jpg	0.0	163.59728101263863	0.3833368901891845
146.0	73.40464451917705	ISI	1.0		7.0	place	house-114.jpg	0.0	163.98061790282782	0.11667805162369405
147.0	73.52132257080075	house	0.0		45.0	place	house-65.jpg	0.0	164.0972959544515	0.38331304365920005
147.0	73.51355011136911	pulse	0.0	t		place	house-65.jpg	0.0	164.08952349501988	
147.0	73.90463561445995	ISI	1.0		7.0	place	house-65.jpg	0.0	164.4806089981107	0.11665209211059846
148.0	74.02128770657055	house	0.0		46.0	place	house-23.jpg	0.0	164.5972610902213	0.3833076102728228
148.0	74.20471038389587	pulse	0.0	t		place	house-23.jpg	0.0	164.78068376754663	
148.0	74.40459531684337	ISI	1.0		8.0	place	house-23.jpg	0.0	164.98056870049413	0.11667412751103257
149.0	74.5212694443544	house	0.0		46.0	place	house-27.jpg	0.0	165.09724282800516	0.3833118362404093
149.0	74.90458128059481	ISI	1.0		7.0	place	house-27.jpg	0.0	165.48055466424557	0.11668469242931678
149.0	74.93717465711552	pulse	1.0	t		place	house-27.jpg	0.0	165.51314804076628	
150.0	75.02126597302413	house	0.0		46.0	place	house-60.jpg	0.0	165.5972393566749	0.3833082139826729
150.0	75.4045741870068	ISI	1.0		8.0	place	house-60.jpg	0.0	165.98054757065756	0.11668378686499636
151.0	75.5212579738718	house	0.0		46.0	place	house-60.jpg	1.0	166.09723135752256	0.3833042898700114
151.0	75.60468671847912	pulse	0.0	t		place	house-60.jpg	1.0	166.18066010212988	
151.0	75.90456226374181	ISI	1.0		6.0	place	house-60.jpg	1.0	166.48053564739257	0.11667201452792142
151.0	75.94966631460329	response	1.0	b		place	house-60.jpg	1.0	166.52563969825405	
152.0	76.02123427826973	house	0.0		46.0	place	house-52.jpg	0.0	166.5972076619205	0.38331515664276594
152.0	76.3046545105708	pulse	0.0	t		place	house-52.jpg	0.0	166.88062789422156	
152.0	76.4045494349125	ISI	1.0		6.0	place	house-52.jpg	0.0	166.98052281856326	0.11668469242977153
153.0	76.52123412734227	house	0.0		46.0	place	house-4.jpg	0.0	167.09720751099303	0.38330519543433184
153.0	76.9045393227766	ISI	1.0		5.0	place	house-4.jpg	0.0	167.48051270642736	0.11668710726780773
154.0	77.02122643004441	house	0.0		45.0	place	house-36.jpg	0.0	167.59719981369517	0.38330308245076594
154.0	77.01548062378879	pulse	0.0	t		place	house-36.jpg	0.0	167.59145400743955	
154.0	77.40452951249517	ISI	1.0		7.0	place	house-36.jpg	0.0	167.98050289614594	0.11668469242977153
155.0	77.52121420492495	house	0.0		46.0	place	house-144.jpg	0.0	168.0971875885757	0.3833042898700114
155.0	77.70463627854042	pulse	0.0	t		place	house-144.jpg	0.0	168.28060966219118	
155.0	77.90451849479496	ISI	1.0		7.0	place	house-144.jpg	0.0	168.48049187844572	0.11668469242931678
156.0	78.02120318722427	house	0.0		46.0	place	house-83.jpg	0.0	168.59717657087504	0.38330459172493647
156.0	78.40450777894921	ISI	1.0		7.0	place	house-83.jpg	0.0	168.98048116259997	0.11668257944575089
156.0	78.43730520931967	pulse	1.0	t		place	house-83.jpg	0.0	169.01327859297044	
157.0	78.52119035839496	house	0.0		46.0	place	house-50.jpg	0.0	169.09716374204572	0.3833070065634274
157.0	78.90449736495839	ISI	1.0		7.0	place	house-50.jpg	0.0	169.48047074860915	0.11668378686499636
158.0	79.02118115182338	house	0.0		46.0	place	house-68.jpg	0.0	169.59715453547415	0.38332149559391837
158.0	79.10461261312366	pulse	0.0	t		place	house-68.jpg	0.0	169.68058599677443	
158.0	79.4045026474173	ISI	1.0		7.0	place	house-68.jpg	0.0	169.98047603106806	0.11667714605937363
159.0	79.52117979347668	house	0.0		46.0	place	house-84.jpg	0.0	170.09715317712744	0.383285876726859
159.0	79.80459127198901	pulse	0.0	t		place	house-84.jpg	0.0	170.38056465563977	
159.0	79.90446567020354	ISI	1.0		7.0	place	house-84.jpg	0.0	170.4804390538543	0.11669133323539427
160.0	80.02115700343893	house	0.0		46.0	place	house-115.jpg	0.0	170.5971303870897	0.3833543977680165
160.0	80.40451140120695	ISI	1.0		7.0	place	house-115.jpg	0.0	170.9804847848577	0.11665541251340983
161.0	80.52116681372036	house	0.0		45.0	place	house-96.jpg	0.0	171.09714019737112	0.38331877890050237
161.0	80.51413178558278	pulse	0.0	t		place	house-96.jpg	0.0	171.09010516923354	
161.0	80.90448559262086	ISI	1.0		7.0	place	house-96.jpg	0.0	171.48045897627162	0.11668740912273279
162.0	81.02117300174359	house	0.0		46.0	place	house-99.jpg	0.0	171.59714638539435	0.3832728969700838
162.0	81.2045612676211	pulse	0.0	t		place	house-99.jpg	0.0	171.78053465127186	
162.0	81.40444589871367	ISI	1.0		6.0	place	house-99.jpg	0.0	171.98041928236444	0.11668288130067594
163.0	81.52112878001435	house	0.0		46.0	place	house-34.jpg	0.0	172.0971021636651	0.3833027805958409
163.0	81.90443156061019	ISI	1.0		7.0	place	house-34.jpg	0.0	172.48040494426095	0.11668348501052606
163.0	81.9377400311696	pulse	1.0	t		place	house-34.jpg	0.0	172.51371341482036	
164.0	82.02111504562072	house	0.0		46.0	place	house-34.jpg	1.0	172.59708842927148	0.38330730841789773
164.0	82.40442235403862	ISI	1.0		6.0	place	house-34.jpg	1.0	172.98039573768938	0.11667925904339427
165.0	82.52110161308201	house	0.0		45.0	place	house-104.jpg	0.0	173.09707499673277	0.3833094214014636
165.0	82.51328025317162	response	0.0	b		place	house-104.jpg	0.0	173.08925363682238	
165.0	82.60452975397902	pulse	0.0	t		place	house-104.jpg	0.0	173.18050313762978	
165.0	82.90441103448347	ISI	1.0		7.0	place	house-104.jpg	0.0	173.48038441813424	0.1166928425095648
166.0	83.02110387699304	house	0.0		46.0	place	house-19.jpg	0.0	173.5970772606438	0.3832961397897634
166.0	83.30451897776265	pulse	0.0	t		place	house-19.jpg	0.0	173.88049236141342	
166.0	83.4044000167828	ISI	1.0		6.0	place	house-19.jpg	0.0	173.98037340043356	0.11668257944620564
167.0	83.52108259622901	house	0.0		46.0	place	house-22.jpg	0.0	174.09705597987977	0.38330730841789773
167.0	83.9043899046469	ISI	1.0		6.0	place	house-22.jpg	0.0	174.48036328829767	0.116683183155601
168.0	84.0210730878025	adult	0.0		45.0	face	adult-91.jpg	0.0	174.59704647145327	0.3833076102728228
168.0	84.0117590558707	pulse	0.0	t		face	adult-91.jpg	0.0	174.58773243952146	
168.0	84.40438069807533	ISI	1.0		6.0	face	adult-91.jpg	0.0	174.9803540817261	0.11668499428424184
169.0	84.52106569235957	adult	0.0		46.0	face	adult-47.jpg	0.0	175.09703907601033	0.38330278059629563
169.0	84.70448535113701	pulse	0.0	t		face	adult-47.jpg	0.0	175.28045873478777	
169.0	84.90436847295587	ISI	1.0		7.0	face	adult-47.jpg	0.0	175.48034185660663	0.11668348501007131
170.0	85.02105195796594	adult	0.0		46.0	face	adult-63.jpg	0.0	175.5970253416167	0.38330730841789773
170.0	85.40435926638384	ISI	1.0		6.0	face	adult-63.jpg	0.0	175.9803326500346	0.11668650355841237
170.0	85.44569858408977	pulse	1.0	t		face	adult-63.jpg	0.0	176.02167196774053	
171.0	85.52104576994225	adult	0.0		46.0	face	adult-126.jpg	0.0	176.097019153593	0.3833039880155411
171.0	85.90434975795779	ISI	1.0		7.0	face	adult-126.jpg	0.0	176.48032314160855	0.11668257944575089
172.0	86.02103233740354	adult	0.0		46.0	face	adult-43.jpg	0.0	176.5970057210543	0.38330730841789773
172.0	86.10446078015593	pulse	0.0	t		face	adult-43.jpg	0.0	176.6804341638067	
172.0	86.40433964582144	ISI	1.0		7.0	face	adult-43.jpg	0.0	176.9803130294722	0.11668650355841237
173.0	86.52102614937985	adult	0.0		46.0	face	adult-43.jpg	1.0	177.0969995330306	0.383300667612275
173.0	86.80444125014947	pulse	0.0	t		face	adult-43.jpg	1.0	177.38041463380023	
173.0	86.90432681699212	ISI	1.0		6.0	face	adult-43.jpg	1.0	177.4803002006429	0.11668288130067594
174.0	87.0210096982928	adult	0.0		46.0	face	adult-8.jpg	0.0	177.59698308194356	0.3833387013182801
174.0	87.09613290787911	response	0.0	b		face	adult-8.jpg	0.0	177.67210629152987	
174.0	87.40434839961108	ISI	1.0		7.0	face	adult-8.jpg	0.0	177.98032178326184	0.11668076831711005
175.0	87.52102916792819	adult	0.0		45.0	face	adult-133.jpg	0.0	178.09700255157895	0.3833085158371432
175.0	87.51164902979326	pulse	0.0	t		face	adult-133.jpg	0.0	178.08762241344402	
175.0	87.90433768376533	ISI	1.0		6.0	face	adult-133.jpg	0.0	178.4803110674161	0.11668771097765784
176.0	88.02102539474299	adult	0.0		46.0	face	adult-61.jpg	0.0	178.59699877839375	0.383303384305691
176.0	88.20444414795566	pulse	0.0	t		face	adult-61.jpg	0.0	178.78041753160642	
176.0	88.40432877904868	ISI	1.0		6.0	face	adult-61.jpg	0.0	178.98030216269945	0.11668801283212815
177.0	88.52101679188081	adult	0.0		46.0	face	adult-59.jpg	0.0	179.09699017553157	0.38330006390287963
177.0	88.90431685578369	ISI	1.0		7.0	face	adult-59.jpg	0.0	179.48029023943445	0.11669948331518754
177.0	88.93995956956724	pulse	1.0	t		face	adult-59.jpg	0.0	179.515932953218	
178.0	89.02101633909888	adult	0.0		46.0	face	adult-94.jpg	0.0	179.59698972274964	0.3832901026939908
178.0	89.40430644179287	ISI	1.0		6.0	face	adult-94.jpg	0.0	179.98027982544363	0.11668559799409195
179.0	89.52099203978696	adult	0.0		46.0	face	adult-17.jpg	0.0	180.09696542343772	0.3833027805958409
179.0	89.60441444544267	pulse	0.0	t		face	adult-17.jpg	0.0	180.18038782909343	
179.0	89.9042948203828	ISI	1.0		6.0	face	adult-17.jpg	0.0	180.48026820403356	0.11668982396122374
180.0	90.02098464434403	body	0.0		46.0	body	body-126.jpg	0.0	180.5969580279948	0.3832680672931019
180.0	90.30437167261653	pulse	0.0	t		body	body-126.jpg	0.0	180.8803450562673	
180.0	90.40425271163713	ISI	1.0		6.0	body	body-126.jpg	0.0	180.9802260952879	0.11668197573635553
181.0	90.52093468737348	body	0.0		46.0	body	body-104.jpg	0.0	181.09690807102425	0.38330821398221815
181.0	90.9042429013557	ISI	1.0		7.0	body	body-104.jpg	0.0	181.48021628500646	0.11667684420490332
182.0	91.0209197455606	body	0.0		45.0	body	body-112.jpg	0.0	181.59689312921137	0.383312741804275
182.0	91.01143908977474	pulse	0.0	t		body	body-112.jpg	0.0	181.5874124734255	
182.0	91.40423248736488	ISI	1.0		7.0	body	body-112.jpg	0.0	181.98020587101564	0.11668288130067594
183.0	91.52091536866556	body	0.0		46.0	body	body-108.jpg	0.0	182.09688875231632	0.3833051954347866
183.0	91.70435193131243	pulse	0.0	t		body	body-108.jpg	0.0	182.2803253149632	
183.0	91.90422056410034	ISI	1.0		6.0	body	body-108.jpg	0.0	182.4801939477511	0.11668589984856226
184.0	92.0209064639489	body	0.0		46.0	body	body-95.jpg	0.0	182.59687984759967	0.3832925175324817
184.0	92.40419898148139	ISI	1.0		6.0	body	body-95.jpg	0.0	182.98017236513215	0.11668378686499636
184.0	92.44793140409865	pulse	1.0	t		body	body-95.jpg	0.0	183.02390478774942	
185.0	92.52088276834638	body	0.0		46.0	body	body-119.jpg	0.0	183.09685615199714	0.38331847704603206
185.0	92.90420124539241	ISI	1.0		5.0	body	body-119.jpg	0.0	183.48017462904318	0.11668076831711005
186.0	93.02088201370952	body	0.0		46.0	body	body-40.jpg	0.0	183.5968553973603	0.38330610099865225
186.0	93.1043134750098	pulse	0.0	t		body	body-40.jpg	0.0	183.68028685866057	
186.0	93.40418811470818	ISI	1.0		7.0	body	body-40.jpg	0.0	183.98016149835894	0.11668831468750795
187.0	93.52087642939568	body	0.0		46.0	body	body-93.jpg	0.0	184.09684981304645	0.38330247874091583
187.0	93.80429485056811	pulse	0.0	t		body	body-93.jpg	0.0	184.38026823421887	
187.0	93.9041789081366	ISI	1.0		7.0	body	body-93.jpg	0.0	184.48015229178736	0.11668288130067594
188.0	94.02086178943728	body	0.0		46.0	body	body-93.jpg	1.0	184.59683517308804	0.3833064028535773
188.0	94.40416819229085	ISI	1.0		7.0	body	body-93.jpg	1.0	184.98014157594162	0.11667956089786458
189.0	94.52084775318872	body	0.0		45.0	body	body-11.jpg	0.0	185.09682113683948	0.3833112325305592
189.0	94.5114410518313	pulse	0.0	t		body	body-11.jpg	0.0	185.08741443548206	
189.0	94.5116254851182	response	0.0	b		body	body-11.jpg	0.0	185.08759886876896	
189.0	94.90415898571928	ISI	1.0		6.0	body	body-11.jpg	0.0	185.48013236937004	0.11668227759128058
190.0	95.02084126331056	body	0.0		46.0	body	body-105.jpg	0.0	185.59681464696132	0.3832876878554998
190.0	95.20426454434573	pulse	0.0	t		body	body-105.jpg	0.0	185.7802379279965	
190.0	95.40412895116606	ISI	1.0		6.0	body	body-105.jpg	0.0	185.98010233481682	0.1167000870245829
191.0	95.52082903819064	body	0.0		46.0	body	body-70.jpg	0.0	186.0968024218414	0.3833070065634274
191.0	95.90413604475407	ISI	1.0		11.0	body	body-70.jpg	0.0	186.48010942840483	0.0999999698146894
191.0	95.90869737274625	pulse	1.0	t		body	body-70.jpg	0.0	186.484670756397	
192.0	96.00413601456876	baseline	0.0		48.0		baseline	0.0	186.58010939821952	0.4000542131234397
192.0	96.4041902276922	ISI	1.0		11.0		baseline	0.0	186.98016361134296	0.10000087537855507
193.0	96.50419110307075	baseline	0.0		48.0		baseline	0.0	187.08016448672151	0.39999595514564135
193.0	96.60429400537487	pulse	0.0	t			baseline	0.0	187.18026738902563	
193.0	96.9041870582164	ISI	1.0		11.0		baseline	0.0	187.48016044186716	0.09999664941187802
194.0	97.00418370762827	baseline	0.0		48.0		baseline	0.0	187.58015709127903	0.40000591635407545
194.0	97.30430435899461	pulse	0.0	t			baseline	0.0	187.88027774264538	
194.0	97.40418962398235	ISI	1.0		11.0		baseline	0.0	187.9801630076331	0.09998457521942328
195.0	97.50417419920177	baseline	0.0		48.0		baseline	0.0	188.08014758285253	0.39999021990433903
195.0	97.90416441910611	ISI	1.0		11.0		baseline	0.0	188.48013780275687	0.09999906424991423
196.0	98.00416348335602	baseline	0.0		47.0		baseline	0.0	188.5801368670068	0.3999887106301685
196.0	98.00854611330215	pulse	0.0	t			baseline	0.0	188.5845194969529	
196.0	98.40415219398619	ISI	1.0		11.0		baseline	0.0	188.98012557763695	0.10000178094333023
197.0	98.50415397492952	baseline	0.0		48.0		baseline	0.0	189.08012735858028	0.3999887106301685
197.0	98.70426167672485	pulse	0.0	t			baseline	0.0	189.28023506037562	
197.0	98.90414268555969	ISI	1.0		11.0		baseline	0.0	189.48011606921045	0.09999815868604855
198.0	99.00414084424574	baseline	0.0		48.0		baseline	0.0	189.5801142278965	0.3999702974865613
198.0	99.4041111417323	ISI	1.0		11.0		baseline	0.0	189.98008452538306	0.1000126477165395
198.0	99.40889040889533	pulse	1.0	t			baseline	0.0	189.9848637925461	
199.0	99.50412378944884	baseline	0.0		48.0		baseline	0.0	190.0800971730996	0.3999977662742822
199.0	99.90412155572312	ISI	1.0		11.0		baseline	0.0	190.48009493937388	0.09999755497619844
200.0	100.00411911069932	baseline	0.0		48.0		baseline	0.0	190.58009249435008	0.39999323845222534
200.0	100.10423348348604	pulse	0.0	t			baseline	0.0	190.6802068671368	
200.0	100.40411234915155	ISI	1.0		11.0		baseline	0.0	190.9800857328023	0.09999755497619844
201.0	100.50410990412774	baseline	0.0		48.0		baseline	0.0	191.0800832877785	0.3999905217592641
201.0	100.80421667017299	pulse	0.0	t			baseline	0.0	191.38019005382375	
201.0	100.90410042588701	ISI	1.0		11.0		baseline	0.0	191.48007380953777	0.09999966795976434
202.0	101.00410009384677	baseline	0.0		48.0		baseline	0.0	191.58007347749754	0.39999052175880934
202.0	101.40409061560558	ISI	1.0		11.0		baseline	0.0	191.98006399925634	0.09999785683066875
203.0	101.50408847243625	baseline	0.0		47.0		baseline	0.0	192.080061856087	0.3999923328879049
203.0	101.50852453068364	pulse	0.0	t			baseline	0.0	192.0844979143344	
203.0	101.90408080532416	ISI	1.0		7.0		baseline	0.0	192.48005418897492	0.11665782735190078
204.0	102.02073863267606	body	0.0		46.0	body	body-46.jpg	0.0	192.59671201632682	0.3832593135039133
204.0	102.20411512621604	pulse	0.0	t		body	body-46.jpg	0.0	192.7800885098668	
204.0	102.40399794617997	ISI	1.0		7.0	body	body-46.jpg	0.0	192.97997132983073	0.11668469242931678
205.0	102.52068263860929	body	0.0		46.0	body	body-123.jpg	0.0	193.09665602226005	0.3833064028535773
205.0	102.90398904146286	ISI	1.0		6.0	body	body-123.jpg	0.0	193.47996242511363	0.11668378686545111
205.0	102.94471317907119	pulse	1.0	t		body	body-123.jpg	0.0	193.52068656272195	
206.0	103.02067282832832	body	0.0		46.0	body	body-55.jpg	0.0	193.59664621197908	0.3833045917244817
206.0	103.4039774200528	ISI	1.0		6.0	body	body-55.jpg	0.0	193.97995080370356	0.11668348501052606
207.0	103.52066090506332	body	0.0		46.0	body	body-54.jpg	0.0	194.09663428871409	0.38330670470850237
207.0	103.60408602741245	pulse	0.0	t		body	body-54.jpg	0.0	194.1800594110632	
207.0	103.90396760977183	ISI	1.0		7.0	body	body-54.jpg	0.0	194.4799409934226	0.11668378686499636
208.0	104.02065139663682	body	0.0		46.0	body	body-125.jpg	0.0	194.59662478028758	0.38330519543433184
208.0	104.30407011966417	pulse	0.0	t		body	body-125.jpg	0.0	194.88004350331494	
208.0	104.40395659207115	ISI	1.0		7.0	body	body-125.jpg	0.0	194.97992997572192	0.1166852961391669
209.0	104.52064188821032	body	0.0		46.0	body	body-125.jpg	1.0	195.09661527186108	0.38330308245076594
209.0	104.90394497066109	ISI	1.0		6.0	body	body-125.jpg	1.0	195.47991835431185	0.11667895718846921
209.0	104.9790588227479	response	1.0	b		body	body-125.jpg	1.0	195.55503220639866	
210.0	105.02062392784956	body	0.0		45.0	body	body-59.jpg	0.0	195.59659731150032	0.383312741804275
210.0	105.01125435463291	pulse	0.0	t		body	body-59.jpg	0.0	195.58722773828367	
210.0	105.40393666965383	ISI	1.0		4.0	body	body-59.jpg	0.0	195.9799100533046	0.1166880128325829
211.0	105.52062468248641	body	0.0		46.0	body	body-5.jpg	0.0	196.09659806613718	0.3832985546287091
211.0	105.70404011529627	pulse	0.0	t		body	body-5.jpg	0.0	196.28001349894703	
211.0	105.90392323711512	ISI	1.0		6.0	body	body-5.jpg	0.0	196.47989662076589	0.116683183155601
212.0	106.02060642027072	body	0.0		46.0	body	body-10.jpg	0.0	196.5965798039215	0.3833070065629727
212.0	106.4039134268337	ISI	1.0		7.0	body	body-10.jpg	0.0	196.97988681048446	0.11668439057484647
212.0	106.44382859355892	pulse	1.0	t		body	body-10.jpg	0.0	197.01980197720968	
213.0	106.52059781740854	body	0.0		46.0	body	body-57.jpg	0.0	197.0965712010593	0.38330398801508636
213.0	106.90390180542363	ISI	1.0		6.0	body	body-57.jpg	0.0	197.4798751890744	0.11668197573635553
214.0	107.02058378115998	body	0.0		46.0	body	body-38.jpg	0.0	197.59655716481075	0.3833094214014636
214.0	107.10401524246026	pulse	0.0	t		body	body-38.jpg	0.0	197.67998862611103	
214.0	107.40389320256145	ISI	1.0		7.0	body	body-38.jpg	0.0	197.9798665862122	0.11666295888380773
215.0	107.52055616144526	body	0.0		46.0	body	body-110.jpg	0.0	198.09652954509602	0.3833260234159752
215.0	107.80399873100214	pulse	0.0	t		body	body-110.jpg	0.0	198.3799721146529	
215.0	107.90388218486123	ISI	1.0		6.0	body	body-110.jpg	0.0	198.479855568512	0.11667805162369405
216.0	108.02056023648493	adult	0.0		46.0	face	adult-87.jpg	0.0	198.5965336201357	0.38334292728541186
216.0	108.40390316377034	ISI	1.0		6.0	face	adult-87.jpg	0.0	198.9798765474211	0.116683183155601
217.0	108.52058634692594	adult	0.0		45.0	face	adult-76.jpg	0.0	199.0965597305767	0.38330670470850237
217.0	108.51127593725141	pulse	0.0	t		face	adult-76.jpg	0.0	199.08724932090217	
217.0	108.90389305163444	ISI	1.0		6.0	face	adult-76.jpg	0.0	199.4798664352852	0.11668982396122374
218.0	109.02058287559566	adult	0.0		46.0	face	adult-54.jpg	0.0	199.59655625924643	0.3832686710024973
218.0	109.20396782106991	pulse	0.0	t		face	adult-54.jpg	0.0	199.77994120472067	
218.0	109.40385154659816	ISI	1.0		7.0	face	adult-54.jpg	0.0	199.97982493024892	0.11668982396122374
219.0	109.52054137055939	adult	0.0		46.0	face	adult-54.jpg	1.0	200.09651475421015	0.3832991583385592
219.0	109.90384052889794	ISI	1.0		4.0	face	adult-54.jpg	1.0	200.4798139125487	0.11668408871992142
219.0	109.9545421753046	pulse	1.0	t		face	adult-54.jpg	1.0	200.53051555895536	
219.0	109.96228988264193	response	1.0	b		face	adult-54.jpg	1.0	200.5382632662927	
220.0	110.02052461761787	adult	0.0		46.0	face	adult-108.jpg	0.0	200.59649800126863	0.3833054972892569
220.0	110.40383011490712	ISI	1.0		6.0	face	adult-108.jpg	0.0	200.97980349855789	0.11668408871992142
221.0	110.52051420362704	adult	0.0		46.0	face	adult-31.jpg	0.0	201.0964875872778	0.3833027805958409
221.0	110.60393842041185	pulse	0.0	t		face	adult-31.jpg	0.0	201.1799118040626	
221.0	110.90381698422289	ISI	1.0		7.0	face	adult-31.jpg	0.0	201.47979036787365	0.11668589984856226
222.0	111.02050288407145	adult	0.0		46.0	face	adult-72.jpg	0.0	201.5964762677222	0.3833054972892569
222.0	111.30392432379222	pulse	0.0	t		face	adult-72.jpg	0.0	201.87989770744298	
222.0	111.4038083813607	ISI	1.0		6.0	face	adult-72.jpg	0.0	201.97978176501147	0.11668710726826248
223.0	111.52049548862897	adult	0.0		46.0	face	adult-42.jpg	0.0	202.09646887227973	0.38330308245076594
223.0	111.90379857107973	ISI	1.0		6.0	face	adult-42.jpg	0.0	202.4797719547305	0.11667895718801446
224.0	112.02047752826775	adult	0.0		45.0	face	adult-51.jpg	0.0	202.5964509119185	0.3833091195469933
224.0	112.01062770405315	pulse	0.0	t		face	adult-51.jpg	0.0	202.5866010877039	
224.0	112.40378664781474	ISI	1.0		7.0	face	adult-51.jpg	0.0	202.9797600314655	0.11668589984856226
225.0	112.5204725476633	adult	0.0		46.0	face	adult-116.jpg	0.0	203.09644593131407	0.38330308245076594
225.0	112.70389763982712	pulse	0.0	t		face	adult-116.jpg	0.0	203.27987102347788	
225.0	112.90377563011407	ISI	1.0		6.0	face	adult-116.jpg	0.0	203.47974901376483	0.11668439057484647
226.0	113.02046002068892	adult	0.0		46.0	face	adult-41.jpg	0.0	203.59643340433968	0.3832949323709727
226.0	113.40375495305989	ISI	1.0		7.0	face	adult-41.jpg	0.0	203.97972833671065	0.1166928425095648
226.0	113.4418994394855	pulse	1.0	t		face	adult-41.jpg	0.0	204.01787282313626	
227.0	113.52044779556945	adult	0.0		46.0	face	adult-58.jpg	0.0	204.09642117922021	0.3833070065629727
227.0	113.90375480213243	ISI	1.0		6.0	face	adult-58.jpg	0.0	204.4797281857832	0.116683183155601
228.0	114.02043798528803	word	0.0		46.0	character	word-85.jpg	0.0	204.5964113689388	0.38330942140191837
228.0	114.1038661261855	pulse	0.0	t		character	word-85.jpg	0.0	204.67983950983626	
228.0	114.40374740668994	ISI	1.0		6.0	character	word-85.jpg	0.0	204.9797207903407	0.11667925904293952
229.0	114.52042666573288	word	0.0		46.0	character	word-130.jpg	0.0	205.09640004938365	0.3833048935794068
229.0	114.80384870916305	pulse	0.0	t		character	word-130.jpg	0.0	205.3798220928138	
229.0	114.90373155931229	ISI	1.0		6.0	character	word-130.jpg	0.0	205.47970494296305	0.11669344621896016
230.0	115.02042500553125	word	0.0		46.0	character	word-50.jpg	0.0	205.596398389182	0.38332813639999586
230.0	115.40375314193125	ISI	1.0		6.0	character	word-50.jpg	0.0	205.979726525582	0.11668288130067594
231.0	115.52043602323192	word	0.0		45.0	character	word-47.jpg	0.0	206.09640940688269	0.38330881769206826
231.0	115.51086541471386	pulse	0.0	t		character	word-47.jpg	0.0	206.08683879836462	
231.0	115.90374484092399	ISI	1.0		7.0	character	word-47.jpg	0.0	206.47971822457475	0.11668710726780773
232.0	116.0204319481918	word	0.0		46.0	character	word-116.jpg	0.0	206.59640533184256	0.38326867100295203
232.0	116.20381991221439	pulse	0.0	t		character	word-116.jpg	0.0	206.77979329586515	
232.0	116.40370061919475	ISI	1.0		6.0	character	word-116.jpg	0.0	206.9796740028455	0.11668680541333742
233.0	116.52038742460809	word	0.0		46.0	character	word-3.jpg	0.0	207.09636080825885	0.3833027805958409
233.0	116.90369020520393	ISI	1.0		6.0	character	word-3.jpg	0.0	207.4796635888547	0.11668589984856226
233.0	116.94811659202287	pulse	1.0	t		character	word-3.jpg	0.0	207.52408997567363	
234.0	117.02037610505249	word	0.0		46.0	character	word-64.jpg	0.0	207.59634948870325	0.38330459172493647
234.0	117.40368069677743	ISI	1.0		6.0	character	word-64.jpg	0.0	207.9796540804282	0.11668227759128058
235.0	117.52036297436871	word	0.0		46.0	character	word-99.jpg	0.0	208.09633635801947	0.3833067047080476
235.0	117.60378930413708	pulse	0.0	t		character	word-99.jpg	0.0	208.17976268778784	
235.0	117.90366967907676	ISI	1.0		6.0	character	word-99.jpg	0.0	208.47964306272752	0.11668650355841237
236.0	118.02035618263517	word	0.0		46.0	character	word-90.jpg	0.0	208.59632956628593	0.38330308245076594
236.0	118.30377520751745	pulse	0.0	t		character	word-90.jpg	0.0	208.8797485911682	
236.0	118.40365926508593	ISI	1.0		7.0	character	word-90.jpg	0.0	208.9796326487367	0.11668831468750795
237.0	118.52034757977344	word	0.0		46.0	character	word-35.jpg	0.0	209.0963209634242	0.38330247874091583
237.0	118.90365005851436	ISI	1.0		7.0	character	word-35.jpg	0.0	209.47962344216512	0.11667744791429868
238.0	119.02032750642866	word	0.0		45.0	character	word-35.jpg	1.0	209.59630089007942	0.38331274180472974
238.0	119.01084020983717	pulse	0.0	t		character	word-35.jpg	1.0	209.58681359348793	
238.0	119.40364024823339	ISI	1.0		6.0	character	word-35.jpg	1.0	209.97961363188415	0.11668439057439173
239.0	119.52032463880778	word	0.0		46.0	character	word-87.jpg	0.0	210.09629802245854	0.3833021768864455
239.0	119.64541447834517	response	0.0	b		character	word-87.jpg	0.0	210.22138786199594	
239.0	119.70372739371624	pulse	0.0	t		character	word-87.jpg	0.0	210.279700777367	
239.0	119.90362681569422	ISI	1.0		6.0	character	word-87.jpg	0.0	210.479600199345	0.11668378686499636
240.0	120.02031060255922	car	0.0		46.0	object	car-97.jpg	0.0	210.59628398620998	0.3833070065634274
240.0	120.40361760912265	ISI	1.0		6.0	object	car-97.jpg	0.0	210.9795909927734	0.11668439057484647
240.0	120.4505620687437	pulse	1.0	t		object	car-97.jpg	0.0	211.02653545239446	
241.0	120.5203019996975	car	0.0		46.0	object	car-114.jpg	0.0	211.09627538334826	0.38330398801508636
241.0	120.90360598771258	ISI	1.0		6.0	object	car-114.jpg	0.0	211.47957937136334	0.11669163509031932
242.0	121.0202976228029	car	0.0		46.0	object	car-44.jpg	0.0	211.59627100645366	0.3832973472090089
242.0	121.10371761362012	pulse	0.0	t		object	car-44.jpg	0.0	211.67969099727088	
242.0	121.40359497001191	ISI	1.0		6.0	object	car-44.jpg	0.0	211.97956835366267	0.11668771097765784
243.0	121.52028268098957	car	0.0		46.0	object	car-128.jpg	0.0	212.09625606464033	0.3833039880155411
243.0	121.80369717804979	pulse	0.0	t		object	car-128.jpg	0.0	212.37967056170055	
243.0	121.90358666900511	ISI	1.0		5.0	object	car-128.jpg	0.0	212.47956005265587	0.1166852961391669
244.0	122.02027196514427	car	0.0		46.0	object	car-110.jpg	0.0	212.59624534879504	0.38333447535069354
244.0	122.40360644049497	ISI	1.0		7.0	object	car-110.jpg	0.0	212.97957982414573	0.11668137202650541
245.0	122.52028781252147	car	0.0		45.0	object	car-67.jpg	0.0	213.09626119617224	0.38330730841789773
245.0	122.51071931698698	pulse	0.0	t		object	car-67.jpg	0.0	213.08669270063774	
245.0	122.90359512093937	ISI	1.0		6.0	object	car-67.jpg	0.0	213.47956850459013	0.11668680541333742
246.0	123.02028192635271	car	0.0		46.0	object	car-7.jpg	0.0	213.59625531000347	0.3833024787413706
246.0	123.20369917029166	pulse	0.0	t		object	car-7.jpg	0.0	213.77967255394242	
246.0	123.40358440509408	ISI	1.0		6.0	object	car-7.jpg	0.0	213.97955778874484	0.1166904276706191
247.0	123.5202748327647	car	0.0		46.0	object	car-4.jpg	0.0	214.09624821641546	0.38330036575734994
247.0	123.90357519852205	ISI	1.0		7.0	object	car-4.jpg	0.0	214.4795485821728	0.1166928425095648
247.0	123.940958708979	pulse	1.0	t		object	car-4.jpg	0.0	214.51693209262976	
248.0	124.02026804103161	car	0.0		46.0	object	car-131.jpg	0.0	214.59624142468238	0.3832644450353655
248.0	124.40353248606698	ISI	1.0		7.0	object	car-131.jpg	0.0	214.97950586971774	0.11667050525375089
249.0	124.52020299132073	car	0.0		46.0	object	car-131.jpg	1.0	215.0961763749715	0.383318175191107
249.0	124.60364139528156	pulse	0.0	t		object	car-131.jpg	1.0	215.17961477893232	
249.0	124.90352116651184	ISI	1.0		7.0	object	car-131.jpg	1.0	215.4794945501626	0.11668137202650541
250.0	125.02020253853834	car	0.0		45.0	object	car-112.jpg	0.0	215.5961759221891	0.38331002511131373
250.0	125.01070558259335	response	0.0	b		object	car-112.jpg	0.0	215.5866789662441	
250.0	125.30360797995445	pulse	0.0	t		object	car-112.jpg	0.0	215.8795813636052	
250.0	125.40351256364966	ISI	1.0		6.0	object	car-112.jpg	0.0	215.97948594730042	0.11668469242977153
251.0	125.52019725607943	car	0.0		46.0	object	car-28.jpg	0.0	216.0961706397302	0.3833027805958409
251.0	125.90350003667527	ISI	1.0		6.0	object	car-28.jpg	0.0	216.47947342032603	0.11667986275278963
252.0	126.02017989942806	body	0.0		45.0	body	body-113.jpg	0.0	216.59615328307882	0.38331032696578404
252.0	126.01064189122872	pulse	0.0	t		body	body-113.jpg	0.0	216.58661527487948	
252.0	126.40349022639384	ISI	1.0		6.0	body	body-113.jpg	0.0	216.9794636100446	0.11668559799409195
253.0	126.52017582438793	body	0.0		46.0	body	body-77.jpg	0.0	217.0961492080387	0.3833021768864455
253.0	126.7035957850203	pulse	0.0	t		body	body-77.jpg	0.0	217.27956916867106	
253.0	126.90347800127438	ISI	1.0		7.0	body	body-77.jpg	0.0	217.47945138492514	0.11668439057484647
254.0	127.02016239184923	body	0.0		46.0	body	body-76.jpg	0.0	217.5961357755	0.38330730841789773
254.0	127.40346970026712	ISI	1.0		4.0	body	body-76.jpg	0.0	217.9794430839179	0.11668227759128058
254.0	127.46218468624147	pulse	1.0	t		body	body-76.jpg	0.0	218.03815806989223	
255.0	127.5201519778584	body	0.0		46.0	body	body-141.jpg	0.0	218.09612536150917	0.3833097232563887
255.0	127.9034617011148	ISI	1.0		6.0	body	body-141.jpg	0.0	218.47943508476556	0.11668499428424184
256.0	128.02014669539903	body	0.0		46.0	body	body-109.jpg	0.0	218.5961200790498	0.38330006390287963
256.0	128.10358147710213	pulse	0.0	t		body	body-109.jpg	0.0	218.6795548607529	
256.0	128.40344675930191	ISI	1.0		7.0	body	body-109.jpg	0.0	218.97942014295268	0.11668589984856226
257.0	128.52013265915048	body	0.0		46.0	body	body-129.jpg	0.0	219.09610604280124	0.38330579914418195
257.0	128.80355108032336	pulse	0.0	t		body	body-129.jpg	0.0	219.37952446397412	
257.0	128.90343845829466	ISI	1.0		7.0	body	body-129.jpg	0.0	219.47941184194542	0.11668439057484647
258.0	129.0201228488695	body	0.0		46.0	body	body-114.jpg	0.0	219.59609623252027	0.38330398801508636
258.0	129.4034268368846	ISI	1.0		7.0	body	body-114.jpg	0.0	219.97940022053535	0.11667895718801446
259.0	129.5201057940726	body	0.0		45.0	body	body-118.jpg	0.0	220.09607917772337	0.38331062882116385
259.0	129.51058529345255	pulse	0.0	t		body	body-118.jpg	0.0	220.0865586771033	
259.0	129.90341642289377	ISI	1.0		7.0	body	body-118.jpg	0.0	220.47938980654453	0.11668378686499636
260.0	130.02010020975877	body	0.0		46.0	body	body-12.jpg	0.0	220.59607359340953	0.383318175191107
260.0	130.20353496127655	pulse	0.0	t		body	body-12.jpg	0.0	220.7795083449273	
260.0	130.40341838494987	ISI	1.0		6.0	body	body-12.jpg	0.0	220.97939176860064	0.11672000944190586
261.0	130.52013839439178	body	0.0		46.0	body	body-49.jpg	0.0	221.09611177804254	0.3832828581789727
261.0	130.90342125257075	ISI	1.0		7.0	body	body-49.jpg	0.0	221.4793946362215	0.1166904276706191
261.0	130.9423055851289	pulse	1.0	t		body	body-49.jpg	0.0	221.51827896877967	
262.0	131.02011168024137	body	0.0		46.0	body	body-144.jpg	0.0	221.59608506389213	0.3833054972892569
262.0	131.40341717753063	ISI	1.0		5.0	body	body-144.jpg	0.0	221.9793905611814	0.116685899849017
263.0	131.52010307737964	body	0.0		46.0	body	body-26.jpg	0.0	222.0960764610304	0.38330187503152047
263.0	131.60356895012774	pulse	0.0	t		body	body-26.jpg	0.0	222.1795423337785	
263.0	131.90340495241117	ISI	1.0		5.0	body	body-26.jpg	0.0	222.47937833606193	0.11668680541288268
264.0	132.02009175782405	body	0.0		46.0	body	body-101.jpg	0.0	222.5960651414748	0.38330187503152047
264.0	132.3035104808514	pulse	0.0	t		body	body-101.jpg	0.0	222.87948386450216	
264.0	132.40339363285557	ISI	1.0		6.0	body	body-101.jpg	0.0	222.97936701650633	0.11668559799409195
265.0	132.52007923084966	body	0.0		46.0	body	body-7.jpg	0.0	223.09605261450042	0.38330610099865225
265.0	132.9033853318483	ISI	1.0		7.0	body	body-7.jpg	0.0	223.47935871549907	0.11668288130113069
266.0	133.02006821314944	body	0.0		45.0	body	body-102.jpg	0.0	223.5960415968002	0.38330338430523625
266.0	133.01016465877865	pulse	0.0	t		body	body-102.jpg	0.0	223.5861380424294	
266.0	133.40337159745468	ISI	1.0		6.0	body	body-102.jpg	0.0	223.97934498110544	0.11668771097765784
267.0	133.52005930843234	body	0.0		46.0	body	body-137.jpg	0.0	224.0960326920831	0.3833021768864455
267.0	133.70348017462902	pulse	0.0	t		body	body-137.jpg	0.0	224.27945355827978	
267.0	133.90336148531878	ISI	1.0		6.0	body	body-137.jpg	0.0	224.47933486896954	0.11669133323539427
268.0	134.02005281855418	body	0.0		46.0	body	body-124.jpg	0.0	224.59602620220494	0.3832680672931019
268.0	134.40332088584728	ISI	1.0		7.0	body	body-124.jpg	0.0	224.97929426949804	0.11668559799409195
268.0	134.44143065897015	pulse	1.0	t		body	body-124.jpg	0.0	225.0174040426209	
269.0	134.52000648384137	body	0.0		46.0	body	body-83.jpg	0.0	225.09597986749213	0.38330338430523625
269.0	134.9033098681466	ISI	1.0		6.0	body	body-83.jpg	0.0	225.47928325179737	0.11668469242977153
270.0	135.01999456057638	body	0.0		46.0	body	body-133.jpg	0.0	225.59596794422714	0.3833048935794068
270.0	135.10348729840234	pulse	0.0	t		body	body-133.jpg	0.0	225.6794606820531	
270.0	135.40329945415579	ISI	1.0		7.0	body	body-133.jpg	0.0	225.97927283780655	0.11668288130067594
271.0	135.51998233545646	body	0.0		46.0	body	body-136.jpg	0.0	226.09595571910722	0.38330519543433184
271.0	135.80340136033874	pulse	0.0	t		body	body-136.jpg	0.0	226.3793747439895	
271.0	135.9032875308908	ISI	1.0		7.0	body	body-136.jpg	0.0	226.47926091454156	0.11668680541333742
272.0	136.01997433630413	body	0.0		46.0	body	body-82.jpg	0.0	226.5959477199549	0.38330579914418195
272.0	136.4032801354483	ISI	1.0		6.0	body	body-82.jpg	0.0	226.97925351909907	0.11667744791384393
273.0	136.51995758336216	body	0.0		45.0	body	body-4.jpg	0.0	227.09593096701292	0.3833082139826729
273.0	136.51000814706094	pulse	0.0	t		body	body-4.jpg	0.0	227.0859815307117	
273.0	136.90326579734483	ISI	1.0		7.0	body	body-4.jpg	0.0	227.4792391809956	0.11668861654197826
274.0	137.0199544138868	body	0.0		46.0	body	body-139.jpg	0.0	227.59592779753757	0.38330308245076594
274.0	137.20337467637364	pulse	0.0	t		body	body-139.jpg	0.0	227.7793480600244	
274.0	137.40325749633757	ISI	1.0		7.0	body	body-139.jpg	0.0	227.97923087998834	0.11668891839690332
275.0	137.51994641473448	body	0.0		46.0	body	body-56.jpg	0.0	228.09591979838524	0.38329915833810446
275.0	137.90324557307258	ISI	1.0		6.0	body	body-56.jpg	0.0	228.47921895672334	0.11668499428469659
275.0	137.94859744673067	pulse	1.0	t		body	body-56.jpg	0.0	228.52457083038144	
276.0	138.01993056735728	house	0.0		46.0	place	house-97.jpg	0.0	228.59590395100804	0.3833036861601613
276.0	138.40323425351744	ISI	1.0		6.0	place	house-97.jpg	0.0	228.9792076371682	0.11668861654197826
277.0	138.51992287005942	house	0.0		46.0	place	house-58.jpg	0.0	229.09589625371018	0.3833042898700114
277.0	138.60337998901832	pulse	0.0	t		place	house-58.jpg	0.0	229.17935337266908	
277.0	138.90322715992943	ISI	1.0		6.0	place	house-58.jpg	0.0	229.4792005435802	0.11668016460771469
278.0	139.01990732453714	house	0.0		46.0	place	house-86.jpg	0.0	229.5958807081879	0.3833079121272931
278.0	139.30332876425746	pulse	0.0	t		place	house-86.jpg	0.0	229.87930214790822	
278.0	139.40321523666444	ISI	1.0		7.0	place	house-86.jpg	0.0	229.9791886203152	0.11668408871992142
279.0	139.51989932538436	house	0.0		46.0	place	house-141.jpg	0.0	230.09587270903512	0.3833021768864455
279.0	139.9032015022708	ISI	1.0		6.0	place	house-141.jpg	0.0	230.47917488592157	0.1166976721865467
280.0	140.01989917445735	house	0.0		45.0	place	house-122.jpg	0.0	230.5958725581081	0.38332572156105016
280.0	140.0101103249135	pulse	0.0	t		place	house-122.jpg	0.0	230.58608370856427	
280.0	140.4032248960184	ISI	1.0		7.0	place	house-122.jpg	0.0	230.97919827966916	0.1166907295259989
281.0	140.5199156255444	house	0.0		46.0	place	house-122.jpg	1.0	231.09588900919516	0.38329915833810446
281.0	140.70332924722516	pulse	0.0	t		place	house-122.jpg	1.0	231.27930263087592	
281.0	140.9032147838825	ISI	1.0		4.0	place	house-122.jpg	1.0	231.47918816753327	0.11669103138046921
281.0	140.98669333453245	response	1.0	b		place	house-122.jpg	1.0	231.5626667181832	
282.0	141.01990581526297	house	0.0		46.0	place	house-133.jpg	0.0	231.59587919891374	0.38329825277378404
282.0	141.40320406803676	ISI	1.0		7.0	place	house-133.jpg	0.0	231.97917745168752	0.11667292009224184
282.0	141.44361910632233	pulse	1.0	t		place	house-133.jpg	0.0	232.0195924899731	
283.0	141.519876988129	house	0.0		46.0	place	house-124.jpg	0.0	232.09585037177976	0.38331515664276594
283.0	141.90319214477177	ISI	1.0		6.0	place	house-124.jpg	0.0	232.47916552842253	0.11667986275278963
284.0	142.01987200752455	house	0.0		46.0	place	house-30.jpg	0.0	232.59584539117532	0.38330881769206826
284.0	142.10330286511498	pulse	0.0	t		place	house-30.jpg	0.0	232.67927624876575	
284.0	142.40318082521662	ISI	1.0		6.0	place	house-30.jpg	0.0	232.97915420886739	0.11672272613532186
285.0	142.51990355135194	house	0.0		46.0	place	house-24.jpg	0.0	233.0958769350027	0.3832366743931743
285.0	142.8032564700311	pulse	0.0	t		place	house-24.jpg	0.0	233.37922985368186	
285.0	142.90314022574512	ISI	1.0		7.0	place	house-24.jpg	0.0	233.47911360939588	0.11668620170348731
286.0	143.0198264274486	house	0.0		46.0	place	house-139.jpg	0.0	233.59579981109937	0.38330459172493647
286.0	143.40313101917354	ISI	1.0		6.0	place	house-139.jpg	0.0	233.9791044028243	0.1166783534786191
287.0	143.51980937265216	house	0.0		45.0	place	house-47.jpg	0.0	234.09578275630292	0.3833097232563887
287.0	143.5102761941298	pulse	0.0	t		place	house-47.jpg	0.0	234.08624957778056	
287.0	143.90311909590855	ISI	1.0		6.0	place	house-47.jpg	0.0	234.4790924795593	0.11668408871992142
288.0	144.01980318462847	car	0.0		46.0	object	car-73.jpg	0.0	234.59577656827923	0.38330398801508636
288.0	144.20322556009887	pulse	0.0	t		object	car-73.jpg	0.0	234.77919894374963	
288.0	144.40310717264356	ISI	1.0		7.0	object	car-73.jpg	0.0	234.97908055629432	0.11668861654197826
289.0	144.51979578918554	car	0.0		46.0	object	car-73.jpg	1.0	235.0957691728363	0.3833012713221251
289.0	144.90309706050766	ISI	1.0		6.0	object	car-73.jpg	1.0	235.47907044415842	0.11668650355841237
289.0	144.94763392618597	pulse	1.0	t		object	car-73.jpg	1.0	235.52360730983673	
290.0	145.01978356406607	car	0.0		46.0	object	car-52.jpg	0.0	235.59575694771684	0.3833048935794068
290.0	145.0865345287184	response	0.0	b		object	car-52.jpg	0.0	235.66250791236916	
290.0	145.40308845764548	ISI	1.0		6.0	object	car-52.jpg	0.0	235.97906184129624	0.116683183155601
291.0	145.51977164080108	car	0.0		46.0	object	car-60.jpg	0.0	236.09574502445184	0.38330579914418195
291.0	145.60321155403608	pulse	0.0	t		object	car-60.jpg	0.0	236.17918493768684	
291.0	145.90307743994526	ISI	1.0		7.0	object	car-60.jpg	0.0	236.47905082359603	0.11668197573635553
292.0	146.01975941568162	car	0.0		46.0	object	car-58.jpg	0.0	236.59573279933238	0.38330549728880214
292.0	146.30318145911178	pulse	0.0	t		object	car-58.jpg	0.0	236.87915484276255	
292.0	146.40306491297042	ISI	1.0		7.0	object	car-58.jpg	0.0	236.97903829662118	0.116685899849017
293.0	146.51975081281944	car	0.0		46.0	object	car-50.jpg	0.0	237.0957241964702	0.38329553608036804
293.0	146.9030463488998	ISI	1.0		6.0	object	car-50.jpg	0.0	237.47901973255057	0.1166901258161488
294.0	147.01973647471596	car	0.0		45.0	object	car-129.jpg	0.0	237.59570985836672	0.383300667612275
294.0	147.0100798375779	pulse	0.0	t		object	car-129.jpg	0.0	237.58605322122867	
294.0	147.40303714232823	ISI	1.0		7.0	object	car-129.jpg	0.0	237.979010525979	0.11669314436448985
295.0	147.51973028669272	car	0.0		46.0	object	car-135.jpg	0.0	238.09570367034348	0.38331726962633184
295.0	147.70315447329176	pulse	0.0	t		object	car-135.jpg	0.0	238.27912785694252	
295.0	147.90304755631905	ISI	1.0		7.0	object	car-135.jpg	0.0	238.4790209399698	0.11667171267299636
296.0	148.01971926899205	car	0.0		46.0	object	car-45.jpg	0.0	238.5956926526428	0.38330610099865225
296.0	148.4030253699907	ISI	1.0		6.0	object	car-45.jpg	0.0	238.97899875364146	0.11668348501052606
296.0	148.44463031992655	pulse	1.0	t		object	car-45.jpg	0.0	239.0206037035773	
297.0	148.51970885500123	car	0.0		46.0	object	car-27.jpg	0.0	239.095682238652	0.38333447535069354
297.0	148.90304333035192	ISI	1.0		7.0	object	car-27.jpg	0.0	239.47901671400268	0.11669042767107385
298.0	149.019733758023	car	0.0		46.0	object	car-68.jpg	0.0	239.59570714167376	0.3833015731765954
298.0	149.10315344698574	pulse	0.0	t		object	car-68.jpg	0.0	239.6791268306365	
298.0	149.4030353311996	ISI	1.0		6.0	object	car-68.jpg	0.0	239.97900871485035	0.11670401113724438
299.0	149.51973934233683	car	0.0		46.0	object	car-118.jpg	0.0	240.0957127259876	0.3832849711620838
299.0	149.8031384448018	pulse	0.0	t		object	car-118.jpg	0.0	240.37911182845255	
299.0	149.90302431349892	ISI	1.0		11.0	object	car-118.jpg	0.0	240.47899769714968	0.10003528682727847
300.0	150.0030596003262	baseline	0.0		48.0		baseline	0.0	240.57903298397696	0.3999917291780548
300.0	150.40305132950425	ISI	1.0		11.0		baseline	0.0	240.979024713155	0.09999242344429149
301.0	150.50304375294854	baseline	0.0		47.0		baseline	0.0	241.0790171365993	0.39999595514564135
301.0	150.50766847045043	pulse	0.0	t			baseline	0.0	241.0836418541012	
301.0	150.90303970809418	ISI	1.0		11.0		baseline	0.0	241.47901309174495	0.09999876239544392
302.0	151.00303847048963	baseline	0.0		48.0		baseline	0.0	241.5790118541404	0.39999112546865945
302.0	151.20314768155868	pulse	0.0	t			baseline	0.0	241.77912106520944	
302.0	151.4030295959583	ISI	1.0		11.0		baseline	0.0	241.97900297960905	0.0999975549757437
303.0	151.50302715093403	baseline	0.0		48.0		baseline	0.0	242.0790005345848	0.3999923328879049
303.0	151.90301948382194	ISI	1.0		11.0		baseline	0.0	242.4789928674727	0.09999876239544392
303.0	151.90783738840037	pulse	1.0	t			baseline	0.0	242.48381077205113	
304.0	152.00301824621738	baseline	0.0		48.0		baseline	0.0	242.57899162986814	0.39999112546865945
304.0	152.40300937168604	ISI	1.0		11.0		baseline	0.0	242.9789827553368	0.09999876239544392
305.0	152.50300813408148	baseline	0.0		48.0		baseline	0.0	243.07898151773225	0.39999021990433903
305.0	152.6031206957391	pulse	0.0	t			baseline	0.0	243.17909407938987	
305.0	152.90299835398582	ISI	1.0		11.0		baseline	0.0	243.47897173763658	0.09999906424991423
306.0	153.00299741823574	baseline	0.0		48.0		baseline	0.0	243.5789708018865	0.399989918049414
306.0	153.3031050898453	pulse	0.0	t			baseline	0.0	243.87907847349607	
306.0	153.40298733628515	ISI	1.0		11.0		baseline	0.0	243.9789607199359	0.09999936610483928
307.0	153.50298670239	baseline	0.0		48.0		baseline	0.0	244.07896008604075	0.39999263474283
307.0	153.90297933713282	ISI	1.0		11.0		baseline	0.0	244.47895272078358	0.09999664941142328
308.0	154.00297598654424	baseline	0.0		47.0		baseline	0.0	244.578949370195	0.3999923328879049
308.0	154.00745370075492	pulse	0.0	t			baseline	0.0	244.58342708440568	
308.0	154.40296831943215	ISI	1.0		11.0		baseline	0.0	244.9789417030829	0.09999664941187802
309.0	154.50296496884403	baseline	0.0		48.0		baseline	0.0	245.0789383524948	0.39999021990433903
309.0	154.70307267063936	pulse	0.0	t			baseline	0.0	245.27904605429012	
309.0	154.90295518874836	ISI	1.0		11.0		baseline	0.0	245.47892857239913	0.09999876239498917
310.0	155.00295395114335	baseline	0.0		48.0		baseline	0.0	245.57892733479412	0.3999920310334346
310.0	155.4029459821768	ISI	1.0		11.0		baseline	0.0	245.97891936582755	0.09999634755649822
310.0	155.40793745326891	pulse	1.0	t			baseline	0.0	245.98391083691968	
311.0	155.5029423297333	baseline	0.0		48.0		baseline	0.0	246.07891571338405	0.39999203103297987
311.0	155.90293436076627	ISI	1.0		5.0		baseline	0.0	246.47890774441703	0.11664907356271215
312.0	156.01958343432898	car	0.0		46.0	object	car-10.jpg	0.0	246.59555681797974	0.3833021768859908
312.0	156.10300704740393	pulse	0.0	t		object	car-10.jpg	0.0	246.6789804310547	
312.0	156.40288561121497	ISI	1.0		7.0	object	car-10.jpg	0.0	246.97885899486573	0.1166907295259989
313.0	156.51957634074097	car	0.0		46.0	object	car-65.jpg	0.0	247.09554972439173	0.38329825277378404
313.0	156.8029896303815	pulse	0.0	t		object	car-65.jpg	0.0	247.37896301403225	
313.0	156.90287459351475	ISI	1.0		5.0	object	car-65.jpg	0.0	247.47884797716551	0.11668589984856226
314.0	157.01956049336331	car	0.0		46.0	object	car-69.jpg	0.0	247.59553387701408	0.3833064028535773
314.0	157.4028668962169	ISI	1.0		7.0	object	car-69.jpg	0.0	247.97884027986765	0.11668016460771469
315.0	157.5195470608246	car	0.0		45.0	object	car-123.jpg	0.0	248.09552044447537	0.38330821398221815
315.0	157.5097084052377	pulse	0.0	t		object	car-123.jpg	0.0	248.08568178888845	
315.0	157.90285527480683	ISI	1.0		4.0	object	car-123.jpg	0.0	248.4788286584576	0.11668861654243301
316.0	158.01954389134926	car	0.0		46.0	object	car-38.jpg	0.0	248.59551727500002	0.3833000639024249
316.0	158.20296113528775	pulse	0.0	t		object	car-38.jpg	0.0	248.7789345189385	
316.0	158.40284395525168	ISI	1.0		7.0	object	car-38.jpg	0.0	248.97881733890245	0.11667895718846921
317.0	158.51952291244015	car	0.0		46.0	object	car-126.jpg	0.0	249.09549629609091	0.38330911954653857
317.0	158.9028320319867	ISI	1.0		7.0	object	car-126.jpg	0.0	249.47880541563745	0.11669586105745111
317.0	158.9389658635414	pulse	1.0	t		object	car-126.jpg	0.0	249.51493924719216	
318.0	159.01952789304414	car	0.0		46.0	object	car-62.jpg	0.0	249.5955012766949	0.3832925175324817
318.0	159.40282041057662	ISI	1.0		7.0	object	car-62.jpg	0.0	249.97879379422739	0.11668952210675343
319.0	159.51950993268338	car	0.0		46.0	object	car-62.jpg	1.0	250.09548331633414	0.38330036575734994
319.0	159.60293384761326	pulse	0.0	t		object	car-62.jpg	1.0	250.17890723126402	
319.0	159.90281029844073	ISI	1.0		7.0	object	car-62.jpg	1.0	250.4787836820915	0.11668952210629868
320.0	160.01949982054703	car	0.0		46.0	object	car-49.jpg	0.0	250.5954732041978	0.38326957656727245
320.0	160.04455769365995	response	0.0	b		object	car-49.jpg	0.0	250.62053107731072	
320.0	160.30286511527356	pulse	0.0	t		object	car-49.jpg	0.0	250.87883849892432	
320.0	160.4027693971143	ISI	1.0		6.0	object	car-49.jpg	0.0	250.97874278076506	0.11668408871992142
321.0	160.51945348583422	car	0.0		46.0	object	car-78.jpg	0.0	251.09542686948498	0.38330398801508636
321.0	160.9027574738493	ISI	1.0		6.0	object	car-78.jpg	0.0	251.47873085750007	0.11667986275278963
322.0	161.0194373366021	car	0.0		45.0	object	car-86.jpg	0.0	251.59541072025286	0.3833133455141251
322.0	161.00953921561813	pulse	0.0	t		object	car-86.jpg	0.0	251.5855125992689	
322.0	161.40275068211622	ISI	1.0		7.0	object	car-86.jpg	0.0	251.97872406576698	0.11668227759128058
323.0	161.5194329597075	car	0.0		46.0	object	car-32.jpg	0.0	252.09540634335826	0.3833054972892569
323.0	161.70285503332298	pulse	0.0	t		object	car-32.jpg	0.0	252.27882841697374	
323.0	161.90273845699676	ISI	1.0		5.0	object	car-32.jpg	0.0	252.47871184064752	0.11668439057439173
324.0	162.01942284757115	house	0.0		46.0	place	house-132.jpg	0.0	252.5953962312219	0.3833070065634274
324.0	162.40272985413458	ISI	1.0		7.0	place	house-132.jpg	0.0	252.97870323778534	0.11668952210629868
324.0	162.442835189388	pulse	1.0	t		place	house-132.jpg	0.0	253.01880857303877	
325.0	162.51941937624088	house	0.0		46.0	place	house-134.jpg	0.0	253.09539275989164	0.3832973472094636
325.0	162.90271672345034	ISI	1.0		6.0	place	house-134.jpg	0.0	253.4786901071011	0.11668771097765784
326.0	163.019404434428	house	0.0		46.0	place	house-53.jpg	0.0	253.59537781807876	0.3833021768864455
326.0	163.10282955677758	pulse	0.0	t		place	house-53.jpg	0.0	253.67880294042834	
326.0	163.40270661131444	ISI	1.0		7.0	place	house-53.jpg	0.0	253.9786799949652	0.11668559799409195
327.0	163.51939220930853	house	0.0		46.0	place	house-78.jpg	0.0	254.0953655929593	0.3833045917244817
327.0	163.80281576201287	pulse	0.0	t		place	house-78.jpg	0.0	254.37878914566363	
327.0	163.90269680103302	ISI	1.0		6.0	place	house-78.jpg	0.0	254.47867018468378	0.11668197573635553
328.0	164.01937877676937	house	0.0		46.0	place	house-94.jpg	0.0	254.59535216042013	0.3833012713221251
328.0	164.4026800480915	ISI	1.0		6.0	place	house-94.jpg	0.0	254.97865343174226	0.11668408871992142
329.0	164.51936413681142	house	0.0		45.0	place	house-5.jpg	0.0	255.09533752046218	0.38332270301316385
329.0	164.50920642069332	pulse	0.0	t		place	house-5.jpg	0.0	255.08517980434408	
329.0	164.90268683982458	ISI	1.0		7.0	place	house-5.jpg	0.0	255.47866022347534	0.11667714605937363
330.0	165.01936398588396	house	0.0		46.0	place	house-135.jpg	0.0	255.59533736953472	0.3832985546287091
330.0	165.2027851539351	pulse	0.0	t		place	house-135.jpg	0.0	255.77875853758587	
330.0	165.40266254051267	ISI	1.0		7.0	place	house-135.jpg	0.0	255.97863592416343	0.11668620170348731
331.0	165.51934874221615	house	0.0		46.0	place	house-143.jpg	0.0	256.0953221258669	0.38330519543433184
331.0	165.90265393765048	ISI	1.0		7.0	place	house-143.jpg	0.0	256.47862732130125	0.11668650355841237
331.0	165.94199890064465	pulse	1.0	t		place	house-143.jpg	0.0	256.5179722842954	
332.0	166.0193404412089	house	0.0		46.0	place	house-57.jpg	0.0	256.59531382485966	0.3833341734957685
332.0	166.40267461470467	ISI	1.0		6.0	place	house-57.jpg	0.0	256.9786479983554	0.1166880128325829
333.0	166.51936262753725	house	0.0		46.0	place	house-26.jpg	0.0	257.095336011188	0.38329915833810446
333.0	166.60278533504834	pulse	0.0	t		place	house-26.jpg	0.0	257.1787587186991	
333.0	166.90266178587535	ISI	1.0		7.0	place	house-26.jpg	0.0	257.4786351695261	0.11669042767107385
334.0	167.01935221354643	house	0.0		46.0	place	house-66.jpg	0.0	257.5953255971972	0.38329915833810446
334.0	167.30277003100946	pulse	0.0	t		place	house-66.jpg	0.0	257.8787434146602	
334.0	167.40265137188453	ISI	1.0		6.0	place	house-66.jpg	0.0	257.9786247555353	0.11668771097765784
335.0	167.5193390828622	house	0.0		46.0	place	house-120.jpg	0.0	258.09531246651295	0.3833024787413706
335.0	167.90264156160356	ISI	1.0		6.0	place	house-120.jpg	0.0	258.4786149452543	0.11668137202650541
336.0	168.01932293363006	word	0.0		45.0	character	word-89.jpg	0.0	258.5952963172808	0.38330791212774784
336.0	168.00945741296528	pulse	0.0	t		character	word-89.jpg	0.0	258.58543079661604	
336.0	168.4026308457578	ISI	1.0		6.0	character	word-89.jpg	0.0	258.9786042294086	0.11670793524990586
337.0	168.51933878100772	word	0.0		46.0	character	word-128.jpg	0.0	259.0953121646585	0.38328436745268846
337.0	168.7027406303514	pulse	0.0	t		character	word-128.jpg	0.0	259.27871401400216	
337.0	168.9026231484604	ISI	1.0		6.0	character	word-128.jpg	0.0	259.47859653211117	0.1166852961391669
338.0	169.01930844459957	word	0.0		46.0	character	word-63.jpg	0.0	259.59528182825034	0.38330338430523625
338.0	169.4026118289048	ISI	1.0		6.0	character	word-63.jpg	0.0	259.9785852125556	0.11668771097765784
338.0	169.4442279474688	pulse	1.0	t		character	word-63.jpg	0.0	260.02020133111955	
339.0	169.51929953988247	word	0.0		46.0	character	word-54.jpg	0.0	260.09527292353323	0.38326867100295203
339.0	169.90256821088542	ISI	1.0		5.0	character	word-54.jpg	0.0	260.4785415945362	0.11668378686499636
340.0	170.01925199775042	word	0.0		46.0	character	word-43.jpg	0.0	260.5952253814012	0.38330670470850237
340.0	170.1026783275188	pulse	0.0	t		character	word-43.jpg	0.0	260.67865171116955	
340.0	170.40255870245892	ISI	1.0		6.0	character	word-43.jpg	0.0	260.9785320861097	0.11668861654197826
341.0	170.5192473190009	word	0.0		46.0	character	word-100.jpg	0.0	261.09522070265166	0.38330006390287963
341.0	170.80266362718976	pulse	0.0	t		character	word-100.jpg	0.0	261.3786370108405	
341.0	170.90254738290378	ISI	1.0		6.0	character	word-100.jpg	0.0	261.47852076655454	0.116683183155601
342.0	171.01923056605938	word	0.0		46.0	character	word-75.jpg	0.0	261.59520394971014	0.3833057991437272
342.0	171.4025363652031	ISI	1.0		7.0	character	word-75.jpg	0.0	261.97850974885387	0.11667925904293952
343.0	171.51921562424604	word	0.0		45.0	character	word-7.jpg	0.0	262.0951890078968	0.38331002511131373
343.0	171.50939930591494	pulse	0.0	t		character	word-7.jpg	0.0	262.0853726895657	
343.0	171.90252564935736	ISI	1.0		6.0	character	word-7.jpg	0.0	262.4784990330081	0.11669314436448985
344.0	172.01921879372185	word	0.0		46.0	character	word-141.jpg	0.0	262.5951921773726	0.3832973472090089
344.0	172.20263271725753	pulse	0.0	t		character	word-141.jpg	0.0	262.7786061009083	
344.0	172.40251614093086	ISI	1.0		7.0	character	word-141.jpg	0.0	262.9784895245816	0.11668408872037617
345.0	172.51920022965123	word	0.0		46.0	character	word-33.jpg	0.0	263.095173613302	0.3833048935794068
345.0	172.90250512323064	ISI	1.0		5.0	character	word-33.jpg	0.0	263.4784785068814	0.11668348501052606
345.0	172.95202380064757	pulse	1.0	t		character	word-33.jpg	0.0	263.52799718429833	
346.0	173.01918860824117	word	0.0		46.0	character	word-68.jpg	0.0	263.5951619918919	0.3833057991437272
346.0	173.4024944073849	ISI	1.0		6.0	character	word-68.jpg	0.0	263.97846779103565	0.11668257944620564
347.0	173.5191769868311	word	0.0		46.0	character	word-111.jpg	0.0	264.09515037048186	0.38330881769206826
347.0	173.60260573143796	pulse	0.0	t		character	word-111.jpg	0.0	264.1785791150887	
347.0	173.90248580452317	ISI	1.0		7.0	character	word-111.jpg	0.0	264.47845918817393	0.11668650355841237
348.0	174.01917230808158	word	0.0		46.0	character	word-83.jpg	0.0	264.59514569173234	0.3832988564831794
348.0	174.30258831441552	pulse	0.0	t		character	word-83.jpg	0.0	264.8785616980663	
348.0	174.40247116456476	ISI	1.0		7.0	character	word-83.jpg	0.0	264.9784445482155	0.11667593864012815
349.0	174.5191471032049	word	0.0		46.0	character	word-102.jpg	0.0	265.09512048685565	0.38331485478829563
349.0	174.90246195799318	ISI	1.0		6.0	character	word-102.jpg	0.0	265.47843534164394	0.11667956089786458
350.0	175.01914151889105	word	0.0		45.0	character	word-127.jpg	0.0	265.5951149025418	0.3833091195469933
350.0	175.0092802241934	pulse	0.0	t		character	word-127.jpg	0.0	265.58525360784415	
350.0	175.40245063843804	ISI	1.0		7.0	character	word-127.jpg	0.0	265.9784240220888	0.11667624049505321
351.0	175.5191268789331	word	0.0		46.0	character	word-142.jpg	0.0	266.09510026258386	0.3833459458332982
351.0	175.70259543818884	pulse	0.0	t		character	word-142.jpg	0.0	266.2785688218396	
351.0	175.9024728247664	ISI	1.0		7.0	character	word-142.jpg	0.0	266.47844620841715	0.1166852961391669
352.0	176.01915812090556	word	0.0		46.0	character	word-114.jpg	0.0	266.5951315045563	0.3833054972892569
352.0	176.40246361819482	ISI	1.0		7.0	character	word-114.jpg	0.0	266.9784370018456	0.11668650355841237
352.0	176.44137904179797	pulse	1.0	t		character	word-114.jpg	0.0	267.01735242544873	
353.0	176.51915012175323	word	0.0		46.0	character	word-17.jpg	0.0	267.095123505404	0.383300667612275
353.0	176.9024507893655	ISI	1.0		6.0	character	word-17.jpg	0.0	267.47842417301626	0.11668650355841237
354.0	177.01913729292392	word	0.0		46.0	character	word-123.jpg	0.0	267.5951106765747	0.38330519543433184
354.0	177.10256000043455	pulse	0.0	t		character	word-123.jpg	0.0	267.6785333840853	
354.0	177.40244248835825	ISI	1.0		6.0	character	word-123.jpg	0.0	267.978415872009	0.11668408871992142
355.0	177.51912657707817	word	0.0		46.0	character	word-48.jpg	0.0	268.09509996072893	0.3833054972892569
355.0	177.80254379083135	pulse	0.0	t		character	word-48.jpg	0.0	268.3785171744821	
355.0	177.90243207436743	ISI	1.0		6.0	character	word-48.jpg	0.0	268.4784054580182	0.1166852961391669
356.0	178.0191173705066	word	0.0		46.0	character	word-92.jpg	0.0	268.59509075415735	0.383300667612275
356.0	178.40241803811887	ISI	1.0		6.0	character	word-92.jpg	0.0	268.97839142176963	0.11668167388143047
357.0	178.5190997120003	word	0.0		45.0	character	word-115.jpg	0.0	269.09507309565106	0.3833097232563887
357.0	178.50927433802462	pulse	0.0	t		character	word-115.jpg	0.0	269.0852477216754	
357.0	178.9024094352567	ISI	1.0		7.0	character	word-115.jpg	0.0	269.47838281890745	0.12502162035070796
358.0	179.0274310556074	word	0.0		45.0	character	word-143.jpg	0.0	269.60340443925816	0.374967361949075
358.0	179.2025183142855	pulse	0.0	t		character	word-143.jpg	0.0	269.77849169793626	
358.0	179.40239841755647	ISI	1.0		6.0	character	word-143.jpg	0.0	269.97837180120723	0.11668589984856226
359.0	179.51908431740503	word	0.0		46.0	character	word-27.jpg	0.0	270.0950577010558	0.38330670470850237
359.0	179.90239102211353	ISI	1.0		11.0	character	word-27.jpg	0.0	270.4783644057643	0.10003528682682372
359.0	179.90701906001777	pulse	1.0	t		character	word-27.jpg	0.0	270.48299244366854	
360.0	180.00242630894036	baseline	0.0		48.0		baseline	0.0	270.5783996925911	0.3999884087756982
360.0	180.40241471771606	ISI	1.0		11.0		baseline	0.0	270.9783881013668	0.09999936610483928
361.0	180.5024140838209	baseline	0.0		48.0		baseline	0.0	271.07838746747166	0.39999414401654576
361.0	180.6025212120917	pulse	0.0	t			baseline	0.0	271.17849459574245	
361.0	180.90240822783744	ISI	1.0		11.0		baseline	0.0	271.4783816114882	0.09997883997812096
362.0	181.00238706781556	baseline	0.0		48.0		baseline	0.0	271.5783604514663	0.3999971625648868
362.0	181.3024968524087	pulse	0.0	t			baseline	0.0	271.87847023605946	
362.0	181.40238423038045	ISI	1.0		11.0		baseline	0.0	271.9783576140312	0.10001174215176434
363.0	181.5023959725322	baseline	0.0		48.0		baseline	0.0	272.078369356183	0.39998810692077313
363.0	181.902384079453	ISI	1.0		11.0		baseline	0.0	272.47835746310375	0.09999785683066875
364.0	182.00238193628365	baseline	0.0		47.0		baseline	0.0	272.5783553199344	0.39999112546865945
364.0	182.00689074153934	pulse	0.0	t			baseline	0.0	272.5828641251901	
364.0	182.40237306175231	ISI	1.0		11.0		baseline	0.0	272.9783464454031	0.0999978568311235
365.0	182.50237091858344	baseline	0.0		48.0		baseline	0.0	273.0783443022342	0.39999203103297987
365.0	182.70247862037832	pulse	0.0	t			baseline	0.0	273.2784520040291	
365.0	182.90236294961642	ISI	1.0		11.0		baseline	0.0	273.4783363332672	0.09999634755695297
366.0	183.00235929717337	baseline	0.0		48.0		baseline	0.0	273.57833268082413	0.3999917291780548
366.0	183.40235102635143	ISI	1.0		11.0		baseline	0.0	273.9783244100022	0.09999876239544392
366.0	183.4071429714163	pulse	1.0	t			baseline	0.0	273.98311635506707	
367.0	183.50234978874687	baseline	0.0		48.0		baseline	0.0	274.07832317239763	0.39999203103297987
367.0	183.90234181977985	ISI	1.0		11.0		baseline	0.0	274.4783152034306	0.09999815868559381
368.0	184.00233997846544	baseline	0.0		48.0		baseline	0.0	274.5783133621162	0.39999112546865945
368.0	184.10244952157518	pulse	0.0	t			baseline	0.0	274.67842290522594	
368.0	184.4023311039341	ISI	1.0		11.0		baseline	0.0	274.97830448758486	0.09999846054051886
369.0	184.50232956447462	baseline	0.0		48.0		baseline	0.0	275.0783029481254	0.39999203103297987
369.0	184.80243572681047	pulse	0.0	t			baseline	0.0	275.37840911046123	
369.0	184.9023215955076	ISI	1.0		11.0		baseline	0.0	275.47829497915836	0.10002321263482372
370.0	185.00234480814242	baseline	0.0		48.0		baseline	0.0	275.5783181917932	0.3999660715198843
370.0	185.4023108796623	ISI	1.0		11.0		baseline	0.0	275.97828426331307	0.09999574384710286
371.0	185.5023066235094	baseline	0.0		47.0		baseline	0.0	276.0782800071602	0.39999112546865945
371.0	185.5067933933642	pulse	0.0	t			baseline	0.0	276.08276677701497	
371.0	185.90229774897807	ISI	1.0		5.0		baseline	0.0	276.47827113262883	0.1166517902556734
372.0	186.01894953923374	house	0.0		46.0	place	house-125.jpg	0.0	276.5949229228845	0.383300667612275
372.0	186.20236527389852	pulse	0.0	t		place	house-125.jpg	0.0	276.7783386575493	
372.0	186.40225020684602	ISI	1.0		6.0	place	house-125.jpg	0.0	276.9782235904968	0.11668952210629868
373.0	186.51893972895232	house	0.0		46.0	place	house-64.jpg	0.0	277.0949131126031	0.38329915833810446
373.0	186.90223888729042	ISI	1.0		4.0	place	house-64.jpg	0.0	277.4782122709412	0.11668922025182837
373.0	186.96096413632858	pulse	1.0	t		place	house-64.jpg	0.0	277.53693751997935	
374.0	187.01892810754225	house	0.0		46.0	place	house-112.jpg	0.0	277.594901491193	0.3833027805958409
374.0	187.4022308881381	ISI	1.0		7.0	place	house-112.jpg	0.0	277.97820427178885	0.11668620170394206
375.0	187.51891708984203	house	0.0		46.0	place	house-126.jpg	0.0	278.0948904734928	0.3833000639024249
375.0	187.60233677880478	pulse	0.0	t		place	house-126.jpg	0.0	278.17831016245555	
375.0	187.90221715374446	ISI	1.0		6.0	place	house-126.jpg	0.0	278.4781905373952	0.11668771097765784
376.0	188.01890486472212	house	0.0		46.0	place	house-42.jpg	0.0	278.5948782483729	0.3833024787413706
376.0	188.30232539887857	pulse	0.0	t		place	house-42.jpg	0.0	278.8782987825293	
376.0	188.4022073434635	ISI	1.0		7.0	place	house-42.jpg	0.0	278.97818072711425	0.11669012581569405
377.0	188.51889746927918	house	0.0		46.0	place	house-127.jpg	0.0	279.09487085292994	0.3832671617287815
377.0	188.90216463100796	ISI	1.0		6.0	place	house-127.jpg	0.0	279.4781380146587	0.11668016460771469
378.0	189.01884479561568	house	0.0		45.0	place	house-110.jpg	0.0	279.59481817926644	0.3833097232563887
378.0	189.0089865194659	pulse	0.0	t		place	house-110.jpg	0.0	279.58495990311667	
378.0	189.40215451887207	ISI	1.0		6.0	place	house-110.jpg	0.0	279.97812790252283	0.11668771097765784
379.0	189.51884222984972	house	0.0		46.0	place	house-74.jpg	0.0	280.0948156135005	0.38330127132167036
379.0	189.70226007749807	pulse	0.0	t		place	house-74.jpg	0.0	280.27823346114883	
379.0	189.9021435011714	ISI	1.0		7.0	place	house-74.jpg	0.0	280.47811688482216	0.11668650355841237
380.0	190.0188300047298	house	0.0		46.0	place	house-138.jpg	0.0	280.59480338838057	0.38330398801508636
380.0	190.4021339927449	ISI	1.0		6.0	place	house-138.jpg	0.0	280.97810737639566	0.11668408872037617
380.0	190.4442336827101	pulse	1.0	t		place	house-138.jpg	0.0	281.02020706636085	
381.0	190.51881808146527	house	0.0		46.0	place	house-48.jpg	0.0	281.09479146511603	0.38330610099865225
381.0	190.90212418246392	ISI	1.0		6.0	place	house-48.jpg	0.0	281.4780975661147	0.11668378686499636
382.0	191.01880796932892	house	0.0		46.0	place	house-123.jpg	0.0	281.5947813529797	0.38330308245076594
382.0	191.10223097869448	pulse	0.0	t		place	house-123.jpg	0.0	281.67820436234524	
382.0	191.40211105177968	ISI	1.0		6.0	place	house-123.jpg	0.0	281.97808443543045	0.11668771097765784
383.0	191.51879876275734	house	0.0		46.0	place	house-33.jpg	0.0	282.0947721464081	0.3833027805958409
383.0	191.80221658022037	pulse	0.0	t		place	house-33.jpg	0.0	282.37818996387114	
383.0	191.90210154335318	ISI	1.0		11.0	place	house-33.jpg	0.0	282.47807492700395	0.09999876239544392
384.0	192.00210030574863	baseline	0.0		48.0		baseline	0.0	282.5780736893994	0.39999323845222534
384.0	192.40209354420085	ISI	1.0		11.0		baseline	0.0	282.9780669278516	0.09999634755695297
385.0	192.5020898917578	baseline	0.0		47.0		baseline	0.0	283.07806327540857	0.39999021990433903
385.0	192.50660020628766	pulse	0.0	t			baseline	0.0	283.0825735899384	
385.0	192.90208011166214	ISI	1.0		11.0		baseline	0.0	283.4780534953129	0.09999936610483928
386.0	193.00207947776698	baseline	0.0		48.0		baseline	0.0	283.57805286141775	0.399989918049414
386.0	193.20218808512664	pulse	0.0	t			baseline	0.0	283.7781614687774	
386.0	193.4020693958164	ISI	1.0		11.0		baseline	0.0	283.97804277946716	0.09999876239544392
387.0	193.50206815821184	baseline	0.0		48.0		baseline	0.0	284.0780415418626	0.39999052175880934
387.0	193.90205867997065	ISI	1.0		11.0		baseline	0.0	284.4780320636214	0.09999695126634833
387.0	193.9069324276884	pulse	1.0	t			baseline	0.0	284.48290581133915	
388.0	194.002055631237	baseline	0.0		48.0		baseline	0.0	284.57802901488776	0.39999474772639587
388.0	194.4020503789634	ISI	1.0		11.0		baseline	0.0	284.97802376261416	0.09999151787997107
389.0	194.50204189684337	baseline	0.0		48.0		baseline	0.0	285.0780152804941	0.40006840029946034
389.0	194.60222629994496	pulse	0.0	t			baseline	0.0	285.1781996835957	
389.0	194.90211029714283	ISI	1.0		11.0		baseline	0.0	285.4780836807936	0.09999664941142328
390.0	195.00210694655425	baseline	0.0		48.0		baseline	0.0	285.578080330205	0.399989918049414
390.0	195.30221129776146	pulse	0.0	t			baseline	0.0	285.8781846814122	
