trial_nr	onset	event_type	phase	response	nr_frames	trial_type	stim_name	task_probe	onset_abs	duration
0.0	0.054891404091904406	baseline	0.0		701		baseline	0.0	24.76281381005765	5.848241625291848
0.0	0.7033649759478067	pulse	0.0	t			baseline	0.0	25.411287381913553	
0.0	1.403295126345256	pulse	0.0	t			baseline	0.0	26.111217532311002	
0.0	2.1033025520159754	pulse	0.0	t			baseline	0.0	26.81122495798172	
0.0	2.803274962328487	pulse	0.0	t			baseline	0.0	27.511197368294233	
0.0	3.5032841991383066	pulse	0.0	t			baseline	0.0	28.211206605104053	
0.0	4.203261137298796	pulse	0.0	t			baseline	0.0	28.911183543264542	
0.0	4.903241999594229	pulse	0.0	t			baseline	0.0	29.611164405559975	
0.0	5.60323825657315	pulse	0.0	t			baseline	0.0	30.311160662538896	
0.0	5.903133029383753	ISI	1.0		2		baseline	0.0	30.6110554353495	0.12529310269883354
1.0	6.028426132082586	number	0.0		45	character	number-104.jpg	0.0	30.736348538048333	0.3746407907192406
1.0	6.3031807830884645	pulse	0.0	t		character	number-104.jpg	0.0	31.01110318905421	
1.0	6.403066922801827	ISI	1.0		469	character	number-104.jpg	0.0	31.110989328767573	4.016636521260352
1.0	7.003169191797042	pulse	1.0	t		character	number-104.jpg	0.0	31.71109159776279	
1.0	7.703186578733948	pulse	1.0	t		character	number-104.jpg	0.0	32.411108984699695	
1.0	8.40314812221095	pulse	1.0	t		character	number-104.jpg	0.0	33.1110705281767	
1.0	9.103146492185715	pulse	1.0	t		character	number-104.jpg	0.0	33.81106889815146	
1.0	9.803149691864746	pulse	1.0	t		character	number-104.jpg	0.0	34.51107209783049	
2.0	10.41970344406218	limb	0.0		46	body	limb-41.jpg	0.0	35.127625850027925	0.3832974325291616
2.0	10.50314625070041	pulse	0.0	t		body	limb-41.jpg	0.0	35.21106865666616	
2.0	10.80300087659134	ISI	1.0		353	body	limb-41.jpg	0.0	35.51092328255709	3.0166703291924932
2.0	11.20311594430359	pulse	1.0	t		body	limb-41.jpg	0.0	35.91103835026934	
2.0	11.903128501535775	pulse	1.0	t		body	limb-41.jpg	0.0	36.61105090750152	
2.0	12.603164905434369	pulse	1.0	t		body	limb-41.jpg	0.0	37.311087311400115	
2.0	13.30314848443868	pulse	1.0	t		body	limb-41.jpg	0.0	38.011070890404426	
3.0	13.819671205783834	car	0.0		46	object	car-11.jpg	0.0	38.52759361174958	0.38328233970241854
3.0	14.003071088422075	pulse	0.0	t		object	car-11.jpg	0.0	38.71099349438782	
3.0	14.202953545486253	ISI	1.0		714	object	car-11.jpg	0.0	38.910875951452	6.016622937715965
3.0	14.703070665822906	pulse	1.0	t		object	car-11.jpg	0.0	39.41099307178865	
3.0	15.403069639510704	pulse	1.0	t		object	car-11.jpg	0.0	40.11099204547645	
3.0	16.103036314549172	pulse	1.0	t		object	car-11.jpg	0.0	40.81095872051492	
3.0	16.80303045853225	pulse	1.0	t		object	car-11.jpg	0.0	41.510952864497995	
3.0	17.503008905975094	pulse	1.0	t		object	car-11.jpg	0.0	42.21093131194084	
3.0	18.203000635106036	pulse	1.0	t		object	car-11.jpg	0.0	42.91092304107178	
3.0	18.90299387351979	pulse	1.0	t		object	car-11.jpg	0.0	43.61091627948554	
3.0	19.60298348965489	pulse	1.0	t		object	car-11.jpg	0.0	44.310905895620635	
4.0	20.219576483202218	limb	0.0		46	body	limb-138.jpg	0.0	44.927498889167964	0.38327750999769705
4.0	20.30298336891201	pulse	0.0	t		body	limb-138.jpg	0.0	45.010905774877756	
4.0	20.602853993199915	ISI	1.0		353	body	limb-138.jpg	0.0	45.31077639916566	3.0166419546776524
4.0	21.002969060912164	pulse	1.0	t		body	limb-138.jpg	0.0	45.71089146687791	
4.0	21.703013313080646	pulse	1.0	t		body	limb-138.jpg	0.0	46.41093571904639	
4.0	22.402951915461017	pulse	1.0	t		body	limb-138.jpg	0.0	47.11087432142676	
4.0	23.102951794718138	pulse	1.0	t		body	limb-138.jpg	0.0	47.810874200683884	
5.0	23.619495947877567	adult	0.0		46	face	adult-86.jpg	0.0	48.32741835384331	0.3833089030777046
5.0	23.80293235515728	pulse	0.0	t		face	adult-86.jpg	0.0	48.51085476112303	
5.0	24.002804850955272	ISI	1.0		233	face	adult-86.jpg	0.0	48.71072725692102	2.016656443791817
5.0	24.50291110445687	pulse	1.0	t		face	adult-86.jpg	0.0	49.21083351042262	
5.0	25.202895287174215	pulse	1.0	t		face	adult-86.jpg	0.0	49.91081769313996	
5.0	25.90289033672707	pulse	1.0	t		face	adult-86.jpg	0.0	50.610812742692815	
6.0	26.01946129474709	limb	0.0		46	body	limb-15.jpg	0.0	50.727383700712835	0.3833140346387154
6.0	26.402775329385804	ISI	1.0		232	body	limb-15.jpg	0.0	51.11069773535155	2.0166817997410362
6.0	26.60292945733454	pulse	1.0	t		body	limb-15.jpg	0.0	51.310851863300286	
6.0	27.302948957266835	pulse	1.0	t		body	limb-15.jpg	0.0	52.01087136323258	
6.0	28.00292378243148	pulse	1.0	t		body	limb-15.jpg	0.0	52.71084618839723	
7.0	28.41945712912684	number	0.0		46	character	number-134.jpg	0.0	53.12737953509259	0.3832618134574659
7.0	28.702860573672297	pulse	0.0	t		character	number-134.jpg	0.0	53.41078297963804	
7.0	28.802718942584306	ISI	1.0		232	character	number-134.jpg	0.0	53.51064134855005	2.016679384888903
7.0	29.402842039680763	pulse	1.0	t		character	number-134.jpg	0.0	54.11076444564651	
7.0	30.102822600119907	pulse	1.0	t		character	number-134.jpg	0.0	54.810745006085654	
8.0	30.81939832747321	house	0.0		45	place	house-5.jpg	0.0	55.527320733438955	0.3832986399552283
8.0	30.811684081776548	pulse	0.0	t		place	house-5.jpg	0.0	55.519606487742294	
8.0	31.202696967428437	ISI	1.0		231	place	house-5.jpg	0.0	55.910619373394184	2.0166558400787835
8.0	31.502804850955272	pulse	1.0	t		place	house-5.jpg	0.0	56.21072725692102	
8.0	32.20279175038149	pulse	1.0	t		place	house-5.jpg	0.0	56.91071415634724	
8.0	32.902780460946815	pulse	1.0	t		place	house-5.jpg	0.0	57.61070286691256	
9.0	33.21935280750722	limb	0.0		46	body	limb-80.jpg	0.0	57.92727521347297	0.3833101105037713
9.0	33.60266291801099	ISI	1.0		233	body	limb-80.jpg	0.0	58.31058532397674	2.0250196810461603
9.0	33.652244061878264	pulse	1.0	t		body	limb-80.jpg	0.0	58.36016646784401	
9.0	34.3027750879005	pulse	1.0	t		body	limb-80.jpg	0.0	59.010697493866246	
9.0	35.002827490195614	pulse	1.0	t		body	limb-80.jpg	0.0	59.71074989616136	
10.0	35.62768259905715	adult	0.0		45	face	adult-93.jpg	0.0	60.3356050050229	0.374988529451457
10.0	35.70278963738565	pulse	0.0	t		face	adult-93.jpg	0.0	60.410712043351396	
10.0	36.00267112850861	ISI	1.0		233	face	adult-93.jpg	0.0	60.710593534474356	2.0166310878425975
10.0	36.402804005756934	pulse	1.0	t		face	adult-93.jpg	0.0	61.11072641172268	
10.0	37.1028059980099	pulse	1.0	t		face	adult-93.jpg	0.0	61.810728403975645	
10.0	37.802782332457355	pulse	1.0	t		face	adult-93.jpg	0.0	62.5107047384231	
11.0	38.01930221635121	limb	0.0		46	body	limb-65.jpg	0.0	62.72722462231695	0.38330346965994977
11.0	38.40260568601116	ISI	1.0		593	body	limb-65.jpg	0.0	63.1105280919769	5.016595770627646
11.0	38.50272184040705	pulse	1.0	t		body	limb-65.jpg	0.0	63.210644246372794	
11.0	39.20272594565631	pulse	1.0	t		body	limb-65.jpg	0.0	63.91064835162206	
11.0	39.9026859798505	pulse	1.0	t		body	limb-65.jpg	0.0	64.61060838581625	
11.0	40.602671369993914	pulse	1.0	t		body	limb-65.jpg	0.0	65.31059377595966	
11.0	41.302656458281035	pulse	1.0	t		body	limb-65.jpg	0.0	66.01057886424678	
11.0	42.0026490929813	pulse	1.0	t		body	limb-65.jpg	0.0	66.71057149894705	
11.0	42.70264293510809	pulse	1.0	t		body	limb-65.jpg	0.0	67.41056534107383	
12.0	43.4192014566388	number	0.0		45	character	number-88.jpg	0.0	68.12712386260455	0.38331131792983797
12.0	43.41126625195602	pulse	0.0	t		character	number-88.jpg	0.0	68.11918865792177	
12.0	43.80251277456864	ISI	1.0		233	character	number-88.jpg	0.0	68.51043518053439	2.025023001468071
12.0	44.102683746112234	pulse	1.0	t		character	number-88.jpg	0.0	68.81060615207798	
12.0	44.8026745696734	pulse	1.0	t		character	number-88.jpg	0.0	69.51059697563915	
12.0	45.50267505264355	pulse	1.0	t		character	number-88.jpg	0.0	70.2105974586093	
13.0	45.82753577603671	adult	0.0		45	face	adult-69.jpg	0.0	70.53545818200246	0.37497826632943543
13.0	46.20251404236615	ISI	1.0		593	face	adult-69.jpg	0.0	70.9104364483319	5.0166105615981
13.0	46.251455552228435	pulse	1.0	t		face	adult-69.jpg	0.0	70.95937795819418	
13.0	46.902656096053306	pulse	1.0	t		face	adult-69.jpg	0.0	71.61057850201905	
13.0	47.60264088248368	pulse	1.0	t		face	adult-69.jpg	0.0	72.31056328844943	
13.0	48.30263230975788	pulse	1.0	t		face	adult-69.jpg	0.0	73.01055471572363	
13.0	49.00261196462725	pulse	1.0	t		face	adult-69.jpg	0.0	73.710534370593	
13.0	49.70260520304055	pulse	1.0	t		face	adult-69.jpg	0.0	74.4105276090063	
13.0	50.40259632845846	pulse	1.0	t		face	adult-69.jpg	0.0	75.1105187344242	
13.0	51.10260586712502	pulse	1.0	t		face	adult-69.jpg	0.0	75.81052827309077	
14.0	51.21912460396425	number	0.0		46	character	number-113.jpg	0.0	75.92704700992999	0.3832793211367971
14.0	51.602403925101044	ISI	1.0		233	character	number-113.jpg	0.0	76.31032633106679	2.0166627827788943
14.0	51.80250764300763	pulse	1.0	t		character	number-113.jpg	0.0	76.51043004897338	
14.0	52.502493636864074	pulse	1.0	t		character	number-113.jpg	0.0	77.21041604282982	
14.0	53.20248536599502	pulse	1.0	t		character	number-113.jpg	0.0	77.91040777196076	
15.0	53.61906670787994	car	0.0		46	object	car-46.jpg	0.0	78.32698911384568	0.3832944139639949
15.0	53.902476793269216	pulse	0.0	t		object	car-46.jpg	0.0	78.61039919923496	
15.0	54.00236112184393	ISI	1.0		233	object	car-46.jpg	0.0	78.71028352780968	2.016631389698887
15.0	54.6024911616405	pulse	1.0	t		object	car-46.jpg	0.0	79.31041356760625	
15.0	55.302446366130425	pulse	1.0	t		object	car-46.jpg	0.0	80.01036877209617	
16.0	56.01899251154282	house	0.0		45	place	house-21.jpg	0.0	80.72691491750857	0.38333637202276805
16.0	56.010903963738656	pulse	0.0	t		place	house-21.jpg	0.0	80.7188263697044	
16.0	56.40232888356559	ISI	1.0		230	place	house-21.jpg	0.0	81.11025128953133	2.0166836108801363
16.0	56.70243706894871	pulse	1.0	t		place	house-21.jpg	0.0	81.41035947491446	
16.0	57.40248313225675	pulse	1.0	t		place	house-21.jpg	0.0	82.1104055382225	
16.0	58.1024799929487	pulse	1.0	t		place	house-21.jpg	0.0	82.81040239891445	
17.0	58.419012494445724	limb	0.0		46	body	limb-10.jpg	0.0	83.12693490041147	0.38328143413264115
17.0	58.802293928578365	ISI	1.0		232	body	limb-10.jpg	0.0	83.51021633454411	2.016652821513162
17.0	58.863373995421625	pulse	1.0	t		body	limb-10.jpg	0.0	83.57129640138737	
17.0	59.50239251492394	pulse	1.0	t		body	limb-10.jpg	0.0	84.21031492088969	
17.0	60.20237488650173	pulse	1.0	t		body	limb-10.jpg	0.0	84.91029729246748	
18.0	60.81894675009153	number	0.0		46	character	number-32.jpg	0.0	85.52686915605727	0.38332399590444766
18.0	60.90237265276346	pulse	0.0	t		character	number-32.jpg	0.0	85.6102950587292	
18.0	61.202270745995975	ISI	1.0		233	character	number-32.jpg	0.0	85.91019315196172	2.0166386342561964
18.0	61.602365891177215	pulse	1.0	t		character	number-32.jpg	0.0	86.31028829714296	
18.0	62.30234765904197	pulse	1.0	t		character	number-32.jpg	0.0	87.01027006500772	
18.0	63.00234693458651	pulse	1.0	t		character	number-32.jpg	0.0	87.71026934055226	
19.0	63.21890938025217	adult	0.0		46	face	adult-37.jpg	0.0	87.92683178621792	0.38331886434343687
19.0	63.60222824459561	ISI	1.0		473	face	adult-37.jpg	0.0	88.31015065056135	4.016665801344516
19.0	63.70234711570038	pulse	1.0	t		face	adult-37.jpg	0.0	88.41026952166612	
19.0	64.4024158182483	pulse	1.0	t		face	adult-37.jpg	0.0	89.11033822421405	
19.0	65.10237645615598	pulse	1.0	t		face	adult-37.jpg	0.0	89.81029886212173	
19.0	65.80237512798703	pulse	1.0	t		face	adult-37.jpg	0.0	90.51029753395278	
19.0	66.50233727517707	pulse	1.0	t		face	adult-37.jpg	0.0	91.21025968114282	
19.0	67.20235345468745	pulse	1.0	t		face	adult-37.jpg	0.0	91.9102758606532	
20.0	67.61889404594012	car	0.0		46	object	car-48.jpg	0.0	92.32681645190587	0.38326151160072186
20.0	67.90230473504243	pulse	0.0	t		object	car-48.jpg	0.0	92.61022714100818	
20.0	68.00215555754085	ISI	1.0		353	object	car-48.jpg	0.0	92.71007796350659	3.016639841682718
20.0	68.6022581283928	pulse	1.0	t		object	car-48.jpg	0.0	93.31018053435855	
20.0	69.30231294554005	pulse	1.0	t		object	car-48.jpg	0.0	94.0102353515058	
20.0	70.00224581264592	pulse	1.0	t		object	car-48.jpg	0.0	94.71016821861167	
20.0	70.70223693806383	pulse	1.0	t		object	car-48.jpg	0.0	95.41015934402958	
21.0	71.01879539922356	car	0.0		46	object	car-91.jpg	0.0	95.72671780518931	0.3833107142163499
21.0	71.40210611343991	ISI	1.0		233	object	car-91.jpg	0.0	96.11002851940566	2.0166470862395727
21.0	71.45597422386663	pulse	1.0	t		object	car-91.jpg	0.0	96.16389662983238	
21.0	72.10221405733819	pulse	1.0	t		object	car-91.jpg	0.0	96.81013646330393	
21.0	72.80219612705969	pulse	1.0	t		object	car-91.jpg	0.0	97.51011853302543	
22.0	73.41875319967949	car	0.0		46	object	car-84.jpg	0.0	98.12667560564523	0.38335599269748855
22.0	73.5022168344185	pulse	0.0	t		object	car-84.jpg	0.0	98.21013924038425	
22.0	73.80210919237697	ISI	1.0		953	object	car-84.jpg	0.0	98.51003159834272	8.02489259944332
22.0	74.20227014228294	pulse	1.0	t		object	car-84.jpg	0.0	98.91019254824869	
22.0	74.90223953403029	pulse	1.0	t		object	car-84.jpg	0.0	99.61016193999603	
22.0	75.60222341489089	pulse	1.0	t		object	car-84.jpg	0.0	100.31014582085663	
22.0	76.30220578646913	pulse	1.0	t		object	car-84.jpg	0.0	101.01012819243488	
22.0	77.0022017415913	pulse	1.0	t		object	car-84.jpg	0.0	101.71012414755705	
22.0	77.70217717046944	pulse	1.0	t		object	car-84.jpg	0.0	102.41009957643519	
22.0	78.40217976643544	pulse	1.0	t		object	car-84.jpg	0.0	103.11010217240118	
22.0	79.10217179742267	pulse	1.0	t		object	car-84.jpg	0.0	103.81009420338842	
22.0	79.80218314722879	pulse	1.0	t		object	car-84.jpg	0.0	104.51010555319453	
22.0	80.50216068910231	pulse	1.0	t		object	car-84.jpg	0.0	105.21008309506806	
22.0	81.20215211637651	pulse	1.0	t		object	car-84.jpg	0.0	105.91007452234226	
23.0	81.8270017918203	number	0.0		45	character	number-78.jpg	0.0	106.53492419778604	0.3749740403377473
23.0	81.90214414736374	pulse	0.0	t		character	number-78.jpg	0.0	106.61006655332949	
23.0	82.20197583215804	ISI	1.0		233	character	number-78.jpg	0.0	106.90989823812379	2.016673951471148
23.0	82.60212259480704	pulse	1.0	t		character	number-78.jpg	0.0	107.31004500077279	
23.0	83.30211281465517	pulse	1.0	t		character	number-78.jpg	0.0	108.01003522062092	
23.0	84.0021105809169	pulse	1.0	t		character	number-78.jpg	0.0	108.71003298688265	
24.0	84.21864978362919	car	0.0		46	object	car-109.jpg	0.0	108.92657218959494	0.38326573759241
24.0	84.6019155212216	ISI	1.0		472	object	car-109.jpg	0.0	109.30983792718735	4.016633502695186
24.0	84.7020443535921	pulse	1.0	t		object	car-109.jpg	0.0	109.40996675955785	
24.0	85.40201887690046	pulse	1.0	t		object	car-109.jpg	0.0	110.1099412828662	
24.0	86.10199490949117	pulse	1.0	t		object	car-109.jpg	0.0	110.80991731545691	
24.0	86.80198180891739	pulse	1.0	t		object	car-109.jpg	0.0	111.50990421488314	
24.0	87.50197142505249	pulse	1.0	t		object	car-109.jpg	0.0	112.20989383101823	
24.0	88.2019643616095	pulse	1.0	t		object	car-109.jpg	0.0	112.90988676757524	
25.0	88.61854902391678	car	0.0		46	object	car-59.jpg	0.0	113.32647142988253	0.3833185624866928
25.0	88.9019684668583	pulse	0.0	t		object	car-59.jpg	0.0	113.60989087282405	
25.0	89.00186758640348	ISI	1.0		233	object	car-59.jpg	0.0	113.70978999236922	2.0166630846356384
25.0	89.60196170527206	pulse	1.0	t		object	car-59.jpg	0.0	114.3098841112378	
25.0	90.30200263701863	pulse	1.0	t		object	car-59.jpg	0.0	115.00992504298438	
26.0	91.01853067103912	adult	0.0		45	face	adult-138.jpg	0.0	115.72645307700486	0.3833236940477036
26.0	91.01046778104046	pulse	0.0	t		face	adult-138.jpg	0.0	115.71839018700621	
26.0	91.40185436508682	ISI	1.0		232	face	adult-138.jpg	0.0	116.10977677105257	2.016643162104174
26.0	91.70198760456287	pulse	1.0	t		face	adult-138.jpg	0.0	116.40991001052862	
26.0	92.40198567268135	pulse	1.0	t		face	adult-138.jpg	0.0	117.1099080786471	
26.0	93.10195959227622	pulse	1.0	t		face	adult-138.jpg	0.0	117.80988199824196	
27.0	93.418497527191	number	0.0		46	character	number-65.jpg	0.0	118.12641993315674	0.383277208140953
27.0	93.80177473533195	ISI	1.0		233	character	number-65.jpg	0.0	118.50969714129769	2.016666706914293
27.0	93.85239486940463	pulse	1.0	t		character	number-65.jpg	0.0	118.56031727537038	
27.0	94.50187905695202	pulse	1.0	t		character	number-65.jpg	0.0	119.20980146291777	
27.0	95.20185840996464	pulse	1.0	t		character	number-65.jpg	0.0	119.90978081593039	
28.0	95.81844144224624	car	0.0		46	object	car-113.jpg	0.0	120.52636384821199	0.38329592324635087
28.0	95.90187157090986	pulse	0.0	t		object	car-113.jpg	0.0	120.60979397687561	
28.0	96.20173736549259	ISI	1.0		353	object	car-113.jpg	0.0	120.90965977145834	3.0166410491083298
28.0	96.6018466979308	pulse	1.0	t		object	car-113.jpg	0.0	121.30976910389654	
28.0	97.30185774588017	pulse	1.0	t		object	car-113.jpg	0.0	122.00978015184592	
28.0	98.0018241190619	pulse	1.0	t		object	car-113.jpg	0.0	122.70974652502764	
28.0	98.70181162220115	pulse	1.0	t		object	car-113.jpg	0.0	123.4097340281669	
29.0	99.21837841460092	number	0.0		46	character	number-133.jpg	0.0	123.92630082056667	0.3833424091535562
29.0	99.40180999217591	pulse	0.0	t		character	number-133.jpg	0.0	124.10973239814166	
29.0	99.60172082375448	ISI	1.0		353	character	number-133.jpg	0.0	124.30964322972022	3.0166482936651846
29.0	100.10186028147518	pulse	1.0	t		character	number-133.jpg	0.0	124.80978268744093	
29.0	100.80185412360197	pulse	1.0	t		character	number-133.jpg	0.0	125.50977652956772	
29.0	101.50183257104482	pulse	1.0	t		character	number-133.jpg	0.0	126.20975497701056	
29.0	102.20183094101958	pulse	1.0	t		character	number-133.jpg	0.0	126.90975334698533	
30.0	102.61836911741966	limb	0.0		46	body	limb-61.jpg	0.0	127.32629152338541	0.3832838489847745
30.0	102.90176893968646	pulse	0.0	t		body	limb-61.jpg	0.0	127.60969134565221	
30.0	103.00165296640444	ISI	1.0		354	body	limb-61.jpg	0.0	127.70957537237018	3.0166292767034975
30.0	103.60174738712976	pulse	1.0	t		body	limb-61.jpg	0.0	128.3096697930955	
30.0	104.30172885313823	pulse	1.0	t		body	limb-61.jpg	0.0	129.00965125910398	
30.0	105.00172088412546	pulse	1.0	t		body	limb-61.jpg	0.0	129.7096432900912	
30.0	105.70173857291866	pulse	1.0	t		body	limb-61.jpg	0.0	130.4096609788844	
31.0	106.01828224310793	car	0.0		46	object	car-20.jpg	0.0	130.72620464907368	0.38330769565118317
31.0	106.40158993875912	ISI	1.0		235	object	car-20.jpg	0.0	131.10951234472486	2.0166697254799146
31.0	106.43620805401542	pulse	1.0	t		object	car-20.jpg	0.0	131.14413045998117	
31.0	107.10169214738335	pulse	1.0	t		object	car-20.jpg	0.0	131.8096145533491	
31.0	107.80167934866586	pulse	1.0	t		object	car-20.jpg	0.0	132.5096017546316	
32.0	108.41825966423903	limb	0.0		46	body	limb-76.jpg	0.0	133.12618207020478	0.38332399590444766
32.0	108.50166987037073	pulse	0.0	t		body	limb-76.jpg	0.0	133.20959227633648	
32.0	108.80158366014348	ISI	1.0		232	body	limb-76.jpg	0.0	133.50950606610922	2.016671838475304
32.0	109.20172317823517	pulse	1.0	t		body	limb-76.jpg	0.0	133.90964558420092	
32.0	109.90174630044612	pulse	1.0	t		body	limb-76.jpg	0.0	134.60966870641187	
32.0	110.60172776645459	pulse	1.0	t		body	limb-76.jpg	0.0	135.30965017242033	
33.0	110.81825549861878	house	0.0		46	place	house-38.jpg	0.0	135.52617790458453	0.3832539651875777
33.0	111.20150946380636	ISI	1.0		234	place	house-38.jpg	0.0	135.9094318697721	2.0166609716397943
33.0	111.30162863676742	pulse	1.0	t		place	house-38.jpg	0.0	136.00955104273316	
33.0	112.00160316007577	pulse	1.0	t		place	house-38.jpg	0.0	136.70952556604152	
33.0	112.70160243561986	pulse	1.0	t		place	house-38.jpg	0.0	137.4095248415856	
34.0	113.21817043544615	house	0.0		46	place	house-143.jpg	0.0	137.9260928414119	0.3833140346387154
34.0	113.40163038753553	pulse	0.0	t		place	house-143.jpg	0.0	138.10955279350128	
34.0	113.60148447008487	ISI	1.0		234	place	house-143.jpg	0.0	138.30940687605062	2.016666103200805
34.0	114.10159253472557	pulse	1.0	t		place	house-143.jpg	0.0	138.80951494069132	
34.0	114.80157490630381	pulse	1.0	t		place	house-143.jpg	0.0	139.50949731226956	
34.0	115.50156572986498	pulse	1.0	t		place	house-143.jpg	0.0	140.20948813583072	
35.0	115.61815057328567	number	0.0		46	character	number-69.jpg	0.0	140.32607297925142	0.3832926028244401
35.0	116.00144317611012	ISI	1.0		472	character	number-69.jpg	0.0	140.70936558207586	4.016677875606547
35.0	116.20155655342614	pulse	1.0	t		character	number-69.jpg	0.0	140.9094789593919	
35.0	116.90161620027811	pulse	1.0	t		character	number-69.jpg	0.0	141.60953860624386	
35.0	117.6016024959913	pulse	1.0	t		character	number-69.jpg	0.0	142.30952490195705	
35.0	118.30159150841337	pulse	1.0	t		character	number-69.jpg	0.0	143.0095139143791	
35.0	119.00158021897869	pulse	1.0	t		character	number-69.jpg	0.0	143.70950262494443	
35.0	119.70156591097884	pulse	1.0	t		character	number-69.jpg	0.0	144.4094883169446	
36.0	120.01812105171666	adult	0.0		46	face	adult-126.jpg	0.0	144.7260434576824	0.3832581911788111
36.0	120.40137924289547	ISI	1.0		234	face	adult-126.jpg	0.0	145.10930164886122	2.016655538222494
36.0	120.4494471799353	pulse	1.0	t		face	adult-126.jpg	0.0	145.15736958590105	
36.0	121.1014742069624	pulse	1.0	t		face	adult-126.jpg	0.0	145.80939661292814	
36.0	121.80146955837199	pulse	1.0	t		face	adult-126.jpg	0.0	146.50939196433774	
37.0	122.41803478111797	house	0.0		46	place	house-59.jpg	0.0	147.1259571870837	0.38331161978612727
37.0	122.50146158935922	pulse	0.0	t		place	house-59.jpg	0.0	147.20938399532497	
37.0	122.8013464009041	ISI	1.0		474	place	house-59.jpg	0.0	147.50926880686984	4.016658254930917
37.0	123.20145060178129	pulse	1.0	t		place	house-59.jpg	0.0	147.90937300774704	
37.0	123.90143931234661	pulse	1.0	t		place	house-59.jpg	0.0	148.60936171831236	
37.0	124.60144100274329	pulse	1.0	t		place	house-59.jpg	0.0	149.30936340870903	
37.0	125.30142216689501	pulse	1.0	t		place	house-59.jpg	0.0	150.00934457286075	
37.0	126.00140755703887	pulse	1.0	t		place	house-59.jpg	0.0	150.70932996300462	
37.0	126.701465090895	pulse	1.0	t		place	house-59.jpg	0.0	151.40938749686075	
38.0	126.81800465583501	number	0.0		46	character	number-86.jpg	0.0	151.52592706180076	0.38327660442791966
38.0	127.20128126026293	ISI	1.0		354	character	number-86.jpg	0.0	151.90920366622868	3.0166353138342856
38.0	127.40138950601795	pulse	1.0	t		character	number-86.jpg	0.0	152.1093119119837	
38.0	128.10138183886147	pulse	1.0	t		character	number-86.jpg	0.0	152.80930424482722	
38.0	128.8013479101869	pulse	1.0	t		character	number-86.jpg	0.0	153.50927031615265	
38.0	129.50136348598426	pulse	1.0	t		character	number-86.jpg	0.0	154.20928589195	
39.0	130.21791657409722	adult	0.0		45	face	adult-100.jpg	0.0	154.92583898006296	0.38330588451208314
39.0	130.20991677211532	pulse	0.0	t		face	adult-100.jpg	0.0	154.91783917808107	
39.0	130.6012224586093	ISI	1.0		356	face	adult-100.jpg	0.0	155.30914486457505	3.016683309023847
39.0	130.9013433219675	pulse	1.0	t		face	adult-100.jpg	0.0	155.60926572793323	
39.0	131.60135708662574	pulse	1.0	t		face	adult-100.jpg	0.0	156.3092794925915	
39.0	132.30131259297195	pulse	1.0	t		face	adult-100.jpg	0.0	157.0092349989377	
39.0	133.00136982497133	pulse	1.0	t		face	adult-100.jpg	0.0	157.70929223093708	
40.0	133.61790576763315	adult	0.0		46	face	adult-100.jpg	1.0	158.3258281735989	0.3832763025711756
40.0	133.70130239022092	pulse	0.0	t		face	adult-100.jpg	1.0	158.40922479618666	
40.0	134.00118207020432	ISI	1.0		234	face	adult-100.jpg	1.0	158.70910447617007	2.0166510103745168
40.0	134.4013058917567	pulse	1.0	t		face	adult-100.jpg	1.0	159.10922829772244	
40.0	134.61795074425754	response	1.0	b		face	adult-100.jpg	1.0	159.3258731502233	
40.0	135.10127769835572	pulse	1.0	t		face	adult-100.jpg	1.0	159.80920010432146	
40.0	135.80126550335171	pulse	1.0	t		face	adult-100.jpg	1.0	160.50918790931746	
41.0	136.01783308057884	house	0.0		46	place	house-113.jpg	0.0	160.72575548654459	0.3833119216428713
41.0	136.4011450022217	ISI	1.0		232	place	house-113.jpg	0.0	161.10906740818746	2.0166522178001287
41.0	136.5012985868284	pulse	1.0	t		place	house-113.jpg	0.0	161.20922099279414	
41.0	137.2012399059172	pulse	1.0	t		place	house-113.jpg	0.0	161.90916231188294	
41.0	137.90124763344465	pulse	1.0	t		place	house-113.jpg	0.0	162.6091700394104	
42.0	138.41779722002184	limb	0.0		46	body	limb-124.jpg	0.0	163.12571962598759	0.38331101607354867
42.0	138.6012360421537	pulse	0.0	t		body	limb-124.jpg	0.0	163.30915844811943	
42.0	138.8011082360954	ISI	1.0		232	body	limb-124.jpg	0.0	163.50903064206113	2.01667153661856
42.0	139.30122082858406	pulse	1.0	t		body	limb-124.jpg	0.0	164.0091432345498	
42.0	140.00127413644896	pulse	1.0	t		body	limb-124.jpg	0.0	164.7091965424147	
42.0	140.7012601303054	pulse	1.0	t		body	limb-124.jpg	0.0	165.40918253627115	
43.0	140.81777977271395	house	0.0		46	place	house-87.jpg	0.0	165.5257021786797	0.383288678689496
43.0	141.20106845140344	ISI	1.0		713	place	house-87.jpg	0.0	165.9089908573692	6.016649199234962
43.0	141.40119390298105	pulse	1.0	t		place	house-87.jpg	0.0	166.1091163089468	
43.0	142.10117084114154	pulse	1.0	t		place	house-87.jpg	0.0	166.80909324710728	
43.0	142.80116800368978	pulse	1.0	t		place	house-87.jpg	0.0	167.50909040965553	
43.0	143.50115369568994	pulse	1.0	t		place	house-87.jpg	0.0	168.20907610165568	
43.0	144.2011402932594	pulse	1.0	t		place	house-87.jpg	0.0	168.90906269922516	
43.0	144.9011326261034	pulse	1.0	t		place	house-87.jpg	0.0	169.60905503206914	
43.0	145.60114307033973	pulse	1.0	t		place	house-87.jpg	0.0	170.30906547630548	
43.0	146.30109918039898	pulse	1.0	t		place	house-87.jpg	0.0	171.00902158636472	
43.0	147.0011675810906	pulse	1.0	t		place	house-87.jpg	0.0	171.70908998705636	
44.0	147.2177176506384	house	0.0		46	place	house-27.jpg	0.0	171.92564005660415	0.38326634130544335
44.0	147.60098399194385	ISI	1.0		233	place	house-27.jpg	0.0	172.3089063979096	2.0166498029479953
44.0	147.7010962222048	pulse	1.0	t		place	house-27.jpg	0.0	172.40901862817054	
44.0	148.4010798012091	pulse	1.0	t		place	house-27.jpg	0.0	173.10900220717485	
44.0	149.10106338021342	pulse	1.0	t		place	house-27.jpg	0.0	173.80898578617916	
45.0	149.61763379489184	house	0.0		46	place	house-81.jpg	0.0	174.3255562008576	0.38330860122096055
45.0	149.8010614483319	pulse	0.0	t		place	house-81.jpg	0.0	174.50898385429764	
45.0	150.0009423961128	ISI	1.0		833	place	house-81.jpg	0.0	174.70886480207855	7.016614787589788
45.0	150.50104653661856	pulse	1.0	t		place	house-81.jpg	0.0	175.2089689425843	
45.0	151.20103011562287	pulse	1.0	t		place	house-81.jpg	0.0	175.90895252158862	
45.0	151.90103150416326	pulse	1.0	t		place	house-81.jpg	0.0	176.608953910129	
45.0	152.6010250444333	pulse	1.0	t		place	house-81.jpg	0.0	177.30894745039905	
45.0	153.30107020217156	pulse	1.0	t		place	house-81.jpg	0.0	178.0089926081373	
45.0	154.00106766657655	pulse	1.0	t		place	house-81.jpg	0.0	178.7089900725423	
45.0	154.70106543283828	pulse	1.0	t		place	house-81.jpg	0.0	179.40898783880402	
45.0	155.40105504897338	pulse	1.0	t		place	house-81.jpg	0.0	180.10897745493912	
45.0	156.10103500569903	pulse	1.0	t		place	house-81.jpg	0.0	180.80895741166478	
45.0	156.8010149624247	pulse	1.0	t		place	house-81.jpg	0.0	181.50893736839043	
46.0	157.0175571837026	limb	0.0		46	body	limb-93.jpg	0.0	181.72547958966834	0.38327871742376374
46.0	157.40083590112636	ISI	1.0		233	body	limb-93.jpg	0.0	182.1087583070921	2.0166522178001287
46.0	157.50095839450978	pulse	1.0	t		body	limb-93.jpg	0.0	182.20888080047553	
46.0	158.2009320122479	pulse	1.0	t		body	limb-93.jpg	0.0	182.90885441821365	
46.0	158.900916496822	pulse	1.0	t		body	limb-93.jpg	0.0	183.60883890278774	
47.0	159.41748811892649	adult	0.0		46	face	adult-82.jpg	0.0	184.12541052489223	0.38331101607354867
47.0	159.60094293945485	pulse	0.0	t		face	adult-82.jpg	0.0	184.3088653454206	
47.0	159.80079913500003	ISI	1.0		354	face	adult-82.jpg	0.0	184.50872154096578	3.0166519159438394
47.0	160.30090267179276	pulse	1.0	t		face	adult-82.jpg	0.0	185.0088250777585	
47.0	161.0008868545101	pulse	1.0	t		face	adult-82.jpg	0.0	185.70880926047585	
47.0	161.7008800929234	pulse	1.0	t		face	adult-82.jpg	0.0	186.40880249888914	
47.0	162.40087001091524	pulse	1.0	t		face	adult-82.jpg	0.0	187.108792416881	
48.0	162.81745105094387	house	0.0		46	place	house-53.jpg	0.0	187.52537345690962	0.3832995455245509
48.0	163.1008795495818	pulse	0.0	t		place	house-53.jpg	0.0	187.80880195554755	
48.0	163.20075059646842	ISI	1.0		593	place	house-53.jpg	0.0	187.90867300243417	5.01664104910833
48.0	163.8009005587969	pulse	1.0	t		place	house-53.jpg	0.0	188.50882296476266	
48.0	164.50090949375044	pulse	1.0	t		place	house-53.jpg	0.0	189.2088318997162	
48.0	165.20089186532869	pulse	1.0	t		place	house-53.jpg	0.0	189.90881427129443	
48.0	165.90088268888985	pulse	1.0	t		place	house-53.jpg	0.0	190.6088050948556	
48.0	166.60089645354765	pulse	1.0	t		place	house-53.jpg	0.0	191.3088188595134	
48.0	167.3008676564341	pulse	1.0	t		place	house-53.jpg	0.0	192.00879006239984	
48.0	168.00085757442594	pulse	1.0	t		place	house-53.jpg	0.0	192.70877998039168	
49.0	168.21739164557675	car	0.0		46	object	car-139.jpg	0.0	192.9253140515425	0.3832796229935411
49.0	168.6006712685703	ISI	1.0		473	object	car-139.jpg	0.0	193.30859367453604	4.016635615690575
49.0	168.7007813858354	pulse	1.0	t		object	car-139.jpg	0.0	193.40870379180114	
49.0	169.40078669851027	pulse	1.0	t		object	car-139.jpg	0.0	194.10870910447602	
49.0	170.1007494494138	pulse	1.0	t		object	car-139.jpg	0.0	194.80867185537954	
49.0	170.80073997111822	pulse	1.0	t		object	car-139.jpg	0.0	195.50866237708397	
49.0	171.50074256708467	pulse	1.0	t		object	car-139.jpg	0.0	196.20866497305042	
49.0	172.2007237312364	pulse	1.0	t		object	car-139.jpg	0.0	196.90864613720214	
50.0	172.61730688426087	house	0.0		46	place	house-58.jpg	0.0	197.32522929022662	0.3832965269593842
50.0	172.9007335717597	pulse	0.0	t		place	house-58.jpg	0.0	197.60865597772545	
50.0	173.00060341122025	ISI	1.0		596	place	house-58.jpg	0.0	197.708525817186	5.0166425583911405
50.0	173.6007180563338	pulse	1.0	t		place	house-58.jpg	0.0	198.30864046229954	
50.0	174.30078132546396	pulse	1.0	t		place	house-58.jpg	0.0	199.0087037314297	
50.0	175.00075403763321	pulse	1.0	t		place	house-58.jpg	0.0	199.70867644359896	
50.0	175.7007439556246	pulse	1.0	t		place	house-58.jpg	0.0	200.40866636159035	
50.0	176.40073568475555	pulse	1.0	t		place	house-58.jpg	0.0	201.1086580907213	
50.0	177.10071624519423	pulse	1.0	t		place	house-58.jpg	0.0	201.80863865115998	
50.0	177.80071642630855	pulse	1.0	t		place	house-58.jpg	0.0	202.5086388322743	
51.0	178.0172459696114	house	0.0		46	place	house-58.jpg	1.0	202.72516837557714	0.3832744914320756
51.0	178.40052046104347	ISI	1.0		352	place	house-58.jpg	1.0	203.10844286700922	3.016649199234962
51.0	178.50063782286588	pulse	1.0	t		place	house-58.jpg	1.0	203.20856022883163	
51.0	179.20062562786143	pulse	1.0	t		place	house-58.jpg	1.0	203.90854803382717	
51.0	179.90061856441844	pulse	1.0	t		place	house-58.jpg	1.0	204.60854097038418	
51.0	180.60058222089128	pulse	1.0	t		place	house-58.jpg	1.0	205.30850462685703	
51.0	181.30061862478988	pulse	1.0	t		place	house-58.jpg	1.0	206.00854103075562	
52.0	181.41716966027843	car	0.0		46	object	car-133.jpg	0.0	206.12509206624418	0.3833079975079272
52.0	181.80047765778636	ISI	1.0		355	object	car-133.jpg	0.0	206.5084000637521	3.016679686745192
52.0	182.00058620539767	pulse	1.0	t		object	car-133.jpg	0.0	206.7085086113634	
52.0	182.70058216051984	pulse	1.0	t		object	car-133.jpg	0.0	207.4085045664856	
52.0	183.40056543766786	pulse	1.0	t		object	car-133.jpg	0.0	208.1084878436336	
52.0	184.1006431959122	pulse	1.0	t		object	car-133.jpg	0.0	208.80856560187794	
53.0	184.81715734453155	house	0.0		45	place	house-68.jpg	0.0	209.5250797504973	0.3832962251030949
53.0	184.8092915668526	pulse	0.0	t		place	house-68.jpg	0.0	209.51721397281835	
53.0	185.20045356963465	ISI	1.0		471	place	house-68.jpg	0.0	209.9083759756004	4.016625654424843
53.0	185.5006073353552	pulse	1.0	t		place	house-68.jpg	0.0	210.20852974132094	
53.0	186.20058517908546	pulse	1.0	t		place	house-68.jpg	0.0	210.9085075850512	
53.0	186.9005923028999	pulse	1.0	t		place	house-68.jpg	0.0	211.60851470886564	
53.0	187.6005776930433	pulse	1.0	t		place	house-68.jpg	0.0	212.30850009900905	
53.0	188.30058874099268	pulse	1.0	t		place	house-68.jpg	0.0	213.00851114695843	
53.0	189.00056235873126	pulse	1.0	t		place	house-68.jpg	0.0	213.708484764697	
54.0	189.2170792240595	number	0.0		46	character	number-73.jpg	0.0	213.92500163002524	0.38328535826758525
54.0	189.60036458232707	ISI	1.0		232	character	number-73.jpg	0.0	214.30828698829282	2.016631993412375
54.0	189.70049854625904	pulse	1.0	t		character	number-73.jpg	0.0	214.4084209522248	
54.0	190.40046823986222	pulse	1.0	t		character	number-73.jpg	0.0	215.10839064582797	
54.0	191.1004442724534	pulse	1.0	t		character	number-73.jpg	0.0	215.80836667841913	
55.0	191.61699657573945	number	0.0		46	character	number-47.jpg	0.0	216.3249189817052	0.3833258070435477
55.0	191.80043962386253	pulse	0.0	t		character	number-47.jpg	0.0	216.50836202982828	
55.0	192.000322382783	ISI	1.0		473	character	number-47.jpg	0.0	216.70824478874874	4.016657953074628
55.0	192.50042410843662	pulse	1.0	t		character	number-47.jpg	0.0	217.20834651440236	
55.0	193.20044360836891	pulse	1.0	t		character	number-47.jpg	0.0	217.90836601433466	
55.0	193.90042628180345	pulse	1.0	t		character	number-47.jpg	0.0	218.6083486877692	
55.0	194.60039869211596	pulse	1.0	t		character	number-47.jpg	0.0	219.3083210980817	
55.0	195.30046165938984	pulse	1.0	t		character	number-47.jpg	0.0	220.00838406535559	
56.0	196.01698033585762	adult	0.0		45	face	adult-78.jpg	0.0	220.72490274182337	0.3833143364950047
56.0	196.00889299547953	pulse	0.0	t		face	adult-78.jpg	0.0	220.71681540144527	
56.0	196.40029467235263	ISI	1.0		236	face	adult-78.jpg	0.0	221.10821707831838	2.016649199234962
56.0	196.70043485452925	pulse	1.0	t		face	adult-78.jpg	0.0	221.408357260495	
56.0	197.4004060574157	pulse	1.0	t		face	adult-78.jpg	0.0	222.10832846338144	
56.0	198.10040503110304	pulse	1.0	t		face	adult-78.jpg	0.0	222.80832743706878	
57.0	198.4169438715876	adult	0.0		46	face	adult-78.jpg	1.0	223.12486627755334	0.383275698858597
57.0	198.8002195704462	ISI	1.0		232	face	adult-78.jpg	1.0	223.50814197641193	2.016660669783505
57.0	198.85753367511552	pulse	1.0	t		face	adult-78.jpg	1.0	223.56545608108127	
57.0	198.93365736626538	response	1.0	b		face	adult-78.jpg	1.0	223.64157977223113	
57.0	199.50032117535693	pulse	1.0	t		face	adult-78.jpg	1.0	224.20824358132268	
57.0	200.20032678988855	pulse	1.0	t		face	adult-78.jpg	1.0	224.9082491958543	
58.0	200.8168802402297	limb	0.0		46	body	limb-13.jpg	0.0	225.52480264619544	0.38331765691691544
58.0	200.9003254617196	pulse	0.0	t		body	limb-13.jpg	0.0	225.60824786768535	
58.0	201.2001978971466	ISI	1.0		232	body	limb-13.jpg	0.0	225.90812030311236	2.016644067673951
58.0	201.600305720302	pulse	1.0	t		body	limb-13.jpg	0.0	226.30822812626775	
58.0	202.30028960116306	pulse	1.0	t		body	limb-13.jpg	0.0	227.0082120071288	
58.0	203.0002719727413	pulse	1.0	t		body	limb-13.jpg	0.0	227.70819437870705	
59.0	203.21684196482056	adult	0.0		46	face	adult-109.jpg	0.0	227.9247643707863	0.38331403463826064
59.0	203.60015599945882	ISI	1.0		353	face	adult-109.jpg	0.0	228.30807840542457	3.0166673106273265
59.0	203.70027728541618	pulse	1.0	t		face	adult-109.jpg	0.0	228.40819969138192	
59.0	204.40024788458913	pulse	1.0	t		face	adult-109.jpg	0.0	229.10817029055488	
59.0	205.10030481473268	pulse	1.0	t		face	adult-109.jpg	0.0	229.80822722069843	
59.0	205.8002920160152	pulse	1.0	t		face	adult-109.jpg	0.0	230.50821442198094	
59.0	206.50028374514613	pulse	1.0	t		face	adult-109.jpg	0.0	231.20820615111188	
60.0	206.61682331008615	car	0.0		46	object	car-4.jpg	0.0	231.3247457160519	0.3832750951455637
60.0	207.0000984052317	ISI	1.0		352	object	car-4.jpg	0.0	231.70802081119746	3.0166380305427083
60.0	207.200211480691	pulse	1.0	t		object	car-4.jpg	0.0	231.90813388665674	
60.0	207.90021317108722	pulse	1.0	t		object	car-4.jpg	0.0	232.60813557705296	
60.0	208.60020429650513	pulse	1.0	t		object	car-4.jpg	0.0	233.30812670247087	
60.0	209.30017731053067	pulse	1.0	t		object	car-4.jpg	0.0	234.00809971649642	
61.0	210.01673643577442	limb	0.0		45	body	limb-30.jpg	0.0	234.72465884174017	0.3833140346387154
61.0	210.0100065442498	pulse	0.0	t		body	limb-30.jpg	0.0	234.71792895021554	
61.0	210.40005047041313	ISI	1.0		353	body	limb-30.jpg	0.0	235.10797287637888	3.016672140332048
61.0	210.7001930674419	pulse	1.0	t		body	limb-30.jpg	0.0	235.40811547340763	
61.0	211.4001410273745	pulse	1.0	t		body	limb-30.jpg	0.0	236.10806343334025	
61.0	212.10013336021848	pulse	1.0	t		body	limb-30.jpg	0.0	236.80805576618422	
61.0	212.8001905922183	pulse	1.0	t		body	limb-30.jpg	0.0	237.50811299818406	
62.0	213.41672261074518	adult	0.0		46	face	adult-17.jpg	0.0	238.12464501671093	0.38329230096769606
62.0	213.50011802590643	pulse	0.0	t		face	adult-17.jpg	0.0	238.20804043187218	
62.0	213.80001491171288	ISI	1.0		233	face	adult-17.jpg	0.0	238.50793731767862	2.016651312230806
62.0	214.20011156617647	pulse	1.0	t		face	adult-17.jpg	0.0	238.90803397214222	
62.0	214.90009001361977	pulse	1.0	t		face	adult-17.jpg	0.0	239.60801241958552	
62.0	215.600108306126	pulse	1.0	t		face	adult-17.jpg	0.0	240.30803071209175	
63.0	215.81666622394368	number	0.0		46	character	number-76.jpg	0.0	240.52458862990943	0.38329713067241755
63.0	216.1999633546161	ISI	1.0		354	character	number-76.jpg	0.0	240.90788576058185	3.0166519159438394
63.0	216.3000870554256	pulse	1.0	t		character	number-76.jpg	0.0	241.00800946139134	
63.0	217.000072445569	pulse	1.0	t		character	number-76.jpg	0.0	241.70799485153475	
63.0	217.70005964685197	pulse	1.0	t		character	number-76.jpg	0.0	242.40798205281772	
63.0	218.40004624442145	pulse	1.0	t		character	number-76.jpg	0.0	243.1079686503872	
63.0	219.10003072899553	pulse	1.0	t		character	number-76.jpg	0.0	243.80795313496128	
64.0	219.21661527055994	car	0.0		46	object	car-120.jpg	0.0	243.9245376765257	0.38333456088321327
64.0	219.59994983144315	ISI	1.0		234	object	car-120.jpg	0.0	244.3078722374089	2.025004588219417
64.0	219.8000964129783	pulse	1.0	t		object	car-120.jpg	0.0	244.50801881894404	
64.0	220.50007274742575	pulse	1.0	t		object	car-120.jpg	0.0	245.2079951533915	
64.0	221.2000617598478	pulse	1.0	t		object	car-120.jpg	0.0	245.90798416581356	
65.0	221.62495441966257	limb	0.0		45	body	limb-71.jpg	0.0	246.33287682562832	0.3749547215193161
65.0	221.9000260200337	pulse	0.0	t		body	limb-71.jpg	0.0	246.60794842599944	
65.0	221.9999091411819	ISI	1.0		359	body	limb-71.jpg	0.0	246.70783154714763	2.999994264725956
65.0	222.60005004781397	pulse	1.0	t		body	limb-71.jpg	0.0	247.3079724537797	
65.0	223.30005083264086	pulse	1.0	t		body	limb-71.jpg	0.0	248.0079732386066	
65.0	224.00003229864978	pulse	1.0	t		body	limb-71.jpg	0.0	248.70795470461553	
65.0	224.70003278161994	pulse	1.0	t		body	limb-71.jpg	0.0	249.40795518758569	
66.0	224.99990340590784	baseline	0.0		708		baseline	0.0	249.7078258118736	5.8999119182617505
66.0	225.40000639935852	pulse	0.0	t			baseline	0.0	250.10792880532426	
66.0	226.09999571363733	pulse	0.0	t			baseline	0.0	250.80791811960307	
66.0	226.7999805000677	pulse	0.0	t			baseline	0.0	251.50790290603345	
66.0	227.49997434219404	pulse	0.0	t			baseline	0.0	252.20789674815978	
66.0	228.19996124162026	pulse	0.0	t			baseline	0.0	252.907883647586	
66.0	228.899959007882	pulse	0.0	t			baseline	0.0	253.60788141384774	
66.0	229.59995254815203	pulse	0.0	t			baseline	0.0	254.30787495411778	
66.0	230.2999303918823	pulse	0.0	t			baseline	0.0	255.00785279784805	
66.0	230.8998153241696	ISI	1.0		12		baseline	0.0	255.60773773013534	0.10000144891137097
