trial_nr	onset	event_type	phase	response	nr_frames	face_age	face_sex	face_eth	attractiveness	expression	face_id	sub_id	ses	run	trial_type	catch	rating_type	onset_abs	duration
-1.0	0.059746063157490426	fix	0.0		713													27.865925054129093	5.9579379939636965
-1.0	0.7012935305961037	pulse	0.0	t														28.507472521567706	
-1.0	1.4012595117646924	pulse	0.0	t														29.207438502736295	
-1.0	2.1012354540816887	pulse	0.0	t														29.90741444505329	
-1.0	2.801229507577773	pulse	0.0	t														30.607408498549376	
-1.0	3.5012114869546167	pulse	0.0	t														31.30739047792622	
-1.0	4.2011934663314605	pulse	0.0	t														32.00737245730306	
-1.0	4.901173332737471	pulse	0.0	t														32.707352323709074	
-1.0	5.601148369495604	pulse	0.0	t														33.40732736046721	
0.0	6.017684057121187	face	0.0		144	27.0	female	white	4.181058495821727	neutral	039	sub-14	2.0	3.0	039_neutral	0.0		33.82386304809279	1.2333115294859454
0.0	6.301145743374491	pulse	0.0	t		27.0	female	white	4.181058495821727	neutral	039	sub-14	2.0	3.0	039_neutral	0.0		34.10732473434609	
0.0	7.001109007866489	pulse	0.0	t		27.0	female	white	4.181058495821727	neutral	039	sub-14	2.0	3.0	039_neutral	0.0		34.80728799883809	
0.0	7.250995586607132	fix	1.0		445	27.0	female	white	4.181058495821727	neutral	039	sub-14	2.0	3.0	039_neutral	0.0		35.057174577578735	3.7581840645170814
0.0	7.7011075891573455	pulse	1.0	t		27.0	female	white	4.181058495821727	neutral	039	sub-14	2.0	3.0	039_neutral	0.0		35.50728658012895	
0.0	8.401071155501995	pulse	1.0	t		27.0	female	white	4.181058495821727	neutral	039	sub-14	2.0	3.0	039_neutral	0.0		36.2072501464736	
0.0	9.101055851555884	pulse	1.0	t		27.0	female	white	4.181058495821727	neutral	039	sub-14	2.0	3.0	039_neutral	0.0		36.90723484252749	
0.0	9.801032397578638	pulse	1.0	t		27.0	female	white	4.181058495821727	neutral	039	sub-14	2.0	3.0	039_neutral	0.0		37.60721138855024	
0.0	10.501019810309572	pulse	1.0	t		27.0	female	white	4.181058495821727	neutral	039	sub-14	2.0	3.0	039_neutral	0.0		38.307198801281174	
1.0	11.009179651124214	face	0.0		146	32.0	male	white	2.389176283326701	smiling	092	sub-14	2.0	3.0	092_smiling	0.0		38.815358642095816	1.241681007198622
1.0	11.201014165658307	pulse	0.0	t		32.0	male	white	2.389176283326701	smiling	092	sub-14	2.0	3.0	092_smiling	0.0		39.00719315662991	
1.0	11.900973807914397	pulse	0.0	t		32.0	male	white	2.389176283326701	smiling	092	sub-14	2.0	3.0	092_smiling	0.0		39.707152798886	
1.0	12.250860658322836	fix	1.0		444	32.0	male	white	2.389176283326701	smiling	092	sub-14	2.0	3.0	092_smiling	0.0		40.05703964929444	3.7582009682842
1.0	12.600965144733891	pulse	1.0	t		32.0	male	white	2.389176283326701	smiling	092	sub-14	2.0	3.0	092_smiling	0.0		40.407144135705494	
1.0	13.30093927593316	pulse	1.0	t		32.0	male	white	2.389176283326701	smiling	092	sub-14	2.0	3.0	092_smiling	0.0		41.10711826690476	
1.0	14.000921859015762	pulse	1.0	t		32.0	male	white	2.389176283326701	smiling	092	sub-14	2.0	3.0	092_smiling	0.0		41.807100849987364	
1.0	14.700898103185864	pulse	1.0	t		32.0	male	white	2.389176283326701	smiling	092	sub-14	2.0	3.0	092_smiling	0.0		42.50707709415747	
1.0	15.400893062240812	pulse	1.0	t		32.0	male	white	2.389176283326701	smiling	092	sub-14	2.0	3.0	092_smiling	0.0		43.207072053212414	
2.0	16.009061626607036	face	0.0		146	54.0	female	white	2.286908077994429	neutral	136	sub-14	2.0	3.0	136_neutral	0.0		43.81524061757864	1.241667725667412
2.0	16.10086960826402	pulse	0.0	t		54.0	female	white	2.286908077994429	neutral	136	sub-14	2.0	3.0	136_neutral	0.0		43.90704859923562	
2.0	16.800844343169047	pulse	0.0	t		54.0	female	white	2.286908077994429	neutral	136	sub-14	2.0	3.0	136_neutral	0.0		44.60702333414065	
2.0	17.250729352274448	fix	1.0		444	54.0	female	white	2.286908077994429	neutral	136	sub-14	2.0	3.0	136_neutral	0.0		45.05690834324605	3.758211834991471
2.0	17.500832057752632	pulse	1.0	t		54.0	female	white	2.286908077994429	neutral	136	sub-14	2.0	3.0	136_neutral	0.0		45.307011048724235	
2.0	18.20081222601175	pulse	1.0	t		54.0	female	white	2.286908077994429	neutral	136	sub-14	2.0	3.0	136_neutral	0.0		46.00699121698335	
2.0	18.90079601650632	pulse	1.0	t		54.0	female	white	2.286908077994429	neutral	136	sub-14	2.0	3.0	136_neutral	0.0		46.70697500747792	
2.0	19.600785844060738	pulse	1.0	t		54.0	female	white	2.286908077994429	neutral	136	sub-14	2.0	3.0	136_neutral	0.0		47.40696483503234	
2.0	20.30075122152357	pulse	1.0	t		54.0	female	white	2.286908077994429	neutral	136	sub-14	2.0	3.0	136_neutral	0.0		48.10693021249517	
3.0	21.00894118726592	face	0.0		147	19.0	male	white	2.243931555909272	smiling	130	sub-14	2.0	3.0	130_smiling	0.0		48.81512017823752	1.2416299940446152
3.0	21.001900768245832	pulse	0.0	t		19.0	male	white	2.243931555909272	smiling	130	sub-14	2.0	3.0	130_smiling	0.0		48.808079759217435	
3.0	21.700706124687258	pulse	0.0	t		19.0	male	white	2.243931555909272	smiling	130	sub-14	2.0	3.0	130_smiling	0.0		49.50688511565886	
3.0	22.250571181310534	fix	1.0		443	19.0	male	white	2.243931555909272	smiling	130	sub-14	2.0	3.0	130_smiling	0.0		50.056750172282136	3.7582396054658602
3.0	22.400679048474558	pulse	1.0	t		19.0	male	white	2.243931555909272	smiling	130	sub-14	2.0	3.0	130_smiling	0.0		50.20685803944616	
3.0	23.100673705676854	pulse	1.0	t		19.0	male	white	2.243931555909272	smiling	130	sub-14	2.0	3.0	130_smiling	0.0		50.90685269664846	
3.0	23.80067107955574	pulse	1.0	t		19.0	male	white	2.243931555909272	smiling	130	sub-14	2.0	3.0	130_smiling	0.0		51.606850070527344	
3.0	24.50066151081637	pulse	1.0	t		19.0	male	white	2.243931555909272	smiling	130	sub-14	2.0	3.0	130_smiling	0.0		52.306840501787974	
3.0	25.200622964190188	pulse	1.0	t		19.0	male	white	2.243931555909272	smiling	130	sub-14	2.0	3.0	130_smiling	0.0		53.00680195516179	
3.0	25.9006028305962	pulse	1.0	t		19.0	male	white	2.243931555909272	smiling	130	sub-14	2.0	3.0	130_smiling	0.0		53.7067818215678	
4.0	26.008810786776394	face	0.0		147	26.0	female	white	4.854755272582572	neutral	027	sub-14	2.0	3.0	027_neutral	0.0		53.814989777747996	1.241647803370597
4.0	26.60059024332668	pulse	0.0	t		26.0	female	white	4.854755272582572	neutral	027	sub-14	2.0	3.0	027_neutral	0.0		54.40676923429828	
4.0	27.25045859014699	fix	1.0		443	26.0	female	white	4.854755272582572	neutral	027	sub-14	2.0	3.0	027_neutral	0.0		55.05663758111859	3.766551429258925
4.0	27.300567091202538	pulse	1.0	t		26.0	female	white	4.854755272582572	neutral	027	sub-14	2.0	3.0	027_neutral	0.0		55.10674608217414	
4.0	28.000549976138245	pulse	1.0	t		26.0	female	white	4.854755272582572	neutral	027	sub-14	2.0	3.0	027_neutral	0.0		55.80672896710985	
4.0	28.700527729573423	pulse	1.0	t		26.0	female	white	4.854755272582572	neutral	027	sub-14	2.0	3.0	027_neutral	0.0		56.506706720545026	
4.0	29.40050819968519	pulse	1.0	t		26.0	female	white	4.854755272582572	neutral	027	sub-14	2.0	3.0	027_neutral	0.0		57.206687190656794	
4.0	30.100503460593245	pulse	1.0	t		26.0	female	white	4.854755272582572	neutral	027	sub-14	2.0	3.0	027_neutral	0.0		57.90668245156485	
4.0	30.800472460291985	pulse	1.0	t		26.0	female	white	4.854755272582572	neutral	027	sub-14	2.0	3.0	027_neutral	0.0		58.60665145126359	
5.0	31.017010019405916	face	0.0		145	22.0	female	west_asian	3.8205332272184642	smiling	066	sub-14	2.0	3.0	066_smiling	0.0		58.82318901037752	1.2333166609869295
5.0	31.50045836375739	pulse	0.0	t		22.0	female	west_asian	3.8205332272184642	smiling	066	sub-14	2.0	3.0	066_smiling	0.0		59.30663735472899	
5.0	32.20043581533946	pulse	0.0	t		22.0	female	west_asian	3.8205332272184642	smiling	066	sub-14	2.0	3.0	066_smiling	0.0		60.00661480631106	
5.0	32.250326680392845	fix	1.0		445	22.0	female	west_asian	3.8205332272184642	smiling	066	sub-14	2.0	3.0	066_smiling	0.0		60.05650567136445	3.758351894776297
5.0	32.90042020954024	pulse	1.0	t		22.0	female	west_asian	3.8205332272184642	smiling	066	sub-14	2.0	3.0	066_smiling	0.0		60.706599200511846	
5.0	33.60041154635928	pulse	1.0	t		22.0	female	west_asian	3.8205332272184642	smiling	066	sub-14	2.0	3.0	066_smiling	0.0		61.406590537330885	
5.0	34.30037994235181	pulse	1.0	t		22.0	female	west_asian	3.8205332272184642	smiling	066	sub-14	2.0	3.0	066_smiling	0.0		62.10655893332341	
5.0	35.000359205052064	pulse	1.0	t		22.0	female	west_asian	3.8205332272184642	smiling	066	sub-14	2.0	3.0	066_smiling	0.0		62.806538196023666	
5.0	35.700340580722695	pulse	1.0	t		22.0	female	west_asian	3.8205332272184642	smiling	066	sub-14	2.0	3.0	066_smiling	0.0		63.5065195716943	
6.0	36.00867857516914	face	0.0		146	26.0	female	white	4.854755272582572	smiling	027	sub-14	2.0	3.0	027_smiling	0.0		63.814857566140745	1.2415152899102395
6.0	36.40033071013022	pulse	0.0	t		26.0	female	white	4.854755272582572	smiling	027	sub-14	2.0	3.0	027_smiling	0.0		64.20650970110182	
6.0	37.10030453947638	pulse	0.0	t		26.0	female	white	4.854755272582572	smiling	027	sub-14	2.0	3.0	027_smiling	0.0		64.90648353044799	
6.0	37.25019386507938	fix	1.0		444	26.0	female	white	4.854755272582572	smiling	027	sub-14	2.0	3.0	027_smiling	0.0		65.05637285605098	3.766550523699607
6.0	37.80030191335527	pulse	1.0	t		26.0	female	white	4.854755272582572	smiling	027	sub-14	2.0	3.0	027_smiling	0.0		65.60648090432687	
6.0	38.50026366858219	pulse	1.0	t		26.0	female	white	4.854755272582572	smiling	027	sub-14	2.0	3.0	027_smiling	0.0		66.3064426595538	
6.0	39.20021395339563	pulse	1.0	t		26.0	female	white	4.854755272582572	smiling	027	sub-14	2.0	3.0	027_smiling	0.0		67.00639294436724	
6.0	39.90021736433437	pulse	1.0	t		26.0	female	white	4.854755272582572	smiling	027	sub-14	2.0	3.0	027_smiling	0.0		67.70639635530597	
6.0	40.60021051227159	pulse	1.0	t		26.0	female	white	4.854755272582572	smiling	027	sub-14	2.0	3.0	027_smiling	0.0		68.40638950324319	
7.0	41.01674438877899	face	0.0		145	36.0	female	white	2.7548746518105847	neutral	011	sub-14	2.0	3.0	011_neutral	0.0		68.82292337975059	1.2333166609869295
7.0	41.300196113883885	pulse	0.0	t		36.0	female	white	2.7548746518105847	neutral	011	sub-14	2.0	3.0	011_neutral	0.0		69.10637510485549	
7.0	42.0001699432305	pulse	0.0	t		36.0	female	white	2.7548746518105847	neutral	011	sub-14	2.0	3.0	011_neutral	0.0		69.8063489342021	
7.0	42.25006104976592	fix	1.0		444	36.0	female	white	2.7548746518105847	neutral	011	sub-14	2.0	3.0	011_neutral	0.0		70.05624004073752	3.7665502218469555
7.0	42.70015856337295	pulse	1.0	t		36.0	female	white	2.7548746518105847	neutral	011	sub-14	2.0	3.0	011_neutral	0.0		70.50633755434455	
7.0	43.40013299642487	pulse	1.0	t		36.0	female	white	2.7548746518105847	neutral	011	sub-14	2.0	3.0	011_neutral	0.0		71.20631198739648	
7.0	44.10011920174338	pulse	1.0	t		36.0	female	white	2.7548746518105847	neutral	011	sub-14	2.0	3.0	011_neutral	0.0		71.90629819271498	
7.0	44.8001090292978	pulse	1.0	t		36.0	female	white	2.7548746518105847	neutral	011	sub-14	2.0	3.0	011_neutral	0.0		72.6062880202694	
7.0	45.50008134937934	pulse	1.0	t		36.0	female	white	2.7548746518105847	neutral	011	sub-14	2.0	3.0	011_neutral	0.0		73.30626034035095	
8.0	46.016611271612874	face	0.0		145	27.0	female	white	4.181058495821727	smiling	039	sub-14	2.0	3.0	039_smiling	0.0		73.82279026258448	1.2333145480160965
8.0	46.20006936581558	pulse	0.0	t		27.0	female	white	4.181058495821727	smiling	039	sub-14	2.0	3.0	039_smiling	0.0		74.00624835678718	
8.0	46.90004168589712	pulse	0.0	t		27.0	female	white	4.181058495821727	smiling	039	sub-14	2.0	3.0	039_smiling	0.0		74.70622067686872	
8.0	47.24992581962897	fix	1.0		444	27.0	female	white	4.181058495821727	smiling	039	sub-14	2.0	3.0	039_smiling	0.0		75.05610481060057	3.766557164465212
8.0	47.60002970233336	pulse	1.0	t		27.0	female	white	4.181058495821727	smiling	039	sub-14	2.0	3.0	039_smiling	0.0		75.40620869330496	
8.0	48.29999960759096	pulse	1.0	t		27.0	female	white	4.181058495821727	smiling	039	sub-14	2.0	3.0	039_smiling	0.0		76.10617859856256	
8.0	48.999985209203714	pulse	1.0	t		27.0	female	white	4.181058495821727	smiling	039	sub-14	2.0	3.0	039_smiling	0.0		76.80616420017532	
8.0	49.69996960340404	pulse	1.0	t		27.0	female	white	4.181058495821727	smiling	039	sub-14	2.0	3.0	039_smiling	0.0		77.50614859437565	
8.0	50.39994946981005	pulse	1.0	t		27.0	female	white	4.181058495821727	smiling	039	sub-14	2.0	3.0	039_smiling	0.0		78.20612846078166	
9.0	51.01648298409418	face	0.0		145	20.0	male	black	2.609629924393156	neutral	043	sub-14	2.0	3.0	043_neutral	0.0		78.82266197506578	1.2333166609869295
9.0	51.09995137148371	pulse	0.0	t		20.0	male	black	2.609629924393156	neutral	043	sub-14	2.0	3.0	043_neutral	0.0		78.90613036245531	
9.0	51.79991463597571	pulse	0.0	t		20.0	male	black	2.609629924393156	neutral	043	sub-14	2.0	3.0	043_neutral	0.0		79.60609362694731	
9.0	52.24979964508111	fix	1.0		444	20.0	male	black	2.609629924393156	neutral	043	sub-14	2.0	3.0	043_neutral	0.0		80.05597863605271	3.7665408644043055
9.0	52.49989872832339	pulse	1.0	t		20.0	male	black	2.609629924393156	neutral	043	sub-14	2.0	3.0	043_neutral	0.0		80.30607771929499	
9.0	53.199874066934626	pulse	1.0	t		20.0	male	black	2.609629924393156	neutral	043	sub-14	2.0	3.0	043_neutral	0.0		81.00605305790623	
9.0	53.899867818577604	pulse	1.0	t		20.0	male	black	2.609629924393156	neutral	043	sub-14	2.0	3.0	043_neutral	0.0		81.7060468095492	
9.0	54.5998404405118	pulse	1.0	t		20.0	male	black	2.609629924393156	neutral	043	sub-14	2.0	3.0	043_neutral	0.0		82.4060194314834	
9.0	55.29982241988864	pulse	1.0	t		20.0	male	black	2.609629924393156	neutral	043	sub-14	2.0	3.0	043_neutral	0.0		83.10600141086024	
10.0	56.01634050948542	face	0.0		146	26.0	male	white	2.7966573816155993	neutral	117	sub-14	2.0	3.0	117_neutral	0.0		83.82251950045702	1.2333341684598054
10.0	56.002610122760416	pulse	0.0	t		26.0	male	white	2.7966573816155993	neutral	117	sub-14	2.0	3.0	117_neutral	0.0		83.80878911373202	
10.0	56.69977128599294	pulse	0.0	t		26.0	male	white	2.7966573816155993	neutral	117	sub-14	2.0	3.0	117_neutral	0.0		84.50595027696454	
10.0	57.24967467794522	fix	1.0		443	26.0	male	white	2.7966573816155993	neutral	117	sub-14	2.0	3.0	117_neutral	0.0		85.05585366891682	3.766537544021503
10.0	57.39977469693167	pulse	1.0	t		26.0	male	white	2.7966573816155993	neutral	117	sub-14	2.0	3.0	117_neutral	0.0		85.20595368790327	
10.0	58.09974369663041	pulse	1.0	t		26.0	male	white	2.7966573816155993	neutral	117	sub-14	2.0	3.0	117_neutral	0.0		85.90592268760201	
10.0	58.79973050565468	pulse	1.0	t		26.0	male	white	2.7966573816155993	neutral	117	sub-14	2.0	3.0	117_neutral	0.0		86.60590949662628	
10.0	59.49970976835493	pulse	1.0	t		26.0	male	white	2.7966573816155993	neutral	117	sub-14	2.0	3.0	117_neutral	0.0		87.30588875932654	
10.0	60.19969476626147	pulse	1.0	t		26.0	male	white	2.7966573816155993	neutral	117	sub-14	2.0	3.0	117_neutral	0.0		88.00587375723308	
10.0	60.899683084550816	pulse	1.0	t		26.0	male	white	2.7966573816155993	neutral	117	sub-14	2.0	3.0	117_neutral	0.0		88.70586207552242	
11.0	61.016212221966725	face	0.0		146	30.0	female	black	2.7345801830481498	smiling	062	sub-14	2.0	3.0	062_smiling	0.0		88.82239121293833	1.2333169628400356
11.0	61.59965872501516	pulse	0.0	t		30.0	female	black	2.7345801830481498	smiling	062	sub-14	2.0	3.0	062_smiling	0.0		89.40583771598676	
11.0	62.24952918480676	fix	1.0		443	30.0	female	black	2.7345801830481498	smiling	062	sub-14	2.0	3.0	062_smiling	0.0		90.05570817577836	3.766534525491352
11.0	62.29963436547905	pulse	1.0	t		30.0	female	black	2.7345801830481498	smiling	062	sub-14	2.0	3.0	062_smiling	0.0		90.10581335645065	
11.0	62.999610005943396	pulse	1.0	t		30.0	female	black	2.7345801830481498	smiling	062	sub-14	2.0	3.0	062_smiling	0.0		90.805788996915	
11.0	63.699596211261905	pulse	1.0	t		30.0	female	black	2.7345801830481498	smiling	062	sub-14	2.0	3.0	062_smiling	0.0		91.50577520223351	
11.0	64.39957939805072	pulse	1.0	t		30.0	female	black	2.7345801830481498	smiling	062	sub-14	2.0	3.0	062_smiling	0.0		92.20575838902232	
11.0	65.09956137742756	pulse	1.0	t		30.0	female	black	2.7345801830481498	smiling	062	sub-14	2.0	3.0	062_smiling	0.0		92.90574036839917	
11.0	65.79953913086229	pulse	1.0	t		30.0	female	black	2.7345801830481498	smiling	062	sub-14	2.0	3.0	062_smiling	0.0		93.60571812183389	
12.0	66.01606371029811	face	0.0		145	22.0	female	white	4.614007162753682	neutral	009	sub-14	2.0	3.0	009_neutral	0.0		93.82224270126972	1.233333564754048
12.0	66.49952503432814	pulse	0.0	t		22.0	female	white	4.614007162753682	neutral	009	sub-14	2.0	3.0	009_neutral	0.0		94.30570402529975	
12.0	67.19950610814567	pulse	0.0	t		22.0	female	white	4.614007162753682	neutral	009	sub-14	2.0	3.0	009_neutral	0.0		95.00568509911727	
12.0	67.24939727505216	fix	1.0		445	22.0	female	white	4.614007162753682	neutral	009	sub-14	2.0	3.0	009_neutral	0.0		95.05557626602376	3.76654871258188
12.0	67.89949895423024	pulse	1.0	t		22.0	female	white	4.614007162753682	neutral	009	sub-14	2.0	3.0	009_neutral	0.0		95.70567794520184	
12.0	68.5994694631936	pulse	1.0	t		22.0	female	white	4.614007162753682	neutral	009	sub-14	2.0	3.0	009_neutral	0.0		96.4056484541652	
12.0	69.29944449995173	pulse	1.0	t		22.0	female	white	4.614007162753682	neutral	009	sub-14	2.0	3.0	009_neutral	0.0		97.10562349092334	
12.0	69.99942617747547	pulse	1.0	t		22.0	female	white	4.614007162753682	neutral	009	sub-14	2.0	3.0	009_neutral	0.0		97.80560516844707	
12.0	70.69941238279398	pulse	1.0	t		22.0	female	white	4.614007162753682	neutral	009	sub-14	2.0	3.0	009_neutral	0.0		98.50559137376558	
13.0	71.01594598763404	face	0.0		145	19.0	male	white	3.2522881018702745	smiling	018	sub-14	2.0	3.0	018_smiling	0.0		98.82212497860564	1.2333169628400356
13.0	71.39939496587704	pulse	0.0	t		19.0	male	white	3.2522881018702745	smiling	018	sub-14	2.0	3.0	018_smiling	0.0		99.20557395684864	
13.0	72.09937000263517	pulse	0.0	t		19.0	male	white	3.2522881018702745	smiling	018	sub-14	2.0	3.0	018_smiling	0.0		99.90554899360677	
13.0	72.24926295047408	fix	1.0		444	19.0	male	white	3.2522881018702745	smiling	018	sub-14	2.0	3.0	018_smiling	0.0		100.05544194144568	3.7582085146082136
13.0	72.79934654865792	pulse	1.0	t		19.0	male	white	3.2522881018702745	smiling	018	sub-14	2.0	3.0	018_smiling	0.0		100.60552553962953	
13.0	73.49930619091401	pulse	1.0	t		19.0	male	white	3.2522881018702745	smiling	018	sub-14	2.0	3.0	018_smiling	0.0		101.30548518188562	
13.0	74.19934280568123	pulse	1.0	t		19.0	male	white	3.2522881018702745	smiling	018	sub-14	2.0	3.0	018_smiling	0.0		102.00552179665283	
13.0	74.89929761828898	pulse	1.0	t		19.0	male	white	3.2522881018702745	smiling	018	sub-14	2.0	3.0	018_smiling	0.0		102.70547660926059	
13.0	75.5992874458434	pulse	1.0	t		19.0	male	white	3.2522881018702745	smiling	018	sub-14	2.0	3.0	018_smiling	0.0		103.405466436815	
14.0	76.00747146508229	face	0.0		146	21.0	male	black	2.969757262236371	neutral	137	sub-14	2.0	3.0	137_neutral	0.0		103.81365045605389	1.241656858960141
14.0	76.29926429371972	pulse	0.0	t		21.0	male	black	2.969757262236371	neutral	137	sub-14	2.0	3.0	137_neutral	0.0		104.10544328469132	
14.0	76.99924265086065	pulse	0.0	t		21.0	male	black	2.969757262236371	neutral	137	sub-14	2.0	3.0	137_neutral	0.0		104.80542164183225	
14.0	77.24912832404243	fix	1.0		445	21.0	male	black	2.969757262236371	neutral	137	sub-14	2.0	3.0	137_neutral	0.0		105.05530731501403	3.7748843827607743
14.0	77.6992282524734	pulse	1.0	t		21.0	male	black	2.969757262236371	neutral	137	sub-14	2.0	3.0	137_neutral	0.0		105.505407243445	
14.0	78.39920027070139	pulse	1.0	t		21.0	male	black	2.969757262236371	neutral	137	sub-14	2.0	3.0	137_neutral	0.0		106.20537926167299	
14.0	79.09918858899118	pulse	1.0	t		21.0	male	black	2.969757262236371	neutral	137	sub-14	2.0	3.0	137_neutral	0.0		106.90536757996279	
14.0	79.79916332389621	pulse	1.0	t		21.0	male	black	2.969757262236371	neutral	137	sub-14	2.0	3.0	137_neutral	0.0		107.60534231486781	
14.0	80.49916281074593	pulse	1.0	t		21.0	male	black	2.969757262236371	neutral	137	sub-14	2.0	3.0	137_neutral	0.0		108.30534180171753	
15.0	81.0240127068032	face	0.0		145	32.0	male	white	2.389176283326701	neutral	092	sub-14	2.0	3.0	092_neutral	0.0		108.83019169777481	1.233317566545793
15.0	81.19913754565141	pulse	0.0	t		32.0	male	white	2.389176283326701	neutral	092	sub-14	2.0	3.0	092_neutral	0.0		109.00531653662301	
15.0	81.89912133614598	pulse	0.0	t		32.0	male	white	2.389176283326701	neutral	092	sub-14	2.0	3.0	092_neutral	0.0		109.70530032711758	
15.0	82.257330273349	fix	1.0		444	32.0	male	white	2.389176283326701	neutral	092	sub-14	2.0	3.0	092_neutral	0.0		110.0635092643206	3.7665499199938495
15.0	82.59909607105101	pulse	1.0	t		32.0	male	white	2.389176283326701	neutral	092	sub-14	2.0	3.0	092_neutral	0.0		110.40527506202261	
15.0	83.29908469119346	pulse	1.0	t		32.0	male	white	2.389176283326701	neutral	092	sub-14	2.0	3.0	092_neutral	0.0		111.10526368216506	
15.0	83.9990600298047	pulse	1.0	t		32.0	male	white	2.389176283326701	neutral	092	sub-14	2.0	3.0	092_neutral	0.0		111.8052390207763	
15.0	84.69904442400548	pulse	1.0	t		32.0	male	white	2.389176283326701	neutral	092	sub-14	2.0	3.0	092_neutral	0.0		112.50522341497708	
15.0	85.39902097002869	pulse	1.0	t		32.0	male	white	2.389176283326701	neutral	092	sub-14	2.0	3.0	092_neutral	0.0		113.20519996100029	
16.0	86.02388019334285	face	0.0		145	30.0	female	black	2.7345801830481498	neutral	062	sub-14	2.0	3.0	062_neutral	0.0		113.83005918431445	1.2333160572807174
16.0	86.09902468282007	pulse	0.0	t		30.0	female	black	2.7345801830481498	neutral	062	sub-14	2.0	3.0	062_neutral	0.0		113.90520367379168	
16.0	86.79897798616366	pulse	0.0	t		30.0	female	black	2.7345801830481498	neutral	062	sub-14	2.0	3.0	062_neutral	0.0		114.60515697713527	
16.0	87.25719625062356	fix	1.0		444	30.0	female	black	2.7345801830481498	neutral	062	sub-14	2.0	3.0	062_neutral	0.0		115.06337524159517	3.766542373669381
16.0	87.49896721001187	pulse	1.0	t		30.0	female	black	2.7345801830481498	neutral	062	sub-14	2.0	3.0	062_neutral	0.0		115.30514620098347	
16.0	88.1989389263872	pulse	1.0	t		30.0	female	black	2.7345801830481498	neutral	062	sub-14	2.0	3.0	062_neutral	0.0		116.0051179173588	
16.0	88.89892694282389	pulse	1.0	t		30.0	female	black	2.7345801830481498	neutral	062	sub-14	2.0	3.0	062_neutral	0.0		116.7051059337955	
16.0	89.59890831849452	pulse	1.0	t		30.0	female	black	2.7345801830481498	neutral	062	sub-14	2.0	3.0	062_neutral	0.0		117.40508730946613	
16.0	90.29891323869833	pulse	1.0	t		30.0	female	black	2.7345801830481498	neutral	062	sub-14	2.0	3.0	062_neutral	0.0		118.10509222966994	
16.0	90.99887076798314	pulse	1.0	t		30.0	female	black	2.7345801830481498	neutral	062	sub-14	2.0	3.0	062_neutral	0.0		118.80504975895474	
17.0	91.02373862429295	face	0.0		146	31.0	female	east_asian	3.395941106247513	neutral	087	sub-14	2.0	3.0	087_neutral	0.0		118.82991761526455	1.2333257165760187
17.0	91.6988666325974	pulse	0.0	t		31.0	female	east_asian	3.395941106247513	neutral	087	sub-14	2.0	3.0	087_neutral	0.0		119.505045623569	
17.0	92.25706434086896	fix	1.0		443	31.0	female	east_asian	3.395941106247513	neutral	087	sub-14	2.0	3.0	087_neutral	0.0		120.06324333184057	3.766533318079837
17.0	92.39883774526652	pulse	1.0	t		31.0	female	east_asian	3.395941106247513	neutral	087	sub-14	2.0	3.0	087_neutral	0.0		120.20501673623812	
17.0	93.09881610240745	pulse	1.0	t		31.0	female	east_asian	3.395941106247513	neutral	087	sub-14	2.0	3.0	087_neutral	0.0		120.90499509337906	
17.0	93.79879536510771	pulse	1.0	t		31.0	female	east_asian	3.395941106247513	neutral	087	sub-14	2.0	3.0	087_neutral	0.0		121.60497435607931	
17.0	94.49877674077834	pulse	1.0	t		31.0	female	east_asian	3.395941106247513	neutral	087	sub-14	2.0	3.0	087_neutral	0.0		122.30495573174994	
17.0	95.19875509791927	pulse	1.0	t		31.0	female	east_asian	3.395941106247513	neutral	087	sub-14	2.0	3.0	087_neutral	0.0		123.00493408889088	
17.0	95.89873586988415	pulse	1.0	t		31.0	female	east_asian	3.395941106247513	neutral	087	sub-14	2.0	3.0	087_neutral	0.0		123.70491486085575	
18.0	96.0235976589488	face	0.0		146	19.0	male	white	3.2522881018702745	neutral	018	sub-14	2.0	3.0	018_neutral	0.0		123.8297766499204	1.2333347721660175
18.0	96.59872630114478	pulse	0.0	t		19.0	male	white	3.2522881018702745	neutral	018	sub-14	2.0	3.0	018_neutral	0.0		124.40490529211638	
18.0	97.25693243111482	fix	1.0		443	19.0	male	white	3.2522881018702745	neutral	018	sub-14	2.0	3.0	018_neutral	0.0		125.06311142208642	3.766553542229758
18.0	97.29870314902064	pulse	1.0	t		19.0	male	white	3.2522881018702745	neutral	018	sub-14	2.0	3.0	018_neutral	0.0		125.10488213999224	
18.0	97.99868452469173	pulse	1.0	t		19.0	male	white	3.2522881018702745	neutral	018	sub-14	2.0	3.0	018_neutral	0.0		125.80486351566333	
18.0	98.69867435224614	pulse	1.0	t		19.0	male	white	3.2522881018702745	neutral	018	sub-14	2.0	3.0	018_neutral	0.0		126.50485334321775	
18.0	99.39865059641625	pulse	1.0	t		19.0	male	white	3.2522881018702745	neutral	018	sub-14	2.0	3.0	018_neutral	0.0		127.20482958738785	
18.0	100.09862593502703	pulse	1.0	t		19.0	male	white	3.2522881018702745	neutral	018	sub-14	2.0	3.0	018_neutral	0.0		127.90480492599863	
18.0	100.79861214034554	pulse	1.0	t		19.0	male	white	3.2522881018702745	neutral	018	sub-14	2.0	3.0	018_neutral	0.0		128.60479113131714	
19.0	101.02348597334458	face	0.0		145	20.0	male	black	3.1070433744528456	neutral	082	sub-14	2.0	3.0	082_neutral	0.0		128.82966496431618	1.233310623927082
19.0	101.49859623269322	pulse	0.0	t		20.0	male	black	3.1070433744528456	neutral	082	sub-14	2.0	3.0	082_neutral	0.0		129.30477522366482	
19.0	102.19857519354036	pulse	0.0	t		20.0	male	black	3.1070433744528456	neutral	082	sub-14	2.0	3.0	082_neutral	0.0		130.00475418451197	
19.0	102.25679659727166	fix	1.0		444	20.0	male	black	3.1070433744528456	neutral	082	sub-14	2.0	3.0	082_neutral	0.0		130.06297558824326	3.7665360347564274
19.0	102.89855838032918	pulse	1.0	t		20.0	male	black	3.1070433744528456	neutral	082	sub-14	2.0	3.0	082_neutral	0.0		130.70473737130078	
19.0	103.59853462449928	pulse	1.0	t		20.0	male	black	3.1070433744528456	neutral	082	sub-14	2.0	3.0	082_neutral	0.0		131.40471361547088	
19.0	104.29851328349332	pulse	1.0	t		20.0	male	black	3.1070433744528456	neutral	082	sub-14	2.0	3.0	082_neutral	0.0		132.10469227446492	
19.0	104.99849496101706	pulse	1.0	t		20.0	male	black	3.1070433744528456	neutral	082	sub-14	2.0	3.0	082_neutral	0.0		132.80467395198866	
19.0	105.69848056262981	pulse	1.0	t		20.0	male	black	3.1070433744528456	neutral	082	sub-14	2.0	3.0	082_neutral	0.0		133.5046595536014	
20.0	106.02333263202809	face	0.0		145	21.0	male	east_asian/white	3.501790688420215	smiling	036	sub-14	2.0	3.0	036_smiling	0.0		133.8295116229997	1.233331149930109
20.0	106.39846374941817	pulse	0.0	t		21.0	male	east_asian/white	3.501790688420215	smiling	036	sub-14	2.0	3.0	036_smiling	0.0		134.20464274038977	
20.0	107.0984475399132	pulse	0.0	t		21.0	male	east_asian/white	3.501790688420215	smiling	036	sub-14	2.0	3.0	036_smiling	0.0		134.9046265308848	
20.0	107.2566637819582	fix	1.0		1185	21.0	male	east_asian/white	3.501790688420215	smiling	036	sub-14	2.0	3.0	036_smiling	0.0		135.0628427729298	10.016390617081015
20.0	107.7984023525214	pulse	1.0	t		21.0	male	east_asian/white	3.501790688420215	smiling	036	sub-14	2.0	3.0	036_smiling	0.0		135.604581343493	
20.0	108.4984033486362	pulse	1.0	t		21.0	male	east_asian/white	3.501790688420215	smiling	036	sub-14	2.0	3.0	036_smiling	0.0		136.3045823396078	
20.0	109.19838744098388	pulse	1.0	t		21.0	male	east_asian/white	3.501790688420215	smiling	036	sub-14	2.0	3.0	036_smiling	0.0		137.00456643195548	
20.0	109.89836428885974	pulse	1.0	t		21.0	male	east_asian/white	3.501790688420215	smiling	036	sub-14	2.0	3.0	036_smiling	0.0		137.70454327983134	
20.0	110.598381886889	pulse	1.0	t		21.0	male	east_asian/white	3.501790688420215	smiling	036	sub-14	2.0	3.0	036_smiling	0.0		138.4045608778606	
20.0	111.298336095791	pulse	1.0	t		21.0	male	east_asian/white	3.501790688420215	smiling	036	sub-14	2.0	3.0	036_smiling	0.0		139.1045150867626	
20.0	111.99830509548929	pulse	1.0	t		21.0	male	east_asian/white	3.501790688420215	smiling	036	sub-14	2.0	3.0	036_smiling	0.0		139.8044840864609	
20.0	112.69829130080825	pulse	1.0	t		21.0	male	east_asian/white	3.501790688420215	smiling	036	sub-14	2.0	3.0	036_smiling	0.0		140.50447029177985	
20.0	113.39827871353873	pulse	1.0	t		21.0	male	east_asian/white	3.501790688420215	smiling	036	sub-14	2.0	3.0	036_smiling	0.0		141.20445770451033	
20.0	114.09825344844376	pulse	1.0	t		21.0	male	east_asian/white	3.501790688420215	smiling	036	sub-14	2.0	3.0	036_smiling	0.0		141.90443243941536	
20.0	114.79823965376227	pulse	1.0	t		21.0	male	east_asian/white	3.501790688420215	smiling	036	sub-14	2.0	3.0	036_smiling	0.0		142.60441864473387	
20.0	115.49821861460941	pulse	1.0	t		21.0	male	east_asian/white	3.501790688420215	smiling	036	sub-14	2.0	3.0	036_smiling	0.0		143.30439760558102	
20.0	116.19820361251595	pulse	1.0	t		21.0	male	east_asian/white	3.501790688420215	smiling	036	sub-14	2.0	3.0	036_smiling	0.0		144.00438260348756	
20.0	116.89817955483295	pulse	1.0	t		21.0	male	east_asian/white	3.501790688420215	smiling	036	sub-14	2.0	3.0	036_smiling	0.0		144.70435854580455	
21.0	117.27305439903921	face	0.0		145	19.0	male	white	2.243931555909272	neutral	130	sub-14	2.0	3.0	130_neutral	0.0		145.0792333900108	1.2333097183682185
21.0	117.5981651564457	pulse	0.0	t		19.0	male	white	2.243931555909272	neutral	130	sub-14	2.0	3.0	130_neutral	0.0		145.4043441474173	
21.0	118.29813868393876	pulse	0.0	t		19.0	male	white	2.243931555909272	neutral	130	sub-14	2.0	3.0	130_neutral	0.0		146.10431767491036	
21.0	118.50636411740743	fix	1.0		444	19.0	male	white	2.243931555909272	neutral	130	sub-14	2.0	3.0	130_neutral	0.0		146.31254310837903	3.75835400774713
21.0	118.99813183187598	pulse	1.0	t		19.0	male	white	2.243931555909272	neutral	130	sub-14	2.0	3.0	130_neutral	0.0		146.80431082284758	
21.0	119.69810747234033	pulse	1.0	t		19.0	male	white	2.243931555909272	neutral	130	sub-14	2.0	3.0	130_neutral	0.0		147.50428646331193	
21.0	120.39807586833285	pulse	1.0	t		19.0	male	white	2.243931555909272	neutral	130	sub-14	2.0	3.0	130_neutral	0.0		148.20425485930446	
21.0	121.09808712744916	pulse	1.0	t		19.0	male	white	2.243931555909272	neutral	130	sub-14	2.0	3.0	130_neutral	0.0		148.90426611842076	
21.0	121.79804888267608	pulse	1.0	t		19.0	male	white	2.243931555909272	neutral	130	sub-14	2.0	3.0	130_neutral	0.0		149.6042278736477	
22.0	122.26471812515456	face	0.0		146	20.0	female	white	3.9502586549940313	neutral	091	sub-14	2.0	3.0	091_neutral	1.0	attractiveness	150.07089711612616	1.241511667674331
22.0	122.49803659725922	pulse	0.0	t		20.0	female	white	3.9502586549940313	neutral	091	sub-14	2.0	3.0	091_neutral	1.0	attractiveness	150.30421558823082	
22.0	123.19801072845848	pulse	0.0	t		20.0	female	white	3.9502586549940313	neutral	091	sub-14	2.0	3.0	091_neutral	1.0	attractiveness	151.0041897194301	
22.0	123.50622979282889	fix	1.0		177	20.0	female	white	3.9502586549940313	neutral	091	sub-14	2.0	3.0	091_neutral	1.0	attractiveness	151.3124087838005	1.5083288784867364
22.0	123.89799542451237	pulse	1.0	t		20.0	female	white	3.9502586549940313	neutral	091	sub-14	2.0	3.0	091_neutral	1.0	attractiveness	151.70417441548398	
22.0	124.59793906855975	pulse	1.0	t		20.0	female	white	3.9502586549940313	neutral	091	sub-14	2.0	3.0	091_neutral	1.0	attractiveness	152.40411805953136	
22.0	125.01455867131563	rating	2.0		293	20.0	female	white	3.9502586549940313	neutral	091	sub-14	2.0	3.0	091_neutral	1.0	attractiveness	152.82073766228723	2.4915645674095686
22.0	125.29795545917705	pulse	2.0	t		20.0	female	white	3.9502586549940313	neutral	091	sub-14	2.0	3.0	091_neutral	1.0	attractiveness	153.10413445014865	
22.0	125.99794377746639	pulse	2.0	t		20.0	female	white	3.9502586549940313	neutral	091	sub-14	2.0	3.0	091_neutral	1.0	attractiveness	153.804122768438	
22.0	126.30105398006708	response	2.0	b		20.0	female	white	3.9502586549940313	neutral	091	sub-14	2.0	3.0	091_neutral	1.0	attractiveness	154.10723297103868	
22.0	126.69791277716513	pulse	2.0	t		20.0	female	white	3.9502586549940313	neutral	091	sub-14	2.0	3.0	091_neutral	1.0	attractiveness	154.50409176813673	
22.0	127.39789717136546	pulse	2.0	t		20.0	female	white	3.9502586549940313	neutral	091	sub-14	2.0	3.0	091_neutral	1.0	attractiveness	155.20407616233706	
22.0	127.5061232387252	fix	3.0		444	20.0	female	white	3.9502586549940313	neutral	091	sub-14	2.0	3.0	091_neutral	1.0	attractiveness	155.3123022296968	3.766538449580821
22.0	128.09791386383586	pulse	3.0	t		20.0	female	white	3.9502586549940313	neutral	091	sub-14	2.0	3.0	091_neutral	1.0	attractiveness	155.90409285480746	
22.0	128.797867167179	pulse	3.0	t		20.0	female	white	3.9502586549940313	neutral	091	sub-14	2.0	3.0	091_neutral	1.0	attractiveness	156.6040461581506	
22.0	129.49784069467205	pulse	3.0	t		20.0	female	white	3.9502586549940313	neutral	091	sub-14	2.0	3.0	091_neutral	1.0	attractiveness	157.30401968564365	
22.0	130.19782840925564	pulse	3.0	t		20.0	female	white	3.9502586549940313	neutral	091	sub-14	2.0	3.0	091_neutral	1.0	attractiveness	158.00400740022724	
22.0	130.89780646454392	pulse	3.0	t		20.0	female	white	3.9502586549940313	neutral	091	sub-14	2.0	3.0	091_neutral	1.0	attractiveness	158.70398545551552	
23.0	131.27266168830602	face	0.0		145	31.0	female	west_asian	2.364902506963788	smiling	006	sub-14	2.0	3.0	006_smiling	0.0		159.07884067927762	1.2333320554889724
23.0	131.59780746065871	pulse	0.0	t		31.0	female	west_asian	2.364902506963788	smiling	006	sub-14	2.0	3.0	006_smiling	0.0		159.40398645163032	
23.0	132.29776921588518	pulse	0.0	t		31.0	female	west_asian	2.364902506963788	smiling	006	sub-14	2.0	3.0	006_smiling	0.0		160.10394820685678	
23.0	132.505993743795	fix	1.0		444	31.0	female	west_asian	2.364902506963788	smiling	006	sub-14	2.0	3.0	006_smiling	0.0		160.3121727347666	3.7581994590191243
23.0	132.99775783602763	pulse	1.0	t		31.0	female	west_asian	2.364902506963788	smiling	006	sub-14	2.0	3.0	006_smiling	0.0		160.80393682699923	
23.0	133.69773408019773	pulse	1.0	t		31.0	female	west_asian	2.364902506963788	smiling	006	sub-14	2.0	3.0	006_smiling	0.0		161.50391307116934	
23.0	134.3977148521626	pulse	1.0	t		31.0	female	west_asian	2.364902506963788	smiling	006	sub-14	2.0	3.0	006_smiling	0.0		162.2038938431342	
23.0	135.09769471856862	pulse	1.0	t		31.0	female	west_asian	2.364902506963788	smiling	006	sub-14	2.0	3.0	006_smiling	0.0		162.90387370954022	
23.0	135.79767367941577	pulse	1.0	t		31.0	female	west_asian	2.364902506963788	smiling	006	sub-14	2.0	3.0	006_smiling	0.0		163.60385267038737	
24.0	136.2641932028141	face	0.0		146	20.0	male	black	2.609629924393156	smiling	043	sub-14	2.0	3.0	043_smiling	0.0		164.07037219378572	1.241665612696579
24.0	136.49766441252905	pulse	0.0	t		20.0	male	black	2.609629924393156	smiling	043	sub-14	2.0	3.0	043_smiling	0.0		164.30384340350065	
24.0	137.19764427893506	pulse	0.0	t		20.0	male	black	2.609629924393156	smiling	043	sub-14	2.0	3.0	043_smiling	0.0		165.00382326990666	
24.0	137.5058588155107	fix	1.0		444	20.0	male	black	2.609629924393156	smiling	043	sub-14	2.0	3.0	043_smiling	0.0		165.3120378064823	3.7665453921990775
24.0	137.89762716387077	pulse	1.0	t		20.0	male	black	2.609629924393156	smiling	043	sub-14	2.0	3.0	043_smiling	0.0		165.70380615484237	
24.0	138.5976058228648	pulse	1.0	t		20.0	male	black	2.609629924393156	smiling	043	sub-14	2.0	3.0	043_smiling	0.0		166.4037848138364	
24.0	139.29758297259377	pulse	1.0	t		20.0	male	black	2.609629924393156	smiling	043	sub-14	2.0	3.0	043_smiling	0.0		167.10376196356538	
24.0	139.99756827235342	pulse	1.0	t		20.0	male	black	2.609629924393156	smiling	043	sub-14	2.0	3.0	043_smiling	0.0		167.80374726332502	
24.0	140.69754300725845	pulse	1.0	t		20.0	male	black	2.609629924393156	smiling	043	sub-14	2.0	3.0	043_smiling	0.0		168.50372199823005	
25.0	141.27240420770977	face	0.0		145	28.0	male	white	3.9076800636689217	neutral	033	sub-14	2.0	3.0	033_neutral	1.0	attractiveness	169.07858319868137	1.2333223961932163
25.0	141.3975500404331	pulse	0.0	t		28.0	male	white	3.9076800636689217	neutral	033	sub-14	2.0	3.0	033_neutral	1.0	attractiveness	169.2037290314047	
25.0	142.0974960993044	pulse	0.0	t		28.0	male	white	3.9076800636689217	neutral	033	sub-14	2.0	3.0	033_neutral	1.0	attractiveness	169.903675090276	
25.0	142.50572660390299	fix	1.0		177	28.0	male	white	3.9076800636689217	neutral	033	sub-14	2.0	3.0	033_neutral	1.0	attractiveness	170.3119055948746	1.499961513744438
25.0	142.79749709541966	pulse	1.0	t		28.0	male	white	3.9076800636689217	neutral	033	sub-14	2.0	3.0	033_neutral	1.0	attractiveness	170.60367608639126	
25.0	143.49747394329552	pulse	1.0	t		28.0	male	white	3.9076800636689217	neutral	033	sub-14	2.0	3.0	033_neutral	1.0	attractiveness	171.30365293426712	
25.0	144.00568811764742	rating	2.0		294	28.0	male	white	3.9076800636689217	neutral	033	sub-14	2.0	3.0	033_neutral	1.0	attractiveness	171.81186710861903	2.499932234004973
25.0	144.1975250470059	pulse	2.0	t		28.0	male	white	3.9076800636689217	neutral	033	sub-14	2.0	3.0	033_neutral	1.0	attractiveness	172.0037040379775	
25.0	144.89745661693405	pulse	2.0	t		28.0	male	white	3.9076800636689217	neutral	033	sub-14	2.0	3.0	033_neutral	1.0	attractiveness	172.70363560790565	
25.0	145.42242665047888	response	2.0	b		28.0	male	white	3.9076800636689217	neutral	033	sub-14	2.0	3.0	033_neutral	1.0	attractiveness	173.22860564145049	
25.0	145.59741535363128	pulse	2.0	t		28.0	male	white	3.9076800636689217	neutral	033	sub-14	2.0	3.0	033_neutral	1.0	attractiveness	173.40359434460288	
25.0	146.29739823856698	pulse	2.0	t		28.0	male	white	3.9076800636689217	neutral	033	sub-14	2.0	3.0	033_neutral	1.0	attractiveness	174.1035772295386	
25.0	146.5056203516524	fix	3.0		444	28.0	male	white	3.9076800636689217	neutral	033	sub-14	2.0	3.0	033_neutral	1.0	attractiveness	174.311799342624	3.7665529385240006
25.0	146.9973844438855	pulse	3.0	t		28.0	male	white	3.9076800636689217	neutral	033	sub-14	2.0	3.0	033_neutral	1.0	attractiveness	174.8035634348571	
25.0	147.6973570658197	pulse	3.0	t		28.0	male	white	3.9076800636689217	neutral	033	sub-14	2.0	3.0	033_neutral	1.0	attractiveness	175.5035360567913	
25.0	148.3973372340788	pulse	3.0	t		28.0	male	white	3.9076800636689217	neutral	033	sub-14	2.0	3.0	033_neutral	1.0	attractiveness	176.2035162250504	
25.0	149.0973279671921	pulse	3.0	t		28.0	male	white	3.9076800636689217	neutral	033	sub-14	2.0	3.0	033_neutral	1.0	attractiveness	176.9035069581637	
25.0	149.797302400244	pulse	3.0	t		28.0	male	white	3.9076800636689217	neutral	033	sub-14	2.0	3.0	033_neutral	1.0	attractiveness	177.6034813912156	
26.0	150.2721732901764	face	0.0		145	37.0	male	white	3.898925586947871	neutral	101	sub-14	2.0	3.0	101_neutral	0.0		178.078352281148	1.2333006627782197
26.0	150.49729283150464	pulse	0.0	t		37.0	male	white	3.898925586947871	neutral	101	sub-14	2.0	3.0	101_neutral	0.0		178.30347182247624	
26.0	151.19726122749717	pulse	0.0	t		37.0	male	white	3.898925586947871	neutral	101	sub-14	2.0	3.0	101_neutral	0.0		179.00344021846877	
26.0	151.50547395295462	fix	1.0		444	37.0	male	white	3.898925586947871	neutral	101	sub-14	2.0	3.0	101_neutral	0.0		179.31165294392622	3.766565314496347
26.0	151.8972326420194	pulse	1.0	t		37.0	male	white	3.898925586947871	neutral	101	sub-14	2.0	3.0	101_neutral	0.0		179.703411632991	
26.0	152.59723152516335	pulse	1.0	t		37.0	male	white	3.898925586947871	neutral	101	sub-14	2.0	3.0	101_neutral	0.0		180.40341051613495	
26.0	153.29721531565792	pulse	1.0	t		37.0	male	white	3.898925586947871	neutral	101	sub-14	2.0	3.0	101_neutral	0.0		181.10339430662953	
26.0	153.99719186168113	pulse	1.0	t		37.0	male	white	3.898925586947871	neutral	101	sub-14	2.0	3.0	101_neutral	0.0		181.80337085265273	
26.0	154.69717384105797	pulse	1.0	t		37.0	male	white	3.898925586947871	neutral	101	sub-14	2.0	3.0	101_neutral	0.0		182.50335283202958	
27.0	155.27203926745096	face	0.0		145	27.0	male	black	3.5523278949462798	smiling	042	sub-14	2.0	3.0	042_smiling	0.0		183.07821825842257	1.2333148498687478
27.0	155.39716215934732	pulse	0.0	t		27.0	male	black	3.5523278949462798	smiling	042	sub-14	2.0	3.0	042_smiling	0.0		183.20334115031892	
27.0	156.0971598350793	pulse	0.0	t		27.0	male	black	3.5523278949462798	smiling	042	sub-14	2.0	3.0	042_smiling	0.0		183.9033388260509	
27.0	156.5053541173197	fix	1.0		444	27.0	male	black	3.5523278949462798	smiling	042	sub-14	2.0	3.0	042_smiling	0.0		184.31153310829131	3.7582269276408624
27.0	156.79712702365987	pulse	1.0	t		27.0	male	black	3.5523278949462798	smiling	042	sub-14	2.0	3.0	042_smiling	0.0		184.60330601463147	
27.0	157.49709783447634	pulse	1.0	t		27.0	male	black	3.5523278949462798	smiling	042	sub-14	2.0	3.0	042_smiling	0.0		185.30327682544794	
27.0	158.1970867564719	pulse	1.0	t		27.0	male	black	3.5523278949462798	smiling	042	sub-14	2.0	3.0	042_smiling	0.0		186.0032657474435	
27.0	158.89703009866662	pulse	1.0	t		27.0	male	black	3.5523278949462798	smiling	042	sub-14	2.0	3.0	042_smiling	0.0		186.70320908963822	
27.0	159.59702928366323	pulse	1.0	t		27.0	male	black	3.5523278949462798	smiling	042	sub-14	2.0	3.0	042_smiling	0.0		187.40320827463484	
28.0	160.26358104496057	face	0.0		146	20.0	female	white	3.9502586549940313	smiling	091	sub-14	2.0	3.0	091_smiling	1.0	dominance	188.06976003593218	1.2416390496337044
28.0	160.29703299645507	pulse	0.0	t		20.0	female	white	3.9502586549940313	smiling	091	sub-14	2.0	3.0	091_smiling	1.0	dominance	188.10321198742668	
28.0	160.99701105174336	pulse	0.0	t		20.0	female	white	3.9502586549940313	smiling	091	sub-14	2.0	3.0	091_smiling	1.0	dominance	188.80319004271496	
28.0	161.50522009459428	fix	1.0		177	20.0	female	white	3.9502586549940313	smiling	091	sub-14	2.0	3.0	091_smiling	1.0	dominance	189.31139908556588	1.499964230421483
28.0	161.69699514409103	pulse	1.0	t		20.0	female	white	3.9502586549940313	smiling	091	sub-14	2.0	3.0	091_smiling	1.0	dominance	189.50317413506264	
28.0	162.39698134940954	pulse	1.0	t		20.0	female	white	3.9502586549940313	smiling	091	sub-14	2.0	3.0	091_smiling	1.0	dominance	190.20316034038115	
28.0	163.00518432501576	rating	2.0		294	20.0	female	white	3.9502586549940313	smiling	091	sub-14	2.0	3.0	091_smiling	1.0	dominance	190.81136331598736	2.4999337432700486
28.0	163.09699592890865	pulse	2.0	t		20.0	female	white	3.9502586549940313	smiling	091	sub-14	2.0	3.0	091_smiling	1.0	dominance	190.90317491988026	
28.0	163.79694772298672	pulse	2.0	t		20.0	female	white	3.9502586549940313	smiling	091	sub-14	2.0	3.0	091_smiling	1.0	dominance	191.60312671395832	
28.0	164.27192003552182	response	2.0	w		20.0	female	white	3.9502586549940313	smiling	091	sub-14	2.0	3.0	091_smiling	1.0	dominance	192.07809902649342	
28.0	164.496900120771	pulse	2.0	t		20.0	female	white	3.9502586549940313	smiling	091	sub-14	2.0	3.0	091_smiling	1.0	dominance	192.3030791117426	
28.0	165.19689387241442	pulse	2.0	t		20.0	female	white	3.9502586549940313	smiling	091	sub-14	2.0	3.0	091_smiling	1.0	dominance	193.00307286338602	
28.0	165.5051180682858	fix	3.0		444	20.0	female	white	3.9502586549940313	smiling	091	sub-14	2.0	3.0	091_smiling	1.0	dominance	193.3112970592574	3.76655263667044
28.0	165.896877662909	pulse	3.0	t		20.0	female	white	3.9502586549940313	smiling	091	sub-14	2.0	3.0	091_smiling	1.0	dominance	193.7030566538806	
28.0	166.59686356637485	pulse	3.0	t		20.0	female	white	3.9502586549940313	smiling	091	sub-14	2.0	3.0	091_smiling	1.0	dominance	194.40304255734645	
28.0	167.29683588645594	pulse	3.0	t		20.0	female	white	3.9502586549940313	smiling	091	sub-14	2.0	3.0	091_smiling	1.0	dominance	195.10301487742754	
28.0	167.99681545100884	pulse	3.0	t		20.0	female	white	3.9502586549940313	smiling	091	sub-14	2.0	3.0	091_smiling	1.0	dominance	195.80299444198045	
28.0	168.69680346744553	pulse	3.0	t		20.0	female	white	3.9502586549940313	smiling	091	sub-14	2.0	3.0	091_smiling	1.0	dominance	196.50298245841714	
29.0	169.27167070495625	face	0.0		145	24.0	female	east_asian	2.9076800636689217	neutral	034	sub-14	2.0	3.0	034_neutral	1.0	trustworthiness	197.07784969592785	1.2333100202213245
29.0	169.39679118202912	pulse	0.0	t		24.0	female	east_asian	2.9076800636689217	neutral	034	sub-14	2.0	3.0	034_neutral	1.0	trustworthiness	197.20297017300072	
29.0	170.09676470952218	pulse	0.0	t		24.0	female	east_asian	2.9076800636689217	neutral	034	sub-14	2.0	3.0	034_neutral	1.0	trustworthiness	197.90294370049378	
29.0	170.50498072517757	fix	1.0		177	24.0	female	east_asian	2.9076800636689217	neutral	034	sub-14	2.0	3.0	034_neutral	1.0	trustworthiness	198.31115971614918	1.499961513744438
29.0	170.79674759445788	pulse	1.0	t		24.0	female	east_asian	2.9076800636689217	neutral	034	sub-14	2.0	3.0	034_neutral	1.0	trustworthiness	198.6029265854295	
29.0	171.49673319607064	pulse	1.0	t		24.0	female	east_asian	2.9076800636689217	neutral	034	sub-14	2.0	3.0	034_neutral	1.0	trustworthiness	199.30291218704224	
29.0	172.004942238922	rating	2.0		294	24.0	female	east_asian	2.9076800636689217	neutral	034	sub-14	2.0	3.0	034_neutral	1.0	trustworthiness	199.81112122989362	2.499920461738384
29.0	172.19671759027142	pulse	2.0	t		24.0	female	east_asian	2.9076800636689217	neutral	034	sub-14	2.0	3.0	034_neutral	1.0	trustworthiness	200.00289658124302	
29.0	172.8966902122056	pulse	2.0	t		24.0	female	east_asian	2.9076800636689217	neutral	034	sub-14	2.0	3.0	034_neutral	1.0	trustworthiness	200.70286920317722	
29.0	173.59667188972935	pulse	2.0	t		24.0	female	east_asian	2.9076800636689217	neutral	034	sub-14	2.0	3.0	034_neutral	1.0	trustworthiness	201.40285088070095	
29.0	174.24979511728634	response	2.0	e		24.0	female	east_asian	2.9076800636689217	neutral	034	sub-14	2.0	3.0	034_neutral	1.0	trustworthiness	202.05597410825794	
29.0	174.29664783204635	pulse	2.0	t		24.0	female	east_asian	2.9076800636689217	neutral	034	sub-14	2.0	3.0	034_neutral	1.0	trustworthiness	202.10282682301795	
29.0	174.5048627006604	fix	3.0		444	24.0	female	east_asian	2.9076800636689217	neutral	034	sub-14	2.0	3.0	034_neutral	1.0	trustworthiness	202.311041691632	3.766549014434986
29.0	174.99663162254092	pulse	3.0	t		24.0	female	east_asian	2.9076800636689217	neutral	034	sub-14	2.0	3.0	034_neutral	1.0	trustworthiness	202.80281061351252	
29.0	175.6966229593604	pulse	3.0	t		24.0	female	east_asian	2.9076800636689217	neutral	034	sub-14	2.0	3.0	034_neutral	1.0	trustworthiness	203.502801950332	
29.0	176.39659105349983	pulse	3.0	t		24.0	female	east_asian	2.9076800636689217	neutral	034	sub-14	2.0	3.0	034_neutral	1.0	trustworthiness	204.20277004447144	
29.0	177.09657454214175	pulse	3.0	t		24.0	female	east_asian	2.9076800636689217	neutral	034	sub-14	2.0	3.0	034_neutral	1.0	trustworthiness	204.90275353311335	
29.0	177.7965698030498	pulse	3.0	t		24.0	female	east_asian	2.9076800636689217	neutral	034	sub-14	2.0	3.0	034_neutral	1.0	trustworthiness	205.6027487940214	
30.0	178.27141171509538	face	0.0		145	54.0	female	white	2.286908077994429	smiling	136	sub-14	2.0	3.0	136_smiling	1.0	dominance	206.07759070606699	1.2333299425181394
30.0	178.49654785833764	pulse	0.0	t		54.0	female	white	2.286908077994429	smiling	136	sub-14	2.0	3.0	136_smiling	1.0	dominance	206.30272684930924	
30.0	179.1965216876838	pulse	0.0	t		54.0	female	white	2.286908077994429	smiling	136	sub-14	2.0	3.0	136_smiling	1.0	dominance	207.0027006786554	
30.0	179.50474165761352	fix	1.0		177	54.0	female	white	2.286908077994429	smiling	136	sub-14	2.0	3.0	136_smiling	1.0	dominance	207.31092064858512	1.499968154510043
30.0	179.89650789300276	pulse	1.0	t		54.0	female	white	2.286908077994429	smiling	136	sub-14	2.0	3.0	136_smiling	1.0	dominance	207.70268688397437	
30.0	180.59648775940832	pulse	1.0	t		54.0	female	white	2.286908077994429	smiling	136	sub-14	2.0	3.0	136_smiling	1.0	dominance	208.40266675037992	
30.0	181.00470981212356	rating	2.0		294	54.0	female	white	2.286908077994429	smiling	136	sub-14	2.0	3.0	136_smiling	1.0	dominance	208.81088880309517	2.499924989533156
30.0	181.296475775845	pulse	2.0	t		54.0	female	white	2.286908077994429	smiling	136	sub-14	2.0	3.0	136_smiling	1.0	dominance	209.1026547668166	
30.0	181.99645020889693	pulse	2.0	t		54.0	female	white	2.286908077994429	smiling	136	sub-14	2.0	3.0	136_smiling	1.0	dominance	209.80262919986853	
30.0	182.69644124386332	pulse	2.0	t		54.0	female	white	2.286908077994429	smiling	136	sub-14	2.0	3.0	136_smiling	1.0	dominance	210.50262023483492	
30.0	183.0047520715416	response	2.0	e		54.0	female	white	2.286908077994429	smiling	136	sub-14	2.0	3.0	136_smiling	1.0	dominance	210.8109310625132	
30.0	183.39640450835532	pulse	2.0	t		54.0	female	white	2.286908077994429	smiling	136	sub-14	2.0	3.0	136_smiling	1.0	dominance	211.20258349932692	
30.0	183.50463480165672	fix	3.0		444	54.0	female	white	2.286908077994429	smiling	136	sub-14	2.0	3.0	136_smiling	1.0	dominance	211.31081379262832	3.7582764315302484
30.0	184.09640791929405	pulse	3.0	t		54.0	female	white	2.286908077994429	smiling	136	sub-14	2.0	3.0	136_smiling	1.0	dominance	211.90258691026565	
30.0	184.79638688014074	pulse	3.0	t		54.0	female	white	2.286908077994429	smiling	136	sub-14	2.0	3.0	136_smiling	1.0	dominance	212.60256587111235	
30.0	185.4963507483385	pulse	3.0	t		54.0	female	white	2.286908077994429	smiling	136	sub-14	2.0	3.0	136_smiling	1.0	dominance	213.3025297393101	
30.0	186.19634027404027	pulse	3.0	t		54.0	female	white	2.286908077994429	smiling	136	sub-14	2.0	3.0	136_smiling	1.0	dominance	214.00251926501187	
30.0	186.89632346082863	pulse	3.0	t		54.0	female	white	2.286908077994429	smiling	136	sub-14	2.0	3.0	136_smiling	1.0	dominance	214.70250245180023	
31.0	187.26291123318697	face	0.0		146	31.0	female	white	2.1822522881018704	smiling	102	sub-14	2.0	3.0	102_smiling	0.0		215.06909022415857	1.2415922624213636
31.0	187.59630362908774	pulse	0.0	t		31.0	female	white	2.1822522881018704	smiling	102	sub-14	2.0	3.0	102_smiling	0.0		215.40248262005935	
31.0	188.2962735343449	pulse	0.0	t		31.0	female	white	2.1822522881018704	smiling	102	sub-14	2.0	3.0	102_smiling	0.0		216.1024525253165	
31.0	188.50450349560833	fix	1.0		444	31.0	female	white	2.1822522881018704	smiling	102	sub-14	2.0	3.0	102_smiling	0.0		216.31068248657994	3.7582667722344922
31.0	188.9962666822821	pulse	1.0	t		31.0	female	white	2.1822522881018704	smiling	102	sub-14	2.0	3.0	102_smiling	0.0		216.80244567325371	
31.0	189.6962414171876	pulse	1.0	t		31.0	female	white	2.1822522881018704	smiling	102	sub-14	2.0	3.0	102_smiling	0.0		217.5024204081592	
31.0	190.3962390929196	pulse	1.0	t		31.0	female	white	2.1822522881018704	smiling	102	sub-14	2.0	3.0	102_smiling	0.0		218.2024180838912	
31.0	191.09620145185227	pulse	1.0	t		31.0	female	white	2.1822522881018704	smiling	102	sub-14	2.0	3.0	102_smiling	0.0		218.90238044282387	
31.0	191.79619973129047	pulse	1.0	t		31.0	female	white	2.1822522881018704	smiling	102	sub-14	2.0	3.0	102_smiling	0.0		219.60237872226207	
32.0	192.26277026784282	face	0.0		146	31.0	female	west_asian	2.364902506963788	neutral	006	sub-14	2.0	3.0	006_neutral	0.0		220.06894925881443	1.2415970920692416
32.0	192.4961708439596	pulse	0.0	t		31.0	female	west_asian	2.364902506963788	neutral	006	sub-14	2.0	3.0	006_neutral	0.0		220.3023498349312	
32.0	193.1961256565678	pulse	0.0	t		31.0	female	west_asian	2.364902506963788	neutral	006	sub-14	2.0	3.0	006_neutral	0.0		221.0023046475394	
32.0	193.50436735991207	fix	1.0		444	31.0	female	west_asian	2.364902506963788	neutral	006	sub-14	2.0	3.0	006_neutral	0.0		221.31054635088367	3.758338915098193
32.0	193.89613419900707	pulse	1.0	t		31.0	female	west_asian	2.364902506963788	neutral	006	sub-14	2.0	3.0	006_neutral	0.0		221.70231318997867	
32.0	194.59611165058914	pulse	1.0	t		31.0	female	west_asian	2.364902506963788	neutral	006	sub-14	2.0	3.0	006_neutral	0.0		222.40229064156074	
32.0	195.29608819661235	pulse	1.0	t		31.0	female	west_asian	2.364902506963788	neutral	006	sub-14	2.0	3.0	006_neutral	0.0		223.10226718758395	
32.0	195.99610730390623	pulse	1.0	t		31.0	female	west_asian	2.364902506963788	neutral	006	sub-14	2.0	3.0	006_neutral	0.0		223.80228629487783	
32.0	196.69606060724936	pulse	1.0	t		31.0	female	west_asian	2.364902506963788	neutral	006	sub-14	2.0	3.0	006_neutral	0.0		224.50223959822097	
33.0	197.26270627501026	face	0.0		146	19.0	female	white	4.298846000795861	smiling	100	sub-14	2.0	3.0	100_smiling	0.0		225.06888526598186	1.241532495530464
33.0	197.39604349218507	pulse	0.0	t		19.0	female	white	4.298846000795861	smiling	100	sub-14	2.0	3.0	100_smiling	0.0		225.20222248315667	
33.0	198.0960188307963	pulse	0.0	t		19.0	female	white	4.298846000795861	smiling	100	sub-14	2.0	3.0	100_smiling	0.0		225.9021978217679	
33.0	198.50423877054072	fix	1.0		444	19.0	female	white	4.298846000795861	smiling	100	sub-14	2.0	3.0	100_smiling	0.0		226.31041776151233	3.766534827344458
33.0	198.79601741208717	pulse	1.0	t		19.0	female	white	4.298846000795861	smiling	100	sub-14	2.0	3.0	100_smiling	0.0		226.60219640305877	
33.0	199.49598188399113	pulse	1.0	t		19.0	female	white	4.298846000795861	smiling	100	sub-14	2.0	3.0	100_smiling	0.0		227.30216087496274	
33.0	200.19596325966177	pulse	1.0	t		19.0	female	white	4.298846000795861	smiling	100	sub-14	2.0	3.0	100_smiling	0.0		228.00214225063337	
33.0	200.8959449371855	pulse	1.0	t		19.0	female	white	4.298846000795861	smiling	100	sub-14	2.0	3.0	100_smiling	0.0		228.7021239281571	
33.0	201.5959293313863	pulse	1.0	t		19.0	female	white	4.298846000795861	smiling	100	sub-14	2.0	3.0	100_smiling	0.0		229.4021083223579	
34.0	202.27077359788518	face	0.0		145	22.0	female	white	4.614007162753682	smiling	009	sub-14	2.0	3.0	009_smiling	0.0		230.07695258885678	1.2333317536358663
34.0	202.2959559850051	pulse	0.0	t		22.0	female	white	4.614007162753682	smiling	009	sub-14	2.0	3.0	009_smiling	0.0		230.1021349759767	
34.0	202.99588755493323	pulse	0.0	t		22.0	female	white	4.614007162753682	smiling	009	sub-14	2.0	3.0	009_smiling	0.0		230.80206654590484	
34.0	203.50410535152105	fix	1.0		443	22.0	female	white	4.614007162753682	smiling	009	sub-14	2.0	3.0	009_smiling	0.0		231.31028434249265	3.7582293424648014
34.0	203.69588885290113	pulse	1.0	t		22.0	female	white	4.614007162753682	smiling	009	sub-14	2.0	3.0	009_smiling	0.0		231.50206784387274	
34.0	204.39585543777548	pulse	1.0	t		22.0	female	white	4.614007162753682	smiling	009	sub-14	2.0	3.0	009_smiling	0.0		232.20203442874708	
34.0	205.09585915056732	pulse	1.0	t		22.0	female	white	4.614007162753682	smiling	009	sub-14	2.0	3.0	009_smiling	0.0		232.90203814153892	
34.0	205.7958148687344	pulse	1.0	t		22.0	female	white	4.614007162753682	smiling	009	sub-14	2.0	3.0	009_smiling	0.0		233.601993859706	
34.0	206.49579684811124	pulse	1.0	t		22.0	female	white	4.614007162753682	smiling	009	sub-14	2.0	3.0	009_smiling	0.0		234.30197583908284	
34.0	207.1957739978402	pulse	1.0	t		22.0	female	white	4.614007162753682	smiling	009	sub-14	2.0	3.0	009_smiling	0.0		235.0019529888118	
35.0	207.26233469398585	face	0.0		147	37.0	male	white	3.898925586947871	smiling	101	sub-14	2.0	3.0	101_smiling	0.0		235.06851368495745	1.2416372385159775
35.0	207.89576442910084	pulse	0.0	t		37.0	male	white	3.898925586947871	smiling	101	sub-14	2.0	3.0	101_smiling	0.0		235.70194342007244	
35.0	208.50397193250183	fix	1.0		443	37.0	male	white	3.898925586947871	smiling	101	sub-14	2.0	3.0	101_smiling	0.0		236.31015092347343	3.758333783597209
35.0	208.5957448992126	pulse	1.0	t		37.0	male	white	3.898925586947871	smiling	101	sub-14	2.0	3.0	101_smiling	0.0		236.4019238901842	
35.0	209.29571842670566	pulse	1.0	t		37.0	male	white	3.898925586947871	smiling	101	sub-14	2.0	3.0	101_smiling	0.0		237.10189741767726	
35.0	209.99566991893107	pulse	1.0	t		37.0	male	white	3.898925586947871	smiling	101	sub-14	2.0	3.0	101_smiling	0.0		237.80184890990267	
35.0	210.6956947614317	pulse	1.0	t		37.0	male	white	3.898925586947871	smiling	101	sub-14	2.0	3.0	101_smiling	0.0		238.5018737524033	
35.0	211.39566889263097	pulse	1.0	t		37.0	male	white	3.898925586947871	smiling	101	sub-14	2.0	3.0	101_smiling	0.0		239.20184788360257	
35.0	212.0956538905375	pulse	1.0	t		37.0	male	white	3.898925586947871	smiling	101	sub-14	2.0	3.0	101_smiling	0.0		239.9018328815091	
36.0	212.26230571609904	face	0.0		147	31.0	male	west_asian	1.9538400318344609	neutral	070	sub-14	2.0	3.0	070_neutral	0.0		240.06848470707064	1.2498642416203438
36.0	212.79563436064973	pulse	0.0	t		31.0	male	west_asian	1.9538400318344609	neutral	070	sub-14	2.0	3.0	070_neutral	0.0		240.60181335162133	
36.0	213.49560909555476	pulse	0.0	t		31.0	male	west_asian	1.9538400318344609	neutral	070	sub-14	2.0	3.0	070_neutral	0.0		241.30178808652636	
36.0	213.51216995771938	fix	1.0		443	31.0	male	west_asian	1.9538400318344609	neutral	070	sub-14	2.0	3.0	070_neutral	0.0		241.31834894869098	3.758218777610182
36.0	214.19559258419622	pulse	1.0	t		31.0	male	west_asian	1.9538400318344609	neutral	070	sub-14	2.0	3.0	070_neutral	0.0		242.00177157516782	
36.0	214.89556852651367	pulse	1.0	t		31.0	male	west_asian	1.9538400318344609	neutral	070	sub-14	2.0	3.0	070_neutral	0.0		242.70174751748527	
36.0	215.5955499021843	pulse	1.0	t		31.0	male	west_asian	1.9538400318344609	neutral	070	sub-14	2.0	3.0	070_neutral	0.0		243.4017288931559	
36.0	216.29554154085645	pulse	1.0	t		31.0	male	west_asian	1.9538400318344609	neutral	070	sub-14	2.0	3.0	070_neutral	0.0		244.10172053182805	
36.0	216.99551537020307	pulse	1.0	t		31.0	male	west_asian	1.9538400318344609	neutral	070	sub-14	2.0	3.0	070_neutral	0.0		244.80169436117467	
37.0	217.27038873532956	face	0.0		145	26.0	male	white	2.7966573816155993	smiling	117	sub-14	2.0	3.0	117_smiling	0.0		245.07656772630116	1.2333136424567783
37.0	217.69550489590438	pulse	0.0	t		26.0	male	white	2.7966573816155993	smiling	117	sub-14	2.0	3.0	117_smiling	0.0		245.50168388687598	
37.0	218.39547449930888	pulse	0.0	t		26.0	male	white	2.7966573816155993	smiling	117	sub-14	2.0	3.0	117_smiling	0.0		246.20165349028048	
37.0	218.50370237778634	fix	1.0		444	26.0	male	white	2.7966573816155993	smiling	117	sub-14	2.0	3.0	117_smiling	0.0		246.30988136875794	3.758343141039859
37.0	219.0954640250102	pulse	1.0	t		26.0	male	white	2.7966573816155993	smiling	117	sub-14	2.0	3.0	117_smiling	0.0		246.9016430159818	
37.0	219.79544208029802	pulse	1.0	t		26.0	male	white	2.7966573816155993	smiling	117	sub-14	2.0	3.0	117_smiling	0.0		247.60162107126962	
37.0	220.4954264744988	pulse	1.0	t		26.0	male	white	2.7966573816155993	smiling	117	sub-14	2.0	3.0	117_smiling	0.0		248.3016054654704	
37.0	221.19541056684648	pulse	1.0	t		26.0	male	white	2.7966573816155993	smiling	117	sub-14	2.0	3.0	117_smiling	0.0		249.00158955781808	
37.0	221.89538590545772	pulse	1.0	t		26.0	male	white	2.7966573816155993	smiling	117	sub-14	2.0	3.0	117_smiling	0.0		249.70156489642932	
38.0	222.2620455188262	face	0.0		146	40.0	male	white	1.868682849184242	smiling	172	sub-14	2.0	3.0	172_smiling	0.0		250.0682245097978	1.24150472505562
38.0	222.59537392189395	pulse	0.0	t		40.0	male	white	1.868682849184242	smiling	172	sub-14	2.0	3.0	172_smiling	0.0		250.40155291286555	
38.0	223.29535831609473	pulse	0.0	t		40.0	male	white	1.868682849184242	smiling	172	sub-14	2.0	3.0	172_smiling	0.0		251.10153730706634	
38.0	223.50355024388182	fix	1.0		444	40.0	male	white	1.868682849184242	smiling	172	sub-14	2.0	3.0	172_smiling	0.0		251.30972923485342	3.7665484107292286
38.0	223.99531675093885	pulse	1.0	t		40.0	male	white	1.868682849184242	smiling	172	sub-14	2.0	3.0	172_smiling	0.0		251.80149574191046	
38.0	224.6953017488454	pulse	1.0	t		40.0	male	white	1.868682849184242	smiling	172	sub-14	2.0	3.0	172_smiling	0.0		252.501480739817	
38.0	225.39529338751754	pulse	1.0	t		40.0	male	white	1.868682849184242	smiling	172	sub-14	2.0	3.0	172_smiling	0.0		253.20147237848914	
38.0	226.09529408177968	pulse	1.0	t		40.0	male	white	1.868682849184242	smiling	172	sub-14	2.0	3.0	172_smiling	0.0		253.9014730727513	
38.0	226.79523561285623	pulse	1.0	t		40.0	male	white	1.868682849184242	smiling	172	sub-14	2.0	3.0	172_smiling	0.0		254.60141460382783	
39.0	227.27009865461105	face	0.0		145	28.0	male	east_asian	1.5563072025467568	smiling	005	sub-14	2.0	3.0	005_smiling	0.0		255.07627764558265	1.2333399036665469
39.0	227.49523932564807	pulse	0.0	t		28.0	male	east_asian	1.5563072025467568	smiling	005	sub-14	2.0	3.0	005_smiling	0.0		255.30141831661967	
39.0	228.19522039946605	pulse	0.0	t		28.0	male	east_asian	1.5563072025467568	smiling	005	sub-14	2.0	3.0	005_smiling	0.0		256.00139939043765	
39.0	228.5034385582776	fix	1.0		444	28.0	male	east_asian	1.5563072025467568	smiling	005	sub-14	2.0	3.0	005_smiling	0.0		256.3096175492492	3.7499042371405267
39.0	228.8952053973726	pulse	1.0	t		28.0	male	east_asian	1.5563072025467568	smiling	005	sub-14	2.0	3.0	005_smiling	0.0		256.7013843883442	
39.0	229.59518616933747	pulse	1.0	t		28.0	male	east_asian	1.5563072025467568	smiling	005	sub-14	2.0	3.0	005_smiling	0.0		257.40136516030907	
39.0	230.29516060238984	pulse	1.0	t		28.0	male	east_asian	1.5563072025467568	smiling	005	sub-14	2.0	3.0	005_smiling	0.0		258.10133959336144	
39.0	230.9951443928844	pulse	1.0	t		28.0	male	east_asian	1.5563072025467568	smiling	005	sub-14	2.0	3.0	005_smiling	0.0		258.801323383856	
39.0	231.69513090005603	pulse	1.0	t		28.0	male	east_asian	1.5563072025467568	smiling	005	sub-14	2.0	3.0	005_smiling	0.0		259.50130989102763	
40.0	232.25334279541812	fix	0.0		720													260.0595217863897	5.999833377152299
40.0	232.39511348313863	pulse	0.0	t														260.20129247411023	
40.0	233.09508640692593	pulse	0.0	t														260.90126539789753	
40.0	233.79506899000899	pulse	0.0	t														261.6012479809806	
40.0	234.49505247865045	pulse	0.0	t														262.30123146962205	
40.0	235.1950278172617	pulse	0.0	t														263.0012068082333	
40.0	235.8950110040505	pulse	0.0	t														263.7011899950221	
40.0	236.59499570010394	pulse	0.0	t														264.40117469107554	
40.0	237.2949764720688	pulse	0.0	t														265.1011554630404	
40.0	237.99495181068005	pulse	0.0	t														265.80113080165165	
