trial_nr	onset	event_type	phase	response	nr_frames	trial_type	stim_name	task_probe	onset_abs	duration
0.0	0.055486346956058696	baseline	0.0		701		baseline	0.0	45.672971709261674	5.849616840600447
0.0	0.7053450336279639	pulse	0.0	t			baseline	0.0	46.32283039593358	
0.0	1.4053110145910068	pulse	0.0	t			baseline	0.0	47.02279637689662	
0.0	2.105288466037109	pulse	0.0	t			baseline	0.0	47.722773828342724	
0.0	2.8052737657080797	pulse	0.0	t			baseline	0.0	48.422759128013695	
0.0	3.5052626876367867	pulse	0.0	t			baseline	0.0	49.1227480499424	
0.0	4.205243761340171	pulse	0.0	t			baseline	0.0	49.822729123645786	
0.0	4.905230872139782	pulse	0.0	t			baseline	0.0	50.5227162344454	
0.0	5.605216473665678	pulse	0.0	t			baseline	0.0	51.22270183597129	
0.0	5.905103187556506	ISI	1.0		5		baseline	0.0	51.52258854986212	0.12530626943362222
1.0	6.030409456990128	car	0.0		45	object	car-30.jpg	0.0	51.64789481929574	0.37463471795172154
1.0	6.3051718897104365	pulse	0.0	t		object	car-30.jpg	0.0	51.92265725201605	
1.0	6.40504417494185	ISI	1.0		236	object	car-30.jpg	0.0	52.022529537247465	2.0166524241503794
1.0	7.005149341156539	pulse	1.0	t		object	car-30.jpg	0.0	52.622634703462154	
1.0	7.705123170344905	pulse	1.0	t		object	car-30.jpg	0.0	53.32260853265052	
2.0	8.421696599092229	car	0.0		45	object	car-30.jpg	1.0	54.039181961397844	0.38330096946720005
2.0	8.413450227613339	pulse	0.0	t		object	car-30.jpg	1.0	54.030935589918954	
2.0	8.804997568559429	ISI	1.0		234	object	car-30.jpg	1.0	54.422482930865044	2.0166530278602295
2.0	8.849843533560488	response	1.0	b		object	car-30.jpg	1.0	54.4673288958661	
2.0	9.105083204768107	pulse	1.0	t		object	car-30.jpg	1.0	54.72256856707372	
2.0	9.805093256533382	pulse	1.0	t		object	car-30.jpg	1.0	55.422578618839	
2.0	10.5050722172532	pulse	1.0	t		object	car-30.jpg	1.0	56.122557579558816	
3.0	10.821650596419659	adult	0.0		46	face	adult-27.jpg	0.0	56.439135958725274	0.38329523422589773
3.0	11.204945830645556	ISI	1.0		231	face	adult-27.jpg	0.0	56.82243119295117	2.0166904578563845
3.0	11.27877197012458	pulse	1.0	t		face	adult-27.jpg	0.0	56.896257332430196	
3.0	11.905041911030366	pulse	1.0	t		face	adult-27.jpg	0.0	57.52252727333598	
3.0	12.605093618758929	pulse	1.0	t		face	adult-27.jpg	0.0	58.222578981064544	
4.0	13.22163628850194	number	0.0		46	character	number-37.jpg	0.0	58.839121650807556	0.38326203019687455
4.0	13.30501884932346	pulse	0.0	t		character	number-37.jpg	0.0	58.922504211629075	
4.0	13.604898318698815	ISI	1.0		233	character	number-37.jpg	0.0	59.22238368100443	2.0166545371344
4.0	14.005005356413221	pulse	1.0	t		character	number-37.jpg	0.0	59.622490718718836	
4.0	14.70499820245459	pulse	1.0	t		character	number-37.jpg	0.0	60.322483564760205	
4.0	15.40498289841571	pulse	1.0	t		character	number-37.jpg	0.0	61.022468260721325	
5.0	15.621552855833215	limb	0.0		46	body	limb-32.jpg	0.0	61.23903821813883	0.383295234225443
5.0	16.00484809005866	ISI	1.0		231	body	limb-32.jpg	0.0	61.62233345236427	2.016656951972891
5.0	16.104974235182908	pulse	1.0	t		body	limb-32.jpg	0.0	61.72245959748852	
5.0	16.80493931058163	pulse	1.0	t		body	limb-32.jpg	0.0	62.422424672887246	
5.0	17.504926723236167	pulse	1.0	t		body	limb-32.jpg	0.0	63.12241208554178	
6.0	18.02150504203155	house	0.0		46	place	house-132.jpg	0.0	63.638990404337164	0.38329402680665225
6.0	18.204915947019344	pulse	0.0	t		place	house-132.jpg	0.0	63.82240130932496	
6.0	18.4047990688382	ISI	1.0		233	place	house-132.jpg	0.0	64.02228443114382	2.0166901560014594
6.0	18.904904567093126	pulse	1.0	t		place	house-132.jpg	0.0	64.52238992939874	
6.0	19.604981026915993	pulse	1.0	t		place	house-132.jpg	0.0	65.22246638922161	
6.0	20.304934933687036	pulse	1.0	t		place	house-132.jpg	0.0	65.92242029599265	
7.0	20.42148922483966	number	0.0		46	character	number-102.jpg	0.0	66.03897458714528	0.3832565968104973
7.0	20.804745821650158	ISI	1.0		354	character	number-102.jpg	0.0	66.42223118395577	3.0166352184264724
7.0	21.004860767960963	pulse	1.0	t		character	number-102.jpg	0.0	66.62234613026658	
7.0	21.704840030535706	pulse	1.0	t		character	number-102.jpg	0.0	67.32232539284132	
7.0	22.40482351907758	pulse	1.0	t		character	number-102.jpg	0.0	68.0223088813832	
7.0	23.104811535441513	pulse	1.0	t		character	number-102.jpg	0.0	68.72229689774713	
8.0	23.82138104007663	car	0.0		45	object	car-101.jpg	0.0	69.43886640238225	0.3832964416451432
8.0	23.81319353028539	pulse	0.0	t		object	car-101.jpg	0.0	69.430678892591	
8.0	24.204677481721774	ISI	1.0		472	object	car-101.jpg	0.0	69.82216284402739	4.016650009312343
8.0	24.504786964460436	pulse	1.0	t		object	car-101.jpg	0.0	70.12227232676605	
8.0	25.204762001068048	pulse	1.0	t		object	car-101.jpg	0.0	70.82224736337366	
8.0	25.904751224851225	pulse	1.0	t		object	car-101.jpg	0.0	71.52223658715684	
8.0	26.604808365966164	pulse	1.0	t		object	car-101.jpg	0.0	72.22229372827178	
8.0	27.304799099023512	pulse	1.0	t		object	car-101.jpg	0.0	72.92228446132913	
8.0	28.004784700549408	pulse	1.0	t		object	car-101.jpg	0.0	73.62227006285502	
9.0	28.221327491034117	number	0.0		46	character	number-67.jpg	0.0	73.83881285333973	0.38325991721330865
9.0	28.604587408247426	ISI	1.0		592	character	number-67.jpg	0.0	74.22207277055304	5.016591751334545
9.0	28.704714760790466	pulse	1.0	t		character	number-67.jpg	0.0	74.32220012309608	
9.0	29.404700966025757	pulse	1.0	t		character	number-67.jpg	0.0	75.02218632833137	
9.0	30.10468113416482	pulse	1.0	t		character	number-67.jpg	0.0	75.72216649647044	
9.0	30.80464711512832	pulse	1.0	t		character	number-67.jpg	0.0	76.42213247743393	
9.0	31.504639659314307	pulse	1.0	t		character	number-67.jpg	0.0	77.12212502161992	
9.0	32.204619827453826	pulse	1.0	t		character	number-67.jpg	0.0	77.82210518975944	
9.0	32.90461991801021	pulse	1.0	t		character	number-67.jpg	0.0	78.52210528031583	
10.0	33.62117915958197	house	0.0		45	place	house-66.jpg	0.0	79.23866452188759	0.38329644164468846
10.0	33.61364607101223	pulse	0.0	t		place	house-66.jpg	0.0	79.23113143331784	
10.0	34.00447560122666	ISI	1.0		235	place	house-66.jpg	0.0	79.62196096353227	2.01669226898548
10.0	34.30465239758723	pulse	1.0	t		place	house-66.jpg	0.0	79.92213775989285	
10.0	35.00463437685539	pulse	1.0	t		place	house-66.jpg	0.0	80.62211973916101	
10.0	35.7046175635428	pulse	1.0	t		place	house-66.jpg	0.0	81.32210292584841	
11.0	36.02116787021214	house	0.0		46	place	house-71.jpg	0.0	81.63865323251775	0.3832608227776291
11.0	36.40442869298977	ISI	1.0		352	place	house-71.jpg	0.0	82.02191405529538	3.016634011007227
11.0	36.46505834400614	pulse	1.0	t		place	house-71.jpg	0.0	82.08254370631175	
11.0	37.104518736278806	pulse	1.0	t		place	house-71.jpg	0.0	82.72200409858442	
11.0	37.804504035949776	pulse	1.0	t		place	house-71.jpg	0.0	83.42198939825539	
11.0	38.5044944671522	pulse	1.0	t		place	house-71.jpg	0.0	84.12197982945781	
11.0	39.20448550206447	pulse	1.0	t		place	house-71.jpg	0.0	84.82197086437009	
12.0	39.421062703996995	house	0.0		46	place	house-60.jpg	0.0	85.03854806630261	0.3832925175324817
12.0	39.80435522152948	ISI	1.0		473	place	house-60.jpg	0.0	85.42184058383509	4.016643066651795
12.0	39.90448589447578	pulse	1.0	t		place	house-60.jpg	0.0	85.5219712567814	
12.0	40.604446140197524	pulse	1.0	t		place	house-60.jpg	0.0	86.22193150250314	
12.0	41.304432345432815	pulse	1.0	t		place	house-60.jpg	0.0	86.92191770773843	
12.0	42.004430926715486	pulse	1.0	t		place	house-60.jpg	0.0	87.6219162890211	
12.0	42.704477201057216	pulse	1.0	t		place	house-60.jpg	0.0	88.32196256336283	
12.0	43.404470348953055	pulse	1.0	t		place	house-60.jpg	0.0	89.02195571125867	
13.0	43.82099828818127	adult	0.0		46	face	adult-23.jpg	0.0	89.43848365048689	0.38327048213159287
13.0	44.10439286282417	pulse	0.0	t		face	adult-23.jpg	0.0	89.72187822512979	
13.0	44.204268770312865	ISI	1.0		233	face	adult-23.jpg	0.0	89.82175413261848	2.0166481981832476
13.0	44.80436759757686	pulse	1.0	t		face	adult-23.jpg	0.0	90.42185295988247	
13.0	45.50436285845626	pulse	1.0	t		face	adult-23.jpg	0.0	91.12184822076188	
14.0	46.22091696849611	limb	0.0		45	body	limb-114.jpg	0.0	91.83840233080173	0.3832985546287091
14.0	46.21275481450857	pulse	0.0	t		body	limb-114.jpg	0.0	91.83024017681419	
14.0	46.60421552312482	ISI	1.0		474	body	limb-114.jpg	0.0	92.22170088543044	4.016651216731589
14.0	46.90436726553662	pulse	1.0	t		body	limb-114.jpg	0.0	92.52185262784224	
14.0	47.60430457029315	pulse	1.0	t		body	limb-114.jpg	0.0	93.22178993259877	
14.0	48.30428866254442	pulse	1.0	t		body	limb-114.jpg	0.0	93.92177402485004	
14.0	49.00428060302147	pulse	1.0	t		body	limb-114.jpg	0.0	94.62176596532709	
14.0	49.70425956374129	pulse	1.0	t		body	limb-114.jpg	0.0	95.3217449260469	
14.0	50.404322741952456	pulse	1.0	t		body	limb-114.jpg	0.0	96.02180810425807	
15.0	50.62086673985641	car	0.0		46	object	car-85.jpg	0.0	96.23835210216203	0.3832596153583836
15.0	51.004126355214794	ISI	1.0		233	object	car-85.jpg	0.0	96.62161171752041	2.016656650117966
15.0	51.104255217032005	pulse	1.0	t		object	car-85.jpg	0.0	96.72174057933762	
15.0	51.80422029243073	pulse	1.0	t		object	car-85.jpg	0.0	97.42170565473634	
15.0	52.50421434589089	pulse	1.0	t		object	car-85.jpg	0.0	98.1216997081965	
16.0	53.02078300533276	adult	0.0		46	face	adult-128.jpg	0.0	98.63826836763837	0.3832946305160476
16.0	53.204196928868896	pulse	0.0	t		face	adult-128.jpg	0.0	98.82168229117451	
16.0	53.40407763584881	ISI	1.0		233	face	adult-128.jpg	0.0	99.02156299815442	2.016657253827816
16.0	53.90419158603845	pulse	1.0	t		face	adult-128.jpg	0.0	99.52167694834407	
16.0	54.604158774421194	pulse	1.0	t		face	adult-128.jpg	0.0	100.22164413672681	
16.0	55.304147394494976	pulse	1.0	t		face	adult-128.jpg	0.0	100.92163275680059	
17.0	55.42073488967662	limb	0.0		46	body	limb-92.jpg	0.0	101.03822025198224	0.3832901026939908
17.0	55.804024992370614	ISI	1.0		475	body	limb-92.jpg	0.0	101.42151035467623	4.016652726005304
17.0	56.00413631642323	pulse	1.0	t		body	limb-92.jpg	0.0	101.62162167872884	
17.0	56.704187722296865	pulse	1.0	t		body	limb-92.jpg	0.0	102.32167308460248	
17.0	57.40419173696591	pulse	1.0	t		body	limb-92.jpg	0.0	103.02167709927153	
17.0	58.1041607364773	pulse	1.0	t		body	limb-92.jpg	0.0	103.72164609878291	
17.0	58.80414090461636	pulse	1.0	t		body	limb-92.jpg	0.0	104.42162626692198	
17.0	59.50412620428733	pulse	1.0	t		body	limb-92.jpg	0.0	105.12161156659295	
18.0	59.82067771837592	adult	0.0		46	face	adult-26.jpg	0.0	105.43816308068153	0.3832587097940632
18.0	60.20393642816998	ISI	1.0		353	face	adult-26.jpg	0.0	105.8214217904756	3.0166385388297385
18.0	60.254306939852995	pulse	1.0	t		face	adult-26.jpg	0.0	105.87179230215861	
18.0	60.90403371597449	pulse	1.0	t		face	adult-26.jpg	0.0	106.52151907828011	
18.0	61.60401750637129	pulse	1.0	t		face	adult-26.jpg	0.0	107.22150286867691	
18.0	62.304018502492	pulse	1.0	t		face	adult-26.jpg	0.0	107.92150386479761	
18.0	63.003988407567704	pulse	1.0	t		face	adult-26.jpg	0.0	108.62147376987332	
19.0	63.22057496699972	adult	0.0		46	face	adult-63.jpg	0.0	108.83806032930534	0.38329040454891583
19.0	63.603865371548636	ISI	1.0		950	face	adult-63.jpg	0.0	109.22135073385425	8.016573640045863
19.0	63.70398095175415	pulse	1.0	t		face	adult-63.jpg	0.0	109.32146631405976	
19.0	64.4039635347317	pulse	1.0	t		face	adult-63.jpg	0.0	110.02144889703732	
19.0	65.10394853254775	pulse	1.0	t		face	adult-63.jpg	0.0	110.72143389485336	
19.0	65.80392387101028	pulse	1.0	t		face	adult-63.jpg	0.0	111.4214092333159	
19.0	66.5040118013153	pulse	1.0	t		face	adult-63.jpg	0.0	112.12149716362092	
19.0	67.20396540623142	pulse	1.0	t		face	adult-63.jpg	0.0	112.82145076853703	
19.0	67.90395915783711	pulse	1.0	t		face	adult-63.jpg	0.0	113.52144452014272	
19.0	68.60394113710527	pulse	1.0	t		face	adult-63.jpg	0.0	114.22142649941088	
19.0	69.30393881282316	pulse	1.0	t		face	adult-63.jpg	0.0	114.92142417512878	
19.0	70.00391535870449	pulse	1.0	t		face	adult-63.jpg	0.0	115.6214007210101	
19.0	70.70389582869848	pulse	1.0	t		face	adult-63.jpg	0.0	116.3213811910041	
19.0	71.40388595804643	pulse	1.0	t		face	adult-63.jpg	0.0	117.02137132035205	
20.0	71.6204390115945	number	0.0		46	character	number-94.jpg	0.0	117.23792437390011	0.38325206898844044
20.0	72.00369108058294	ISI	1.0		354	character	number-94.jpg	0.0	117.62117644288855	3.0166376332649634
20.0	72.10381964054523	pulse	1.0	t		character	number-94.jpg	0.0	117.72130500285084	
20.0	72.80378562150827	pulse	1.0	t		character	number-94.jpg	0.0	118.42127098381388	
20.0	73.50377605271115	pulse	1.0	t		character	number-94.jpg	0.0	119.12126141501676	
20.0	74.20377614326753	pulse	1.0	t		character	number-94.jpg	0.0	119.82126150557315	
20.0	74.9037372945536	pulse	1.0	t		character	number-94.jpg	0.0	120.52122265685921	
21.0	75.0203287138479	adult	0.0		46	face	adult-17.jpg	0.0	120.63781407615352	0.38329825277378404
21.0	75.40362696662169	ISI	1.0		593	face	adult-17.jpg	0.0	121.0211123289273	5.016628275765925
21.0	75.60374402591606	pulse	1.0	t		face	adult-17.jpg	0.0	121.22122938822167	
21.0	76.30371061058895	pulse	1.0	t		face	adult-17.jpg	0.0	121.92119597289457	
21.0	77.00369892880781	pulse	1.0	t		face	adult-17.jpg	0.0	122.62118429111342	
21.0	77.70375667363214	pulse	1.0	t		face	adult-17.jpg	0.0	123.32124203593776	
21.0	78.40374710483502	pulse	1.0	t		face	adult-17.jpg	0.0	124.02123246714063	
21.0	79.10372093402339	pulse	1.0	t		face	adult-17.jpg	0.0	124.721206296329	
21.0	79.80370864853239	pulse	1.0	t		face	adult-17.jpg	0.0	125.42119401083801	
22.0	80.42025524238761	limb	0.0		46	body	limb-120.jpg	0.0	126.03774060469323	0.38325569124617687
22.0	80.50365923490062	pulse	0.0	t		body	limb-120.jpg	0.0	126.12114459720624	
22.0	80.80351093363379	ISI	1.0		473	body	limb-120.jpg	0.0	126.4209962959394	4.016615899719
22.0	81.2036167639294	pulse	1.0	t		body	limb-120.jpg	0.0	126.82110212623502	
22.0	81.90359874319711	pulse	1.0	t		body	limb-120.jpg	0.0	127.52108410550272	
22.0	82.60358042061034	pulse	1.0	t		body	limb-120.jpg	0.0	128.22106578291596	
22.0	83.30357024810337	pulse	1.0	t		body	limb-120.jpg	0.0	128.92105561040898	
22.0	84.00355222737153	pulse	1.0	t		body	limb-120.jpg	0.0	129.62103758967714	
22.0	84.70353722518757	pulse	1.0	t		body	limb-120.jpg	0.0	130.3210225874932	
23.0	84.82012683335279	adult	0.0		46	face	adult-123.jpg	0.0	130.4376121956584	0.3832937249517272
23.0	85.20342055830451	ISI	1.0		236	face	adult-123.jpg	0.0	130.82090592061013	2.0166925708399503
23.0	85.40356086041902	pulse	1.0	t		face	adult-123.jpg	0.0	131.02104622272464	
23.0	86.10351295606097	pulse	1.0	t		face	adult-123.jpg	0.0	131.72099831836658	
23.0	86.80359937709227	pulse	1.0	t		face	adult-123.jpg	0.0	132.42108473939788	
24.0	87.22011312914447	adult	0.0		46	face	adult-123.jpg	1.0	132.83759849145008	0.3832565968104973
24.0	87.50348566838647	pulse	0.0	t		face	adult-123.jpg	1.0	133.1209710306921	
24.0	87.60336972595496	ISI	1.0		233	face	adult-123.jpg	1.0	133.22085508826058	2.016658763101532
24.0	87.72847948790923	response	1.0	b		face	adult-123.jpg	1.0	133.34596485021484	
24.0	88.20346191241288	pulse	1.0	t		face	adult-123.jpg	1.0	133.8209472747185	
24.0	88.9034478157937	pulse	1.0	t		face	adult-123.jpg	1.0	134.5209331780993	
25.0	89.6200284890565	car	0.0		45	object	car-81.jpg	0.0	135.2375138513621	0.38329131011323625
25.0	89.61283196859722	pulse	0.0	t		object	car-81.jpg	0.0	135.23031733090284	
25.0	90.00331979916973	ISI	1.0		232	object	car-81.jpg	0.0	135.62080516147535	2.0166599705207773
25.0	90.30342777263422	pulse	1.0	t		object	car-81.jpg	0.0	135.92091313493984	
25.0	91.00341035561178	pulse	1.0	t		object	car-81.jpg	0.0	136.6208957179174	
25.0	91.70339565528275	pulse	1.0	t		object	car-81.jpg	0.0	137.32088101758836	
26.0	92.01997976969051	house	0.0		46	place	house-75.jpg	0.0	137.63746513199612	0.38329523422589773
26.0	92.4032750039164	ISI	1.0		233	place	house-75.jpg	0.0	138.02076036622202	2.016682005921666
26.0	92.45463891977033	pulse	1.0	t		place	house-75.jpg	0.0	138.07212428207595	
26.0	93.10337349914016	pulse	1.0	t		place	house-75.jpg	0.0	138.72085886144578	
26.0	93.80341645307908	pulse	1.0	t		place	house-75.jpg	0.0	139.4209018153847	
27.0	94.41995700983807	limb	0.0		46	body	limb-8.jpg	0.0	140.0374423721437	0.3832644450353655
27.0	94.5033486263037	pulse	0.0	t		body	limb-8.jpg	0.0	140.12083398860932	
27.0	94.80322145487344	ISI	1.0		234	body	limb-8.jpg	0.0	140.42070681717905	2.0166587631019866
27.0	95.20333000186247	pulse	1.0	t		body	limb-8.jpg	0.0	140.82081536416808	
27.0	95.90330956629168	pulse	1.0	t		body	limb-8.jpg	0.0	141.5207949285973	
27.0	96.60329094185045	pulse	1.0	t		body	limb-8.jpg	0.0	142.22077630415606	
28.0	96.81988021797542	car	0.0		46	object	car-91.jpg	0.0	142.43736558028104	0.38329161196770656
28.0	97.20317182994313	ISI	1.0		473	object	car-91.jpg	0.0	142.82065719224875	4.016651518586514
28.0	97.30328801385849	pulse	1.0	t		object	car-91.jpg	0.0	142.9207733761641	
28.0	98.00327150240082	pulse	1.0	t		object	car-91.jpg	0.0	143.62075686470644	
28.0	98.70324865199154	pulse	1.0	t		object	car-91.jpg	0.0	144.32073401429716	
28.0	99.40324300730708	pulse	1.0	t		object	car-91.jpg	0.0	145.0207283696127	
28.0	100.10323253294519	pulse	1.0	t		object	car-91.jpg	0.0	145.7207178952508	
28.0	100.80326311083718	pulse	1.0	t		object	car-91.jpg	0.0	146.4207484731428	
29.0	101.21982334852964	number	0.0		46	character	number-96.jpg	0.0	146.83730871083526	0.38325780422974276
29.0	101.50320766010873	pulse	0.0	t		character	number-96.jpg	0.0	147.12069302241434	
29.0	101.60308115275939	ISI	1.0		352	character	number-96.jpg	0.0	147.220566515065	3.0166376332649634
29.0	102.20318571526468	pulse	1.0	t		character	number-96.jpg	0.0	147.8206710775703	
29.0	102.90316437412957	pulse	1.0	t		character	number-96.jpg	0.0	148.5206497364352	
29.0	103.60315329605828	pulse	1.0	t		character	number-96.jpg	0.0	149.2206386583639	
29.0	104.30313406790674	pulse	1.0	t		character	number-96.jpg	0.0	149.92061943021235	
30.0	104.61971878602435	limb	0.0		46	body	limb-73.jpg	0.0	150.23720414832997	0.3832949323709727
30.0	105.00301371839532	ISI	1.0		233	body	limb-73.jpg	0.0	150.62049908070094	2.0166545371344
30.0	105.0594669062989	pulse	1.0	t		body	limb-73.jpg	0.0	150.6769522686045	
30.0	105.70310979878059	pulse	1.0	t		body	limb-73.jpg	0.0	151.3205951610862	
30.0	106.40309660772527	pulse	1.0	t		body	limb-73.jpg	0.0	152.0205819700309	
31.0	107.01966825552972	adult	0.0		46	face	adult-108.jpg	0.0	152.63715361783534	0.38332843825446616
31.0	107.10308402037981	pulse	0.0	t		face	adult-108.jpg	0.0	152.72056938268543	
31.0	107.40299669378419	ISI	1.0		354	face	adult-108.jpg	0.0	153.0204820560898	3.016637029555568
31.0	107.80313784109194	pulse	1.0	t		face	adult-108.jpg	0.0	153.42062320339755	
31.0	108.50313280011687	pulse	1.0	t		face	adult-108.jpg	0.0	154.1206181624225	
31.0	109.20309908293484	pulse	1.0	t		face	adult-108.jpg	0.0	154.82058444524046	
31.0	109.90308830671802	pulse	1.0	t		face	adult-108.jpg	0.0	155.52057366902363	
32.0	110.41963372333976	house	0.0		46	place	house-92.jpg	0.0	156.03711908564537	0.38325720051989265
32.0	110.60302198921681	pulse	0.0	t		place	house-92.jpg	0.0	156.22050735152243	
32.0	110.80289092385965	ISI	1.0		592	place	house-92.jpg	0.0	156.42037628616526	5.016595675447206
32.0	111.30299400727654	pulse	1.0	t		place	house-92.jpg	0.0	156.92047936958215	
32.0	112.00299107928458	pulse	1.0	t		place	house-92.jpg	0.0	157.6204764415902	
32.0	112.70296702145652	pulse	1.0	t		place	house-92.jpg	0.0	158.32045238376213	
32.0	113.40295624524015	pulse	1.0	t		place	house-92.jpg	0.0	159.02044160754576	
32.0	114.10292886700881	pulse	1.0	t		place	house-92.jpg	0.0	159.72041422931443	
32.0	114.80291235555114	pulse	1.0	t		place	house-92.jpg	0.0	160.42039771785676	
32.0	115.502919690623	pulse	1.0	t		place	house-92.jpg	0.0	161.12040505292862	
33.0	115.81948659930686	number	0.0		46	character	number-12.jpg	0.0	161.43697196161247	0.3832949323705179
33.0	116.20278153167737	ISI	1.0		353	character	number-12.jpg	0.0	161.820266893983	3.0166708372939866
33.0	116.25549383295538	pulse	1.0	t		character	number-12.jpg	0.0	161.872979195261	
33.0	116.90294703866857	pulse	1.0	t		character	number-12.jpg	0.0	162.5204324009742	
33.0	117.60293173462969	pulse	1.0	t		character	number-12.jpg	0.0	163.2204170969353	
33.0	118.30292005284855	pulse	1.0	t		character	number-12.jpg	0.0	163.92040541515416	
33.0	119.00289810800405	pulse	1.0	t		character	number-12.jpg	0.0	164.62038347030966	
34.0	119.21945236897136	limb	0.0		46	body	limb-49.jpg	0.0	164.83693773127698	0.3832575023748177
34.0	119.60270987134618	ISI	1.0		353	body	limb-49.jpg	0.0	165.2201952336518	3.0166382369748135
34.0	119.70282665897139	pulse	1.0	t		body	limb-49.jpg	0.0	165.320312021277	
34.0	120.40281135493251	pulse	1.0	t		body	limb-49.jpg	0.0	166.02029671723812	
34.0	121.1027912212171	pulse	1.0	t		body	limb-49.jpg	0.0	166.72027658352272	
34.0	121.80277169121064	pulse	1.0	t		body	limb-49.jpg	0.0	167.42025705351625	
34.0	122.50275910386517	pulse	1.0	t		body	limb-49.jpg	0.0	168.1202444661708	
35.0	122.61934810832099	number	0.0		46	character	number-104.jpg	0.0	168.2368334706266	0.38329131011323625
35.0	123.00263941843423	ISI	1.0		713	character	number-104.jpg	0.0	168.62012478073984	6.016598090285697
35.0	123.2027489313582	pulse	1.0	t		character	number-104.jpg	0.0	168.82023429366382	
35.0	123.9027402681254	pulse	1.0	t		character	number-104.jpg	0.0	169.520225630431	
35.0	124.60271077691095	pulse	1.0	t		character	number-104.jpg	0.0	170.22019613921657	
35.0	125.30276218278459	pulse	1.0	t		character	number-104.jpg	0.0	170.9202475450902	
35.0	126.002757443664	pulse	1.0	t		character	number-104.jpg	0.0	171.6202428059696	
35.0	126.70273972478662	pulse	1.0	t		character	number-104.jpg	0.0	172.32022508709224	
35.0	127.40274283389135	pulse	1.0	t		character	number-104.jpg	0.0	173.02022819619697	
35.0	128.1027145500957	pulse	1.0	t		character	number-104.jpg	0.0	173.7201999124013	
35.0	128.80269562379954	pulse	1.0	t		character	number-104.jpg	0.0	174.42018098610515	
36.0	129.01923750871993	car	0.0		46	object	car-134.jpg	0.0	174.63672287102554	0.38327410438887455
36.0	129.4025116131088	ISI	1.0		236	object	car-134.jpg	0.0	175.01999697541441	2.01665514084425
36.0	129.50262296734718	pulse	1.0	t		object	car-134.jpg	0.0	175.1201083296528	
36.0	130.2026037391961	pulse	1.0	t		object	car-134.jpg	0.0	175.8200891015017	
36.0	130.90258602031872	pulse	1.0	t		object	car-134.jpg	0.0	176.52007138262434	
37.0	131.41916675395305	car	0.0		46	object	car-134.jpg	1.0	177.03665211625867	0.3832901026939908
37.0	131.602577055231	pulse	0.0	t		object	car-134.jpg	1.0	177.2200624175366	
37.0	131.80245685664704	ISI	1.0		232	object	car-134.jpg	1.0	177.41994221895266	2.0166605742301726
37.0	131.9359029428124	response	1.0	b		object	car-134.jpg	1.0	177.553388305118	
37.0	132.3025469603067	pulse	1.0	t		object	car-134.jpg	1.0	177.92003232261231	
37.0	133.00254705086354	pulse	1.0	t		object	car-134.jpg	1.0	178.62003241316916	
37.0	133.70255680077344	pulse	1.0	t		object	car-134.jpg	1.0	179.32004216307905	
38.0	133.8191174308772	limb	0.0		46	body	limb-110.jpg	0.0	179.43660279318283	0.38329583793574784
38.0	134.20241326881296	ISI	1.0		355	body	limb-110.jpg	0.0	179.81989863111858	3.0166623853592682
38.0	134.40252036689844	pulse	1.0	t		body	limb-110.jpg	0.0	180.02000572920406	
38.0	135.1025784135777	pulse	1.0	t		body	limb-110.jpg	0.0	180.72006377588332	
38.0	135.80256431695807	pulse	1.0	t		body	limb-110.jpg	0.0	181.42004967926368	
38.0	136.50254659808115	pulse	1.0	t		body	limb-110.jpg	0.0	182.12003196038677	
39.0	137.21907565417223	number	0.0		45	character	number-122.jpg	0.0	182.83656101647784	0.3832940268061975
39.0	137.2109651173564	pulse	0.0	t		character	number-122.jpg	0.0	182.82845047966202	
39.0	137.60236968097843	ISI	1.0		231	character	number-122.jpg	0.0	183.21985504328404	2.0166602723757023
39.0	137.90251840484189	pulse	1.0	t		character	number-122.jpg	0.0	183.5200037671475	
39.0	138.60249947854572	pulse	1.0	t		character	number-122.jpg	0.0	184.21998484085134	
39.0	139.3024805522491	pulse	1.0	t		character	number-122.jpg	0.0	184.91996591455472	
40.0	139.61902995335413	house	0.0		46	place	house-130.jpg	0.0	185.23651531565974	0.3832593135039133
40.0	140.00228926685804	ISI	1.0		353	place	house-130.jpg	0.0	185.61977462916366	3.016614390444829
40.0	140.0518508076575	pulse	1.0	t		place	house-130.jpg	0.0	185.66933616996312	
40.0	140.70238776208134	pulse	1.0	t		place	house-130.jpg	0.0	186.31987312438696	
40.0	141.40237517473588	pulse	1.0	t		place	house-130.jpg	0.0	187.0198605370415	
40.0	142.10235443731062	pulse	1.0	t		place	house-130.jpg	0.0	187.71983979961624	
40.0	142.80233792585295	pulse	1.0	t		place	house-130.jpg	0.0	188.41982328815857	
41.0	143.01890365730287	car	0.0		46	object	car-1.jpg	0.0	188.6363890196085	0.383318175191107
41.0	143.40222183249398	ISI	1.0		473	object	car-1.jpg	0.0	189.0197071947996	4.016649405602493
41.0	143.50233348858728	pulse	1.0	t		object	car-1.jpg	0.0	189.1198188508929	
41.0	144.20230520479163	pulse	1.0	t		object	car-1.jpg	0.0	189.81979056709724	
41.0	144.90229322115601	pulse	1.0	t		object	car-1.jpg	0.0	190.51977858346163	
41.0	145.6022794263913	pulse	1.0	t		object	car-1.jpg	0.0	191.21976478869692	
41.0	146.30234803798885	pulse	1.0	t		object	car-1.jpg	0.0	191.91983340029446	
41.0	147.00232971540208	pulse	1.0	t		object	car-1.jpg	0.0	192.6198150777077	
42.0	147.41887123809647	house	0.0		46	place	house-141.jpg	0.0	193.0363566004021	0.38325840793959287
42.0	147.70224438104788	pulse	0.0	t		place	house-141.jpg	0.0	193.3197297433535	
42.0	147.80212964603606	ISI	1.0		234	place	house-141.jpg	0.0	193.41961500834168	2.016651820440984
42.0	148.40223541596015	pulse	1.0	t		place	house-141.jpg	0.0	194.01972077826576	
42.0	149.10221890450248	pulse	1.0	t		place	house-141.jpg	0.0	194.7197042668081	
43.0	149.81878146647705	car	0.0		45	object	car-83.jpg	0.0	195.43626682878266	0.3832967434996135
43.0	149.81061870877966	pulse	0.0	t		object	car-83.jpg	0.0	195.42810407108527	
43.0	150.20207820997666	ISI	1.0		473	object	car-83.jpg	0.0	195.81956357228228	4.0166506130217385
43.0	150.50218618344115	pulse	1.0	t		object	car-83.jpg	0.0	196.11967154574677	
43.0	151.20216122004877	pulse	1.0	t		object	car-83.jpg	0.0	196.81964658235438	
43.0	151.90216191431455	pulse	1.0	t		object	car-83.jpg	0.0	197.51964727662016	
43.0	152.6021348379386	pulse	1.0	t		object	car-83.jpg	0.0	198.2196202002442	
43.0	153.30212526914102	pulse	1.0	t		object	car-83.jpg	0.0	198.91961063144663	
43.0	154.00218754178786	pulse	1.0	t		object	car-83.jpg	0.0	199.61967290409348	
44.0	154.2187288229984	house	0.0		46	place	house-21.jpg	0.0	199.83621418530402	0.3832572005203474
44.0	154.60198602351875	ISI	1.0		834	place	house-21.jpg	0.0	200.21947138582436	7.016590242060374
44.0	154.70210311299843	pulse	1.0	t		place	house-21.jpg	0.0	200.31958847530404	
44.0	155.40209867573276	pulse	1.0	t		place	house-21.jpg	0.0	201.01958403803837	
44.0	156.1020646566958	pulse	1.0	t		place	house-21.jpg	0.0	201.71955001900142	
44.0	156.8020478433832	pulse	1.0	t		place	house-21.jpg	0.0	202.41953320568882	
44.0	157.5020346523279	pulse	1.0	t		place	house-21.jpg	0.0	203.1195200146335	
44.0	158.20202447982092	pulse	1.0	t		place	house-21.jpg	0.0	203.81950984212654	
44.0	158.90200585537923	pulse	1.0	t		place	house-21.jpg	0.0	204.51949121768484	
44.0	159.60199236246945	pulse	1.0	t		place	house-21.jpg	0.0	205.21947772477506	
44.0	160.30204376834308	pulse	1.0	t		place	house-21.jpg	0.0	205.9195291306487	
44.0	161.0020296717239	pulse	1.0	t		place	house-21.jpg	0.0	206.61951503402952	
45.0	161.61857626557912	limb	0.0		46	body	limb-138.jpg	0.0	207.23606162788474	0.38325810608421307
45.0	161.70195641156215	pulse	0.0	t		body	limb-138.jpg	0.0	207.31944177386777	
45.0	162.00183437166334	ISI	1.0		353	body	limb-138.jpg	0.0	207.61931973396895	3.0166361239912476
45.0	162.4021086369412	pulse	1.0	t		body	limb-138.jpg	0.0	208.0195939992468	
45.0	163.1019227849365	pulse	1.0	t		body	limb-138.jpg	0.0	208.71940814724212	
45.0	163.80190627347838	pulse	1.0	t		body	limb-138.jpg	0.0	209.419391635784	
45.0	164.50190243992256	pulse	1.0	t		body	limb-138.jpg	0.0	210.11938780222818	
46.0	165.01847049565458	house	0.0		46	place	house-83.jpg	0.0	210.6359558579602	0.38331787333618195
46.0	165.2018817024973	pulse	0.0	t		place	house-83.jpg	0.0	210.81936706480292	
46.0	165.40178836899076	ISI	1.0		233	place	house-83.jpg	0.0	211.01927373129638	2.016634312862152
46.0	165.90186579474903	pulse	1.0	t		place	house-83.jpg	0.0	211.51935115705464	
46.0	166.60184807587166	pulse	1.0	t		place	house-83.jpg	0.0	212.21933343817727	
46.0	167.30183186626846	pulse	1.0	t		place	house-83.jpg	0.0	212.91931722857407	
47.0	167.41842268185292	number	0.0		46	character	number-38.jpg	0.0	213.03590804415853	0.38332330672301396
47.0	167.80174598857593	ISI	1.0		354	character	number-38.jpg	0.0	213.41923135088155	3.0249664111061065
47.0	168.0018917240768	pulse	1.0	t		character	number-38.jpg	0.0	213.61937708638243	
47.0	168.70187491076422	pulse	1.0	t		character	number-38.jpg	0.0	214.31936027306983	
47.0	169.40185960672534	pulse	1.0	t		character	number-38.jpg	0.0	215.01934496903095	
47.0	170.10185184905686	pulse	1.0	t		character	number-38.jpg	0.0	215.71933721136247	
48.0	170.82671239968204	limb	0.0		44	body	limb-36.jpg	0.0	216.44419776198765	0.3749640415462636
48.0	170.81162086673976	pulse	0.0	t		body	limb-36.jpg	0.0	216.42910622904537	
48.0	171.2016764412283	ISI	1.0		233	body	limb-36.jpg	0.0	216.81916180353392	2.0166632909235886
48.0	171.50182908920442	pulse	1.0	t		body	limb-36.jpg	0.0	217.11931445151004	
48.0	172.2017980887158	pulse	1.0	t		body	limb-36.jpg	0.0	217.81928345102142	
48.0	172.90179033104687	pulse	1.0	t		body	limb-36.jpg	0.0	218.51927569335248	
49.0	173.2183397321519	house	0.0		46	place	house-18.jpg	0.0	218.8358250944575	0.38325629495557223
49.0	173.60159602710746	ISI	1.0		594	place	house-18.jpg	0.0	219.21908138941308	5.016589940205904
49.0	173.64927882358734	pulse	1.0	t		place	house-18.jpg	0.0	219.26676418589295	
49.0	174.30169059821856	pulse	1.0	t		place	house-18.jpg	0.0	219.91917596052417	
49.0	175.0016722756318	pulse	1.0	t		place	house-18.jpg	0.0	220.6191576379374	
49.0	175.70166240497974	pulse	1.0	t		place	house-18.jpg	0.0	221.31914776728536	
49.0	176.40164317682866	pulse	1.0	t		place	house-18.jpg	0.0	222.01912853913427	
49.0	177.10162998577334	pulse	1.0	t		place	house-18.jpg	0.0	222.71911534807896	
49.0	177.80161558729924	pulse	1.0	t		place	house-18.jpg	0.0	223.41910094960485	
49.0	178.50160420737302	pulse	1.0	t		place	house-18.jpg	0.0	224.11908956967864	
50.0	178.61818596731337	limb	0.0		46	body	limb-106.jpg	0.0	224.23567132961898	0.383295234225443
50.0	179.0014812015388	ISI	1.0		233	body	limb-106.jpg	0.0	224.61896656384442	2.0166952875333664
50.0	179.20159252559188	pulse	1.0	t		body	limb-106.jpg	0.0	224.8190778878975	
50.0	179.90164393146551	pulse	1.0	t		body	limb-106.jpg	0.0	225.51912929377113	
50.0	180.60162862742663	pulse	1.0	t		body	limb-106.jpg	0.0	226.21911398973225	
51.0	181.01817648907218	adult	0.0		46	face	adult-126.jpg	0.0	226.6356618513778	0.3832572005203474
51.0	181.30154691533062	pulse	0.0	t		face	adult-126.jpg	0.0	226.91903227763623	
51.0	181.40143368959252	ISI	1.0		230	face	adult-126.jpg	0.0	227.01891905189814	2.01665393342455
51.0	182.00153342242083	pulse	1.0	t		face	adult-126.jpg	0.0	227.61901878472645	
51.0	182.70152475918758	pulse	1.0	t		face	adult-126.jpg	0.0	228.3190101214932	
52.0	183.41808762301707	number	0.0		45	character	number-89.jpg	0.0	229.0355729853227	0.38329553608036804
52.0	183.40991580967557	pulse	0.0	t		character	number-89.jpg	0.0	229.02740117198118	
52.0	183.80138315909744	ISI	1.0		353	character	number-89.jpg	0.0	229.41886852140306	3.0166364258461726
52.0	184.10150109377082	pulse	1.0	t		character	number-89.jpg	0.0	229.71898645607644	
52.0	184.80146616916954	pulse	1.0	t		character	number-89.jpg	0.0	230.41895153147516	
52.0	185.50145509109825	pulse	1.0	t		character	number-89.jpg	0.0	231.11894045340387	
52.0	186.20146363358936	pulse	1.0	t		character	number-89.jpg	0.0	231.81894899589497	
53.0	186.8180195849436	adult	0.0		46	face	adult-135.jpg	0.0	232.43550494724923	0.38332572156105016
53.0	186.90147368535418	pulse	0.0	t		face	adult-135.jpg	0.0	232.5189590476598	
53.0	187.20134530650466	ISI	1.0		353	face	adult-135.jpg	0.0	232.81883066881028	3.0166388406846636
53.0	187.60149037792507	pulse	1.0	t		face	adult-135.jpg	0.0	233.2189757402307	
53.0	188.3014883554979	pulse	1.0	t		face	adult-135.jpg	0.0	233.9189737178035	
53.0	189.00145644944496	pulse	1.0	t		face	adult-135.jpg	0.0	234.61894181175057	
53.0	189.70144295653472	pulse	1.0	t		face	adult-135.jpg	0.0	235.31892831884034	
54.0	190.21798414718933	house	0.0		46	place	house-143.jpg	0.0	235.83546950949494	0.38325810608421307
54.0	190.4013636592772	pulse	0.0	t		place	house-143.jpg	0.0	236.0188490215828	
54.0	190.60124225327354	ISI	1.0		233	place	house-143.jpg	0.0	236.21872761557916	2.016657253827816
54.0	191.10134684596414	pulse	1.0	t		place	house-143.jpg	0.0	236.71883220826976	
54.0	191.8013288252323	pulse	1.0	t		place	house-143.jpg	0.0	237.41881418753792	
54.0	192.50131291748403	pulse	1.0	t		place	house-143.jpg	0.0	238.11879827978964	
55.0	192.61789950710136	house	0.0		46	place	house-129.jpg	0.0	238.23538486940697	0.38329342309680214
55.0	193.00119293019816	ISI	1.0		235	place	house-129.jpg	0.0	238.61867829250377	2.0166596686658522
55.0	193.20130546167002	pulse	1.0	t		place	house-129.jpg	0.0	238.81879082397563	
55.0	193.90128230940627	pulse	1.0	t		place	house-129.jpg	0.0	239.51876767171188	
55.0	194.60126519423875	pulse	1.0	t		place	house-129.jpg	0.0	240.21875055654436	
56.0	195.017852598864	adult	0.0		46	face	adult-143.jpg	0.0	240.63533796116963	0.3832901026939908
56.0	195.3012586439895	pulse	0.0	t		face	adult-143.jpg	0.0	240.91874400629513	
56.0	195.401142701558	ISI	1.0		354	face	adult-143.jpg	0.0	241.01862806386362	3.016674459551723
56.0	196.00124635849897	pulse	1.0	t		face	adult-143.jpg	0.0	241.6187317208046	
56.0	196.70129474582473	pulse	1.0	t		face	adult-143.jpg	0.0	242.31878010813034	
56.0	197.4012782343666	pulse	1.0	t		face	adult-143.jpg	0.0	243.01876359667222	
56.0	198.10127953234223	pulse	1.0	t		face	adult-143.jpg	0.0	243.71876489464785	
57.0	198.41781716110972	car	0.0		46	object	car-109.jpg	0.0	244.03530252341534	0.3832584079391381
57.0	198.80107556904886	ISI	1.0		228	object	car-109.jpg	0.0	244.41856093135448	2.01665514084425
57.0	198.89254361273697	pulse	1.0	t		object	car-109.jpg	0.0	244.5100289750426	
57.0	199.50118161064302	pulse	1.0	t		object	car-109.jpg	0.0	245.11866697294863	
57.0	200.20114970458962	pulse	1.0	t		object	car-109.jpg	0.0	245.81863506689524	
58.0	200.8177307098931	number	0.0		46	character	number-42.jpg	0.0	246.43521607219873	0.3832940268061975
58.0	200.90114738030752	pulse	0.0	t		character	number-42.jpg	0.0	246.51863274261314	
58.0	201.2010247366993	ISI	1.0		233	character	number-42.jpg	0.0	246.81851009900492	2.0166560464085705
58.0	201.60113086884985	pulse	1.0	t		character	number-42.jpg	0.0	247.21861623115547	
58.0	202.30110862215042	pulse	1.0	t		character	number-42.jpg	0.0	247.91859398445604	
58.0	203.00110146819134	pulse	1.0	t		character	number-42.jpg	0.0	248.61858683049695	
59.0	203.21768078310788	car	0.0		46	object	car-126.jpg	0.0	248.8351661454135	0.38329553608036804
59.0	203.60097631918825	ISI	1.0		234	object	car-126.jpg	0.0	249.21846168149386	2.0166886467277436
59.0	203.7010891827008	pulse	1.0	t		object	car-126.jpg	0.0	249.3185745450064	
59.0	204.4010648230178	pulse	1.0	t		object	car-126.jpg	0.0	250.01855018532342	
59.0	205.1011177381656	pulse	1.0	t		object	car-126.jpg	0.0	250.71860310047123	
60.0	205.617664965916	adult	0.0		46	face	adult-57.jpg	0.0	251.2351503282216	0.38325931350345854
60.0	205.80104206316537	pulse	0.0	t		face	adult-57.jpg	0.0	251.41852742547098	
60.0	206.00092427941945	ISI	1.0		353	face	adult-57.jpg	0.0	251.61840964172507	3.0166379351198884
60.0	206.50104215372176	pulse	1.0	t		face	adult-57.jpg	0.0	252.11852751602737	
60.0	207.20100602170123	pulse	1.0	t		face	adult-57.jpg	0.0	252.81849138400685	
60.0	207.9009913213722	pulse	1.0	t		face	adult-57.jpg	0.0	253.51847668367782	
60.0	208.60097994144598	pulse	1.0	t		face	adult-57.jpg	0.0	254.2184653037516	
61.0	209.01756221453934	limb	0.0		46	body	limb-131.jpg	0.0	254.63504757684495	0.3832925175324817
61.0	209.30096825966484	pulse	0.0	t		body	limb-131.jpg	0.0	254.91845362197046	
61.0	209.40085473207182	ISI	1.0		233	body	limb-131.jpg	0.0	255.01834009437744	2.016652122295909
61.0	210.00095748344847	pulse	1.0	t		body	limb-131.jpg	0.0	255.6184428457541	
61.0	210.7009373497326	pulse	1.0	t		body	limb-131.jpg	0.0	256.3184227120382	
62.0	211.41750685436773	number	0.0		45	character	number-129.jpg	0.0	257.03499221667334	0.3833290419643163
62.0	211.41009058360896	pulse	0.0	t		character	number-129.jpg	0.0	257.0275759459146	
62.0	211.80083589633205	ISI	1.0		713	character	number-129.jpg	0.0	257.41832125863766	6.016575451174958
62.0	212.10097767753496	pulse	1.0	t		character	number-129.jpg	0.0	257.7184630398406	
62.0	212.8009735421242	pulse	1.0	t		character	number-129.jpg	0.0	258.4184589044298	
62.0	213.50095038986046	pulse	1.0	t		character	number-129.jpg	0.0	259.1184357521661	
62.0	214.2009320672737	pulse	1.0	t		character	number-129.jpg	0.0	259.8184174295793	
62.0	214.90092219662165	pulse	1.0	t		character	number-129.jpg	0.0	260.51840755892727	
62.0	215.60090568516353	pulse	1.0	t		character	number-129.jpg	0.0	261.21839104746914	
62.0	216.30089611636595	pulse	1.0	t		character	number-129.jpg	0.0	261.91838147867156	
62.0	217.00087447337637	pulse	1.0	t		character	number-129.jpg	0.0	262.618359835682	
62.0	217.70086007490227	pulse	1.0	t		character	number-129.jpg	0.0	263.3183454372079	
63.0	217.817411347507	number	0.0		46	character	number-143.jpg	0.0	263.4348967098126	0.38326021906777896
63.0	218.20067156657478	ISI	1.0		233	character	number-143.jpg	0.0	263.8181569288804	2.0166632909240434
63.0	218.4007810794992	pulse	1.0	t		character	number-143.jpg	0.0	264.0182664418048	
63.0	219.1007533994134	pulse	1.0	t		character	number-143.jpg	0.0	264.718238761719	
63.0	219.80074745287357	pulse	1.0	t		character	number-143.jpg	0.0	265.4182328151792	
64.0	220.21733485749883	car	0.0		46	object	car-44.jpg	0.0	265.83482021980444	0.3832879897104249
64.0	220.5007544860905	pulse	0.0	t		object	car-44.jpg	0.0	266.1182398483961	
64.0	220.60062284720925	ISI	1.0		233	object	car-44.jpg	0.0	266.21810820951487	2.016654235279475
64.0	221.20073374866524	pulse	1.0	t		object	car-44.jpg	0.0	266.81821911097086	
64.0	221.90070787970853	pulse	1.0	t		object	car-44.jpg	0.0	267.51819324201415	
65.0	222.61727708248873	limb	0.0		45	body	limb-5.jpg	0.0	268.23476244479434	0.38329553608036804
65.0	222.6091454158368	pulse	0.0	t		body	limb-5.jpg	0.0	268.2266307781424	
65.0	223.0005726185691	ISI	1.0		239	body	limb-5.jpg	0.0	268.6180579808747	2.0000262613684754
65.0	223.30067938461434	pulse	1.0	t		body	limb-5.jpg	0.0	268.91816474691996	
65.0	224.00072958306873	pulse	1.0	t		body	limb-5.jpg	0.0	269.61821494537435	
65.0	224.70073299402839	pulse	1.0	t		body	limb-5.jpg	0.0	270.318218356334	
66.0	225.00059887993757	baseline	0.0		708		baseline	0.0	270.6180842422432	5.899879590117052
66.0	225.40070591765198	pulse	0.0	t			baseline	0.0	271.0181912799576	
66.0	226.10069272659712	pulse	0.0	t			baseline	0.0	271.71817808890273	
66.0	226.8006698761883	pulse	0.0	t			baseline	0.0	272.4181552384939	
66.0	227.50066030739072	pulse	0.0	t			baseline	0.0	273.11814566969633	
66.0	228.20065888867293	pulse	0.0	t			baseline	0.0	273.81814425097855	
66.0	228.90063060487773	pulse	0.0	t			baseline	0.0	274.51811596718335	
66.0	229.60061198043604	pulse	0.0	t			baseline	0.0	275.21809734274166	
66.0	230.3005939597042	pulse	0.0	t			baseline	0.0	275.9180793220098	
66.0	230.90047847005462	ISI	1.0		12		baseline	0.0	276.51796383236024	0.10000238465318034
