trial_nr	onset	event_type	phase	response	nr_frames	face_age	face_sex	face_eth	attractiveness	expression	face_id	sub_id	ses	run	trial_type	catch	rating_type	onset_abs	duration
-1.0	0.05988700871239416	fix	0.0		713													88.90413429998443	5.958016760341707
-1.0	0.7014261557051213	pulse	0.0	t														89.54567344697716	
-1.0	1.4014184885163559	pulse	0.0	t														90.2456657797884	
-1.0	2.101389993171324	pulse	0.0	t														90.94563728444336	
-1.0	2.801395004018559	pulse	0.0	t														91.6456422952906	
-1.0	3.5013743569579674	pulse	0.0	t														92.34562164823001	
-1.0	4.201360652630683	pulse	0.0	t														93.04560794390272	
-1.0	4.901354494737461	pulse	0.0	t														93.7456017860095	
-1.0	5.601345318282256	pulse	0.0	t														94.4455926095543	
0.0	6.017903769054101	face	0.0		144	19.0	female	white	4.298846000795861	neutral	100	sub-17	2.0	1.0	100_neutral	0.0		94.86215106032614	1.233317093399819
0.0	6.301356969968765	pulse	0.0	t		19.0	female	white	4.298846000795861	neutral	100	sub-17	2.0	1.0	100_neutral	0.0		95.1456042612408	
0.0	7.00135141579085	pulse	0.0	t		19.0	female	white	4.298846000795861	neutral	100	sub-17	2.0	1.0	100_neutral	0.0		95.84559870706289	
0.0	7.25122086245392	fix	1.0		445	19.0	female	white	4.298846000795861	neutral	100	sub-17	2.0	1.0	100_neutral	0.0		96.09546815372596	3.758289458346553
0.0	7.701326542737661	pulse	1.0	t		19.0	female	white	4.298846000795861	neutral	100	sub-17	2.0	1.0	100_neutral	0.0		96.5455738340097	
0.0	8.40133064800466	pulse	1.0	t		19.0	female	white	4.298846000795861	neutral	100	sub-17	2.0	1.0	100_neutral	0.0		97.2455779392767	
0.0	9.101318754823296	pulse	1.0	t		19.0	female	white	4.298846000795861	neutral	100	sub-17	2.0	1.0	100_neutral	0.0		97.94556604609534	
0.0	9.801299617058248	pulse	1.0	t		19.0	female	white	4.298846000795861	neutral	100	sub-17	2.0	1.0	100_neutral	0.0		98.64554690833029	
0.0	10.501308250182774	pulse	1.0	t		19.0	female	white	4.298846000795861	neutral	100	sub-17	2.0	1.0	100_neutral	0.0		99.34555554145481	
1.0	11.009510320800473	face	0.0		146	27.0	male	black	3.5523278949462798	neutral	042	sub-17	2.0	1.0	042_neutral	1.0	dominance	99.85375761207251	1.2416640556039056
1.0	11.20130028114363	pulse	0.0	t		27.0	male	black	3.5523278949462798	neutral	042	sub-17	2.0	1.0	042_neutral	1.0	dominance	100.04554757241567	
1.0	11.901279935947969	pulse	0.0	t		27.0	male	black	3.5523278949462798	neutral	042	sub-17	2.0	1.0	042_neutral	1.0	dominance	100.74552722722001	
1.0	12.251174376404379	fix	1.0		177	27.0	male	black	3.5523278949462798	neutral	042	sub-17	2.0	1.0	042_neutral	1.0	dominance	101.09542166767642	1.5083273414638825
1.0	12.601284946780652	pulse	1.0	t		27.0	male	black	3.5523278949462798	neutral	042	sub-17	2.0	1.0	042_neutral	1.0	dominance	101.44553223805269	
1.0	13.301275770325447	pulse	1.0	t		27.0	male	black	3.5523278949462798	neutral	042	sub-17	2.0	1.0	042_neutral	1.0	dominance	102.14552306159749	
1.0	13.759501717868261	rating	2.0		293	27.0	male	black	3.5523278949462798	neutral	042	sub-17	2.0	1.0	042_neutral	1.0	dominance	102.6037490091403	2.4916168149065925
1.0	14.001259952987311	pulse	2.0	t		27.0	male	black	3.5523278949462798	neutral	042	sub-17	2.0	1.0	042_neutral	1.0	dominance	102.84550724425935	
1.0	14.701248663521255	pulse	2.0	t		27.0	male	black	3.5523278949462798	neutral	042	sub-17	2.0	1.0	042_neutral	1.0	dominance	103.5454959547933	
1.0	14.817907813936472	response	2.0	g		27.0	male	black	3.5523278949462798	neutral	042	sub-17	2.0	1.0	042_neutral	1.0	dominance	103.66215510520851	
1.0	15.401242203777656	pulse	2.0	t		27.0	male	black	3.5523278949462798	neutral	042	sub-17	2.0	1.0	042_neutral	1.0	dominance	104.2454894950497	
1.0	16.10123061244667	pulse	2.0	t		27.0	male	black	3.5523278949462798	neutral	042	sub-17	2.0	1.0	042_neutral	1.0	dominance	104.94547790371871	
1.0	16.251118532774854	fix	3.0		444	27.0	male	black	3.5523278949462798	neutral	042	sub-17	2.0	1.0	042_neutral	1.0	dominance	105.0953658240469	3.7666228369635064
1.0	16.801224756403826	pulse	3.0	t		27.0	male	black	3.5523278949462798	neutral	042	sub-17	2.0	1.0	042_neutral	1.0	dominance	105.64547204767587	
1.0	17.501214070653077	pulse	3.0	t		27.0	male	black	3.5523278949462798	neutral	042	sub-17	2.0	1.0	042_neutral	1.0	dominance	106.34546136192512	
1.0	18.20123175950721	pulse	3.0	t		27.0	male	black	3.5523278949462798	neutral	042	sub-17	2.0	1.0	042_neutral	1.0	dominance	107.04547905077925	
1.0	18.901192095436272	pulse	3.0	t		27.0	male	black	3.5523278949462798	neutral	042	sub-17	2.0	1.0	042_neutral	1.0	dominance	107.74543938670831	
1.0	19.601186843108735	pulse	3.0	t		27.0	male	black	3.5523278949462798	neutral	042	sub-17	2.0	1.0	042_neutral	1.0	dominance	108.44543413438078	
2.0	20.01774136973836	face	0.0		145	26.0	male	white	2.7966573816155993	neutral	117	sub-17	2.0	1.0	117_neutral	0.0		108.8619886610104	1.233321621271898
2.0	20.301210267251008	pulse	0.0	t		26.0	male	white	2.7966573816155993	neutral	117	sub-17	2.0	1.0	117_neutral	0.0		109.14545755852305	
2.0	21.001178149614134	pulse	0.0	t		26.0	male	white	2.7966573816155993	neutral	117	sub-17	2.0	1.0	117_neutral	0.0		109.84542544088617	
2.0	21.251062991010258	fix	1.0		445	26.0	male	white	2.7966573816155993	neutral	117	sub-17	2.0	1.0	117_neutral	0.0		110.0953102822823	3.758278289620648
2.0	21.70115448399156	pulse	1.0	t		26.0	male	white	2.7966573816155993	neutral	117	sub-17	2.0	1.0	117_neutral	0.0		110.5454017752636	
2.0	22.40116372083139	pulse	1.0	t		26.0	male	white	2.7966573816155993	neutral	117	sub-17	2.0	1.0	117_neutral	0.0		111.24541101210343	
2.0	23.101150016504107	pulse	1.0	t		26.0	male	white	2.7966573816155993	neutral	117	sub-17	2.0	1.0	117_neutral	0.0		111.94539730777615	
2.0	23.801144462326192	pulse	1.0	t		26.0	male	white	2.7966573816155993	neutral	117	sub-17	2.0	1.0	117_neutral	0.0		112.64539175359823	
2.0	24.501152189885033	pulse	1.0	t		26.0	male	white	2.7966573816155993	neutral	117	sub-17	2.0	1.0	117_neutral	0.0		113.34539948115707	
3.0	25.009341280630906	face	0.0		146	21.0	male	east_asian/white	3.501790688420215	smiling	036	sub-17	2.0	1.0	036_smiling	0.0		113.85358857190295	1.2416667723155115
3.0	25.201145126411575	pulse	0.0	t		21.0	male	east_asian/white	3.501790688420215	smiling	036	sub-17	2.0	1.0	036_smiling	0.0		114.04539241768362	
3.0	25.90112327193492	pulse	0.0	t		21.0	male	east_asian/white	3.501790688420215	smiling	036	sub-17	2.0	1.0	036_smiling	0.0		114.74537056320696	
3.0	26.251008052946418	fix	1.0		445	21.0	male	east_asian/white	3.501790688420215	smiling	036	sub-17	2.0	1.0	036_smiling	0.0		115.09525534421846	3.758340774118551
3.0	26.601114095465164	pulse	1.0	t		21.0	male	east_asian/white	3.501790688420215	smiling	036	sub-17	2.0	1.0	036_smiling	0.0		115.4453613867372	
3.0	27.30110612642602	pulse	1.0	t		21.0	male	east_asian/white	3.501790688420215	smiling	036	sub-17	2.0	1.0	036_smiling	0.0		116.14535341769806	
3.0	28.0010957425402	pulse	1.0	t		21.0	male	east_asian/white	3.501790688420215	smiling	036	sub-17	2.0	1.0	036_smiling	0.0		116.84534303381224	
3.0	28.701088679066743	pulse	1.0	t		21.0	male	east_asian/white	3.501790688420215	smiling	036	sub-17	2.0	1.0	036_smiling	0.0		117.54533597033878	
3.0	29.40108282303845	pulse	1.0	t		21.0	male	east_asian/white	3.501790688420215	smiling	036	sub-17	2.0	1.0	036_smiling	0.0		118.24533011431049	
4.0	30.00934882706497	face	0.0		146	24.0	female	black	3.0955033824114606	neutral	099	sub-17	2.0	1.0	099_neutral	0.0		118.85359611833701	1.241601269255625
4.0	30.101077872575843	pulse	0.0	t		24.0	female	black	3.0955033824114606	neutral	099	sub-17	2.0	1.0	099_neutral	0.0		118.94532516384788	
4.0	30.801097674426273	pulse	0.0	t		24.0	female	black	3.0955033824114606	neutral	099	sub-17	2.0	1.0	099_neutral	0.0		119.64534496569831	
4.0	31.250950096320594	fix	1.0		444	24.0	female	black	3.0955033824114606	neutral	099	sub-17	2.0	1.0	099_neutral	0.0		120.09519738759263	3.76662193138327
4.0	31.501061028931872	pulse	1.0	t		24.0	female	black	3.0955033824114606	neutral	099	sub-17	2.0	1.0	099_neutral	0.0		120.34530832020391	
4.0	32.201060304476414	pulse	1.0	t		24.0	female	black	3.0955033824114606	neutral	099	sub-17	2.0	1.0	099_neutral	0.0		121.04530759574845	
4.0	32.90104388342297	pulse	1.0	t		24.0	female	black	3.0955033824114606	neutral	099	sub-17	2.0	1.0	099_neutral	0.0		121.74529117469501	
4.0	33.601035008818144	pulse	1.0	t		24.0	female	black	3.0955033824114606	neutral	099	sub-17	2.0	1.0	099_neutral	0.0		122.44528230009018	
4.0	34.301027039779	pulse	1.0	t		24.0	female	black	3.0955033824114606	neutral	099	sub-17	2.0	1.0	099_neutral	0.0		123.14527433105104	
5.0	35.017572027703864	face	0.0		146	40.0	male	black	2.408674890569041	smiling	061	sub-17	2.0	1.0	061_smiling	0.0		123.8618193189759	1.2333352048590314
5.0	35.003757823389606	pulse	0.0	t		40.0	male	black	2.408674890569041	smiling	061	sub-17	2.0	1.0	061_smiling	0.0		123.84800511466165	
5.0	35.701027100149076	pulse	0.0	t		40.0	male	black	2.408674890569041	smiling	061	sub-17	2.0	1.0	061_smiling	0.0		124.54527439142112	
5.0	36.250907232562895	fix	1.0		443	40.0	male	black	2.408674890569041	smiling	061	sub-17	2.0	1.0	061_smiling	0.0		125.09515452383494	3.7665989902161527
5.0	36.40101762182894	pulse	1.0	t		40.0	male	black	2.408674890569041	smiling	061	sub-17	2.0	1.0	061_smiling	0.0		125.24526491310098	
5.0	37.100998182213516	pulse	1.0	t		40.0	male	black	2.408674890569041	smiling	061	sub-17	2.0	1.0	061_smiling	0.0		125.94524547348556	
5.0	37.800991722455365	pulse	1.0	t		40.0	male	black	2.408674890569041	smiling	061	sub-17	2.0	1.0	061_smiling	0.0		126.6452390137274	
5.0	38.50098013113893	pulse	1.0	t		40.0	male	black	2.408674890569041	smiling	061	sub-17	2.0	1.0	061_smiling	0.0		127.34522742241097	
5.0	39.200983934541	pulse	1.0	t		40.0	male	black	2.408674890569041	smiling	061	sub-17	2.0	1.0	061_smiling	0.0		128.04523122581304	
5.0	39.900968419067794	pulse	1.0	t		40.0	male	black	2.408674890569041	smiling	061	sub-17	2.0	1.0	061_smiling	0.0		128.74521571033983	
6.0	40.01750622277905	face	0.0		146	31.0	female	east_asian	3.395941106247513	neutral	087	sub-17	2.0	1.0	087_neutral	0.0		128.8617535140511	1.233343355008401
6.0	40.600974033615785	pulse	0.0	t		31.0	female	east_asian	3.395941106247513	neutral	087	sub-17	2.0	1.0	087_neutral	0.0		129.44522132488783	
6.0	41.25084957778745	fix	1.0		443	31.0	female	east_asian	3.395941106247513	neutral	087	sub-17	2.0	1.0	087_neutral	0.0		130.0950968690595	3.758273761763121
6.0	41.30096455529565	pulse	1.0	t		31.0	female	east_asian	3.395941106247513	neutral	087	sub-17	2.0	1.0	087_neutral	0.0		130.1452118465677	
6.0	42.000952662099735	pulse	1.0	t		31.0	female	east_asian	3.395941106247513	neutral	087	sub-17	2.0	1.0	087_neutral	0.0		130.84519995337178	
6.0	42.70094650420651	pulse	1.0	t		31.0	female	east_asian	3.395941106247513	neutral	087	sub-17	2.0	1.0	087_neutral	0.0		131.54519379547855	
6.0	43.40092646087578	pulse	1.0	t		31.0	female	east_asian	3.395941106247513	neutral	087	sub-17	2.0	1.0	087_neutral	0.0		132.24517375214782	
6.0	44.10091396397911	pulse	1.0	t		31.0	female	east_asian	3.395941106247513	neutral	087	sub-17	2.0	1.0	087_neutral	0.0		132.94516125525115	
6.0	44.800908409801195	pulse	1.0	t		31.0	female	east_asian	3.395941106247513	neutral	087	sub-17	2.0	1.0	087_neutral	0.0		133.64515570107324	
7.0	45.00912333955057	face	0.0		146	19.0	male	white	2.243931555909272	smiling	130	sub-17	2.0	1.0	130_smiling	0.0		133.8533706308226	1.2416583203157643
7.0	45.5009152317798	pulse	0.0	t		19.0	male	white	2.243931555909272	smiling	130	sub-17	2.0	1.0	130_smiling	0.0		134.34516252305184	
7.0	46.20090213116782	pulse	0.0	t		19.0	male	white	2.243931555909272	smiling	130	sub-17	2.0	1.0	130_smiling	0.0		135.04514942243986	
7.0	46.250781659866334	fix	1.0		445	19.0	male	white	2.243931555909272	smiling	130	sub-17	2.0	1.0	130_smiling	0.0		135.09502895113837	3.7584159366233507
7.0	46.900892954698065	pulse	1.0	t		19.0	male	white	2.243931555909272	smiling	130	sub-17	2.0	1.0	130_smiling	0.0		135.7451402459701	
7.0	47.60089373953815	pulse	1.0	t		19.0	male	white	2.243931555909272	smiling	130	sub-17	2.0	1.0	130_smiling	0.0		136.4451410308102	
7.0	48.30087067761633	pulse	1.0	t		19.0	male	white	2.243931555909272	smiling	130	sub-17	2.0	1.0	130_smiling	0.0		137.14511796888837	
7.0	49.0008590862999	pulse	1.0	t		19.0	male	white	2.243931555909272	smiling	130	sub-17	2.0	1.0	130_smiling	0.0		137.84510637757194	
7.0	49.70085383397236	pulse	1.0	t		19.0	male	white	2.243931555909272	smiling	130	sub-17	2.0	1.0	130_smiling	0.0		138.5451011252444	
8.0	50.009197596489685	face	0.0		146	40.0	male	black	2.408674890569041	neutral	061	sub-17	2.0	1.0	061_neutral	0.0		138.85344488776173	1.2415309364587301
8.0	50.400840129645076	pulse	0.0	t		40.0	male	black	2.408674890569041	neutral	061	sub-17	2.0	1.0	061_neutral	0.0		139.24508742091712	
8.0	51.10084302748146	pulse	0.0	t		40.0	male	black	2.408674890569041	neutral	061	sub-17	2.0	1.0	061_neutral	0.0		139.9450903187535	
8.0	51.250728532948415	fix	1.0		444	40.0	male	black	2.408674890569041	neutral	061	sub-17	2.0	1.0	061_neutral	0.0		140.09497582422046	3.7666195165365934
8.0	51.80083264358109	pulse	1.0	t		40.0	male	black	2.408674890569041	neutral	061	sub-17	2.0	1.0	061_neutral	0.0		140.64507993485313	
8.0	52.50084671014338	pulse	1.0	t		40.0	male	black	2.408674890569041	neutral	061	sub-17	2.0	1.0	061_neutral	0.0		141.34509400141542	
8.0	53.20081610180205	pulse	1.0	t		40.0	male	black	2.408674890569041	neutral	061	sub-17	2.0	1.0	061_neutral	0.0		142.0450633930741	
8.0	53.9008102457592	pulse	1.0	t		40.0	male	black	2.408674890569041	neutral	061	sub-17	2.0	1.0	061_neutral	0.0		142.74505753703124	
8.0	54.60079895629315	pulse	1.0	t		40.0	male	black	2.408674890569041	neutral	061	sub-17	2.0	1.0	061_neutral	0.0		143.4450462475652	
9.0	55.01734804948501	face	0.0		145	28.0	female	white	5.676880222841227	neutral	124	sub-17	2.0	1.0	124_neutral	0.0		143.86159534075705	1.2333071321045281
9.0	55.30079792997276	pulse	0.0	t		28.0	female	white	5.676880222841227	neutral	124	sub-17	2.0	1.0	124_neutral	0.0		144.1450452212448	
9.0	56.00077698107634	pulse	0.0	t		28.0	female	white	5.676880222841227	neutral	124	sub-17	2.0	1.0	124_neutral	0.0		144.84502427234838	
9.0	56.250655181589536	fix	1.0		445	28.0	female	white	5.676880222841227	neutral	124	sub-17	2.0	1.0	124_neutral	0.0		145.09490247286158	3.7583009289373877
9.0	56.70078742533224	pulse	1.0	t		28.0	female	white	5.676880222841227	neutral	124	sub-17	2.0	1.0	124_neutral	0.0		145.54503471660428	
9.0	57.40076798571681	pulse	1.0	t		28.0	female	white	5.676880222841227	neutral	124	sub-17	2.0	1.0	124_neutral	0.0		146.24501527698885	
9.0	58.10077420398011	pulse	1.0	t		28.0	female	white	5.676880222841227	neutral	124	sub-17	2.0	1.0	124_neutral	0.0		146.94502149525215	
9.0	58.80076532937528	pulse	1.0	t		28.0	female	white	5.676880222841227	neutral	124	sub-17	2.0	1.0	124_neutral	0.0		147.64501262064732	
9.0	59.500752228763304	pulse	1.0	t		28.0	female	white	5.676880222841227	neutral	124	sub-17	2.0	1.0	124_neutral	0.0		148.34499952003534	
10.0	60.008956110526924	face	0.0		146	31.0	female	east_asian	3.395941106247513	smiling	087	sub-17	2.0	1.0	087_smiling	0.0		148.85320340179896	1.241660433312063
10.0	60.2007499950123	pulse	0.0	t		31.0	female	east_asian	3.395941106247513	smiling	087	sub-17	2.0	1.0	087_smiling	0.0		149.04499728628434	
10.0	60.90072964981664	pulse	0.0	t		31.0	female	east_asian	3.395941106247513	smiling	087	sub-17	2.0	1.0	087_smiling	0.0		149.74497694108868	
10.0	61.25061654383899	fix	1.0		444	31.0	female	east_asian	3.395941106247513	smiling	087	sub-17	2.0	1.0	087_smiling	0.0		150.09486383511103	3.7666134793835226
10.0	61.600721982642426	pulse	1.0	t		31.0	female	east_asian	3.395941106247513	smiling	087	sub-17	2.0	1.0	087_smiling	0.0		150.44496927391447	
10.0	62.300723974898574	pulse	1.0	t		31.0	female	east_asian	3.395941106247513	smiling	087	sub-17	2.0	1.0	087_smiling	0.0		151.14497126617061	
10.0	63.000723552308045	pulse	1.0	t		31.0	female	east_asian	3.395941106247513	smiling	087	sub-17	2.0	1.0	087_smiling	0.0		151.84497084358009	
10.0	63.70069716995931	pulse	1.0	t		31.0	female	east_asian	3.395941106247513	smiling	087	sub-17	2.0	1.0	087_smiling	0.0		152.54494446123135	
10.0	64.40069674735423	pulse	1.0	t		31.0	female	east_asian	3.395941106247513	smiling	087	sub-17	2.0	1.0	087_smiling	0.0		153.24494403862627	
11.0	65.01723002322251	face	0.0		145	24.0	female	east_asian	4.409868682849185	neutral	030	sub-17	2.0	1.0	030_neutral	0.0		153.86147731449455	1.233340034566936
11.0	65.1006963247637	pulse	0.0	t		24.0	female	east_asian	4.409868682849185	neutral	030	sub-17	2.0	1.0	030_neutral	0.0		153.94494361603574	
11.0	65.80067688513373	pulse	0.0	t		24.0	female	east_asian	4.409868682849185	neutral	030	sub-17	2.0	1.0	030_neutral	0.0		154.64492417640577	
11.0	66.25057005778945	fix	1.0		444	24.0	female	east_asian	4.409868682849185	neutral	030	sub-17	2.0	1.0	030_neutral	0.0		155.0948173490615	3.766597480935161
11.0	66.5006665012479	pulse	1.0	t		24.0	female	east_asian	4.409868682849185	neutral	030	sub-17	2.0	1.0	030_neutral	0.0		155.34491379251995	
11.0	67.20066607864283	pulse	1.0	t		24.0	female	east_asian	4.409868682849185	neutral	030	sub-17	2.0	1.0	030_neutral	0.0		156.04491336991487	
11.0	67.90066263746121	pulse	1.0	t		24.0	female	east_asian	4.409868682849185	neutral	030	sub-17	2.0	1.0	030_neutral	0.0		156.74490992873325	
11.0	68.60064531085663	pulse	1.0	t		24.0	female	east_asian	4.409868682849185	neutral	030	sub-17	2.0	1.0	030_neutral	0.0		157.44489260212868	
11.0	69.30063100281404	pulse	1.0	t		24.0	female	east_asian	4.409868682849185	neutral	030	sub-17	2.0	1.0	030_neutral	0.0		158.14487829408608	
12.0	70.0171675387246	face	0.0		146	28.0	female	white	5.676880222841227	smiling	124	sub-17	2.0	1.0	124_smiling	0.0		158.86141482999665	1.233342751293094
12.0	70.00371375220129	pulse	0.0	t		28.0	female	white	5.676880222841227	smiling	124	sub-17	2.0	1.0	124_smiling	0.0		158.84796104347333	
12.0	70.70063015760388	pulse	0.0	t		28.0	female	white	5.676880222841227	smiling	124	sub-17	2.0	1.0	124_smiling	0.0		159.54487744887592	
12.0	71.2505102900177	fix	1.0		443	28.0	female	white	5.676880222841227	smiling	124	sub-17	2.0	1.0	124_smiling	0.0		160.09475758128974	3.7583682431431953
12.0	71.40062158484943	pulse	1.0	t		28.0	female	white	5.676880222841227	smiling	124	sub-17	2.0	1.0	124_smiling	0.0		160.24486887612147	
12.0	72.10060274894931	pulse	1.0	t		28.0	female	white	5.676880222841227	smiling	124	sub-17	2.0	1.0	124_smiling	0.0		160.94485004022135	
12.0	72.80060111891362	pulse	1.0	t		28.0	female	white	5.676880222841227	smiling	124	sub-17	2.0	1.0	124_smiling	0.0		161.64484841018566	
12.0	73.50057624586043	pulse	1.0	t		28.0	female	white	5.676880222841227	smiling	124	sub-17	2.0	1.0	124_smiling	0.0		162.34482353713247	
12.0	74.20060087743332	pulse	1.0	t		28.0	female	white	5.676880222841227	smiling	124	sub-17	2.0	1.0	124_smiling	0.0		163.04484816870536	
12.0	74.90118786942912	pulse	1.0	t		28.0	female	white	5.676880222841227	smiling	124	sub-17	2.0	1.0	124_smiling	0.0		163.74543516070116	
13.0	75.0088785331609	face	0.0		147	19.0	female	white	4.298846000795861	smiling	100	sub-17	2.0	1.0	100_smiling	0.0		163.85312582443294	1.2415792336541926
13.0	75.60057014835184	pulse	0.0	t		19.0	female	white	4.298846000795861	smiling	100	sub-17	2.0	1.0	100_smiling	0.0		164.44481743962388	
13.0	76.25045776681509	fix	1.0		444	19.0	female	white	4.298846000795861	smiling	100	sub-17	2.0	1.0	100_smiling	0.0		165.09470505808713	3.766609253376373
13.0	76.30056882016652	pulse	1.0	t		19.0	female	white	4.298846000795861	smiling	100	sub-17	2.0	1.0	100_smiling	0.0		165.14481611143856	
13.0	77.0005584362807	pulse	1.0	t		19.0	female	white	4.298846000795861	smiling	100	sub-17	2.0	1.0	100_smiling	0.0		165.84480572755274	
13.0	77.7005371855048	pulse	1.0	t		19.0	female	white	4.298846000795861	smiling	100	sub-17	2.0	1.0	100_smiling	0.0		166.54478447677684	
13.0	78.40054098892142	pulse	1.0	t		19.0	female	white	4.298846000795861	smiling	100	sub-17	2.0	1.0	100_smiling	0.0		167.24478828019346	
13.0	79.1005348310282	pulse	1.0	t		19.0	female	white	4.298846000795861	smiling	100	sub-17	2.0	1.0	100_smiling	0.0		167.94478212230024	
13.0	79.80052323969721	pulse	1.0	t		19.0	female	white	4.298846000795861	smiling	100	sub-17	2.0	1.0	100_smiling	0.0		168.64477053096925	
14.0	80.01706702019146	face	0.0		145	31.0	female	white	2.1822522881018704	neutral	102	sub-17	2.0	1.0	102_neutral	0.0		168.8613143114635	1.2333324881328736
14.0	80.50052251524176	pulse	0.0	t		31.0	female	white	2.1822522881018704	neutral	102	sub-17	2.0	1.0	102_neutral	0.0		169.3447698065138	
14.0	81.20049794403894	pulse	0.0	t		31.0	female	white	2.1822522881018704	neutral	102	sub-17	2.0	1.0	102_neutral	0.0		170.04474523531098	
14.0	81.25039950832434	fix	1.0		445	31.0	female	white	2.1822522881018704	neutral	102	sub-17	2.0	1.0	102_neutral	0.0		170.09464679959638	3.7666246481094277
14.0	81.90049691773311	pulse	1.0	t		31.0	female	white	2.1822522881018704	neutral	102	sub-17	2.0	1.0	102_neutral	0.0		170.74474420900515	
14.0	82.60048472268682	pulse	1.0	t		31.0	female	white	2.1822522881018704	neutral	102	sub-17	2.0	1.0	102_neutral	0.0		171.44473201395886	
14.0	83.30048641309259	pulse	1.0	t		31.0	female	white	2.1822522881018704	neutral	102	sub-17	2.0	1.0	102_neutral	0.0		172.14473370436463	
14.0	84.00046938832384	pulse	1.0	t		31.0	female	white	2.1822522881018704	neutral	102	sub-17	2.0	1.0	102_neutral	0.0		172.84471667959588	
14.0	84.70045809885778	pulse	1.0	t		31.0	female	white	2.1822522881018704	neutral	102	sub-17	2.0	1.0	102_neutral	0.0		173.54470539012982	
15.0	85.01702415643376	face	0.0		145	23.0	male	white	2.6275368085953046	smiling	141	sub-17	2.0	1.0	141_smiling	1.0	dominance	173.8612714477058	1.2333013968163868
15.0	85.40045646883664	pulse	0.0	t		23.0	male	white	2.6275368085953046	smiling	141	sub-17	2.0	1.0	141_smiling	1.0	dominance	174.24470376010868	
15.0	86.10045514065132	pulse	0.0	t		23.0	male	white	2.6275368085953046	smiling	141	sub-17	2.0	1.0	141_smiling	1.0	dominance	174.94470243192336	
15.0	86.25032555325015	fix	1.0		177	23.0	male	white	2.6275368085953046	smiling	141	sub-17	2.0	1.0	141_smiling	1.0	dominance	175.0945728445222	1.5000042260071496
15.0	86.80066360341152	pulse	1.0	t		23.0	male	white	2.6275368085953046	smiling	141	sub-17	2.0	1.0	141_smiling	1.0	dominance	175.64491089468356	
15.0	87.50046304932039	pulse	1.0	t		23.0	male	white	2.6275368085953046	smiling	141	sub-17	2.0	1.0	141_smiling	1.0	dominance	176.34471034059243	
15.0	87.7503297792573	rating	2.0		295	23.0	male	white	2.6275368085953046	smiling	141	sub-17	2.0	1.0	141_smiling	1.0	dominance	176.59457707052934	2.499962569680065
15.0	88.20043334654474	pulse	2.0	t		23.0	male	white	2.6275368085953046	smiling	141	sub-17	2.0	1.0	141_smiling	1.0	dominance	177.04468063781678	
15.0	88.90041783107154	pulse	2.0	t		23.0	male	white	2.6275368085953046	smiling	141	sub-17	2.0	1.0	141_smiling	1.0	dominance	177.74466512234358	
15.0	89.50874179173843	response	2.0	b		23.0	male	white	2.6275368085953046	smiling	141	sub-17	2.0	1.0	141_smiling	1.0	dominance	178.35298908301047	
15.0	89.60040533417487	pulse	2.0	t		23.0	male	white	2.6275368085953046	smiling	141	sub-17	2.0	1.0	141_smiling	1.0	dominance	178.4446526254469	
15.0	90.25029234893736	fix	3.0		443	23.0	male	white	2.6275368085953046	smiling	141	sub-17	2.0	1.0	141_smiling	1.0	dominance	179.0945396402094	3.766613177518593
15.0	90.30050543010293	pulse	3.0	t		23.0	male	white	2.6275368085953046	smiling	141	sub-17	2.0	1.0	141_smiling	1.0	dominance	179.14475272137497	
15.0	91.00039211282274	pulse	3.0	t		23.0	male	white	2.6275368085953046	smiling	141	sub-17	2.0	1.0	141_smiling	1.0	dominance	179.84463940409478	
15.0	91.7003925957979	pulse	3.0	t		23.0	male	white	2.6275368085953046	smiling	141	sub-17	2.0	1.0	141_smiling	1.0	dominance	180.54463988706993	
15.0	92.40037164688692	pulse	3.0	t		23.0	male	white	2.6275368085953046	smiling	141	sub-17	2.0	1.0	141_smiling	1.0	dominance	181.24461893815896	
15.0	93.10036880942062	pulse	3.0	t		23.0	male	white	2.6275368085953046	smiling	141	sub-17	2.0	1.0	141_smiling	1.0	dominance	181.94461610069266	
15.0	93.80037623511453	pulse	3.0	t		23.0	male	white	2.6275368085953046	smiling	141	sub-17	2.0	1.0	141_smiling	1.0	dominance	182.64462352638657	
16.0	94.01690552645596	face	0.0		145	22.0	male	black	2.767608436132113	smiling	044	sub-17	2.0	1.0	044_smiling	0.0		182.861152817728	1.2333352048590314
16.0	94.5003646437981	pulse	0.0	t		22.0	male	black	2.767608436132113	smiling	044	sub-17	2.0	1.0	044_smiling	0.0		183.34461193507013	
16.0	95.20034007259528	pulse	0.0	t		22.0	male	black	2.767608436132113	smiling	044	sub-17	2.0	1.0	044_smiling	0.0		184.04458736386732	
16.0	95.25024073131499	fix	1.0		445	22.0	male	black	2.767608436132113	smiling	044	sub-17	2.0	1.0	044_smiling	0.0		184.09448802258703	3.758354659556062
16.0	95.9003474982892	pulse	1.0	t		22.0	male	black	2.767608436132113	smiling	044	sub-17	2.0	1.0	044_smiling	0.0		184.74459478956123	
16.0	96.60032383266662	pulse	1.0	t		22.0	male	black	2.767608436132113	smiling	044	sub-17	2.0	1.0	044_smiling	0.0		185.44457112393866	
16.0	97.3003288434993	pulse	1.0	t		22.0	male	black	2.767608436132113	smiling	044	sub-17	2.0	1.0	044_smiling	0.0		186.14457613477134	
16.0	98.00032117632509	pulse	1.0	t		22.0	male	black	2.767608436132113	smiling	044	sub-17	2.0	1.0	044_smiling	0.0		186.84456846759713	
16.0	98.70031592399755	pulse	1.0	t		22.0	male	black	2.767608436132113	smiling	044	sub-17	2.0	1.0	044_smiling	0.0		187.5445632152696	
17.0	99.00859539087105	face	0.0		146	19.0	male	white	3.2522881018702745	smiling	018	sub-17	2.0	1.0	018_smiling	0.0		187.8528426821431	1.2415798373694997
17.0	99.40031157725025	pulse	0.0	t		19.0	male	white	3.2522881018702745	smiling	018	sub-17	2.0	1.0	018_smiling	0.0		188.2445588685223	
17.0	100.10029938221851	pulse	0.0	t		19.0	male	white	3.2522881018702745	smiling	018	sub-17	2.0	1.0	018_smiling	0.0		188.94454667349055	
17.0	100.25017522824055	fix	1.0		445	19.0	male	white	3.2522881018702745	smiling	018	sub-17	2.0	1.0	018_smiling	0.0		189.0944225195126	3.7666222332481993
17.0	100.80029292246036	pulse	1.0	t		19.0	male	white	3.2522881018702745	smiling	018	sub-17	2.0	1.0	018_smiling	0.0		189.6445402137324	
17.0	101.50027831256739	pulse	1.0	t		19.0	male	white	3.2522881018702745	smiling	018	sub-17	2.0	1.0	018_smiling	0.0		190.34452560383943	
17.0	102.20042851683684	pulse	1.0	t		19.0	male	white	3.2522881018702745	smiling	018	sub-17	2.0	1.0	018_smiling	0.0		191.04467580810888	
17.0	102.9002644874854	pulse	1.0	t		19.0	male	white	3.2522881018702745	smiling	018	sub-17	2.0	1.0	018_smiling	0.0		191.74451177875744	
17.0	103.60025440544996	pulse	1.0	t		19.0	male	white	3.2522881018702745	smiling	018	sub-17	2.0	1.0	018_smiling	0.0		192.444501696722	
18.0	104.01679746148875	face	0.0		145	27.0	female	white	4.181058495821727	smiling	039	sub-17	2.0	1.0	039_smiling	0.0		192.8610447527608	1.233336110424716
18.0	104.3002410029876	pulse	0.0	t		27.0	female	white	4.181058495821727	smiling	039	sub-17	2.0	1.0	039_smiling	0.0		193.14448829425965	
18.0	105.00024782496621	pulse	0.0	t		27.0	female	white	4.181058495821727	smiling	039	sub-17	2.0	1.0	039_smiling	0.0		193.84449511623825	
18.0	105.25013357191347	fix	1.0		444	27.0	female	white	4.181058495821727	smiling	039	sub-17	2.0	1.0	039_smiling	0.0		194.0943808631855	3.7583344351151027
18.0	105.70022687605524	pulse	1.0	t		27.0	female	white	4.181058495821727	smiling	039	sub-17	2.0	1.0	039_smiling	0.0		194.54447416732728	
18.0	106.40022403858893	pulse	1.0	t		27.0	female	white	4.181058495821727	smiling	039	sub-17	2.0	1.0	039_smiling	0.0		195.24447132986097	
18.0	107.10020490083843	pulse	1.0	t		27.0	female	white	4.181058495821727	smiling	039	sub-17	2.0	1.0	039_smiling	0.0		195.94445219211048	
18.0	107.80020538379904	pulse	1.0	t		27.0	female	white	4.181058495821727	smiling	039	sub-17	2.0	1.0	039_smiling	0.0		196.64445267507108	
18.0	108.5002037537779	pulse	1.0	t		27.0	female	white	4.181058495821727	smiling	039	sub-17	2.0	1.0	039_smiling	0.0		197.34445104504994	
19.0	109.00846800702857	face	0.0		146	22.0	male	black	2.767608436132113	neutral	044	sub-17	2.0	1.0	044_neutral	0.0		197.8527152983006	1.2416067026788369
19.0	109.20018884202	pulse	0.0	t		22.0	male	black	2.767608436132113	neutral	044	sub-17	2.0	1.0	044_neutral	0.0		198.04443613329204	
19.0	109.9001893249806	pulse	0.0	t		22.0	male	black	2.767608436132113	neutral	044	sub-17	2.0	1.0	044_neutral	0.0		198.74443661625264	
19.0	110.2500747097074	fix	1.0		444	22.0	male	black	2.767608436132113	neutral	044	sub-17	2.0	1.0	044_neutral	0.0		199.09432200097945	3.7582707432011375
19.0	110.60017682808393	pulse	1.0	t		22.0	male	black	2.767608436132113	neutral	044	sub-17	2.0	1.0	044_neutral	0.0		199.44442411935597	
19.0	111.30016885904479	pulse	1.0	t		22.0	male	black	2.767608436132113	neutral	044	sub-17	2.0	1.0	044_neutral	0.0		200.14441615031683	
19.0	112.00017507730809	pulse	1.0	t		22.0	male	black	2.767608436132113	neutral	044	sub-17	2.0	1.0	044_neutral	0.0		200.84442236858013	
19.0	112.70014567639737	pulse	1.0	t		22.0	male	black	2.767608436132113	neutral	044	sub-17	2.0	1.0	044_neutral	0.0		201.5443929676694	
19.0	113.4001464612229	pulse	1.0	t		22.0	male	black	2.767608436132113	neutral	044	sub-17	2.0	1.0	044_neutral	0.0		202.24439375249494	
20.0	114.00834545290854	face	0.0		146	40.0	female	west_asian	1.5777954635893354	neutral	038	sub-17	2.0	1.0	038_neutral	0.0		202.85259274418058	1.2416613388777478
20.0	114.1001400014793	pulse	0.0	t		40.0	female	west_asian	1.5777954635893354	neutral	038	sub-17	2.0	1.0	038_neutral	0.0		202.94438729275134	
20.0	114.80011905256833	pulse	0.0	t		40.0	female	west_asian	1.5777954635893354	neutral	038	sub-17	2.0	1.0	038_neutral	0.0		203.64436634384037	
20.0	115.25000679178629	fix	1.0		1185	40.0	female	west_asian	1.5777954635893354	neutral	038	sub-17	2.0	1.0	038_neutral	0.0		204.09425408305833	10.008216861635447
20.0	115.50011712068226	pulse	1.0	t		40.0	female	west_asian	1.5777954635893354	neutral	038	sub-17	2.0	1.0	038_neutral	0.0		204.3443644119543	
20.0	116.20011730179249	pulse	1.0	t		40.0	female	west_asian	1.5777954635893354	neutral	038	sub-17	2.0	1.0	038_neutral	0.0		205.04436459306453	
20.0	116.90009906960768	pulse	1.0	t		40.0	female	west_asian	1.5777954635893354	neutral	038	sub-17	2.0	1.0	038_neutral	0.0		205.74434636087972	
20.0	117.60010408044036	pulse	1.0	t		40.0	female	west_asian	1.5777954635893354	neutral	038	sub-17	2.0	1.0	038_neutral	0.0		206.4443513717124	
20.0	118.30008282967901	pulse	1.0	t		40.0	female	west_asian	1.5777954635893354	neutral	038	sub-17	2.0	1.0	038_neutral	0.0		207.14433012095105	
20.0	119.00007304949395	pulse	1.0	t		40.0	female	west_asian	1.5777954635893354	neutral	038	sub-17	2.0	1.0	038_neutral	0.0		207.844320340766	
20.0	119.70007323061873	pulse	1.0	t		40.0	female	west_asian	1.5777954635893354	neutral	038	sub-17	2.0	1.0	038_neutral	0.0		208.54432052189077	
20.0	120.4000670727255	pulse	1.0	t		40.0	female	west_asian	1.5777954635893354	neutral	038	sub-17	2.0	1.0	038_neutral	0.0		209.24431436399755	
20.0	121.10004914239107	pulse	1.0	t		40.0	female	west_asian	1.5777954635893354	neutral	038	sub-17	2.0	1.0	038_neutral	0.0		209.9442964336631	
20.0	121.80005475693906	pulse	1.0	t		40.0	female	west_asian	1.5777954635893354	neutral	038	sub-17	2.0	1.0	038_neutral	0.0		210.6443020482111	
20.0	122.50005071204214	pulse	1.0	t		40.0	female	west_asian	1.5777954635893354	neutral	038	sub-17	2.0	1.0	038_neutral	0.0		211.34429800331418	
20.0	123.20003549843386	pulse	1.0	t		40.0	female	west_asian	1.5777954635893354	neutral	038	sub-17	2.0	1.0	038_neutral	0.0		212.0442827897059	
20.0	123.9000172662345	pulse	1.0	t		40.0	female	west_asian	1.5777954635893354	neutral	038	sub-17	2.0	1.0	038_neutral	0.0		212.74426455750654	
20.0	124.60001503249805	pulse	1.0	t		40.0	female	west_asian	1.5777954635893354	neutral	038	sub-17	2.0	1.0	038_neutral	0.0		213.4442623237701	
21.0	125.25822365342174	face	0.0		146	34.0	male	white	2.651014723438122	smiling	121	sub-17	2.0	1.0	121_smiling	0.0		214.10247094469378	1.2416700927569764
21.0	125.299995894733	pulse	0.0	t		34.0	male	white	2.651014723438122	smiling	121	sub-17	2.0	1.0	121_smiling	0.0		214.14424318600504	
21.0	125.99999909441976	pulse	0.0	t		34.0	male	white	2.651014723438122	smiling	121	sub-17	2.0	1.0	121_smiling	0.0		214.8442463856918	
21.0	126.49989374617871	fix	1.0		443	34.0	male	white	2.651014723438122	smiling	121	sub-17	2.0	1.0	121_smiling	0.0		215.34414103745075	3.7582801007665694
21.0	126.7000004829606	pulse	1.0	t		34.0	male	white	2.651014723438122	smiling	121	sub-17	2.0	1.0	121_smiling	0.0		215.54424777423264	
21.0	127.3999919102207	pulse	1.0	t		34.0	male	white	2.651014723438122	smiling	121	sub-17	2.0	1.0	121_smiling	0.0		216.24423920149275	
21.0	128.0999806207401	pulse	1.0	t		34.0	male	white	2.651014723438122	smiling	121	sub-17	2.0	1.0	121_smiling	0.0		216.94422791201214	
21.0	128.7999753684271	pulse	1.0	t		34.0	male	white	2.651014723438122	smiling	121	sub-17	2.0	1.0	121_smiling	0.0		217.64422265969915	
21.0	129.49996347524575	pulse	1.0	t		34.0	male	white	2.651014723438122	smiling	121	sub-17	2.0	1.0	121_smiling	0.0		218.3442107665178	
21.0	130.19996033592906	pulse	1.0	t		34.0	male	white	2.651014723438122	smiling	121	sub-17	2.0	1.0	121_smiling	0.0		219.0442076272011	
22.0	130.25817384694528	face	0.0		147	21.0	male	east_asian/white	3.501790688420215	neutral	036	sub-17	2.0	1.0	036_neutral	0.0		219.10242113821732	1.2416571128705982
22.0	130.89995629103214	pulse	0.0	t		21.0	male	east_asian/white	3.501790688420215	neutral	036	sub-17	2.0	1.0	036_neutral	0.0		219.74420358230418	
22.0	131.49983095981588	fix	1.0		443	21.0	male	east_asian/white	3.501790688420215	neutral	036	sub-17	2.0	1.0	036_neutral	0.0		220.34407825108792	3.7666017069568625
22.0	131.5999489257083	pulse	1.0	t		21.0	male	east_asian/white	3.501790688420215	neutral	036	sub-17	2.0	1.0	036_neutral	0.0		220.44419621698034	
22.0	132.29992707123165	pulse	1.0	t		21.0	male	east_asian/white	3.501790688420215	neutral	036	sub-17	2.0	1.0	036_neutral	0.0		221.1441743625037	
22.0	132.99992996906803	pulse	1.0	t		21.0	male	east_asian/white	3.501790688420215	neutral	036	sub-17	2.0	1.0	036_neutral	0.0		221.84417726034008	
22.0	133.69992018888297	pulse	1.0	t		21.0	male	east_asian/white	3.501790688420215	neutral	036	sub-17	2.0	1.0	036_neutral	0.0		222.544167480155	
22.0	134.39990195669816	pulse	1.0	t		21.0	male	east_asian/white	3.501790688420215	neutral	036	sub-17	2.0	1.0	036_neutral	0.0		223.2441492479702	
22.0	135.09990726938122	pulse	1.0	t		21.0	male	east_asian/white	3.501790688420215	neutral	036	sub-17	2.0	1.0	036_neutral	0.0		223.94415456065326	
23.0	135.26643266677274	face	0.0		146	54.0	female	white	2.286908077994429	smiling	136	sub-17	2.0	1.0	136_smiling	0.0		224.11067995804478	1.2333469772856915
23.0	135.7998863204848	pulse	0.0	t		54.0	female	white	2.286908077994429	smiling	136	sub-17	2.0	1.0	136_smiling	0.0		224.64413361175684	
23.0	136.49977964405844	fix	1.0		444	54.0	female	white	2.286908077994429	smiling	136	sub-17	2.0	1.0	136_smiling	0.0		225.34402693533048	3.766611366372672
23.0	136.50714104168583	pulse	1.0	t		54.0	female	white	2.286908077994429	smiling	136	sub-17	2.0	1.0	136_smiling	0.0		225.35138833295787	
23.0	137.1998697786912	pulse	1.0	t		54.0	female	white	2.286908077994429	smiling	136	sub-17	2.0	1.0	136_smiling	0.0		226.04411706996325	
23.0	137.89987297837797	pulse	1.0	t		54.0	female	white	2.286908077994429	smiling	136	sub-17	2.0	1.0	136_smiling	0.0		226.74412026965	
23.0	138.5998514257517	pulse	1.0	t		54.0	female	white	2.286908077994429	smiling	136	sub-17	2.0	1.0	136_smiling	0.0		227.44409871702373	
23.0	139.2998666997446	pulse	1.0	t		54.0	female	white	2.286908077994429	smiling	136	sub-17	2.0	1.0	136_smiling	0.0		228.14411399101664	
23.0	139.9998608437163	pulse	1.0	t		54.0	female	white	2.286908077994429	smiling	136	sub-17	2.0	1.0	136_smiling	0.0		228.84410813498835	
24.0	140.2663910104311	face	0.0		145	31.0	female	west_asian	2.364902506963788	neutral	006	sub-17	2.0	1.0	006_neutral	0.0		229.11063830170315	1.23332946957089
24.0	140.6998284242145	pulse	0.0	t		31.0	female	west_asian	2.364902506963788	neutral	006	sub-17	2.0	1.0	006_neutral	0.0		229.54407571548654	
24.0	141.39980777716846	pulse	0.0	t		31.0	female	west_asian	2.364902506963788	neutral	006	sub-17	2.0	1.0	006_neutral	0.0		230.2440550684405	
24.0	141.499720480002	fix	1.0		444	31.0	female	west_asian	2.364902506963788	neutral	006	sub-17	2.0	1.0	006_neutral	0.0		230.34396777127404	3.766613177518593
24.0	142.0998043360014	pulse	1.0	t		31.0	female	west_asian	2.364902506963788	neutral	006	sub-17	2.0	1.0	006_neutral	0.0		230.94405162727344	
24.0	142.79981628955284	pulse	1.0	t		31.0	female	west_asian	2.364902506963788	neutral	006	sub-17	2.0	1.0	006_neutral	0.0		231.64406358082488	
24.0	143.4997992647841	pulse	1.0	t		31.0	female	west_asian	2.364902506963788	neutral	006	sub-17	2.0	1.0	006_neutral	0.0		232.34404655605613	
24.0	144.19979220132518	pulse	1.0	t		31.0	female	west_asian	2.364902506963788	neutral	006	sub-17	2.0	1.0	006_neutral	0.0		233.04403949259722	
24.0	144.8997923824354	pulse	1.0	t		31.0	female	west_asian	2.364902506963788	neutral	006	sub-17	2.0	1.0	006_neutral	0.0		233.74403967370745	
25.0	145.2663336575206	face	0.0		145	25.0	female	west_asian	2.6756864305610826	smiling	064	sub-17	2.0	1.0	064_smiling	0.0		234.11058094879263	1.233328865841031
25.0	145.59978924311872	pulse	0.0	t		25.0	female	west_asian	2.6756864305610826	smiling	064	sub-17	2.0	1.0	064_smiling	0.0		234.44403653439076	
25.0	146.299769199788	pulse	0.0	t		25.0	female	west_asian	2.6756864305610826	smiling	064	sub-17	2.0	1.0	064_smiling	0.0		235.14401649106003	
25.0	146.49966252336162	fix	1.0		444	25.0	female	west_asian	2.6756864305610826	smiling	064	sub-17	2.0	1.0	064_smiling	0.0		235.34390981463366	3.758388165748329
25.0	146.99976092889847	pulse	1.0	t		25.0	female	west_asian	2.6756864305610826	smiling	064	sub-17	2.0	1.0	064_smiling	0.0		235.8440082201705	
25.0	147.69975748771685	pulse	1.0	t		25.0	female	west_asian	2.6756864305610826	smiling	064	sub-17	2.0	1.0	064_smiling	0.0		236.5440047789889	
25.0	148.39975102797325	pulse	1.0	t		25.0	female	west_asian	2.6756864305610826	smiling	064	sub-17	2.0	1.0	064_smiling	0.0		237.2439983192453	
25.0	149.09973309763882	pulse	1.0	t		25.0	female	west_asian	2.6756864305610826	smiling	064	sub-17	2.0	1.0	064_smiling	0.0		237.94398038891086	
25.0	149.79973629732558	pulse	1.0	t		25.0	female	west_asian	2.6756864305610826	smiling	064	sub-17	2.0	1.0	064_smiling	0.0		238.64398358859762	
26.0	150.25805068910995	face	0.0		146	19.0	male	white	2.243931555909272	neutral	130	sub-17	2.0	1.0	130_neutral	0.0		239.102297980382	1.2415562924870756
26.0	150.49972289484867	pulse	0.0	t		19.0	male	white	2.243931555909272	neutral	130	sub-17	2.0	1.0	130_neutral	0.0		239.3439701861207	
26.0	151.1997203592473	pulse	0.0	t		19.0	male	white	2.243931555909272	neutral	130	sub-17	2.0	1.0	130_neutral	0.0		240.04396765051933	
26.0	151.49960698159703	fix	1.0		444	19.0	male	white	2.243931555909272	neutral	130	sub-17	2.0	1.0	130_neutral	0.0		240.34385427286907	3.766620422102278
26.0	151.89971420135407	pulse	1.0	t		19.0	male	white	2.243931555909272	neutral	130	sub-17	2.0	1.0	130_neutral	0.0		240.7439614926261	
26.0	152.59970623232948	pulse	1.0	t		19.0	male	white	2.243931555909272	neutral	130	sub-17	2.0	1.0	130_neutral	0.0		241.44395352360152	
26.0	153.2996979614254	pulse	1.0	t		19.0	male	white	2.243931555909272	neutral	130	sub-17	2.0	1.0	130_neutral	0.0		242.14394525269745	
26.0	153.99968999240082	pulse	1.0	t		19.0	male	white	2.243931555909272	neutral	130	sub-17	2.0	1.0	130_neutral	0.0		242.84393728367286	
26.0	154.69967236391676	pulse	1.0	t		19.0	male	white	2.243931555909272	neutral	130	sub-17	2.0	1.0	130_neutral	0.0		243.5439196551888	
27.0	155.2662274036993	face	0.0		145	21.0	male	black	2.969757262236371	neutral	137	sub-17	2.0	1.0	137_neutral	0.0		244.11047469497134	1.2333225268375827
27.0	155.39968975090596	pulse	0.0	t		21.0	male	black	2.969757262236371	neutral	137	sub-17	2.0	1.0	137_neutral	0.0		244.243937042178	
27.0	156.09965642583848	pulse	0.0	t		21.0	male	black	2.969757262236371	neutral	137	sub-17	2.0	1.0	137_neutral	0.0		244.94390371711052	
27.0	156.4995499305369	fix	1.0		444	21.0	male	black	2.969757262236371	neutral	137	sub-17	2.0	1.0	137_neutral	0.0		245.34379722180893	3.7584062771929894
27.0	156.79967441654298	pulse	1.0	t		21.0	male	black	2.969757262236371	neutral	137	sub-17	2.0	1.0	137_neutral	0.0		245.64392170781503	
27.0	157.49965407136187	pulse	1.0	t		21.0	male	black	2.969757262236371	neutral	137	sub-17	2.0	1.0	137_neutral	0.0		246.34390136263391	
27.0	158.1996352354472	pulse	1.0	t		21.0	male	black	2.969757262236371	neutral	137	sub-17	2.0	1.0	137_neutral	0.0		247.04388252671924	
27.0	158.899626058992	pulse	1.0	t		21.0	male	black	2.969757262236371	neutral	137	sub-17	2.0	1.0	137_neutral	0.0		247.74387335026404	
27.0	159.59960661936202	pulse	1.0	t		21.0	male	black	2.969757262236371	neutral	137	sub-17	2.0	1.0	137_neutral	0.0		248.44385391063406	
28.0	160.25795620772988	face	0.0		146	25.0	female	west_asian	2.6756864305610826	neutral	064	sub-17	2.0	1.0	064_neutral	0.0		249.10220349900192	1.241523088159738
28.0	160.29971818588092	pulse	0.0	t		25.0	female	west_asian	2.6756864305610826	neutral	064	sub-17	2.0	1.0	064_neutral	0.0		249.14396547715296	
28.0	160.9996124150348	pulse	0.0	t		25.0	female	west_asian	2.6756864305610826	neutral	064	sub-17	2.0	1.0	064_neutral	0.0		249.84385970630683	
28.0	161.4994792958896	fix	1.0		443	25.0	female	west_asian	2.6756864305610826	neutral	064	sub-17	2.0	1.0	064_neutral	0.0		250.34372658716165	3.7583443964103935
28.0	161.69961108684947	pulse	1.0	t		25.0	female	west_asian	2.6756864305610826	neutral	064	sub-17	2.0	1.0	064_neutral	0.0		250.5438583781215	
28.0	162.3995949676755	pulse	1.0	t		25.0	female	west_asian	2.6756864305610826	neutral	064	sub-17	2.0	1.0	064_neutral	0.0		251.24384225894755	
28.0	163.09957764105638	pulse	1.0	t		25.0	female	west_asian	2.6756864305610826	neutral	064	sub-17	2.0	1.0	064_neutral	0.0		251.94382493232843	
28.0	163.79958265188907	pulse	1.0	t		25.0	female	west_asian	2.6756864305610826	neutral	064	sub-17	2.0	1.0	064_neutral	0.0		252.6438299431611	
28.0	164.49956140111317	pulse	1.0	t		25.0	female	west_asian	2.6756864305610826	neutral	064	sub-17	2.0	1.0	064_neutral	0.0		253.3438086923852	
28.0	165.19955282837327	pulse	1.0	t		25.0	female	west_asian	2.6756864305610826	neutral	064	sub-17	2.0	1.0	064_neutral	0.0		254.0438001196453	
29.0	165.2578236923	face	0.0		147	24.0	female	east_asian	2.9076800636689217	smiling	034	sub-17	2.0	1.0	034_smiling	0.0		254.10207098357205	1.2416054952627746
29.0	165.89954848162597	pulse	0.0	t		24.0	female	east_asian	2.9076800636689217	smiling	034	sub-17	2.0	1.0	034_smiling	0.0		254.743795772898	
29.0	166.49942918756278	fix	1.0		443	24.0	female	east_asian	2.9076800636689217	smiling	034	sub-17	2.0	1.0	034_smiling	0.0		255.34367647883482	3.758403258601902
29.0	166.59955258687842	pulse	1.0	t		24.0	female	east_asian	2.9076800636689217	smiling	034	sub-17	2.0	1.0	034_smiling	0.0		255.44379987815046	
29.0	167.29953556212422	pulse	1.0	t		24.0	female	east_asian	2.9076800636689217	smiling	034	sub-17	2.0	1.0	034_smiling	0.0		256.14378285339626	
29.0	167.99955808068626	pulse	1.0	t		24.0	female	east_asian	2.9076800636689217	smiling	034	sub-17	2.0	1.0	034_smiling	0.0		256.8438053719583	
29.0	168.69952203890716	pulse	1.0	t		24.0	female	east_asian	2.9076800636689217	smiling	034	sub-17	2.0	1.0	034_smiling	0.0		257.5437693301792	
29.0	169.39950350485742	pulse	1.0	t		24.0	female	east_asian	2.9076800636689217	smiling	034	sub-17	2.0	1.0	034_smiling	0.0		258.24375079612946	
29.0	170.09950187483628	pulse	1.0	t		24.0	female	east_asian	2.9076800636689217	smiling	034	sub-17	2.0	1.0	034_smiling	0.0		258.9437491661083	
30.0	170.25783244616468	face	0.0		147	28.0	male	east_asian	1.5563072025467568	smiling	005	sub-17	2.0	1.0	005_smiling	0.0		259.1020797374367	1.2415393884730292
30.0	170.79949390579714	pulse	0.0	t		28.0	male	east_asian	1.5563072025467568	smiling	005	sub-17	2.0	1.0	005_smiling	0.0		259.6437411970692	
30.0	171.4993718346377	fix	1.0		444	28.0	male	east_asian	1.5563072025467568	smiling	005	sub-17	2.0	1.0	005_smiling	0.0		260.34361912590975	3.766611970102531
30.0	171.50678152946057	pulse	1.0	t		28.0	male	east_asian	1.5563072025467568	smiling	005	sub-17	2.0	1.0	005_smiling	0.0		260.3510288207326	
30.0	172.19947857143416	pulse	1.0	t		28.0	male	east_asian	1.5563072025467568	smiling	005	sub-17	2.0	1.0	005_smiling	0.0		261.0437258627062	
30.0	172.899479959975	pulse	1.0	t		28.0	male	east_asian	1.5563072025467568	smiling	005	sub-17	2.0	1.0	005_smiling	0.0		261.74372725124704	
30.0	173.59947229280078	pulse	1.0	t		28.0	male	east_asian	1.5563072025467568	smiling	005	sub-17	2.0	1.0	005_smiling	0.0		262.4437195840728	
30.0	174.29945255132043	pulse	1.0	t		28.0	male	east_asian	1.5563072025467568	smiling	005	sub-17	2.0	1.0	005_smiling	0.0		263.14369984259247	
30.0	174.99946390115656	pulse	1.0	t		28.0	male	east_asian	1.5563072025467568	smiling	005	sub-17	2.0	1.0	005_smiling	0.0		263.8437111924286	
31.0	175.26598380474024	face	0.0		145	24.0	female	black	3.0955033824114606	smiling	099	sub-17	2.0	1.0	099_smiling	0.0		264.1102310960123	1.233335506709409
31.0	175.69945170612482	pulse	0.0	t		24.0	female	black	3.0955033824114606	smiling	099	sub-17	2.0	1.0	099_smiling	0.0		264.54369899739686	
31.0	176.3994244182104	pulse	0.0	t		24.0	female	black	3.0955033824114606	smiling	099	sub-17	2.0	1.0	099_smiling	0.0		265.24367170948244	
31.0	176.49931931144965	fix	1.0		444	24.0	female	black	3.0955033824114606	smiling	099	sub-17	2.0	1.0	099_smiling	0.0		265.3435666027217	3.7582997215067735
31.0	177.09941131759842	pulse	1.0	t		24.0	female	black	3.0955033824114606	smiling	099	sub-17	2.0	1.0	099_smiling	0.0		265.94365860887046	
31.0	177.79941663028148	pulse	1.0	t		24.0	female	black	3.0955033824114606	smiling	099	sub-17	2.0	1.0	099_smiling	0.0		266.6436639215535	
31.0	178.49940383153444	pulse	1.0	t		24.0	female	black	3.0955033824114606	smiling	099	sub-17	2.0	1.0	099_smiling	0.0		267.3436511228065	
31.0	179.19942001109303	pulse	1.0	t		24.0	female	black	3.0955033824114606	smiling	099	sub-17	2.0	1.0	099_smiling	0.0		268.04366730236507	
31.0	179.8993954398902	pulse	1.0	t		24.0	female	black	3.0955033824114606	smiling	099	sub-17	2.0	1.0	099_smiling	0.0		268.74364273116225	
32.0	180.25761903295643	face	0.0		146	31.0	female	west_asian	2.364902506963788	smiling	006	sub-17	2.0	1.0	006_smiling	0.0		269.10186632422847	1.2416420200024731
32.0	180.59989308207878	pulse	0.0	t		31.0	female	west_asian	2.364902506963788	smiling	006	sub-17	2.0	1.0	006_smiling	0.0		269.4441403733508	
32.0	181.29937406838872	pulse	0.0	t		31.0	female	west_asian	2.364902506963788	smiling	006	sub-17	2.0	1.0	006_smiling	0.0		270.14362135966076	
32.0	181.4992610529589	fix	1.0		444	31.0	female	west_asian	2.364902506963788	smiling	006	sub-17	2.0	1.0	006_smiling	0.0		270.34350834423094	3.758322964524268
32.0	181.99937666436017	pulse	1.0	t		31.0	female	west_asian	2.364902506963788	smiling	006	sub-17	2.0	1.0	006_smiling	0.0		270.8436239556322	
32.0	182.69935752659512	pulse	1.0	t		31.0	female	west_asian	2.364902506963788	smiling	006	sub-17	2.0	1.0	006_smiling	0.0		271.54360481786716	
32.0	183.3993571040046	pulse	1.0	t		31.0	female	west_asian	2.364902506963788	smiling	006	sub-17	2.0	1.0	006_smiling	0.0		272.24360439527663	
32.0	184.09933947552054	pulse	1.0	t		31.0	female	west_asian	2.364902506963788	smiling	006	sub-17	2.0	1.0	006_smiling	0.0		272.9435867667926	
32.0	184.79933693991916	pulse	1.0	t		31.0	female	west_asian	2.364902506963788	smiling	006	sub-17	2.0	1.0	006_smiling	0.0		273.6435842311912	
33.0	185.25758401748317	face	0.0		146	20.0	male	black	3.1070433744528456	neutral	082	sub-17	2.0	1.0	082_neutral	1.0	attractiveness	274.1018313087552	1.2416205881308997
33.0	185.49934164890146	pulse	0.0	t		20.0	male	black	3.1070433744528456	neutral	082	sub-17	2.0	1.0	082_neutral	1.0	attractiveness	274.3435889401735	
33.0	186.19931254984112	pulse	0.0	t		20.0	male	black	3.1070433744528456	neutral	082	sub-17	2.0	1.0	082_neutral	1.0	attractiveness	275.04355984111317	
33.0	186.49920460561407	fix	1.0		177	20.0	male	black	3.1070433744528456	neutral	082	sub-17	2.0	1.0	082_neutral	1.0	attractiveness	275.3434518968861	1.4999843034165679
33.0	186.89931242910097	pulse	1.0	t		20.0	male	black	3.1070433744528456	neutral	082	sub-17	2.0	1.0	082_neutral	1.0	attractiveness	275.743559720373	
33.0	187.5993026489159	pulse	1.0	t		20.0	male	black	3.1070433744528456	neutral	082	sub-17	2.0	1.0	082_neutral	1.0	attractiveness	276.44354994018795	
33.0	187.99918890903064	rating	2.0		294	20.0	male	black	3.1070433744528456	neutral	082	sub-17	2.0	1.0	082_neutral	1.0	attractiveness	276.8434362003027	2.4999830959859537
33.0	188.2993076597486	pulse	2.0	t		20.0	male	black	3.1070433744528456	neutral	082	sub-17	2.0	1.0	082_neutral	1.0	attractiveness	277.14355495102063	
33.0	188.99930029442476	pulse	2.0	t		20.0	male	black	3.1070433744528456	neutral	082	sub-17	2.0	1.0	082_neutral	1.0	attractiveness	277.8435475856968	
33.0	189.55760587195982	response	2.0	w		20.0	male	black	3.1070433744528456	neutral	082	sub-17	2.0	1.0	082_neutral	1.0	attractiveness	278.40185316323186	
33.0	189.69928417523624	pulse	2.0	t		20.0	male	black	3.1070433744528456	neutral	082	sub-17	2.0	1.0	082_neutral	1.0	attractiveness	278.5435314665083	
33.0	190.3992707727739	pulse	2.0	t		20.0	male	black	3.1070433744528456	neutral	082	sub-17	2.0	1.0	082_neutral	1.0	attractiveness	279.24351806404593	
33.0	190.4991720050166	fix	3.0		445	20.0	male	black	3.1070433744528456	neutral	082	sub-17	2.0	1.0	082_neutral	1.0	attractiveness	279.34341929628863	3.7749299539718777
33.0	191.09928453747125	pulse	3.0	t		20.0	male	black	3.1070433744528456	neutral	082	sub-17	2.0	1.0	082_neutral	1.0	attractiveness	279.9435318287433	
33.0	191.7992647959909	pulse	3.0	t		20.0	male	black	3.1070433744528456	neutral	082	sub-17	2.0	1.0	082_neutral	1.0	attractiveness	280.64351208726293	
33.0	192.49924384707992	pulse	3.0	t		20.0	male	black	3.1070433744528456	neutral	082	sub-17	2.0	1.0	082_neutral	1.0	attractiveness	281.34349113835196	
33.0	193.1992376891867	pulse	3.0	t		20.0	male	black	3.1070433744528456	neutral	082	sub-17	2.0	1.0	082_neutral	1.0	attractiveness	282.04348498045874	
33.0	193.89924632231123	pulse	3.0	t		20.0	male	black	3.1070433744528456	neutral	082	sub-17	2.0	1.0	082_neutral	1.0	attractiveness	282.74349361358327	
34.0	194.27410195898847	face	0.0		145	21.0	male	black	2.969757262236371	smiling	137	sub-17	2.0	1.0	137_smiling	0.0		283.1183492502605	1.2333484865812352
34.0	194.59925254057453	pulse	0.0	t		21.0	male	black	2.969757262236371	smiling	137	sub-17	2.0	1.0	137_smiling	0.0		283.44349983184657	
34.0	195.29923974182748	pulse	0.0	t		21.0	male	black	2.969757262236371	smiling	137	sub-17	2.0	1.0	137_smiling	0.0		284.1434870330995	
34.0	195.5074504455697	fix	1.0		444	21.0	male	black	2.969757262236371	smiling	137	sub-17	2.0	1.0	137_smiling	0.0		284.35169773684174	3.758337453677086
34.0	196.00013523212692	pulse	1.0	t		21.0	male	black	2.969757262236371	smiling	137	sub-17	2.0	1.0	137_smiling	0.0		284.84438252339896	
34.0	196.6992111257423	pulse	1.0	t		21.0	male	black	2.969757262236371	smiling	137	sub-17	2.0	1.0	137_smiling	0.0		285.54345841701434	
34.0	197.39919289354293	pulse	1.0	t		21.0	male	black	2.969757262236371	smiling	137	sub-17	2.0	1.0	137_smiling	0.0		286.243440184815	
34.0	198.09918250964256	pulse	1.0	t		21.0	male	black	2.969757262236371	smiling	137	sub-17	2.0	1.0	137_smiling	0.0		286.9434298009146	
34.0	198.79917816289526	pulse	1.0	t		21.0	male	black	2.969757262236371	smiling	137	sub-17	2.0	1.0	137_smiling	0.0		287.6434254541673	
35.0	199.2657878992468	face	0.0		146	22.0	female	white	4.614007162753682	neutral	009	sub-17	2.0	1.0	009_neutral	0.0		288.11003519051883	1.241607910124003
35.0	199.49917351429758	pulse	0.0	t		22.0	female	white	4.614007162753682	neutral	009	sub-17	2.0	1.0	009_neutral	0.0		288.3434208055696	
35.0	200.1991703749809	pulse	0.0	t		22.0	female	white	4.614007162753682	neutral	009	sub-17	2.0	1.0	009_neutral	0.0		289.04341766625294	
35.0	200.5073958093708	fix	1.0		444	22.0	female	white	4.614007162753682	neutral	009	sub-17	2.0	1.0	009_neutral	0.0		289.35164310064283	3.7582918732077815
35.0	200.8991660282336	pulse	1.0	t		22.0	female	white	4.614007162753682	neutral	009	sub-17	2.0	1.0	009_neutral	0.0		289.74341331950563	
35.0	201.5991505127604	pulse	1.0	t		22.0	female	white	4.614007162753682	neutral	009	sub-17	2.0	1.0	009_neutral	0.0		290.44339780403243	
35.0	202.2991473734437	pulse	1.0	t		22.0	female	white	4.614007162753682	neutral	009	sub-17	2.0	1.0	009_neutral	0.0		291.14339466471574	
35.0	202.99914483784232	pulse	1.0	t		22.0	female	white	4.614007162753682	neutral	009	sub-17	2.0	1.0	009_neutral	0.0		291.84339212911436	
35.0	203.69912630379258	pulse	1.0	t		22.0	female	white	4.614007162753682	neutral	009	sub-17	2.0	1.0	009_neutral	0.0		292.5433735950646	
36.0	204.26568768257857	face	0.0		146	32.0	male	white	2.389176283326701	smiling	092	sub-17	2.0	1.0	092_smiling	1.0	attractiveness	293.1099349738506	1.241636888429639
36.0	204.39911501432653	pulse	0.0	t		32.0	male	white	2.389176283326701	smiling	092	sub-17	2.0	1.0	092_smiling	1.0	attractiveness	293.24336230559857	
36.0	205.09910855456837	pulse	0.0	t		32.0	male	white	2.389176283326701	smiling	092	sub-17	2.0	1.0	092_smiling	1.0	attractiveness	293.9433558458404	
36.0	205.5073245710082	fix	1.0		177	32.0	male	white	2.389176283326701	smiling	092	sub-17	2.0	1.0	092_smiling	1.0	attractiveness	294.35157186228025	1.4999818885553395
36.0	205.79909937811317	pulse	1.0	t		32.0	male	white	2.389176283326701	smiling	092	sub-17	2.0	1.0	092_smiling	1.0	attractiveness	294.6433466693852	
36.0	206.4990895979281	pulse	1.0	t		32.0	male	white	2.389176283326701	smiling	092	sub-17	2.0	1.0	092_smiling	1.0	attractiveness	295.34333688920015	
36.0	207.00730645956355	rating	2.0		294	32.0	male	white	2.389176283326701	smiling	092	sub-17	2.0	1.0	092_smiling	1.0	attractiveness	295.8515537508356	2.4999840015516384
36.0	207.19908555303118	pulse	2.0	t		32.0	male	white	2.389176283326701	smiling	092	sub-17	2.0	1.0	092_smiling	1.0	attractiveness	296.0433328443032	
36.0	207.89907698029128	pulse	2.0	t		32.0	male	white	2.389176283326701	smiling	092	sub-17	2.0	1.0	092_smiling	1.0	attractiveness	296.7433242715633	
36.0	208.34073850027926	response	2.0	d		32.0	male	white	2.389176283326701	smiling	092	sub-17	2.0	1.0	092_smiling	1.0	attractiveness	297.1849857915513	
36.0	208.5990771614015	pulse	2.0	t		32.0	male	white	2.389176283326701	smiling	092	sub-17	2.0	1.0	092_smiling	1.0	attractiveness	297.44332445267355	
36.0	209.29906557007052	pulse	2.0	t		32.0	male	white	2.389176283326701	smiling	092	sub-17	2.0	1.0	092_smiling	1.0	attractiveness	298.14331286134257	
36.0	209.5072904611152	fix	3.0		444	32.0	male	white	2.389176283326701	smiling	092	sub-17	2.0	1.0	092_smiling	1.0	attractiveness	298.35153775238723	3.7666116682376014
36.0	209.99907420319505	pulse	3.0	t		32.0	male	white	2.389176283326701	smiling	092	sub-17	2.0	1.0	092_smiling	1.0	attractiveness	298.8433214944671	
36.0	210.6990318224125	pulse	3.0	t		32.0	male	white	2.389176283326701	smiling	092	sub-17	2.0	1.0	092_smiling	1.0	attractiveness	299.54327911368455	
36.0	211.3990178162203	pulse	3.0	t		32.0	male	white	2.389176283326701	smiling	092	sub-17	2.0	1.0	092_smiling	1.0	attractiveness	300.24326510749233	
36.0	212.09903942921665	pulse	3.0	t		32.0	male	white	2.389176283326701	smiling	092	sub-17	2.0	1.0	092_smiling	1.0	attractiveness	300.9432867204887	
36.0	212.79902119703183	pulse	3.0	t		32.0	male	white	2.389176283326701	smiling	092	sub-17	2.0	1.0	092_smiling	1.0	attractiveness	301.6432684883039	
37.0	213.2739021293528	face	0.0		145	25.0	female	black	3.858336649423	smiling	126	sub-17	2.0	1.0	126_smiling	1.0	trustworthiness	302.11814942062483	1.233332186282496
37.0	213.49901352984307	pulse	0.0	t		25.0	female	black	3.858336649423	smiling	126	sub-17	2.0	1.0	126_smiling	1.0	trustworthiness	302.3432608211151	
37.0	214.19900133481133	pulse	0.0	t		25.0	female	black	3.858336649423	smiling	126	sub-17	2.0	1.0	126_smiling	1.0	trustworthiness	303.04324862608337	
37.0	214.5072343156353	fix	1.0		177	25.0	female	black	3.858336649423	smiling	126	sub-17	2.0	1.0	126_smiling	1.0	trustworthiness	303.3514816069073	1.4999873219785513
37.0	214.899017212505	pulse	1.0	t		25.0	female	black	3.858336649423	smiling	126	sub-17	2.0	1.0	126_smiling	1.0	trustworthiness	303.743264503777	
37.0	215.5989823781565	pulse	1.0	t		25.0	female	black	3.858336649423	smiling	126	sub-17	2.0	1.0	126_smiling	1.0	trustworthiness	304.44322966942855	
37.0	216.00722163761384	rating	2.0		294	25.0	female	black	3.858336649423	smiling	126	sub-17	2.0	1.0	126_smiling	1.0	trustworthiness	304.8514689288859	2.499967097537592
37.0	216.29898618155858	pulse	2.0	t		25.0	female	black	3.858336649423	smiling	126	sub-17	2.0	1.0	126_smiling	1.0	trustworthiness	305.1432334728306	
37.0	216.99898334410682	pulse	2.0	t		25.0	female	black	3.858336649423	smiling	126	sub-17	2.0	1.0	126_smiling	1.0	trustworthiness	305.84323063537886	
37.0	217.5406420870131	response	2.0	b		25.0	female	black	3.858336649423	smiling	126	sub-17	2.0	1.0	126_smiling	1.0	trustworthiness	306.38488937828515	
37.0	217.69896843234892	pulse	2.0	t		25.0	female	black	3.858336649423	smiling	126	sub-17	2.0	1.0	126_smiling	1.0	trustworthiness	306.54321572362096	
37.0	218.39895653916756	pulse	2.0	t		25.0	female	black	3.858336649423	smiling	126	sub-17	2.0	1.0	126_smiling	1.0	trustworthiness	307.2432038304396	
37.0	218.50718873515143	fix	3.0		444	25.0	female	black	3.858336649423	smiling	126	sub-17	2.0	1.0	126_smiling	1.0	trustworthiness	307.35143602642347	3.7582577633293113
37.0	219.09896185185062	pulse	3.0	t		25.0	female	black	3.858336649423	smiling	126	sub-17	2.0	1.0	126_smiling	1.0	trustworthiness	307.94320914312266	
37.0	219.79894875123864	pulse	3.0	t		25.0	female	black	3.858336649423	smiling	126	sub-17	2.0	1.0	126_smiling	1.0	trustworthiness	308.6431960425107	
37.0	220.49894349892566	pulse	3.0	t		25.0	female	black	3.858336649423	smiling	126	sub-17	2.0	1.0	126_smiling	1.0	trustworthiness	309.3431907901977	
37.0	221.19891832400754	pulse	3.0	t		25.0	female	black	3.858336649423	smiling	126	sub-17	2.0	1.0	126_smiling	1.0	trustworthiness	310.0431656152796	
37.0	221.89892182555923	pulse	3.0	t		25.0	female	black	3.858336649423	smiling	126	sub-17	2.0	1.0	126_smiling	1.0	trustworthiness	310.74316911683127	
38.0	222.26544649848074	face	0.0		146	40.0	male	white	1.868682849184242	neutral	172	sub-17	2.0	1.0	172_neutral	0.0		311.1096937897528	1.2416725076036528
38.0	222.59891113980848	pulse	0.0	t		40.0	male	white	1.868682849184242	neutral	172	sub-17	2.0	1.0	172_neutral	0.0		311.4431584310805	
38.0	223.29904111962242	pulse	0.0	t		40.0	male	white	1.868682849184242	neutral	172	sub-17	2.0	1.0	172_neutral	0.0		312.14328841089446	
38.0	223.5071190060844	fix	1.0		444	40.0	male	white	1.868682849184242	neutral	172	sub-17	2.0	1.0	172_neutral	0.0		312.35136629735644	3.7582864397845697
38.0	223.99890003145265	pulse	1.0	t		40.0	male	white	1.868682849184242	neutral	172	sub-17	2.0	1.0	172_neutral	0.0		312.8431473227247	
38.0	224.69889025126758	pulse	1.0	t		40.0	male	white	1.868682849184242	neutral	172	sub-17	2.0	1.0	172_neutral	0.0		313.5431375425396	
38.0	225.39888741380128	pulse	1.0	t		40.0	male	white	1.868682849184242	neutral	172	sub-17	2.0	1.0	172_neutral	0.0		314.2431347050733	
38.0	226.09887612433522	pulse	1.0	t		40.0	male	white	1.868682849184242	neutral	172	sub-17	2.0	1.0	172_neutral	0.0		314.94312341560726	
38.0	226.7988488364208	pulse	1.0	t		40.0	male	white	1.868682849184242	neutral	172	sub-17	2.0	1.0	172_neutral	0.0		315.64309612769284	
39.0	227.26540544586896	face	0.0		146	32.0	male	white	2.389176283326701	neutral	092	sub-17	2.0	1.0	092_neutral	0.0		316.109652737141	1.2416716020379681
39.0	227.4988523379725	pulse	0.0	t		32.0	male	white	2.389176283326701	neutral	092	sub-17	2.0	1.0	092_neutral	0.0		316.34309962924453	
39.0	228.1988501042215	pulse	0.0	t		32.0	male	white	2.389176283326701	neutral	092	sub-17	2.0	1.0	092_neutral	0.0		317.04309739549353	
39.0	228.50707704790693	fix	1.0		444	32.0	male	white	2.389176283326701	neutral	092	sub-17	2.0	1.0	092_neutral	0.0		317.351324339179	3.7499340441427194
39.0	228.8988330794673	pulse	1.0	t		32.0	male	white	2.389176283326701	neutral	092	sub-17	2.0	1.0	092_neutral	0.0		317.74308037073934	
39.0	229.59882873272	pulse	1.0	t		32.0	male	white	2.389176283326701	neutral	092	sub-17	2.0	1.0	092_neutral	0.0		318.44307602399203	
39.0	230.29882106554578	pulse	1.0	t		32.0	male	white	2.389176283326701	neutral	092	sub-17	2.0	1.0	092_neutral	0.0		319.1430683568178	
39.0	230.99882788752439	pulse	1.0	t		32.0	male	white	2.389176283326701	neutral	092	sub-17	2.0	1.0	092_neutral	0.0		319.8430751787964	
39.0	231.69883169092645	pulse	1.0	t		32.0	male	white	2.389176283326701	neutral	092	sub-17	2.0	1.0	092_neutral	0.0		320.5430789821985	
40.0	232.25701109204965	fix	0.0		720													321.1012583833217	5.99995140095416
40.0	232.3988007807202	pulse	0.0	t														321.24304807199223	
40.0	233.0987870763929	pulse	0.0	t														321.94303436766495	
40.0	233.798783031496	pulse	0.0	t														322.643030322768	
40.0	234.49878260890546	pulse	0.0	t														323.3430299001775	
40.0	235.19877765844285	pulse	0.0	t														324.0430249497149	
40.0	235.89875610581657	pulse	0.0	t														324.7430033970886	
40.0	236.59875749435741	pulse	0.0	t														325.44300478562946	
40.0	237.29875616618665	pulse	0.0	t														326.1430034574587	
40.0	237.99873310427938	pulse	0.0	t														326.8429803955514	
