trial_nr	onset	event_type	phase	response	nr_frames	face_age	face_sex	face_eth	attractiveness	expression	face_id	sub_id	ses	run	trial_type	catch	rating_type	onset_abs	duration
-1.0	0.058268492796742066	fix	0.0		713													25.83759101999476	5.957899356781127
-1.0	0.6998017731448272	pulse	0.0	t														26.479124300342846	
-1.0	1.3999232086007396	pulse	0.0	t														27.17924573579876	
-1.0	2.0997162280082193	pulse	0.0	t														27.87903875520624	
-1.0	2.79984249311201	pulse	0.0	t														28.57916502031003	
-1.0	3.4997903631019653	pulse	0.0	t														29.279112890299984	
-1.0	4.199739742356542	pulse	0.0	t														29.97906226955456	
-1.0	4.899720514321416	pulse	0.0	t														30.679043041519435	
-1.0	5.59962250265653	pulse	0.0	t														31.37894502985455	
0.0	6.016167849577869	face	0.0		144	37.0	male	white	3.898925586947871	neutral	101	sub-12	2.0	5.0	101_neutral	0.0		31.795490376775888	1.2333006627786745
0.0	6.299696547193889	pulse	0.0	t		37.0	male	white	3.898925586947871	neutral	101	sub-12	2.0	5.0	101_neutral	0.0		32.07901907439191	
0.0	6.99958314102787	pulse	0.0	t		37.0	male	white	3.898925586947871	neutral	101	sub-12	2.0	5.0	101_neutral	0.0		32.77890566822589	
0.0	7.249468512356543	fix	1.0		444	37.0	male	white	3.898925586947871	neutral	101	sub-12	2.0	5.0	101_neutral	0.0		33.02879103955456	3.7582290406116954
0.0	7.69958142046562	pulse	1.0	t		37.0	male	white	3.898925586947871	neutral	101	sub-12	2.0	5.0	101_neutral	0.0		33.47890394766364	
0.0	8.399605659260487	pulse	1.0	t		37.0	male	white	3.898925586947871	neutral	101	sub-12	2.0	5.0	101_neutral	0.0		34.178928186458506	
0.0	9.099534814365143	pulse	1.0	t		37.0	male	white	3.898925586947871	neutral	101	sub-12	2.0	5.0	101_neutral	0.0		34.87885734156316	
0.0	9.79951920856547	pulse	1.0	t		37.0	male	white	3.898925586947871	neutral	101	sub-12	2.0	5.0	101_neutral	0.0		35.57884173576349	
0.0	10.49949877311792	pulse	1.0	t		37.0	male	white	3.898925586947871	neutral	101	sub-12	2.0	5.0	101_neutral	0.0		36.27882130031594	
1.0	11.007697552968239	face	0.0		146	54.0	female	white	2.286908077994429	smiling	136	sub-12	2.0	5.0	136_smiling	0.0		36.78702008016626	1.2416420681638556
1.0	11.199490713644082	pulse	0.0	t		54.0	female	white	2.286908077994429	smiling	136	sub-12	2.0	5.0	136_smiling	0.0		36.9788132408421	
1.0	11.899466957813274	pulse	0.0	t		54.0	female	white	2.286908077994429	smiling	136	sub-12	2.0	5.0	136_smiling	0.0		37.67878948501129	
1.0	12.249339621132094	fix	1.0		444	54.0	female	white	2.286908077994429	smiling	136	sub-12	2.0	5.0	136_smiling	0.0		38.02866214833011	3.7582242109638173
1.0	12.59952953193715	pulse	1.0	t		54.0	female	white	2.286908077994429	smiling	136	sub-12	2.0	5.0	136_smiling	0.0		38.37885205913517	
1.0	13.29941461650651	pulse	1.0	t		54.0	female	white	2.286908077994429	smiling	136	sub-12	2.0	5.0	136_smiling	0.0		39.07873714370453	
1.0	13.999417121885926	pulse	1.0	t		54.0	female	white	2.286908077994429	smiling	136	sub-12	2.0	5.0	136_smiling	0.0		39.778739649083946	
1.0	14.699385819731106	pulse	1.0	t		54.0	female	white	2.286908077994429	smiling	136	sub-12	2.0	5.0	136_smiling	0.0		40.478708346929125	
1.0	15.39937051578545	pulse	1.0	t		54.0	female	white	2.286908077994429	smiling	136	sub-12	2.0	5.0	136_smiling	0.0		41.17869304298347	
2.0	16.00756383209591	face	0.0		146	26.0	male	white	2.7966573816155993	smiling	117	sub-12	2.0	5.0	117_smiling	0.0		41.78688635929393	1.2416312014565847
2.0	16.099431580643795	pulse	0.0	t		26.0	male	white	2.7966573816155993	smiling	117	sub-12	2.0	5.0	117_smiling	0.0		41.878754107841814	
2.0	16.799331456008986	pulse	0.0	t		26.0	male	white	2.7966573816155993	smiling	117	sub-12	2.0	5.0	117_smiling	0.0		42.578653983207005	
2.0	17.249195033552496	fix	1.0		445	26.0	male	white	2.7966573816155993	smiling	117	sub-12	2.0	5.0	117_smiling	0.0		43.028517560750515	3.7748855901718343
2.0	17.499320679857192	pulse	1.0	t		26.0	male	white	2.7966573816155993	smiling	117	sub-12	2.0	5.0	117_smiling	0.0		43.27864320705521	
2.0	18.199296018467976	pulse	1.0	t		26.0	male	white	2.7966573816155993	smiling	117	sub-12	2.0	5.0	117_smiling	0.0		43.978618545665995	
2.0	18.899292184935803	pulse	1.0	t		26.0	male	white	2.7966573816155993	smiling	117	sub-12	2.0	5.0	117_smiling	0.0		44.67861471213382	
2.0	19.59926963651742	pulse	1.0	t		26.0	male	white	2.7966573816155993	smiling	117	sub-12	2.0	5.0	117_smiling	0.0		45.37859216371544	
2.0	20.299219921331314	pulse	1.0	t		26.0	male	white	2.7966573816155993	smiling	117	sub-12	2.0	5.0	117_smiling	0.0		46.07854244852933	
2.0	20.999229671182547	pulse	1.0	t		26.0	male	white	2.7966573816155993	smiling	117	sub-12	2.0	5.0	117_smiling	0.0		46.77855219838057	
3.0	21.02408062372433	face	0.0		146	27.0	female	white	3.504576203740549	smiling	144	sub-12	2.0	5.0	144_smiling	1.0	trustworthiness	46.80340315092235	1.2333121331921575
3.0	21.699315487985587	pulse	0.0	t		27.0	female	white	3.504576203740549	smiling	144	sub-12	2.0	5.0	144_smiling	1.0	trustworthiness	47.478638015183606	
3.0	22.257392756916488	fix	1.0		177	27.0	female	white	3.504576203740549	smiling	144	sub-12	2.0	5.0	144_smiling	1.0	trustworthiness	48.03671528411451	1.50832585995704
3.0	22.39917763172798	pulse	1.0	t		27.0	female	white	3.504576203740549	smiling	144	sub-12	2.0	5.0	144_smiling	1.0	trustworthiness	48.178500158926	
3.0	23.099147536984674	pulse	1.0	t		27.0	female	white	3.504576203740549	smiling	144	sub-12	2.0	5.0	144_smiling	1.0	trustworthiness	48.87847006418269	
3.0	23.765718616873528	rating	2.0		293	27.0	female	white	3.504576203740549	smiling	144	sub-12	2.0	5.0	144_smiling	1.0	trustworthiness	49.54504114407155	2.49157422670487
3.0	23.799154268306665	pulse	2.0	t		27.0	female	white	3.504576203740549	smiling	144	sub-12	2.0	5.0	144_smiling	1.0	trustworthiness	49.578476795504685	
3.0	24.499174281159867	pulse	2.0	t		27.0	female	white	3.504576203740549	smiling	144	sub-12	2.0	5.0	144_smiling	1.0	trustworthiness	50.278496808357886	
3.0	25.199139960474895	pulse	2.0	t		27.0	female	white	3.504576203740549	smiling	144	sub-12	2.0	5.0	144_smiling	1.0	trustworthiness	50.978462487672914	
3.0	25.89911831761583	pulse	2.0	t		27.0	female	white	3.504576203740549	smiling	144	sub-12	2.0	5.0	144_smiling	1.0	trustworthiness	51.67844084481385	
3.0	25.97407294156619	response	2.0	b		27.0	female	white	3.504576203740549	smiling	144	sub-12	2.0	5.0	144_smiling	1.0	trustworthiness	51.75339546876421	
3.0	26.257292843578398	fix	3.0		444	27.0	female	white	3.504576203740549	smiling	144	sub-12	2.0	5.0	144_smiling	1.0	trustworthiness	52.03661537077642	3.7582148535211672
3.0	26.59910180625775	pulse	3.0	t		27.0	female	white	3.504576203740549	smiling	144	sub-12	2.0	5.0	144_smiling	1.0	trustworthiness	52.37842433345577	
3.0	27.29908438934035	pulse	3.0	t		27.0	female	white	3.504576203740549	smiling	144	sub-12	2.0	5.0	144_smiling	1.0	trustworthiness	53.07840691653837	
3.0	27.99907874468954	pulse	3.0	t		27.0	female	white	3.504576203740549	smiling	144	sub-12	2.0	5.0	144_smiling	1.0	trustworthiness	53.77840127188756	
3.0	28.699141620666524	pulse	3.0	t		27.0	female	white	3.504576203740549	smiling	144	sub-12	2.0	5.0	144_smiling	1.0	trustworthiness	54.47846414786454	
3.0	29.398996218083994	pulse	3.0	t		27.0	female	white	3.504576203740549	smiling	144	sub-12	2.0	5.0	144_smiling	1.0	trustworthiness	55.17831874528201	
4.0	30.015507697099565	face	0.0		146	22.0	male	black	2.767608436132113	smiling	044	sub-12	2.0	5.0	044_smiling	0.0		55.794830224297584	1.241650520048097
4.0	30.098982725255155	pulse	0.0	t		22.0	male	black	2.767608436132113	smiling	044	sub-12	2.0	5.0	044_smiling	0.0		55.878305252453174	
4.0	30.79897285466268	pulse	0.0	t		22.0	male	black	2.767608436132113	smiling	044	sub-12	2.0	5.0	044_smiling	0.0		56.5782953818607	
4.0	31.257158217147662	fix	1.0		444	22.0	male	black	2.767608436132113	smiling	044	sub-12	2.0	5.0	044_smiling	0.0		57.03648074434568	3.7665496181407434
4.0	31.498966606305657	pulse	1.0	t		22.0	male	black	2.767608436132113	smiling	044	sub-12	2.0	5.0	044_smiling	0.0		57.27828913350368	
4.0	32.19891689111955	pulse	1.0	t		22.0	male	black	2.767608436132113	smiling	044	sub-12	2.0	5.0	044_smiling	0.0		57.97823941831757	
4.0	32.89888649452405	pulse	1.0	t		22.0	male	black	2.767608436132113	smiling	044	sub-12	2.0	5.0	044_smiling	0.0		58.67820902172207	
4.0	33.59887692578377	pulse	1.0	t		22.0	male	black	2.767608436132113	smiling	044	sub-12	2.0	5.0	044_smiling	0.0		59.37819945298179	
4.0	34.29885286810077	pulse	1.0	t		22.0	male	black	2.767608436132113	smiling	044	sub-12	2.0	5.0	044_smiling	0.0		60.078175395298786	
4.0	34.99884088453746	pulse	1.0	t		22.0	male	black	2.767608436132113	smiling	044	sub-12	2.0	5.0	044_smiling	0.0		60.77816341173548	
5.0	35.023707835288405	face	0.0		146	19.0	male	white	2.243931555909272	smiling	130	sub-12	2.0	5.0	130_smiling	0.0		60.803030362486425	1.2333178683984443
5.0	35.69883886212301	pulse	0.0	t		19.0	male	white	2.243931555909272	smiling	130	sub-12	2.0	5.0	130_smiling	0.0		61.47816138932103	
5.0	36.25702570368685	fix	1.0		443	19.0	male	white	2.243931555909272	smiling	130	sub-12	2.0	5.0	130_smiling	0.0		62.03634823088487	3.7665478070230165
5.0	36.39881208776296	pulse	1.0	t		19.0	male	white	2.243931555909272	smiling	130	sub-12	2.0	5.0	130_smiling	0.0		62.17813461496098	
5.0	37.098772031871704	pulse	1.0	t		19.0	male	white	2.243931555909272	smiling	130	sub-12	2.0	5.0	130_smiling	0.0		62.87809455906972	
5.0	37.79876125571991	pulse	1.0	t		19.0	male	white	2.243931555909272	smiling	130	sub-12	2.0	5.0	130_smiling	0.0		63.57808378291793	
5.0	38.49874232953789	pulse	1.0	t		19.0	male	white	2.243931555909272	smiling	130	sub-12	2.0	5.0	130_smiling	0.0		64.27806485673591	
5.0	39.19872400706208	pulse	1.0	t		19.0	male	white	2.243931555909272	smiling	130	sub-12	2.0	5.0	130_smiling	0.0		64.9780465342601	
5.0	39.89869994937908	pulse	1.0	t		19.0	male	white	2.243931555909272	smiling	130	sub-12	2.0	5.0	130_smiling	0.0		65.6780224765771	
6.0	40.023573510709866	face	0.0		146	27.0	male	black	3.5523278949462798	neutral	042	sub-12	2.0	5.0	042_neutral	0.0		65.80289603790789	1.2333175665462477
6.0	40.5986770991085	pulse	0.0	t		27.0	male	black	3.5523278949462798	neutral	042	sub-12	2.0	5.0	042_neutral	0.0		66.37799962630652	
6.0	41.256891077256114	fix	1.0		443	27.0	male	black	3.5523278949462798	neutral	042	sub-12	2.0	5.0	042_neutral	0.0		67.03621360445413	3.766548410728319
6.0	41.29867537854625	pulse	1.0	t		27.0	male	black	3.5523278949462798	neutral	042	sub-12	2.0	5.0	042_neutral	0.0		67.07799790574427	
6.0	41.99865041530393	pulse	1.0	t		27.0	male	black	3.5523278949462798	neutral	042	sub-12	2.0	5.0	042_neutral	0.0		67.77797294250195	
6.0	42.698637224329104	pulse	1.0	t		27.0	male	black	3.5523278949462798	neutral	042	sub-12	2.0	5.0	042_neutral	0.0		68.47795975152712	
6.0	43.398615883323146	pulse	1.0	t		27.0	male	black	3.5523278949462798	neutral	042	sub-12	2.0	5.0	042_neutral	0.0		69.17793841052116	
6.0	44.09859122193393	pulse	1.0	t		27.0	male	black	3.5523278949462798	neutral	042	sub-12	2.0	5.0	042_neutral	0.0		69.87791374913195	
6.0	44.798580445782136	pulse	1.0	t		27.0	male	black	3.5523278949462798	neutral	042	sub-12	2.0	5.0	042_neutral	0.0		70.57790297298016	
7.0	45.02343948798443	face	0.0		145	25.0	female	black	3.858336649423	neutral	126	sub-12	2.0	5.0	126_neutral	1.0	trustworthiness	70.80276201518245	1.2333127368983696
7.0	45.49854703065648	pulse	0.0	t		25.0	female	black	3.858336649423	neutral	126	sub-12	2.0	5.0	126_neutral	1.0	trustworthiness	71.2778695578545	
7.0	46.198545008242036	pulse	0.0	t		25.0	female	black	3.858336649423	neutral	126	sub-12	2.0	5.0	126_neutral	1.0	trustworthiness	71.97786753544005	
7.0	46.2567522248828	fix	1.0		177	25.0	female	black	3.858336649423	neutral	126	sub-12	2.0	5.0	126_neutral	1.0	trustworthiness	72.03607475208082	1.4999850582771614
7.0	46.89852245982365	pulse	1.0	t		25.0	female	black	3.858336649423	neutral	126	sub-12	2.0	5.0	126_neutral	1.0	trustworthiness	72.67784498702167	
7.0	47.59850292993542	pulse	1.0	t		25.0	female	black	3.858336649423	neutral	126	sub-12	2.0	5.0	126_neutral	1.0	trustworthiness	73.37782545713344	
7.0	47.756737283159964	rating	2.0		295	25.0	female	black	3.858336649423	neutral	126	sub-12	2.0	5.0	126_neutral	1.0	trustworthiness	73.53605981035798	2.4999077839129313
7.0	48.29848792784287	pulse	2.0	t		25.0	female	black	3.858336649423	neutral	126	sub-12	2.0	5.0	126_neutral	1.0	trustworthiness	74.07781045504089	
7.0	48.99846900165994	pulse	2.0	t		25.0	female	black	3.858336649423	neutral	126	sub-12	2.0	5.0	126_neutral	1.0	trustworthiness	74.77779152885796	
7.0	49.69844916991951	pulse	2.0	t		25.0	female	black	3.858336649423	neutral	126	sub-12	2.0	5.0	126_neutral	1.0	trustworthiness	75.47777169711753	
7.0	49.76509619601802	response	2.0	w		25.0	female	black	3.858336649423	neutral	126	sub-12	2.0	5.0	126_neutral	1.0	trustworthiness	75.54441872321604	
7.0	50.256645067072895	fix	3.0		443	25.0	female	black	3.858336649423	neutral	126	sub-12	2.0	5.0	126_neutral	1.0	trustworthiness	76.03596759427091	3.7665701441437704
7.0	50.39843899747393	pulse	3.0	t		25.0	female	black	3.858336649423	neutral	126	sub-12	2.0	5.0	126_neutral	1.0	trustworthiness	76.17776152467195	
7.0	51.098410411996156	pulse	3.0	t		25.0	female	black	3.858336649423	neutral	126	sub-12	2.0	5.0	126_neutral	1.0	trustworthiness	76.87773293919417	
7.0	51.798393900638075	pulse	3.0	t		25.0	female	black	3.858336649423	neutral	126	sub-12	2.0	5.0	126_neutral	1.0	trustworthiness	77.5777164278361	
7.0	52.49836139107083	pulse	3.0	t		25.0	female	black	3.858336649423	neutral	126	sub-12	2.0	5.0	126_neutral	1.0	trustworthiness	78.27768391826885	
7.0	53.19835091677214	pulse	3.0	t		25.0	female	black	3.858336649423	neutral	126	sub-12	2.0	5.0	126_neutral	1.0	trustworthiness	78.97767344397016	
7.0	53.89833199059012	pulse	3.0	t		25.0	female	black	3.858336649423	neutral	126	sub-12	2.0	5.0	126_neutral	1.0	trustworthiness	79.67765451778814	
8.0	54.023215211216666	face	0.0		146	21.0	male	black	2.969757262236371	smiling	137	sub-12	2.0	5.0	137_smiling	0.0		79.80253773841469	1.2332897960714035
8.0	54.598317592202875	pulse	0.0	t		21.0	male	black	2.969757262236371	smiling	137	sub-12	2.0	5.0	137_smiling	0.0		80.3776401194009	
8.0	55.25650500728807	fix	1.0		443	21.0	male	black	2.969757262236371	smiling	137	sub-12	2.0	5.0	137_smiling	0.0		81.03582753448609	3.7665779923217997
8.0	55.29838559968084	pulse	1.0	t		21.0	male	black	2.969757262236371	smiling	137	sub-12	2.0	5.0	137_smiling	0.0		81.07770812687886	
8.0	55.9982897009877	pulse	1.0	t		21.0	male	black	2.969757262236371	smiling	137	sub-12	2.0	5.0	137_smiling	0.0		81.77761222818572	
8.0	56.6982599080975	pulse	1.0	t		21.0	male	black	2.969757262236371	smiling	137	sub-12	2.0	5.0	137_smiling	0.0		82.47758243529552	
8.0	57.39824611341646	pulse	1.0	t		21.0	male	black	2.969757262236371	smiling	137	sub-12	2.0	5.0	137_smiling	0.0		83.17756864061448	
8.0	58.09822748908664	pulse	1.0	t		21.0	male	black	2.969757262236371	smiling	137	sub-12	2.0	5.0	137_smiling	0.0		83.87755001628466	
8.0	58.79820765734621	pulse	1.0	t		21.0	male	black	2.969757262236371	smiling	137	sub-12	2.0	5.0	137_smiling	0.0		84.57753018454423	
9.0	59.02308299960987	face	0.0		145	40.0	male	black	2.408674890569041	neutral	061	sub-12	2.0	5.0	061_neutral	0.0		84.80240552680789	1.2333018701901892
9.0	59.498186014487146	pulse	0.0	t		40.0	male	black	2.408674890569041	neutral	061	sub-12	2.0	5.0	061_neutral	0.0		85.27750854168517	
9.0	60.19817131424679	pulse	0.0	t		40.0	male	black	2.408674890569041	neutral	061	sub-12	2.0	5.0	061_neutral	0.0		85.97749384144481	
9.0	60.25638486980006	fix	1.0		444	40.0	male	black	2.408674890569041	neutral	061	sub-12	2.0	5.0	061_neutral	0.0		86.03570739699808	3.7665357329033213
9.0	60.89814876582841	pulse	1.0	t		40.0	male	black	2.408674890569041	neutral	061	sub-12	2.0	5.0	061_neutral	0.0		86.67747129302643	
9.0	61.598127122969345	pulse	1.0	t		40.0	male	black	2.408674890569041	neutral	061	sub-12	2.0	5.0	061_neutral	0.0		87.37744965016736	
9.0	62.29810789493422	pulse	1.0	t		40.0	male	black	2.408674890569041	neutral	061	sub-12	2.0	5.0	061_neutral	0.0		88.07743042213224	
9.0	62.99808685578137	pulse	1.0	t		40.0	male	black	2.408674890569041	neutral	061	sub-12	2.0	5.0	061_neutral	0.0		88.77740938297939	
9.0	63.69809751119192	pulse	1.0	t		40.0	male	black	2.408674890569041	neutral	061	sub-12	2.0	5.0	061_neutral	0.0		89.47742003838994	
10.0	64.02292060270338	face	0.0		145	31.0	female	white	2.1822522881018704	neutral	102	sub-12	2.0	5.0	102_neutral	0.0		89.8022431299014	1.2333260184295796
10.0	64.3980598701246	pulse	0.0	t		31.0	female	white	2.1822522881018704	neutral	102	sub-12	2.0	5.0	102_neutral	0.0		90.17738239732262	
10.0	65.0980294735291	pulse	0.0	t		31.0	female	white	2.1822522881018704	neutral	102	sub-12	2.0	5.0	102_neutral	0.0		90.87735200072711	
10.0	65.25624662113296	fix	1.0		444	31.0	female	white	2.1822522881018704	neutral	102	sub-12	2.0	5.0	102_neutral	0.0		91.03556914833098	3.7665496181407434
10.0	65.79802835667306	pulse	1.0	t		31.0	female	white	2.1822522881018704	neutral	102	sub-12	2.0	5.0	102_neutral	0.0		91.57735088387108	
10.0	66.49800550640157	pulse	1.0	t		31.0	female	white	2.1822522881018704	neutral	102	sub-12	2.0	5.0	102_neutral	0.0		92.27732803359959	
10.0	67.19799050430902	pulse	1.0	t		31.0	female	white	2.1822522881018704	neutral	102	sub-12	2.0	5.0	102_neutral	0.0		92.97731303150704	
10.0	67.89795769288958	pulse	1.0	t		31.0	female	white	2.1822522881018704	neutral	102	sub-12	2.0	5.0	102_neutral	0.0		93.6772802200876	
10.0	68.59793967226597	pulse	1.0	t		31.0	female	white	2.1822522881018704	neutral	102	sub-12	2.0	5.0	102_neutral	0.0		94.37726219946398	
11.0	69.0227962392737	face	0.0		145	32.0	male	white	2.389176283326701	neutral	092	sub-12	2.0	5.0	092_neutral	0.0		94.80211876647172	1.2333054924265525
11.0	69.29791470902364	pulse	0.0	t		32.0	male	white	2.389176283326701	neutral	092	sub-12	2.0	5.0	092_neutral	0.0		95.07723723622166	
11.0	69.99789668840094	pulse	0.0	t		32.0	male	white	2.389176283326701	neutral	092	sub-12	2.0	5.0	092_neutral	0.0		95.77721921559896	
11.0	70.25610173170026	fix	1.0		444	32.0	male	white	2.389176283326701	neutral	092	sub-12	2.0	5.0	092_neutral	0.0		96.03542425889827	3.7582308517294223
11.0	70.69789828822195	pulse	1.0	t		32.0	male	white	2.389176283326701	neutral	092	sub-12	2.0	5.0	092_neutral	0.0		96.47722081541997	
11.0	71.39786698606713	pulse	1.0	t		32.0	male	white	2.389176283326701	neutral	092	sub-12	2.0	5.0	092_neutral	0.0		97.17718951326515	
11.0	72.09785590806223	pulse	1.0	t		32.0	male	white	2.389176283326701	neutral	092	sub-12	2.0	5.0	092_neutral	0.0		97.87717843526025	
11.0	72.79783486890938	pulse	1.0	t		32.0	male	white	2.389176283326701	neutral	092	sub-12	2.0	5.0	092_neutral	0.0		98.5771573961074	
11.0	73.49779934081289	pulse	1.0	t		32.0	male	white	2.389176283326701	neutral	092	sub-12	2.0	5.0	092_neutral	0.0		99.27712186801091	
12.0	74.01433258342968	face	0.0		146	31.0	male	west_asian	1.9538400318344609	smiling	070	sub-12	2.0	5.0	070_smiling	0.0		99.7936551106277	1.2416468978117337
12.0	74.19779641283912	pulse	0.0	t		31.0	male	west_asian	1.9538400318344609	smiling	070	sub-12	2.0	5.0	070_smiling	0.0		99.97711894003714	
12.0	74.8977768829509	pulse	0.0	t		31.0	male	west_asian	1.9538400318344609	smiling	070	sub-12	2.0	5.0	070_smiling	0.0		100.67709941014891	
12.0	75.25597948124141	fix	1.0		444	31.0	male	west_asian	1.9538400318344609	smiling	070	sub-12	2.0	5.0	070_smiling	0.0		101.03530200843943	3.766553240376197
12.0	75.5977655030938	pulse	1.0	t		31.0	male	west_asian	1.9538400318344609	smiling	070	sub-12	2.0	5.0	070_smiling	0.0		101.37708803029182	
12.0	76.29773269167436	pulse	1.0	t		31.0	male	west_asian	1.9538400318344609	smiling	070	sub-12	2.0	5.0	070_smiling	0.0		102.07705521887237	
12.0	76.997717991434	pulse	1.0	t		31.0	male	west_asian	1.9538400318344609	smiling	070	sub-12	2.0	5.0	070_smiling	0.0		102.77704051863202	
12.0	77.69769604672183	pulse	1.0	t		31.0	male	west_asian	1.9538400318344609	smiling	070	sub-12	2.0	5.0	070_smiling	0.0		103.47701857391985	
12.0	78.3976765168336	pulse	1.0	t		31.0	male	west_asian	1.9538400318344609	smiling	070	sub-12	2.0	5.0	070_smiling	0.0		104.17699904403162	
13.0	79.02253272161761	face	0.0		145	36.0	female	white	2.7548746518105847	smiling	011	sub-12	2.0	5.0	011_smiling	0.0		104.80185524881563	1.2333169628400356
13.0	79.09819790749498	pulse	0.0	t		36.0	female	white	2.7548746518105847	smiling	011	sub-12	2.0	5.0	011_smiling	0.0		104.877520434693	
13.0	79.79764047558729	pulse	0.0	t		36.0	female	white	2.7548746518105847	smiling	011	sub-12	2.0	5.0	011_smiling	0.0		105.5769630027853	
13.0	80.25584968445764	fix	1.0		444	36.0	female	white	2.7548746518105847	smiling	011	sub-12	2.0	5.0	011_smiling	0.0		106.03517221165566	3.7748997772623625
13.0	80.49762124755216	pulse	1.0	t		36.0	female	white	2.7548746518105847	smiling	011	sub-12	2.0	5.0	011_smiling	0.0		106.27694377475018	
13.0	81.19761982884302	pulse	1.0	t		36.0	female	white	2.7548746518105847	smiling	011	sub-12	2.0	5.0	011_smiling	0.0		106.97694235604104	
13.0	81.89759697857244	pulse	1.0	t		36.0	female	white	2.7548746518105847	smiling	011	sub-12	2.0	5.0	011_smiling	0.0		107.67691950577046	
13.0	82.59758167462587	pulse	1.0	t		36.0	female	white	2.7548746518105847	smiling	011	sub-12	2.0	5.0	011_smiling	0.0		108.37690420182389	
13.0	83.297547655794	pulse	1.0	t		36.0	female	white	2.7548746518105847	smiling	011	sub-12	2.0	5.0	011_smiling	0.0		109.07687018299202	
13.0	83.99752691849426	pulse	1.0	t		36.0	female	white	2.7548746518105847	smiling	011	sub-12	2.0	5.0	011_smiling	0.0		109.77684944569228	
14.0	84.03074946172	face	0.0		145	23.0	male	white	2.6275368085953046	neutral	141	sub-12	2.0	5.0	141_neutral	0.0		109.81007198891803	1.2249628796298566
14.0	84.69751553863716	pulse	0.0	t		23.0	male	white	2.6275368085953046	neutral	141	sub-12	2.0	5.0	141_neutral	0.0		110.47683806583518	
14.0	85.25571234134986	fix	1.0		443	23.0	male	white	2.6275368085953046	neutral	141	sub-12	2.0	5.0	141_neutral	0.0		111.03503486854788	3.7665674274667253
14.0	85.39748665130628	pulse	1.0	t		23.0	male	white	2.6275368085953046	neutral	141	sub-12	2.0	5.0	141_neutral	0.0		111.1768091785043	
14.0	86.09747708256691	pulse	1.0	t		23.0	male	white	2.6275368085953046	neutral	141	sub-12	2.0	5.0	141_neutral	0.0		111.87679960976493	
14.0	86.79745393044232	pulse	1.0	t		23.0	male	white	2.6275368085953046	neutral	141	sub-12	2.0	5.0	141_neutral	0.0		112.57677645764034	
14.0	87.49743651352492	pulse	1.0	t		23.0	male	white	2.6275368085953046	neutral	141	sub-12	2.0	5.0	141_neutral	0.0		113.27675904072294	
14.0	88.1974429429938	pulse	1.0	t		23.0	male	white	2.6275368085953046	neutral	141	sub-12	2.0	5.0	141_neutral	0.0		113.97676547019182	
14.0	88.8973935296599	pulse	1.0	t		23.0	male	white	2.6275368085953046	neutral	141	sub-12	2.0	5.0	141_neutral	0.0		114.67671605685791	
15.0	89.02227976881659	face	0.0		146	34.0	male	white	2.651014723438122	smiling	121	sub-12	2.0	5.0	121_smiling	0.0		114.80160229601461	1.2333115294859454
15.0	89.5973824516559	pulse	0.0	t		34.0	male	white	2.651014723438122	smiling	121	sub-12	2.0	5.0	121_smiling	0.0		115.37670497885392	
15.0	90.25559129830253	fix	1.0		443	34.0	male	white	2.651014723438122	smiling	121	sub-12	2.0	5.0	121_smiling	0.0		116.03491382550055	3.7583205020664536
15.0	90.2973583939729	pulse	1.0	t		34.0	male	white	2.651014723438122	smiling	121	sub-12	2.0	5.0	121_smiling	0.0		116.07668092117092	
15.0	90.99734550485027	pulse	1.0	t		34.0	male	white	2.651014723438122	smiling	121	sub-12	2.0	5.0	121_smiling	0.0		116.77666803204829	
15.0	91.6973235601381	pulse	1.0	t		34.0	male	white	2.651014723438122	smiling	121	sub-12	2.0	5.0	121_smiling	0.0		117.47664608733612	
15.0	92.39731127472169	pulse	1.0	t		34.0	male	white	2.651014723438122	smiling	121	sub-12	2.0	5.0	121_smiling	0.0		118.1766338019197	
15.0	93.09728299109702	pulse	1.0	t		34.0	male	white	2.651014723438122	smiling	121	sub-12	2.0	5.0	121_smiling	0.0		118.87660551829504	
15.0	93.79725500932545	pulse	1.0	t		34.0	male	white	2.651014723438122	smiling	121	sub-12	2.0	5.0	121_smiling	0.0		119.57657753652347	
16.0	94.01391180036899	face	0.0		146	27.0	female	white	4.181058495821727	smiling	039	sub-12	2.0	5.0	039_smiling	1.0	attractiveness	119.793234327567	1.2415258547644044
16.0	94.4972593258235	pulse	0.0	t		27.0	female	white	4.181058495821727	smiling	039	sub-12	2.0	5.0	039_smiling	1.0	attractiveness	120.27658185302153	
16.0	95.19724190890611	pulse	0.0	t		27.0	female	white	4.181058495821727	smiling	039	sub-12	2.0	5.0	039_smiling	1.0	attractiveness	120.97656443610413	
16.0	95.25543765513339	fix	1.0		177	27.0	female	white	4.181058495821727	smiling	039	sub-12	2.0	5.0	039_smiling	1.0	attractiveness	121.03476018233141	1.4999750971282992
16.0	95.89721664381159	pulse	1.0	t		27.0	female	white	4.181058495821727	smiling	039	sub-12	2.0	5.0	039_smiling	1.0	attractiveness	121.67653917100961	
16.0	96.59719590651093	pulse	1.0	t		27.0	female	white	4.181058495821727	smiling	039	sub-12	2.0	5.0	039_smiling	1.0	attractiveness	122.37651843370895	
16.0	96.75541275226169	rating	2.0		295	27.0	female	white	4.181058495821727	smiling	039	sub-12	2.0	5.0	039_smiling	1.0	attractiveness	122.53473527945971	2.4999249895336106
16.0	97.29718513035914	pulse	2.0	t		27.0	female	white	4.181058495821727	smiling	039	sub-12	2.0	5.0	039_smiling	1.0	attractiveness	123.07650765755716	
16.0	97.997158356	pulse	2.0	t		27.0	female	white	4.181058495821727	smiling	039	sub-12	2.0	5.0	039_smiling	1.0	attractiveness	123.77648088319802	
16.0	98.21700573309317	response	2.0	y		27.0	female	white	4.181058495821727	smiling	039	sub-12	2.0	5.0	039_smiling	1.0	attractiveness	123.9963282602912	
16.0	98.69712373346283	pulse	2.0	t		27.0	female	white	4.181058495821727	smiling	039	sub-12	2.0	5.0	039_smiling	1.0	attractiveness	124.47644626066085	
16.0	99.2553377417953	fix	3.0		443	27.0	female	white	4.181058495821727	smiling	039	sub-12	2.0	5.0	039_smiling	1.0	attractiveness	125.03466026899332	3.7665541459355154
16.0	99.39712140919437	pulse	3.0	t		27.0	female	white	4.181058495821727	smiling	039	sub-12	2.0	5.0	039_smiling	1.0	attractiveness	125.17644393639239	
16.0	100.0971055015425	pulse	3.0	t		27.0	female	white	4.181058495821727	smiling	039	sub-12	2.0	5.0	039_smiling	1.0	attractiveness	125.87642802874052	
16.0	100.79709261241987	pulse	3.0	t		27.0	female	white	4.181058495821727	smiling	039	sub-12	2.0	5.0	039_smiling	1.0	attractiveness	126.5764151396179	
16.0	101.49707096956081	pulse	3.0	t		27.0	female	white	4.181058495821727	smiling	039	sub-12	2.0	5.0	039_smiling	1.0	attractiveness	127.27639349675883	
16.0	102.19705445820273	pulse	3.0	t		27.0	female	white	4.181058495821727	smiling	039	sub-12	2.0	5.0	039_smiling	1.0	attractiveness	127.97637698540075	
16.0	102.89702375975412	pulse	3.0	t		27.0	female	white	4.181058495821727	smiling	039	sub-12	2.0	5.0	039_smiling	1.0	attractiveness	128.67634628695214	
17.0	103.02189188773082	face	0.0		146	26.0	female	white	4.854755272582572	smiling	027	sub-12	2.0	5.0	027_smiling	0.0		128.80121441492884	1.2332982479547354
17.0	103.5970117761899	pulse	0.0	t		26.0	female	white	4.854755272582572	smiling	027	sub-12	2.0	5.0	027_smiling	0.0		129.37633430338792	
17.0	104.25519013568555	fix	1.0		443	26.0	female	white	4.854755272582572	smiling	027	sub-12	2.0	5.0	027_smiling	0.0		130.03451266288357	3.7582918260322913
17.0	104.29699888706818	pulse	1.0	t		26.0	female	white	4.854755272582572	smiling	027	sub-12	2.0	5.0	027_smiling	0.0		130.0763214142662	
17.0	104.9969573219114	pulse	1.0	t		26.0	female	white	4.854755272582572	smiling	027	sub-12	2.0	5.0	027_smiling	0.0		130.77627984910941	
17.0	105.69695077170218	pulse	1.0	t		26.0	female	white	4.854755272582572	smiling	027	sub-12	2.0	5.0	027_smiling	0.0		131.4762732989002	
17.0	106.39693365663788	pulse	1.0	t		26.0	female	white	4.854755272582572	smiling	027	sub-12	2.0	5.0	027_smiling	0.0		132.1762561838359	
17.0	107.09690507116011	pulse	1.0	t		26.0	female	white	4.854755272582572	smiling	027	sub-12	2.0	5.0	027_smiling	0.0		132.87622759835813	
17.0	107.79689429500831	pulse	1.0	t		26.0	female	white	4.854755272582572	smiling	027	sub-12	2.0	5.0	027_smiling	0.0		133.57621682220633	
18.0	108.01348196171784	face	0.0		146	20.0	male	black	2.609629924393156	neutral	043	sub-12	2.0	5.0	043_neutral	0.0		133.79280448891586	1.2415798864494718
18.0	108.49688955591682	pulse	0.0	t		20.0	male	black	2.609629924393156	neutral	043	sub-12	2.0	5.0	043_neutral	0.0		134.27621208311484	
18.0	109.196858253762	pulse	0.0	t		20.0	male	black	2.609629924393156	neutral	043	sub-12	2.0	5.0	043_neutral	0.0		134.97618078096002	
18.0	109.25506184816732	fix	1.0		444	20.0	male	black	2.609629924393156	neutral	043	sub-12	2.0	5.0	043_neutral	0.0		135.03438437536533	3.7665628996719533
18.0	109.89683962943309	pulse	1.0	t		20.0	male	black	2.609629924393156	neutral	043	sub-12	2.0	5.0	043_neutral	0.0		135.6761621566311	
18.0	110.59681919398554	pulse	1.0	t		20.0	male	black	2.609629924393156	neutral	043	sub-12	2.0	5.0	043_neutral	0.0		136.37614172118356	
18.0	111.29680238077435	pulse	1.0	t		20.0	male	black	2.609629924393156	neutral	043	sub-12	2.0	5.0	043_neutral	0.0		137.07612490797237	
18.0	111.99677771938605	pulse	1.0	t		20.0	male	black	2.609629924393156	neutral	043	sub-12	2.0	5.0	043_neutral	0.0		137.77610024658406	
18.0	112.69676211358637	pulse	1.0	t		20.0	male	black	2.609629924393156	neutral	043	sub-12	2.0	5.0	043_neutral	0.0		138.4760846407844	
19.0	113.02162474783927	face	0.0		145	26.0	female	white	4.854755272582572	neutral	027	sub-12	2.0	5.0	027_neutral	0.0		138.8009472750373	1.2333057942796586
19.0	113.39673745219716	pulse	0.0	t		26.0	female	white	4.854755272582572	neutral	027	sub-12	2.0	5.0	027_neutral	0.0		139.17605997939518	
19.0	114.09672667604627	pulse	0.0	t		26.0	female	white	4.854755272582572	neutral	027	sub-12	2.0	5.0	027_neutral	0.0		139.8760492032443	
19.0	114.25493054211893	fix	1.0		444	26.0	female	white	4.854755272582572	neutral	027	sub-12	2.0	5.0	027_neutral	0.0		140.03425306931695	3.7665607867011204
19.0	114.79671378692365	pulse	1.0	t		26.0	female	white	4.854755272582572	neutral	027	sub-12	2.0	5.0	027_neutral	0.0		140.57603631412167	
19.0	115.49667886253337	pulse	1.0	t		26.0	female	white	4.854755272582572	neutral	027	sub-12	2.0	5.0	027_neutral	0.0		141.2760013897314	
19.0	116.19666838823468	pulse	1.0	t		26.0	female	white	4.854755272582572	neutral	027	sub-12	2.0	5.0	027_neutral	0.0		141.9759909154327	
19.0	116.89664765093494	pulse	1.0	t		26.0	female	white	4.854755272582572	neutral	027	sub-12	2.0	5.0	027_neutral	0.0		142.67597017813296	
19.0	117.59663596922383	pulse	1.0	t		26.0	female	white	4.854755272582572	neutral	027	sub-12	2.0	5.0	027_neutral	0.0		143.37595849642184	
20.0	118.02149132882005	face	0.0		145	24.0	female	east_asian	4.409868682849185	neutral	030	sub-12	2.0	5.0	030_neutral	0.0		143.80081385601807	1.2333094165151124
20.0	118.29741363306948	pulse	0.0	t		24.0	female	east_asian	4.409868682849185	neutral	030	sub-12	2.0	5.0	030_neutral	0.0		144.0767361602675	
20.0	118.99663735774811	pulse	0.0	t		24.0	female	east_asian	4.409868682849185	neutral	030	sub-12	2.0	5.0	030_neutral	0.0		144.77595988494613	
20.0	119.25480074533516	fix	1.0		1185	24.0	female	east_asian	4.409868682849185	neutral	030	sub-12	2.0	5.0	030_neutral	0.0		145.03412327253318	10.016388202257076
20.0	119.69657828511845	pulse	1.0	t		24.0	female	east_asian	4.409868682849185	neutral	030	sub-12	2.0	5.0	030_neutral	0.0		145.47590081231647	
20.0	120.39656660340825	pulse	1.0	t		24.0	female	east_asian	4.409868682849185	neutral	030	sub-12	2.0	5.0	030_neutral	0.0		146.17588913060627	
20.0	121.09654133831373	pulse	1.0	t		24.0	female	east_asian	4.409868682849185	neutral	030	sub-12	2.0	5.0	030_neutral	0.0		146.87586386551175	
20.0	121.79652512880784	pulse	1.0	t		24.0	female	east_asian	4.409868682849185	neutral	030	sub-12	2.0	5.0	030_neutral	0.0		147.57584765600586	
20.0	122.49650107112484	pulse	1.0	t		24.0	female	east_asian	4.409868682849185	neutral	030	sub-12	2.0	5.0	030_neutral	0.0		148.27582359832286	
20.0	123.19647942826577	pulse	1.0	t		24.0	female	east_asian	4.409868682849185	neutral	030	sub-12	2.0	5.0	030_neutral	0.0		148.9758019554638	
20.0	123.89646050208376	pulse	1.0	t		24.0	female	east_asian	4.409868682849185	neutral	030	sub-12	2.0	5.0	030_neutral	0.0		149.67578302928177	
20.0	124.59645425372673	pulse	1.0	t		24.0	female	east_asian	4.409868682849185	neutral	030	sub-12	2.0	5.0	030_neutral	0.0		150.37577678092475	
20.0	125.29642868677911	pulse	1.0	t		24.0	female	east_asian	4.409868682849185	neutral	030	sub-12	2.0	5.0	030_neutral	0.0		151.07575121397713	
20.0	125.9964103643033	pulse	1.0	t		24.0	female	east_asian	4.409868682849185	neutral	030	sub-12	2.0	5.0	030_neutral	0.0		151.77573289150132	
20.0	126.69638751403181	pulse	1.0	t		24.0	female	east_asian	4.409868682849185	neutral	030	sub-12	2.0	5.0	030_neutral	0.0		152.47571004122983	
20.0	127.39635862670184	pulse	1.0	t		24.0	female	east_asian	4.409868682849185	neutral	030	sub-12	2.0	5.0	030_neutral	0.0		153.17568115389986	
20.0	128.09634754869694	pulse	1.0	t		24.0	female	east_asian	4.409868682849185	neutral	030	sub-12	2.0	5.0	030_neutral	0.0		153.87567007589496	
20.0	128.796351865195	pulse	1.0	t		24.0	female	east_asian	4.409868682849185	neutral	030	sub-12	2.0	5.0	030_neutral	0.0		154.575674392393	
21.0	129.27118894759224	face	0.0		145	24.0	female	east_asian	4.409868682849185	smiling	030	sub-12	2.0	5.0	030_smiling	0.0		155.05051147479026	1.2333199813701867
21.0	129.49630879077358	pulse	0.0	t		24.0	female	east_asian	4.409868682849185	smiling	030	sub-12	2.0	5.0	030_smiling	0.0		155.2756313179716	
21.0	130.19629107200308	pulse	0.0	t		24.0	female	east_asian	4.409868682849185	smiling	030	sub-12	2.0	5.0	030_smiling	0.0		155.9756135992011	
21.0	130.50450892896242	fix	1.0		444	24.0	female	east_asian	4.409868682849185	smiling	030	sub-12	2.0	5.0	030_smiling	0.0		156.28383145616044	3.758300277915623
21.0	130.89627788102825	pulse	1.0	t		24.0	female	east_asian	4.409868682849185	smiling	030	sub-12	2.0	5.0	030_smiling	0.0		156.67560040822627	
21.0	131.5962565400223	pulse	1.0	t		24.0	female	east_asian	4.409868682849185	smiling	030	sub-12	2.0	5.0	030_smiling	0.0		157.37557906722031	
21.0	132.29624093422262	pulse	1.0	t		24.0	female	east_asian	4.409868682849185	smiling	030	sub-12	2.0	5.0	030_smiling	0.0		158.07556346142064	
21.0	132.99620389686152	pulse	1.0	t		24.0	female	east_asian	4.409868682849185	smiling	030	sub-12	2.0	5.0	030_smiling	0.0		158.77552642405954	
21.0	133.6961922151513	pulse	1.0	t		24.0	female	east_asian	4.409868682849185	smiling	030	sub-12	2.0	5.0	030_smiling	0.0		159.47551474234933	
22.0	134.26280920687805	face	0.0		146	26.0	male	white	2.7966573816155993	neutral	117	sub-12	2.0	5.0	117_neutral	0.0		160.04213173407607	1.2415656993589437
22.0	134.39619773906088	pulse	0.0	t		26.0	male	white	2.7966573816155993	neutral	117	sub-12	2.0	5.0	117_neutral	0.0		160.1755202662589	
22.0	135.09615949428735	pulse	0.0	t		26.0	male	white	2.7966573816155993	neutral	117	sub-12	2.0	5.0	117_neutral	0.0		160.87548202148537	
22.0	135.504374906237	fix	1.0		444	26.0	male	white	2.7966573816155993	neutral	117	sub-12	2.0	5.0	117_neutral	0.0		161.283697433435	3.7665478070230165
22.0	135.7961511329595	pulse	1.0	t		26.0	male	white	2.7966573816155993	neutral	117	sub-12	2.0	5.0	117_neutral	0.0		161.5754736601575	
22.0	136.4961270752765	pulse	1.0	t		26.0	male	white	2.7966573816155993	neutral	117	sub-12	2.0	5.0	117_neutral	0.0		162.2754496024745	
22.0	137.19611116762462	pulse	1.0	t		26.0	male	white	2.7966573816155993	neutral	117	sub-12	2.0	5.0	117_neutral	0.0		162.97543369482264	
22.0	137.8960985803551	pulse	1.0	t		26.0	male	white	2.7966573816155993	neutral	117	sub-12	2.0	5.0	117_neutral	0.0		163.67542110755312	
22.0	138.59606969302422	pulse	1.0	t		26.0	male	white	2.7966573816155993	neutral	117	sub-12	2.0	5.0	117_neutral	0.0		164.37539222022224	
23.0	139.27092271326	face	0.0		145	21.0	male	east_asian/white	3.501790688420215	smiling	036	sub-12	2.0	5.0	036_smiling	0.0		165.05024524045803	1.2333199813692772
23.0	139.2960634446672	pulse	0.0	t		21.0	male	east_asian/white	3.501790688420215	smiling	036	sub-12	2.0	5.0	036_smiling	0.0		165.07538597186522	
23.0	139.99603667030806	pulse	0.0	t		21.0	male	east_asian/white	3.501790688420215	smiling	036	sub-12	2.0	5.0	036_smiling	0.0		165.77535919750608	
23.0	140.50424269462928	fix	1.0		443	21.0	male	east_asian/white	3.501790688420215	smiling	036	sub-12	2.0	5.0	036_smiling	0.0		166.2835652218273	3.7583078242405463
23.0	140.69601955524377	pulse	1.0	t		21.0	male	east_asian/white	3.501790688420215	smiling	036	sub-12	2.0	5.0	036_smiling	0.0		166.47534208244178	
23.0	141.39599006420667	pulse	1.0	t		21.0	male	east_asian/white	3.501790688420215	smiling	036	sub-12	2.0	5.0	036_smiling	0.0		167.1753125914047	
23.0	142.0959741565548	pulse	1.0	t		21.0	male	east_asian/white	3.501790688420215	smiling	036	sub-12	2.0	5.0	036_smiling	0.0		167.87529668375282	
23.0	142.79596700263846	pulse	1.0	t		21.0	male	east_asian/white	3.501790688420215	smiling	036	sub-12	2.0	5.0	036_smiling	0.0		168.57528952983648	
23.0	143.49594203939705	pulse	1.0	t		21.0	male	east_asian/white	3.501790688420215	smiling	036	sub-12	2.0	5.0	036_smiling	0.0		169.27526456659507	
23.0	144.19592975398064	pulse	1.0	t		21.0	male	east_asian/white	3.501790688420215	smiling	036	sub-12	2.0	5.0	036_smiling	0.0		169.97525228117865	
24.0	144.26255051886983	face	0.0		147	24.0	female	black	3.0955033824114606	neutral	099	sub-12	2.0	5.0	099_neutral	0.0		170.04187304606785	1.2415572474756118
24.0	144.89590660185695	pulse	0.0	t		24.0	female	black	3.0955033824114606	neutral	099	sub-12	2.0	5.0	099_neutral	0.0		170.67522912905497	
24.0	145.50410776634544	fix	1.0		443	24.0	female	black	3.0955033824114606	neutral	099	sub-12	2.0	5.0	099_neutral	0.0		171.28343029354346	3.7665704459968765
24.0	145.5958861664094	pulse	1.0	t		24.0	female	black	3.0955033824114606	neutral	099	sub-12	2.0	5.0	099_neutral	0.0		171.37520869360742	
24.0	146.2958624105795	pulse	1.0	t		24.0	female	black	3.0955033824114606	neutral	099	sub-12	2.0	5.0	099_neutral	0.0		172.07518493777752	
24.0	146.99584740848604	pulse	1.0	t		24.0	female	black	3.0955033824114606	neutral	099	sub-12	2.0	5.0	099_neutral	0.0		172.77516993568406	
24.0	147.69582576562698	pulse	1.0	t		24.0	female	black	3.0955033824114606	neutral	099	sub-12	2.0	5.0	099_neutral	0.0		173.475148292825	
24.0	148.39580533018034	pulse	1.0	t		24.0	female	black	3.0955033824114606	neutral	099	sub-12	2.0	5.0	099_neutral	0.0		174.17512785737836	
24.0	149.09579304476392	pulse	1.0	t		24.0	female	black	3.0955033824114606	neutral	099	sub-12	2.0	5.0	099_neutral	0.0		174.87511557196194	
25.0	149.27067821234232	face	0.0		146	31.0	female	west_asian	2.364902506963788	smiling	006	sub-12	2.0	5.0	006_smiling	0.0		175.05000073954034	1.2332925127475391
25.0	149.79577291116948	pulse	0.0	t		31.0	female	west_asian	2.364902506963788	smiling	006	sub-12	2.0	5.0	006_smiling	0.0		175.5750954383675	
25.0	150.50397072508986	fix	1.0		444	31.0	female	west_asian	2.364902506963788	smiling	006	sub-12	2.0	5.0	006_smiling	0.0		176.28329325228788	3.7665665219083166
25.0	150.4960956825662	pulse	1.0	t		31.0	female	west_asian	2.364902506963788	smiling	006	sub-12	2.0	5.0	006_smiling	0.0		176.2754182097642	
25.0	151.19601095243343	pulse	1.0	t		31.0	female	west_asian	2.364902506963788	smiling	006	sub-12	2.0	5.0	006_smiling	0.0		176.97533347963144	
25.0	151.8959862910442	pulse	1.0	t		31.0	female	west_asian	2.364902506963788	smiling	006	sub-12	2.0	5.0	006_smiling	0.0		177.67530881824223	
25.0	152.5957225620914	pulse	1.0	t		31.0	female	west_asian	2.364902506963788	smiling	006	sub-12	2.0	5.0	006_smiling	0.0		178.37504508928942	
25.0	153.29567646914074	pulse	1.0	t		31.0	female	west_asian	2.364902506963788	smiling	006	sub-12	2.0	5.0	006_smiling	0.0		179.07499899633876	
25.0	153.9959083827889	pulse	1.0	t		31.0	female	west_asian	2.364902506963788	smiling	006	sub-12	2.0	5.0	006_smiling	0.0		179.77523090998693	
26.0	154.27053724699817	face	0.0		145	25.0	female	black	3.858336649423	smiling	126	sub-12	2.0	5.0	126_smiling	0.0		180.0498597741962	1.2333054924265525
26.0	154.6956452575423	pulse	0.0	t		25.0	female	black	3.858336649423	smiling	126	sub-12	2.0	5.0	126_smiling	0.0		180.47496778474033	
26.0	155.39562301097703	pulse	0.0	t		25.0	female	black	3.858336649423	smiling	126	sub-12	2.0	5.0	126_smiling	0.0		181.17494553817505	
26.0	155.50384273942473	fix	1.0		444	25.0	female	black	3.858336649423	smiling	126	sub-12	2.0	5.0	126_smiling	0.0		181.28316526662275	3.7665465996105922
26.0	156.0958793747177	pulse	1.0	t		25.0	female	black	3.858336649423	smiling	126	sub-12	2.0	5.0	126_smiling	0.0		181.87520190191572	
26.0	156.79593651548748	pulse	1.0	t		25.0	female	black	3.858336649423	smiling	126	sub-12	2.0	5.0	126_smiling	0.0		182.5752590426855	
26.0	157.4955677416956	pulse	1.0	t		25.0	female	black	3.858336649423	smiling	126	sub-12	2.0	5.0	126_smiling	0.0		183.2748902688936	
26.0	158.19574713292423	pulse	1.0	t		25.0	female	black	3.858336649423	smiling	126	sub-12	2.0	5.0	126_smiling	0.0		183.97506966012224	
26.0	158.8957269993307	pulse	1.0	t		25.0	female	black	3.858336649423	smiling	126	sub-12	2.0	5.0	126_smiling	0.0		184.6750495265287	
27.0	159.27038933903532	face	0.0		145	32.0	male	white	2.389176283326701	smiling	092	sub-12	2.0	5.0	092_smiling	0.0		185.04971186623334	1.2333196795170807
27.0	159.59572769359238	pulse	0.0	t		32.0	male	white	2.389176283326701	smiling	092	sub-12	2.0	5.0	092_smiling	0.0		185.3750502207904	
27.0	160.2955726317141	pulse	0.0	t		32.0	male	white	2.389176283326701	smiling	092	sub-12	2.0	5.0	092_smiling	0.0		186.0748951589121	
27.0	160.5037090185524	fix	1.0		444	32.0	male	white	2.389176283326701	smiling	092	sub-12	2.0	5.0	092_smiling	0.0		186.28303154575042	3.766548712581425
27.0	160.9956741448732	pulse	1.0	t		32.0	male	white	2.389176283326701	smiling	092	sub-12	2.0	5.0	092_smiling	0.0		186.7749966720712	
27.0	161.6955377978793	pulse	1.0	t		32.0	male	white	2.389176283326701	smiling	092	sub-12	2.0	5.0	092_smiling	0.0		187.47486032507732	
27.0	162.3956341795374	pulse	1.0	t		32.0	male	white	2.389176283326701	smiling	092	sub-12	2.0	5.0	092_smiling	0.0		188.17495670673543	
27.0	163.0956155552085	pulse	1.0	t		32.0	male	white	2.389176283326701	smiling	092	sub-12	2.0	5.0	092_smiling	0.0		188.87493808240652	
27.0	163.7956289272961	pulse	1.0	t		32.0	male	white	2.389176283326701	smiling	092	sub-12	2.0	5.0	092_smiling	0.0		189.5749514544941	
28.0	164.27025773113382	face	0.0		145	27.0	female	white	3.504576203740549	neutral	144	sub-12	2.0	5.0	144_neutral	0.0		190.04958025833184	1.2333124350452636
28.0	164.49556381760704	pulse	0.0	t		27.0	female	white	3.504576203740549	neutral	144	sub-12	2.0	5.0	144_neutral	0.0		190.27488634480505	
28.0	165.19547788006184	pulse	0.0	t		27.0	female	white	3.504576203740549	neutral	144	sub-12	2.0	5.0	144_neutral	0.0		190.97480040725986	
28.0	165.5035701661791	fix	1.0		444	27.0	female	white	3.504576203740549	neutral	144	sub-12	2.0	5.0	144_neutral	0.0		191.2828926933771	3.7665565607594544
28.0	165.89554075603883	pulse	1.0	t		27.0	female	white	3.504576203740549	neutral	144	sub-12	2.0	5.0	144_neutral	0.0		191.67486328323685	
28.0	166.59552333912143	pulse	1.0	t		27.0	female	white	3.504576203740549	neutral	144	sub-12	2.0	5.0	144_neutral	0.0		192.37484586631945	
28.0	167.29536646612542	pulse	1.0	t		27.0	female	white	3.504576203740549	neutral	144	sub-12	2.0	5.0	144_neutral	0.0		193.07468899332343	
28.0	167.9953478417965	pulse	1.0	t		27.0	female	white	3.504576203740549	neutral	144	sub-12	2.0	5.0	144_neutral	0.0		193.77467036899452	
28.0	168.69532559523122	pulse	1.0	t		27.0	female	white	3.504576203740549	neutral	144	sub-12	2.0	5.0	144_neutral	0.0		194.47464812242924	
29.0	169.27012672693854	face	0.0		145	19.0	male	white	3.2522881018702745	smiling	018	sub-12	2.0	5.0	018_smiling	1.0	dominance	195.04944925413656	1.2333106239266272
29.0	169.39539601753222	pulse	0.0	t		19.0	male	white	3.2522881018702745	smiling	018	sub-12	2.0	5.0	018_smiling	1.0	dominance	195.17471854473024	
29.0	170.09536290426058	pulse	0.0	t		19.0	male	white	3.2522881018702745	smiling	018	sub-12	2.0	5.0	018_smiling	1.0	dominance	195.8746854314586	
29.0	170.50343735086517	fix	1.0		177	19.0	male	white	3.2522881018702745	smiling	018	sub-12	2.0	5.0	018_smiling	1.0	dominance	196.2827598780632	1.4999636267157257
29.0	170.7952965871591	pulse	1.0	t		19.0	male	white	3.2522881018702745	smiling	018	sub-12	2.0	5.0	018_smiling	1.0	dominance	196.57461911435712	
29.0	171.49541590964418	pulse	1.0	t		19.0	male	white	3.2522881018702745	smiling	018	sub-12	2.0	5.0	018_smiling	1.0	dominance	197.2747384368422	
29.0	172.0034009775809	rating	2.0		294	19.0	male	white	3.2522881018702745	smiling	018	sub-12	2.0	5.0	018_smiling	1.0	dominance	197.78272350477891	2.4999322340045183
29.0	172.1983795928063	pulse	2.0	t		19.0	male	white	3.2522881018702745	smiling	018	sub-12	2.0	5.0	018_smiling	1.0	dominance	197.97770212000432	
29.0	172.89836006291807	pulse	2.0	t		19.0	male	white	3.2522881018702745	smiling	018	sub-12	2.0	5.0	018_smiling	1.0	dominance	198.6776825901161	
29.0	173.59833570338196	pulse	2.0	t		19.0	male	white	3.2522881018702745	smiling	018	sub-12	2.0	5.0	018_smiling	1.0	dominance	199.37765823057998	
29.0	173.95682325089	response	2.0	e		19.0	male	white	3.2522881018702745	smiling	018	sub-12	2.0	5.0	018_smiling	1.0	dominance	199.73614577808803	
29.0	174.29532481041315	pulse	2.0	t		19.0	male	white	3.2522881018702745	smiling	018	sub-12	2.0	5.0	018_smiling	1.0	dominance	200.07464733761117	
29.0	174.5033332115854	fix	3.0		444	19.0	male	white	3.2522881018702745	smiling	018	sub-12	2.0	5.0	018_smiling	1.0	dominance	200.28265573878343	3.7665499199938495
29.0	174.99514227991313	pulse	3.0	t		19.0	male	white	3.2522881018702745	smiling	018	sub-12	2.0	5.0	018_smiling	1.0	dominance	200.77446480711114	
29.0	175.6951224481727	pulse	3.0	t		19.0	male	white	3.2522881018702745	smiling	018	sub-12	2.0	5.0	018_smiling	1.0	dominance	201.47444497537072	
29.0	176.39513159431772	pulse	3.0	t		19.0	male	white	3.2522881018702745	smiling	018	sub-12	2.0	5.0	018_smiling	1.0	dominance	202.17445412151574	
29.0	177.09523733341848	pulse	3.0	t		19.0	male	white	3.2522881018702745	smiling	018	sub-12	2.0	5.0	018_smiling	1.0	dominance	202.8745598606165	
29.0	177.79522504800207	pulse	3.0	t		19.0	male	white	3.2522881018702745	smiling	018	sub-12	2.0	5.0	018_smiling	1.0	dominance	203.57454757520009	
30.0	178.26988313157926	face	0.0		145	27.0	female	white	4.181058495821727	neutral	039	sub-12	2.0	5.0	039_neutral	0.0		204.04920565877728	1.2333142461629905
30.0	178.49518257728687	pulse	0.0	t		27.0	female	white	4.181058495821727	neutral	039	sub-12	2.0	5.0	039_neutral	0.0		204.2745051044849	
30.0	179.19500065049306	pulse	0.0	t		27.0	female	white	4.181058495821727	neutral	039	sub-12	2.0	5.0	039_neutral	0.0		204.97432317769108	
30.0	179.50319737774225	fix	1.0		444	27.0	female	white	4.181058495821727	neutral	039	sub-12	2.0	5.0	039_neutral	0.0		205.28251990494027	3.7583156724185756
30.0	179.89517128798525	pulse	1.0	t		27.0	female	white	4.181058495821727	neutral	039	sub-12	2.0	5.0	039_neutral	0.0		205.67449381518327	
30.0	180.5949495165969	pulse	1.0	t		27.0	female	white	4.181058495821727	neutral	039	sub-12	2.0	5.0	039_neutral	0.0		206.37427204379492	
30.0	181.29493059041488	pulse	1.0	t		27.0	female	white	4.181058495821727	neutral	039	sub-12	2.0	5.0	039_neutral	0.0		207.0742531176129	
30.0	181.99503753692807	pulse	1.0	t		27.0	female	white	4.181058495821727	neutral	039	sub-12	2.0	5.0	039_neutral	0.0		207.77436006412609	
30.0	182.69494133638182	pulse	1.0	t		27.0	female	white	4.181058495821727	neutral	039	sub-12	2.0	5.0	039_neutral	0.0		208.47426386357984	
31.0	183.26151305016083	face	0.0		146	40.0	female	west_asian	1.5777954635893354	smiling	038	sub-12	2.0	5.0	038_smiling	0.0		209.04083557735885	1.2415632845350046
31.0	183.39488166004594	pulse	0.0	t		40.0	female	west_asian	1.5777954635893354	smiling	038	sub-12	2.0	5.0	038_smiling	0.0		209.17420418724396	
31.0	184.09488416542627	pulse	0.0	t		40.0	female	west_asian	1.5777954635893354	smiling	038	sub-12	2.0	5.0	038_smiling	0.0		209.87420669262428	
31.0	184.50307633469583	fix	1.0		444	40.0	female	west_asian	1.5777954635893354	smiling	038	sub-12	2.0	5.0	038_smiling	0.0		210.28239886189385	3.766557466317863
31.0	184.79483988359334	pulse	1.0	t		40.0	female	west_asian	1.5777954635893354	smiling	038	sub-12	2.0	5.0	038_smiling	0.0		210.57416241079136	
31.0	185.49484238897276	pulse	1.0	t		40.0	female	west_asian	1.5777954635893354	smiling	038	sub-12	2.0	5.0	038_smiling	0.0		211.27416491617078	
31.0	186.194821651673	pulse	1.0	t		40.0	female	west_asian	1.5777954635893354	smiling	038	sub-12	2.0	5.0	038_smiling	0.0		211.97414417887103	
31.0	186.89478189763486	pulse	1.0	t		40.0	female	west_asian	1.5777954635893354	smiling	038	sub-12	2.0	5.0	038_smiling	0.0		212.67410442483288	
31.0	187.59476629183519	pulse	1.0	t		40.0	female	west_asian	1.5777954635893354	smiling	038	sub-12	2.0	5.0	038_smiling	0.0		213.3740888190332	
32.0	188.2696338010137	face	0.0		145	20.0	male	black	2.609629924393156	smiling	043	sub-12	2.0	5.0	043_smiling	0.0		214.04895632821172	1.2332846645704194
32.0	188.29475340271347	pulse	0.0	t		20.0	male	black	2.609629924393156	smiling	043	sub-12	2.0	5.0	043_smiling	0.0		214.0740759299115	
32.0	188.99475288956273	pulse	0.0	t		20.0	male	black	2.609629924393156	smiling	043	sub-12	2.0	5.0	043_smiling	0.0		214.77407541676075	
32.0	189.50291846558412	fix	1.0		443	20.0	male	black	2.609629924393156	smiling	043	sub-12	2.0	5.0	043_smiling	0.0		215.28224099278214	3.7582311535825283
32.0	189.69470951328913	pulse	1.0	t		20.0	male	black	2.609629924393156	smiling	043	sub-12	2.0	5.0	043_smiling	0.0		215.47403204048715	
32.0	190.3946845500468	pulse	1.0	t		20.0	male	black	2.609629924393156	smiling	043	sub-12	2.0	5.0	043_smiling	0.0		216.17400707724482	
32.0	191.0946786035438	pulse	1.0	t		20.0	male	black	2.609629924393156	smiling	043	sub-12	2.0	5.0	043_smiling	0.0		216.87400113074182	
32.0	191.7946620921848	pulse	1.0	t		20.0	male	black	2.609629924393156	smiling	043	sub-12	2.0	5.0	043_smiling	0.0		217.57398461938283	
32.0	192.49462203629355	pulse	1.0	t		20.0	male	black	2.609629924393156	smiling	043	sub-12	2.0	5.0	043_smiling	0.0		218.27394456349157	
32.0	193.19462122129062	pulse	1.0	t		20.0	male	black	2.609629924393156	smiling	043	sub-12	2.0	5.0	043_smiling	0.0		218.97394374848864	
33.0	193.26114961916664	face	0.0		147	24.0	female	east_asian	2.9076800636689217	neutral	034	sub-12	2.0	5.0	034_neutral	0.0		219.04047214636466	1.2416281829264335
33.0	193.8945965599023	pulse	0.0	t		24.0	female	east_asian	2.9076800636689217	neutral	034	sub-12	2.0	5.0	034_neutral	0.0		219.67391908710033	
33.0	194.50277780209308	fix	1.0		443	24.0	female	east_asian	2.9076800636689217	neutral	034	sub-12	2.0	5.0	034_neutral	0.0		220.2821003292911	3.7665758793509667
33.0	194.59459333007544	pulse	1.0	t		24.0	female	east_asian	2.9076800636689217	neutral	034	sub-12	2.0	5.0	034_neutral	0.0		220.37391585727346	
33.0	195.2945668575685	pulse	1.0	t		24.0	female	east_asian	2.9076800636689217	neutral	034	sub-12	2.0	5.0	034_neutral	0.0		221.07388938476652	
33.0	195.99458294633223	pulse	1.0	t		24.0	female	east_asian	2.9076800636689217	neutral	034	sub-12	2.0	5.0	034_neutral	0.0		221.77390547353025	
33.0	196.6946014499208	pulse	1.0	t		24.0	female	east_asian	2.9076800636689217	neutral	034	sub-12	2.0	5.0	034_neutral	0.0		222.47392397711883	
33.0	197.39451279569857	pulse	1.0	t		24.0	female	east_asian	2.9076800636689217	neutral	034	sub-12	2.0	5.0	034_neutral	0.0		223.1738353228966	
33.0	198.09448602133943	pulse	1.0	t		24.0	female	east_asian	2.9076800636689217	neutral	034	sub-12	2.0	5.0	034_neutral	0.0		223.87380854853745	
34.0	198.26935368144404	face	0.0		146	21.0	male	black	2.969757262236371	neutral	137	sub-12	2.0	5.0	137_neutral	0.0		224.04867620864206	1.2416441811346886
34.0	198.79447403777522	pulse	0.0	t		21.0	male	black	2.969757262236371	neutral	137	sub-12	2.0	5.0	137_neutral	0.0		224.57379656497324	
34.0	199.49444967824002	pulse	0.0	t		21.0	male	black	2.969757262236371	neutral	137	sub-12	2.0	5.0	137_neutral	0.0		225.27377220543804	
34.0	199.51099786257873	fix	1.0		443	21.0	male	black	2.969757262236371	neutral	137	sub-12	2.0	5.0	137_neutral	0.0		225.29032038977675	3.7582338702595735
34.0	200.1944932356255	pulse	1.0	t		21.0	male	black	2.969757262236371	neutral	137	sub-12	2.0	5.0	137_neutral	0.0		225.9738157628235	
34.0	200.89444201117385	pulse	1.0	t		21.0	male	black	2.969757262236371	neutral	137	sub-12	2.0	5.0	137_neutral	0.0		226.67376453837187	
34.0	201.59442006646168	pulse	1.0	t		21.0	male	black	2.969757262236371	neutral	137	sub-12	2.0	5.0	137_neutral	0.0		227.3737425936597	
34.0	202.2943588808621	pulse	1.0	t		21.0	male	black	2.969757262236371	neutral	137	sub-12	2.0	5.0	137_neutral	0.0		228.0736814080601	
34.0	202.9944166253381	pulse	1.0	t		21.0	male	black	2.969757262236371	neutral	137	sub-12	2.0	5.0	137_neutral	0.0		228.7737391525361	
35.0	203.2692317328383	face	0.0		145	24.0	male	white	3.1153999204138483	neutral	012	sub-12	2.0	5.0	012_neutral	0.0		229.04855426003633	1.2333024738964014
35.0	203.6943312914991	pulse	0.0	t		24.0	male	white	3.1153999204138483	neutral	012	sub-12	2.0	5.0	012_neutral	0.0		229.47365381869713	
35.0	204.39434617285133	pulse	0.0	t		24.0	male	white	3.1153999204138483	neutral	012	sub-12	2.0	5.0	012_neutral	0.0		230.17366870004935	
35.0	204.5025342067347	fix	1.0		444	24.0	male	white	3.1153999204138483	neutral	012	sub-12	2.0	5.0	012_neutral	0.0		230.28185673393273	3.7665469014636983
35.0	205.0943329818756	pulse	1.0	t		24.0	male	white	3.1153999204138483	neutral	012	sub-12	2.0	5.0	012_neutral	0.0		230.87365550907361	
35.0	205.7943034908394	pulse	1.0	t		24.0	male	white	3.1153999204138483	neutral	012	sub-12	2.0	5.0	012_neutral	0.0		231.57362601803743	
35.0	206.49430146842406	pulse	1.0	t		24.0	male	white	3.1153999204138483	neutral	012	sub-12	2.0	5.0	012_neutral	0.0		232.27362399562207	
35.0	207.19424028282356	pulse	1.0	t		24.0	male	white	3.1153999204138483	neutral	012	sub-12	2.0	5.0	012_neutral	0.0		232.97356281002158	
35.0	207.89423463817275	pulse	1.0	t		24.0	male	white	3.1153999204138483	neutral	012	sub-12	2.0	5.0	012_neutral	0.0		233.67355716537077	
36.0	208.2690811081984	face	0.0		145	21.0	male	east_asian/white	3.501790688420215	neutral	036	sub-12	2.0	5.0	036_neutral	0.0		234.04840363539643	1.2333187739577625
36.0	208.59420876937202	pulse	0.0	t		21.0	male	east_asian/white	3.501790688420215	neutral	036	sub-12	2.0	5.0	036_neutral	0.0		234.37353129657004	
36.0	209.29418591910144	pulse	0.0	t		21.0	male	east_asian/white	3.501790688420215	neutral	036	sub-12	2.0	5.0	036_neutral	0.0		235.07350844629946	
36.0	209.50239988215617	fix	1.0		444	21.0	male	east_asian/white	3.501790688420215	neutral	036	sub-12	2.0	5.0	036_neutral	0.0		235.2817224093542	3.7665472033168044
36.0	209.99417544480275	pulse	1.0	t		21.0	male	east_asian/white	3.501790688420215	neutral	036	sub-12	2.0	5.0	036_neutral	0.0		235.77349797200077	
36.0	210.69415048156134	pulse	1.0	t		21.0	male	east_asian/white	3.501790688420215	neutral	036	sub-12	2.0	5.0	036_neutral	0.0		236.47347300875936	
36.0	211.3941173682888	pulse	1.0	t		21.0	male	east_asian/white	3.501790688420215	neutral	036	sub-12	2.0	5.0	036_neutral	0.0		237.1734398954868	
36.0	212.09410810140162	pulse	1.0	t		21.0	male	east_asian/white	3.501790688420215	neutral	036	sub-12	2.0	5.0	036_neutral	0.0		237.87343062859964	
36.0	212.79408766595498	pulse	1.0	t		21.0	male	east_asian/white	3.501790688420215	neutral	036	sub-12	2.0	5.0	036_neutral	0.0		238.573410193153	
37.0	213.26894708547297	face	0.0		145	22.0	female	white	4.614007162753682	smiling	009	sub-12	2.0	5.0	009_smiling	1.0	attractiveness	239.048269612671	1.2333063979858707
37.0	213.49409349171765	pulse	0.0	t		22.0	female	white	4.614007162753682	smiling	009	sub-12	2.0	5.0	009_smiling	1.0	attractiveness	239.27341601891567	
37.0	214.19406279326904	pulse	0.0	t		22.0	female	white	4.614007162753682	smiling	009	sub-12	2.0	5.0	009_smiling	1.0	attractiveness	239.97338532046706	
37.0	214.50225348345884	fix	1.0		177	22.0	female	white	4.614007162753682	smiling	009	sub-12	2.0	5.0	009_smiling	1.0	attractiveness	240.28157601065686	1.4999711730397394
37.0	214.8940363207621	pulse	1.0	t		22.0	female	white	4.614007162753682	smiling	009	sub-12	2.0	5.0	009_smiling	1.0	attractiveness	240.67335884796012	
37.0	215.59402162052174	pulse	1.0	t		22.0	female	white	4.614007162753682	smiling	009	sub-12	2.0	5.0	009_smiling	1.0	attractiveness	241.37334414771976	
37.0	216.00222465649858	rating	2.0		294	22.0	female	white	4.614007162753682	smiling	009	sub-12	2.0	5.0	009_smiling	1.0	attractiveness	241.7815471836966	2.4999322340045183
37.0	216.29400450545745	pulse	2.0	t		22.0	female	white	4.614007162753682	smiling	009	sub-12	2.0	5.0	009_smiling	1.0	attractiveness	242.07332703265547	
37.0	216.99398044777445	pulse	2.0	t		22.0	female	white	4.614007162753682	smiling	009	sub-12	2.0	5.0	009_smiling	1.0	attractiveness	242.77330297497247	
37.0	217.69394974932584	pulse	2.0	t		22.0	female	white	4.614007162753682	smiling	009	sub-12	2.0	5.0	009_smiling	1.0	attractiveness	243.47327227652386	
37.0	218.32728470260372	response	2.0	b		22.0	female	white	4.614007162753682	smiling	009	sub-12	2.0	5.0	009_smiling	1.0	attractiveness	244.10660722980174	
37.0	218.39395074544063	pulse	2.0	t		22.0	female	white	4.614007162753682	smiling	009	sub-12	2.0	5.0	009_smiling	1.0	attractiveness	244.17327327263865	
37.0	218.5021568905031	fix	3.0		444	22.0	female	white	4.614007162753682	smiling	009	sub-12	2.0	5.0	009_smiling	1.0	attractiveness	244.28147941770112	3.7665659182021045
37.0	219.09392336737528	pulse	3.0	t		22.0	female	white	4.614007162753682	smiling	009	sub-12	2.0	5.0	009_smiling	1.0	attractiveness	244.8732458945733	
37.0	219.79390896898803	pulse	3.0	t		22.0	female	white	4.614007162753682	smiling	009	sub-12	2.0	5.0	009_smiling	1.0	attractiveness	245.57323149618605	
37.0	220.49389064651132	pulse	3.0	t		22.0	female	white	4.614007162753682	smiling	009	sub-12	2.0	5.0	009_smiling	1.0	attractiveness	246.27321317370934	
37.0	221.19387624812407	pulse	3.0	t		22.0	female	white	4.614007162753682	smiling	009	sub-12	2.0	5.0	009_smiling	1.0	attractiveness	246.9731987753221	
37.0	221.89385551082432	pulse	3.0	t		22.0	female	white	4.614007162753682	smiling	009	sub-12	2.0	5.0	009_smiling	1.0	attractiveness	247.67317803802234	
38.0	222.2687228087052	face	0.0		145	31.0	female	west_asian	2.364902506963788	neutral	006	sub-12	2.0	5.0	006_neutral	0.0		248.04804533590323	1.2332907016307217
38.0	222.59383537722988	pulse	0.0	t		31.0	female	west_asian	2.364902506963788	neutral	006	sub-12	2.0	5.0	006_neutral	0.0		248.3731579044279	
38.0	223.29383033628528	pulse	0.0	t		31.0	female	west_asian	2.364902506963788	neutral	006	sub-12	2.0	5.0	006_neutral	0.0		249.0731528634833	
38.0	223.50201351033593	fix	1.0		444	31.0	female	west_asian	2.364902506963788	neutral	006	sub-12	2.0	5.0	006_neutral	0.0		249.28133603753395	3.76657799232089
38.0	223.9938014489544	pulse	1.0	t		31.0	female	west_asian	2.364902506963788	neutral	006	sub-12	2.0	5.0	006_neutral	0.0		249.77312397615242	
38.0	224.69377527830056	pulse	1.0	t		31.0	female	west_asian	2.364902506963788	neutral	006	sub-12	2.0	5.0	006_neutral	0.0		250.47309780549858	
38.0	225.39377084106218	pulse	1.0	t		31.0	female	west_asian	2.364902506963788	neutral	006	sub-12	2.0	5.0	006_neutral	0.0		251.1730933682602	
38.0	226.0937479907907	pulse	1.0	t		31.0	female	west_asian	2.364902506963788	neutral	006	sub-12	2.0	5.0	006_neutral	0.0		251.8730705179887	
38.0	226.7937184997545	pulse	1.0	t		31.0	female	west_asian	2.364902506963788	neutral	006	sub-12	2.0	5.0	006_neutral	0.0		252.57304102695252	
39.0	227.26859150265682	face	0.0		145	22.0	female	west_asian	3.8205332272184642	neutral	066	sub-12	2.0	5.0	066_neutral	0.0		253.04791402985484	1.2332973423963267
39.0	227.49372251439854	pulse	0.0	t		22.0	female	west_asian	3.8205332272184642	neutral	066	sub-12	2.0	5.0	066_neutral	0.0		253.27304504159656	
39.0	228.19369241965614	pulse	0.0	t		22.0	female	west_asian	3.8205332272184642	neutral	066	sub-12	2.0	5.0	066_neutral	0.0		253.97301494685416	
39.0	228.50188884505314	fix	1.0		444	22.0	female	west_asian	3.8205332272184642	neutral	066	sub-12	2.0	5.0	066_neutral	0.0		254.28121137225116	3.7498991056399973
39.0	228.89366262676685	pulse	1.0	t		22.0	female	west_asian	3.8205332272184642	neutral	066	sub-12	2.0	5.0	066_neutral	0.0		254.67298515396487	
39.0	229.5936539635859	pulse	1.0	t		22.0	female	west_asian	3.8205332272184642	neutral	066	sub-12	2.0	5.0	066_neutral	0.0		255.3729764907839	
39.0	230.29362598181433	pulse	1.0	t		22.0	female	west_asian	3.8205332272184642	neutral	066	sub-12	2.0	5.0	066_neutral	0.0		256.07294850901235	
39.0	230.99362788348844	pulse	1.0	t		22.0	female	west_asian	3.8205332272184642	neutral	066	sub-12	2.0	5.0	066_neutral	0.0		256.77295041068646	
39.0	231.69359869430446	pulse	1.0	t		22.0	female	west_asian	3.8205332272184642	neutral	066	sub-12	2.0	5.0	066_neutral	0.0		257.4729212215025	
40.0	232.25178795069314	fix	0.0		720													258.03111047789116	5.9998484698007815
40.0	232.39357373106304	pulse	0.0	t														258.17289625826106	
40.0	233.09354967338004	pulse	0.0	t														258.87287220057806	
40.0	233.79353376572726	pulse	0.0	t														259.5728562929253	
40.0	234.49351544325145	pulse	0.0	t														260.2728379704495	
40.0	235.19349048000913	pulse	0.0	t														260.97281300720715	
40.0	235.8934766853281	pulse	0.0	t														261.6727992125261	
40.0	236.5934474961441	pulse	0.0	t														262.3727700233421	
40.0	237.29343853111095	pulse	0.0	t														263.07276105830897	
40.0	237.9934177938103	pulse	0.0	t														263.7727403210083	
