trial_nr	onset	event_type	phase	response	nr_frames	rating_type	face_id	repetition	session	rating	onset_abs	duration
0.0	0.008017773005121853	cue	0.0		479.0						899.3722665105124	3.9920739897788735
0.0	4.000091762783995	fix	1.0		120.0						903.3643405002913	1.0251276076160138
0.0	5.025219370400009	face	0.0		146.0	attractiveness	130	1.0	2		904.3894681079073	1.2753227544526453
0.0	6.3005421248526545	rating	1.0		181.0	attractiveness	130	1.0	2		905.66479086236	1.516611176346487
0.0	7.817153301199141	fix	2.0		60.0	attractiveness	130	1.0	2	0.5800000000000001	907.1814020387064	0.5167424816390849
1.0	8.333895782838226	face	0.0		147.0	attractiveness	024	1.0	2		907.6981445203455	1.233440892996441
1.0	9.567336675834667	rating	1.0		94.0	attractiveness	024	1.0	2		908.931585413342	0.7917431608038896
1.0	10.359079836638557	fix	2.0		60.0	attractiveness	024	1.0	2	1.9100000000000001	909.7233285741459	0.5167427834931004
2.0	10.875822620131657	face	0.0		147.0	attractiveness	044	1.0	2		910.240071357639	1.2334411948468187
2.0	12.109263814978476	rating	1.0		74.0	attractiveness	044	1.0	2		911.4735125524858	0.6167285964838811
2.0	12.725992411462357	fix	2.0		60.0	attractiveness	044	1.0	2	0.9500000000000002	912.0902411489697	0.5167820241513255
3.0	13.242774435613683	face	0.0		147.0	attractiveness	141	1.0	2		912.607023173121	1.233399539374659
3.0	14.476173974988342	rating	1.0		193.0	attractiveness	141	1.0	2		913.8404227124956	1.6168315277609508
3.0	16.093005502749293	fix	2.0		60.0	attractiveness	141	1.0	2	0.2999999999999998	915.4572542402566	0.5167458020041522
4.0	16.609751304753445	face	0.0		147.0	attractiveness	036	1.0	2		915.9740000422607	1.233438780036522
4.0	17.843190084789967	rating	1.0		56.0	attractiveness	036	1.0	2		917.2074388222973	0.47504625870715245
4.0	18.31823634349712	fix	2.0		60.0	attractiveness	036	1.0	2	-0.56	917.6824850810044	0.516740972383559
5.0	18.83497731588068	face	0.0		147.0	attractiveness	030	1.0	2		918.199226053388	1.2334411948468187
5.0	20.068418510727497	rating	1.0		78.0	attractiveness	030	1.0	2		919.4326672482348	0.6584000676157302
5.0	20.726818578343227	fix	2.0		60.0	attractiveness	030	1.0	2	1.5700000000000003	920.0910673158505	0.5167403686791658
6.0	21.243558947022393	face	0.0		147.0	attractiveness	137	1.0	2		920.6078076845297	1.2334414967008343
6.0	22.477000443723227	rating	1.0		68.0	attractiveness	137	1.0	2		921.8412491812305	0.5667233140848111
6.0	23.04372375780804	fix	2.0		60.0	attractiveness	137	1.0	2	-0.04999999999999982	922.4079724953153	0.5167442927486263
7.0	23.560468050556665	face	0.0		147.0	attractiveness	070	1.0	2		922.924716788064	1.2334369689306186
7.0	24.793905019487283	rating	1.0		48.0	attractiveness	070	1.0	2		924.1581537569946	0.40003984436407336
7.0	25.193944863851357	fix	2.0		60.0	attractiveness	070	1.0	2	-1.33	924.5581936013587	0.5167418779383297
8.0	25.710686741789686	face	0.0		147.0	attractiveness	034	1.0	2		925.074935479297	1.2334421004015894
8.0	26.944128842191276	rating	1.0		38.0	attractiveness	034	1.0	2		926.3083775796986	0.3167017317209684
8.0	27.260830573912244	fix	2.0		60.0	attractiveness	034	1.0	2	0.0	926.6250793114195	0.5167394631280331
9.0	27.777570037040277	face	0.0		147.0	attractiveness	082	1.0	2		927.1418187745476	1.2334393837372772
9.0	29.011009420777555	rating	1.0		91.0	attractiveness	082	1.0	2		928.3752581582849	0.7584109342606098
9.0	29.769420355038164	fix	2.0		60.0	attractiveness	082	1.0	2	-0.18000000000000016	929.1336690925455	0.5167385575732624
10.0	30.286158912611427	face	0.0		147.0	attractiveness	100	1.0	2		929.6504076501187	1.2334411948504567
10.0	31.519600107461883	rating	1.0		91.0	attractiveness	100	1.0	2		930.8838488449692	0.7584118398117425
10.0	32.278011947273626	fix	2.0		60.0	attractiveness	100	1.0	2	1.25	931.6422606847809	0.516743085343478
11.0	32.794755032617104	face	0.0		147.0	attractiveness	064	1.0	2		932.1590037701244	1.2334396855912928
11.0	34.0281947182084	rating	1.0		71.0	attractiveness	064	1.0	2		933.3924434557157	0.6000585591427807
11.0	34.62825327735118	fix	2.0		60.0	attractiveness	064	1.0	2	-0.08000000000000007	933.9925020148585	0.5167421797887073
12.0	35.144995457139885	face	0.0		147.0	attractiveness	087	1.0	2		934.5092441946472	1.2334405911460635
12.0	36.37843604828595	rating	1.0		81.0	attractiveness	087	1.0	2		935.7426847857932	0.6834030106656428
12.0	37.06183905895159	fix	2.0		60.0	attractiveness	087	1.0	2	-0.2200000000000002	936.4260877964589	0.5167406705295434
13.0	37.578579729481135	face	0.0		147.0	attractiveness	061	1.0	2		936.9428284669884	1.2334421004015894
13.0	38.812021829882724	rating	1.0		56.0	attractiveness	061	1.0	2		938.17627056739	0.4667133529947023
13.0	39.278735182877426	fix	2.0		60.0	attractiveness	061	1.0	2	-1.1600000000000001	938.6429839203847	0.5167403686828038
14.0	39.79547555156023	face	0.0		147.0	attractiveness	038	1.0	2		939.1597242890675	1.2334405911460635
14.0	41.028916142706294	rating	1.0		78.0	attractiveness	038	1.0	2		940.3931648802136	0.6584012750172406
14.0	41.687317417723534	fix	2.0		60.0	attractiveness	038	1.0	2	-2.33	941.0515661552308	0.5167415760879521
15.0	42.204058993811486	face	0.0		147.0	attractiveness	126	1.0	2		941.5683077313188	1.2334876799395715
15.0	43.43754667375106	rating	1.0		54.0	attractiveness	126	1.0	2		942.8017954112584	0.4583321510835958
15.0	43.895878824834654	fix	2.0		60.0	attractiveness	126	1.0	2	-0.5899999999999999	943.260127562342	0.5167439908946108
16.0	44.412622815729264	face	0.0		147.0	attractiveness	101	1.0	2		943.7768715532366	1.233478020702023
16.0	45.64610083643129	rating	1.0		43.0	attractiveness	101	1.0	2		945.0103495739386	0.36666052902364754
16.0	46.012761365454935	fix	2.0		60.0	attractiveness	101	1.0	2	2.5199999999999996	945.3770101029622	0.5167648186325096
17.0	46.529526184087445	face	0.0		147.0	attractiveness	005	1.0	2		945.8937749215947	1.2334185560066544
17.0	47.7629447400941	rating	1.0		51.0	attractiveness	005	1.0	2		947.1271934776014	0.4333784097871103
17.0	48.19632314988121	fix	2.0		60.0	attractiveness	005	1.0	2	-3.96	947.5605718873885	0.51673885942364
18.0	48.71306200930485	face	0.0		147.0	attractiveness	062	1.0	2		948.0773107468121	1.2334421004015894
18.0	49.94650410970644	rating	1.0		57.0	attractiveness	062	1.0	2		949.3107528472137	0.4833794662663422
18.0	50.42988357597278	fix	2.0		60.0	attractiveness	062	1.0	2	-2.9699999999999998	949.7941323134801	0.5167418779383297
19.0	50.94662545391111	face	0.0		147.0	attractiveness	124	1.0	2		950.3108741914184	1.2334417985512118
19.0	52.18006725246232	rating	1.0		94.0	attractiveness	124	1.0	2		951.5443159899696	0.7834156884164258
19.0	52.96348294087875	fix	2.0		60.0	attractiveness	124	1.0	2	2.84	952.327731678386	0.5167433871938556
20.0	53.480226328072604	face	0.0		147.0	attractiveness	136	1.0	2		952.8444750655799	1.2334369689306186
20.0	54.71366329700322	rating	1.0		42.0	attractiveness	136	1.0	2		954.0779120345105	0.3500324490087223
20.0	55.063695746011945	fix	2.0		60.0	attractiveness	136	1.0	2	-1.9	954.4279444835192	0.5167445945990039
21.0	55.58044034061095	face	0.0		147.0	attractiveness	033	1.0	2		954.9446890781182	1.2334396855912928
21.0	56.81388002620224	rating	1.0		45.0	attractiveness	033	1.0	2		956.1781287637095	0.38337101443175925
21.0	57.197251040634	fix	2.0		60.0	attractiveness	033	1.0	2	3.2300000000000004	956.5614997781413	0.5167415760843141
22.0	57.713992616718315	face	0.0		147.0	attractiveness	117	1.0	2		957.0782413542256	1.233442402255605
22.0	58.94743501897392	rating	1.0		69.0	attractiveness	117	1.0	2		958.3116837564812	0.5833909366119769
22.0	59.5308259555859	fix	2.0		60.0	attractiveness	117	1.0	2	3.38	958.8950746930932	0.5167406705331814
23.0	60.04756662611908	face	0.0		147.0	attractiveness	043	1.0	2		959.4118153636264	1.233440289295686
23.0	61.281006915414764	rating	1.0		58.0	attractiveness	043	1.0	2		960.6452556529221	0.4917172015957476
23.0	61.77272411701051	fix	2.0		60.0	attractiveness	043	1.0	2	-0.31999999999999984	961.1369728545178	0.5167445945990039
24.0	62.289468711609516	face	0.0		147.0	attractiveness	091	1.0	2		961.6537174491168	1.233436667080241
24.0	63.52290537868976	rating	1.0		50.0	attractiveness	091	1.0	2		962.887154116197	0.4167083724460099
24.0	63.93961375113577	fix	2.0		60.0	attractiveness	091	1.0	2	1.08	963.3038624886431	0.5167400668324262
25.0	64.45635381796819	face	0.0		147.0	attractiveness	011	1.0	2		963.8206025554755	1.2334436096571153
25.0	65.68979742762531	rating	1.0		99.0	attractiveness	011	1.0	2		965.0540461651326	0.833415839340887
25.0	66.5232132669662	fix	2.0		60.0	attractiveness	011	1.0	2	0.1200000000000001	965.8874620044735	0.5167433871938556
26.0	67.03995665416005	face	0.0		147.0	attractiveness	092	1.0	2		966.4042053916673	1.2334396855949308
26.0	68.27339633975498	rating	1.0		53.0	attractiveness	092	1.0	2		967.6376450772623	0.45004271194920875
26.0	68.72343905170419	fix	2.0		60.0	attractiveness	092	1.0	2	-0.2200000000000002	968.0876877892115	0.5167397649784107
27.0	69.2401788166826	face	0.0		147.0	attractiveness	027	1.0	2		968.6044275541899	1.2334439115111309
27.0	70.47362272819373	rating	1.0		92.0	attractiveness	027	1.0	2		969.837871465701	0.7667447455241927
27.0	71.24036747371792	fix	2.0		60.0	attractiveness	027	1.0	2	0.17999999999999972	970.6046162112252	0.5167424816390849
28.0	71.75710995535701	face	0.0		147.0	attractiveness	172	1.0	2		971.1213586928643	1.2334393837409152
28.0	72.99054933909792	rating	1.0		66.0	attractiveness	172	1.0	2		972.3547980766052	0.5500559934080229
28.0	73.54060533250595	fix	2.0		60.0	attractiveness	172	1.0	2	-1.2200000000000002	972.9048540700132	0.5167406705331814
29.0	74.05734600303913	face	0.0		147.0	attractiveness	012	1.0	2		973.4215947405464	1.2334414966971963
29.0	75.29078749973633	rating	1.0		59.0	attractiveness	012	1.0	2		974.6550362372436	0.5000501073081978
29.0	75.79083760704452	fix	2.0		60.0	attractiveness	012	1.0	2	1.0300000000000002	975.1550863445518	0.5167412742375745
30.0	76.3075788812821	face	0.0		147.0	attractiveness	039	1.0	2		975.6718276187894	1.2334417985475739
30.0	77.54102067982967	rating	1.0		125.0	attractiveness	039	1.0	2		976.905269417337	1.0501061007162207
30.0	78.59112678054589	fix	2.0		60.0	attractiveness	039	1.0	2	1.0300000000000002	977.9553755180532	0.5167427834931004
31.0	79.10786956403899	face	0.0		147.0	attractiveness	102	1.0	2		978.4721183015463	1.233438176335767
31.0	80.34130774037476	rating	1.0		37.0	attractiveness	102	1.0	2		979.705556477882	0.3083652037930733
31.0	80.64967294416783	fix	2.0		60.0	attractiveness	102	1.0	2	0.0	980.0139216816751	0.5167406705331814
32.0	81.16641361470101	face	0.0		147.0	attractiveness	042	1.0	2		980.5306623522083	1.2334417985512118
32.0	82.39985541325223	rating	1.0		112.0	attractiveness	042	1.0	2		981.7641041507595	0.9417620265085134
32.0	83.34161743976074	fix	2.0		60.0	attractiveness	042	1.0	2	0.0	982.705866177268	0.5167421797887073
33.0	83.85835961954945	face	0.0		147.0	attractiveness	066	1.0	2		983.2226083570567	1.2334405911424255
33.0	85.09180021069187	rating	1.0		92.0	attractiveness	066	1.0	2		984.4560489481992	0.7750770475358877
33.0	85.86687725822776	fix	2.0		60.0	attractiveness	066	1.0	2	0.8300000000000001	985.231125995735	0.5167427834894625
34.0	86.38362004171722	face	0.0		147.0	attractiveness	018	1.0	2		985.7478687792245	1.233440289295686
34.0	87.61706033101291	rating	1.0		40.0	attractiveness	018	1.0	2		986.9813090685202	0.3333675431422307
34.0	87.95042787415514	fix	2.0		60.0	attractiveness	018	1.0	2	-0.48	987.3146766116624	0.5167636112273613
35.0	88.4671914853825	face	0.0		147.0	attractiveness	009	1.0	2		987.8314402228898	1.2334164430430974
35.0	89.7006079284256	rating	1.0		60.0	attractiveness	009	1.0	2		989.0648566659329	0.5000513147133461
35.0	90.20065924313894	fix	2.0		60.0	attractiveness	009	1.0	2	3.1900000000000004	989.5649079806462	0.5167418779383297
36.0	90.71740112107727	face	0.0		147.0	attractiveness	121	1.0	2		990.0816498585846	1.2334390818905376
36.0	91.95084020296781	rating	1.0		64.0	attractiveness	121	1.0	2		991.3150889404751	0.5417227858451952
36.0	92.492562988813	fix	2.0		60.0	attractiveness	121	1.0	2	1.88	991.8568117263203	0.5167415760843141
37.0	93.00930456489732	face	0.0		147.0	attractiveness	099	1.0	2		992.3735533024046	1.233440892996441
37.0	94.24274545789376	rating	1.0		48.0	attractiveness	099	1.0	2		993.6069941954011	0.4083730519269011
37.0	94.65111850982066	fix	2.0		60.0	attractiveness	099	1.0	2	-1.6099999999999999	994.015367247328	0.5167974185678759
38.0	95.16791592838854	face	0.0		147.0	attractiveness	144	1.0	2		994.5321646658958	1.2333835412609915
38.0	96.40129946964953	rating	1.0		51.0	attractiveness	144	1.0	2		995.7655482071568	0.43337780608271714
38.0	96.83467727573225	fix	2.0		60.0	attractiveness	144	1.0	2	0.5499999999999998	996.1989260132395	0.5167455001537746
39.0	97.35142277588602	face	0.0		147.0	attractiveness	006	1.0	2		996.7156715133933	1.2334354596750927
39.0	98.58485823556111	rating	1.0		52.0	attractiveness	006	1.0	2		997.9491069730684	0.4417082969848707
39.0	99.02656653254598	fix	2.0		60.0	attractiveness	006	1.0	2	-2.9299999999999997	998.3908152700533	0.5000543332243979
40.0	99.52662086577038	cue	0.0		480.0						998.8908696032777	4.00041353621782
40.0	103.5270344019882	fix	1.0		120.0						1002.8912831394955	1.0168212648168264
40.0	104.54385566680503	face	0.0		147.0	trustworthiness	005	1.0	2		1003.9081044043123	1.2334125189809129
40.0	105.77726818578594	rating	1.0		64.0	trustworthiness	005	1.0	2		1005.1415169232932	0.5333853523661674
40.0	106.31065353815211	fix	2.0		60.0	trustworthiness	005	1.0	2	-1.25	1005.6749022756594	0.5167427834894625
41.0	106.82739632164157	face	0.0		147.0	trustworthiness	136	1.0	2		1006.1916450591489	1.2334417985512118
41.0	108.06083812019278	rating	1.0		72.0	trustworthiness	136	1.0	2		1007.4250868577001	0.6083938796655275
41.0	108.66923199985831	fix	2.0		60.0	trustworthiness	136	1.0	2	-0.6099999999999999	1008.0334807373656	0.5167406705295434
42.0	109.18597267038786	face	0.0		147.0	trustworthiness	006	1.0	2		1008.5502214078952	1.2334683614608366
42.0	110.41944103184869	rating	1.0		39.0	trustworthiness	006	1.0	2		1009.783689769356	0.3333400746778352
42.0	110.75278110652653	fix	2.0		60.0	trustworthiness	006	1.0	2	-1.54	1010.1170298440338	0.516740972383559
43.0	111.26952207891009	face	0.0		147.0	trustworthiness	126	1.0	2		1010.6337708164174	1.2334399874453084
43.0	112.5029620663554	rating	1.0		48.0	trustworthiness	126	1.0	2		1011.8672108038627	0.4083739574816718
43.0	112.91133602383707	fix	2.0		60.0	trustworthiness	126	1.0	2	-1.4700000000000002	1012.2755847613444	0.5167400668287883
44.0	113.42807609066585	face	0.0		147.0	trustworthiness	011	1.0	2		1012.7923248281732	1.2334442133615084
44.0	114.66152030402736	rating	1.0		74.0	trustworthiness	011	1.0	2		1014.0257690415347	0.625062407743826
44.0	115.28658271177119	fix	2.0		60.0	trustworthiness	011	1.0	2	0.0	1014.6508314492785	0.5167415760879521
45.0	115.80332428785914	face	0.0		147.0	trustworthiness	092	1.0	2		1015.1675730253664	1.2334414967008343
45.0	117.03676578455998	rating	1.0		49.0	trustworthiness	092	1.0	2		1016.4010145220673	0.41670505208094255
45.0	117.45347083664092	fix	2.0		60.0	trustworthiness	092	1.0	2	-0.77	1016.8177195741482	0.5167455001537746
46.0	117.97021633679469	face	0.0		147.0	trustworthiness	144	1.0	2		1017.334465074302	1.2334390818905376
46.0	119.20365541868523	rating	1.0		47.0	trustworthiness	144	1.0	2		1018.5679041561925	0.4000392406633182
46.0	119.60369465934855	fix	2.0		60.0	trustworthiness	144	1.0	2	2.49	1018.9679433968558	0.5167415760843141
47.0	120.12043623543286	face	0.0		147.0	trustworthiness	087	1.0	2		1019.4846849729402	1.2334417985512118
47.0	121.35387803398407	rating	1.0		65.0	trustworthiness	087	1.0	2		1020.7181267714914	0.5500547860028746
47.0	121.90393281998695	fix	2.0		60.0	trustworthiness	087	1.0	2	2.4000000000000004	1021.2681815574942	0.516743085343478
48.0	122.42067590533043	face	0.0		147.0	trustworthiness	030	1.0	2		1021.7849246428377	1.2334384781861445
48.0	123.65411438351657	rating	1.0		87.0	trustworthiness	030	1.0	2		1023.0183631210239	0.7334085949114524
48.0	124.38752297842802	fix	2.0		60.0	trustworthiness	030	1.0	2	3.6500000000000004	1023.7517717159353	0.516750933475123
49.0	124.90427391190315	face	0.0		147.0	trustworthiness	043	1.0	2		1024.2685226494104	1.2334306300544995
49.0	126.13770454195765	rating	1.0		129.0	trustworthiness	043	1.0	2		1025.501953279465	1.0834452698400128
49.0	127.22114981179766	fix	2.0		60.0	trustworthiness	043	1.0	2	0.4900000000000002	1026.585398549305	0.5167412742339366
50.0	127.7378910860316	face	0.0		147.0	trustworthiness	038	1.0	2		1027.102139823539	1.2334399874453084
50.0	128.9713310734769	rating	1.0		79.0	trustworthiness	038	1.0	2		1028.3355798109842	0.6667317659193941
50.0	129.6380628393963	fix	2.0		60.0	trustworthiness	038	1.0	2	-0.009999999999999787	1029.0023115769036	0.5167427834894625
51.0	130.15480562288576	face	0.0		147.0	trustworthiness	172	1.0	2		1029.519054360393	1.2334384781861445
51.0	131.3882441010719	rating	1.0		40.0	trustworthiness	172	1.0	2		1030.7524928385792	0.3417028636649775
51.0	131.72994696473688	fix	2.0		60.0	trustworthiness	172	1.0	2	-2.15	1031.0941957022442	0.516740972383559
52.0	132.24668793712044	face	0.0		147.0	trustworthiness	102	1.0	2		1031.6109366746277	1.2334414966971963
52.0	133.48012943381764	rating	1.0		69.0	trustworthiness	102	1.0	2		1032.844378171325	0.5833912384659925
52.0	134.06352067228363	fix	2.0		60.0	trustworthiness	102	1.0	2	1.4000000000000004	1033.427769409791	0.5167433871938556
53.0	134.58026405947749	face	0.0		147.0	trustworthiness	070	1.0	2		1033.9445127969848	1.2334384781861445
53.0	135.81370253766363	rating	1.0		49.0	trustworthiness	070	1.0	2		1035.177951275171	0.41670867430002545
53.0	136.23041121196366	fix	2.0		60.0	trustworthiness	070	1.0	2	-3.08	1035.594659949471	0.5167448964493815
54.0	136.74715610841304	face	0.0		147.0	trustworthiness	039	1.0	2		1036.1114048459203	1.2334360633794859
54.0	137.98059217179252	rating	1.0		63.0	trustworthiness	039	1.0	2		1037.3448409092998	0.5333865597713157
54.0	138.51397873156384	fix	2.0		60.0	trustworthiness	039	1.0	2	1.12	1037.8782274690711	0.5167832315564738
55.0	139.0307619631203	face	0.0		147.0	trustworthiness	027	1.0	2		1038.3950107006276	1.233401652334578
55.0	140.2641636154549	rating	1.0		54.0	trustworthiness	027	1.0	2		1039.6284123529622	0.4583783343259711
55.0	140.72254194978086	fix	2.0		60.0	trustworthiness	027	1.0	2	2.01	1040.0867906872882	0.5167406705295434
56.0	141.2392826203104	face	0.0		147.0	trustworthiness	012	1.0	2		1040.6035313578177	1.233440892996441
56.0	142.47272351330685	rating	1.0		69.0	trustworthiness	012	1.0	2		1041.8369722508141	0.5833921440207632
56.0	143.0561156573276	fix	2.0		60.0	trustworthiness	012	1.0	2	1.8200000000000003	1042.420364394835	0.5167424816390849
57.0	143.5728581389667	face	0.0		147.0	trustworthiness	124	1.0	2		1042.937106876474	1.2334396855912928
57.0	144.806297824558	rating	1.0		54.0	trustworthiness	124	1.0	2		1044.1705465620653	0.4583768250704452
57.0	145.26467464962843	fix	2.0		60.0	trustworthiness	124	1.0	2	2.33	1044.6289233871357	0.51674308533984
58.0	145.78141773496827	face	0.0		147.0	trustworthiness	034	1.0	2		1045.1456664724756	1.2334421004052274
58.0	147.0148598353735	rating	1.0		50.0	trustworthiness	034	1.0	2		1046.3791085728808	0.42504520222428255
58.0	147.43990503759778	fix	2.0		60.0	trustworthiness	034	1.0	2	0.6799999999999997	1046.804153775105	0.5167394631280331
59.0	147.95664450072582	face	0.0		147.0	trustworthiness	044	1.0	2		1047.320893238233	1.2334390818868997
59.0	149.19008358261271	rating	1.0		108.0	trustworthiness	044	1.0	2		1048.55433232012	0.9084261777497886
59.0	150.0985097603625	fix	2.0		60.0	trustworthiness	044	1.0	2	1.17	1049.4627584978698	0.5167451982997591
60.0	150.61525495866226	face	0.0		147.0	trustworthiness	141	1.0	2		1049.9795036961696	1.2334357615254703
60.0	151.84869072018773	rating	1.0		113.0	trustworthiness	141	1.0	2		1051.212939457695	0.9500985544364084
60.0	152.79878927462414	fix	2.0		60.0	trustworthiness	141	1.0	2	0.3799999999999999	1052.1630380121314	0.5167433871938556
61.0	153.315532661818	face	0.0		147.0	trustworthiness	024	1.0	2		1052.6797813993253	1.2334393837372772
61.0	154.54897204555527	rating	1.0		51.0	trustworthiness	024	1.0	2		1053.9132207830626	0.4333874653275416
61.0	154.98235951088282	fix	2.0		60.0	trustworthiness	024	1.0	2	3.37	1054.34660824839	0.5167322186971433
62.0	155.49909172957996	face	0.0		147.0	trustworthiness	091	1.0	2		1054.8633404670873	1.2334378744817514
62.0	156.7325296040617	rating	1.0		61.0	trustworthiness	091	1.0	2		1056.096778341569	0.5167180316893791
62.0	157.2492476357511	fix	2.0		60.0	trustworthiness	091	1.0	2	1.13	1056.6134963732584	0.5167406705331814
63.0	157.76598830628427	face	0.0		147.0	trustworthiness	036	1.0	2		1057.1302370437916	1.2334436096571153
63.0	158.9994319159414	rating	1.0		39.0	trustworthiness	036	1.0	2		1058.3636806534487	0.33336452463117894
63.0	159.33279644057257	fix	2.0		60.0	trustworthiness	036	1.0	2	-1.46	1058.6970451780799	0.5167421797887073
64.0	159.84953862036127	face	0.0		147.0	trustworthiness	121	1.0	2		1059.2137873578686	1.233438780036522
64.0	161.0829774003978	rating	1.0		36.0	trustworthiness	121	1.0	2		1060.447226137905	0.3083649019426957
64.0	161.3913423023405	fix	2.0		61.0	trustworthiness	121	1.0	2	0.0	1060.7555910398478	0.5250756892019126
65.0	161.9164179915424	face	0.0		146.0	trustworthiness	082	1.0	2		1061.2806667290497	1.2251073835832358
65.0	163.14152537512564	rating	1.0		108.0	trustworthiness	082	1.0	2		1062.505774112633	0.9084228573847213
65.0	164.04994823251036	fix	2.0		60.0	trustworthiness	082	1.0	2	0.8499999999999996	1063.4141969700177	0.516745198303397
66.0	164.56669343081376	face	0.0		147.0	trustworthiness	066	1.0	2		1063.930942168321	1.233438176335767
66.0	165.80013160714952	rating	1.0		36.0	trustworthiness	066	1.0	2		1065.1643803446568	0.3083649019426957
66.0	166.10849650909222	fix	2.0		60.0	trustworthiness	066	1.0	2	0.0	1065.4727452465995	0.5167400668287883
67.0	166.625236575921	face	0.0		147.0	trustworthiness	101	1.0	2		1065.9894853134283	1.233440892996441
67.0	167.85867746891745	rating	1.0		75.0	trustworthiness	101	1.0	2		1067.2229262064247	0.6333986338213435
67.0	168.4920761027388	fix	2.0		60.0	trustworthiness	101	1.0	2	0.7199999999999998	1067.856324840246	0.5167391612776555
68.0	169.00881526401645	face	0.0		147.0	trustworthiness	064	1.0	2		1068.3730640015237	1.2334414966971963
68.0	170.24225676071364	rating	1.0		70.0	trustworthiness	064	1.0	2		1069.606505498221	0.5917265589887393
68.0	170.83398331970238	fix	2.0		60.0	trustworthiness	064	1.0	2	1.7400000000000002	1070.1982320572097	0.51674308533984
69.0	171.35072640504222	face	0.0		147.0	trustworthiness	099	1.0	2		1070.7149751425495	1.23343878004016
69.0	172.58416518508238	rating	1.0		80.0	trustworthiness	099	1.0	2		1071.9484139225897	0.6750698031028151
69.0	173.2592349881852	fix	2.0		60.0	trustworthiness	099	1.0	2	1.88	1072.6234837256925	0.5167412742339366
70.0	173.77597626241914	face	0.0		147.0	trustworthiness	100	1.0	2		1073.1402249999264	1.2334405911460635
70.0	175.0094168535652	rating	1.0		57.0	trustworthiness	100	1.0	2		1074.3736655910725	0.48338006996709737
70.0	175.4927969235323	fix	2.0		60.0	trustworthiness	100	1.0	2	1.04	1074.8570456610396	0.5167439908982487
71.0	176.00954091443054	face	0.0		147.0	trustworthiness	062	1.0	2		1075.3737896519378	1.233440289292048
71.0	177.2429812037226	rating	1.0		52.0	trustworthiness	062	1.0	2		1076.60722994123	0.44170859883888625
71.0	177.68468980256148	fix	2.0		59.0	trustworthiness	062	1.0	2	-3.31	1077.0489385400688	0.5167427834894625
72.0	178.20143258605094	face	0.0		147.0	trustworthiness	137	1.0	2		1077.5656813235582	1.233440892996441
72.0	179.43487347904738	rating	1.0		58.0	trustworthiness	137	1.0	2		1078.7991222165547	0.49171750344976317
72.0	179.92659098249715	fix	2.0		60.0	trustworthiness	137	1.0	2	0.0	1079.2908397200044	0.5167400668287883
73.0	180.44333104932593	face	0.0		147.0	trustworthiness	117	1.0	2		1079.8075797868332	1.233440289295686
73.0	181.67677133862162	rating	1.0		126.0	trustworthiness	117	1.0	2		1081.041020076129	1.0584426286404778
73.0	182.7352139672621	fix	2.0		60.0	trustworthiness	117	1.0	2	0.7300000000000004	1082.0994627047694	0.5167427834931004
74.0	183.2519567507552	face	0.0		147.0	trustworthiness	061	1.0	2		1082.6162054882625	1.2334384781861445
74.0	184.48539522894134	rating	1.0		151.0	trustworthiness	061	1.0	2		1083.8496439664486	1.2667957583871612
74.0	185.7521909873285	fix	2.0		60.0	trustworthiness	061	1.0	2	1.1799999999999997	1085.1164397248358	0.516740972383559
75.0	186.26893195971206	face	0.0		147.0	trustworthiness	042	1.0	2		1085.6331806972194	1.2334396855912928
75.0	187.50237164530336	rating	1.0		118.0	trustworthiness	042	1.0	2		1086.8666203828107	0.991767610754323
75.0	188.49413925605768	fix	2.0		60.0	trustworthiness	042	1.0	2	0.4400000000000004	1087.858387993565	0.5167433871938556
76.0	189.01088264325153	face	0.0		147.0	trustworthiness	033	1.0	2		1088.3751313807588	1.2334390818905376
76.0	190.24432172514207	rating	1.0		70.0	trustworthiness	033	1.0	2		1089.6085704626494	0.5917277663902496
76.0	190.83604949153232	fix	2.0		60.0	trustworthiness	033	1.0	2	0.009999999999999787	1090.2002982290396	0.516740972383559
77.0	191.35279046391588	face	0.0		147.0	trustworthiness	018	1.0	2		1090.7170392014232	1.2334411948504567
77.0	192.58623165876634	rating	1.0		87.0	trustworthiness	018	1.0	2		1091.9504803962736	0.7334061801011558
77.0	193.3196378388675	fix	2.0		60.0	trustworthiness	018	1.0	2	0.0	1092.6838865763748	0.516740972383559
78.0	193.83637881125105	face	0.0		147.0	trustworthiness	130	1.0	2		1093.2006275487583	1.233440892996441
78.0	195.0698197042475	rating	1.0		71.0	trustworthiness	130	1.0	2		1094.4340684417548	0.600059766547929
78.0	195.66987947079542	fix	2.0		60.0	trustworthiness	130	1.0	2	2.21	1095.0341282083027	0.5167433871938556
79.0	196.18662285798928	face	0.0		147.0	trustworthiness	009	1.0	2		1095.5508715954966	1.233438780036522
79.0	197.4200616380258	rating	1.0		89.0	trustworthiness	009	1.0	2		1096.784310375533	0.7500744063363527
79.0	198.17013604436215	fix	2.0		60.0	trustworthiness	009	1.0	2	3.49	1097.5343847818694	0.500054936928791
80.0	198.67019098129094	cue	0.0		480.0						1098.0344397187982	4.000411423257901
80.0	202.67060240454884	fix	1.0		120.0						1102.0348511420561	1.016817340751004
80.0	203.68741974529985	face	0.0		147.0	dominance	038	1.0	2		1103.0516684828071	1.2334179523022613
80.0	204.9208376976021	rating	1.0		59.0	dominance	038	1.0	2		1104.2850864351094	0.5000507110089529
80.0	205.42088840861106	fix	2.0		60.0	dominance	038	1.0	2	-0.8799999999999999	1104.7851371461184	0.5167403686828038
81.0	205.93762877729387	face	0.0		147.0	dominance	024	1.0	2		1105.3018775148012	1.2334390818868997
81.0	207.17106785918077	rating	1.0		94.0	dominance	024	1.0	2		1106.535316596688	0.7917501033844019
81.0	207.96281796256517	fix	2.0		60.0	dominance	024	1.0	2	1.8200000000000003	1107.3270667000725	0.5167406705331814
82.0	208.47955863309835	face	0.0		147.0	dominance	117	1.0	2		1107.8438073706056	1.2334393837409152
82.0	209.71299801683926	rating	1.0		54.0	dominance	117	1.0	2		1109.0772467543466	0.45837984358149697
82.0	210.17137786042076	fix	2.0		60.0	dominance	117	1.0	2	3.2199999999999998	1109.535626597928	0.5167406705295434
83.0	210.6881185309503	face	0.0		147.0	dominance	070	1.0	2		1110.0523672684576	1.2334414967008343
83.0	211.92156002765114	rating	1.0		56.0	dominance	070	1.0	2		1111.2858087651584	0.47504776795904036
83.0	212.39660779561018	fix	2.0		60.0	dominance	070	1.0	2	2.62	1111.7608565331175	0.516740972387197
84.0	212.91334876799738	face	0.0		147.0	dominance	124	1.0	2		1112.2775975055047	1.2334411948468187
84.0	214.1467899628442	rating	1.0		44.0	dominance	124	1.0	2		1113.5110387003515	0.3750369013141608
84.0	214.52182686415836	fix	2.0		60.0	dominance	124	1.0	2	-2.06	1113.8860756016657	0.5167439908982487
85.0	215.0385708550566	face	0.0		147.0	dominance	126	1.0	2		1114.402819592564	1.2334378744817514
85.0	216.27200872953836	rating	1.0		48.0	dominance	126	1.0	2		1115.6362574670457	0.40837516488682013
85.0	216.68038389442518	fix	2.0		60.0	dominance	126	1.0	2	0.5599999999999996	1116.0446326319325	0.5167424816390849
86.0	217.19712637606426	face	0.0		147.0	dominance	121	1.0	2		1116.5613751135716	1.23343878004016
86.0	218.43056515610442	rating	1.0		102.0	dominance	121	1.0	2		1117.7948138936117	0.8584205935003411
86.0	219.28898574960476	fix	2.0		60.0	dominance	121	1.0	2	2.63	1118.653234487112	0.5167424816390849
87.0	219.80572823124385	face	0.0		147.0	dominance	039	1.0	2		1119.1699769687511	1.2334411948468187
87.0	221.03916942609067	rating	1.0		244.0	dominance	039	1.0	2		1120.403418163598	2.0418731077697885
87.0	223.08104253386045	fix	2.0		60.0	dominance	039	1.0	2	-0.81	1122.4452912713678	0.5167436890478712
88.0	223.59778622290833	face	0.0		147.0	dominance	006	1.0	2		1122.9620349604156	1.2334399874416704
88.0	224.83122621035	rating	1.0		82.0	dominance	006	1.0	2		1124.1954749478573	0.6917356145240774
88.0	225.52296182487407	fix	2.0		60.0	dominance	006	1.0	2	-0.96	1124.8872105623814	0.5167774963847478
89.0	226.03973932125882	face	0.0		147.0	dominance	087	1.0	2		1125.4039880587661	1.2334043689952523
89.0	227.27314369025407	rating	1.0		53.0	dominance	087	1.0	2		1126.6373924277614	0.4500442212083726
89.0	227.72318791146245	fix	2.0		60.0	dominance	087	1.0	2	-2.51	1127.0874366489697	0.5167470094093005
90.0	228.23993492087175	face	0.0		147.0	dominance	044	1.0	2		1127.604183658379	1.2334363652262255
90.0	229.47337128609797	rating	1.0		65.0	dominance	044	1.0	2		1128.8376200236053	0.5500547860028746
90.0	230.02342607210085	fix	2.0		60.0	dominance	044	1.0	2	0.0	1129.3876748096081	0.5167436890442332
91.0	230.54016976114508	face	0.0		147.0	dominance	043	1.0	2		1129.9044184986524	1.2334384781897825
91.0	231.77360823933486	rating	1.0		50.0	dominance	043	1.0	2		1131.1378569768422	0.4250430892643635
91.0	232.19865132859923	fix	2.0		60.0	dominance	043	1.0	2	0.6500000000000004	1131.5629000661065	0.5167415760879521
92.0	232.71539290468718	face	0.0		147.0	dominance	064	1.0	2		1132.0796416421945	1.2334421004015894
92.0	233.94883500508877	rating	1.0		81.0	dominance	064	1.0	2		1133.313083742596	0.683399992150953
92.0	234.63223499723972	fix	2.0		60.0	dominance	064	1.0	2	0.6200000000000001	1133.996483734747	0.5167442927486263
93.0	235.14897928998835	face	0.0		147.0	dominance	005	1.0	2		1134.5132280274956	1.2334417985475739
93.0	236.38242108853592	rating	1.0		101.0	dominance	005	1.0	2		1135.7466698260432	0.8500846692768391
93.0	237.23250575781276	fix	2.0		60.0	dominance	005	1.0	2	-0.029999999999999805	1136.59675449532	0.5167394631280331
94.0	237.7492452209408	face	0.0		147.0	dominance	033	1.0	2		1137.113493958448	1.2334421004015894
94.0	238.98268732134238	rating	1.0		137.0	dominance	033	1.0	2		1138.3469360588497	1.150115759955952
94.0	240.13280308129833	fix	2.0		60.0	dominance	033	1.0	2	3.92	1139.4970518188056	0.5167412742339366
95.0	240.64954435553227	face	0.0		147.0	dominance	012	1.0	2		1140.0137930930396	1.233442402255605
95.0	241.88298675778788	rating	1.0		78.0	dominance	012	1.0	2		1141.2472354952952	0.6584018787216337
95.0	242.5413886365095	fix	2.0		60.0	dominance	012	1.0	2	0.8300000000000001	1141.9056373740168	0.5167379538725072
96.0	243.05812659038202	face	0.0		147.0	dominance	172	1.0	2		1142.4223753278893	1.233442402251967
96.0	244.29156899263398	rating	1.0		52.0	dominance	172	1.0	2		1143.6558177301413	0.44171131549592246
96.0	244.7332803081299	fix	2.0		59.0	dominance	172	1.0	2	1.0300000000000002	1144.0975290456372	0.51678021304906
97.0	245.25006052117897	face	0.0		147.0	dominance	137	1.0	2		1144.6143092586863	1.2334034634404816
97.0	246.48346398461945	rating	1.0		47.0	dominance	137	1.0	2		1145.8477127221267	0.4000377314077923
97.0	246.88350171602724	fix	2.0		60.0	dominance	137	1.0	2	0.28000000000000025	1146.2477504535345	0.5167403686791658
98.0	247.4002420847064	face	0.0		147.0	dominance	141	1.0	2		1146.7644908222137	1.2334399874453084
98.0	248.63368207215171	rating	1.0		178.0	dominance	141	1.0	2		1147.997930809659	1.4918192273180466
98.0	250.12550129946976	fix	2.0		60.0	dominance	141	1.0	2	-0.009999999999999787	1149.489750036977	0.5167433871938556
99.0	250.64224468666362	face	0.0		147.0	dominance	144	1.0	2		1150.006493424171	1.233440289295686
99.0	251.8756849759593	rating	1.0		57.0	dominance	144	1.0	2		1151.2399337134666	0.483384597737313
99.0	252.35906957369662	fix	2.0		60.0	dominance	144	1.0	2	-1.5499999999999998	1151.723318311204	0.5167406705331814
100.0	252.8758102442298	face	0.0		147.0	dominance	066	1.0	2		1152.240058981737	1.2334393837409152
100.0	254.1092496279707	rating	1.0		100.0	dominance	066	1.0	2		1153.473498365478	0.8417493487540924
100.0	254.9509989767248	fix	2.0		60.0	dominance	066	1.0	2	0.0	1154.315247714232	0.5167436890442332
101.0	255.46774266576904	face	0.0		147.0	dominance	100	1.0	2		1154.8319914032763	1.2334399874453084
101.0	256.70118265321435	rating	1.0		71.0	dominance	100	1.0	2		1156.0654313907216	0.6000594646975514
101.0	257.3012421179119	fix	2.0		60.0	dominance	100	1.0	2	-0.5099999999999998	1156.6654908554192	0.5167554612417007
102.0	257.8179975791536	face	0.0		147.0	dominance	011	1.0	2		1157.182246316661	1.233426705988677
102.0	259.0514242851423	rating	1.0		52.0	dominance	011	1.0	2		1158.4156730226496	0.4417107117951673
102.0	259.49313499693744	fix	2.0		60.0	dominance	011	1.0	2	0.08000000000000007	1158.8573837344447	0.5167418779383297
103.0	260.0098768748758	face	0.0		147.0	dominance	092	1.0	2		1159.374125612383	1.2334430059563601
103.0	261.24331988083213	rating	1.0		58.0	dominance	092	1.0	2		1160.6075686183394	0.4917123719751544
103.0	261.7350322528073	fix	2.0		60.0	dominance	092	1.0	2	1.2400000000000002	1161.0992809903146	0.516743085343478
104.0	262.25177533815076	face	0.0		147.0	dominance	027	1.0	2		1161.616024075658	1.2334399874416704
104.0	263.48521532559243	rating	1.0		70.0	dominance	027	1.0	2		1162.8494640630997	0.5917703274171799
104.0	264.0769856530096	fix	2.0		60.0	dominance	027	1.0	2	-3.1	1163.441234390517	0.5166984113602666
105.0	264.5936840643699	face	0.0		147.0	dominance	062	1.0	2		1163.9579328018772	1.2334421004015894
105.0	265.82712616477147	rating	1.0		40.0	dominance	062	1.0	2		1165.1913749022788	0.3416986377451394
105.0	266.1688248025166	fix	2.0		60.0	dominance	062	1.0	2	0.6200000000000001	1165.533073540024	0.5167436890442332
106.0	266.68556849156084	face	0.0		147.0	dominance	061	1.0	2		1166.0498172290681	1.233438176335767
106.0	267.9190066678966	rating	1.0		70.0	dominance	061	1.0	2		1167.283255405404	0.5917247478791978
106.0	268.5107314157758	fix	2.0		60.0	dominance	061	1.0	2	0.0	1167.874980153283	0.5167439908946108
107.0	269.0274754066704	face	0.0		147.0	dominance	102	1.0	2		1168.3917241441777	1.2334439115111309
107.0	270.26091931818155	rating	1.0		87.0	dominance	102	1.0	2		1169.6251680556888	0.733403161590104
107.0	270.99432247977165	fix	2.0		60.0	dominance	102	1.0	2	-3.05	1170.358571217279	0.5167886648814601
108.0	271.5111111446531	face	0.0		147.0	dominance	101	1.0	2		1170.8753598821604	1.23339320049854
108.0	272.74450434515165	rating	1.0		56.0	dominance	101	1.0	2		1172.108753082659	0.47505018276933697
108.0	273.219554527921	fix	2.0		60.0	dominance	101	1.0	2	3.0	1172.5838032654283	0.5167415760879521
109.0	273.73629610400894	face	0.0		147.0	dominance	082	1.0	2		1173.1005448415162	1.2334378744817514
109.0	274.9697339784907	rating	1.0		36.0	dominance	082	1.0	2		1174.333982715998	0.30836429824194056
109.0	275.27809827673263	fix	2.0		60.0	dominance	082	1.0	2	0.0	1174.64234701424	0.5167427834894625
110.0	275.7948410602221	face	0.0		147.0	dominance	018	1.0	2		1175.1590897977294	1.2334405911460635
110.0	277.02828165136816	rating	1.0		122.0	dominance	018	1.0	2		1176.3925303888755	1.0251037613707012
110.0	278.05338541273886	fix	2.0		60.0	dominance	018	1.0	2	0.3799999999999999	1177.4176341502462	0.5167461038545298
111.0	278.5701315165934	face	0.0		147.0	dominance	091	1.0	2		1177.9343802541007	1.2334369689306186
111.0	279.803568485524	rating	1.0		78.0	dominance	091	1.0	2		1179.1678172230313	0.6583985583565664
111.0	280.4619670438806	fix	2.0		60.0	dominance	091	1.0	2	-1.29	1179.8262157813879	0.5167448964493815
112.0	280.97871194032996	face	0.0		147.0	dominance	036	1.0	2		1180.3429606778373	1.2334369689306186
112.0	282.2121489092606	rating	1.0		69.0	dominance	036	1.0	2		1181.5763976467679	0.583393049575534
112.0	282.7955419588361	fix	2.0		60.0	dominance	036	1.0	2	-0.54	1182.1597906963434	0.5167403686791658
113.0	283.3122823275153	face	0.0		147.0	dominance	099	1.0	2		1182.6765310650226	1.2334411948504567
113.0	284.54572352236573	rating	1.0		66.0	dominance	099	1.0	2		1183.909972259873	0.5583885972664575
113.0	285.1041121196322	fix	2.0		60.0	dominance	099	1.0	2	-1.4900000000000002	1184.4683608571395	0.5167448964493815
114.0	285.6208570160816	face	0.0		147.0	dominance	042	1.0	2		1184.9851057535889	1.2334375726313738
114.0	286.85429458871295	rating	1.0		86.0	dominance	042	1.0	2		1186.2185433262202	0.725110100247548
114.0	287.5794046889605	fix	2.0		60.0	dominance	042	1.0	2	0.0	1186.9436534264678	0.5167062594882736
115.0	288.09611094844877	face	0.0		147.0	dominance	034	1.0	2		1187.460359685956	1.2334390818905376
115.0	289.3295500303393	rating	1.0		48.0	dominance	034	1.0	2		1188.6937987678466	0.408374561182427
115.0	289.73792459152173	fix	2.0		60.0	dominance	034	1.0	2	-1.9100000000000001	1189.102173329029	0.5167427834894625
116.0	290.2546673750112	face	0.0		147.0	dominance	009	1.0	2		1189.6189161125185	1.2334710781251488
116.0	291.48813845313634	rating	1.0		97.0	dominance	009	1.0	2		1190.8523871906436	0.8167192390901619
116.0	292.3048576922265	fix	2.0		60.0	dominance	009	1.0	2	-2.69	1191.6691064297338	0.5167415760879521
117.0	292.82159926831446	face	0.0		147.0	dominance	030	1.0	2		1192.1858480058218	1.2334417985512118
117.0	294.05504106686567	rating	1.0		171.0	dominance	030	1.0	2		1193.419289804373	1.4334783225494903
117.0	295.48851938941516	fix	2.0		60.0	dominance	030	1.0	2	-3.98	1194.8527681269225	0.5167397649820487
118.0	296.0052591543972	face	0.0		147.0	dominance	136	1.0	2		1195.3695078919045	1.233442402251967
118.0	297.2387015566492	rating	1.0		42.0	dominance	136	1.0	2		1196.6029502941565	0.35836746767745353
118.0	297.59706902432663	fix	2.0		60.0	dominance	136	1.0	2	0.1200000000000001	1196.961317761834	0.5167412742375745
119.0	298.1138102985642	face	0.0		147.0	dominance	130	1.0	2		1197.4780590360715	1.2334414966971963
119.0	299.3472517952614	rating	1.0		36.0	dominance	130	1.0	2		1198.7115005327687	0.30836158158126636
119.0	299.65561337684267	fix	2.0		60.0	dominance	130	1.0	2	-1.1800000000000002	1199.01986211435	0.5000540313740203
120.0	300.1556674082167	cue	0.0		3600.0						1199.519916145724	30.003096993863437
120.0	324.48331185158895	response	0.0	return							1223.8475605890962	
120.0	330.1587644020801	fix	1.0		120.0						1229.5230131395874	1.0001023275726766
120.0	331.1588667296528	cue	0.0		480.0						1230.52311546716	4.000413234367443
120.0	335.15927996402024	fix	1.0		120.0						1234.5235287015275	1.0167919852465275
120.0	336.17607194926677	face	0.0		147.0	attractiveness	027	2.0	2		1235.540320686774	1.2334411948468187
120.0	337.4095131441136	rating	1.0		377.0	attractiveness	027	2.0	2		1236.7737618816209	3.150324037320388
120.0	340.559837181434	fix	2.0		60.0	attractiveness	027	2.0	2	0.009999999999999787	1239.9240859189413	0.5167391612776555
121.0	341.07657634271163	face	0.0		147.0	attractiveness	126	2.0	2		1240.440825080219	1.2334436096571153
121.0	342.31001995236875	rating	1.0		80.0	attractiveness	126	2.0	2		1241.674268689876	0.6750646716318442
121.0	342.9850846240006	fix	2.0		60.0	attractiveness	126	2.0	2	-2.24	1242.349333361508	0.5167433871938556
122.0	343.50182801119445	face	0.0		147.0	attractiveness	101	2.0	2		1242.8660767487017	1.2334430059563601
122.0	344.7352710171508	rating	1.0		109.0	attractiveness	101	2.0	2		1244.099519754658	0.9167578760534525
122.0	345.65202889320426	fix	2.0		61.0	attractiveness	101	2.0	2	3.58	1245.0162776307116	0.5250747836471419
123.0	346.1771036768514	face	0.0		146.0	attractiveness	124	2.0	2		1245.5413524143587	1.22510587432771
123.0	347.4022095511791	rating	1.0		179.0	attractiveness	124	2.0	2		1246.7664582886864	1.5001545478407934
123.0	348.9023640990199	fix	2.0		60.0	attractiveness	124	2.0	2	3.5300000000000002	1248.2666128365272	0.5167412742375745
124.0	349.4191053732575	face	0.0		147.0	attractiveness	043	2.0	2		1248.7833541107648	1.2334677577564435
124.0	350.6525731310139	rating	1.0		42.0	attractiveness	043	2.0	2		1250.0168218685212	0.35833848995753215
124.0	351.01091162097146	fix	2.0		60.0	attractiveness	043	2.0	2	0.0	1250.3751603584788	0.5167458020041522
125.0	351.5276574229756	face	0.0		147.0	attractiveness	011	2.0	2		1250.891906160483	1.2334405911460635
125.0	352.76109801412167	rating	1.0		49.0	attractiveness	011	2.0	2		1252.125346751629	0.41670867430002545
125.0	353.1778066884217	fix	2.0		60.0	attractiveness	011	2.0	2	-0.33000000000000007	1252.542055425929	0.5167424816390849
126.0	353.6945491700608	face	0.0		147.0	attractiveness	082	2.0	2		1253.058797907568	1.2334393837409152
126.0	354.9279885538017	rating	1.0		78.0	attractiveness	082	2.0	2		1254.292237291309	0.6584012750208785
126.0	355.5863898288226	fix	2.0		60.0	attractiveness	082	2.0	2	-0.5299999999999998	1254.9506385663299	0.5167391612740175
127.0	356.1031289900966	face	0.0		147.0	attractiveness	039	2.0	2		1255.467377727604	1.2334411948504567
127.0	357.33657018494705	rating	1.0		80.0	attractiveness	039	2.0	2		1256.7008189224543	0.6750685956976668
127.0	358.0116387806447	fix	2.0		60.0	attractiveness	039	2.0	2	-0.08999999999999986	1257.375887518152	0.5167397649784107
128.0	358.5283785456231	face	0.0		147.0	attractiveness	012	2.0	2		1257.8926272831304	1.233440289292048
128.0	359.7618188349152	rating	1.0		83.0	attractiveness	012	2.0	2		1259.1260675724225	0.7001077608983906
128.0	360.46192659581357	fix	2.0		60.0	attractiveness	012	2.0	2	1.3600000000000003	1259.8261753333209	0.5167068631926668
129.0	360.97863345900623	face	0.0		147.0	attractiveness	038	2.0	2		1260.3428821965135	1.2334396855912928
129.0	362.2120731445975	rating	1.0		149.0	attractiveness	038	2.0	2		1261.5763218821048	1.2501287395607505
129.0	363.4622018841583	fix	2.0		60.0	attractiveness	038	2.0	2	-3.3	1262.8264506216656	0.5167412742339366
130.0	363.9789431583922	face	0.0		147.0	attractiveness	100	2.0	2		1263.3431918958995	1.2334393837409152
130.0	365.2123825421331	rating	1.0		82.0	attractiveness	100	2.0	2		1264.5766312796404	0.6917347089693067
130.0	365.90411725110243	fix	2.0		60.0	attractiveness	100	2.0	2	1.42	1265.2683659886097	0.516743085343478
131.0	366.4208603364459	face	0.0		147.0	attractiveness	064	2.0	2		1265.7851090739532	1.2334396855912928
131.0	367.6543000220372	rating	1.0		98.0	attractiveness	064	2.0	2		1267.0185487595445	0.8250859521431266
131.0	368.47938597418033	fix	2.0		60.0	attractiveness	064	2.0	2	0.25	1267.8436347116876	0.5167412742339366
132.0	368.99612724841427	face	0.0		147.0	attractiveness	033	2.0	2		1268.3603759859216	1.2334417985512118
132.0	370.2295690469655	rating	1.0		192.0	attractiveness	033	2.0	2		1269.5938177844728	1.6084934905775299
132.0	371.838062537543	fix	2.0		60.0	attractiveness	033	2.0	2	3.4000000000000004	1271.2023112750503	0.5167458020041522
133.0	372.35480833954716	face	0.0		147.0	attractiveness	030	2.0	2		1271.7190570770545	1.23343878004016
133.0	373.5882471195873	rating	1.0		107.0	attractiveness	030	2.0	2		1272.9524958570946	0.9000896498218935
133.0	374.4883367694092	fix	2.0		60.0	attractiveness	030	2.0	2	3.17	1273.8525855069165	0.5167445945990039
134.0	375.0050813640082	face	0.0		147.0	attractiveness	087	2.0	2		1274.3693301015155	1.2334396855912928
134.0	376.2385210495995	rating	1.0		42.0	attractiveness	087	2.0	2		1275.6027697871068	0.3583680713818467
134.0	376.59688912098136	fix	2.0		60.0	attractiveness	087	2.0	2	0.0	1275.9611378584887	0.5167415760843141
135.0	377.1136306970657	face	0.0		147.0	attractiveness	130	2.0	2		1276.477879434573	1.2334417985512118
135.0	378.3470724956169	rating	1.0		88.0	attractiveness	130	2.0	2		1277.7113212331242	0.7417405950691318
135.0	379.088813090686	fix	2.0		60.0	attractiveness	130	2.0	2	-0.3799999999999999	1278.4530618281933	0.5167421797887073
136.0	379.6055552704747	face	0.0		147.0	attractiveness	062	2.0	2		1278.969804007982	1.2334378744853893
136.0	380.8389931449601	rating	1.0		85.0	attractiveness	062	2.0	2		1280.2032418824674	0.7167409723842866
136.0	381.5557341173444	fix	2.0		60.0	attractiveness	062	2.0	2	-3.42	1280.9199828548517	0.5167424816390849
137.0	382.0724765989835	face	0.0		147.0	attractiveness	024	2.0	2		1281.4367253364908	1.233438780036522
137.0	383.30591537902	rating	1.0		110.0	attractiveness	024	2.0	2		1282.6701641165273	0.9667664788139518
137.0	384.27268185783396	fix	2.0		60.0	attractiveness	024	2.0	2	3.4299999999999997	1283.6369305953413	0.5167418779383297
138.0	384.7894237357723	face	0.0		147.0	attractiveness	042	2.0	2		1284.1536724732796	1.23343878004016
138.0	386.02286251581245	rating	1.0		128.0	attractiveness	042	2.0	2		1285.3871112533197	1.0751105530216591
138.0	387.0979730688341	fix	2.0		60.0	attractiveness	042	2.0	2	-0.029999999999999805	1286.4622218063414	0.5167412742339366
139.0	387.61471434306804	face	0.0		147.0	attractiveness	172	2.0	2		1286.9789630805753	1.233440892996441
139.0	388.8481552360645	rating	1.0		121.0	attractiveness	172	2.0	2		1288.2124039735718	1.0168097944697365
139.0	389.8649650305342	fix	2.0		60.0	attractiveness	172	2.0	2	-2.9299999999999997	1289.2292137680415	0.5167180316893791
140.0	390.3816830622236	face	0.0		147.0	attractiveness	034	2.0	2		1289.745931799731	1.2334239893243648
140.0	391.61510705154797	rating	1.0		36.0	attractiveness	034	2.0	2		1290.9793557890553	0.3083624871360371
140.0	391.923469538684	fix	2.0		60.0	attractiveness	034	2.0	2	0.0	1291.2877182761913	0.5167418779346917
141.0	392.4402114166187	face	0.0		147.0	attractiveness	121	2.0	2		1291.804460154126	1.2334421004015894
141.0	393.6736535170203	rating	1.0		110.0	attractiveness	121	2.0	2		1293.0379022545276	0.9250934984265768
141.0	394.59874701544686	fix	2.0		60.0	attractiveness	121	2.0	2	0.25	1293.9629957529542	0.516743085343478
142.0	395.11549010079034	face	0.0		147.0	attractiveness	066	2.0	2		1294.4797388382976	1.233438780036522
142.0	396.34892888082686	rating	1.0		59.0	attractiveness	066	2.0	2		1295.7131776183342	0.5000531258228875
142.0	396.84898200664975	fix	2.0		60.0	attractiveness	066	2.0	2	1.2800000000000002	1296.213230744157	0.5167364446133433
143.0	397.3657184512631	face	0.0		147.0	attractiveness	061	2.0	2		1296.7299671887704	1.2334448170622636
143.0	398.59916326832536	rating	1.0		49.0	attractiveness	061	2.0	2		1297.9634120058327	0.41670716504449956
143.0	399.01587043336986	fix	2.0		60.0	attractiveness	061	2.0	2	-0.9700000000000002	1298.3801191708772	0.516740972383559
144.0	399.5326114057534	face	0.0		147.0	attractiveness	136	2.0	2		1298.8968601432607	1.2334369689306186
144.0	400.76604837468403	rating	1.0		120.0	attractiveness	136	2.0	2		1300.1302971121913	1.0084394592013268
144.0	401.77448783388536	fix	2.0		60.0	attractiveness	136	2.0	2	-2.98	1301.1387365713927	0.5167427834931004
145.0	402.29123061737846	face	0.0		147.0	attractiveness	006	2.0	2		1301.6554793548858	1.2334390818868997
145.0	403.52466969926536	rating	1.0		106.0	attractiveness	006	2.0	2		1302.8889184367727	0.8917558385583106
145.0	404.41642553782367	fix	2.0		60.0	attractiveness	006	2.0	2	-3.37	1303.780674275331	0.5167415760879521
146.0	404.9331671139116	face	0.0		147.0	attractiveness	141	2.0	2		1304.297415851419	1.2334421004015894
146.0	406.1666092143132	rating	1.0		40.0	attractiveness	141	2.0	2		1305.5308579518205	0.34169984515028773
146.0	406.5083090594635	fix	2.0		60.0	attractiveness	141	2.0	2	-0.3999999999999999	1305.8725577969708	0.516740972383559
147.0	407.02505003184706	face	0.0		147.0	attractiveness	018	2.0	2		1306.3892987693544	1.23346594665054
147.0	408.2585159784976	rating	1.0		71.0	attractiveness	018	2.0	2		1307.622764716005	0.6000350147442077
147.0	408.8585509932418	fix	2.0		60.0	attractiveness	018	2.0	2	0.15000000000000036	1308.222799730749	0.5167436890478712
148.0	409.3752946822897	face	0.0		147.0	attractiveness	009	2.0	2		1308.739543419797	1.23346594665054
148.0	410.6087606289402	rating	1.0		121.0	attractiveness	009	2.0	2		1309.9730093664475	1.016740972383559
148.0	411.6255016013238	fix	2.0		60.0	attractiveness	009	2.0	2	3.63	1310.989750338831	0.5167448964493815
149.0	412.14224649777316	face	0.0		147.0	attractiveness	091	2.0	2		1311.5064952352805	1.233438176335767
149.0	413.3756846741089	rating	1.0		78.0	attractiveness	091	2.0	2		1312.7399334116162	0.6584012750172406
149.0	414.03408594912617	fix	2.0		60.0	attractiveness	091	2.0	2	1.0099999999999998	1313.3983346866335	0.5167418779383297
150.0	414.5508278270645	face	0.0		147.0	attractiveness	117	2.0	2		1313.9150765645718	1.2334421004015894
150.0	415.7842699274661	rating	1.0		97.0	attractiveness	117	2.0	2		1315.1485186649734	0.8167488205181144
150.0	416.6010187479842	fix	2.0		60.0	attractiveness	117	2.0	2	3.2800000000000002	1315.9652674854915	0.5167442927449883
151.0	417.1177630407292	face	0.0		147.0	attractiveness	070	2.0	2		1316.4820117782365	1.2334405911460635
151.0	418.35120363187525	rating	1.0		95.0	attractiveness	070	2.0	2		1317.7154523693825	0.8000790850273916
151.0	419.15128271690264	fix	2.0		60.0	attractiveness	070	2.0	2	-3.1	1318.51553145441	0.5167412742375745
152.0	419.6680239911402	face	0.0		147.0	attractiveness	137	2.0	2		1319.0322727286475	1.2334414966971963
152.0	420.9014654878374	rating	1.0		87.0	attractiveness	137	2.0	2		1320.2657142253447	0.7334040671448747
152.0	421.6348695549823	fix	2.0		60.0	attractiveness	137	2.0	2	0.0	1320.9991182924896	0.5167427834894625
153.0	422.15161233847175	face	0.0		147.0	attractiveness	102	2.0	2		1321.515861075979	1.233438176335767
153.0	423.3850505148075	rating	1.0		67.0	attractiveness	102	2.0	2		1322.7492992523148	0.5667236159388267
153.0	423.95177413074634	fix	2.0		60.0	attractiveness	102	2.0	2	-0.6800000000000002	1323.3160228682536	0.5167433871938556
154.0	424.4685175179402	face	0.0		147.0	attractiveness	092	2.0	2		1323.8327662554475	1.233440892996441
154.0	425.70195841093664	rating	1.0		40.0	attractiveness	092	2.0	2		1325.066207148444	0.3416986377451394
154.0	426.0436570486818	fix	2.0		60.0	attractiveness	092	2.0	2	-1.5099999999999998	1325.407905786189	0.5167436890442332
155.0	426.560400737726	face	0.0		147.0	attractiveness	144	2.0	2		1325.9246494752333	1.2334396855912928
155.0	427.7938404233173	rating	1.0		42.0	attractiveness	144	2.0	2		1327.1580891608246	0.35836837323222426
155.0	428.15220879654953	fix	2.0		60.0	attractiveness	144	2.0	2	2.3499999999999996	1327.5164575340568	0.5168010407833208
156.0	428.66900983733285	face	0.0		147.0	attractiveness	044	2.0	2		1328.0332585748401	1.2333823338558432
156.0	429.9023921711887	rating	1.0		52.0	attractiveness	044	2.0	2		1329.266640908696	0.44171010809077416
156.0	430.34410227927947	fix	2.0		60.0	attractiveness	044	2.0	2	0.9199999999999999	1329.7083510167868	0.5167433871938556
157.0	430.8608456664733	face	0.0		147.0	attractiveness	099	2.0	2		1330.2250944039806	1.2334384781861445
157.0	432.09428414465947	rating	1.0		40.0	attractiveness	099	2.0	2		1331.4585328821668	0.341698939599155
157.0	432.4359830842586	fix	2.0		60.0	attractiveness	099	2.0	2	-2.02	1331.800231821766	0.5167442927449883
158.0	432.9527273770036	face	0.0		147.0	attractiveness	005	2.0	2		1332.316976114511	1.2334396855912928
158.0	434.1861670625949	rating	1.0		182.0	attractiveness	005	2.0	2		1333.5504158001022	1.5251547742300318
158.0	435.71132183682494	fix	2.0		60.0	attractiveness	005	2.0	2	-3.97	1335.0755705743322	0.5167436890478712
159.0	436.2280655258728	face	0.0		147.0	attractiveness	036	2.0	2		1335.59231426338	1.2334390818868997
159.0	437.4615046077597	rating	1.0		93.0	attractiveness	036	2.0	2		1336.825753345267	0.7834126699053741
159.0	438.2449172776651	fix	2.0		60.0	attractiveness	036	2.0	2	0.5300000000000002	1337.6091660151724	0.5000525221184944
160.0	438.7449697997836	cue	0.0		480.0						1338.1092185372909	4.000435873211245
160.0	442.7454056729948	fix	1.0		120.0						1342.1096544105021	1.016772364913777
160.0	443.7621780379086	face	0.0		147.0	dominance	018	2.0	2		1343.126426775416	1.2334357615254703
160.0	444.99561379943407	rating	1.0		135.0	dominance	018	2.0	2		1344.3598625369414	1.1334487411295413
160.0	446.1290625405636	fix	2.0		60.0	dominance	018	2.0	2	-0.20000000000000018	1345.493311278071	0.5167442927449883
161.0	446.6458068333086	face	0.0		147.0	dominance	121	2.0	2		1346.010055570816	1.2334828503226163
161.0	447.8792896836312	rating	1.0		56.0	dominance	121	2.0	2		1347.2435384211385	0.4750055087861256
161.0	448.35429519241734	fix	2.0		60.0	dominance	121	2.0	2	2.16	1347.7185439299246	0.5167385575732624
162.0	448.8710337499906	face	0.0		147.0	dominance	172	2.0	2		1348.235282487498	1.233440289292048
162.0	450.10447403928265	rating	1.0		84.0	dominance	172	2.0	2		1349.46872277679	0.708406255565933
162.0	450.8128802948486	fix	2.0		60.0	dominance	172	2.0	2	2.4400000000000004	1350.1771290323559	0.5167406705331814
163.0	451.32962096538176	face	0.0		147.0	dominance	100	2.0	2		1350.693869702889	1.2334439115111309
163.0	452.5630648768929	rating	1.0		156.0	dominance	100	2.0	2		1351.9273136144002	1.3084627017487946
163.0	453.8715275786417	fix	2.0		60.0	dominance	100	2.0	2	0.0	1353.235776316149	0.516740972383559
164.0	454.38826855102525	face	0.0		147.0	dominance	038	2.0	2		1353.7525172885325	1.2334430059563601
164.0	455.6217115569816	rating	1.0		177.0	dominance	038	2.0	2		1354.985960294489	1.4834863216092344
164.0	457.10519787859084	fix	2.0		60.0	dominance	038	2.0	2	-3.0	1356.4694466160981	0.5167412742339366
165.0	457.6219391528248	face	0.0		147.0	dominance	082	2.0	2		1356.986187890332	1.2334396855912928
165.0	458.8553788384161	rating	1.0		54.0	dominance	082	2.0	2		1358.2196275759234	0.45837773062157794
165.0	459.31375656903765	fix	2.0		60.0	dominance	082	2.0	2	-0.33000000000000007	1358.678005306545	0.516740972387197
166.0	459.83049754142485	face	0.0		147.0	dominance	027	2.0	2		1359.1947462789321	1.233442402251967
166.0	461.0639399436768	rating	1.0		48.0	dominance	027	2.0	2		1360.428188681184	0.4083757685875753
166.0	461.4723157122644	fix	2.0		60.0	dominance	027	2.0	2	0.7199999999999998	1360.8365644497717	0.5167427834931004
167.0	461.9890584957575	face	0.0		147.0	dominance	011	2.0	2		1361.3533072332648	1.2334357615254703
167.0	463.22249425728296	rating	1.0		56.0	dominance	011	2.0	2		1362.5867429947903	0.47504897536418866
167.0	463.69754323264715	fix	2.0		60.0	dominance	011	2.0	2	0.7599999999999998	1363.0617919701544	0.5167418779383297
168.0	464.2142851105855	face	0.0		147.0	dominance	034	2.0	2		1363.5785338480928	1.2334399874416704
168.0	465.44772509802715	rating	1.0		44.0	dominance	034	2.0	2		1364.8119738355344	0.37503961797847296
168.0	465.8227647160056	fix	2.0		60.0	dominance	034	2.0	2	0.33000000000000007	1365.187013453513	0.5167406705331814
169.0	466.3395053865388	face	0.0		147.0	dominance	044	2.0	2		1365.703754124046	1.2334396855912928
169.0	467.5729450721301	rating	1.0		47.0	dominance	044	2.0	2		1366.9371938096374	0.4000404480684665
169.0	467.97298552019856	fix	2.0		60.0	dominance	044	2.0	2	0.0	1367.3372342577059	0.5167427834894625
170.0	468.489728303688	face	0.0		147.0	dominance	141	2.0	2		1367.8539770411953	1.2334378744853893
170.0	469.7231661781734	rating	1.0		112.0	dominance	141	2.0	2		1369.0874149156807	0.9417620265085134
170.0	470.6649282046819	fix	2.0		60.0	dominance	141	2.0	2	-0.48	1370.0291769421892	0.5167442927449883
171.0	471.1816724974269	face	0.0		147.0	dominance	066	2.0	2		1370.5459212349342	1.2334384781897825
171.0	472.4151109756167	rating	1.0		49.0	dominance	066	2.0	2		1371.779359713124	0.4167080705956323
171.0	472.83181904621233	fix	2.0		60.0	dominance	066	2.0	2	1.58	1372.1960677837196	0.5167940982028085
172.0	473.34861314441514	face	0.0		147.0	dominance	012	2.0	2		1372.7128618819224	1.2333877671771916
172.0	474.58200091159233	rating	1.0		83.0	dominance	012	2.0	2		1373.9462496490996	0.7000721424483345
172.0	475.28207305404067	fix	2.0		60.0	dominance	012	2.0	2	1.8399999999999999	1374.646321791548	0.5167418779383297
173.0	475.798814931979	face	0.0		147.0	dominance	042	2.0	2		1375.1630636694863	1.2334390818905376
173.0	477.03225401386953	rating	1.0		44.0	dominance	042	2.0	2		1376.3965027513768	0.375033882803109
173.0	477.40728789667264	fix	2.0		60.0	dominance	042	2.0	2	0.0	1376.77153663418	0.5167448964493815
174.0	477.924032793122	face	0.0		147.0	dominance	062	2.0	2		1377.2882815306293	1.2334421004015894
174.0	479.1574748935236	rating	1.0		43.0	dominance	062	2.0	2		1378.521723631031	0.36670097709065885
174.0	479.5241758706143	fix	2.0		60.0	dominance	062	2.0	2	0.9900000000000002	1378.8884246081216	0.5167412742375745
175.0	480.04091714485185	face	0.0		147.0	dominance	005	2.0	2		1379.4051658823591	1.2334421004015894
175.0	481.27435924525344	rating	1.0		41.0	dominance	005	2.0	2		1380.6386079827607	0.3500342601182638
175.0	481.6243935053717	fix	2.0		60.0	dominance	005	2.0	2	-1.06	1380.988642242879	0.516740972383559
176.0	482.14113447775526	face	0.0		147.0	dominance	092	2.0	2		1381.5053832152626	1.2334405911424255
176.0	483.3745750688977	rating	1.0		65.0	dominance	092	2.0	2		1382.738823806405	0.5500943285187532
176.0	483.92466939741644	fix	2.0		60.0	dominance	092	2.0	2	2.24	1383.2889181349237	0.5167041465283546
177.0	484.4413735439448	face	0.0		147.0	dominance	039	2.0	2		1383.805622281452	1.2334378744853893
177.0	485.6748114184302	rating	1.0		39.0	dominance	039	2.0	2		1385.0390601559375	0.33336573203632724
177.0	486.0081771504665	fix	2.0		60.0	dominance	039	2.0	2	-2.1	1385.3724258879738	0.5167451982997591
178.0	486.52492234876627	face	0.0		147.0	dominance	061	2.0	2		1385.8891710862736	1.2334393837409152
178.0	487.7583617325072	rating	1.0		50.0	dominance	061	2.0	2		1387.1226104700145	0.42504097630808246
178.0	488.18340270881527	fix	2.0		60.0	dominance	061	2.0	2	-1.7599999999999998	1387.5476514463226	0.5167421797887073
179.0	488.700144888604	face	0.0		147.0	dominance	087	2.0	2		1388.0643936261113	1.233442402251967
179.0	489.93358729085594	rating	1.0		59.0	dominance	087	2.0	2		1389.2978360283632	0.5000485980526719
179.0	490.4336358889086	fix	2.0		60.0	dominance	087	2.0	2	-3.38	1389.797884626416	0.5167717612093838
180.0	490.950407650118	face	0.0		147.0	dominance	043	2.0	2		1390.3146563876253	1.2334104060209938
180.0	492.183818056139	rating	1.0		79.0	dominance	043	2.0	2		1391.5480667936463	0.6667341807296907
180.0	492.8505522368687	fix	2.0		60.0	dominance	043	2.0	2	-2.17	1392.214800974376	0.516743085343478
181.0	493.36729532221216	face	0.0		147.0	dominance	009	2.0	2		1392.7315440597195	1.2334384781861445
181.0	494.6007338003983	rating	1.0		58.0	dominance	009	2.0	2		1393.9649825379056	0.4917129756795475
181.0	495.09244677607785	fix	2.0		60.0	dominance	009	2.0	2	-1.98	1394.4566955135851	0.5167448964530195
182.0	495.60919167253087	face	0.0		147.0	dominance	136	2.0	2		1394.9734404100382	1.2334399874416704
182.0	496.84263165997254	rating	1.0		155.0	dominance	136	2.0	2		1396.2068803974798	1.3001331164014118
182.0	498.14276477637395	fix	2.0		60.0	dominance	136	2.0	2	0.009999999999999787	1397.5070135138812	0.5167421797887073
183.0	498.65950695616266	face	0.0		147.0	dominance	117	2.0	2		1398.02375569367	1.233440892996441
183.0	499.8929478491591	rating	1.0		131.0	dominance	117	2.0	2		1399.2571965866664	1.1001098738561268
183.0	500.9930577230152	fix	2.0		60.0	dominance	117	2.0	2	2.59	1400.3573064605225	0.5167421797887073
184.0	501.50979990280393	face	0.0		147.0	dominance	033	2.0	2		1400.8740486403112	1.233440892996441
184.0	502.7432407958004	rating	1.0		101.0	dominance	033	2.0	2		1402.1074895333077	0.8500843674264615
184.0	503.59332516322684	fix	2.0		60.0	dominance	033	2.0	2	3.5599999999999996	1402.9575739007341	0.5167448964493815
185.0	504.1100700596762	face	0.0		147.0	dominance	102	2.0	2		1403.4743187971835	1.233436667080241
185.0	505.34350672675646	rating	1.0		94.0	dominance	102	2.0	2		1404.7077554642638	0.7917491978296312
185.0	506.1352559245861	fix	2.0		60.0	dominance	102	2.0	2	-3.3	1405.4995046620934	0.5167418779383297
186.0	506.6519978025244	face	0.0		147.0	dominance	024	2.0	2		1406.0162465400317	1.233440289295686
186.0	507.8854380918201	rating	1.0		50.0	dominance	024	2.0	2		1407.2496868293274	0.4250421837095928
186.0	508.3104802755297	fix	2.0		60.0	dominance	024	2.0	2	1.5999999999999996	1407.674729013037	0.5167412742375745
187.0	508.8272215497673	face	0.0		147.0	dominance	091	2.0	2		1408.1914702872746	1.2334411948468187
187.0	510.0606627446141	rating	1.0		96.0	dominance	091	2.0	2		1409.4249114821214	0.808415311104909
187.0	510.869078055719	fix	2.0		60.0	dominance	091	2.0	2	-3.07	1410.2333267932263	0.5167403686791658
188.0	511.38581842439817	face	0.0		147.0	dominance	130	2.0	2		1410.7500671619055	1.2334436096571153
188.0	512.6192620340553	rating	1.0		42.0	dominance	130	2.0	2		1411.9835107715626	0.3583674676810915
188.0	512.9776295017364	fix	2.0		60.0	dominance	130	2.0	2	-1.3599999999999999	1412.3418782392437	0.5167433871938556
189.0	513.4943728889302	face	0.0		147.0	dominance	030	2.0	2		1412.8586216264375	1.2334384781861445
189.0	514.7278113671164	rating	1.0		143.0	dominance	030	2.0	2		1414.0920601046237	1.2001222497565323
189.0	515.9279336168729	fix	2.0		60.0	dominance	030	2.0	2	-2.42	1415.2921823543802	0.5167847408156376
190.0	516.4447183576885	face	0.0		147.0	dominance	036	2.0	2		1415.8089670951958	1.2333968227139849
190.0	517.6781151804025	rating	1.0		54.0	dominance	036	2.0	2		1417.0423639179098	0.4583795417311194
190.0	518.1364947221336	fix	2.0		60.0	dominance	036	2.0	2	-0.18999999999999995	1417.500743459641	0.5167418779346917
191.0	518.6532366000683	face	0.0		147.0	dominance	126	2.0	2		1418.0174853375756	1.2334396855912928
191.0	519.8866762856596	rating	1.0		40.0	dominance	126	2.0	2		1419.250925023167	0.3416998451539257
191.0	520.2283761308136	fix	2.0		60.0	dominance	126	2.0	2	1.42	1419.5926248683209	0.5167433871902176
192.0	520.7451195180038	face	0.0		147.0	dominance	101	2.0	2		1420.109368255511	1.2334393837409152
192.0	521.9785589017447	rating	1.0		126.0	dominance	101	2.0	2		1421.342807639252	1.0584408175345743
192.0	523.0369997192793	fix	2.0		60.0	dominance	101	2.0	2	2.4699999999999998	1422.4012484567866	0.5167427834931004
193.0	523.5537425027724	face	0.0		147.0	dominance	070	2.0	2		1422.9179912402797	1.233438780036522
193.0	524.7871812828089	rating	1.0		62.0	dominance	070	2.0	2		1424.1514300203162	0.5250527485077328
193.0	525.3122340313166	fix	2.0		60.0	dominance	070	2.0	2	2.3	1424.676482768824	0.5167455001501366
194.0	525.8289795314668	face	0.0		147.0	dominance	099	2.0	2		1425.193228268974	1.23343878004016
194.0	527.0624183115069	rating	1.0		36.0	dominance	099	2.0	2		1426.4266670490142	0.30836188343164395
194.0	527.3707801949386	fix	2.0		60.0	dominance	099	2.0	2	0.0	1426.7350289324459	0.5167406705295434
195.0	527.8875208654681	face	0.0		147.0	dominance	006	2.0	2		1427.2517696029754	1.2334417985512118
195.0	529.1209626640193	rating	1.0		57.0	dominance	006	2.0	2		1428.4852114015266	0.48338006997073535
195.0	529.60434273399	fix	2.0		60.0	dominance	006	2.0	2	0.5800000000000001	1428.9685914714973	0.5167424816390849
196.0	530.1210852156291	face	0.0		147.0	dominance	144	2.0	2		1429.4853339531364	1.2334411948468187
196.0	531.354526410476	rating	1.0		48.0	dominance	144	2.0	2		1430.7187751479833	0.40837365563129424
196.0	531.7629000661072	fix	2.0		60.0	dominance	144	2.0	2	-2.33	1431.1271488036145	0.516740972383559
197.0	532.2796410384908	face	0.0		147.0	dominance	064	2.0	2		1431.643889775998	1.2334427041023446
197.0	533.5130837425932	rating	1.0		51.0	dominance	064	2.0	2		1432.8773324801004	0.4333753912760585
197.0	533.9464591338692	fix	2.0		60.0	dominance	064	2.0	2	0.009999999999999787	1433.3107078713765	0.5167424816390849
198.0	534.4632016155083	face	0.0		147.0	dominance	124	2.0	2		1433.8274503530156	1.2334384781861445
198.0	535.6966400936944	rating	1.0		37.0	dominance	124	2.0	2		1435.0608888312017	0.3167225594588672
198.0	536.0133626531533	fix	2.0		60.0	dominance	124	2.0	2	-1.92	1435.3776113906606	0.516717427984986
199.0	536.5300800811383	face	0.0		147.0	dominance	137	2.0	2		1435.8943288186456	1.233440289295686
199.0	537.763520370434	rating	1.0		38.0	dominance	137	2.0	2		1437.1277691079413	0.32503312817425467
199.0	538.0885534986082	fix	2.0		60.0	dominance	137	2.0	2	0.0	1437.4528022361155	0.5000510128629685
200.0	538.5886045114712	cue	0.0		480.0						1437.9528532489785	4.000410517703131
200.0	542.5890150291743	fix	1.0		120.0						1441.9532637666816	1.01679590931235
200.0	543.6058109384867	face	0.0		147.0	trustworthiness	030	2.0	2		1442.970059675994	1.2334393837409152
200.0	544.8392503222276	rating	1.0		145.0	trustworthiness	030	2.0	2		1444.203499059735	1.2167895704369585
200.0	546.0560398926646	fix	2.0		60.0	trustworthiness	030	2.0	2	3.6399999999999997	1445.4202886301719	0.5167439908946108
201.0	546.5727838835592	face	0.0		147.0	trustworthiness	087	2.0	2		1445.9370326210665	1.2334390818905376
201.0	547.8062229654497	rating	1.0		52.0	trustworthiness	087	2.0	2		1447.170471702957	0.4417098062403966
201.0	548.2479327716901	fix	2.0		60.0	trustworthiness	087	2.0	2	1.1900000000000004	1447.6121815091974	0.5167464057049074
202.0	548.764679177395	face	0.0		147.0	trustworthiness	066	2.0	2		1448.1289279149023	1.2334360633794859
202.0	549.9981152407745	rating	1.0		42.0	trustworthiness	066	2.0	2		1449.3623639782818	0.358369278786995
202.0	550.3564845195615	fix	2.0		60.0	trustworthiness	066	2.0	2	0.0	1449.7207332570688	0.5167403686791658
203.0	550.8732248882407	face	0.0		147.0	trustworthiness	011	2.0	2		1450.237473625748	1.233478020702023
203.0	552.1067029089427	rating	1.0		54.0	trustworthiness	011	2.0	2		1451.47095164645	0.458342715875915
203.0	552.5650456248186	fix	2.0		60.0	trustworthiness	011	2.0	2	1.4400000000000004	1451.929294362326	0.5167418779383297
204.0	553.0817875027569	face	0.0		147.0	trustworthiness	136	2.0	2		1452.4460362402642	1.233438780036522
204.0	554.3152262827934	rating	1.0		52.0	trustworthiness	136	2.0	2		1453.6794750203007	0.44171614512015367
204.0	554.7569424279136	fix	2.0		60.0	trustworthiness	136	2.0	2	-2.3	1454.121191165421	0.5167382557192468
205.0	555.2736806836328	face	0.0		147.0	trustworthiness	009	2.0	2		1454.6379294211401	1.2334405911460635
205.0	556.5071212747789	rating	1.0		60.0	trustworthiness	009	2.0	2		1455.8713700122862	0.5083827111666324
205.0	557.0155039859455	fix	2.0		60.0	trustworthiness	009	2.0	2	3.49	1456.3797527234528	0.5167445945990039
206.0	557.5322485805445	face	0.0		147.0	trustworthiness	062	2.0	2		1456.8964973180518	1.233440289295686
206.0	558.7656888698402	rating	1.0		103.0	trustworthiness	062	2.0	2		1458.1299376073475	0.8667510843988566
206.0	559.6324399542391	fix	2.0		60.0	trustworthiness	062	2.0	2	-3.78	1458.9966886917464	0.5167433871938556
207.0	560.149183341433	face	0.0		147.0	trustworthiness	092	2.0	2		1459.5134320789402	1.233440289295686
207.0	561.3826236307286	rating	1.0		72.0	trustworthiness	092	2.0	2		1460.746872368236	0.608392068555986
207.0	561.9910156992846	fix	2.0		60.0	trustworthiness	092	2.0	2	-2.1799999999999997	1461.355264436792	0.516745198303397
208.0	562.507760897588	face	0.0		147.0	trustworthiness	044	2.0	2		1461.8720096350953	1.233438176332129
208.0	563.7411990739201	rating	1.0		66.0	trustworthiness	044	2.0	2		1463.1054478114274	0.5583910120803921
208.0	564.2995900860005	fix	2.0		60.0	trustworthiness	044	2.0	2	0.20999999999999996	1463.6638388235078	0.5167403686791658
209.0	564.8163304546797	face	0.0		147.0	trustworthiness	101	2.0	2		1464.180579192187	1.2334417985512118
209.0	566.0497722532309	rating	1.0		74.0	trustworthiness	101	2.0	2		1465.4140209907382	0.6250618040430709
209.0	566.674834057274	fix	2.0		60.0	trustworthiness	101	2.0	2	1.4699999999999998	1466.0390827947813	0.5167427834931004
210.0	567.1915768407671	face	0.0		147.0	trustworthiness	064	2.0	2		1466.5558255782744	1.2334399874416704
210.0	568.4250168282088	rating	1.0		57.0	trustworthiness	064	2.0	2		1467.789265565716	0.4833836921825423
210.0	568.9084005203913	fix	2.0		60.0	trustworthiness	064	2.0	2	2.37	1468.2726492578986	0.5167394631280331
211.0	569.4251399835193	face	0.0		147.0	trustworthiness	121	2.0	2		1468.7893887210266	1.2334414967008343
211.0	570.6585814802202	rating	1.0		61.0	trustworthiness	121	2.0	2		1470.0228302177275	0.5167147113243118
211.0	571.1752961915445	fix	2.0		61.0	trustworthiness	121	2.0	2	0.20000000000000018	1470.5395449290518	0.525118250228843
212.0	571.7004144417733	face	0.0		146.0	trustworthiness	130	2.0	2		1471.0646631792806	1.225068746622128
212.0	572.9254831883954	rating	1.0		46.0	trustworthiness	130	2.0	2		1472.2897319259027	0.39170361829019384
212.0	573.3171868066856	fix	2.0		60.0	trustworthiness	130	2.0	2	2.1799999999999997	1472.681435544193	0.5167421797887073
213.0	573.8339289864743	face	0.0		147.0	trustworthiness	061	2.0	2		1473.1981777239816	1.23343878004016
213.0	575.0673677665145	rating	1.0		48.0	trustworthiness	061	2.0	2		1474.4316165040218	0.40837637229196844
213.0	575.4757441388065	fix	2.0		60.0	trustworthiness	061	2.0	2	-1.2000000000000002	1474.8399928763138	0.5167669315887906
214.0	575.9925110703953	face	0.0		147.0	trustworthiness	124	2.0	2		1475.3567598079026	1.2334137263860612
214.0	577.2259247967813	rating	1.0		88.0	trustworthiness	124	2.0	2		1476.5901735342886	0.7417408969195094
214.0	577.9676656937008	fix	2.0		60.0	trustworthiness	124	2.0	2	3.3099999999999996	1477.3319144312081	0.5167406705331814
215.0	578.484406364234	face	0.0		147.0	trustworthiness	024	2.0	2		1477.8486551017413	1.233442402251967
215.0	579.717848766486	rating	1.0		167.0	trustworthiness	024	2.0	2		1479.0820975039933	1.4001424737907655
215.0	581.1179912402768	fix	2.0		60.0	trustworthiness	024	2.0	2	3.7	1480.482239977784	0.5167415760879521
216.0	581.6347328163647	face	0.0		147.0	trustworthiness	027	2.0	2		1480.998981553872	1.2334411948468187
216.0	582.8681740112115	rating	1.0		60.0	trustworthiness	027	2.0	2		1482.2324227487188	0.5083827111666324
216.0	583.3765567223782	fix	2.0		60.0	trustworthiness	027	2.0	2	1.5199999999999996	1482.7408054598855	0.5167455001537746
217.0	583.8933022225319	face	0.0		147.0	trustworthiness	099	2.0	2		1483.2575509600392	1.2334375726350117
217.0	585.1267397951669	rating	1.0		51.0	trustworthiness	099	2.0	2		1484.4909885326742	0.43337659867756884
217.0	585.5601163938445	fix	2.0		60.0	trustworthiness	099	2.0	2	1.0300000000000002	1484.9243651313518	0.5167433871938556
218.0	586.0768597810384	face	0.0		147.0	trustworthiness	126	2.0	2		1485.4411085185457	1.2334396855912928
218.0	587.3102994666297	rating	1.0		47.0	trustworthiness	126	2.0	2		1486.674548204137	0.4000374295574147
218.0	587.7103368961871	fix	2.0		60.0	trustworthiness	126	2.0	2	-2.65	1487.0745856336944	0.5167461038545298
219.0	588.2270830000416	face	0.0		147.0	trustworthiness	039	2.0	2		1487.591331737549	1.2334354596750927
219.0	589.4605184597167	rating	1.0		66.0	trustworthiness	039	2.0	2		1488.824767197224	0.5583916157775093
219.0	590.0189100754942	fix	2.0		60.0	trustworthiness	039	2.0	2	1.46	1489.3831588130015	0.5167400668287883
220.0	590.535650142323	face	0.0		147.0	trustworthiness	042	2.0	2		1489.8998988798303	1.233440892996441
220.0	591.7690910353194	rating	1.0		58.0	trustworthiness	042	2.0	2		1491.1333397728267	0.49171508863946656
220.0	592.2608061239589	fix	2.0		60.0	trustworthiness	042	2.0	2	0.7199999999999998	1491.6250548614662	0.516743085343478
221.0	592.7775492093024	face	0.0		147.0	trustworthiness	091	2.0	2		1492.1417979468097	1.2334427041023446
221.0	594.0109919134047	rating	1.0		76.0	trustworthiness	091	2.0	2		1493.375240650912	0.6417288228731195
221.0	594.6527207362778	fix	2.0		60.0	trustworthiness	091	2.0	2	1.8899999999999997	1494.0169694737851	0.5167470094093005
222.0	595.1694677456871	face	0.0		147.0	trustworthiness	100	2.0	2		1494.5337164831944	1.2334765114428592
222.0	596.40294425713	rating	1.0		159.0	trustworthiness	100	2.0	2		1495.7671929946373	1.3334267059872218
222.0	597.7363709631172	fix	2.0		60.0	trustworthiness	100	2.0	2	-0.33000000000000007	1497.1006197006245	0.5167433871938556
223.0	598.2531143503111	face	0.0		147.0	trustworthiness	117	2.0	2		1497.6173630878184	1.23343878004016
223.0	599.4865531303512	rating	1.0		65.0	trustworthiness	117	2.0	2		1498.8508018678585	0.5500568989591557
223.0	600.0366100293104	fix	2.0		60.0	trustworthiness	117	2.0	2	3.4299999999999997	1499.4008587668177	0.516740972383559
224.0	600.553351001694	face	0.0		147.0	trustworthiness	034	2.0	2		1499.9175997392013	1.2334414967008343
224.0	601.7867924983948	rating	1.0		74.0	trustworthiness	034	2.0	2		1501.151041235902	0.6250639170029899
224.0	602.4118564153978	fix	2.0		60.0	trustworthiness	034	2.0	2	2.66	1501.776105152905	0.5167400668287883
225.0	602.9285964822266	face	0.0		147.0	trustworthiness	102	2.0	2		1502.2928452197339	1.2334375726350117
225.0	604.1620340548616	rating	1.0		159.0	trustworthiness	102	2.0	2		1503.5262827923689	1.333472285525204
225.0	605.4955063403868	fix	2.0		60.0	trustworthiness	102	2.0	2	1.8200000000000003	1504.859755077894	0.5167406705331814
226.0	606.01224701092	face	0.0		147.0	trustworthiness	141	2.0	2		1505.3764957484273	1.2334414966971963
226.0	607.2456885076172	rating	1.0		51.0	trustworthiness	141	2.0	2		1506.6099372451245	0.43337750423597754
226.0	607.6790660118531	fix	2.0		60.0	trustworthiness	141	2.0	2	1.62	1507.0433147493604	0.5167385575732624
227.0	608.1958045694264	face	0.0		147.0	trustworthiness	036	2.0	2		1507.5600533069337	1.2334427041023446
227.0	609.4292472735287	rating	1.0		45.0	trustworthiness	036	2.0	2		1508.793496011036	0.3833692033258558
227.0	609.8126164768546	fix	2.0		60.0	trustworthiness	036	2.0	2	0.33000000000000007	1509.176865214362	0.5167436890442332
228.0	610.3293601658988	face	0.0		147.0	trustworthiness	070	2.0	2		1509.6936089034061	1.233440892996441
228.0	611.5628010588953	rating	1.0		66.0	trustworthiness	070	2.0	2		1510.9270497964026	0.5583885972664575
228.0	612.1211896561617	fix	2.0		60.0	trustworthiness	070	2.0	2	-2.99	1511.485438393669	0.516740972383559
229.0	612.6379306285453	face	0.0		147.0	trustworthiness	006	2.0	2		1512.0021793660526	1.2334414967008343
229.0	613.8713721252461	rating	1.0		60.0	trustworthiness	006	2.0	2		1513.2356208627534	0.5083830130170099
229.0	614.3797551382631	fix	2.0		60.0	trustworthiness	006	2.0	2	-2.31	1513.7440038757704	0.5167388594272779
230.0	614.8964939976904	face	0.0		147.0	trustworthiness	033	2.0	2		1514.2607427351977	1.2334442133578705
230.0	616.1299382110483	rating	1.0		52.0	trustworthiness	033	2.0	2		1515.4941869485556	0.441711617349938
230.0	616.5716498283982	fix	2.0		60.0	trustworthiness	033	2.0	2	3.5999999999999996	1515.9358985659055	0.5167436890442332
231.0	617.0883935174425	face	0.0		147.0	trustworthiness	137	2.0	2		1516.4526422549498	1.23346594665054
231.0	618.321859464093	rating	1.0		93.0	trustworthiness	137	2.0	2		1517.6861082016003	0.7833830884846975
231.0	619.1052425525777	fix	2.0		60.0	trustworthiness	137	2.0	2	-0.69	1518.469491290085	0.5167424816390849
232.0	619.6219850342168	face	0.0		147.0	trustworthiness	144	2.0	2		1518.986233771724	1.2334399874416704
232.0	620.8554250216584	rating	1.0		85.0	trustworthiness	144	2.0	2		1520.2196737591657	0.7167400668295159
232.0	621.572165088488	fix	2.0		60.0	trustworthiness	144	2.0	2	3.74	1520.9364138259953	0.5167415760879521
233.0	622.0889066645759	face	0.0		147.0	trustworthiness	172	2.0	2		1521.4531554020832	1.2334399874416704
233.0	623.3223466520176	rating	1.0		92.0	trustworthiness	172	2.0	2		1522.6865953895249	0.775078254937398
233.0	624.097424906955	fix	2.0		60.0	trustworthiness	172	2.0	2	-3.76	1523.4616736444623	0.516743085343478
234.0	624.6141679922985	face	0.0		147.0	trustworthiness	018	2.0	2		1523.9784167298058	1.233440892996441
234.0	625.8476088852949	rating	1.0		88.0	trustworthiness	018	2.0	2		1525.2118576228022	0.7417393876639835
234.0	626.5893482729589	fix	2.0		60.0	trustworthiness	018	2.0	2	1.9100000000000001	1525.9535970104662	0.5167424816390849
235.0	627.106090754598	face	0.0		147.0	trustworthiness	012	2.0	2		1526.4703394921053	1.2334405911460635
235.0	628.339531345744	rating	1.0		39.0	trustworthiness	012	2.0	2		1527.7037800832513	0.33336422278080136
235.0	628.6728955685248	fix	2.0		60.0	trustworthiness	012	2.0	2	1.58	1528.0371443060321	0.5167436890442332
236.0	629.1896392575691	face	0.0		147.0	trustworthiness	043	2.0	2		1528.5538879950764	1.2334390818868997
236.0	630.423078339456	rating	1.0		130.0	trustworthiness	043	2.0	2		1529.7873270769633	1.0917772699976922
236.0	631.5148556094537	fix	2.0		60.0	trustworthiness	043	2.0	2	0.1200000000000001	1530.879104346961	0.5167403686828038
237.0	632.0315959781365	face	0.0		147.0	trustworthiness	082	2.0	2		1531.3958447156438	1.2334427041023446
237.0	633.2650386822388	rating	1.0		98.0	trustworthiness	082	2.0	2		1532.629287419746	0.825083537336468
237.0	634.0901222195753	fix	2.0		60.0	trustworthiness	082	2.0	2	0.20000000000000018	1533.4543709570826	0.5167406705295434
238.0	634.6068628901048	face	0.0		147.0	trustworthiness	038	2.0	2		1533.9711116276121	1.233440289295686
238.0	635.8403031794005	rating	1.0		126.0	trustworthiness	038	2.0	2		1535.2045519169078	1.058441119384952
238.0	636.8987442987855	fix	2.0		60.0	trustworthiness	038	2.0	2	-0.18999999999999995	1536.2629930362928	0.516750933475123
239.0	637.4154952322606	face	0.0		147.0	trustworthiness	005	2.0	2		1536.7797439697679	1.2334300263537443
239.0	638.6489252586143	rating	1.0		45.0	trustworthiness	005	2.0	2		1538.0131739961216	0.3833728255376627
239.0	639.032298084152	fix	2.0		60.0	trustworthiness	005	2.0	2	-2.1	1538.3965468216593	0.5000516165637237
