trial_nr	onset	event_type	phase	response	nr_frames	trial_type	stim_name	task_probe	onset_abs	duration
0.0	0.05489609764481429	baseline	0.0		41.0		baseline	0.0	86.56609712203499	0.34782913177332375
0.0	0.40272522941813804	ISI	1.0		11.0		baseline	0.0	86.91392625380831	0.1000080897792941
1.0	0.5027333191974321	baseline	0.0		48.0		baseline	0.0	87.01393434358761	0.39997681735258084
1.0	0.7028515265847091	pulse	0.0	t			baseline	0.0	87.21405255097488	
1.0	0.902710136550013	ISI	1.0		11.0		baseline	0.0	87.41391116094019	0.10001020277559292
2.0	1.002720339325606	baseline	0.0		48.0		baseline	0.0	87.51392136371578	0.3999810433597304
2.0	1.4027013826853363	ISI	1.0		11.0		baseline	0.0	87.91390240707551	0.09999058204994071
2.0	1.4072168682760093	pulse	1.0	t			baseline	0.0	87.91841789266618	
3.0	1.502691964735277	baseline	0.0		48.0		baseline	0.0	88.01389298912545	0.40000730495376047
3.0	1.9026992696890375	ISI	1.0		11.0		baseline	0.0	88.41390029407921	0.10001442878274247
4.0	2.00271369847178	baseline	0.0		48.0		baseline	0.0	88.51391472286195	0.399974100626423
4.0	2.102824419780518	pulse	0.0	t			baseline	0.0	88.6140254441707	
4.0	2.402687799098203	ISI	1.0		11.0		baseline	0.0	88.91388882348838	0.09999329876154661
5.0	2.5026810978597496	baseline	0.0		48.0		baseline	0.0	89.01388212224992	0.39999945665476844
5.0	2.8028040745848557	pulse	0.0	t			baseline	0.0	89.31400509897503	
5.0	2.902680554514518	ISI	1.0		11.0		baseline	0.0	89.4138815789047	0.0999939024914056
6.0	3.0026744570059236	baseline	0.0		48.0		baseline	0.0	89.5138754813961	0.39999855107453186
6.0	3.4026730080804555	ISI	1.0		11.0		baseline	0.0	89.91387403247063	0.10000356192176696
7.0	3.5026765700022224	baseline	0.0		47.0		baseline	0.0	90.0138775943924	0.3999970417935401
7.0	3.506865747694974	pulse	0.0	t			baseline	0.0	90.01806677208515	
7.0	3.9026736117957626	ISI	1.0		11.0		baseline	0.0	90.41387463618594	0.09999692105338909
8.0	4.002670532849152	baseline	0.0		48.0		baseline	0.0	90.51387155723933	0.39999885293946136
8.0	4.202786023510271	pulse	0.0	t			baseline	0.0	90.71398704790045	
8.0	4.402669385788613	ISI	1.0		11.0		baseline	0.0	90.91387041017879	0.09999541177239735
9.0	4.50266479756101	baseline	0.0		48.0		baseline	0.0	91.01386582195119	0.3999916083703283
9.0	4.902656405931339	ISI	1.0		11.0		baseline	0.0	91.41385743032151	0.09999722290376667
9.0	4.907192719678278	pulse	1.0	t			baseline	0.0	91.41839374406845	
10.0	5.002653628835105	baseline	0.0		48.0		baseline	0.0	91.51385465322528	0.3999985510890838
10.0	5.402652179924189	ISI	1.0		11.0		baseline	0.0	91.91385320431436	0.09999963776499499
11.0	5.502651817689184	baseline	0.0		48.0		baseline	0.0	92.01385284207936	0.39999945665476844
11.0	5.6028844894171925	pulse	0.0	t			baseline	0.0	92.11408551380737	
11.0	5.9026512743439525	ISI	1.0		7.0		baseline	0.0	92.41385229873413	0.12503177049802616
12.0	6.027683044841979	car	0.0		45.0	object	car-139.jpg	0.0	92.53888406923215	0.37491087659145705
12.0	6.302716535923537	pulse	0.0	t		object	car-139.jpg	0.0	92.81391756031371	
12.0	6.402593921433436	ISI	1.0		5.0	object	car-139.jpg	0.0	92.91379494582361	0.11669024173170328
13.0	6.519284163165139	car	0.0		46.0	object	car-50.jpg	0.0	93.03048518755531	0.38330311739991885
13.0	6.902587280565058	ISI	1.0		6.0	object	car-50.jpg	0.0	93.41378830495523	0.11668541202379856
14.0	7.019272692588856	car	0.0		45.0	object	car-29.jpg	0.0	93.53047371697903	0.38330613597645424
14.0	7.011103222568636	pulse	0.0	t		object	car-29.jpg	0.0	93.52230424695881	
14.0	7.402578828565311	ISI	1.0		8.0	object	car-29.jpg	0.0	93.91377985295549	0.11669295844330918
15.0	7.51927178700862	car	0.0		46.0	object	car-29.jpg	1.0	94.0304728113988	0.38330885270261206
15.0	7.7027066349983215	pulse	0.0	t		object	car-29.jpg	1.0	94.2139076593885	
15.0	7.869365151520469	response	0.0	b		object	car-29.jpg	1.0	94.38056617591064	
15.0	7.902580639711232	ISI	1.0		7.0	object	car-29.jpg	1.0	94.4137816641014	0.11667363956803456
16.0	8.019254279279266	car	0.0		46.0	object	car-39.jpg	0.0	94.53045530366944	0.3833209269942017
16.0	8.402575206273468	ISI	1.0		7.0	object	car-39.jpg	0.0	94.91377623066364	0.11669114729738794
16.0	8.439232473101583	pulse	1.0	t		object	car-39.jpg	0.0	94.95043349749176	
17.0	8.519266353570856	car	0.0		46.0	object	car-59.jpg	0.0	95.03046737796103	0.3832964765460929
17.0	8.902562830116949	ISI	1.0		7.0	object	car-59.jpg	0.0	95.41376385450712	0.11670503274945077
18.0	9.0192678628664	car	0.0		46.0	object	car-57.jpg	0.0	95.53046888725657	0.3832813836634159
18.0	9.102751370272017	pulse	0.0	t		object	car-57.jpg	0.0	95.61395239466219	
18.0	9.402549246529816	ISI	1.0		6.0	object	car-57.jpg	0.0	95.91375027091999	0.11669175102724694
19.0	9.519240997557063	car	0.0		46.0	object	car-133.jpg	0.0	96.03044202194724	0.38331971954903565
19.0	9.802674275881145	pulse	0.0	t		object	car-133.jpg	0.0	96.31387530027132	
19.0	9.902560717106098	ISI	1.0		8.0	object	car-133.jpg	0.0	96.41376174149627	0.11668028045096435
20.0	10.019240997557063	car	0.0		46.0	object	car-109.jpg	0.0	96.53044202194724	0.383307645257446
20.0	10.402548642814509	ISI	1.0		6.0	object	car-109.jpg	0.0	96.91374966720468	0.11667937487072777
21.0	10.519228017685236	car	0.0		45.0	object	car-23.jpg	0.0	97.03042904207541	0.38331488984113093
21.0	10.511024135907064	pulse	0.0	t		object	car-23.jpg	0.0	97.02222516029724	
21.0	10.902542907526367	ISI	1.0		4.0	object	car-23.jpg	0.0	97.41374393191654	0.11670201417291537
22.0	11.019244921699283	car	0.0		46.0	object	car-99.jpg	0.0	97.53044594608946	0.38329164682363626
22.0	11.202659243383096	pulse	0.0	t		object	car-99.jpg	0.0	97.71386026777327	
22.0	11.402536568522919	ISI	1.0		5.0	object	car-99.jpg	0.0	97.9137375929131	0.11668812872085255
23.0	11.519224697243772	car	0.0		46.0	object	car-20.jpg	0.0	98.03042572163395	0.3833157954213675
23.0	11.902540492665139	ISI	1.0		5.0	object	car-20.jpg	0.0	98.41374151705531	0.11667363956803456
23.0	11.956869098299649	pulse	1.0	t		object	car-20.jpg	0.0	98.46807012268982	
24.0	12.019214132233174	body	0.0		46.0	body	body-130.jpg	0.0	98.53041515662335	0.38333722729294095
24.0	12.402551359526115	ISI	1.0		6.0	body	body-130.jpg	0.0	98.91375238391629	0.11671167361782864
25.0	12.519263033143943	body	0.0		46.0	body	body-5.jpg	0.0	99.03046405753412	0.3832590462116059
25.0	12.602673491055612	pulse	0.0	t		body	body-5.jpg	0.0	99.11387451544579	
25.0	12.902522079355549	ISI	1.0		6.0	body	body-5.jpg	0.0	99.41372310374572	0.11669929746130947
26.0	13.019221376816859	body	0.0		46.0	body	body-104.jpg	0.0	99.53042240120703	0.38329979697300587
26.0	13.302638052991824	pulse	0.0	t		body	body-104.jpg	0.0	99.813839077382	
26.0	13.402521173789864	ISI	1.0		5.0	body	body-104.jpg	0.0	99.91372219818004	0.11667726185987704
27.0	13.519198435649741	body	0.0		46.0	body	body-90.jpg	0.0	100.03039946003992	0.3833281715778867
27.0	13.902526607227628	ISI	1.0		6.0	body	body-90.jpg	0.0	100.4137276316178	0.11666247084212955
28.0	14.019189078069758	body	0.0		45.0	body	body-73.jpg	0.0	100.53039010245993	0.3833323975704843
28.0	14.011330823079334	pulse	0.0	t		body	body-73.jpg	0.0	100.52253184746951	
28.0	14.402521475640242	ISI	1.0		5.0	body	body-73.jpg	0.0	100.91372250003042	0.11668360087787732
29.0	14.51920507651812	body	0.0		46.0	body	body-132.jpg	0.0	101.0304061009083	0.3832901375280926
29.0	14.702620907482924	pulse	0.0	t		body	body-132.jpg	0.0	101.2138219318731	
29.0	14.902495214046212	ISI	1.0		8.0	body	body-132.jpg	0.0	101.41369623843639	0.11668873245071154
30.0	15.019183946496923	body	0.0		46.0	body	body-132.jpg	1.0	101.5303849708871	0.3833013062539976
30.0	15.402485252750921	ISI	1.0		4.0	body	body-132.jpg	1.0	101.9136862771411	0.11666880986012984
30.0	15.45214382179256	pulse	1.0	t		body	body-132.jpg	1.0	101.96334484618274	
30.0	15.46094658873335	response	1.0	b		body	body-132.jpg	1.0	101.97214761312352	
31.0	15.519154062611051	body	0.0		46.0	body	body-38.jpg	0.0	102.03035508700123	0.3833508108800743
31.0	15.902504873491125	ISI	1.0		6.0	body	body-38.jpg	0.0	102.4137058978813	0.11666850799520034
32.0	16.019173381486326	body	0.0		46.0	body	body-115.jpg	0.0	102.5303744058765	0.383304324830533
32.0	16.102635758870747	pulse	0.0	t		body	body-115.jpg	0.0	102.61383678326092	
32.0	16.40247770631686	ISI	1.0		5.0	body	body-115.jpg	0.0	102.91367873070703	0.11668239343271125
33.0	16.51916009974957	body	0.0		46.0	body	body-77.jpg	0.0	103.03036112413974	0.38331187127914745
33.0	16.802595491084503	pulse	0.0	t		body	body-77.jpg	0.0	103.31379651547468	
33.0	16.902471971028717	ISI	1.0		6.0	body	body-77.jpg	0.0	103.41367299541889	0.11667726185987704
34.0	17.019149232888594	body	0.0		46.0	body	body-63.jpg	0.0	103.53035025727877	0.38331730470235925
34.0	17.402466537590954	ISI	1.0		6.0	body	body-63.jpg	0.0	103.91366756198113	0.1166839027282549
35.0	17.51915044031921	body	0.0		45.0	body	body-25.jpg	0.0	104.03035146470938	0.38330885268806014
35.0	17.51389147982991	pulse	0.0	t		body	body-25.jpg	0.0	104.02509250422008	
35.0	17.90245929300727	ISI	1.0		8.0	body	body-25.jpg	0.0	104.41366031739744	0.11668873245071154
36.0	18.01914802545798	house	0.0		46.0	place	house-96.jpg	0.0	104.53034904984816	0.3833067396917613
36.0	18.202575930728926	pulse	0.0	t		place	house-96.jpg	0.0	104.7137769551191	
36.0	18.40245476514974	ISI	1.0		8.0	place	house-96.jpg	0.0	104.91365578953992	0.11668873245071154
37.0	18.519143497600453	house	0.0		46.0	place	house-34.jpg	0.0	105.03034452199063	0.38334054771985393
37.0	18.902484045320307	ISI	1.0		5.0	place	house-34.jpg	0.0	105.41368506971048	0.11668209158233367
37.0	18.953393209769274	pulse	1.0	t		place	house-34.jpg	0.0	105.46459423415945	
38.0	19.01916613690264	house	0.0		46.0	place	house-90.jpg	0.0	105.53036716129282	0.38327745952119585
38.0	19.402443596423836	ISI	1.0		8.0	place	house-90.jpg	0.0	105.91364462081401	0.11668722315516789
39.0	19.519130819579004	house	0.0		46.0	place	house-110.jpg	0.0	106.03033184396918	0.38329708026139997
39.0	19.602561200081254	pulse	0.0	t		place	house-110.jpg	0.0	106.11376222447143	
39.0	19.902427899840404	ISI	1.0		7.0	place	house-110.jpg	0.0	106.41362892423058	0.11672706833633129
40.0	20.019154968176736	house	0.0		46.0	place	house-93.jpg	0.0	106.53035599256691	0.383270818652818
40.0	20.302554136622348	pulse	0.0	t		place	house-93.jpg	0.0	106.81375516101252	
40.0	20.402425786829554	ISI	1.0		8.0	place	house-93.jpg	0.0	106.91362681121973	0.11669688260008115
41.0	20.519122669429635	house	0.0		46.0	place	house-82.jpg	0.0	107.03032369381981	0.38330341926484834
41.0	20.902426088694483	ISI	1.0		3.0	place	house-82.jpg	0.0	107.41362711308466	0.11668118600209709
42.0	21.01910727469658	house	0.0		45.0	place	house-4.jpg	0.0	107.53030829908676	0.3833139842754463
42.0	21.011090544547187	pulse	0.0	t		place	house-4.jpg	0.0	107.52229156893736	
42.0	21.402421258972026	ISI	1.0		7.0	place	house-4.jpg	0.0	107.9136222833622	0.1166866194398608
43.0	21.519107878411887	house	0.0		46.0	place	house-4.jpg	1.0	108.03030890280206	0.3833157954213675
43.0	21.702541217120597	pulse	0.0	t		place	house-4.jpg	1.0	108.21374224151077	
43.0	21.902423673833255	ISI	1.0		7.0	place	house-4.jpg	1.0	108.41362469822343	0.11669627888477407
43.0	21.935488836999866	response	1.0	b		place	house-4.jpg	1.0	108.44668986139004	
44.0	22.01911995271803	house	0.0		46.0	place	house-57.jpg	0.0	108.5303209771082	0.3832907412433997
44.0	22.40241069396143	ISI	1.0		7.0	place	house-57.jpg	0.0	108.9136117183516	0.11670473088452127
44.0	22.441734267631546	pulse	1.0	t		place	house-57.jpg	0.0	108.95293529202172	
45.0	22.51911542484595	house	0.0		46.0	place	house-24.jpg	0.0	109.03031644923612	0.38328862824710086
45.0	22.90240405309305	ISI	1.0		6.0	place	house-24.jpg	0.0	109.41360507748323	0.11668752502009738
46.0	23.019091578113148	house	0.0		46.0	place	house-71.jpg	0.0	109.53029260250332	0.3833049285458401
46.0	23.102522864195635	pulse	0.0	t		place	house-71.jpg	0.0	109.61372388858581	
46.0	23.402396506658988	ISI	1.0		7.0	place	house-71.jpg	0.0	109.91359753104916	0.11670201417291537
47.0	23.519098520831903	house	0.0		46.0	place	house-75.jpg	0.0	110.03029954522208	0.3832988914073212
47.0	23.802510669149342	pulse	0.0	t		place	house-75.jpg	0.0	110.31371169353952	
47.0	23.902397412239225	ISI	1.0		4.0	place	house-75.jpg	0.0	110.4135984366294	0.11667665814456996
48.0	24.019074070383795	word	0.0		46.0	character	word-18.jpg	0.0	110.53027509477397	0.38331790841766633
48.0	24.40239197880146	ISI	1.0		6.0	character	word-18.jpg	0.0	110.91359300319164	0.11667786557518411
49.0	24.519069844376645	word	0.0		45.0	character	word-81.jpg	0.0	111.03027086876682	0.3833097582682967
49.0	24.510786574101076	pulse	0.0	t		character	word-81.jpg	0.0	111.02198759849125	
49.0	24.90237960264494	ISI	1.0		6.0	character	word-81.jpg	0.0	111.41358062703512	0.11666579128359444
50.0	25.019045393928536	word	0.0		46.0	character	word-44.jpg	0.0	111.53024641831871	0.3833616777410498
50.0	25.202533368821605	pulse	0.0	t		character	word-44.jpg	0.0	111.71373439321178	
50.0	25.402407071669586	ISI	1.0		7.0	character	word-44.jpg	0.0	111.91360809605976	0.11669205287762452
51.0	25.51909912454721	word	0.0		46.0	character	word-65.jpg	0.0	112.03030014893739	0.38327142236812506
51.0	25.902370546915336	ISI	1.0		6.0	character	word-65.jpg	0.0	112.41357157130551	0.11666609314852394
51.0	25.943448214238742	pulse	1.0	t		character	word-65.jpg	0.0	112.45464923862892	
52.0	26.01903664006386	word	0.0		46.0	character	word-97.jpg	0.0	112.53023766445403	0.3833305864245631
52.0	26.402367226488423	ISI	1.0		7.0	character	word-97.jpg	0.0	112.9135682508786	0.1166839027282549
53.0	26.519051129216678	word	0.0		46.0	character	word-129.jpg	0.0	113.03025215360685	0.38330553226114716
53.0	26.602483924580156	pulse	0.0	t		character	word-129.jpg	0.0	113.11368494897033	
53.0	26.902356661477825	ISI	1.0		5.0	character	word-129.jpg	0.0	113.413557685868	0.11670774946105666
54.0	27.01906441093888	word	0.0		46.0	character	word-3.jpg	0.0	113.53026543532906	0.38328621338587254
54.0	27.30247414439509	pulse	0.0	t		character	word-3.jpg	0.0	113.81367516878527	
54.0	27.402350624324754	ISI	1.0		7.0	character	word-3.jpg	0.0	113.91355164871493	0.1166869213047903
55.0	27.519037545629544	word	0.0		46.0	character	word-142.jpg	0.0	114.03023857001972	0.3833209269942017
55.0	27.902358472623746	ISI	1.0		7.0	character	word-142.jpg	0.0	114.41355949701392	0.11667001727619208
56.0	28.019028489899938	word	0.0		45.0	character	word-34.jpg	0.0	114.53022951429011	0.3833157954213675
56.0	28.011040738070733	pulse	0.0	t		character	word-34.jpg	0.0	114.52224176246091	
56.0	28.402344285321306	ISI	1.0		7.0	character	word-34.jpg	0.0	114.91354530971148	0.11670110860723071
57.0	28.519045393928536	word	0.0		46.0	character	word-110.jpg	0.0	115.03024641831871	0.3832895338127855
57.0	28.702456697035814	pulse	0.0	t		character	word-110.jpg	0.0	115.21365772142599	
57.0	28.90233492774132	ISI	1.0		7.0	character	word-110.jpg	0.0	115.4135359521315	0.11668511015886907
58.0	29.01902003790019	word	0.0		46.0	character	word-4.jpg	0.0	115.53022106229037	0.38332817156333476
58.0	29.402348209463526	ISI	1.0		7.0	character	word-4.jpg	0.0	115.9135492338537	0.11666216899175197
58.0	29.43600561695348	pulse	1.0	t		character	word-4.jpg	0.0	115.94720664134366	
59.0	29.519010378455278	word	0.0		46.0	character	word-84.jpg	0.0	116.03021140284545	0.38331760656728875
59.0	29.902327985022566	ISI	1.0		6.0	character	word-84.jpg	0.0	116.41352900941274	0.11668269529764075
60.0	30.019010680320207	word	0.0		46.0	character	word-28.jpg	0.0	116.53021170471038	0.38331971956358757
60.0	30.102440758957528	pulse	0.0	t		character	word-28.jpg	0.0	116.6136417833477	
60.0	30.402330399883795	ISI	1.0		7.0	character	word-28.jpg	0.0	116.91353142427397	0.11667575256433338
61.0	30.519006152448128	word	0.0		46.0	character	word-1.jpg	0.0	117.0302071768383	0.3832988914073212
61.0	30.802418602630496	pulse	0.0	t		character	word-1.jpg	0.0	117.31361962702067	
61.0	30.90230504385545	ISI	1.0		8.0	character	word-1.jpg	0.0	117.41350606824562	0.11669356215861626
62.0	31.018998606014065	word	0.0		46.0	character	word-70.jpg	0.0	117.53019963040424	0.383308248987305
62.0	31.40230685500137	ISI	1.0		7.0	character	word-70.jpg	0.0	117.91350787939155	0.11668873243615963
63.0	31.51899558743753	word	0.0		45.0	character	word-60.jpg	0.0	118.0301966118277	0.38334356631094124
63.0	31.511572610907024	pulse	0.0	t		character	word-60.jpg	0.0	118.0227736352972	
63.0	31.90233915374847	ISI	1.0		7.0	character	word-60.jpg	0.0	118.41354017813865	0.11668028043641243
64.0	32.019019434184884	word	0.0		46.0	character	word-78.jpg	0.0	118.53022045857506	0.3832789688021876
64.0	32.20242500200402	pulse	0.0	t		character	word-78.jpg	0.0	118.7136260263942	
64.0	32.40229840298707	ISI	1.0		5.0	character	word-78.jpg	0.0	118.91349942737725	0.11668299716257025
65.0	32.51898140014964	word	0.0		46.0	character	word-30.jpg	0.0	119.03018242453982	0.38330885268806014
65.0	32.9022902528377	ISI	1.0		6.0	character	word-30.jpg	0.0	119.41349127722788	0.11672435162472539
65.0	32.94379957631463	pulse	1.0	t		character	word-30.jpg	0.0	119.4550006007048	
66.0	33.01901460446243	word	0.0		46.0	character	word-12.jpg	0.0	119.5302156288526	0.3832681019412121
66.0	33.40228270640364	ISI	1.0		8.0	character	word-12.jpg	0.0	119.91348373079381	0.11668178971740417
67.0	33.51896449612104	word	0.0		46.0	character	word-12.jpg	1.0	120.03016552051122	0.38331821028259583
67.0	33.60240212120698	pulse	0.0	t		character	word-12.jpg	1.0	120.11360314559715	
67.0	33.90228270640364	ISI	1.0		4.0	character	word-12.jpg	1.0	120.41348373079381	0.12502905377186835
67.0	33.99417867907323	response	1.0	b		character	word-12.jpg	1.0	120.5053797034634	
68.0	34.02731176017551	word	0.0		45.0	character	word-2.jpg	0.0	120.53851278456568	0.3749637016444467
68.0	34.3023757388728	pulse	0.0	t		character	word-2.jpg	0.0	120.81357676326297	
68.0	34.402275461819954	ISI	1.0		7.0	character	word-2.jpg	0.0	120.91347648621013	0.11668118601664901
69.0	34.5189566478366	word	0.0		46.0	character	word-57.jpg	0.0	121.03015767222678	0.3833127768302802
69.0	34.90226942466688	ISI	1.0		8.0	character	word-57.jpg	0.0	121.41347044905706	0.11669597703439649
70.0	35.01896540170128	word	0.0		45.0	character	word-61.jpg	0.0	121.53016642609145	0.3832868171011796
70.0	35.01092723966576	pulse	0.0	t		character	word-61.jpg	0.0	121.52212826405594	
70.0	35.40225221880246	ISI	1.0		7.0	character	word-61.jpg	0.0	121.91345324319263	0.11667997857148293
71.0	35.51893219737394	word	0.0		46.0	character	word-10.jpg	0.0	122.03013322176412	0.3833254548662808
71.0	35.70237700667349	pulse	0.0	t		character	word-10.jpg	0.0	122.21357803106366	
71.0	35.90225765224022	ISI	1.0		11.0	character	word-10.jpg	0.0	122.4134586766304	0.09998997832008172
72.0	36.002247630560305	baseline	0.0		48.0		baseline	0.0	122.51344865495048	0.40000277709623333
72.0	36.40225040765654	ISI	1.0		11.0		baseline	0.0	122.91345143204671	0.10000627863337286
72.0	36.40681479414343	pulse	1.0	t			baseline	0.0	122.9180158185336	
73.0	36.50225668628991	baseline	0.0		48.0		baseline	0.0	123.01345771068009	0.39998708049824927
73.0	36.90224376678816	ISI	1.0		11.0		baseline	0.0	123.41344479117834	0.09999812848400325
74.0	37.002241895272164	baseline	0.0		48.0		baseline	0.0	123.51344291966234	0.39999311765132006
74.0	37.10236710574827	pulse	0.0	t			baseline	0.0	123.61356813013845	
74.0	37.402235012923484	ISI	1.0		11.0		baseline	0.0	123.91343603731366	0.09999450619216077
75.0	37.502229519115645	baseline	0.0		48.0		baseline	0.0	124.01343054350582	0.40000821051944513
75.0	37.8023546088516	pulse	0.0	t			baseline	0.0	124.31355563324178	
75.0	37.90223772963509	ISI	1.0		11.0		baseline	0.0	124.41343875402526	0.09999722291831858
76.0	38.00223495255341	baseline	0.0		48.0		baseline	0.0	124.51343597694358	0.40005862071120646
76.0	38.402293573264615	ISI	1.0		11.0		baseline	0.0	124.91349459765479	0.10000597678299528
77.0	38.50229955004761	baseline	0.0		47.0		baseline	0.0	125.01350057443778	0.3999828544910997
77.0	38.50659618899226	pulse	0.0	t			baseline	0.0	125.01779721338244	
77.0	38.90228240453871	ISI	1.0		11.0		baseline	0.0	125.41348342892888	0.1000080897792941
78.0	39.002290494318004	baseline	0.0		48.0		baseline	0.0	125.51349151870818	0.39999100465502124
78.0	39.202403570117895	pulse	0.0	t			baseline	0.0	125.71360459450807	
78.0	39.402281498973025	ISI	1.0		11.0		baseline	0.0	125.9134825233632	0.09999993962992448
79.0	39.50228143860295	baseline	0.0		48.0		baseline	0.0	126.01348246299312	0.40000519194290973
79.0	39.90228663054586	ISI	1.0		11.0		baseline	0.0	126.41348765493603	0.10003525695356075
79.0	39.90690806810744	pulse	1.0	t			baseline	0.0	126.41810909249762	
80.0	40.00232188749942	baseline	0.0		48.0		baseline	0.0	126.5135229118896	0.39994270745955873
80.0	40.40226459495898	ISI	1.0		11.0		baseline	0.0	126.91346561934915	0.1000080897792941
81.0	40.50227268473827	baseline	0.0		48.0		baseline	0.0	127.01347370912845	0.39999070279009175
81.0	40.60238793390454	pulse	0.0	t			baseline	0.0	127.11358895829471	
81.0	40.902263387528365	ISI	1.0		11.0		baseline	0.0	127.41346441191854	0.09999963776499499
82.0	41.00226302529336	baseline	0.0		48.0		baseline	0.0	127.51346404968353	0.3999955325125484
82.0	41.30237905929971	pulse	0.0	t			baseline	0.0	127.81358008368989	
82.0	41.40225855780591	ISI	1.0		11.0		baseline	0.0	127.91345958219608	0.10000265634153038
83.0	41.50226121414744	baseline	0.0		48.0		baseline	0.0	128.0134622385376	0.3999888916441705
83.0	41.90225010579161	ISI	1.0		6.0		baseline	0.0	128.41345113018178	0.1166497928352328
84.0	42.01889989862684	house	0.0		45.0	place	house-141.jpg	0.0	128.53010092301702	0.3832901375426445
84.0	42.01109054454719	pulse	0.0	t		place	house-141.jpg	0.0	128.52229156893736	
84.0	42.402190036169486	ISI	1.0		6.0	place	house-141.jpg	0.0	128.91339106055966	0.11672193676349707
85.0	42.51891197293298	house	0.0		46.0	place	house-65.jpg	0.0	129.03011299732316	0.38326538521505427
85.0	42.70229882559215	pulse	0.0	t		place	house-65.jpg	0.0	129.21349984998233	
85.0	42.90217735814804	ISI	1.0		8.0	place	house-65.jpg	0.0	129.4133783825382	0.1166839027282549
86.0	43.01886126087629	house	0.0		46.0	place	house-66.jpg	0.0	129.53006228526647	0.3833076452719979
86.0	43.40216890614829	ISI	1.0		6.0	place	house-66.jpg	0.0	129.91336993053847	0.11670231602329295
86.0	43.44343010279408	pulse	1.0	t		place	house-66.jpg	0.0	129.95463112718426	
87.0	43.51887122217158	house	0.0		46.0	place	house-88.jpg	0.0	130.03007224656176	0.3832937598199351
87.0	43.90216498199152	ISI	1.0		6.0	place	house-88.jpg	0.0	130.4133660063817	0.11669929746130947
88.0	44.01886427945283	house	0.0		46.0	place	house-58.jpg	0.0	130.530065303843	0.38329496725054923
88.0	44.102281076367944	pulse	0.0	t		place	house-58.jpg	0.0	130.61348210075812	
88.0	44.40215924670338	ISI	1.0		6.0	place	house-58.jpg	0.0	130.91336027109355	0.11670110860723071
89.0	44.51886035531061	house	0.0		46.0	place	house-125.jpg	0.0	131.03006137970078	0.38329496725054923
89.0	44.80228397420433	pulse	0.0	t		place	house-125.jpg	0.0	131.3134849985945	
89.0	44.90215532256116	ISI	1.0		5.0	place	house-125.jpg	0.0	131.41335634695133	0.11666820613027085
90.0	45.01882352869143	house	0.0		46.0	place	house-122.jpg	0.0	131.5300245530816	0.38331519170606043
90.0	45.40213872039749	ISI	1.0		5.0	place	house-122.jpg	0.0	131.91333974478766	0.1083520334068453
91.0	45.51049075380433	house	0.0		46.0	place	house-38.jpg	0.0	132.0216917781945	0.3916543055966031
91.0	45.50608272946556	pulse	0.0	t		place	house-38.jpg	0.0	132.01728375385574	
91.0	45.90214505940094	ISI	1.0		6.0	place	house-38.jpg	0.0	132.4133460837911	0.10837437085865531
92.0	46.01051943025959	house	0.0		47.0	place	house-9.jpg	0.0	132.52172045464977	0.3916132529848255
92.0	46.202257471115445	pulse	0.0	t		place	house-9.jpg	0.0	132.71345849550562	
92.0	46.40213268324442	ISI	1.0		6.0	place	house-9.jpg	0.0	132.9133337076346	0.10836229656706564
93.0	46.51049497981148	house	0.0		47.0	place	house-9.jpg	1.0	133.02169600420166	0.39162894956825767
93.0	46.80225469403376	response	0.0	b		place	house-9.jpg	1.0	133.31345571842394	
93.0	46.90212392937974	ISI	1.0		6.0	place	house-9.jpg	1.0	133.41332495376992	0.10835686312930193
93.0	46.94459497068601	pulse	1.0	t		place	house-9.jpg	1.0	133.4557959950762	
94.0	47.01048079250904	house	0.0		47.0	place	house-8.jpg	0.0	133.52168181689922	0.39164404245093465
94.0	47.40212483495998	ISI	1.0		6.0	place	house-8.jpg	0.0	133.91332585935015	0.1083514296769863
95.0	47.510476264636964	house	0.0		47.0	place	house-103.jpg	0.0	134.02167728902714	0.3916277421521954
95.0	47.60224938133615	pulse	0.0	t		place	house-103.jpg	0.0	134.11345040572633	
95.0	47.90210400678916	ISI	1.0		4.0	place	house-103.jpg	0.0	134.41330503117933	0.10836772999027744
96.0	48.01047173677944	car	0.0		47.0	object	car-7.jpg	0.0	134.5216727611696	0.39166426690644585
96.0	48.302231752866646	pulse	0.0	t		object	car-7.jpg	0.0	134.81343277725682	
96.0	48.40213600368588	ISI	1.0		5.0	object	car-7.jpg	0.0	134.91333702807606	0.10831399935705122
97.0	48.51045000304293	car	0.0		47.0	object	car-83.jpg	0.0	135.0216510274331	0.39168630249332637
97.0	48.90213630553626	ISI	1.0		6.0	object	car-83.jpg	0.0	135.41333732992643	0.11668933616601862
98.0	49.01882564170228	car	0.0		45.0	object	car-36.jpg	0.0	135.53002666609245	0.383307645257446
98.0	49.00813656755781	pulse	0.0	t		object	car-36.jpg	0.0	135.519337591948	
98.0	49.402133286959725	ISI	1.0		5.0	object	car-36.jpg	0.0	135.9133343113499	0.11670654204499442
99.0	49.51883982900472	car	0.0		46.0	object	car-138.jpg	0.0	136.0300408533949	0.38325753691606224
99.0	49.70221581478836	pulse	0.0	t		object	car-138.jpg	0.0	136.21341683917854	
99.0	49.90209736592078	ISI	1.0		6.0	object	car-138.jpg	0.0	136.41329839031096	0.11669839189562481
100.0	50.018795757816406	car	0.0		46.0	object	car-110.jpg	0.0	136.52999678220658	0.3832922505243914
100.0	50.4020880083408	ISI	1.0		7.0	object	car-110.jpg	0.0	136.91328903273097	0.11668903431564104
100.0	50.434640919425874	pulse	1.0	t		object	car-110.jpg	0.0	136.94584194381605	
101.0	50.51877704265644	car	0.0		46.0	object	car-87.jpg	0.0	137.0299780670466	0.3833097582537448
101.0	50.90208680091018	ISI	1.0		6.0	object	car-87.jpg	0.0	137.41328782530036	0.11669929746130947
102.0	51.01878609837149	car	0.0		46.0	object	car-73.jpg	0.0	137.52998712276167	0.38329496725054923
102.0	51.1022022915713	pulse	0.0	t		object	car-73.jpg	0.0	137.61340331596148	
102.0	51.40208106562204	ISI	1.0		7.0	object	car-73.jpg	0.0	137.91328209001222	0.11668178973195609
103.0	51.518762855354	car	0.0		46.0	object	car-144.jpg	0.0	138.02996387974417	0.3833127768302802
103.0	51.80219190768548	pulse	0.0	t		object	car-144.jpg	0.0	138.31339293207566	
103.0	51.90207563218428	ISI	1.0		7.0	object	car-144.jpg	0.0	138.41327665657445	0.11667786558973603
104.0	52.018753497774014	car	0.0		46.0	object	car-19.jpg	0.0	138.5299545221642	0.3833160972717451
104.0	52.40206959504576	ISI	1.0		6.0	object	car-19.jpg	0.0	138.91327061943593	0.11669024173170328
105.0	52.51875983677746	car	0.0		45.0	object	car-1.jpg	0.0	139.02996086116764	0.3832910431083292
105.0	52.510945351124974	pulse	0.0	t		object	car-1.jpg	0.0	139.02214637551515	
105.0	52.90205087988579	ISI	1.0		8.0	object	car-1.jpg	0.0	139.41325190427597	0.11669507145415992
106.0	53.01874595133995	car	0.0		46.0	object	car-94.jpg	0.0	139.52994697573013	0.38330553226114716
106.0	53.20216480088129	pulse	0.0	t		object	car-94.jpg	0.0	139.71336582527147	
106.0	53.4020514836011	ISI	1.0		6.0	object	car-94.jpg	0.0	139.91325250799127	0.1166839027282549
107.0	53.518735386329354	car	0.0		46.0	object	car-43.jpg	0.0	140.02993641071953	0.383326662282343
107.0	53.9020620486117	ISI	1.0		6.0	object	car-43.jpg	0.0	140.41326307300187	0.11669024173170328
107.0	53.946671146230074	pulse	1.0	t		object	car-43.jpg	0.0	140.45787217062025	
108.0	54.0187522903434	house	0.0		46.0	place	house-1.jpg	0.0	140.52995331473358	0.3832901375280926
108.0	54.40204242787149	ISI	1.0		6.0	place	house-1.jpg	0.0	140.91324345226167	0.11667816744011361
109.0	54.518720595311606	house	0.0		46.0	place	house-6.jpg	0.0	141.02992161970178	0.38330855083768256
109.0	54.60215791853261	pulse	0.0	t		place	house-6.jpg	0.0	141.1133589429228	
109.0	54.90202914614929	ISI	1.0		8.0	place	house-6.jpg	0.0	141.41323017053946	0.1166923547280021
110.0	55.01872150087729	house	0.0		46.0	place	house-116.jpg	0.0	141.52992252526747	0.3833124749799026
110.0	55.30214753463224	pulse	0.0	t		place	house-116.jpg	0.0	141.81334855902242	
110.0	55.402033975857194	ISI	1.0		6.0	place	house-116.jpg	0.0	141.91323500024737	0.1166839027282549
111.0	55.51871787858545	house	0.0		46.0	place	house-63.jpg	0.0	142.02991890297562	0.38334567930724006
111.0	55.90206355789269	ISI	1.0		5.0	place	house-63.jpg	0.0	142.41326458228286	0.11667394143296406
112.0	56.01873749932565	house	0.0		45.0	place	house-112.jpg	0.0	142.52993852371583	0.3833097582682967
112.0	56.01090158178704	pulse	0.0	t		place	house-112.jpg	0.0	142.5221026061772	
112.0	56.40204725759395	ISI	1.0		7.0	place	house-112.jpg	0.0	142.91324828198412	0.11669205287762452
113.0	56.518739310471574	house	0.0		46.0	place	house-132.jpg	0.0	143.02994033486175	0.38327142236812506
113.0	56.702342594915535	pulse	0.0	t		place	house-132.jpg	0.0	143.2135436193057	
113.0	56.9020107328397	ISI	1.0		6.0	place	house-132.jpg	0.0	143.41321175722987	0.1166869213047903
114.0	57.01869765414449	house	0.0		46.0	place	house-17.jpg	0.0	143.52989867853466	0.3833106638339814
114.0	57.40200831797847	ISI	1.0		6.0	place	house-17.jpg	0.0	143.91320934236865	0.1166839027282549
114.0	57.44654587538389	pulse	1.0	t		place	house-17.jpg	0.0	143.95774689977407	
115.0	57.518692220706725	house	0.0		46.0	place	house-80.jpg	0.0	144.0298932450969	0.3833296808588784
115.0	57.902021901565604	ISI	1.0		8.0	place	house-80.jpg	0.0	144.41322292595578	0.11665613183868118
116.0	58.018678033404285	house	0.0		46.0	place	house-27.jpg	0.0	144.52987905779446	0.383315493556438
116.0	58.102121091927984	pulse	0.0	t		place	house-27.jpg	0.0	144.61332211631816	
116.0	58.40199352696072	ISI	1.0		6.0	place	house-27.jpg	0.0	144.9131945513509	0.11670201417291537
117.0	58.51869554113364	house	0.0		46.0	place	house-48.jpg	0.0	145.0298965655238	0.3832871189661091
117.0	58.80211946189229	pulse	0.0	t		place	house-48.jpg	0.0	145.31332048628246	
117.0	58.90198266009975	ISI	1.0		7.0	place	house-48.jpg	0.0	145.41318368448992	0.11671288103389088
118.0	59.01869554113364	house	0.0		46.0	place	house-86.jpg	0.0	145.5298965655238	0.38328017624735367
118.0	59.40197571738099	ISI	1.0		5.0	place	house-86.jpg	0.0	145.91317674177117	0.11670110859267879
119.0	59.51867682597367	house	0.0		45.0	place	house-81.jpg	0.0	146.02987785036385	0.383308248987305
119.0	59.5067628143006	pulse	0.0	t		place	house-81.jpg	0.0	146.01796383869078	
119.0	59.901985074960976	ISI	1.0		5.0	place	house-81.jpg	0.0	146.41318609935115	0.10836350398312788
120.0	60.010348578944104	body	0.0		47.0	body	body-4.jpg	0.0	146.52154960333428	0.39162623285665177
120.0	60.20210171266808	pulse	0.0	t		body	body-4.jpg	0.0	146.71330273705826	
120.0	60.401974811800756	ISI	1.0		6.0	body	body-4.jpg	0.0	146.91317583619093	0.10835354268783703
121.0	60.51032835448859	body	0.0		47.0	body	body-82.jpg	0.0	147.02152937887877	0.39163891087810043
121.0	60.90196726536669	ISI	1.0		6.0	body	body-82.jpg	0.0	147.41316828975687	0.10834690181945916
121.0	60.94313850848994	pulse	1.0	t		body	body-82.jpg	0.0	147.4543395328801	
122.0	61.01031416718615	body	0.0		47.0	body	body-82.jpg	1.0	147.52151519157633	0.39164404245093465
122.0	61.40195820963709	ISI	1.0		4.0	body	body-82.jpg	1.0	147.91315923402726	0.10834267582686152
122.0	61.48542511489359	response	1.0	b		body	body-82.jpg	1.0	147.99662613928376	
123.0	61.51030088546395	body	0.0		47.0	body	body-10.jpg	0.0	148.02150190985412	0.3916518907499267
123.0	61.60207460587844	pulse	0.0	t		body	body-10.jpg	0.0	148.11327563026862	
123.0	61.901952776213875	ISI	1.0		5.0	body	body-10.jpg	0.0	148.41315380060405	0.1083260736631928
124.0	62.01027884987707	body	0.0		47.0	body	body-111.jpg	0.0	148.52147987426724	0.3916624557459727
124.0	62.3020687498356	pulse	0.0	t		body	body-111.jpg	0.0	148.81326977422577	
124.0	62.40194130562304	ISI	1.0		5.0	body	body-111.jpg	0.0	148.91314233001322	0.10837708757026121
125.0	62.5103183931933	body	0.0		47.0	body	body-72.jpg	0.0	149.02151941758348	0.3916461554617854
125.0	62.90196454865509	ISI	1.0		4.0	body	body-72.jpg	0.0	149.41316557304526	0.11668903430108912
126.0	63.018653582956176	body	0.0		45.0	body	body-98.jpg	0.0	149.52985460734635	0.3833049285458401
126.0	63.00700430026336	pulse	0.0	t		body	body-98.jpg	0.0	149.51820532465354	
126.0	63.401958511502016	ISI	1.0		4.0	body	body-98.jpg	0.0	149.9131595358922	0.1167152958951192
127.0	63.518673807397136	body	0.0		46.0	body	body-54.jpg	0.0	150.0298748317873	0.3832850059552584
127.0	63.702085110518965	pulse	0.0	t		body	body-54.jpg	0.0	150.21328613490914	
127.0	63.901958813352394	ISI	1.0		5.0	body	body-54.jpg	0.0	150.41315983774257	0.11667484701320063
128.0	64.0186336603656	body	0.0		46.0	body	body-81.jpg	0.0	150.52983468475577	0.3832877226668643
128.0	64.40192138303246	ISI	1.0		5.0	body	body-81.jpg	0.0	150.91312240742263	0.11670714574574959
128.0	64.45171246748941	pulse	1.0	t		body	body-81.jpg	0.0	150.9629134918796	
129.0	64.51862852877821	body	0.0		46.0	body	body-136.jpg	0.0	151.02982955316838	0.38327987438242417
129.0	64.90190840316063	ISI	1.0		6.0	body	body-136.jpg	0.0	151.4131094275508	0.11670624018006492
130.0	65.0186146433407	body	0.0		46.0	body	body-74.jpg	0.0	151.52981566773087	0.3832940616848646
130.0	65.10202449753706	pulse	0.0	t		body	body-74.jpg	0.0	151.61322552192723	
130.0	65.40190870502556	ISI	1.0		6.0	body	body-74.jpg	0.0	151.91310972941574	0.11670986245735548
131.0	65.51861856748292	body	0.0		46.0	body	body-131.jpg	0.0	152.0298195918731	0.3832940616848646
131.0	65.80202920651936	pulse	0.0	t		body	body-131.jpg	0.0	152.31323023090954	
131.0	65.90191262916778	ISI	1.0		6.0	body	body-131.jpg	0.0	152.41311365355796	0.1166983918810729
132.0	66.01861102104886	body	0.0		46.0	body	body-119.jpg	0.0	152.52981204543903	0.38329466540017165
132.0	66.40190568644903	ISI	1.0		5.0	body	body-119.jpg	0.0	152.9131067108392	0.11669356215861626
133.0	66.51859924860764	body	0.0		45.0	body	body-113.jpg	0.0	153.02980027299782	0.3832871189661091
133.0	66.51047173677944	pulse	0.0	t		body	body-113.jpg	0.0	153.0216727611696	
133.0	66.90188636757375	ISI	1.0		6.0	body	body-113.jpg	0.0	153.41308739196393	0.11671318289882038
134.0	67.01859955047257	body	0.0		46.0	body	body-68.jpg	0.0	153.52980057486275	0.3832952691009268
134.0	67.20201417402131	pulse	0.0	t		body	body-68.jpg	0.0	153.7132151984115	
134.0	67.4018948195735	ISI	1.0		6.0	body	body-68.jpg	0.0	153.91309584396367	0.11668601573910564
135.0	67.5185808353126	body	0.0		46.0	body	body-127.jpg	0.0	154.02978185970278	0.38331126754928846
135.0	67.9018921028619	ISI	1.0		5.0	body	body-127.jpg	0.0	154.41309312725207	0.1166983918810729
135.0	67.9521622350876	pulse	1.0	t		body	body-127.jpg	0.0	154.46336325947777	
136.0	68.01859049474297	body	0.0		46.0	body	body-51.jpg	0.0	154.52979151913314	0.3832871189661091
136.0	68.40187761370908	ISI	1.0		6.0	body	body-51.jpg	0.0	154.91307863809925	0.11670714574574959
137.0	68.51858475945482	body	0.0		46.0	body	body-83.jpg	0.0	155.029785783845	0.3832907412433997
137.0	68.60199883965834	pulse	0.0	t		body	body-83.jpg	0.0	155.1131998640485	
137.0	68.90187550069822	ISI	1.0		7.0	body	body-83.jpg	0.0	155.4130765250884	0.11670110860723071
138.0	69.01857660930546	body	0.0		46.0	body	body-121.jpg	0.0	155.52977763369563	0.3832937598199351
138.0	69.30200022819918	pulse	0.0	t		body	body-121.jpg	0.0	155.81320125258935	
138.0	69.40187036912539	ISI	1.0		6.0	body	body-121.jpg	0.0	155.91307139351557	0.11668209158233367
139.0	69.51855246070772	body	0.0		46.0	body	body-46.jpg	0.0	156.0297534850979	0.38330643784138374
139.0	69.90185889854911	ISI	1.0		7.0	body	body-46.jpg	0.0	156.41305992293928	0.11668752500554547
140.0	70.01854642355465	body	0.0		45.0	body	body-46.jpg	1.0	156.52974744794483	0.3833444718766259
140.0	70.0086122948851	pulse	0.0	t		body	body-46.jpg	1.0	156.51981331927527	
140.0	70.38534789976256	response	0.0	b		body	body-46.jpg	1.0	156.89654892415274	
140.0	70.40189089543128	ISI	1.0		6.0	body	body-46.jpg	1.0	156.91309191982145	0.11668722315516789
141.0	70.51857811858645	body	0.0		46.0	body	body-31.jpg	0.0	157.02977914297662	0.3833079471223755
141.0	70.70200481642678	pulse	0.0	t		body	body-31.jpg	0.0	157.21320584081695	
141.0	70.90188606570882	ISI	1.0		5.0	body	body-31.jpg	0.0	157.413087090099	0.11671167361782864
142.0	71.01859773932665	body	0.0		46.0	body	body-64.jpg	0.0	157.52979876371683	0.38327957251749467
142.0	71.40187731184415	ISI	1.0		5.0	body	body-64.jpg	0.0	157.91307833623432	0.11670171232253779
142.0	71.45472983455693	pulse	1.0	t		body	body-64.jpg	0.0	157.9659308589471	
143.0	71.51857902416668	body	0.0		46.0	body	body-57.jpg	0.0	158.02978004855686	0.38329134495870676
143.0	71.90187036912539	ISI	1.0		11.0	body	body-57.jpg	0.0	158.41307139351557	0.1000621222628979
144.0	72.00193249138829	baseline	0.0		48.0		baseline	0.0	158.51313351577846	0.3999713839148171
144.0	72.10203445883235	pulse	0.0	t			baseline	0.0	158.61323548322252	
144.0	72.4019038753031	ISI	1.0		11.0		baseline	0.0	158.91310489969328	0.09999420434178319
145.0	72.50189807964489	baseline	0.0		48.0		baseline	0.0	159.01309910403506	0.3999916083557764
145.0	72.80201924522407	pulse	0.0	t			baseline	0.0	159.31322026961425	
145.0	72.90188968800067	ISI	1.0		11.0		baseline	0.0	159.41309071239084	0.09998937461932655
146.0	73.00187906261999	baseline	0.0		48.0		baseline	0.0	159.51308008701017	0.4000088142347522
146.0	73.40188787685474	ISI	1.0		11.0		baseline	0.0	159.91308890124492	0.09999601548770443
147.0	73.50188389234245	baseline	0.0		47.0		baseline	0.0	160.01308491673262	0.40000156965106726
147.0	73.50624905292352	pulse	0.0	t			baseline	0.0	160.0174500773137	
147.0	73.90188546199352	ISI	1.0		11.0		baseline	0.0	160.4130864863837	0.10000205264077522
148.0	74.00188751463429	baseline	0.0		48.0		baseline	0.0	160.51308853902447	0.39998164706048556
148.0	74.20200753315294	pulse	0.0	t			baseline	0.0	160.7132085575431	
148.0	74.40186916169478	ISI	1.0		11.0		baseline	0.0	160.91307018608495	0.09999631733808201
149.0	74.50186547903286	baseline	0.0		48.0		baseline	0.0	161.01306650342303	0.40000760680413805
149.0	74.901873085837	ISI	1.0		11.0		baseline	0.0	161.41307411022717	0.10000084521016106
149.0	74.90655730974686	pulse	1.0	t			baseline	0.0	161.41775833413703	
150.0	75.00187393104716	baseline	0.0		48.0		baseline	0.0	161.51307495543733	0.39998979720985517
150.0	75.40186372825701	ISI	1.0		11.0		baseline	0.0	161.9130647526472	0.1000023544911528
151.0	75.50186608274817	baseline	0.0		48.0		baseline	0.0	162.01306710713834	0.399992513936013
151.0	75.60207973745128	pulse	0.0	t			baseline	0.0	162.11328076184145	
151.0	75.90185859668418	ISI	1.0		11.0		baseline	0.0	162.41305962107435	0.09998726162302773
152.0	76.0018458583072	baseline	0.0		48.0		baseline	0.0	162.51304688269738	0.40000760680413805
152.0	76.30197457032045	pulse	0.0	t			baseline	0.0	162.81317559471063	
152.0	76.40185346511134	ISI	1.0		11.0		baseline	0.0	162.91305448950152	0.09999571362277493
153.0	76.50184917873412	baseline	0.0		48.0		baseline	0.0	163.0130502031243	0.39999915480439086
153.0	76.90184833353851	ISI	1.0		11.0		baseline	0.0	163.41304935792868	0.0999936006119242
154.0	77.00184193415043	baseline	0.0		47.0		baseline	0.0	163.5130429585406	0.40000458824215457
154.0	77.00621675417642	pulse	0.0	t			baseline	0.0	163.5174177785666	
154.0	77.40184652239259	ISI	1.0		11.0		baseline	0.0	163.91304754678276	0.09999692105338909
155.0	77.50184344344598	baseline	0.0		48.0		baseline	0.0	164.01304446783615	0.39998225077579264
155.0	77.70195682109625	pulse	0.0	t			baseline	0.0	164.21315784548642	
155.0	77.90182569422177	ISI	1.0		5.0		baseline	0.0	164.41302671861195	0.11668239344726317
156.0	78.01850808766903	car	0.0		46.0	object	car-91.jpg	0.0	164.5297091120592	0.38329194867401384
156.0	78.40180003634305	ISI	1.0		6.0	object	car-91.jpg	0.0	164.91300106073322	0.1166839027282549
156.0	78.44497621664777	pulse	1.0	t		object	car-91.jpg	0.0	164.95617724103795	
157.0	78.5184839390713	car	0.0		46.0	object	car-86.jpg	0.0	165.02968496346148	0.38330855083768256
157.0	78.90179248990898	ISI	1.0		6.0	object	car-86.jpg	0.0	165.41299351429916	0.11670352345390711
158.0	79.01849601336289	car	0.0		46.0	object	car-48.jpg	0.0	165.52969703775307	0.38328832638217136
158.0	79.10195929632755	pulse	0.0	t		object	car-48.jpg	0.0	165.61316032071772	
158.0	79.40178433974506	ISI	1.0		7.0	object	car-48.jpg	0.0	165.91298536413524	0.11669326030823868
159.0	79.5184776000533	car	0.0		46.0	object	car-137.jpg	0.0	166.02967862444348	0.38329526911547873
159.0	79.80189759666973	pulse	0.0	t		object	car-137.jpg	0.0	166.3130986210599	
159.0	79.90177286916878	ISI	1.0		6.0	object	car-137.jpg	0.0	166.41297389355896	0.11668933616601862
160.0	80.0184622053348	car	0.0		46.0	object	car-72.jpg	0.0	166.52966322972497	0.38329496725054923
160.0	80.40175717258535	ISI	1.0		5.0	object	car-72.jpg	0.0	166.91295819697552	0.11674065192346461
161.0	80.51849782450881	car	0.0		45.0	object	car-42.jpg	0.0	167.029698848899	0.3832678000762826
161.0	80.50860414473573	pulse	0.0	t		object	car-42.jpg	0.0	167.0198051691259	
161.0	80.9017656245851	ISI	1.0		5.0	object	car-42.jpg	0.0	167.41296664897527	0.11668148786702659
162.0	81.01844711245212	car	0.0		46.0	object	car-115.jpg	0.0	167.5296481368423	0.3833130787097616
162.0	81.20187109358085	pulse	0.0	t		object	car-115.jpg	0.0	167.71307211797102	
162.0	81.40176019116188	ISI	1.0		7.0	object	car-115.jpg	0.0	167.91296121555206	0.11668541200924665
163.0	81.51844560317113	car	0.0		46.0	object	car-128.jpg	0.0	168.0296466275613	0.383293156104628
163.0	81.90173875927576	ISI	1.0		5.0	object	car-128.jpg	0.0	168.41293978366593	0.11667484699864872
163.0	81.95300471923838	pulse	1.0	t		object	car-128.jpg	0.0	168.46420574362855	
164.0	82.01841360627441	car	0.0		46.0	object	car-141.jpg	0.0	168.52961463066458	0.3832819873932749
164.0	82.40169559366768	ISI	1.0		7.0	object	car-141.jpg	0.0	168.91289661805786	0.11670563646475784
165.0	82.51840123013244	car	0.0		46.0	object	car-97.jpg	0.0	169.02960225452262	0.38330885268806014
165.0	82.60184670350282	pulse	0.0	t		object	car-97.jpg	0.0	169.113047727893	
165.0	82.9017100828205	ISI	1.0		7.0	object	car-97.jpg	0.0	169.41291110721068	0.1166724321374204
166.0	83.01838251495792	car	0.0		46.0	object	car-121.jpg	0.0	169.5295835393481	0.3833269641472725
166.0	83.30182545274147	pulse	0.0	t		object	car-121.jpg	0.0	169.81302647713164	
166.0	83.4017094791052	ISI	1.0		7.0	object	car-121.jpg	0.0	169.91291050349537	0.11668148786702659
167.0	83.51839096697222	car	0.0		46.0	object	car-45.jpg	0.0	170.0295919913624	0.3833103619836038
167.0	83.90170132895582	ISI	1.0		6.0	object	car-45.jpg	0.0	170.412902353346	0.1166869213047903
168.0	84.01838825026061	car	0.0		45.0	object	car-67.jpg	0.0	170.5295892746508	0.3833079471223755
168.0	84.0086965131195	pulse	0.0	t		object	car-67.jpg	0.0	170.51989753750968	
168.0	84.40169619738299	ISI	1.0		7.0	object	car-67.jpg	0.0	170.91289722177316	0.11670201417291537
169.0	84.5183982115559	car	0.0		46.0	object	car-63.jpg	0.0	171.02959923594608	0.3832792706525652
169.0	84.70182430568093	pulse	0.0	t		object	car-63.jpg	0.0	171.2130253300711	
169.0	84.90167748220847	ISI	1.0		7.0	object	car-63.jpg	0.0	171.41287850659864	0.11669114731193986
170.0	85.01836862952041	car	0.0		46.0	object	car-49.jpg	0.0	171.52956965391058	0.38330885268806014
170.0	85.40167748220847	ISI	1.0		5.0	object	car-49.jpg	0.0	171.91287850659864	0.11668963803094812
170.0	85.4523533108586	pulse	1.0	t		object	car-49.jpg	0.0	171.96355433524877	
171.0	85.51836712023942	car	0.0		46.0	object	car-120.jpg	0.0	172.0295681446296	0.38331760655273683
171.0	85.90168472679215	ISI	1.0		6.0	object	car-120.jpg	0.0	172.41288575118233	0.11669386402354576
172.0	86.0183785908157	car	0.0		46.0	object	car-55.jpg	0.0	172.52957961520588	0.3832907412433997
172.0	86.10180655645672	pulse	0.0	t		object	car-55.jpg	0.0	172.6130075808469	
172.0	86.4016693320591	ISI	1.0		7.0	object	car-55.jpg	0.0	172.91287035644928	0.11666367828729562
173.0	86.5183330103464	car	0.0		46.0	object	car-117.jpg	0.0	173.02953403473657	0.383333303136169
173.0	86.80179043726821	pulse	0.0	t		object	car-117.jpg	0.0	173.31299146165838	
173.0	86.90166631348256	ISI	1.0		5.0	object	car-117.jpg	0.0	173.41286733787274	0.11670261790277436
174.0	87.01836893138534	car	0.0		46.0	object	car-88.jpg	0.0	173.52956995577551	0.38328893009747844
174.0	87.40165786148282	ISI	1.0		6.0	object	car-88.jpg	0.0	173.912858885873	0.11668209158233367
175.0	87.51833995306515	car	0.0		45.0	object	car-56.jpg	0.0	174.02954097745533	0.38334839601884596
175.0	87.50849940020998	pulse	0.0	t		object	car-56.jpg	0.0	174.01970042460016	
175.0	87.901688349084	ISI	1.0		6.0	object	car-56.jpg	0.0	174.41288937347417	0.1166923547280021
176.0	88.018380703812	car	0.0		46.0	object	car-74.jpg	0.0	174.52958172820217	0.3832988914073212
176.0	88.20179713850666	pulse	0.0	t		object	car-74.jpg	0.0	174.71299816289684	
176.0	88.40167959521932	ISI	1.0		5.0	object	car-74.jpg	0.0	174.9128806196095	0.11668993986677378
177.0	88.5183695350861	car	0.0		46.0	object	car-77.jpg	0.0	175.02957055947627	0.38330643784138374
177.0	88.90167597292748	ISI	1.0		7.0	object	car-77.jpg	0.0	175.41287699731765	0.11668178973195609
177.0	88.93885907542426	pulse	1.0	t		object	car-77.jpg	0.0	175.45006009981444	
178.0	89.01835776265943	car	0.0		46.0	object	car-95.jpg	0.0	175.5295587870496	0.3833103619690519
178.0	89.40166812462849	ISI	1.0		7.0	object	car-95.jpg	0.0	175.91286914901866	0.11670503274945077
179.0	89.51837315737794	car	0.0		46.0	object	car-52.jpg	0.0	176.0295741817681	0.38327806323650293
179.0	89.60179750074167	pulse	0.0	t		object	car-52.jpg	0.0	176.11299852513184	
179.0	89.90165122061444	ISI	1.0		6.0	object	car-52.jpg	0.0	176.41285224500461	0.11674125563877169
180.0	90.01839247625321	word	0.0		46.0	character	word-140.jpg	0.0	176.5295935006434	0.38325723508023657
180.0	90.301778664827	pulse	0.0	t		character	word-140.jpg	0.0	176.81297968921717	
180.0	90.40164971133345	ISI	1.0		6.0	character	word-140.jpg	0.0	176.91285073572362	0.1167155977600487
181.0	90.5183653090935	word	0.0		46.0	character	word-83.jpg	0.0	177.02956633348367	0.3832783650868805
181.0	90.90164367418038	ISI	1.0		7.0	character	word-83.jpg	0.0	177.41284469857055	0.11668843058578204
182.0	91.01833210476616	word	0.0		45.0	character	word-69.jpg	0.0	177.52953312915633	0.38331156941421796
182.0	91.00868474067829	pulse	0.0	t		character	word-69.jpg	0.0	177.51988576506847	
182.0	91.40164367418038	ISI	1.0		6.0	character	word-69.jpg	0.0	177.91284469857055	0.11670442903414369
183.0	91.51834810321452	word	0.0		46.0	character	word-11.jpg	0.0	178.0295491276047	0.3832961746811634
183.0	91.70176182118303	pulse	0.0	t		character	word-11.jpg	0.0	178.2129628455732	
183.0	91.90164427789568	ISI	1.0		7.0	character	word-11.jpg	0.0	178.41284530228586	0.11668903430108912
184.0	92.01833331219677	word	0.0		46.0	character	word-112.jpg	0.0	178.52953433658695	0.38328289295895956
184.0	92.40161620515573	ISI	1.0		5.0	character	word-112.jpg	0.0	178.9128172295459	0.1166896380163962
184.0	92.45839317656646	pulse	1.0	t		character	word-112.jpg	0.0	178.96959420095664	
185.0	92.51830584317213	word	0.0		46.0	character	word-33.jpg	0.0	179.0295068675623	0.3833248511364218
185.0	92.90163069430855	ISI	1.0		7.0	character	word-33.jpg	0.0	179.41283171869873	0.11669386402354576
186.0	93.0183245583321	word	0.0		46.0	character	word-15.jpg	0.0	179.52952558272227	0.38329526911547873
186.0	93.10175493883435	pulse	0.0	t		character	word-15.jpg	0.0	179.61295596322452	
186.0	93.40161982744758	ISI	1.0		7.0	character	word-15.jpg	0.0	179.91282085183775	0.11667484699864872
187.0	93.51829467444622	word	0.0		46.0	character	word-138.jpg	0.0	180.0294956988364	0.38332545485172886
187.0	93.80174727166013	pulse	0.0	t		character	word-138.jpg	0.0	180.3129482960503	
187.0	93.90162012929795	ISI	1.0		6.0	character	word-138.jpg	0.0	180.41282115368813	0.11668873245071154
188.0	94.01830886174866	word	0.0		46.0	character	word-98.jpg	0.0	180.52950988613884	0.3833022118342342
188.0	94.4016110735829	ISI	1.0		6.0	character	word-98.jpg	0.0	180.91281209797307	0.11668329899839591
189.0	94.5182943725813	word	0.0		45.0	character	word-16.jpg	0.0	181.02949539697147	0.3833052304107696
189.0	94.50879431492649	pulse	0.0	t		character	word-16.jpg	0.0	181.01999533931667	
189.0	94.90159960299206	ISI	1.0		7.0	character	word-16.jpg	0.0	181.41280062738224	0.11671137175289914
190.0	95.01831097474496	word	0.0		46.0	character	word-17.jpg	0.0	181.52951199913514	0.38329164682363626
190.0	95.2017228815821	pulse	0.0	t		character	word-17.jpg	0.0	181.71292390597227	
190.0	95.4016026215686	ISI	1.0		7.0	character	word-17.jpg	0.0	181.91280364595877	0.11668420457863249
191.0	95.51828682614723	word	0.0		46.0	character	word-73.jpg	0.0	182.0294878505374	0.38332545485172886
191.0	95.90161228099896	ISI	1.0		6.0	character	word-73.jpg	0.0	182.41281330538914	0.11664888726954814
191.0	95.94863714379608	pulse	1.0	t		character	word-73.jpg	0.0	182.45983816818625	
192.0	96.01826116826851	car	0.0		46.0	object	car-80.jpg	0.0	182.52946219265868	0.3833251530013513
192.0	96.40158632126986	ISI	1.0		7.0	object	car-80.jpg	0.0	182.91278734566004	0.11668571387417614
193.0	96.51827203514404	car	0.0		46.0	object	car-25.jpg	0.0	183.0294730595342	0.3833160972717451
193.0	96.60170905650011	pulse	0.0	t		object	car-25.jpg	0.0	183.1129100808903	
193.0	96.90158813241578	ISI	1.0		7.0	object	car-25.jpg	0.0	183.41278915680596	0.11668873243615963
194.0	97.01827686485194	car	0.0		46.0	object	car-122.jpg	0.0	183.52947788924212	0.3832650833646767
194.0	97.30166456272127	pulse	0.0	t		object	car-122.jpg	0.0	183.81286558711145	
194.0	97.40154194821662	ISI	1.0		7.0	object	car-122.jpg	0.0	183.9127429726068	0.11669175102724694
195.0	97.51823369924386	car	0.0		46.0	object	car-61.jpg	0.0	184.02943472363404	0.38328530780563597
195.0	97.9015190070495	ISI	1.0		6.0	object	car-61.jpg	0.0	184.41272003143968	0.11671408847905695
196.0	98.01823309552856	car	0.0		45.0	object	car-68.jpg	0.0	184.52943411991873	0.38329798582708463
196.0	98.00936905152048	pulse	0.0	t		object	car-68.jpg	0.0	184.52057007591065	
196.0	98.40153108135564	ISI	1.0		6.0	object	car-68.jpg	0.0	184.91273210574582	0.11669024173170328
197.0	98.51822132308735	car	0.0		46.0	object	car-125.jpg	0.0	185.02942234747752	0.38330553226114716
197.0	98.7016588878032	pulse	0.0	t		object	car-125.jpg	0.0	185.21285991219338	
197.0	98.9015268553485	ISI	1.0		6.0	object	car-125.jpg	0.0	185.41272787973867	0.11670231603784487
198.0	99.01822917138634	car	0.0		46.0	object	car-107.jpg	0.0	185.5294301957765	0.3832750446454156
198.0	99.40150421603175	ISI	1.0		5.0	object	car-107.jpg	0.0	185.91270524042193	0.11673612406593747
198.0	99.45124398473126	pulse	1.0	t		object	car-107.jpg	0.0	185.96244500912144	
199.0	99.51824034009769	car	0.0		46.0	object	car-103.jpg	0.0	186.02944136448787	0.3832877226814162
199.0	99.90152806277911	ISI	1.0		7.0	object	car-103.jpg	0.0	186.41272908716928	0.11668722315516789
200.0	100.01821528593428	car	0.0		46.0	object	car-76.jpg	0.0	186.52941631032445	0.38329436353524216
200.0	100.10165109987429	pulse	0.0	t		object	car-76.jpg	0.0	186.61285212426446	
200.0	100.40150964946952	ISI	1.0		7.0	object	car-76.jpg	0.0	186.9127106738597	0.11668661945441272
201.0	100.51819626892393	car	0.0		46.0	object	car-76.jpg	1.0	187.0293972933141	0.3833124749799026
201.0	100.80162864168233	pulse	0.0	t		object	car-76.jpg	1.0	187.3128296660725	
201.0	100.89328584511532	response	0.0	b		object	car-76.jpg	1.0	187.4044868695055	
201.0	100.90150874390383	ISI	1.0		5.0	object	car-76.jpg	1.0	187.412709768294	0.116695675169467
202.0	101.0182044190733	car	0.0		46.0	object	car-16.jpg	0.0	187.52940544346347	0.38329738211177755
202.0	101.40150180118508	ISI	1.0		7.0	object	car-16.jpg	0.0	187.91270282557525	0.11668450642901007
203.0	101.51818630761409	car	0.0		45.0	object	car-131.jpg	0.0	188.02938733200426	0.3833109656989109
203.0	101.50840310768399	pulse	0.0	t		object	car-131.jpg	0.0	188.01960413207416	
203.0	101.901497273313	ISI	1.0		7.0	object	car-131.jpg	0.0	188.41269829770317	0.11668511015886907
204.0	102.01818238347187	adult	0.0		46.0	face	adult-33.jpg	0.0	188.52938340786204	0.3832961746811634
204.0	102.20161149617343	pulse	0.0	t		face	adult-33.jpg	0.0	188.7128125205636	
204.0	102.40147855815303	ISI	1.0		6.0	face	adult-33.jpg	0.0	188.9126795825432	0.11669235474255402
205.0	102.51817091289558	adult	0.0		46.0	face	adult-120.jpg	0.0	189.02937193728576	0.3833046266809106
205.0	102.9014755395765	ISI	1.0		4.0	face	adult-120.jpg	0.0	189.41267656396667	0.11669326030823868
205.0	102.96299921939499	pulse	1.0	t		face	adult-120.jpg	0.0	189.47420024378516	
206.0	103.01816879988473	adult	0.0		46.0	face	adult-17.jpg	0.0	189.5293698242749	0.3833188139979029
206.0	103.40148761388264	ISI	1.0		6.0	face	adult-17.jpg	0.0	189.9126886382728	0.11669929744675756
207.0	103.5181869113294	adult	0.0		46.0	face	adult-96.jpg	0.0	190.02938793571957	0.38331971956358757
207.0	103.60162815870717	pulse	0.0	t		face	adult-96.jpg	0.0	190.11282918309735	
207.0	103.90150663089298	ISI	1.0		6.0	face	adult-96.jpg	0.0	190.41270765528316	0.11668480830849148
208.0	104.01819143920147	adult	0.0		46.0	face	adult-85.jpg	0.0	190.52939246359165	0.38327715765626635
208.0	104.30159875779646	pulse	0.0	t		face	adult-85.jpg	0.0	190.81279978218663	
208.0	104.40146859685774	ISI	1.0		6.0	face	adult-85.jpg	0.0	190.91266962124791	0.11667937487072777
209.0	104.51814797172847	adult	0.0		46.0	face	adult-111.jpg	0.0	191.02934899611864	0.38328832638217136
209.0	104.90143629811064	ISI	1.0		6.0	face	adult-111.jpg	0.0	191.4126373225008	0.11669356217316817
210.0	105.0181298602838	adult	0.0		45.0	face	adult-53.jpg	0.0	191.52933088467398	0.38330040067376103
210.0	105.00827059225412	pulse	0.0	t		face	adult-53.jpg	0.0	191.5194716166443	
210.0	105.40143026095757	ISI	1.0		5.0	face	adult-53.jpg	0.0	191.91263128534774	0.11676630981673952
211.0	105.51819657077431	adult	0.0		46.0	face	adult-131.jpg	0.0	192.02939759516448	0.38322584189882036
211.0	105.70156682126981	pulse	0.0	t		face	adult-131.jpg	0.0	192.21276784565998	
211.0	105.90142241267313	ISI	1.0		5.0	face	adult-131.jpg	0.0	192.4126234370633	0.11670895689167082
212.0	106.0181313695648	adult	0.0		46.0	face	adult-40.jpg	0.0	192.52933239395497	0.38330643784138374
212.0	106.40143780740618	ISI	1.0		6.0	face	adult-40.jpg	0.0	192.91263883179636	0.1167065420304425
212.0	106.44421613958548	pulse	1.0	t		face	adult-40.jpg	0.0	192.95541716397565	
213.0	106.51814434943662	adult	0.0		46.0	face	adult-11.jpg	0.0	193.0293453738268	0.383293156104628
213.0	106.90143750554125	ISI	1.0		6.0	face	adult-11.jpg	0.0	193.41263852993143	0.11669869374600239
214.0	107.01813619928726	adult	0.0		46.0	face	adult-77.jpg	0.0	193.52933722367743	0.3832904393930221
214.0	107.10155842964014	pulse	0.0	t		face	adult-77.jpg	0.0	193.6127594540303	
214.0	107.40142663868028	ISI	1.0		7.0	face	adult-77.jpg	0.0	193.91262766307045	0.11670412716921419
215.0	107.51813076584949	adult	0.0		46.0	face	adult-74.jpg	0.0	194.02933179023967	0.3832907412433997
215.0	107.80154321601731	pulse	0.0	t		face	adult-74.jpg	0.0	194.31274424040748	
215.0	107.90142150709289	ISI	1.0		6.0	face	adult-74.jpg	0.0	194.41262253148307	0.11668752502009738
216.0	108.01810903211299	house	0.0		46.0	place	house-144.jpg	0.0	194.52931005650316	0.3832874208164867
216.0	108.40139645292948	ISI	1.0		6.0	place	house-144.jpg	0.0	194.91259747731965	0.11671408847905695
217.0	108.51811054140853	house	0.0		45.0	place	house-138.jpg	0.0	195.0293115657987	0.3832816855137935
217.0	108.51010407440481	pulse	0.0	t		place	house-138.jpg	0.0	195.02130509879498	
217.0	108.90139222692233	ISI	1.0		6.0	place	house-138.jpg	0.0	195.4125932513125	0.11670050489192363
218.0	109.01809273181425	house	0.0		46.0	place	house-113.jpg	0.0	195.52929375620442	0.38331458797620144
218.0	109.2015296928148	pulse	0.0	t		place	house-113.jpg	0.0	195.71273071720498	
218.0	109.40140731979045	ISI	1.0		6.0	place	house-113.jpg	0.0	195.91260834418063	0.11667907302035019
219.0	109.5180863928108	house	0.0		46.0	place	house-16.jpg	0.0	196.02928741720098	0.38331700283742975
219.0	109.90140339564823	ISI	1.0		6.0	place	house-16.jpg	0.0	196.4126044200384	0.11668450644356199
219.0	109.94516155711608	pulse	1.0	t		place	house-16.jpg	0.0	196.45636258150626	
220.0	110.01808790209179	house	0.0		46.0	place	house-101.jpg	0.0	196.52928892648197	0.3833444718766259
220.0	110.40143237396842	ISI	1.0		7.0	place	house-101.jpg	0.0	196.9126333983586	0.11668209158233367
221.0	110.51811446555075	house	0.0		46.0	place	house-23.jpg	0.0	197.02931548994093	0.38327413907973096
221.0	110.60151013244467	pulse	0.0	t		place	house-23.jpg	0.0	197.11271115683485	
221.0	110.90138860463048	ISI	1.0		6.0	place	house-23.jpg	0.0	197.41258962902066	0.1166869213047903
222.0	111.01807552593527	house	0.0		46.0	place	house-36.jpg	0.0	197.52927655032545	0.3833016081189271
222.0	111.30151393584674	pulse	0.0	t		place	house-36.jpg	0.0	197.81271496023692	
222.0	111.4013771340542	ISI	1.0		7.0	place	house-36.jpg	0.0	197.91257815844438	0.11667333771765698
223.0	111.51805047177186	house	0.0		46.0	place	house-123.jpg	0.0	198.02925149616203	0.3833305864245631
223.0	111.90138105819642	ISI	1.0		7.0	place	house-123.jpg	0.0	198.4125820825866	0.1166730358672794
224.0	112.0180540940637	house	0.0		45.0	place	house-12.jpg	0.0	198.52925511845388	0.38331126754928846
224.0	112.00999661315291	pulse	0.0	t		place	house-12.jpg	0.0	198.52119763754308	
224.0	112.40136536161299	ISI	1.0		6.0	place	house-12.jpg	0.0	198.91256638600316	0.11669476958923042
225.0	112.51806013120222	house	0.0		46.0	place	house-61.jpg	0.0	199.0292611555924	0.38330281554954126
225.0	112.70148592347687	pulse	0.0	t		place	house-61.jpg	0.0	199.21268694786704	
225.0	112.90136294675176	ISI	1.0		8.0	place	house-61.jpg	0.0	199.41256397114194	0.1166839027282549
226.0	113.01804684948002	house	0.0		46.0	place	house-68.jpg	0.0	199.5292478738702	0.38330824897275306
226.0	113.40135509845277	ISI	1.0		7.0	place	house-68.jpg	0.0	199.91255612284294	0.11669205287762452
226.0	113.43817808502354	pulse	1.0	t		place	house-68.jpg	0.0	199.9493791094137	
227.0	113.51804715133039	house	0.0		46.0	place	house-31.jpg	0.0	200.02924817572057	0.3833133805601392
227.0	113.90136053189053	ISI	1.0		6.0	place	house-31.jpg	0.0	200.4125615562807	0.1166757525788853
228.0	114.01803628446942	adult	0.0		46.0	face	adult-106.jpg	0.0	200.5292373088596	0.3833070415421389
228.0	114.10146153339883	pulse	0.0	t		face	adult-106.jpg	0.0	200.612662557789	
228.0	114.40134332601156	ISI	1.0		8.0	face	adult-106.jpg	0.0	200.91254435040173	0.11670654204499442
229.0	114.51804986805655	adult	0.0		46.0	face	adult-129.jpg	0.0	201.02925089244673	0.3832958728162339
229.0	114.80146292193967	pulse	0.0	t		face	adult-129.jpg	0.0	201.31266394632985	
229.0	114.90134574087278	ISI	1.0		5.0	face	adult-129.jpg	0.0	201.41254676526296	0.11668450644356199
230.0	115.01803024731635	adult	0.0		46.0	face	adult-24.jpg	0.0	201.52923127170652	0.3832985895423917
230.0	115.40132883685874	ISI	1.0		6.0	face	adult-24.jpg	0.0	201.9125298612489	0.1166842045931844
231.0	115.51801304145192	adult	0.0		45.0	face	adult-57.jpg	0.0	202.0292140658421	0.3833191158337286
231.0	115.50915080857521	pulse	0.0	t		face	adult-57.jpg	0.0	202.0203518329654	
231.0	115.90133215728565	ISI	1.0		4.0	face	adult-57.jpg	0.0	202.41253318167583	0.1166842045931844
232.0	116.01801636187884	adult	0.0		46.0	face	adult-134.jpg	0.0	202.529217386269	0.38330311739991885
232.0	116.20144517271547	pulse	0.0	t		face	adult-134.jpg	0.0	202.71264619710564	
232.0	116.40131947927875	ISI	1.0		3.0	face	adult-134.jpg	0.0	202.91252050366893	0.10836803185520694
233.0	116.50968751113396	adult	0.0		47.0	face	adult-79.jpg	0.0	203.02088853552414	0.3916603427496739
233.0	116.90134785388364	ISI	1.0		6.0	face	adult-79.jpg	0.0	203.4125488782738	0.11669024173170328
233.0	116.94283725475543	pulse	1.0	t		face	adult-79.jpg	0.0	203.4540382791456	
234.0	117.01803809561534	adult	0.0		46.0	face	adult-56.jpg	0.0	203.5292391200055	0.3833067396917613
234.0	117.4013448353071	ISI	1.0		6.0	face	adult-56.jpg	0.0	203.91254585969727	0.11668329901294783
235.0	117.51802813432005	adult	0.0		46.0	face	adult-56.jpg	1.0	204.02922915871022	0.38331488984113093
235.0	117.60147572070127	pulse	0.0	t		face	adult-56.jpg	1.0	204.11267674509145	
235.0	117.90134302416118	ISI	1.0		5.0	face	adult-56.jpg	1.0	204.41254404855135	0.11670171232253779
236.0	118.01804473648372	adult	0.0		46.0	face	adult-113.jpg	0.0	204.5292457608739	0.3832662907807389
236.0	118.1764465461747	response	0.0	b		face	adult-113.jpg	0.0	204.68764757056488	
236.0	118.30143907520687	pulse	0.0	t		face	adult-113.jpg	0.0	204.81264009959705	
236.0	118.40131102726446	ISI	1.0		5.0	face	adult-113.jpg	0.0	204.91251205165463	0.11676027266366873
237.0	118.51807129992812	adult	0.0		46.0	face	adult-45.jpg	0.0	205.0292723243183	0.3832617629377637
237.0	118.90133306286589	ISI	1.0		6.0	face	adult-45.jpg	0.0	205.41253408725606	0.11667997858603485
238.0	119.01801304145192	adult	0.0		45.0	face	adult-89.jpg	0.0	205.5292140658421	0.3833064378268318
238.0	119.0050117392384	pulse	0.0	t		face	adult-89.jpg	0.0	205.51621276362857	
238.0	119.40131947927875	ISI	1.0		5.0	face	adult-89.jpg	0.0	205.91252050366893	0.11669507145415992
239.0	119.51801455073291	adult	0.0		46.0	face	adult-25.jpg	0.0	206.0292155751231	0.3833052304107696
239.0	119.70144215415348	pulse	0.0	t		face	adult-25.jpg	0.0	206.21264317854366	
239.0	119.90131978114368	ISI	1.0		6.0	face	adult-25.jpg	0.0	206.41252080553386	0.11670080674230121
240.0	120.01802058788599	body	0.0		46.0	body	body-133.jpg	0.0	206.52922161227616	0.3832871189515572
240.0	120.40130770683754	ISI	1.0		7.0	body	body-133.jpg	0.0	206.91250873122772	0.1166899398813257
240.0	120.43831875060278	pulse	1.0	t		body	body-133.jpg	0.0	206.94951977499295	
241.0	120.51799764671887	body	0.0		46.0	body	body-133.jpg	1.0	207.02919867110904	0.38327776137157343
241.0	120.90127540809044	ISI	1.0		6.0	body	body-133.jpg	1.0	207.41247643248062	0.11669929746130947
242.0	121.01797470555175	body	0.0		46.0	body	body-88.jpg	0.0	207.52917572994193	0.38328832638217136
242.0	121.02651696951943	response	0.0	b		body	body-88.jpg	0.0	207.5377179939096	
242.0	121.1013833523175	pulse	0.0	t		body	body-88.jpg	0.0	207.61258437670767	
242.0	121.40126303193392	ISI	1.0		5.0	body	body-88.jpg	0.0	207.9124640563241	0.11669326030823868
243.0	121.51795629224216	body	0.0		46.0	body	body-65.jpg	0.0	208.02915731663234	0.38330311739991885
243.0	121.80138081671612	pulse	0.0	t		body	body-65.jpg	0.0	208.3125818411063	
243.0	121.90125940964208	ISI	1.0		6.0	body	body-65.jpg	0.0	208.41246043403225	0.11668239344726317
244.0	122.01794180308934	body	0.0		46.0	body	body-134.jpg	0.0	208.52914282747952	0.3833100601186743
244.0	122.40125186320802	ISI	1.0		5.0	body	body-134.jpg	0.0	208.9124528875982	0.11667696000949945
245.0	122.51792882321752	body	0.0		45.0	body	body-67.jpg	0.0	209.0291298476077	0.38331790841766633
245.0	122.50963408236566	pulse	0.0	t		body	body-67.jpg	0.0	209.02083510675584	
245.0	122.90124673163518	ISI	1.0		5.0	body	body-67.jpg	0.0	209.41244775602536	0.1166869213047903
246.0	123.01793365293997	body	0.0		46.0	body	body-122.jpg	0.0	209.52913467733015	0.3833070415421389
246.0	123.20137453808275	pulse	0.0	t		body	body-122.jpg	0.0	209.71257556247292	
246.0	123.40124069448211	ISI	1.0		5.0	body	body-122.jpg	0.0	209.9124417188723	0.11668269529764075
247.0	123.51792338977975	body	0.0		46.0	body	body-116.jpg	0.0	210.02912441416993	0.38331458799075335
247.0	123.9012379777705	ISI	1.0		6.0	body	body-116.jpg	0.0	210.41243900216068	0.11670171230798587
247.0	123.94970209688472	pulse	1.0	t		body	body-116.jpg	0.0	210.4609031212749	
248.0	124.01793969007849	body	0.0		46.0	body	body-16.jpg	0.0	210.52914071446867	0.38329496726510115
248.0	124.4012346573436	ISI	1.0		6.0	body	body-16.jpg	0.0	210.91243568173377	0.11667635627964046
249.0	124.51791101362323	body	0.0		46.0	body	body-1.jpg	0.0	211.0291120380134	0.383315493556438
249.0	124.60134863870917	pulse	0.0	t		body	body-1.jpg	0.0	211.11254966309934	
249.0	124.90122650717967	ISI	1.0		5.0	body	body-1.jpg	0.0	211.41242753156985	0.11668118601664901
250.0	125.01790769319632	body	0.0		46.0	body	body-40.jpg	0.0	211.5291087175865	0.38331187126459554
250.0	125.30133946223941	pulse	0.0	t		body	body-40.jpg	0.0	211.8125404866296	
250.0	125.40121956446092	ISI	1.0		7.0	body	body-40.jpg	0.0	211.9124205888511	0.11668571387417614
251.0	125.51790527833509	body	0.0		46.0	body	body-49.jpg	0.0	212.02910630272527	0.3833079471223755
251.0	125.90121322545747	ISI	1.0		5.0	body	body-49.jpg	0.0	212.41241424984764	0.11667877115542069
252.0	126.01789199661289	car	0.0		45.0	object	car-17.jpg	0.0	212.52909302100306	0.383315493556438
252.0	126.00994559924584	pulse	0.0	t		object	car-17.jpg	0.0	212.521146623636	
252.0	126.40120749016933	ISI	1.0		5.0	object	car-17.jpg	0.0	212.9124085145595	0.1166866194398608
253.0	126.51789410960919	car	0.0		46.0	object	car-10.jpg	0.0	213.02909513399936	0.38333994401909877
253.0	126.7014904513344	pulse	0.0	t		object	car-10.jpg	0.0	213.21269147572457	
253.0	126.90123405362829	ISI	1.0		6.0	object	car-10.jpg	0.0	213.41243507801846	0.11668722315516789
254.0	127.01792127678345	car	0.0		46.0	object	car-53.jpg	0.0	213.52912230117363	0.3832789688021876
254.0	127.40120024558564	ISI	1.0		5.0	object	car-53.jpg	0.0	213.91240126997582	0.11669084544701036
254.0	127.45209793945833	pulse	1.0	t		object	car-53.jpg	0.0	213.9632989638485	
255.0	127.51789109103265	car	0.0		46.0	object	car-33.jpg	0.0	214.02909211542283	0.38330643784138374
255.0	127.90119752887404	ISI	1.0		7.0	object	car-33.jpg	0.0	214.4123985532642	0.11671106988796964
256.0	128.017908598762	car	0.0		46.0	object	car-96.jpg	0.0	214.52910962315218	0.3832759502402041
256.0	128.10130607680185	pulse	0.0	t		object	car-96.jpg	0.0	214.61250710119202	
256.0	128.4011845490022	ISI	1.0		6.0	object	car-96.jpg	0.0	214.91238557339238	0.1166923547280021
257.0	128.5178769037302	car	0.0		46.0	object	car-140.jpg	0.0	215.0290779281204	0.3833019099838566
257.0	128.8012959947664	pulse	0.0	t		object	car-140.jpg	0.0	215.31249701915658	
257.0	128.90117881371407	ISI	1.0		7.0	object	car-140.jpg	0.0	215.41237983810424	0.11668903430108912
258.0	129.01786784801516	car	0.0		46.0	object	car-140.jpg	1.0	215.52906887240533	0.3833040229656035
258.0	129.35128932372027	response	0.0	b		object	car-140.jpg	1.0	215.86249034811044	
258.0	129.40117187098076	ISI	1.0		7.0	object	car-140.jpg	1.0	215.91237289537094	0.11668329901294783
259.0	129.5178551699937	car	0.0		45.0	object	car-130.jpg	0.0	216.02905619438388	0.38331458799075335
259.0	129.50989126491186	pulse	0.0	t		object	car-130.jpg	0.0	216.02109228930203	
259.0	129.90116975798446	ISI	1.0		7.0	object	car-130.jpg	0.0	216.41237078237464	0.1166757525788853
260.0	130.01784551056335	car	0.0		46.0	object	car-132.jpg	0.0	216.52904653495352	0.3833191158482805
260.0	130.20129001799796	pulse	0.0	t		object	car-132.jpg	0.0	216.71249104238814	
260.0	130.40116462641163	ISI	1.0		6.0	object	car-132.jpg	0.0	216.9123656508018	0.11668299714801833
261.0	130.51784762355965	car	0.0		46.0	object	car-70.jpg	0.0	217.02904864794982	0.38330915455298964
261.0	130.90115677811264	ISI	1.0		5.0	object	car-70.jpg	0.0	217.4123578025028	0.11668329901294783
261.0	130.9523834966094	pulse	1.0	t		object	car-70.jpg	0.0	217.46358452099958	
262.0	131.01784007712558	car	0.0		46.0	object	car-123.jpg	0.0	217.52904110151576	0.3833073434070684
262.0	131.40114742053265	ISI	1.0		5.0	object	car-123.jpg	0.0	217.91234844492283	0.10843383676547091
263.0	131.50958125729812	car	0.0		47.0	object	car-40.jpg	0.0	218.0207822816883	0.3915456369286403
263.0	131.6012665334856	pulse	0.0	t		object	car-40.jpg	0.0	218.1124675578758	
263.0	131.90112689422676	ISI	1.0		11.0	object	car-40.jpg	0.0	218.41232791861694	0.10001593807828613
264.0	132.00114283230505	baseline	0.0		48.0		baseline	0.0	218.51234385669522	0.39999583436292596
264.0	132.30125645145017	pulse	0.0	t			baseline	0.0	218.81245747584035	
264.0	132.40113866666798	ISI	1.0		11.0		baseline	0.0	218.91233969105815	0.10000054334523156
265.0	132.5011392100132	baseline	0.0		48.0		baseline	0.0	219.01234023440338	0.400003682661918
265.0	132.90114289267513	ISI	1.0		11.0		baseline	0.0	219.4123439170653	0.09998333746625576
266.0	133.00112623014138	baseline	0.0		47.0		baseline	0.0	219.51232725453156	0.40006767644081265
266.0	133.0055526677752	pulse	0.0	t			baseline	0.0	219.51675369216537	
266.0	133.4011939065822	ISI	1.0		11.0		baseline	0.0	219.91239493097237	0.09999450619216077
267.0	133.50118841277435	baseline	0.0		48.0		baseline	0.0	220.01238943716453	0.3999834582064068
267.0	133.7013307687448	pulse	0.0	t			baseline	0.0	220.21253179313499	
267.0	133.90117187098076	ISI	1.0		11.0		baseline	0.0	220.41237289537094	0.10001171207113657
268.0	134.0011835830519	baseline	0.0		48.0		baseline	0.0	220.51238460744207	0.40001364395720884
268.0	134.4011972270091	ISI	1.0		11.0		baseline	0.0	220.91239825139928	0.09998394118156284
268.0	134.40594544469786	pulse	1.0	t			baseline	0.0	220.91714646908804	
269.0	134.50118116819067	baseline	0.0		48.0		baseline	0.0	221.01238219258084	0.39999673994316254
269.0	134.90117790813383	ISI	1.0		11.0		baseline	0.0	221.412378932524	0.10004612381453626
270.0	135.00122403194837	baseline	0.0		48.0		baseline	0.0	221.51242505633854	0.39994542418571655
270.0	135.10129460622557	pulse	0.0	t			baseline	0.0	221.61249563061574	
270.0	135.40116945613408	ISI	1.0		11.0		baseline	0.0	221.91237048052426	0.09999873218475841
271.0	135.50116818831884	baseline	0.0		48.0		baseline	0.0	222.01236921270902	0.3999952306621708
271.0	135.8012827130442	pulse	0.0	t			baseline	0.0	222.31248373743438	
271.0	135.901163418981	ISI	1.0		11.0		baseline	0.0	222.4123644433712	0.10000386377214454
272.0	136.00116728275316	baseline	0.0		48.0		baseline	0.0	222.51236830714333	0.4000030789466109
272.0	136.40117036169977	ISI	1.0		11.0		baseline	0.0	222.91237138608994	0.09999058204994071
273.0	136.5011609437497	baseline	0.0		47.0		baseline	0.0	223.01236196813988	0.39999281578639057
273.0	136.50559070182499	pulse	0.0	t			baseline	0.0	223.01679172621516	
273.0	136.9011537595361	ISI	1.0		11.0		baseline	0.0	223.41235478392628	0.10000386377214454
274.0	137.00115762330825	baseline	0.0		48.0		baseline	0.0	223.51235864769842	0.3999750062066596
274.0	137.2012734158343	pulse	0.0	t			baseline	0.0	223.71247444022447	
274.0	137.4011326295149	ISI	1.0		11.0		baseline	0.0	223.91233365390508	0.10001201393606607
275.0	137.50114464345097	baseline	0.0		48.0		baseline	0.0	224.01234566784115	0.4000012678006897
275.0	137.90114591125166	ISI	1.0		4.0		baseline	0.0	224.41234693564184	0.11664466124784667
275.0	137.96161007140472	pulse	1.0	t			baseline	0.0	224.4728110957949	
276.0	138.0177905724995	body	0.0		46.0	body	body-24.jpg	0.0	224.52899159688968	0.38330855083768256
276.0	138.4010991233372	ISI	1.0		5.0	body	body-24.jpg	0.0	224.91230014772736	0.11669175102724694
277.0	138.51779087436444	body	0.0		46.0	body	body-50.jpg	0.0	225.0289918987546	0.38330281554954126
277.0	138.60128494678065	pulse	0.0	t		body	body-50.jpg	0.0	225.11248597117083	
277.0	138.90109368991398	ISI	1.0		4.0	body	body-50.jpg	0.0	225.41229471430415	0.11668843058578204
278.0	139.01778212049976	body	0.0		46.0	body	body-105.jpg	0.0	225.52898314488993	0.38330583411152475
278.0	139.3012081542547	pulse	0.0	t		body	body-105.jpg	0.0	225.81240917864488	
278.0	139.40108795461128	ISI	1.0		4.0	body	body-105.jpg	0.0	225.91228897900146	0.11668933616601862
279.0	139.5177772907773	body	0.0		46.0	body	body-124.jpg	0.0	226.02897831516748	0.383304324830533
279.0	139.90108161560784	ISI	1.0		5.0	body	body-124.jpg	0.0	226.412282639998	0.11668118601664901
280.0	140.01776280162449	body	0.0		45.0	body	body-114.jpg	0.0	226.52896382601466	0.3833064378268318
280.0	140.00478262943216	pulse	0.0	t		body	body-114.jpg	0.0	226.51598365382233	
280.0	140.40106923945132	ISI	1.0		5.0	body	body-114.jpg	0.0	226.9122702638415	0.11669507145415992
281.0	140.51776431090548	body	0.0		46.0	body	body-66.jpg	0.0	227.02896533529565	0.3833052304107696
281.0	140.70119674403395	pulse	0.0	t		body	body-66.jpg	0.0	227.21239776842413	
281.0	140.90106954131625	ISI	1.0		4.0	body	body-66.jpg	0.0	227.41227056570642	0.11672103118326049
282.0	141.0177905724995	body	0.0		46.0	body	body-55.jpg	0.0	227.52899159688968	0.38327534652489703
282.0	141.4010659190244	ISI	1.0		5.0	body	body-55.jpg	0.0	227.91226694341458	0.11669205287762452
282.0	141.4550371254445	pulse	1.0	t		body	body-55.jpg	0.0	227.96623814983468	
283.0	141.51775797190203	body	0.0		46.0	body	body-6.jpg	0.0	228.0289589962922	0.3833013062539976
283.0	141.90105927815603	ISI	1.0		6.0	body	body-6.jpg	0.0	228.4122603025462	0.12502603520988487
284.0	142.0260853133659	body	0.0		45.0	body	body-53.jpg	0.0	228.5372863377561	0.374972757359501
284.0	142.10122548087384	pulse	0.0	t		body	body-53.jpg	0.0	228.612426505264	
284.0	142.4010580707254	ISI	1.0		7.0	body	body-53.jpg	0.0	228.9122590951156	0.11669175102724694
285.0	142.51774982175266	body	0.0		46.0	body	body-43.jpg	0.0	229.02895084614283	0.3832590462116059
285.0	142.80113661404175	pulse	0.0	t		body	body-43.jpg	0.0	229.31233763843193	
285.0	142.90100886796426	ISI	1.0		6.0	body	body-43.jpg	0.0	229.41220989235444	0.11668782687047496
286.0	143.01769669483474	body	0.0		46.0	body	body-143.jpg	0.0	229.52889771922491	0.3833133805601392
286.0	143.40101007539488	ISI	1.0		6.0	body	body-143.jpg	0.0	229.91221109978505	0.1166839027282549
287.0	143.51769397812313	body	0.0		45.0	body	body-138.jpg	0.0	230.0288950025133	0.3833139842754463
287.0	143.50956042914186	pulse	0.0	t		body	body-138.jpg	0.0	230.02076145353203	
287.0	143.90100796239858	ISI	1.0		6.0	body	body-138.jpg	0.0	230.41220898678876	0.11668118600209709
288.0	144.01768914840068	adult	0.0		46.0	face	adult-68.jpg	0.0	230.52889017279085	0.3833094564033672
288.0	144.2011357688316	pulse	0.0	t		face	adult-68.jpg	0.0	230.71233679322177	
288.0	144.40099860480404	ISI	1.0		7.0	face	adult-68.jpg	0.0	230.91219962919422	0.11668782688502688
289.0	144.51768643168907	adult	0.0		46.0	face	adult-100.jpg	0.0	231.02888745607925	0.3833100601186743
289.0	144.90099649180775	ISI	1.0		6.0	face	adult-100.jpg	0.0	231.41219751619792	0.11666639499890152
289.0	144.94165669028007	pulse	1.0	t		face	adult-100.jpg	0.0	231.45285771467024	
290.0	145.01766288680665	adult	0.0		46.0	face	adult-105.jpg	0.0	231.52886391119682	0.3833275678480277
290.0	145.40099045465467	ISI	1.0		6.0	face	adult-105.jpg	0.0	231.91219147904485	0.11668661945441272
291.0	145.5176770741091	adult	0.0		46.0	face	adult-3.jpg	0.0	232.02887809849926	0.383304324830533
291.0	145.60119469140773	pulse	0.0	t		face	adult-3.jpg	0.0	232.1123957157979	
291.0	145.90098139893962	ISI	1.0		7.0	face	adult-3.jpg	0.0	232.4121824233298	0.11668571387417614
292.0	146.0176671128138	adult	0.0		46.0	face	adult-62.jpg	0.0	232.52886813720397	0.38331398426089436
292.0	146.30109465584974	pulse	0.0	t		face	adult-62.jpg	0.0	232.8122956802399	
292.0	146.4009810970747	ISI	1.0		7.0	face	adult-62.jpg	0.0	232.91218212146487	0.11668450644356199
293.0	146.51766560351825	adult	0.0		46.0	face	adult-112.jpg	0.0	233.02886662790843	0.38328651525080204
293.0	146.90095211876906	ISI	1.0		5.0	face	adult-112.jpg	0.0	233.41215314315923	0.11675785780244041
294.0	147.0177099765715	adult	0.0		45.0	face	adult-135.jpg	0.0	233.52891100096167	0.3832536127738422
294.0	147.00803453972912	pulse	0.0	t		face	adult-135.jpg	0.0	233.5192355641193	
294.0	147.40096358934534	ISI	1.0		7.0	face	adult-135.jpg	0.0	233.9121646137355	0.11668571387417614
295.0	147.5176493032195	adult	0.0		46.0	face	adult-38.jpg	0.0	234.0288503276097	0.3833094564033672
295.0	147.7010829437786	pulse	0.0	t		face	adult-38.jpg	0.0	234.21228396816878	
295.0	147.90095875962288	ISI	1.0		7.0	face	adult-38.jpg	0.0	234.41215978401306	0.11668782688502688
296.0	148.0176465865079	adult	0.0		46.0	face	adult-8.jpg	0.0	234.52884761089808	0.38330613597645424
296.0	148.40095272248436	ISI	1.0		3.0	face	adult-8.jpg	0.0	234.91215374687454	0.11668722315516789
296.0	148.4712227218988	pulse	1.0	t		face	adult-8.jpg	0.0	234.982423746289	
297.0	148.51763994563953	adult	0.0		46.0	face	adult-22.jpg	0.0	235.0288409700297	0.3833384347235551
297.0	148.90097838036309	ISI	1.0		6.0	face	adult-22.jpg	0.0	235.41217940475326	0.11670322160352953
298.0	149.01768160196661	adult	0.0		46.0	face	adult-88.jpg	0.0	235.5288826263568	0.3832910431083292
298.0	149.1011895598349	pulse	0.0	t		face	adult-88.jpg	0.0	235.61239058422507	
298.0	149.40097264507494	ISI	1.0		7.0	face	adult-88.jpg	0.0	235.91217366946512	0.11668843058578204
299.0	149.51766107566073	adult	0.0		46.0	face	adult-54.jpg	0.0	236.0288621000509	0.3833070415421389
299.0	149.80109586328035	pulse	0.0	t		face	adult-54.jpg	0.0	236.31229688767053	
299.0	149.90096811720286	ISI	1.0		6.0	face	adult-54.jpg	0.0	236.41216914159304	0.11668329901294783
300.0	150.0176514162158	word	0.0		46.0	character	word-51.jpg	0.0	236.528852440606	0.3832741390942829
300.0	150.4009255553101	ISI	1.0		7.0	character	word-51.jpg	0.0	236.91212657970027	0.11672012561757583
301.0	150.51764568092767	word	0.0		45.0	character	word-85.jpg	0.0	237.02884670531785	0.3832557257846929
301.0	150.50761586344743	pulse	0.0	t		character	word-85.jpg	0.0	237.0188168878376	
301.0	150.90090140671236	ISI	1.0		6.0	character	word-85.jpg	0.0	237.41210243110254	0.1167125791835133
302.0	151.01761398589588	word	0.0		46.0	character	word-91.jpg	0.0	237.52881501028605	0.38331760656728875
302.0	151.2010283075797	pulse	0.0	t		character	word-91.jpg	0.0	237.71222933196987	
302.0	151.40093159246317	ISI	1.0		6.0	character	word-91.jpg	0.0	237.91213261685334	0.1166754507139558
303.0	151.51760704317712	word	0.0		46.0	character	word-92.jpg	0.0	238.0288080675673	0.38331126754928846
303.0	151.9009183107264	ISI	1.0		4.0	character	word-92.jpg	0.0	238.41211933511659	0.11667816744011361
303.0	151.95964950727648	pulse	1.0	t		character	word-92.jpg	0.0	238.47085053166666	
304.0	152.01759647816652	word	0.0		46.0	character	word-118.jpg	0.0	238.5287975025567	0.38332243627519347
304.0	152.40091891444172	ISI	1.0		6.0	character	word-118.jpg	0.0	238.9121199388319	0.1166896380163962
305.0	152.5176085524581	word	0.0		46.0	character	word-124.jpg	0.0	239.0288095768483	0.38329496725054923
305.0	152.60102474567248	pulse	0.0	t		character	word-124.jpg	0.0	239.11222577006265	
305.0	152.90090351970866	ISI	1.0		6.0	character	word-124.jpg	0.0	239.41210454409884	0.11666307457198855
306.0	153.01756659428065	word	0.0		46.0	character	word-105.jpg	0.0	239.52876761867083	0.3833308882894926
306.0	153.30101949334494	pulse	0.0	t		character	word-105.jpg	0.0	239.8122205177351	
306.0	153.40089748257014	ISI	1.0		6.0	character	word-105.jpg	0.0	239.91209850696032	0.11668269529764075
307.0	153.51758017786779	word	0.0		46.0	character	word-72.jpg	0.0	240.02878120225796	0.38330915455298964
307.0	153.90088933242077	ISI	1.0		6.0	character	word-72.jpg	0.0	240.41209035681095	0.11668118600209709
308.0	154.01757051842287	word	0.0		45.0	character	word-21.jpg	0.0	240.52877154281305	0.3833100601186743
308.0	154.0083297563251	pulse	0.0	t		character	word-21.jpg	0.0	240.5195307807153	
308.0	154.40088057854155	ISI	1.0		7.0	character	word-21.jpg	0.0	240.91208160293172	0.11668782688502688
309.0	154.51756840542657	word	0.0		46.0	character	word-21.jpg	1.0	241.02876942981675	0.3833073434070684
309.0	154.70101019613503	pulse	0.0	t		character	word-21.jpg	1.0	241.2122112205252	
309.0	154.90087574883364	ISI	1.0		7.0	character	word-21.jpg	1.0	241.41207677322382	0.11668782687047496
309.0	154.95100008390727	response	1.0	b		character	word-21.jpg	1.0	241.46220110829745	
310.0	155.01756357570412	word	0.0		46.0	character	word-106.jpg	0.0	241.5287646000943	0.38331156941421796
310.0	155.40087514511833	ISI	1.0		7.0	character	word-106.jpg	0.0	241.9120761695085	0.11668209158233367
310.0	155.43855963283568	pulse	1.0	t		character	word-106.jpg	0.0	241.94976065722585	
311.0	155.51755723670067	word	0.0		46.0	character	word-24.jpg	0.0	242.02875826109084	0.38330824897275306
311.0	155.90086548567342	ISI	1.0		6.0	character	word-24.jpg	0.0	242.4120665100636	0.11666277270705905
312.0	156.01752825838048	adult	0.0		46.0	face	adult-18.jpg	0.0	242.52872928277066	0.3833559424529085
312.0	156.10101478437718	pulse	0.0	t		face	adult-18.jpg	0.0	242.61221580876736	
312.0	156.4008842008334	ISI	1.0		6.0	face	adult-18.jpg	0.0	242.91208522522356	0.11672646463557612
313.0	156.51761066546896	adult	0.0		46.0	face	adult-30.jpg	0.0	243.02881168985914	0.3832735353644239
313.0	156.80100983391458	pulse	0.0	t		face	adult-30.jpg	0.0	243.31221085830475	
313.0	156.9008842008334	ISI	1.0		7.0	face	adult-30.jpg	0.0	243.41208522522356	0.11670624018006492
314.0	157.01759044101345	adult	0.0		46.0	face	adult-58.jpg	0.0	243.52879146540363	0.3832895338127855
314.0	157.40087997482624	ISI	1.0		7.0	face	adult-58.jpg	0.0	243.9120809992164	0.1166839027282549
315.0	157.5175638775545	adult	0.0		45.0	face	adult-65.jpg	0.0	244.02876490194467	0.38330945641791914
315.0	157.50868775925483	pulse	0.0	t		face	adult-65.jpg	0.0	244.019888783645	
315.0	157.9008733339724	ISI	1.0		6.0	face	adult-65.jpg	0.0	244.4120743583626	0.11668993986677378
316.0	158.0175632738392	adult	0.0		46.0	face	adult-46.jpg	0.0	244.52876429822936	0.3833043248450849
316.0	158.20098936797876	pulse	0.0	t		face	adult-46.jpg	0.0	244.71219039236894	
316.0	158.40086759868427	ISI	1.0		6.0	face	adult-46.jpg	0.0	244.91206862307445	0.11669416587392334
317.0	158.5175617645582	adult	0.0		46.0	face	adult-91.jpg	0.0	245.02876278894837	0.3833022118342342
317.0	158.90086397639243	ISI	1.0		7.0	face	adult-91.jpg	0.0	245.4120650007826	0.11669416587392334
317.0	158.93690213358786	pulse	1.0	t		face	adult-91.jpg	0.0	245.44810315797804	
318.0	159.01755814226635	adult	0.0		46.0	face	adult-13.jpg	0.0	245.52875916665653	0.3832910431083292
318.0	159.40084918537468	ISI	1.0		5.0	face	adult-13.jpg	0.0	245.91205020976486	0.11669990117661655
319.0	159.5175490865513	adult	0.0		46.0	face	adult-140.jpg	0.0	246.02875011094147	0.383304324830533
319.0	159.60098278748046	pulse	0.0	t		face	adult-140.jpg	0.0	246.11218381187064	
319.0	159.90085341138183	ISI	1.0		7.0	face	adult-140.jpg	0.0	246.412054435772	0.11671650332573336
320.0	160.01756991470756	adult	0.0		46.0	face	adult-71.jpg	0.0	246.52877093909774	0.3832762520905817
320.0	160.30098176116007	pulse	0.0	t		face	adult-71.jpg	0.0	246.81218278555025	
320.0	160.40084616679815	ISI	1.0		7.0	face	adult-71.jpg	0.0	246.91204719118832	0.1166926565929316
321.0	160.51753882339108	adult	0.0		46.0	face	adult-144.jpg	0.0	247.02873984778125	0.3832982876774622
321.0	160.90083711106854	ISI	1.0		7.0	face	adult-144.jpg	0.0	247.41203813545872	0.11668571387417614
322.0	161.01752282494272	adult	0.0		45.0	face	adult-144.jpg	1.0	247.5287238493329	0.38330915455298964
322.0	161.00896727925283	pulse	0.0	t		face	adult-144.jpg	1.0	247.520168303643	
322.0	161.4008319794957	ISI	1.0		6.0	face	adult-144.jpg	1.0	247.91203300388588	0.11669537331908941
322.0	161.47599267330952	response	1.0	b		face	adult-144.jpg	1.0	247.9871936976997	
323.0	161.5175273528148	adult	0.0		46.0	face	adult-21.jpg	0.0	248.02872837720497	0.3832958728162339
323.0	161.70091601661989	pulse	0.0	t		face	adult-21.jpg	0.0	248.21211704101006	
323.0	161.90082322563103	ISI	1.0		11.0	face	adult-21.jpg	0.0	248.4120242500212	0.10003314394271001
324.0	162.00085636957374	baseline	0.0		48.0		baseline	0.0	248.51205739396391	0.40000217338092625
324.0	162.40085854295467	ISI	1.0		11.0		baseline	0.0	248.91205956734484	0.09999239319586195
324.0	162.40626813030394	pulse	1.0	t			baseline	0.0	248.91746915469412	
325.0	162.50085093615053	baseline	0.0		48.0		baseline	0.0	249.0120519605407	0.3999952306476189
325.0	162.90084616679815	ISI	1.0		11.0		baseline	0.0	249.41204719118832	0.09999722291831858
326.0	163.00084338971647	baseline	0.0		48.0		baseline	0.0	249.51204441410664	0.4000030789466109
326.0	163.1009640723205	pulse	0.0	t			baseline	0.0	249.61216509671067	
326.0	163.40084646866308	ISI	1.0		11.0		baseline	0.0	249.91204749305325	0.10001503249804955
327.0	163.50086150116113	baseline	0.0		48.0		baseline	0.0	250.0120625255513	0.39997047833458055
327.0	163.80096395158034	pulse	0.0	t			baseline	0.0	250.31216497597052	
327.0	163.9008319794957	ISI	1.0		11.0		baseline	0.0	250.41203300388588	0.10000658049830236
328.0	164.000838559994	baseline	0.0		48.0		baseline	0.0	250.51203958438418	0.3999946269323118
328.0	164.40083318692632	ISI	1.0		11.0		baseline	0.0	250.9120342113165	0.10000356192176696
329.0	164.5008367488481	baseline	0.0		47.0		baseline	0.0	251.01203777323826	0.3999916083557764
329.0	164.5053151059692	pulse	0.0	t			baseline	0.0	251.01651613035938	
329.0	164.90082835720386	ISI	1.0		11.0		baseline	0.0	251.41202938159404	0.09999843034893274
330.0	165.0008267875528	baseline	0.0		48.0		baseline	0.0	251.51202781194297	0.4000003622204531
330.0	165.20094348564453	pulse	0.0	t			baseline	0.0	251.7121445100347	
330.0	165.40082714977325	ISI	1.0		11.0		baseline	0.0	251.91202817416342	0.09999873219931033
331.0	165.50082588197256	baseline	0.0		48.0		baseline	0.0	252.01202690636273	0.39998738236317877
331.0	165.90081326433574	ISI	1.0		11.0		baseline	0.0	252.4120142887259	0.1000053730676882
331.0	165.90584975588717	pulse	1.0	t			baseline	0.0	252.41705078027735	
332.0	166.00081863740343	baseline	0.0		48.0		baseline	0.0	252.5120196617936	0.3999919102207059
332.0	166.40081054762413	ISI	1.0		11.0		baseline	0.0	252.9120115720143	0.10000386377214454
333.0	166.50081441139628	baseline	0.0		48.0		baseline	0.0	253.01201543578645	0.3999910046404693
333.0	166.60092996242747	pulse	0.0	t			baseline	0.0	253.11213098681765	
333.0	166.90080541603675	ISI	1.0		11.0		baseline	0.0	253.41200644042692	0.10004340710293036
334.0	167.00084882313968	baseline	0.0		48.0		baseline	0.0	253.51204984752985	0.3999499520432437
334.0	167.30092259710364	pulse	0.0	t			baseline	0.0	253.8121236214938	
334.0	167.40079877518292	ISI	1.0		11.0		baseline	0.0	253.9119997995731	0.1000020526262233
335.0	167.50080082780914	baseline	0.0		48.0		baseline	0.0	254.01200185219932	0.3999955325125484
335.0	167.9007963603217	ISI	1.0		11.0		baseline	0.0	254.41199738471187	0.09998665789316874
336.0	168.00078301821486	baseline	0.0		47.0		baseline	0.0	254.51198404260504	0.400003682661918
336.0	168.0052728459268	pulse	0.0	t			baseline	0.0	254.516473870317	
336.0	168.40078670087678	ISI	1.0		11.0		baseline	0.0	254.91198772526695	0.09999843034893274
337.0	168.5007851312257	baseline	0.0		48.0		baseline	0.0	255.0119861556159	0.4000009659357602
337.0	168.70091631847026	pulse	0.0	t			baseline	0.0	255.21211734286044	
337.0	168.90078609716147	ISI	1.0		11.0		baseline	0.0	255.41198712155165	0.0999996377795469
338.0	169.00078573494102	baseline	0.0		48.0		baseline	0.0	255.5119867593312	0.3999955325125484
338.0	169.40078126745357	ISI	1.0		11.0		baseline	0.0	255.91198229184374	0.09998635604279116
338.0	169.40560887363972	pulse	1.0	t			baseline	0.0	255.9168098980299	
339.0	169.50076762349636	baseline	0.0		48.0		baseline	0.0	256.01196864788653	0.3999943250673823
339.0	169.90076194856374	ISI	1.0		11.0		baseline	0.0	256.4119629729539	0.1000023544911528
340.0	170.0007643030549	baseline	0.0		48.0		baseline	0.0	256.51196532744507	0.39999341951624956
340.0	170.1009100398369	pulse	0.0	t			baseline	0.0	256.61211106422707	
340.0	170.40075772257114	ISI	1.0		11.0		baseline	0.0	256.9119587469613	0.10000839162967168
341.0	170.50076611420081	baseline	0.0		48.0		baseline	0.0	257.011967138591	0.39999613622785546
341.0	170.80088094077655	pulse	0.0	t			baseline	0.0	257.3120819651667	
341.0	170.90076225042867	ISI	1.0		11.0		baseline	0.0	257.41196327481885	0.09999843033438083
342.0	171.00076068076305	baseline	0.0		48.0		baseline	0.0	257.5119617051532	0.3999973436584696
342.0	171.40075802442152	ISI	1.0		11.0		baseline	0.0	257.9119590488117	0.0999993359146174
343.0	171.50075736033614	baseline	0.0		47.0		baseline	0.0	258.0119583847263	0.39997108206443954
343.0	171.5052610734856	pulse	0.0	t			baseline	0.0	258.0164620978758	
343.0	171.90072844240058	ISI	1.0		11.0		baseline	0.0	258.41192946679075	0.10001110834127758
344.0	172.00073955074186	baseline	0.0		48.0		baseline	0.0	258.51194057513203	0.4000039845268475
344.0	172.2008668138442	pulse	0.0	t			baseline	0.0	258.71206783823436	
344.0	172.4007435352687	ISI	1.0		11.0		baseline	0.0	258.9119445596589	0.10000144891091622
345.0	172.50074498417962	baseline	0.0		48.0		baseline	0.0	259.0119460085698	0.3999919102207059
345.0	172.90073689440032	ISI	1.0		11.0		baseline	0.0	259.4119379187905	0.09999269504623953
345.0	172.90553763527714	pulse	1.0	t			baseline	0.0	259.4167386596673	
346.0	173.00072958944656	baseline	0.0		48.0		baseline	0.0	259.51193061383674	0.39999945665476844
346.0	173.40072904610133	ISI	1.0		11.0		baseline	0.0	259.9119300704915	0.09999903406423982
347.0	173.50072808016557	baseline	0.0		48.0		baseline	0.0	260.01192910455575	0.39999673994316254
347.0	173.60085540363798	pulse	0.0	t			baseline	0.0	260.11205642802815	
347.0	173.90072482010874	ISI	1.0		5.0		baseline	0.0	260.4119258444989	0.11667062099149916
348.0	174.01739544110023	word	0.0		46.0	character	word-45.jpg	0.0	260.5285964654904	0.38328651525080204
348.0	174.30080457084114	pulse	0.0	t		character	word-45.jpg	0.0	260.8120055952313	
348.0	174.40068195635104	ISI	1.0		7.0	character	word-45.jpg	0.0	260.9118829807412	0.1166926565929316
349.0	174.51737461294397	word	0.0		46.0	character	word-45.jpg	1.0	261.02857563733414	0.3833019099693047
349.0	174.90067652291327	ISI	1.0		6.0	character	word-45.jpg	1.0	261.41187754730345	0.11669507145415992
349.0	174.94662888618768	response	1.0	b		character	word-45.jpg	1.0	261.45782991057786	
350.0	175.01737159436743	word	0.0		45.0	character	word-19.jpg	0.0	261.5285726187576	0.38327776137157343
350.0	175.0073746793496	pulse	0.0	t		character	word-19.jpg	0.0	261.51857570373977	
350.0	175.400649355739	ISI	1.0		7.0	character	word-19.jpg	0.0	261.9118503801292	0.11675302807998378
351.0	175.517402383819	word	0.0		46.0	character	word-87.jpg	0.0	262.02860340820916	0.3832596499414649
351.0	175.70078863276285	pulse	0.0	t		character	word-87.jpg	0.0	262.211989657153	
351.0	175.90066203376045	ISI	1.0		5.0	character	word-87.jpg	0.0	262.41186305815063	0.11670835317636374
352.0	176.01737038693682	word	0.0		46.0	character	word-20.jpg	0.0	262.528571411327	0.3832910431083292
352.0	176.40066143004515	ISI	1.0		6.0	character	word-20.jpg	0.0	262.9118624544353	0.11670593831513543
352.0	176.44547548887203	pulse	1.0	t		character	word-20.jpg	0.0	262.9566765132622	
353.0	176.51736736836028	word	0.0		46.0	character	word-42.jpg	0.0	263.02856839275046	0.38328591152094305
353.0	176.90065327988123	ISI	1.0		6.0	character	word-42.jpg	0.0	263.4118543042714	0.11670473089907318
354.0	177.0173580107803	word	0.0		46.0	character	word-6.jpg	0.0	263.5285590351705	0.38328923196240794
354.0	177.10077631699096	pulse	0.0	t		character	word-6.jpg	0.0	263.61197734138113	
354.0	177.4006472427427	ISI	1.0		7.0	character	word-6.jpg	0.0	263.9118482671329	0.11668873243615963
355.0	177.51733597517887	word	0.0		46.0	character	word-64.jpg	0.0	264.02853699956904	0.3833070415566908
355.0	177.80076200894837	pulse	0.0	t		character	word-64.jpg	0.0	264.31196303333854	
355.0	177.90064301673556	ISI	1.0		7.0	character	word-64.jpg	0.0	264.41184404112573	0.1166866194398608
356.0	178.01732963617542	word	0.0		46.0	character	word-63.jpg	0.0	264.5285306605656	0.38330583412607666
356.0	178.4006354703015	ISI	1.0		6.0	character	word-63.jpg	0.0	264.91183649469167	0.11670020302699413
357.0	178.5173356733285	word	0.0		45.0	character	word-31.jpg	0.0	265.02853669771866	0.3832985895423917
357.0	178.50746795329906	pulse	0.0	t		character	word-31.jpg	0.0	265.01866897768923	
357.0	178.90063426287088	ISI	1.0		7.0	character	word-31.jpg	0.0	265.41183528726106	0.11672918134718202
358.0	179.01736344421806	word	0.0		46.0	character	word-39.jpg	0.0	265.52856446860824	0.38326085735752713
358.0	179.20074818386638	pulse	0.0	t		character	word-39.jpg	0.0	265.71194920825656	
358.0	179.4006243015756	ISI	1.0		7.0	character	word-39.jpg	0.0	265.91182532596576	0.11666730056458618
359.0	179.51729160214018	word	0.0		46.0	character	word-23.jpg	0.0	266.02849262653035	0.3833215307095088
359.0	179.90061313284968	ISI	1.0		5.0	character	word-23.jpg	0.0	266.41181415723986	0.1167098624719074
359.0	179.95329631352797	pulse	1.0	t		character	word-23.jpg	0.0	266.46449733791815	
360.0	180.0173229953216	body	0.0		46.0	body	body-69.jpg	0.0	266.52852401971177	0.3832536127738422
360.0	180.40057660809543	ISI	1.0		5.0	body	body-69.jpg	0.0	266.9117776324856	0.11668873245071154
361.0	180.51726534054615	body	0.0		46.0	body	body-15.jpg	0.0	267.0284663649363	0.38330915455298964
361.0	180.60068757089903	pulse	0.0	t		body	body-15.jpg	0.0	267.1118885952892	
361.0	180.90057449509914	ISI	1.0		5.0	body	body-15.jpg	0.0	267.4117755194893	0.11668601572455373
362.0	181.0172605108237	body	0.0		46.0	body	body-33.jpg	0.0	267.52846153521386	0.3833127768448321
362.0	181.30110703200626	pulse	0.0	t		body	body-33.jpg	0.0	267.81230805639643	
362.0	181.40057328766852	ISI	1.0		5.0	body	body-33.jpg	0.0	267.9117743120587	0.11667786557518411
363.0	181.5172511532437	body	0.0		46.0	body	body-92.jpg	0.0	268.0284521776339	0.38330885268806014
363.0	181.90056000593177	ISI	1.0		4.0	body	body-92.jpg	0.0	268.41176103032194	0.11669899561093189
364.0	182.0172590015427	body	0.0		45.0	body	body-28.jpg	0.0	268.5284600259329	0.38329768396215513
364.0	182.00721560047532	pulse	0.0	t		body	body-28.jpg	0.0	268.5184166248655	
364.0	182.40055668550485	ISI	1.0		6.0	body	body-28.jpg	0.0	268.911757709895	0.11671378661412746
365.0	182.51727047211898	body	0.0		46.0	body	body-3.jpg	0.0	269.02847149650916	0.3832853078201879
365.0	182.70067845479934	pulse	0.0	t		body	body-3.jpg	0.0	269.2118794791895	
365.0	182.90055577993917	ISI	1.0		5.0	body	body-3.jpg	0.0	269.41175680432934	0.11669929744675756
366.0	183.01725507738593	body	0.0		46.0	body	body-106.jpg	0.0	269.5284561017761	0.3832904393930221
366.0	183.40054551677895	ISI	1.0		6.0	body	body-106.jpg	0.0	269.9117465411691	0.11670442903414369
366.0	183.44876845178078	pulse	1.0	t		body	body-106.jpg	0.0	269.95996947617095	
367.0	183.5172499458131	body	0.0		46.0	body	body-86.jpg	0.0	270.02845097020327	0.3832910431083292
367.0	183.90054098892142	ISI	1.0		5.0	body	body-86.jpg	0.0	270.4117420133116	0.11668812872085255
368.0	184.01722911764227	body	0.0		46.0	body	body-23.jpg	0.0	270.52843014203245	0.3833055322756991
368.0	184.10064742385293	pulse	0.0	t		body	body-23.jpg	0.0	270.6118484482431	
368.0	184.40053464991797	ISI	1.0		6.0	body	body-23.jpg	0.0	270.91173567430815	0.11668541200924665
369.0	184.51722006192722	body	0.0		46.0	body	body-61.jpg	0.0	271.0284210863174	0.3832910431083292
369.0	184.80065243468562	pulse	0.0	t		body	body-61.jpg	0.0	271.3118534590758	
369.0	184.90051110503555	ISI	1.0		5.0	body	body-61.jpg	0.0	271.4117121294257	0.11675997079873923
370.0	185.0172710758343	body	0.0		46.0	body	body-29.jpg	0.0	271.52847210022446	0.3832466700550867
370.0	185.40051774588937	ISI	1.0		6.0	body	body-29.jpg	0.0	271.91171877027955	0.11670171232253779
371.0	185.5172194582119	body	0.0		45.0	body	body-39.jpg	0.0	272.0284204826021	0.38329949510807637
371.0	185.50719748903066	pulse	0.0	t		body	body-39.jpg	0.0	272.01839851342083	
371.0	185.90051895332	ISI	1.0		5.0	body	body-39.jpg	0.0	272.41171997771016	0.11669114731193986
372.0	186.01721010063193	word	0.0		46.0	character	word-80.jpg	0.0	272.5284111250221	0.38333179385517724
372.0	186.20067936036503	pulse	0.0	t		character	word-80.jpg	0.0	272.7118803847552	
372.0	186.4005418944871	ISI	1.0		5.0	character	word-80.jpg	0.0	272.9117429188773	0.11670835317636374
373.0	186.51725024766347	word	0.0		46.0	character	word-49.jpg	0.0	273.02845127205364	0.3832910431083292
373.0	186.9005412907718	ISI	1.0		6.0	character	word-49.jpg	0.0	273.411742315162	0.11670291975315195
373.0	186.94197877217084	pulse	1.0	t		character	word-49.jpg	0.0	273.453179796561	
374.0	187.01724421052495	word	0.0		46.0	character	word-130.jpg	0.0	273.5284452349151	0.3832871189515572
374.0	187.4005313294765	ISI	1.0		6.0	character	word-130.jpg	0.0	273.9117323538667	0.1166842045931844
375.0	187.5172155340697	word	0.0		46.0	character	word-109.jpg	0.0	274.02841655845987	0.38331096568435896
375.0	187.6006543665717	pulse	0.0	t		character	word-109.jpg	0.0	274.11185539096186	
375.0	187.90052649975405	ISI	1.0		6.0	character	word-109.jpg	0.0	274.4117275241442	0.11668843060033396
376.0	188.01721493035438	word	0.0		46.0	character	word-115.jpg	0.0	274.52841595474456	0.38331187126459554
376.0	188.30064277525526	pulse	0.0	t		character	word-115.jpg	0.0	274.81184379964543	
376.0	188.40052680161898	ISI	1.0		7.0	character	word-115.jpg	0.0	274.91172782600916	0.11671620147535577
377.0	188.51724300309434	word	0.0		46.0	character	word-127.jpg	0.0	275.0284440274845	0.3832644796493696
377.0	188.9005074827437	ISI	1.0		7.0	character	word-127.jpg	0.0	275.4117085071339	0.11668843058578204
378.0	189.0171959133295	word	0.0		45.0	character	word-54.jpg	0.0	275.52839693771966	0.38331187126459554
378.0	189.00749934648047	pulse	0.0	t		character	word-54.jpg	0.0	275.51870037087065	
378.0	189.40050778459408	ISI	1.0		6.0	character	word-54.jpg	0.0	275.91170880898426	0.11670805132598616
379.0	189.51721583592007	word	0.0		46.0	character	word-90.jpg	0.0	276.02841686031024	0.3832868171011796
379.0	189.70062955388858	pulse	0.0	t		character	word-90.jpg	0.0	276.21183057827875	
379.0	189.90050265302125	ISI	1.0		5.0	character	word-90.jpg	0.0	276.4117036774114	0.116695675169467
380.0	190.01719832819072	word	0.0		46.0	character	word-93.jpg	0.0	276.5283993525809	0.3833046266809106
380.0	190.40050295487163	ISI	1.0		6.0	character	word-93.jpg	0.0	276.9117039792618	0.11668299716257025
380.0	190.44582141751016	pulse	1.0	t		character	word-93.jpg	0.0	276.95702244190034	
381.0	190.5171859520342	word	0.0		46.0	character	word-139.jpg	0.0	277.0283869764244	0.38331217312952504
381.0	190.90049812516372	ISI	1.0		7.0	character	word-139.jpg	0.0	277.4116991495539	0.11667394143296406
382.0	191.0171720665967	word	0.0		46.0	character	word-139.jpg	1.0	277.52837309098686	0.3833124749799026
382.0	191.1006009378034	pulse	0.0	t		character	word-139.jpg	1.0	277.61180196219357	
382.0	191.4004845415766	ISI	1.0		7.0	character	word-139.jpg	1.0	277.91168556596676	0.11669688260008115
383.0	191.51718142417667	word	0.0		46.0	character	word-46.jpg	0.0	278.02838244856684	0.3832982876774622
383.0	191.80060172262893	pulse	0.0	t		character	word-46.jpg	0.0	278.3118027470191	
383.0	191.90047971185413	ISI	1.0		7.0	character	word-46.jpg	0.0	278.4116807362443	0.11671137175289914
384.0	192.01719108360703	house	0.0		46.0	place	house-30.jpg	0.0	278.5283921079972	0.38328651525080204
384.0	192.40047759885783	ISI	1.0		4.0	place	house-30.jpg	0.0	278.911678623248	0.11667907300579827
385.0	192.51715667186363	house	0.0		45.0	place	house-14.jpg	0.0	279.0283576962538	0.3833040229656035
385.0	192.5074202598189	pulse	0.0	t		place	house-14.jpg	0.0	279.0186212842091	
385.0	192.90046069482923	ISI	1.0		6.0	place	house-14.jpg	0.0	279.4116617192194	0.11671106990252156
386.0	193.01717176473176	house	0.0		46.0	place	house-51.jpg	0.0	279.52837278912193	0.3832623666530708
386.0	193.200556806245	pulse	0.0	t		place	house-51.jpg	0.0	279.7117578306352	
386.0	193.40043413138483	ISI	1.0		5.0	place	house-51.jpg	0.0	279.911635155775	0.11669929744675756
387.0	193.51713342883158	house	0.0		46.0	place	house-70.jpg	0.0	280.02833445322176	0.38330009883793537
387.0	193.90043352766952	ISI	1.0		7.0	place	house-70.jpg	0.0	280.4116345520597	0.11667575256433338
387.0	193.93904803819896	pulse	1.0	t		place	house-70.jpg	0.0	280.45024906258914	
388.0	194.01710928023385	house	0.0		46.0	place	house-35.jpg	0.0	280.52831030462403	0.3833070415566908
388.0	194.40041632179054	ISI	1.0		7.0	place	house-35.jpg	0.0	280.9116173461807	0.11669175102724694
389.0	194.5171080728178	house	0.0		46.0	place	house-35.jpg	1.0	281.02830909720797	0.38329466538561974
389.0	194.60052336043736	pulse	0.0	t		place	house-35.jpg	1.0	281.11172438482754	
389.0	194.9004027382034	ISI	1.0		7.0	place	house-35.jpg	1.0	281.4116037625936	0.11669507145415992
389.0	194.9505282807222	response	1.0	b		place	house-35.jpg	1.0	281.4617293051124	
390.0	195.01709780965757	house	0.0		46.0	place	house-108.jpg	0.0	281.52829883404775	0.38330855083768256
390.0	195.30051569326315	pulse	0.0	t		place	house-108.jpg	0.0	281.8117167176533	
