trial_nr	onset	event_type	phase	response	nr_frames	face_age	face_sex	face_eth	attractiveness	expression	face_id	sub_id	ses	run	trial_type	catch	rating_type	onset_abs	duration
-1.0	0.06103956984497927	fix	0.0		713													24.06622241688501	5.957983018252435
-1.0	0.7025827602874415	pulse	0.0	t														24.707765607327474	
-1.0	1.4025505523791253	pulse	0.0	t														25.407733399419158	
-1.0	2.1025394743078323	pulse	0.0	t														26.107722321347865	
-1.0	2.8025217554309165	pulse	0.0	t														26.80770460247095	
-1.0	3.5025173181652463	pulse	0.0	t														27.50770016520528	
-1.0	4.202495675175214	pulse	0.0	t														28.207678522215247	
-1.0	4.902489426780903	pulse	0.0	t														28.907672273820936	
-1.0	5.602471707903533	pulse	0.0	t														29.607654554943565	
0.0	6.019022588097414	face	0.0		144	28.0	female	white	5.676880222841227	neutral	124	sub-09	2.0	5.0	124_neutral	0.0		30.024205435137446	1.2332972415601944
0.0	6.302460327977315	pulse	0.0	t		28.0	female	white	5.676880222841227	neutral	124	sub-09	2.0	5.0	124_neutral	0.0		30.307643175017347	
0.0	7.002430534907944	pulse	0.0	t		28.0	female	white	5.676880222841227	neutral	124	sub-09	2.0	5.0	124_neutral	0.0		31.007613381947976	
0.0	7.252319829657608	fix	1.0		445	28.0	female	white	5.676880222841227	neutral	124	sub-09	2.0	5.0	124_neutral	0.0		31.25750267669764	3.758255351659045
0.0	7.702424588368103	pulse	1.0	t		28.0	female	white	5.676880222841227	neutral	124	sub-09	2.0	5.0	124_neutral	0.0		31.707607435408136	
0.0	8.402416226990226	pulse	1.0	t		28.0	female	white	5.676880222841227	neutral	124	sub-09	2.0	5.0	124_neutral	0.0		32.40759907403026	
0.0	9.102387943194572	pulse	1.0	t		28.0	female	white	5.676880222841227	neutral	124	sub-09	2.0	5.0	124_neutral	0.0		33.107570790234604	
0.0	9.802382902219506	pulse	1.0	t		28.0	female	white	5.676880222841227	neutral	124	sub-09	2.0	5.0	124_neutral	0.0		33.80756574925954	
0.0	10.502352505440285	pulse	1.0	t		28.0	female	white	5.676880222841227	neutral	124	sub-09	2.0	5.0	124_neutral	0.0		34.50753535248032	
1.0	11.010575181316653	face	0.0		146	25.0	female	west_asian	2.6756864305610826	smiling	064	sub-09	2.0	5.0	064_smiling	0.0		35.015758028356686	1.2416568085918698
1.0	11.202378253655297	pulse	0.0	t		25.0	female	west_asian	2.6756864305610826	smiling	064	sub-09	2.0	5.0	064_smiling	0.0		35.20756110069533	
1.0	11.902339103086888	pulse	0.0	t		25.0	female	west_asian	2.6756864305610826	smiling	064	sub-09	2.0	5.0	064_smiling	0.0		35.90752195012692	
1.0	12.252231989908523	fix	1.0		444	25.0	female	west_asian	2.6756864305610826	smiling	064	sub-09	2.0	5.0	064_smiling	0.0		36.257414836948556	3.7582212420661563
1.0	12.602324704612329	pulse	1.0	t		25.0	female	west_asian	2.6756864305610826	smiling	064	sub-09	2.0	5.0	064_smiling	0.0		36.60750755165236	
1.0	13.302318456218018	pulse	1.0	t		25.0	female	west_asian	2.6756864305610826	smiling	064	sub-09	2.0	5.0	064_smiling	0.0		37.30750130325805	
1.0	14.002298926212006	pulse	1.0	t		25.0	female	west_asian	2.6756864305610826	smiling	064	sub-09	2.0	5.0	064_smiling	0.0		38.00748177325204	
1.0	14.702287848140713	pulse	1.0	t		25.0	female	west_asian	2.6756864305610826	smiling	064	sub-09	2.0	5.0	064_smiling	0.0		38.707470695180746	
1.0	15.40226499773189	pulse	1.0	t		25.0	female	west_asian	2.6756864305610826	smiling	064	sub-09	2.0	5.0	064_smiling	0.0		39.40744784477192	
2.0	16.01045323197468	face	0.0		146	27.0	female	white	4.181058495821727	smiling	039	sub-09	2.0	5.0	039_smiling	0.0		40.01563607901471	1.2416601289946811
2.0	16.102250297402406	pulse	0.0	t		27.0	female	white	4.181058495821727	smiling	039	sub-09	2.0	5.0	039_smiling	0.0		40.10743314444244	
2.0	16.802233182234886	pulse	0.0	t		27.0	female	white	4.181058495821727	smiling	039	sub-09	2.0	5.0	039_smiling	0.0		40.80741602927492	
2.0	17.25211336096936	fix	1.0		444	27.0	female	white	4.181058495821727	smiling	039	sub-09	2.0	5.0	039_smiling	0.0		41.25729620800939	3.7582490127083474
2.0	17.502236593194084	pulse	1.0	t		27.0	female	white	4.181058495821727	smiling	039	sub-09	2.0	5.0	039_smiling	0.0		41.507419440234116	
2.0	18.202221591010584	pulse	1.0	t		27.0	female	white	4.181058495821727	smiling	039	sub-09	2.0	5.0	039_smiling	0.0		42.20740443805062	
2.0	18.90219330721493	pulse	1.0	t		27.0	female	white	4.181058495821727	smiling	039	sub-09	2.0	5.0	039_smiling	0.0		42.90737615425496	
2.0	19.602188266239864	pulse	1.0	t		27.0	female	white	4.181058495821727	smiling	039	sub-09	2.0	5.0	039_smiling	0.0		43.607371113279896	
2.0	20.302163000992095	pulse	1.0	t		27.0	female	white	4.181058495821727	smiling	039	sub-09	2.0	5.0	039_smiling	0.0		44.30734584803213	
3.0	21.010362373677708	face	0.0		146	24.0	female	east_asian	2.9076800636689217	smiling	034	sub-09	2.0	5.0	034_smiling	1.0	dominance	45.01554522071774	1.2416640531068879
3.0	21.002924369372522	pulse	0.0	t		24.0	female	east_asian	2.9076800636689217	smiling	034	sub-09	2.0	5.0	034_smiling	1.0	dominance	45.008107216412554	
3.0	21.702134204043887	pulse	0.0	t		24.0	female	east_asian	2.9076800636689217	smiling	034	sub-09	2.0	5.0	034_smiling	1.0	dominance	45.70731705108392	
3.0	22.252026426784596	fix	1.0		177	24.0	female	east_asian	2.9076800636689217	smiling	034	sub-09	2.0	5.0	034_smiling	1.0	dominance	46.25720927382463	1.5083410029610604
3.0	22.402132785326103	pulse	1.0	t		24.0	female	east_asian	2.9076800636689217	smiling	034	sub-09	2.0	5.0	034_smiling	1.0	dominance	46.407315632366135	
3.0	23.102106312659544	pulse	1.0	t		24.0	female	east_asian	2.9076800636689217	smiling	034	sub-09	2.0	5.0	034_smiling	1.0	dominance	47.107289159699576	
3.0	23.760367429745656	rating	2.0		293	24.0	female	east_asian	2.9076800636689217	smiling	034	sub-09	2.0	5.0	034_smiling	1.0	dominance	47.76555027678569	2.4915741758381955
3.0	23.802101875393873	pulse	2.0	t		24.0	female	east_asian	2.9076800636689217	smiling	034	sub-09	2.0	5.0	034_smiling	1.0	dominance	47.807284722433906	
3.0	24.502075402727314	pulse	2.0	t		24.0	female	east_asian	2.9076800636689217	smiling	034	sub-09	2.0	5.0	034_smiling	1.0	dominance	48.50725824976735	
3.0	24.95207421040095	response	2.0	w		24.0	female	east_asian	2.9076800636689217	smiling	034	sub-09	2.0	5.0	034_smiling	1.0	dominance	48.957257057440984	
3.0	25.20205104304432	pulse	2.0	t		24.0	female	east_asian	2.9076800636689217	smiling	034	sub-09	2.0	5.0	034_smiling	1.0	dominance	49.20723389008435	
3.0	25.90204479465001	pulse	2.0	t		24.0	female	east_asian	2.9076800636689217	smiling	034	sub-09	2.0	5.0	034_smiling	1.0	dominance	49.90722764169004	
3.0	26.251941605583852	fix	3.0		444	24.0	female	east_asian	2.9076800636689217	smiling	034	sub-09	2.0	5.0	034_smiling	1.0	dominance	50.257124452623884	3.758217317953495
3.0	26.602040961093735	pulse	3.0	t		24.0	female	east_asian	2.9076800636689217	smiling	034	sub-09	2.0	5.0	034_smiling	1.0	dominance	50.60722380813377	
3.0	27.30201177173376	pulse	3.0	t		24.0	female	east_asian	2.9076800636689217	smiling	034	sub-09	2.0	5.0	034_smiling	1.0	dominance	51.30719461877379	
3.0	28.00200552333945	pulse	3.0	t		24.0	female	east_asian	2.9076800636689217	smiling	034	sub-09	2.0	5.0	034_smiling	1.0	dominance	52.00718837037948	
3.0	28.701989615591174	pulse	3.0	t		24.0	female	east_asian	2.9076800636689217	smiling	034	sub-09	2.0	5.0	034_smiling	1.0	dominance	52.707172462631206	
3.0	29.401981857922692	pulse	3.0	t		24.0	female	east_asian	2.9076800636689217	smiling	034	sub-09	2.0	5.0	034_smiling	1.0	dominance	53.407164704962724	
4.0	30.010158923537347	face	0.0		146	30.0	female	black	2.7345801830481498	neutral	062	sub-09	2.0	5.0	062_neutral	0.0		54.01534177057738	1.2416604308496062
4.0	30.10199553194525	pulse	0.0	t		30.0	female	black	2.7345801830481498	neutral	062	sub-09	2.0	5.0	062_neutral	0.0		54.10717837898528	
4.0	30.801941892345894	pulse	0.0	t		30.0	female	black	2.7345801830481498	neutral	062	sub-09	2.0	5.0	062_neutral	0.0		54.80712473938593	
4.0	31.251819354386953	fix	1.0		444	30.0	female	black	2.7345801830481498	neutral	062	sub-09	2.0	5.0	062_neutral	0.0		55.257002201426985	3.766569036760302
4.0	31.5019308142746	pulse	1.0	t		30.0	female	black	2.7345801830481498	neutral	062	sub-09	2.0	5.0	062_neutral	0.0		55.507113661314634	
4.0	32.20192456588029	pulse	1.0	t		30.0	female	black	2.7345801830481498	neutral	062	sub-09	2.0	5.0	062_neutral	0.0		56.20710741292032	
4.0	32.90188783014992	pulse	1.0	t		30.0	female	black	2.7345801830481498	neutral	062	sub-09	2.0	5.0	062_neutral	0.0		56.90707067718995	
4.0	33.60189456151238	pulse	1.0	t		30.0	female	black	2.7345801830481498	neutral	062	sub-09	2.0	5.0	062_neutral	0.0		57.60707740855241	
4.0	34.30187533336084	pulse	1.0	t		30.0	female	black	2.7345801830481498	neutral	062	sub-09	2.0	5.0	062_neutral	0.0		58.30705818040087	
5.0	35.018388391147255	face	0.0		146	31.0	female	east_asian	3.395941106247513	smiling	087	sub-09	2.0	5.0	087_smiling	0.0		59.02357123818729	1.2333379919591607
5.0	35.00475632619782	pulse	0.0	t		31.0	female	east_asian	3.395941106247513	smiling	087	sub-09	2.0	5.0	087_smiling	0.0		59.00993917323785	
5.0	35.701842914154895	pulse	0.0	t		31.0	female	east_asian	3.395941106247513	smiling	087	sub-09	2.0	5.0	087_smiling	0.0		59.70702576119493	
5.0	36.251726383106416	fix	1.0		443	31.0	female	east_asian	3.395941106247513	smiling	087	sub-09	2.0	5.0	087_smiling	0.0		60.25690923014645	3.7665602829706586
5.0	36.40184058987279	pulse	1.0	t		31.0	female	east_asian	3.395941106247513	smiling	087	sub-09	2.0	5.0	087_smiling	0.0		60.40702343691282	
5.0	37.101812306077136	pulse	1.0	t		31.0	female	east_asian	3.395941106247513	smiling	087	sub-09	2.0	5.0	087_smiling	0.0		61.10699515311717	
5.0	37.80180394469926	pulse	1.0	t		31.0	female	east_asian	3.395941106247513	smiling	087	sub-09	2.0	5.0	087_smiling	0.0		61.80698679173929	
5.0	38.50183240960723	pulse	1.0	t		31.0	female	east_asian	3.395941106247513	smiling	087	sub-09	2.0	5.0	087_smiling	0.0		62.507015256647264	
5.0	39.20177092178301	pulse	1.0	t		31.0	female	east_asian	3.395941106247513	smiling	087	sub-09	2.0	5.0	087_smiling	0.0		63.20695376882304	
5.0	39.90175773072815	pulse	1.0	t		31.0	female	east_asian	3.395941106247513	smiling	087	sub-09	2.0	5.0	087_smiling	0.0		63.90694057776818	
6.0	40.018286666077074	face	0.0		146	19.0	female	white	4.298846000795861	smiling	100	sub-09	2.0	5.0	100_smiling	0.0		64.0234695131171	1.2333419160718222
6.0	40.601741822979875	pulse	0.0	t		19.0	female	white	4.298846000795861	smiling	100	sub-09	2.0	5.0	100_smiling	0.0		64.60692467001991	
6.0	41.251628582148896	fix	1.0		444	19.0	female	white	4.298846000795861	smiling	100	sub-09	2.0	5.0	100_smiling	0.0		65.25681142918893	3.758238145935138
6.0	41.301734367165864	pulse	1.0	t		19.0	female	white	4.298846000795861	smiling	100	sub-09	2.0	5.0	100_smiling	0.0		65.3069172142059	
6.0	42.00170880006408	pulse	1.0	t		19.0	female	white	4.298846000795861	smiling	100	sub-09	2.0	5.0	100_smiling	0.0		66.00689164710411	
6.0	42.70168504409048	pulse	1.0	t		19.0	female	white	4.298846000795861	smiling	100	sub-09	2.0	5.0	100_smiling	0.0		66.70686789113051	
6.0	43.40168664392104	pulse	1.0	t		19.0	female	white	4.298846000795861	smiling	100	sub-09	2.0	5.0	100_smiling	0.0		67.40686949096107	
6.0	44.10165926569016	pulse	1.0	t		19.0	female	white	4.298846000795861	smiling	100	sub-09	2.0	5.0	100_smiling	0.0		68.10684211273019	
6.0	44.801657846972375	pulse	1.0	t		19.0	female	white	4.298846000795861	smiling	100	sub-09	2.0	5.0	100_smiling	0.0		68.80684069401241	
7.0	45.009866728084035	face	0.0		146	21.0	male	black	2.969757262236371	neutral	137	sub-09	2.0	5.0	137_neutral	0.0		69.01504957512407	1.2416429232707742
7.0	45.501654013416555	pulse	0.0	t		21.0	male	black	2.969757262236371	neutral	137	sub-09	2.0	5.0	137_neutral	0.0		69.50683686045659	
7.0	46.20162663518522	pulse	0.0	t		21.0	male	black	2.969757262236371	neutral	137	sub-09	2.0	5.0	137_neutral	0.0		70.20680948222525	
7.0	46.25150965135481	fix	1.0		444	21.0	male	black	2.969757262236371	neutral	137	sub-09	2.0	5.0	137_neutral	0.0		70.25669249839484	3.7665723571631133
7.0	46.90161163300127	pulse	1.0	t		21.0	male	black	2.969757262236371	neutral	137	sub-09	2.0	5.0	137_neutral	0.0		70.9067944800413	
7.0	47.60158516033471	pulse	1.0	t		21.0	male	black	2.969757262236371	neutral	137	sub-09	2.0	5.0	137_neutral	0.0		71.60676800737474	
7.0	48.301585250891094	pulse	1.0	t		21.0	male	black	2.969757262236371	neutral	137	sub-09	2.0	5.0	137_neutral	0.0		72.30676809793113	
7.0	49.00155757080529	pulse	1.0	t		21.0	male	black	2.969757262236371	neutral	137	sub-09	2.0	5.0	137_neutral	0.0		73.00674041784532	
7.0	49.70155192612037	pulse	1.0	t		21.0	male	black	2.969757262236371	neutral	137	sub-09	2.0	5.0	137_neutral	0.0		73.7067347731604	
8.0	50.01808200851792	face	0.0		145	23.0	male	white	2.6275368085953046	smiling	141	sub-09	2.0	5.0	141_smiling	0.0		74.02326485555795	1.2333232010737447
8.0	50.401535716517174	pulse	0.0	t		23.0	male	white	2.6275368085953046	smiling	141	sub-09	2.0	5.0	141_smiling	0.0		74.4067185635572	
8.0	51.10152705328437	pulse	0.0	t		23.0	male	white	2.6275368085953046	smiling	141	sub-09	2.0	5.0	141_smiling	0.0		75.1067099003244	
8.0	51.25140520959167	fix	1.0		444	23.0	male	white	2.6275368085953046	smiling	141	sub-09	2.0	5.0	141_smiling	0.0		75.2565880566317	3.7665877517579247
8.0	51.80150661771404	pulse	1.0	t		23.0	male	white	2.6275368085953046	smiling	141	sub-09	2.0	5.0	141_smiling	0.0		75.80668946475407	
8.0	52.501481352466726	pulse	1.0	t		23.0	male	white	2.6275368085953046	smiling	141	sub-09	2.0	5.0	141_smiling	0.0		76.50666419950676	
8.0	53.20148114116819	pulse	1.0	t		23.0	male	white	2.6275368085953046	smiling	141	sub-09	2.0	5.0	141_smiling	0.0		77.20666398820822	
8.0	53.90147308164478	pulse	1.0	t		23.0	male	white	2.6275368085953046	smiling	141	sub-09	2.0	5.0	141_smiling	0.0		77.90665592868481	
8.0	54.601452947929374	pulse	1.0	t		23.0	male	white	2.6275368085953046	smiling	141	sub-09	2.0	5.0	141_smiling	0.0		78.6066357949694	
9.0	55.01799296134959	face	0.0		145	24.0	female	east_asian	4.409868682849185	smiling	030	sub-09	2.0	5.0	030_smiling	0.0		79.02317580838962	1.2333238047835948
9.0	55.30143643647125	pulse	0.0	t		24.0	female	east_asian	4.409868682849185	smiling	030	sub-09	2.0	5.0	030_smiling	0.0		79.30661928351128	
9.0	56.001431697350654	pulse	0.0	t		24.0	female	east_asian	4.409868682849185	smiling	030	sub-09	2.0	5.0	030_smiling	0.0		80.00661454439069	
9.0	56.251316766133186	fix	1.0		445	24.0	female	east_asian	4.409868682849185	smiling	030	sub-09	2.0	5.0	030_smiling	0.0		80.25649961317322	3.7665690367598472
9.0	56.70141458218313	pulse	1.0	t		24.0	female	east_asian	4.409868682849185	smiling	030	sub-09	2.0	5.0	030_smiling	0.0		80.70659742922317	
9.0	57.40139173177431	pulse	1.0	t		24.0	female	east_asian	4.409868682849185	smiling	030	sub-09	2.0	5.0	030_smiling	0.0		81.40657457881434	
9.0	58.101374314751865	pulse	1.0	t		24.0	female	east_asian	4.409868682849185	smiling	030	sub-09	2.0	5.0	030_smiling	0.0		82.1065571617919	
9.0	58.80136595337399	pulse	1.0	t		24.0	female	east_asian	4.409868682849185	smiling	030	sub-09	2.0	5.0	030_smiling	0.0		82.80654880041402	
9.0	59.50134280111024	pulse	1.0	t		24.0	female	east_asian	4.409868682849185	smiling	030	sub-09	2.0	5.0	030_smiling	0.0		83.50652564815027	
10.0	60.01788580289303	face	0.0		145	20.0	male	black	2.609629924393156	neutral	043	sub-09	2.0	5.0	043_neutral	0.0		84.02306864993307	1.233309013897724
10.0	60.20134621206944	pulse	0.0	t		20.0	male	black	2.609629924393156	neutral	043	sub-09	2.0	5.0	043_neutral	0.0		84.20652905910947	
10.0	60.901320946822125	pulse	0.0	t		20.0	male	black	2.609629924393156	neutral	043	sub-09	2.0	5.0	043_neutral	0.0		84.90650379386216	
10.0	61.25119481679076	fix	1.0		444	20.0	male	black	2.609629924393156	neutral	043	sub-09	2.0	5.0	043_neutral	0.0		85.25637766383079	3.7665856387748136
10.0	61.60130262423536	pulse	1.0	t		20.0	male	black	2.609629924393156	neutral	043	sub-09	2.0	5.0	043_neutral	0.0		85.60648547127539	
10.0	62.30128339608382	pulse	1.0	t		20.0	male	black	2.609629924393156	neutral	043	sub-09	2.0	5.0	043_neutral	0.0		86.30646624312385	
10.0	63.00126265865856	pulse	1.0	t		20.0	male	black	2.609629924393156	neutral	043	sub-09	2.0	5.0	043_neutral	0.0		87.0064455056986	
10.0	63.70125188244219	pulse	1.0	t		20.0	male	black	2.609629924393156	neutral	043	sub-09	2.0	5.0	043_neutral	0.0		87.70643472948223	
10.0	64.4012414080803	pulse	1.0	t		20.0	male	black	2.609629924393156	neutral	043	sub-09	2.0	5.0	043_neutral	0.0		88.40642425512033	
11.0	65.01778045556557	face	0.0		145	40.0	male	white	1.868682849184242	smiling	172	sub-09	2.0	5.0	172_smiling	0.0		89.0229633026056	1.2333268233310264
11.0	65.10124300791085	pulse	0.0	t		40.0	male	white	1.868682849184242	smiling	172	sub-09	2.0	5.0	172_smiling	0.0		89.10642585495088	
11.0	65.80120446105184	pulse	0.0	t		40.0	male	white	1.868682849184242	smiling	172	sub-09	2.0	5.0	172_smiling	0.0		89.80638730809187	
11.0	66.2511072788966	fix	1.0		444	40.0	male	white	1.868682849184242	smiling	172	sub-09	2.0	5.0	172_smiling	0.0		90.25629012593663	3.766568734905377
11.0	66.5012036460439	pulse	1.0	t		40.0	male	white	1.868682849184242	smiling	172	sub-09	2.0	5.0	172_smiling	0.0		90.50638649308394	
11.0	67.20119226611769	pulse	1.0	t		40.0	male	white	1.868682849184242	smiling	172	sub-09	2.0	5.0	172_smiling	0.0		91.20637511315772	
11.0	67.90117183054736	pulse	1.0	t		40.0	male	white	1.868682849184242	smiling	172	sub-09	2.0	5.0	172_smiling	0.0		91.90635467758739	
11.0	68.60116618586244	pulse	1.0	t		40.0	male	white	1.868682849184242	smiling	172	sub-09	2.0	5.0	172_smiling	0.0		92.60634903290247	
11.0	69.30115269295266	pulse	1.0	t		40.0	male	white	1.868682849184242	smiling	172	sub-09	2.0	5.0	172_smiling	0.0		93.30633553999269	
12.0	70.01767601380197	face	0.0		145	26.0	female	white	4.854755272582572	neutral	027	sub-09	2.0	5.0	027_neutral	1.0	dominance	94.022858860842	1.2333174658324424
12.0	70.00390811418947	pulse	0.0	t		26.0	female	white	4.854755272582572	neutral	027	sub-09	2.0	5.0	027_neutral	1.0	dominance	94.0090909612295	
12.0	70.7011157459242	pulse	0.0	t		26.0	female	white	4.854755272582572	neutral	027	sub-09	2.0	5.0	027_neutral	1.0	dominance	94.70629859296423	
12.0	71.25099347963442	fix	1.0		177	26.0	female	white	4.854755272582572	neutral	027	sub-09	2.0	5.0	027_neutral	1.0	dominance	95.25617632667445	1.4999651357697985
12.0	71.40111191236792	pulse	1.0	t		26.0	female	white	4.854755272582572	neutral	027	sub-09	2.0	5.0	027_neutral	1.0	dominance	95.40629475940796	
12.0	72.1010827230084	pulse	1.0	t		26.0	female	white	4.854755272582572	neutral	027	sub-09	2.0	5.0	027_neutral	1.0	dominance	96.10626557004844	
12.0	72.75095861540422	rating	2.0		294	26.0	female	white	4.854755272582572	neutral	027	sub-09	2.0	5.0	027_neutral	1.0	dominance	96.75614146244425	2.499963626495628
12.0	72.80107677646856	pulse	2.0	t		26.0	female	white	4.854755272582572	neutral	027	sub-09	2.0	5.0	027_neutral	1.0	dominance	96.8062596235086	
12.0	73.50107354662214	pulse	2.0	t		26.0	female	white	4.854755272582572	neutral	027	sub-09	2.0	5.0	027_neutral	1.0	dominance	97.50625639366217	
12.0	74.20105341290628	pulse	2.0	t		26.0	female	white	4.854755272582572	neutral	027	sub-09	2.0	5.0	027_neutral	1.0	dominance	98.20623625994631	
12.0	74.61244408517041	response	2.0	b		26.0	female	white	4.854755272582572	neutral	027	sub-09	2.0	5.0	027_neutral	1.0	dominance	98.61762693221044	
12.0	74.90102694023972	pulse	2.0	t		26.0	female	white	4.854755272582572	neutral	027	sub-09	2.0	5.0	027_neutral	1.0	dominance	98.90620978727975	
12.0	75.25092224189984	fix	3.0		444	26.0	female	white	4.854755272582572	neutral	027	sub-09	2.0	5.0	027_neutral	1.0	dominance	99.25610508893988	3.7665527366007154
12.0	75.60103336974726	pulse	3.0	t		26.0	female	white	4.854755272582572	neutral	027	sub-09	2.0	5.0	027_neutral	1.0	dominance	99.60621621678729	
12.0	76.30100297296804	pulse	3.0	t		26.0	female	white	4.854755272582572	neutral	027	sub-09	2.0	5.0	027_neutral	1.0	dominance	100.30618582000807	
12.0	77.0009825373977	pulse	3.0	t		26.0	female	white	4.854755272582572	neutral	027	sub-09	2.0	5.0	027_neutral	1.0	dominance	101.00616538443774	
12.0	77.70096481852033	pulse	3.0	t		26.0	female	white	4.854755272582572	neutral	027	sub-09	2.0	5.0	027_neutral	1.0	dominance	101.70614766556037	
12.0	78.40095132561055	pulse	3.0	t		26.0	female	white	4.854755272582572	neutral	027	sub-09	2.0	5.0	027_neutral	1.0	dominance	102.40613417265058	
13.0	79.01747497850056	face	0.0		145	20.0	female	white	3.9502586549940313	smiling	091	sub-09	2.0	5.0	091_smiling	0.0		103.02265782554059	1.2333422179262925
13.0	79.10093421044303	pulse	0.0	t		20.0	female	white	3.9502586549940313	smiling	091	sub-09	2.0	5.0	091_smiling	0.0		103.10611705748306	
13.0	79.8009391306764	pulse	0.0	t		20.0	female	white	3.9502586549940313	smiling	091	sub-09	2.0	5.0	091_smiling	0.0		103.80612197771643	
13.0	80.25081719642685	fix	1.0		444	20.0	female	white	3.9502586549940313	smiling	091	sub-09	2.0	5.0	091_smiling	0.0		104.25600004346688	3.766553642165036
13.0	80.50092110994456	pulse	1.0	t		20.0	female	white	3.9502586549940313	smiling	091	sub-09	2.0	5.0	091_smiling	0.0		104.50610395698459	
13.0	81.20089373171322	pulse	1.0	t		20.0	female	white	3.9502586549940313	smiling	091	sub-09	2.0	5.0	091_smiling	0.0		105.20607657875325	
13.0	81.9008651460631	pulse	1.0	t		20.0	female	white	3.9502586549940313	smiling	091	sub-09	2.0	5.0	091_smiling	0.0		105.90604799310313	
13.0	82.6008564828303	pulse	1.0	t		20.0	female	white	3.9502586549940313	smiling	091	sub-09	2.0	5.0	091_smiling	0.0		106.60603932987033	
13.0	83.3008523474191	pulse	1.0	t		20.0	female	white	3.9502586549940313	smiling	091	sub-09	2.0	5.0	091_smiling	0.0		107.30603519445913	
14.0	84.01737083859189	face	0.0		146	22.0	male	black	2.767608436132113	smiling	044	sub-09	2.0	5.0	044_smiling	0.0		108.02255368563192	1.2333503680065405
14.0	84.00383597089058	pulse	0.0	t		22.0	male	black	2.767608436132113	smiling	044	sub-09	2.0	5.0	044_smiling	0.0		108.00901881793061	
14.0	84.70083441724364	pulse	0.0	t		22.0	male	black	2.767608436132113	smiling	044	sub-09	2.0	5.0	044_smiling	0.0		108.70601726428367	
14.0	85.25072120659843	fix	1.0		443	22.0	male	black	2.767608436132113	smiling	044	sub-09	2.0	5.0	044_smiling	0.0		109.25590405363846	3.758314817056089
14.0	85.40080945385125	pulse	1.0	t		22.0	male	black	2.767608436132113	smiling	044	sub-09	2.0	5.0	044_smiling	0.0		109.40599230089128	
14.0	86.10079565908654	pulse	1.0	t		22.0	male	black	2.767608436132113	smiling	044	sub-09	2.0	5.0	044_smiling	0.0		110.10597850612658	
14.0	86.80077220496787	pulse	1.0	t		22.0	male	black	2.767608436132113	smiling	044	sub-09	2.0	5.0	044_smiling	0.0		110.8059550520079	
14.0	87.50076565471863	pulse	1.0	t		22.0	male	black	2.767608436132113	smiling	044	sub-09	2.0	5.0	044_smiling	0.0		111.50594850175867	
14.0	88.2007509543896	pulse	1.0	t		22.0	male	black	2.767608436132113	smiling	044	sub-09	2.0	5.0	044_smiling	0.0		112.20593380142964	
14.0	88.90072448172305	pulse	1.0	t		22.0	male	black	2.767608436132113	smiling	044	sub-09	2.0	5.0	044_smiling	0.0		112.90590732876308	
15.0	89.00903602365452	face	0.0		147	19.0	female	white	4.298846000795861	neutral	100	sub-09	2.0	5.0	100_neutral	1.0	trustworthiness	113.01421887069455	1.2415747040845417
15.0	89.60073453348787	pulse	0.0	t		19.0	female	white	4.298846000795861	neutral	100	sub-09	2.0	5.0	100_neutral	1.0	trustworthiness	113.6059173805279	
15.0	90.25061072773906	fix	1.0		176	19.0	female	white	4.298846000795861	neutral	100	sub-09	2.0	5.0	100_neutral	1.0	trustworthiness	114.25579357477909	1.4999527597224187
15.0	90.30071892759452	pulse	1.0	t		19.0	female	white	4.298846000795861	neutral	100	sub-09	2.0	5.0	100_neutral	1.0	trustworthiness	114.30590177463455	
15.0	91.00069668089509	pulse	1.0	t		19.0	female	white	4.298846000795861	neutral	100	sub-09	2.0	5.0	100_neutral	1.0	trustworthiness	115.00587952793512	
15.0	91.70067866016325	pulse	1.0	t		19.0	female	white	4.298846000795861	neutral	100	sub-09	2.0	5.0	100_neutral	1.0	trustworthiness	115.70586150720328	
15.0	91.75056348746148	rating	2.0		295	19.0	female	white	4.298846000795861	neutral	100	sub-09	2.0	5.0	100_neutral	1.0	trustworthiness	115.75574633450151	2.4999600042378916
15.0	92.400676939591	pulse	2.0	t		19.0	female	white	4.298846000795861	neutral	100	sub-09	2.0	5.0	100_neutral	1.0	trustworthiness	116.40585978663103	
15.0	93.10065348547232	pulse	2.0	t		19.0	female	white	4.298846000795861	neutral	100	sub-09	2.0	5.0	100_neutral	1.0	trustworthiness	117.10583633251235	
15.0	93.22564612776114	response	2.0	e		19.0	female	white	4.298846000795861	neutral	100	sub-09	2.0	5.0	100_neutral	1.0	trustworthiness	117.23082897480117	
15.0	93.80063003135365	pulse	2.0	t		19.0	female	white	4.298846000795861	neutral	100	sub-09	2.0	5.0	100_neutral	1.0	trustworthiness	117.80581287839368	
15.0	94.25052349169937	fix	3.0		444	19.0	female	white	4.298846000795861	neutral	100	sub-09	2.0	5.0	100_neutral	1.0	trustworthiness	118.2557063387394	3.76656420708332
15.0	94.50063102747481	pulse	3.0	t		19.0	female	white	4.298846000795861	neutral	100	sub-09	2.0	5.0	100_neutral	1.0	trustworthiness	118.50581387451484	
15.0	95.20059580101861	pulse	3.0	t		19.0	female	white	4.298846000795861	neutral	100	sub-09	2.0	5.0	100_neutral	1.0	trustworthiness	119.20577864805864	
15.0	95.9005895526243	pulse	3.0	t		19.0	female	white	4.298846000795861	neutral	100	sub-09	2.0	5.0	100_neutral	1.0	trustworthiness	119.90577239966433	
15.0	96.60056549479577	pulse	3.0	t		19.0	female	white	4.298846000795861	neutral	100	sub-09	2.0	5.0	100_neutral	1.0	trustworthiness	120.6057483418358	
15.0	97.3005547185794	pulse	3.0	t		19.0	female	white	4.298846000795861	neutral	100	sub-09	2.0	5.0	100_neutral	1.0	trustworthiness	121.30573756561944	
16.0	98.01708769878269	face	0.0		146	24.0	male	white	3.1153999204138483	smiling	012	sub-09	2.0	5.0	012_smiling	0.0		122.02227054582272	1.2333129380103856
16.0	98.00337171819683	pulse	0.0	t		24.0	male	white	3.1153999204138483	smiling	012	sub-09	2.0	5.0	012_smiling	0.0		122.00855456523686	
16.0	98.70053075130772	pulse	0.0	t		24.0	male	white	3.1153999204138483	smiling	012	sub-09	2.0	5.0	012_smiling	0.0		122.70571359834776	
16.0	99.25040063679307	fix	1.0		443	24.0	male	white	3.1153999204138483	smiling	012	sub-09	2.0	5.0	012_smiling	0.0		123.2555834838331	3.766591675870586
16.0	99.40051816396226	pulse	1.0	t		24.0	male	white	3.1153999204138483	smiling	012	sub-09	2.0	5.0	012_smiling	0.0		123.4057010110023	
16.0	100.10050165250414	pulse	1.0	t		24.0	male	white	3.1153999204138483	smiling	012	sub-09	2.0	5.0	012_smiling	0.0		124.10568449954417	
16.0	100.80048151878873	pulse	1.0	t		24.0	male	white	3.1153999204138483	smiling	012	sub-09	2.0	5.0	012_smiling	0.0		124.80566436582876	
16.0	101.50047859079677	pulse	1.0	t		24.0	male	white	3.1153999204138483	smiling	012	sub-09	2.0	5.0	012_smiling	0.0		125.5056614378368	
16.0	102.20045755151705	pulse	1.0	t		24.0	male	white	3.1153999204138483	smiling	012	sub-09	2.0	5.0	012_smiling	0.0		126.20564039855708	
16.0	102.9004383233655	pulse	1.0	t		24.0	male	white	3.1153999204138483	smiling	012	sub-09	2.0	5.0	012_smiling	0.0		126.90562117040554	
17.0	103.01699231266366	face	0.0		146	19.0	male	white	3.2522881018702745	smiling	018	sub-09	2.0	5.0	018_smiling	0.0		127.02217515970369	1.23331173059114
17.0	103.60042301932708	pulse	0.0	t		19.0	male	white	3.2522881018702745	smiling	018	sub-09	2.0	5.0	018_smiling	0.0		127.60560586636711	
17.0	104.2503040432548	fix	1.0		443	19.0	male	white	3.2522881018702745	smiling	018	sub-09	2.0	5.0	018_smiling	0.0		128.25548689029483	3.766583223935868
17.0	104.30042431730271	pulse	1.0	t		19.0	male	white	3.2522881018702745	smiling	018	sub-09	2.0	5.0	018_smiling	0.0		128.30560716434275	
17.0	105.00039784463615	pulse	1.0	t		19.0	male	white	3.2522881018702745	smiling	018	sub-09	2.0	5.0	018_smiling	0.0		129.0055806916762	
17.0	105.70038163503295	pulse	1.0	t		19.0	male	white	3.2522881018702745	smiling	018	sub-09	2.0	5.0	018_smiling	0.0		129.705564482073	
17.0	106.40037629220296	pulse	1.0	t		19.0	male	white	3.2522881018702745	smiling	018	sub-09	2.0	5.0	018_smiling	0.0		130.405559139243	
17.0	107.10035313993922	pulse	1.0	t		19.0	male	white	3.2522881018702745	smiling	018	sub-09	2.0	5.0	018_smiling	0.0		131.10553598697925	
17.0	107.80034206186747	pulse	1.0	t		19.0	male	white	3.2522881018702745	smiling	018	sub-09	2.0	5.0	018_smiling	0.0		131.8055249089075	
18.0	108.01688726719067	face	0.0		145	25.0	female	black	3.858336649423	smiling	126	sub-09	2.0	5.0	126_smiling	0.0		132.0220701142307	1.2333216917995742
18.0	108.50034034129521	pulse	0.0	t		25.0	female	black	3.858336649423	smiling	126	sub-09	2.0	5.0	126_smiling	0.0		132.50552318833525	
18.0	109.20031718903147	pulse	0.0	t		25.0	female	black	3.858336649423	smiling	126	sub-09	2.0	5.0	126_smiling	0.0		133.2055000360715	
18.0	109.25020895899024	fix	1.0		444	25.0	female	black	3.858336649423	smiling	126	sub-09	2.0	5.0	126_smiling	0.0		133.25539180603027	3.7665596792612632
18.0	109.90029524418696	pulse	1.0	t		25.0	female	black	3.858336649423	smiling	126	sub-09	2.0	5.0	126_smiling	0.0		133.905478091227	
18.0	110.60028658095416	pulse	1.0	t		25.0	female	black	3.858336649423	smiling	126	sub-09	2.0	5.0	126_smiling	0.0		134.6054694279942	
18.0	111.30027369175377	pulse	1.0	t		25.0	female	black	3.858336649423	smiling	126	sub-09	2.0	5.0	126_smiling	0.0		135.3054565387938	
18.0	112.00025144505435	pulse	1.0	t		25.0	female	black	3.858336649423	smiling	126	sub-09	2.0	5.0	126_smiling	0.0		136.00543429209438	
18.0	112.70023040577462	pulse	1.0	t		25.0	female	black	3.858336649423	smiling	126	sub-09	2.0	5.0	126_smiling	0.0		136.70541325281465	
19.0	113.0167686382515	face	0.0		145	40.0	female	west_asian	1.5777954635893354	neutral	038	sub-09	2.0	5.0	038_neutral	0.0		137.02195148529154	1.2333388975234811
19.0	113.40023743899155	pulse	0.0	t		40.0	female	west_asian	1.5777954635893354	neutral	038	sub-09	2.0	5.0	038_neutral	0.0		137.40542028603159	
19.0	114.10021277745363	pulse	0.0	t		40.0	female	west_asian	1.5777954635893354	neutral	038	sub-09	2.0	5.0	038_neutral	0.0		138.10539562449367	
19.0	114.25010753577499	fix	1.0		444	40.0	female	west_asian	1.5777954635893354	neutral	038	sub-09	2.0	5.0	038_neutral	0.0		138.25529038281502	3.766556962568302
19.0	114.80019445486687	pulse	1.0	t		40.0	female	west_asian	1.5777954635893354	neutral	038	sub-09	2.0	5.0	038_neutral	0.0		138.8053773019069	
19.0	115.50016828405523	pulse	1.0	t		40.0	female	west_asian	1.5777954635893354	neutral	038	sub-09	2.0	5.0	038_neutral	0.0		139.50535113109527	
19.0	116.200173807998	pulse	1.0	t		40.0	female	west_asian	1.5777954635893354	neutral	038	sub-09	2.0	5.0	038_neutral	0.0		140.20535665503803	
19.0	116.90015005202486	pulse	1.0	t		40.0	female	west_asian	1.5777954635893354	neutral	038	sub-09	2.0	5.0	038_neutral	0.0		140.9053328990649	
19.0	117.60013384242166	pulse	1.0	t		40.0	female	west_asian	1.5777954635893354	neutral	038	sub-09	2.0	5.0	038_neutral	0.0		141.6053166894617	
20.0	118.01666449834329	face	0.0		145	20.0	male	black	3.1070433744528456	smiling	082	sub-09	2.0	5.0	082_smiling	0.0		142.02184734538332	1.2333313511530832
20.0	118.30012336805976	pulse	0.0	t		20.0	male	black	3.1070433744528456	smiling	082	sub-09	2.0	5.0	082_smiling	0.0		142.3053062150998	
20.0	119.00010595103731	pulse	0.0	t		20.0	male	black	3.1070433744528456	smiling	082	sub-09	2.0	5.0	082_smiling	0.0		143.00528879807734	
20.0	119.24999584949637	fix	1.0		1185	20.0	male	black	3.1070433744528456	smiling	082	sub-09	2.0	5.0	082_smiling	0.0		143.2551786965364	10.01643116457717
20.0	119.70009185441813	pulse	1.0	t		20.0	male	black	3.1070433744528456	smiling	082	sub-09	2.0	5.0	082_smiling	0.0		143.70527470145817	
20.0	120.40008771900693	pulse	1.0	t		20.0	male	black	3.1070433744528456	smiling	082	sub-09	2.0	5.0	082_smiling	0.0		144.40527056604697	
20.0	121.10005732222817	pulse	1.0	t		20.0	male	black	3.1070433744528456	smiling	082	sub-09	2.0	5.0	082_smiling	0.0		145.1052401692682	
20.0	121.80003628294799	pulse	1.0	t		20.0	male	black	3.1070433744528456	smiling	082	sub-09	2.0	5.0	082_smiling	0.0		145.80521912998802	
20.0	122.50003637350437	pulse	1.0	t		20.0	male	black	3.1070433744528456	smiling	082	sub-09	2.0	5.0	082_smiling	0.0		146.5052192205444	
20.0	123.20002167317534	pulse	1.0	t		20.0	male	black	3.1070433744528456	smiling	082	sub-09	2.0	5.0	082_smiling	0.0		147.20520452021537	
20.0	123.89999701163742	pulse	1.0	t		20.0	male	black	3.1070433744528456	smiling	082	sub-09	2.0	5.0	082_smiling	0.0		147.90517985867746	
20.0	124.59998865025955	pulse	1.0	t		20.0	male	black	3.1070433744528456	smiling	082	sub-09	2.0	5.0	082_smiling	0.0		148.60517149729958	
20.0	125.29996670541504	pulse	1.0	t		20.0	male	black	3.1070433744528456	smiling	082	sub-09	2.0	5.0	082_smiling	0.0		149.30514955245508	
20.0	125.99996498484234	pulse	1.0	t		20.0	male	black	3.1070433744528456	smiling	082	sub-09	2.0	5.0	082_smiling	0.0		150.00514783188237	
20.0	126.69994575669125	pulse	1.0	t		20.0	male	black	3.1070433744528456	smiling	082	sub-09	2.0	5.0	082_smiling	0.0		150.70512860373128	
20.0	127.3999220007181	pulse	1.0	t		20.0	male	black	3.1070433744528456	smiling	082	sub-09	2.0	5.0	082_smiling	0.0		151.40510484775814	
20.0	128.09991756345244	pulse	1.0	t		20.0	male	black	3.1070433744528456	smiling	082	sub-09	2.0	5.0	082_smiling	0.0		152.10510041049247	
20.0	128.7998959204624	pulse	1.0	t		20.0	male	black	3.1070433744528456	smiling	082	sub-09	2.0	5.0	082_smiling	0.0		152.80507876750244	
21.0	129.26642701407354	face	0.0		145	25.0	female	black	3.858336649423	neutral	126	sub-09	2.0	5.0	126_neutral	0.0		153.27160986111357	1.233341010507047
21.0	129.49988937021317	pulse	0.0	t		25.0	female	black	3.858336649423	neutral	126	sub-09	2.0	5.0	126_neutral	0.0		153.5050722172532	
21.0	130.19987980141605	pulse	0.0	t		25.0	female	black	3.858336649423	neutral	126	sub-09	2.0	5.0	126_neutral	0.0		154.20506264845608	
21.0	130.4997680245806	fix	1.0		444	25.0	female	black	3.858336649423	neutral	126	sub-09	2.0	5.0	126_neutral	0.0		154.50495087162062	3.7665572644227723
21.0	130.89985785657154	pulse	1.0	t		25.0	female	black	3.858336649423	neutral	126	sub-09	2.0	5.0	126_neutral	0.0		154.90504070361158	
21.0	131.59985311745095	pulse	1.0	t		25.0	female	black	3.858336649423	neutral	126	sub-09	2.0	5.0	126_neutral	0.0		155.60503596449098	
21.0	132.2998390208313	pulse	1.0	t		25.0	female	black	3.858336649423	neutral	126	sub-09	2.0	5.0	126_neutral	0.0		156.30502186787135	
21.0	132.99981345372908	pulse	1.0	t		25.0	female	black	3.858336649423	neutral	126	sub-09	2.0	5.0	126_neutral	0.0		157.0049963007691	
21.0	133.6998075071897	pulse	1.0	t		25.0	female	black	3.858336649423	neutral	126	sub-09	2.0	5.0	126_neutral	0.0		157.70499035422972	
22.0	134.26632528900336	face	0.0		145	40.0	male	white	1.868682849184242	neutral	172	sub-09	2.0	5.0	172_neutral	0.0		158.2715081360434	1.2333379919591607
22.0	134.39979552355362	pulse	0.0	t		40.0	male	white	1.868682849184242	neutral	172	sub-09	2.0	5.0	172_neutral	0.0		158.40497837059365	
22.0	135.0997759935476	pulse	0.0	t		40.0	male	white	1.868682849184242	neutral	172	sub-09	2.0	5.0	172_neutral	0.0		159.10495884058764	
22.0	135.49966328096252	fix	1.0		444	40.0	male	white	1.868682849184242	neutral	172	sub-09	2.0	5.0	172_neutral	0.0		159.50484612800255	3.7665720553081883
22.0	135.79975555797728	pulse	1.0	t		40.0	male	white	1.868682849184242	neutral	172	sub-09	2.0	5.0	172_neutral	0.0		159.8049384050173	
22.0	136.49973663168066	pulse	1.0	t		40.0	male	white	1.868682849184242	neutral	172	sub-09	2.0	5.0	172_neutral	0.0		160.5049194787207	
22.0	137.19972766659293	pulse	1.0	t		40.0	male	white	1.868682849184242	neutral	172	sub-09	2.0	5.0	172_neutral	0.0		161.20491051363297	
22.0	137.89971658852164	pulse	1.0	t		40.0	male	white	1.868682849184242	neutral	172	sub-09	2.0	5.0	172_neutral	0.0		161.90489943556167	
22.0	138.5997018881926	pulse	1.0	t		40.0	male	white	1.868682849184242	neutral	172	sub-09	2.0	5.0	172_neutral	0.0		162.60488473523264	
23.0	139.2662353362707	face	0.0		145	27.0	female	white	4.181058495821727	neutral	039	sub-09	2.0	5.0	039_neutral	0.0		163.27141818331074	1.2333247103479152
23.0	139.29971435479592	pulse	0.0	t		27.0	female	white	4.181058495821727	neutral	039	sub-09	2.0	5.0	039_neutral	0.0		163.30489720183596	
23.0	139.99966645043833	pulse	0.0	t		27.0	female	white	4.181058495821727	neutral	039	sub-09	2.0	5.0	039_neutral	0.0		164.00484929747836	
23.0	140.49956004661863	fix	1.0		443	27.0	female	white	4.181058495821727	neutral	039	sub-09	2.0	5.0	039_neutral	0.0		164.50474289365866	3.758235429242177
23.0	140.69965899462431	pulse	1.0	t		27.0	female	white	4.181058495821727	neutral	039	sub-09	2.0	5.0	039_neutral	0.0		164.70484184166435	
23.0	141.3996361442155	pulse	1.0	t		27.0	female	white	4.181058495821727	neutral	039	sub-09	2.0	5.0	039_neutral	0.0		165.40481899125552	
23.0	142.09961329380667	pulse	1.0	t		27.0	female	white	4.181058495821727	neutral	039	sub-09	2.0	5.0	039_neutral	0.0		166.1047961408467	
23.0	142.79960191388045	pulse	1.0	t		27.0	female	white	4.181058495821727	neutral	039	sub-09	2.0	5.0	039_neutral	0.0		166.80478476092048	
23.0	143.49960291000116	pulse	1.0	t		27.0	female	white	4.181058495821727	neutral	039	sub-09	2.0	5.0	039_neutral	0.0		167.5047857570412	
23.0	144.19958337999515	pulse	1.0	t		27.0	female	white	4.181058495821727	neutral	039	sub-09	2.0	5.0	039_neutral	0.0		168.20476622703518	
24.0	144.2577954758608	face	0.0		147	32.0	male	white	2.389176283326701	neutral	092	sub-09	2.0	5.0	092_neutral	0.0		168.26297832290084	1.241659223429906
24.0	144.89956988708536	pulse	0.0	t		32.0	male	white	2.389176283326701	neutral	092	sub-09	2.0	5.0	092_neutral	0.0		168.9047527341254	
24.0	145.4994546992907	fix	1.0		443	32.0	male	white	2.389176283326701	neutral	092	sub-09	2.0	5.0	092_neutral	0.0		169.50463754633074	3.766561792244829
24.0	145.59956454425537	pulse	1.0	t		32.0	male	white	2.389176283326701	neutral	092	sub-09	2.0	5.0	092_neutral	0.0		169.6047473912954	
24.0	146.2995416938461	pulse	1.0	t		32.0	male	white	2.389176283326701	neutral	092	sub-09	2.0	5.0	092_neutral	0.0		170.30472454088613	
24.0	146.99952367311425	pulse	1.0	t		32.0	male	white	2.389176283326701	neutral	092	sub-09	2.0	5.0	092_neutral	0.0		171.0047065201543	
24.0	147.69951229318804	pulse	1.0	t		32.0	male	white	2.389176283326701	neutral	092	sub-09	2.0	5.0	092_neutral	0.0		171.70469514022807	
24.0	148.39949789471393	pulse	1.0	t		32.0	male	white	2.389176283326701	neutral	092	sub-09	2.0	5.0	092_neutral	0.0		172.40468074175396	
24.0	149.09948017583656	pulse	1.0	t		32.0	male	white	2.389176283326701	neutral	092	sub-09	2.0	5.0	092_neutral	0.0		173.1046630228766	
25.0	149.26601649153554	face	0.0		146	20.0	female	white	3.9502586549940313	neutral	091	sub-09	2.0	5.0	091_neutral	0.0		173.27119933857557	1.2333352752661995
25.0	149.79947815340938	pulse	0.0	t		20.0	female	white	3.9502586549940313	neutral	091	sub-09	2.0	5.0	091_neutral	0.0		173.8046610004494	
25.0	150.49935176680174	fix	1.0		444	20.0	female	white	3.9502586549940313	neutral	091	sub-09	2.0	5.0	091_neutral	0.0		174.50453461384177	3.7665551514387516
25.0	150.50677648949522	pulse	1.0	t		20.0	female	white	3.9502586549940313	neutral	091	sub-09	2.0	5.0	091_neutral	0.0		174.51195933653526	
25.0	151.19944573420298	pulse	1.0	t		20.0	female	white	3.9502586549940313	neutral	091	sub-09	2.0	5.0	091_neutral	0.0		175.204628581243	
25.0	151.8994216763749	pulse	1.0	t		20.0	female	white	3.9502586549940313	neutral	091	sub-09	2.0	5.0	091_neutral	0.0		175.90460452341495	
25.0	152.59940003338534	pulse	1.0	t		20.0	female	white	3.9502586549940313	neutral	091	sub-09	2.0	5.0	091_neutral	0.0		176.60458288042537	
25.0	153.29939770910323	pulse	1.0	t		20.0	female	white	3.9502586549940313	neutral	091	sub-09	2.0	5.0	091_neutral	0.0		177.30458055614326	
25.0	153.99936550119537	pulse	1.0	t		20.0	female	white	3.9502586549940313	neutral	091	sub-09	2.0	5.0	091_neutral	0.0		178.0045483482354	
26.0	154.2659069182405	face	0.0		145	28.0	male	east_asian	1.5563072025467568	smiling	005	sub-09	2.0	5.0	005_smiling	0.0		178.27108976528052	1.2333533865544268
26.0	154.6993610639297	pulse	0.0	t		28.0	male	east_asian	1.5563072025467568	smiling	005	sub-09	2.0	5.0	005_smiling	0.0		178.70454391096973	
26.0	155.3993530044063	pulse	0.0	t		28.0	male	east_asian	1.5563072025467568	smiling	005	sub-09	2.0	5.0	005_smiling	0.0		179.40453585144633	
26.0	155.49926030479492	fix	1.0		444	28.0	male	east_asian	1.5563072025467568	smiling	005	sub-09	2.0	5.0	005_smiling	0.0		179.50444315183495	3.766561490389904
26.0	156.099341926335	pulse	1.0	t		28.0	male	east_asian	1.5563072025467568	smiling	005	sub-09	2.0	5.0	005_smiling	0.0		180.10452477337503	
26.0	156.79931786850693	pulse	1.0	t		28.0	male	east_asian	1.5563072025467568	smiling	005	sub-09	2.0	5.0	005_smiling	0.0		180.80450071554696	
26.0	157.49929471624318	pulse	1.0	t		28.0	male	east_asian	1.5563072025467568	smiling	005	sub-09	2.0	5.0	005_smiling	0.0		181.50447756328322	
26.0	158.1993268034089	pulse	1.0	t		28.0	male	east_asian	1.5563072025467568	smiling	005	sub-09	2.0	5.0	005_smiling	0.0		182.20450965044893	
26.0	158.89927497493863	pulse	1.0	t		28.0	male	east_asian	1.5563072025467568	smiling	005	sub-09	2.0	5.0	005_smiling	0.0		182.90445782197867	
27.0	159.26582179518482	face	0.0		145	25.0	female	west_asian	2.6756864305610826	neutral	064	sub-09	2.0	5.0	064_neutral	0.0		183.27100464222485	1.2333038823662719
27.0	159.5992723488016	pulse	0.0	t		25.0	female	west_asian	2.6756864305610826	neutral	064	sub-09	2.0	5.0	064_neutral	0.0		183.60445519584164	
27.0	160.29924798911907	pulse	0.0	t		25.0	female	west_asian	2.6756864305610826	neutral	064	sub-09	2.0	5.0	064_neutral	0.0		184.3044308361591	
27.0	160.4991256775511	fix	1.0		445	25.0	female	west_asian	2.6756864305610826	neutral	064	sub-09	2.0	5.0	064_neutral	0.0		184.50430852459112	3.7749062665357087
27.0	160.9992302702417	pulse	1.0	t		25.0	female	west_asian	2.6756864305610826	neutral	064	sub-09	2.0	5.0	064_neutral	0.0		185.00441311728173	
27.0	161.69920772168734	pulse	1.0	t		25.0	female	west_asian	2.6756864305610826	neutral	064	sub-09	2.0	5.0	064_neutral	0.0		185.70439056872738	
27.0	162.39920177514796	pulse	1.0	t		25.0	female	west_asian	2.6756864305610826	neutral	064	sub-09	2.0	5.0	064_neutral	0.0		186.404384622188	
27.0	163.09917379320723	pulse	1.0	t		25.0	female	west_asian	2.6756864305610826	neutral	064	sub-09	2.0	5.0	064_neutral	0.0		187.10435664024726	
27.0	163.79916965779648	pulse	1.0	t		25.0	female	west_asian	2.6756864305610826	neutral	064	sub-09	2.0	5.0	064_neutral	0.0		187.80435250483652	
28.0	164.2740319440868	face	0.0		145	22.0	female	white	4.614007162753682	neutral	009	sub-09	2.0	5.0	009_neutral	1.0	attractiveness	188.27921479112683	1.2333244084929902
28.0	164.49916039085338	pulse	0.0	t		22.0	female	white	4.614007162753682	neutral	009	sub-09	2.0	5.0	009_neutral	1.0	attractiveness	188.5043432378934	
28.0	165.19913512560606	pulse	0.0	t		22.0	female	white	4.614007162753682	neutral	009	sub-09	2.0	5.0	009_neutral	1.0	attractiveness	189.2043179726461	
28.0	165.5073563525798	fix	1.0		177	22.0	female	white	4.614007162753682	neutral	009	sub-09	2.0	5.0	009_neutral	1.0	attractiveness	189.51253919961982	1.4999877748805375
28.0	165.8991409514042	pulse	1.0	t		22.0	female	white	4.614007162753682	neutral	009	sub-09	2.0	5.0	009_neutral	1.0	attractiveness	189.90432379844424	
28.0	166.59912021397895	pulse	1.0	t		22.0	female	white	4.614007162753682	neutral	009	sub-09	2.0	5.0	009_neutral	1.0	attractiveness	190.60430306101898	
28.0	167.00734412746033	rating	2.0		294	22.0	female	white	4.614007162753682	neutral	009	sub-09	2.0	5.0	009_neutral	1.0	attractiveness	191.01252697450036	2.49993072432153
28.0	167.29911306001986	pulse	2.0	t		22.0	female	white	4.614007162753682	neutral	009	sub-09	2.0	5.0	009_neutral	1.0	attractiveness	191.3042959070599	
28.0	167.9990908133209	pulse	2.0	t		22.0	female	white	4.614007162753682	neutral	009	sub-09	2.0	5.0	009_neutral	1.0	attractiveness	192.00427366036092	
28.0	168.12408134262614	response	2.0	y		22.0	female	white	4.614007162753682	neutral	009	sub-09	2.0	5.0	009_neutral	1.0	attractiveness	192.12926418966617	
28.0	168.69905890726795	pulse	2.0	t		22.0	female	white	4.614007162753682	neutral	009	sub-09	2.0	5.0	009_neutral	1.0	attractiveness	192.704241754308	
28.0	169.39905809225957	pulse	2.0	t		22.0	female	white	4.614007162753682	neutral	009	sub-09	2.0	5.0	009_neutral	1.0	attractiveness	193.4042409392996	
28.0	169.50727485178186	fix	3.0		444	22.0	female	white	4.614007162753682	neutral	009	sub-09	2.0	5.0	009_neutral	1.0	attractiveness	193.5124576988219	3.7665765831307
28.0	170.09904248636622	pulse	3.0	t		22.0	female	white	4.614007162753682	neutral	009	sub-09	2.0	5.0	009_neutral	1.0	attractiveness	194.10422533340625	
28.0	170.79903442684235	pulse	3.0	t		22.0	female	white	4.614007162753682	neutral	009	sub-09	2.0	5.0	009_neutral	1.0	attractiveness	194.8042172738824	
28.0	171.49901067086967	pulse	3.0	t		22.0	female	white	4.614007162753682	neutral	009	sub-09	2.0	5.0	009_neutral	1.0	attractiveness	195.5041935179097	
28.0	172.19899506497632	pulse	3.0	t		22.0	female	white	4.614007162753682	neutral	009	sub-09	2.0	5.0	009_neutral	1.0	attractiveness	196.20417791201635	
28.0	172.8989685923093	pulse	3.0	t		22.0	female	white	4.614007162753682	neutral	009	sub-09	2.0	5.0	009_neutral	1.0	attractiveness	196.90415143934933	
29.0	173.27385143491256	face	0.0		145	28.0	male	white	3.9076800636689217	neutral	033	sub-09	2.0	5.0	033_neutral	0.0		197.2790342819526	1.2333162584127422
29.0	173.59897109770418	pulse	0.0	t		28.0	male	white	3.9076800636689217	neutral	033	sub-09	2.0	5.0	033_neutral	0.0		197.6041539447442	
29.0	174.29894975656907	pulse	0.0	t		28.0	male	white	3.9076800636689217	neutral	033	sub-09	2.0	5.0	033_neutral	0.0		198.3041326036091	
29.0	174.5071676933253	fix	1.0		444	28.0	male	white	3.9076800636689217	neutral	033	sub-09	2.0	5.0	033_neutral	0.0		198.51235054036533	3.7665904684517955
29.0	174.99893837664285	pulse	1.0	t		28.0	male	white	3.9076800636689217	neutral	033	sub-09	2.0	5.0	033_neutral	0.0		199.0041212236829	
29.0	175.69891733736267	pulse	1.0	t		28.0	male	white	3.9076800636689217	neutral	033	sub-09	2.0	5.0	033_neutral	0.0		199.7041001844027	
29.0	176.39891440937163	pulse	1.0	t		28.0	male	white	3.9076800636689217	neutral	033	sub-09	2.0	5.0	033_neutral	0.0		200.40409725641166	
29.0	177.0988991053323	pulse	1.0	t		28.0	male	white	3.9076800636689217	neutral	033	sub-09	2.0	5.0	033_neutral	0.0		201.10408195237233	
29.0	177.79887323637604	pulse	1.0	t		28.0	male	white	3.9076800636689217	neutral	033	sub-09	2.0	5.0	033_neutral	0.0		201.80405608341607	
30.0	178.2737581617771	face	0.0		145	20.0	male	black	2.609629924393156	smiling	043	sub-09	2.0	5.0	043_smiling	0.0		202.27894100881713	1.2333225973634399
30.0	178.49887091209393	pulse	0.0	t		20.0	male	black	2.609629924393156	smiling	043	sub-09	2.0	5.0	043_smiling	0.0		202.50405375913397	
30.0	179.19884202458843	pulse	0.0	t		20.0	male	black	2.609629924393156	smiling	043	sub-09	2.0	5.0	043_smiling	0.0		203.20402487162846	
30.0	179.50708075914054	fix	1.0		444	20.0	male	black	2.609629924393156	smiling	043	sub-09	2.0	5.0	043_smiling	0.0		203.51226360618057	3.7665729608725087
30.0	179.8988369836129	pulse	1.0	t		20.0	male	black	2.609629924393156	smiling	043	sub-09	2.0	5.0	043_smiling	0.0		203.90401983065294	
30.0	180.59883103707352	pulse	1.0	t		20.0	male	black	2.609629924393156	smiling	043	sub-09	2.0	5.0	043_smiling	0.0		204.60401388411356	
30.0	181.29881603489002	pulse	1.0	t		20.0	male	black	2.609629924393156	smiling	043	sub-09	2.0	5.0	043_smiling	0.0		205.30399888193006	
30.0	181.99879107149673	pulse	1.0	t		20.0	male	black	2.609629924393156	smiling	043	sub-09	2.0	5.0	043_smiling	0.0		206.00397391853676	
30.0	182.69877848415172	pulse	1.0	t		20.0	male	black	2.609629924393156	smiling	043	sub-09	2.0	5.0	043_smiling	0.0		206.70396133119175	
31.0	183.27365372001304	face	0.0		145	30.0	female	black	2.7345801830481498	smiling	062	sub-09	2.0	5.0	062_smiling	0.0		207.27883656705308	1.233306900914613
31.0	183.39877766914333	pulse	0.0	t		30.0	female	black	2.7345801830481498	smiling	062	sub-09	2.0	5.0	062_smiling	0.0		207.40396051618336	
31.0	184.09875029091245	pulse	0.0	t		30.0	female	black	2.7345801830481498	smiling	062	sub-09	2.0	5.0	062_smiling	0.0		208.10393313795248	
31.0	184.50696062092766	fix	1.0		444	30.0	female	black	2.7345801830481498	smiling	062	sub-09	2.0	5.0	062_smiling	0.0		208.5121434679677	3.766571149743868
31.0	184.7987358924388	pulse	1.0	t		30.0	female	black	2.7345801830481498	smiling	062	sub-09	2.0	5.0	062_smiling	0.0		208.80391873947883	
31.0	185.49871032533656	pulse	1.0	t		30.0	female	black	2.7345801830481498	smiling	062	sub-09	2.0	5.0	062_smiling	0.0		209.5038931723766	
31.0	186.19870286952255	pulse	1.0	t		30.0	female	black	2.7345801830481498	smiling	062	sub-09	2.0	5.0	062_smiling	0.0		210.20388571656258	
31.0	186.8986773024203	pulse	1.0	t		30.0	female	black	2.7345801830481498	smiling	062	sub-09	2.0	5.0	062_smiling	0.0		210.90386014946034	
31.0	187.59867075217107	pulse	1.0	t		30.0	female	black	2.7345801830481498	smiling	062	sub-09	2.0	5.0	062_smiling	0.0		211.6038535992111	
32.0	188.27353177067153	face	0.0		145	54.0	female	white	2.286908077994429	smiling	136	sub-09	2.0	5.0	136_smiling	0.0		212.27871461771156	1.233323502928215
32.0	188.2986675223242	pulse	0.0	t		54.0	female	white	2.286908077994429	smiling	136	sub-09	2.0	5.0	136_smiling	0.0		212.30385036936423	
32.0	188.9986576516726	pulse	0.0	t		54.0	female	white	2.286908077994429	smiling	136	sub-09	2.0	5.0	136_smiling	0.0		213.00384049871263	
32.0	189.50685527359974	fix	1.0		443	54.0	female	white	2.286908077994429	smiling	136	sub-09	2.0	5.0	136_smiling	0.0		213.51203812063977	3.766578997969191
32.0	189.69863359384408	pulse	1.0	t		54.0	female	white	2.286908077994429	smiling	136	sub-09	2.0	5.0	136_smiling	0.0		213.7038164408841	
32.0	190.3986291565784	pulse	1.0	t		54.0	female	white	2.286908077994429	smiling	136	sub-09	2.0	5.0	136_smiling	0.0		214.40381200361844	
32.0	191.0985963449607	pulse	1.0	t		54.0	female	white	2.286908077994429	smiling	136	sub-09	2.0	5.0	136_smiling	0.0		215.10377919200073	
32.0	191.79858224834106	pulse	1.0	t		54.0	female	white	2.286908077994429	smiling	136	sub-09	2.0	5.0	136_smiling	0.0		215.8037650953811	
32.0	192.4985750943829	pulse	1.0	t		54.0	female	white	2.286908077994429	smiling	136	sub-09	2.0	5.0	136_smiling	0.0		216.50375794142292	
32.0	193.19855465881255	pulse	1.0	t		54.0	female	white	2.286908077994429	smiling	136	sub-09	2.0	5.0	136_smiling	0.0		217.2037375058526	
33.0	193.27343427156893	face	0.0		146	24.0	male	white	3.1153999204138483	neutral	012	sub-09	2.0	5.0	012_neutral	0.0		217.27861711860896	1.23332320107329
33.0	193.89854871227226	pulse	0.0	t		24.0	male	white	3.1153999204138483	neutral	012	sub-09	2.0	5.0	012_neutral	0.0		217.9037315593123	
33.0	194.50675747264222	fix	1.0		443	24.0	male	white	3.1153999204138483	neutral	012	sub-09	2.0	5.0	012_neutral	0.0		218.51194031968225	3.7665832239363226
33.0	194.5985430675878	pulse	1.0	t		24.0	male	white	3.1153999204138483	neutral	012	sub-09	2.0	5.0	012_neutral	0.0		218.60372591462783	
33.0	195.29851629306586	pulse	1.0	t		24.0	male	white	3.1153999204138483	neutral	012	sub-09	2.0	5.0	012_neutral	0.0		219.3036991401059	
33.0	195.99850853539783	pulse	1.0	t		24.0	male	white	3.1153999204138483	neutral	012	sub-09	2.0	5.0	012_neutral	0.0		220.00369138243786	
33.0	196.69848779797258	pulse	1.0	t		24.0	male	white	3.1153999204138483	neutral	012	sub-09	2.0	5.0	012_neutral	0.0		220.7036706450126	
33.0	197.39848366256183	pulse	1.0	t		24.0	male	white	3.1153999204138483	neutral	012	sub-09	2.0	5.0	012_neutral	0.0		221.40366650960186	
33.0	198.09846171771687	pulse	1.0	t		24.0	male	white	3.1153999204138483	neutral	012	sub-09	2.0	5.0	012_neutral	0.0		222.1036445647569	
34.0	198.27334069657854	face	0.0		146	27.0	male	black	3.5523278949462798	smiling	042	sub-09	2.0	5.0	042_smiling	0.0		222.27852354361858	1.241642017705999
34.0	198.79844520625875	pulse	0.0	t		27.0	male	black	3.5523278949462798	smiling	042	sub-09	2.0	5.0	042_smiling	0.0		222.80362805329878	
34.0	199.4984283929466	pulse	0.0	t		27.0	male	black	3.5523278949462798	smiling	042	sub-09	2.0	5.0	042_smiling	0.0		223.50361123998664	
34.0	199.51498271428454	fix	1.0		443	27.0	male	black	3.5523278949462798	smiling	042	sub-09	2.0	5.0	042_smiling	0.0		223.52016556132457	3.758238145935138
34.0	200.19842516309973	pulse	1.0	t		27.0	male	black	3.5523278949462798	smiling	042	sub-09	2.0	5.0	042_smiling	0.0		224.20360801013976	
34.0	200.89840321825568	pulse	1.0	t		27.0	male	black	3.5523278949462798	smiling	042	sub-09	2.0	5.0	042_smiling	0.0		224.9035860652957	
34.0	201.59838700865248	pulse	1.0	t		27.0	male	black	3.5523278949462798	smiling	042	sub-09	2.0	5.0	042_smiling	0.0		225.6035698556925	
34.0	202.29837200646807	pulse	1.0	t		27.0	male	black	3.5523278949462798	smiling	042	sub-09	2.0	5.0	042_smiling	0.0		226.3035548535081	
34.0	202.99835308017146	pulse	1.0	t		27.0	male	black	3.5523278949462798	smiling	042	sub-09	2.0	5.0	042_smiling	0.0		227.0035359272115	
35.0	203.27322086021968	face	0.0		145	40.0	male	black	2.408674890569041	neutral	061	sub-09	2.0	5.0	061_neutral	0.0		227.2784037072597	1.2333244084929902
35.0	203.69834079468137	pulse	0.0	t		40.0	male	black	2.408674890569041	neutral	061	sub-09	2.0	5.0	061_neutral	0.0		227.7035236417214	
35.0	204.39832850919038	pulse	0.0	t		40.0	male	black	2.408674890569041	neutral	061	sub-09	2.0	5.0	061_neutral	0.0		228.4035113562304	
35.0	204.50654526871267	fix	1.0		444	40.0	male	black	2.408674890569041	neutral	061	sub-09	2.0	5.0	061_neutral	0.0		228.5117281157527	3.7665871480485293
35.0	205.09832195894114	pulse	1.0	t		40.0	male	black	2.408674890569041	neutral	061	sub-09	2.0	5.0	061_neutral	0.0		229.10350480598117	
35.0	205.79829216587177	pulse	1.0	t		40.0	male	black	2.408674890569041	neutral	061	sub-09	2.0	5.0	061_neutral	0.0		229.8034750129118	
35.0	206.49828742675118	pulse	1.0	t		40.0	male	black	2.408674890569041	neutral	061	sub-09	2.0	5.0	061_neutral	0.0		230.5034702737912	
35.0	207.19825974666537	pulse	1.0	t		40.0	male	black	2.408674890569041	neutral	061	sub-09	2.0	5.0	061_neutral	0.0		231.2034425937054	
35.0	207.89825470568985	pulse	1.0	t		40.0	male	black	2.408674890569041	neutral	061	sub-09	2.0	5.0	061_neutral	0.0		231.90343755272988	
36.0	208.2731324167612	face	0.0		145	37.0	male	white	3.898925586947871	neutral	101	sub-09	2.0	5.0	101_neutral	1.0	trustworthiness	232.27831526380123	1.2333065990596879
36.0	208.5982390997965	pulse	0.0	t		37.0	male	white	3.898925586947871	neutral	101	sub-09	2.0	5.0	101_neutral	1.0	trustworthiness	232.60342194683653	
36.0	209.29822107906466	pulse	0.0	t		37.0	male	white	3.898925586947871	neutral	101	sub-09	2.0	5.0	101_neutral	1.0	trustworthiness	233.3034039261047	
36.0	209.5064390158209	fix	1.0		177	37.0	male	white	3.898925586947871	neutral	101	sub-09	2.0	5.0	101_neutral	1.0	trustworthiness	233.51162186286092	1.4999817377838554
36.0	209.99821211397693	pulse	1.0	t		37.0	male	white	3.898925586947871	neutral	101	sub-09	2.0	5.0	101_neutral	1.0	trustworthiness	234.00339496101697	
36.0	210.6982019414695	pulse	1.0	t		37.0	male	white	3.898925586947871	neutral	101	sub-09	2.0	5.0	101_neutral	1.0	trustworthiness	234.70338478850954	
36.0	211.00642075360474	rating	2.0		295	37.0	male	white	3.898925586947871	neutral	101	sub-09	2.0	5.0	101_neutral	1.0	trustworthiness	235.01160360064478	2.5082694633720166
36.0	211.39818392073767	pulse	2.0	t		37.0	male	white	3.898925586947871	neutral	101	sub-09	2.0	5.0	101_neutral	1.0	trustworthiness	235.4033667677777	
36.0	212.0981643907321	pulse	2.0	t		37.0	male	white	3.898925586947871	neutral	101	sub-09	2.0	5.0	101_neutral	1.0	trustworthiness	236.10334723777214	
36.0	212.26801356294027	response	2.0	e		37.0	male	white	3.898925586947871	neutral	101	sub-09	2.0	5.0	101_neutral	1.0	trustworthiness	236.2731964099803	
36.0	212.79813882362987	pulse	2.0	t		37.0	male	white	3.898925586947871	neutral	101	sub-09	2.0	5.0	101_neutral	1.0	trustworthiness	236.8033216706699	
36.0	213.49812895297737	pulse	2.0	t		37.0	male	white	3.898925586947871	neutral	101	sub-09	2.0	5.0	101_neutral	1.0	trustworthiness	237.5033118000174	
36.0	213.51469021697676	fix	3.0		443	37.0	male	white	3.898925586947871	neutral	101	sub-09	2.0	5.0	101_neutral	1.0	trustworthiness	237.5198730640168	3.7499072551099744
36.0	214.19813809917787	pulse	3.0	t		37.0	male	white	3.898925586947871	neutral	101	sub-09	2.0	5.0	101_neutral	1.0	trustworthiness	238.2033209462179	
36.0	214.89810589127	pulse	3.0	t		37.0	male	white	3.898925586947871	neutral	101	sub-09	2.0	5.0	101_neutral	1.0	trustworthiness	238.90328873831004	
36.0	215.5980869649734	pulse	3.0	t		37.0	male	white	3.898925586947871	neutral	101	sub-09	2.0	5.0	101_neutral	1.0	trustworthiness	239.60326981201342	
36.0	216.29808071657908	pulse	3.0	t		37.0	male	white	3.898925586947871	neutral	101	sub-09	2.0	5.0	101_neutral	1.0	trustworthiness	240.3032635636191	
36.0	216.99805394205805	pulse	3.0	t		37.0	male	white	3.898925586947871	neutral	101	sub-09	2.0	5.0	101_neutral	1.0	trustworthiness	241.00323678909808	
37.0	217.26459747208673	face	0.0		146	21.0	male	black	2.969757262236371	smiling	137	sub-09	2.0	5.0	137_smiling	0.0		241.26978031912677	1.2416694864941746
37.0	217.69804950479238	pulse	0.0	t		21.0	male	black	2.969757262236371	smiling	137	sub-09	2.0	5.0	137_smiling	0.0		241.7032323518324	
37.0	218.39804295454314	pulse	0.0	t		21.0	male	black	2.969757262236371	smiling	137	sub-09	2.0	5.0	137_smiling	0.0		242.40322580158318	
37.0	218.5062669585809	fix	1.0		444	21.0	male	black	2.969757262236371	smiling	137	sub-09	2.0	5.0	137_smiling	0.0		242.51144980562094	3.75828010375335
37.0	219.09802040598834	pulse	1.0	t		21.0	male	black	2.969757262236371	smiling	137	sub-09	2.0	5.0	137_smiling	0.0		243.10320325302837	
37.0	219.79800842235318	pulse	1.0	t		21.0	male	black	2.969757262236371	smiling	137	sub-09	2.0	5.0	137_smiling	0.0		243.8031912693932	
37.0	220.49799734428188	pulse	1.0	t		21.0	male	black	2.969757262236371	smiling	137	sub-09	2.0	5.0	137_smiling	0.0		244.50318019132192	
37.0	221.197975097582	pulse	1.0	t		21.0	male	black	2.969757262236371	smiling	137	sub-09	2.0	5.0	137_smiling	0.0		245.20315794462203	
37.0	221.8979549638666	pulse	1.0	t		21.0	male	black	2.969757262236371	smiling	137	sub-09	2.0	5.0	137_smiling	0.0		245.90313781090663	
38.0	222.26454706233426	face	0.0		146	27.0	male	black	3.5523278949462798	neutral	042	sub-09	2.0	5.0	042_neutral	0.0		246.2697299093743	1.241601871016428
38.0	222.59794992289108	pulse	0.0	t		27.0	male	black	3.5523278949462798	neutral	042	sub-09	2.0	5.0	042_neutral	0.0		246.6031327699311	
38.0	223.29794246707797	pulse	0.0	t		27.0	male	black	3.5523278949462798	neutral	042	sub-09	2.0	5.0	042_neutral	0.0		247.303125314118	
38.0	223.5061489333507	fix	1.0		444	27.0	male	black	3.5523278949462798	neutral	042	sub-09	2.0	5.0	042_neutral	0.0		247.51133178039072	3.7665859406297386
38.0	223.99791961666824	pulse	1.0	t		27.0	male	black	3.5523278949462798	neutral	042	sub-09	2.0	5.0	042_neutral	0.0		248.00310246370827	
38.0	224.69790069037253	pulse	1.0	t		27.0	male	black	3.5523278949462798	neutral	042	sub-09	2.0	5.0	042_neutral	0.0		248.70308353741257	
38.0	225.3978965549618	pulse	1.0	t		27.0	male	black	3.5523278949462798	neutral	042	sub-09	2.0	5.0	042_neutral	0.0		249.40307940200182	
38.0	226.09798871123394	pulse	1.0	t		27.0	male	black	3.5523278949462798	neutral	042	sub-09	2.0	5.0	042_neutral	0.0		250.10317155827397	
38.0	226.7978668524479	pulse	1.0	t		27.0	male	black	3.5523278949462798	neutral	042	sub-09	2.0	5.0	042_neutral	0.0		250.80304969948793	
39.0	227.27273487398043	face	0.0		145	31.0	male	west_asian	1.9538400318344609	neutral	070	sub-09	2.0	5.0	070_neutral	0.0		251.27791772102046	1.2333041842202874
39.0	227.49784973728083	pulse	0.0	t		31.0	male	west_asian	1.9538400318344609	neutral	070	sub-09	2.0	5.0	070_neutral	0.0		251.50303258432086	
39.0	228.19783503695135	pulse	0.0	t		31.0	male	west_asian	1.9538400318344609	neutral	070	sub-09	2.0	5.0	070_neutral	0.0		252.20301788399138	
39.0	228.5060390582007	fix	1.0		444	31.0	male	west_asian	1.9538400318344609	neutral	070	sub-09	2.0	5.0	070_neutral	0.0		252.51122190524075	3.749927479382677
39.0	228.8978142995261	pulse	1.0	t		31.0	male	west_asian	1.9538400318344609	neutral	070	sub-09	2.0	5.0	070_neutral	0.0		252.90299714656612	
39.0	229.5978008066163	pulse	1.0	t		31.0	male	west_asian	1.9538400318344609	neutral	070	sub-09	2.0	5.0	070_neutral	0.0		253.60298365365634	
39.0	230.29778550257788	pulse	1.0	t		31.0	male	west_asian	1.9538400318344609	neutral	070	sub-09	2.0	5.0	070_neutral	0.0		254.3029683496179	
39.0	230.99777291523196	pulse	1.0	t		31.0	male	west_asian	1.9538400318344609	neutral	070	sub-09	2.0	5.0	070_neutral	0.0		255.002955762272	
39.0	231.69775036667806	pulse	1.0	t		31.0	male	west_asian	1.9538400318344609	neutral	070	sub-09	2.0	5.0	070_neutral	0.0		255.7029332137181	
40.0	232.2559665375834	fix	0.0		720													256.2611493846234	5.999889521141085
40.0	232.39774411828375	pulse	0.0	t														256.4029269653238	
40.0	233.0977182493266	pulse	0.0	t														257.1029010963666	
40.0	233.79772316955996	pulse	0.0	t														257.8029060166	
40.0	234.49769699874787	pulse	0.0	t														258.5028798457879	
40.0	235.1976774687423	pulse	0.0	t														259.20286031578235	
40.0	235.89767484260528	pulse	0.0	t														259.9028576896453	
40.0	236.5976513884866	pulse	0.0	t														260.60283423552664	
40.0	237.29764695122094	pulse	0.0	t														261.302829798261	
40.0	237.99762742121538	pulse	0.0	t														262.0028102682554	
