trial_nr	onset	event_type	phase	response	nr_frames	face_age	face_sex	face_eth	attractiveness	expression	face_id	sub_id	ses	run	trial_type	catch	rating_type	onset_abs	duration
-1.0	0.053334862717747455	fix	0.0		714													11.184119859457496	5.965797433049374
-1.0	0.7027384028397137	pulse	0.0	t														11.833523399579462	
-1.0	1.4027048972493503	pulse	0.0	t														12.533489893989099	
-1.0	2.1026885972323726	pulse	0.0	t														13.233473593972121	
-1.0	2.8026578083117784	pulse	0.0	t														13.933442805051527	
-1.0	3.5026729009205155	pulse	0.0	t														14.633457897660264	
-1.0	4.202620680495784	pulse	0.0	t														15.333405677235532	
-1.0	4.9026067952963786	pulse	0.0	t														16.033391792036127	
-1.0	5.602577213783661	pulse	0.0	t														16.73336221052341	
0.0	6.019132295767122	face	0.0		144	28.0	female	white	5.676880222841227	smiling	124	sub-07	2.0	2.0	124_smiling	0.0		17.14991729250687	1.233301236386069
0.0	6.302564535993042	pulse	0.0	t		28.0	female	white	5.676880222841227	smiling	124	sub-07	2.0	2.0	124_smiling	0.0		17.43334953273279	
0.0	7.002543104489632	pulse	0.0	t		28.0	female	white	5.676880222841227	smiling	124	sub-07	2.0	2.0	124_smiling	0.0		18.13332810122938	
0.0	7.252433532153191	fix	1.0		445	28.0	female	white	5.676880222841227	smiling	124	sub-07	2.0	2.0	124_smiling	0.0		18.38321852889294	3.758225169641264
0.0	7.702517145203274	pulse	1.0	t		28.0	female	white	5.676880222841227	smiling	124	sub-07	2.0	2.0	124_smiling	0.0		18.833302141943022	
0.0	8.402501750742886	pulse	1.0	t		28.0	female	white	5.676880222841227	smiling	124	sub-07	2.0	2.0	124_smiling	0.0		19.533286747482634	
0.0	9.102485752578104	pulse	1.0	t		28.0	female	white	5.676880222841227	smiling	124	sub-07	2.0	2.0	124_smiling	0.0		20.233270749317853	
0.0	9.802455265509707	pulse	1.0	t		28.0	female	white	5.676880222841227	smiling	124	sub-07	2.0	2.0	124_smiling	0.0		20.933240262249456	
0.0	10.502438965492729	pulse	1.0	t		28.0	female	white	5.676880222841227	smiling	124	sub-07	2.0	2.0	124_smiling	0.0		21.633223962232478	
1.0	11.010658701794455	face	0.0		146	20.0	male	black	2.609629924393156	smiling	043	sub-07	2.0	2.0	043_smiling	0.0		22.141443698534204	1.2416154524162266
1.0	11.202420250658179	pulse	0.0	t		20.0	male	black	2.609629924393156	smiling	043	sub-07	2.0	2.0	043_smiling	0.0		22.333205247397927	
1.0	11.902395800632803	pulse	0.0	t		20.0	male	black	2.609629924393156	smiling	043	sub-07	2.0	2.0	043_smiling	0.0		23.03318079737255	
1.0	12.252274154210681	fix	1.0		445	20.0	male	black	2.609629924393156	smiling	043	sub-07	2.0	2.0	043_smiling	0.0		23.38305915095043	3.7582200381539224
1.0	12.60237648209386	pulse	1.0	t		20.0	male	black	2.609629924393156	smiling	043	sub-07	2.0	2.0	043_smiling	0.0		23.73316147883361	
1.0	13.302355654294843	pulse	1.0	t		20.0	male	black	2.609629924393156	smiling	043	sub-07	2.0	2.0	043_smiling	0.0		24.43314065103459	
1.0	14.002333920939236	pulse	1.0	t		20.0	male	black	2.609629924393156	smiling	043	sub-07	2.0	2.0	043_smiling	0.0		25.133118917678985	
1.0	14.70230856535727	pulse	1.0	t		20.0	male	black	2.609629924393156	smiling	043	sub-07	2.0	2.0	043_smiling	0.0		25.83309356209702	
1.0	15.40229347274908	pulse	1.0	t		20.0	male	black	2.609629924393156	smiling	043	sub-07	2.0	2.0	043_smiling	0.0		26.533078469488828	
2.0	16.010494192364604	face	0.0		146	25.0	female	black	3.858336649423	neutral	126	sub-07	2.0	2.0	126_neutral	0.0		27.141279189104353	1.2416296394676465
2.0	16.102261778271895	pulse	0.0	t		25.0	female	black	3.858336649423	neutral	126	sub-07	2.0	2.0	126_neutral	0.0		27.233046775011644	
2.0	16.802239743063183	pulse	0.0	t		25.0	female	black	3.858336649423	neutral	126	sub-07	2.0	2.0	126_neutral	0.0		27.93302473980293	
2.0	17.25212383183225	fix	1.0		444	25.0	female	black	3.858336649423	neutral	126	sub-07	2.0	2.0	126_neutral	0.0		28.382908828572	3.758216415928473
2.0	17.502229480090136	pulse	1.0	t		25.0	female	black	3.858336649423	neutral	126	sub-07	2.0	2.0	126_neutral	0.0		28.633014476829885	
2.0	18.202208954142407	pulse	1.0	t		25.0	female	black	3.858336649423	neutral	126	sub-07	2.0	2.0	126_neutral	0.0		29.332993950882155	
2.0	18.902188428195586	pulse	1.0	t		25.0	female	black	3.858336649423	neutral	126	sub-07	2.0	2.0	126_neutral	0.0		30.032973424935335	
2.0	19.602162468909228	pulse	1.0	t		25.0	female	black	3.858336649423	neutral	126	sub-07	2.0	2.0	126_neutral	0.0		30.732947465648977	
2.0	20.30213982999703	pulse	1.0	t		25.0	female	black	3.858336649423	neutral	126	sub-07	2.0	2.0	126_neutral	0.0		31.43292482673678	
3.0	21.010340247760723	face	0.0		147	31.0	female	white	2.1822522881018704	smiling	102	sub-07	2.0	2.0	102_smiling	0.0		32.14112524450047	1.2416399024414204
3.0	21.002869406679565	pulse	0.0	t		31.0	female	white	2.1822522881018704	smiling	102	sub-07	2.0	2.0	102_smiling	0.0		32.133654403419314	
3.0	21.702107531815273	pulse	0.0	t		31.0	female	white	2.1822522881018704	smiling	102	sub-07	2.0	2.0	102_smiling	0.0		32.83289252855502	
3.0	22.251980150202144	fix	1.0		443	31.0	female	white	2.1822522881018704	smiling	102	sub-07	2.0	2.0	102_smiling	0.0		33.38276514694189	3.758217321484153
3.0	22.402087005868452	pulse	1.0	t		31.0	female	white	2.1822522881018704	smiling	102	sub-07	2.0	2.0	102_smiling	0.0		33.5328720026082	
3.0	23.102064366955346	pulse	1.0	t		31.0	female	white	2.1822522881018704	smiling	102	sub-07	2.0	2.0	102_smiling	0.0		34.232849363695095	
3.0	23.80203901137429	pulse	1.0	t		31.0	female	white	2.1822522881018704	smiling	102	sub-07	2.0	2.0	102_smiling	0.0		34.93282400811404	
3.0	24.502020598391937	pulse	1.0	t		31.0	female	white	2.1822522881018704	smiling	102	sub-07	2.0	2.0	102_smiling	0.0		35.632805595131686	
3.0	25.2020006761486	pulse	1.0	t		31.0	female	white	2.1822522881018704	smiling	102	sub-07	2.0	2.0	102_smiling	0.0		36.33278567288835	
3.0	25.90196143536741	pulse	1.0	t		31.0	female	white	2.1822522881018704	smiling	102	sub-07	2.0	2.0	102_smiling	0.0		37.03274643210716	
4.0	26.010197471686297	face	0.0		147	40.0	male	black	2.408674890569041	smiling	061	sub-07	2.0	2.0	061_smiling	0.0		37.140982468426046	1.2416329598418088
4.0	26.60195962425496	pulse	0.0	t		40.0	male	black	2.408674890569041	smiling	061	sub-07	2.0	2.0	061_smiling	0.0		37.73274462099471	
4.0	27.251830431528106	fix	1.0		444	40.0	male	black	2.408674890569041	smiling	061	sub-07	2.0	2.0	061_smiling	0.0		38.382615428267854	3.758220340006119
4.0	27.301940305716016	pulse	1.0	t		40.0	male	black	2.408674890569041	smiling	061	sub-07	2.0	2.0	061_smiling	0.0		38.432725302455765	
4.0	28.001915251986247	pulse	1.0	t		40.0	male	black	2.408674890569041	smiling	061	sub-07	2.0	2.0	061_smiling	0.0		39.132700248725996	
4.0	28.701898650117073	pulse	1.0	t		40.0	male	black	2.408674890569041	smiling	061	sub-07	2.0	2.0	061_smiling	0.0		39.83268364685682	
4.0	29.401908309386272	pulse	1.0	t		40.0	male	black	2.408674890569041	smiling	061	sub-07	2.0	2.0	061_smiling	0.0		40.53269330612602	
4.0	30.10185065562291	pulse	1.0	t		40.0	male	black	2.408674890569041	smiling	061	sub-07	2.0	2.0	061_smiling	0.0		41.23263565236266	
4.0	30.801828620415108	pulse	1.0	t		40.0	male	black	2.408674890569041	smiling	061	sub-07	2.0	2.0	061_smiling	0.0		41.93261361715486	
5.0	31.010050771534225	face	0.0		146	37.0	male	white	3.898925586947871	neutral	101	sub-07	2.0	2.0	101_neutral	0.0		42.14083576827397	1.241642317258993
5.0	31.501824998188567	pulse	0.0	t		37.0	male	white	3.898925586947871	neutral	101	sub-07	2.0	2.0	101_neutral	0.0		42.632609994928316	
5.0	32.20178937963374	pulse	0.0	t		37.0	male	white	3.898925586947871	neutral	101	sub-07	2.0	2.0	101_neutral	0.0		43.332574376373486	
5.0	32.25169308879322	fix	1.0		445	37.0	male	white	3.898925586947871	neutral	101	sub-07	2.0	2.0	101_neutral	0.0		43.382478085532966	3.7582091714757553
5.0	32.901777003694406	pulse	1.0	t		37.0	male	white	3.898925586947871	neutral	101	sub-07	2.0	2.0	101_neutral	0.0		44.032562000434154	
5.0	33.60175134626115	pulse	1.0	t		37.0	male	white	3.898925586947871	neutral	101	sub-07	2.0	2.0	101_neutral	0.0		44.7325363430009	
5.0	34.30173172587001	pulse	1.0	t		37.0	male	white	3.898925586947871	neutral	101	sub-07	2.0	2.0	101_neutral	0.0		45.43251672260976	
5.0	35.00170938881001	pulse	1.0	t		37.0	male	white	3.898925586947871	neutral	101	sub-07	2.0	2.0	101_neutral	0.0		46.13249438554976	
5.0	35.70168282581926	pulse	1.0	t		37.0	male	white	3.898925586947871	neutral	101	sub-07	2.0	2.0	101_neutral	0.0		46.83246782255901	
6.0	36.00990226026897	face	0.0		146	20.0	male	black	3.1070433744528456	neutral	082	sub-07	2.0	2.0	082_neutral	0.0		47.14068725700872	1.241631450580826
6.0	36.401688561010815	pulse	0.0	t		20.0	male	black	3.1070433744528456	neutral	082	sub-07	2.0	2.0	082_neutral	0.0		47.53247355775056	
6.0	37.10164841467213	pulse	0.0	t		20.0	male	black	3.1070433744528456	neutral	082	sub-07	2.0	2.0	082_neutral	0.0		48.232433411411876	
6.0	37.2515337108498	fix	1.0		445	20.0	male	black	3.1070433744528456	neutral	082	sub-07	2.0	2.0	082_neutral	0.0		48.38231870758955	3.758219736301726
6.0	37.801629699838486	pulse	1.0	t		20.0	male	black	3.1070433744528456	neutral	082	sub-07	2.0	2.0	082_neutral	0.0		48.932414696578235	
6.0	38.501647207263886	pulse	1.0	t		20.0	male	black	3.1070433744528456	neutral	082	sub-07	2.0	2.0	082_neutral	0.0		49.632432204003635	
6.0	39.20158683683076	pulse	1.0	t		20.0	male	black	3.1070433744528456	neutral	082	sub-07	2.0	2.0	082_neutral	0.0		50.332371833570505	
6.0	39.90156359421417	pulse	1.0	t		20.0	male	black	3.1070433744528456	neutral	082	sub-07	2.0	2.0	082_neutral	0.0		51.032348590953916	
6.0	40.601540653449774	pulse	1.0	t		20.0	male	black	3.1070433744528456	neutral	082	sub-07	2.0	2.0	082_neutral	0.0		51.73232565018952	
7.0	41.009753447151525	face	0.0		146	54.0	female	white	2.286908077994429	neutral	136	sub-07	2.0	2.0	136_neutral	0.0		52.14053844389127	1.2416239042768211
7.0	41.301526164545976	pulse	0.0	t		54.0	female	white	2.286908077994429	neutral	136	sub-07	2.0	2.0	136_neutral	0.0		52.432311161285725	
7.0	42.001499601555224	pulse	0.0	t		54.0	female	white	2.286908077994429	neutral	136	sub-07	2.0	2.0	136_neutral	0.0		53.13228459829497	
7.0	42.251377351428346	fix	1.0		445	54.0	female	white	2.286908077994429	neutral	136	sub-07	2.0	2.0	136_neutral	0.0		53.382162348168094	3.7665629301391164
7.0	42.70146066262623	pulse	1.0	t		54.0	female	white	2.286908077994429	neutral	136	sub-07	2.0	2.0	136_neutral	0.0		53.83224565936598	
7.0	43.40146851078225	pulse	1.0	t		54.0	female	white	2.286908077994429	neutral	136	sub-07	2.0	2.0	136_neutral	0.0		54.532253507522	
7.0	44.101443155200286	pulse	1.0	t		54.0	female	white	2.286908077994429	neutral	136	sub-07	2.0	2.0	136_neutral	0.0		55.232228151940035	
7.0	44.80140632923667	pulse	1.0	t		54.0	female	white	2.286908077994429	neutral	136	sub-07	2.0	2.0	136_neutral	0.0		55.93219132597642	
7.0	45.50139999034127	pulse	1.0	t		54.0	female	white	2.286908077994429	neutral	136	sub-07	2.0	2.0	136_neutral	0.0		56.63218498708102	
8.0	46.01794028156746	face	0.0		145	30.0	female	black	2.7345801830481498	smiling	062	sub-07	2.0	2.0	062_smiling	1.0	attractiveness	57.14872527830721	1.2332970104562264
8.0	46.20138459588088	pulse	0.0	t		30.0	female	black	2.7345801830481498	smiling	062	sub-07	2.0	2.0	062_smiling	1.0	attractiveness	57.33216959262063	
8.0	46.90135712733354	pulse	0.0	t		30.0	female	black	2.7345801830481498	smiling	062	sub-07	2.0	2.0	062_smiling	1.0	attractiveness	58.03214212407329	
8.0	47.25123729202369	fix	1.0		177	30.0	female	black	2.7345801830481498	smiling	062	sub-07	2.0	2.0	062_smiling	1.0	attractiveness	58.38202228876344	1.5083160271424276
8.0	47.60133901620338	pulse	1.0	t		30.0	female	black	2.7345801830481498	smiling	062	sub-07	2.0	2.0	062_smiling	1.0	attractiveness	58.73212401294313	
8.0	48.30131426432581	pulse	1.0	t		30.0	female	black	2.7345801830481498	smiling	062	sub-07	2.0	2.0	062_smiling	1.0	attractiveness	59.43209926106556	
8.0	48.759553319166116	rating	2.0		293	30.0	female	black	2.7345801830481498	smiling	062	sub-07	2.0	2.0	062_smiling	1.0	attractiveness	59.890338315905865	2.491566552365839
8.0	49.00130188838739	pulse	2.0	t		30.0	female	black	2.7345801830481498	smiling	062	sub-07	2.0	2.0	062_smiling	1.0	attractiveness	60.13208688512714	
8.0	49.70127955132739	pulse	2.0	t		30.0	female	black	2.7345801830481498	smiling	062	sub-07	2.0	2.0	062_smiling	1.0	attractiveness	60.83206454806714	
8.0	50.40125691241428	pulse	2.0	t		30.0	female	black	2.7345801830481498	smiling	062	sub-07	2.0	2.0	062_smiling	1.0	attractiveness	61.53204190915403	
8.0	50.67623789572826	response	2.0	w		30.0	female	black	2.7345801830481498	smiling	062	sub-07	2.0	2.0	062_smiling	1.0	attractiveness	61.80702289246801	
8.0	51.101217671633094	pulse	2.0	t		30.0	female	black	2.7345801830481498	smiling	062	sub-07	2.0	2.0	062_smiling	1.0	attractiveness	62.23200266837284	
8.0	51.251119871531955	fix	3.0		444	30.0	female	black	2.7345801830481498	smiling	062	sub-07	2.0	2.0	062_smiling	1.0	attractiveness	62.381904868271704	3.7665526671653424
8.0	51.80121404940746	pulse	3.0	t		30.0	female	black	2.7345801830481498	smiling	062	sub-07	2.0	2.0	062_smiling	1.0	attractiveness	62.93199904614721	
8.0	52.50119050493868	pulse	3.0	t		30.0	female	black	2.7345801830481498	smiling	062	sub-07	2.0	2.0	062_smiling	1.0	attractiveness	63.631975501678426	
8.0	53.20117480862609	pulse	3.0	t		30.0	female	black	2.7345801830481498	smiling	062	sub-07	2.0	2.0	062_smiling	1.0	attractiveness	64.33195980536584	
8.0	53.9011515660095	pulse	3.0	t		30.0	female	black	2.7345801830481498	smiling	062	sub-07	2.0	2.0	062_smiling	1.0	attractiveness	65.03193656274925	
8.0	54.601127417836324	pulse	3.0	t		30.0	female	black	2.7345801830481498	smiling	062	sub-07	2.0	2.0	062_smiling	1.0	attractiveness	65.73191241457607	
9.0	55.0176725386973	face	0.0		145	40.0	male	white	1.868682849184242	smiling	172	sub-07	2.0	2.0	172_smiling	0.0		66.14845753543705	1.2332985197172093
9.0	55.30111232522813	pulse	0.0	t		40.0	male	white	1.868682849184242	smiling	172	sub-07	2.0	2.0	172_smiling	0.0		66.43189732196788	
9.0	56.00107942334216	pulse	0.0	t		40.0	male	white	1.868682849184242	smiling	172	sub-07	2.0	2.0	172_smiling	0.0		67.13186442008191	
9.0	56.25097105841451	fix	1.0		445	40.0	male	white	1.868682849184242	smiling	172	sub-07	2.0	2.0	172_smiling	0.0		67.38175605515426	3.758354362367754
9.0	56.70107338629805	pulse	1.0	t		40.0	male	white	1.868682849184242	smiling	172	sub-07	2.0	2.0	172_smiling	0.0		67.8318583830378	
9.0	57.4010474270126	pulse	1.0	t		40.0	male	white	1.868682849184242	smiling	172	sub-07	2.0	2.0	172_smiling	0.0		68.53183242375235	
9.0	58.10102841032585	pulse	1.0	t		40.0	male	white	1.868682849184242	smiling	172	sub-07	2.0	2.0	172_smiling	0.0		69.2318134070656	
9.0	58.801009393639106	pulse	1.0	t		40.0	male	white	1.868682849184242	smiling	172	sub-07	2.0	2.0	172_smiling	0.0		69.93179439037885	
9.0	59.50099098065766	pulse	1.0	t		40.0	male	white	1.868682849184242	smiling	172	sub-07	2.0	2.0	172_smiling	0.0		70.63177597739741	
10.0	60.00932542078226	face	0.0		146	28.0	male	white	3.9076800636689217	smiling	033	sub-07	2.0	2.0	033_smiling	0.0		71.14011041752201	1.2414989374801735
10.0	60.20096683248448	pulse	0.0	t		28.0	male	white	3.9076800636689217	smiling	033	sub-07	2.0	2.0	033_smiling	0.0		71.33175182922423	
10.0	60.90139606626235	pulse	0.0	t		28.0	male	white	3.9076800636689217	smiling	033	sub-07	2.0	2.0	033_smiling	0.0		72.0321810630021	
10.0	61.250824358262435	fix	1.0		444	28.0	male	white	3.9076800636689217	smiling	033	sub-07	2.0	2.0	033_smiling	0.0		72.38160935500218	3.758219434449529
10.0	61.6009284972597	pulse	1.0	t		28.0	male	white	3.9076800636689217	smiling	033	sub-07	2.0	2.0	033_smiling	0.0		72.73171349399945	
10.0	62.300920950955515	pulse	1.0	t		28.0	male	white	3.9076800636689217	smiling	033	sub-07	2.0	2.0	033_smiling	0.0		73.43170594769526	
10.0	63.000901330564375	pulse	1.0	t		28.0	male	white	3.9076800636689217	smiling	033	sub-07	2.0	2.0	033_smiling	0.0		74.13168632730412	
10.0	63.70087416386923	pulse	1.0	t		28.0	male	white	3.9076800636689217	smiling	033	sub-07	2.0	2.0	033_smiling	0.0		74.83165916060898	
10.0	64.40084428050523	pulse	1.0	t		28.0	male	white	3.9076800636689217	smiling	033	sub-07	2.0	2.0	033_smiling	0.0		75.53162927724497	
11.0	65.00904379271196	face	0.0		146	40.0	female	west_asian	1.5777954635893354	neutral	038	sub-07	2.0	2.0	038_neutral	0.0		76.13982878945171	1.241632054285219
11.0	65.1008237545584	pulse	0.0	t		40.0	female	west_asian	1.5777954635893354	neutral	038	sub-07	2.0	2.0	038_neutral	0.0		76.23160875129815	
11.0	65.80079628601106	pulse	0.0	t		40.0	female	west_asian	1.5777954635893354	neutral	038	sub-07	2.0	2.0	038_neutral	0.0		76.93158128275081	
11.0	66.25067584699718	fix	1.0		444	40.0	female	west_asian	1.5777954635893354	neutral	038	sub-07	2.0	2.0	038_neutral	0.0		77.38146084373693	3.758213699258704
11.0	66.50077998599409	pulse	1.0	t		40.0	female	west_asian	1.5777954635893354	neutral	038	sub-07	2.0	2.0	038_neutral	0.0		77.63156498273383	
11.0	67.20076187486393	pulse	1.0	t		40.0	female	west_asian	1.5777954635893354	neutral	038	sub-07	2.0	2.0	038_neutral	0.0		78.33154687160368	
11.0	67.90074406558688	pulse	1.0	t		40.0	female	west_asian	1.5777954635893354	neutral	038	sub-07	2.0	2.0	038_neutral	0.0		79.03152906232663	
11.0	68.60071810630052	pulse	1.0	t		40.0	female	west_asian	1.5777954635893354	neutral	038	sub-07	2.0	2.0	038_neutral	0.0		79.73150310304027	
11.0	69.30069607109272	pulse	1.0	t		40.0	female	west_asian	1.5777954635893354	neutral	038	sub-07	2.0	2.0	038_neutral	0.0		80.43148106783246	
12.0	70.00888954625589	face	0.0		147	26.0	female	white	4.854755272582572	neutral	027	sub-07	2.0	2.0	027_neutral	0.0		81.13967454299564	1.2416389968848307
12.0	70.00069365627496	pulse	0.0	t		26.0	female	white	4.854755272582572	neutral	027	sub-07	2.0	2.0	027_neutral	0.0		81.13147865301471	
12.0	70.70065713216263	pulse	0.0	t		26.0	female	white	4.854755272582572	neutral	027	sub-07	2.0	2.0	027_neutral	0.0		81.83144212890238	
12.0	71.25052854314072	fix	1.0		443	26.0	female	white	4.854755272582572	neutral	027	sub-07	2.0	2.0	027_neutral	0.0		82.38131353988047	3.7665508560530725
12.0	71.40063630436362	pulse	1.0	t		26.0	female	white	4.854755272582572	neutral	027	sub-07	2.0	2.0	027_neutral	0.0		82.53142130110336	
12.0	72.10061064692945	pulse	1.0	t		26.0	female	white	4.854755272582572	neutral	027	sub-07	2.0	2.0	027_neutral	0.0		83.2313956436692	
12.0	72.80058559319968	pulse	1.0	t		26.0	female	white	4.854755272582572	neutral	027	sub-07	2.0	2.0	027_neutral	0.0		83.93137058993943	
12.0	73.50059193209563	pulse	1.0	t		26.0	female	white	4.854755272582572	neutral	027	sub-07	2.0	2.0	027_neutral	0.0		84.63137692883538	
12.0	74.20055118205346	pulse	1.0	t		26.0	female	white	4.854755272582572	neutral	027	sub-07	2.0	2.0	027_neutral	0.0		85.33133617879321	
12.0	74.90053910796632	pulse	1.0	t		26.0	female	white	4.854755272582572	neutral	027	sub-07	2.0	2.0	027_neutral	0.0		86.03132410470607	
13.0	75.01707939919379	face	0.0		146	28.0	female	white	5.676880222841227	neutral	124	sub-07	2.0	2.0	124_neutral	1.0	attractiveness	86.14786439593354	1.233303349351445
13.0	75.60051375238436	pulse	0.0	t		28.0	female	white	5.676880222841227	neutral	124	sub-07	2.0	2.0	124_neutral	1.0	attractiveness	86.73129874912411	
13.0	76.25038274854523	fix	1.0		176	28.0	female	white	5.676880222841227	neutral	124	sub-07	2.0	2.0	124_neutral	1.0	attractiveness	87.38116774528498	1.4999565332882412
13.0	76.30048537828134	pulse	1.0	t		28.0	female	white	5.676880222841227	neutral	124	sub-07	2.0	2.0	124_neutral	1.0	attractiveness	87.43127037502109	
13.0	77.0004660597424	pulse	1.0	t		28.0	female	white	5.676880222841227	neutral	124	sub-07	2.0	2.0	124_neutral	1.0	attractiveness	88.13125105648214	
13.0	77.70044553379557	pulse	1.0	t		28.0	female	white	5.676880222841227	neutral	124	sub-07	2.0	2.0	124_neutral	1.0	attractiveness	88.83123053053532	
13.0	77.75033928183348	rating	2.0		295	28.0	female	white	5.676880222841227	neutral	124	sub-07	2.0	2.0	124_neutral	1.0	attractiveness	88.88112427857322	2.4999239332546495
13.0	78.40043496896942	pulse	2.0	t		28.0	female	white	5.676880222841227	neutral	124	sub-07	2.0	2.0	124_neutral	1.0	attractiveness	89.53121996570917	
13.0	78.94208241771503	response	2.0	g		28.0	female	white	5.676880222841227	neutral	124	sub-07	2.0	2.0	124_neutral	1.0	attractiveness	90.07286741445478	
13.0	79.10040297264004	pulse	2.0	t		28.0	female	white	5.676880222841227	neutral	124	sub-07	2.0	2.0	124_neutral	1.0	attractiveness	90.23118796937979	
13.0	79.80037791891027	pulse	2.0	t		28.0	female	white	5.676880222841227	neutral	124	sub-07	2.0	2.0	124_neutral	1.0	attractiveness	90.93116291565002	
13.0	80.25026321508813	fix	3.0		444	28.0	female	white	5.676880222841227	neutral	124	sub-07	2.0	2.0	124_neutral	1.0	attractiveness	91.38104821182787	3.766545724565731
13.0	80.5003694670495	pulse	3.0	t		28.0	female	white	5.676880222841227	neutral	124	sub-07	2.0	2.0	124_neutral	1.0	attractiveness	91.63115446378924	
13.0	81.20038395595384	pulse	3.0	t		28.0	female	white	5.676880222841227	neutral	124	sub-07	2.0	2.0	124_neutral	1.0	attractiveness	92.33116895269359	
13.0	81.90032298181632	pulse	3.0	t		28.0	female	white	5.676880222841227	neutral	124	sub-07	2.0	2.0	124_neutral	1.0	attractiveness	93.03110797855607	
13.0	82.60030637994714	pulse	3.0	t		28.0	female	white	5.676880222841227	neutral	124	sub-07	2.0	2.0	124_neutral	1.0	attractiveness	93.73109137668689	
13.0	83.30028555214813	pulse	3.0	t		28.0	female	white	5.676880222841227	neutral	124	sub-07	2.0	2.0	124_neutral	1.0	attractiveness	94.43107054888787	
14.0	84.01680893965386	face	0.0		146	24.0	male	white	3.1153999204138483	neutral	012	sub-07	2.0	2.0	012_neutral	0.0		95.1475939363936	1.233306066021214
14.0	84.00303934944804	pulse	0.0	t		24.0	male	white	3.1153999204138483	neutral	012	sub-07	2.0	2.0	012_neutral	0.0		95.1338243461878	
14.0	84.70024117987941	pulse	0.0	t		24.0	male	white	3.1153999204138483	neutral	012	sub-07	2.0	2.0	012_neutral	0.0		95.83102617661916	
14.0	85.25011500567507	fix	1.0		443	24.0	male	white	3.1153999204138483	neutral	012	sub-07	2.0	2.0	012_neutral	0.0		96.38090000241482	3.7665526671653424
14.0	85.40022970949758	pulse	1.0	t		24.0	male	white	3.1153999204138483	neutral	012	sub-07	2.0	2.0	012_neutral	0.0		96.53101470623733	
14.0	86.10020012798577	pulse	1.0	t		24.0	male	white	3.1153999204138483	neutral	012	sub-07	2.0	2.0	012_neutral	0.0		97.23098512472552	
14.0	86.8001756779604	pulse	1.0	t		24.0	male	white	3.1153999204138483	neutral	012	sub-07	2.0	2.0	012_neutral	0.0		97.93096067470015	
14.0	87.50012919272649	pulse	1.0	t		24.0	male	white	3.1153999204138483	neutral	012	sub-07	2.0	2.0	012_neutral	0.0		98.63091418946624	
14.0	88.2001379464391	pulse	1.0	t		24.0	male	white	3.1153999204138483	neutral	012	sub-07	2.0	2.0	012_neutral	0.0		99.33092294317885	
14.0	88.90011953345766	pulse	1.0	t		24.0	male	white	3.1153999204138483	neutral	012	sub-07	2.0	2.0	012_neutral	0.0		100.0309045301974	
15.0	89.01666767284041	face	0.0		146	24.0	female	east_asian	2.9076800636689217	neutral	034	sub-07	2.0	2.0	034_neutral	0.0		100.14745266958016	1.2332879548912388
15.0	89.6001008186231	pulse	0.0	t		24.0	female	east_asian	2.9076800636689217	neutral	034	sub-07	2.0	2.0	034_neutral	0.0		100.73088581536285	
15.0	90.24995562773165	fix	1.0		443	24.0	female	east_asian	2.9076800636689217	neutral	034	sub-07	2.0	2.0	034_neutral	0.0		101.3807406244714	3.7582303011276963
15.0	90.30009055564915	pulse	1.0	t		24.0	female	east_asian	2.9076800636689217	neutral	034	sub-07	2.0	2.0	034_neutral	0.0		101.4308755523889	
15.0	91.00005886117196	pulse	1.0	t		24.0	female	east_asian	2.9076800636689217	neutral	034	sub-07	2.0	2.0	034_neutral	0.0		102.13084385791171	
15.0	91.70004890005112	pulse	1.0	t		24.0	female	east_asian	2.9076800636689217	neutral	034	sub-07	2.0	2.0	034_neutral	0.0		102.83083389679086	
15.0	92.4000108666778	pulse	1.0	t		24.0	female	east_asian	2.9076800636689217	neutral	034	sub-07	2.0	2.0	034_neutral	0.0		103.53079586341755	
15.0	93.09998551109584	pulse	1.0	t		24.0	female	east_asian	2.9076800636689217	neutral	034	sub-07	2.0	2.0	034_neutral	0.0		104.23077050783559	
15.0	93.79995381661865	pulse	1.0	t		24.0	female	east_asian	2.9076800636689217	neutral	034	sub-07	2.0	2.0	034_neutral	0.0		104.9307388133584	
16.0	94.00818592885935	face	0.0		146	36.0	female	white	2.7548746518105847	neutral	011	sub-07	2.0	2.0	011_neutral	0.0		105.1389709255991	1.2416060949990424
16.0	94.49996951293178	pulse	0.0	t		36.0	female	white	2.7548746518105847	neutral	011	sub-07	2.0	2.0	011_neutral	0.0		105.63075450967153	
16.0	95.19994808142746	pulse	0.0	t		36.0	female	white	2.7548746518105847	neutral	011	sub-07	2.0	2.0	011_neutral	0.0		106.33073307816721	
16.0	95.24979202385839	fix	1.0		445	36.0	female	white	2.7548746518105847	neutral	011	sub-07	2.0	2.0	011_neutral	0.0		106.38057702059814	3.766577720895839
16.0	95.89991125546385	pulse	1.0	t		36.0	female	white	2.7548746518105847	neutral	011	sub-07	2.0	2.0	011_neutral	0.0		107.0306962522036	
16.0	96.5998849943253	pulse	1.0	t		36.0	female	white	2.7548746518105847	neutral	011	sub-07	2.0	2.0	011_neutral	0.0		107.73066999106504	
16.0	97.29987231653467	pulse	1.0	t		36.0	female	white	2.7548746518105847	neutral	011	sub-07	2.0	2.0	011_neutral	0.0		108.43065731327442	
16.0	97.99987774987312	pulse	1.0	t		36.0	female	white	2.7548746518105847	neutral	011	sub-07	2.0	2.0	011_neutral	0.0		109.13066274661287	
16.0	98.69983005723134	pulse	1.0	t		36.0	female	white	2.7548746518105847	neutral	011	sub-07	2.0	2.0	011_neutral	0.0		109.83061505397109	
17.0	99.01636974475423	face	0.0		145	24.0	female	east_asian	4.409868682849185	smiling	030	sub-07	2.0	2.0	030_smiling	0.0		110.14715474149398	1.2332988215684964
17.0	99.39980892758012	pulse	0.0	t		24.0	female	east_asian	4.409868682849185	smiling	030	sub-07	2.0	2.0	030_smiling	0.0		110.53059392431987	
17.0	100.09978206273718	pulse	0.0	t		24.0	female	east_asian	4.409868682849185	smiling	030	sub-07	2.0	2.0	030_smiling	0.0		111.23056705947693	
17.0	100.24966856632273	fix	1.0		444	24.0	female	east_asian	4.409868682849185	smiling	030	sub-07	2.0	2.0	030_smiling	0.0		111.38045356306247	3.7582722585793817
17.0	100.79976817753777	pulse	1.0	t		24.0	female	east_asian	4.409868682849185	smiling	030	sub-07	2.0	2.0	030_smiling	0.0		111.93055317427752	
17.0	101.49974402936459	pulse	1.0	t		24.0	female	east_asian	4.409868682849185	smiling	030	sub-07	2.0	2.0	030_smiling	0.0		112.63052902610434	
17.0	102.1997204848958	pulse	1.0	t		24.0	female	east_asian	4.409868682849185	smiling	030	sub-07	2.0	2.0	030_smiling	0.0		113.33050548163556	
17.0	102.8997059959911	pulse	1.0	t		24.0	female	east_asian	4.409868682849185	smiling	030	sub-07	2.0	2.0	030_smiling	0.0		114.03049099273085	
17.0	103.59968758300965	pulse	1.0	t		24.0	female	east_asian	4.409868682849185	smiling	030	sub-07	2.0	2.0	030_smiling	0.0		114.7304725797494	
18.0	104.00794082490211	face	0.0		146	20.0	male	black	2.609629924393156	neutral	043	sub-07	2.0	2.0	043_neutral	0.0		115.13872582164186	1.241583154233922
18.0	104.29966464224526	pulse	0.0	t		20.0	male	black	2.609629924393156	neutral	043	sub-07	2.0	2.0	043_neutral	0.0		115.43044963898501	
18.0	104.99964200333216	pulse	0.0	t		20.0	male	black	2.609629924393156	neutral	043	sub-07	2.0	2.0	043_neutral	0.0		116.1304270000719	
18.0	105.24952397913603	fix	1.0		444	20.0	male	black	2.609629924393156	neutral	043	sub-07	2.0	2.0	043_neutral	0.0		116.38030897587578	3.7665526671653424
18.0	105.69961876071557	pulse	1.0	t		20.0	male	black	2.609629924393156	neutral	043	sub-07	2.0	2.0	043_neutral	0.0		116.83040375745531	
18.0	106.39959672550776	pulse	1.0	t		20.0	male	black	2.609629924393156	neutral	043	sub-07	2.0	2.0	043_neutral	0.0		117.53038172224751	
18.0	107.09957650141314	pulse	1.0	t		20.0	male	black	2.609629924393156	neutral	043	sub-07	2.0	2.0	043_neutral	0.0		118.23036149815289	
18.0	107.79955054212678	pulse	1.0	t		20.0	male	black	2.609629924393156	neutral	043	sub-07	2.0	2.0	043_neutral	0.0		118.93033553886653	
18.0	108.49953756248397	pulse	1.0	t		20.0	male	black	2.609629924393156	neutral	043	sub-07	2.0	2.0	043_neutral	0.0		119.63032255922371	
19.0	109.01607664630137	face	0.0		145	23.0	male	white	2.6275368085953046	neutral	141	sub-07	2.0	2.0	141_neutral	0.0		120.14686164304112	1.2333039530567476
19.0	109.19951884764941	pulse	0.0	t		23.0	male	white	2.6275368085953046	neutral	141	sub-07	2.0	2.0	141_neutral	0.0		120.33030384438916	
19.0	109.89950345318903	pulse	0.0	t		23.0	male	white	2.6275368085953046	neutral	141	sub-07	2.0	2.0	141_neutral	0.0		121.03028844992878	
19.0	110.24938059935812	fix	1.0		444	23.0	male	white	2.6275368085953046	neutral	141	sub-07	2.0	2.0	141_neutral	0.0		121.38016559609787	3.7665472338267136
19.0	110.5994750790851	pulse	1.0	t		23.0	male	white	2.6275368085953046	neutral	141	sub-07	2.0	2.0	141_neutral	0.0		121.73026007582484	
19.0	111.2994524401729	pulse	1.0	t		23.0	male	white	2.6275368085953046	neutral	141	sub-07	2.0	2.0	141_neutral	0.0		122.43023743691265	
19.0	111.99942738644313	pulse	1.0	t		23.0	male	white	2.6275368085953046	neutral	141	sub-07	2.0	2.0	141_neutral	0.0		123.13021238318288	
19.0	112.69940867160949	pulse	1.0	t		23.0	male	white	2.6275368085953046	neutral	141	sub-07	2.0	2.0	141_neutral	0.0		123.83019366834924	
19.0	113.39939116418373	pulse	1.0	t		23.0	male	white	2.6275368085953046	neutral	141	sub-07	2.0	2.0	141_neutral	0.0		124.53017616092347	
20.0	114.01592783318483	face	0.0		145	27.0	female	white	3.504576203740549	smiling	144	sub-07	2.0	2.0	144_smiling	0.0		125.14671282992458	1.2332985197162998
20.0	114.09937727898432	pulse	0.0	t		27.0	female	white	3.504576203740549	smiling	144	sub-07	2.0	2.0	144_smiling	0.0		125.23016227572407	
20.0	114.79934558450623	pulse	0.0	t		27.0	female	white	3.504576203740549	smiling	144	sub-07	2.0	2.0	144_smiling	0.0		125.93013058124598	
20.0	115.24922635290113	fix	1.0		1186	27.0	female	white	3.504576203740549	smiling	144	sub-07	2.0	2.0	144_smiling	0.0		126.38001134964088	10.024700864504666
20.0	115.49933049189804	pulse	1.0	t		27.0	female	white	3.504576203740549	smiling	144	sub-07	2.0	2.0	144_smiling	0.0		126.63011548863778	
20.0	116.19930815483804	pulse	1.0	t		27.0	female	white	3.504576203740549	smiling	144	sub-07	2.0	2.0	144_smiling	0.0		127.33009315157778	
20.0	116.89928430851705	pulse	1.0	t		27.0	female	white	3.504576203740549	smiling	144	sub-07	2.0	2.0	144_smiling	0.0		128.0300693052568	
20.0	117.59926287701364	pulse	1.0	t		27.0	female	white	3.504576203740549	smiling	144	sub-07	2.0	2.0	144_smiling	0.0		128.7300478737534	
20.0	118.29926257516126	pulse	1.0	t		27.0	female	white	3.504576203740549	smiling	144	sub-07	2.0	2.0	144_smiling	0.0		129.430047571901	
20.0	118.99923118253628	pulse	1.0	t		27.0	female	white	3.504576203740549	smiling	144	sub-07	2.0	2.0	144_smiling	0.0		130.13001617927603	
20.0	119.69920220472795	pulse	1.0	t		27.0	female	white	3.504576203740549	smiling	144	sub-07	2.0	2.0	144_smiling	0.0		130.8299872014677	
20.0	120.39918258433772	pulse	1.0	t		27.0	female	white	3.504576203740549	smiling	144	sub-07	2.0	2.0	144_smiling	0.0		131.52996758107747	
20.0	121.09916115283431	pulse	1.0	t		27.0	female	white	3.504576203740549	smiling	144	sub-07	2.0	2.0	144_smiling	0.0		132.22994614957406	
20.0	121.79913700466113	pulse	1.0	t		27.0	female	white	3.504576203740549	smiling	144	sub-07	2.0	2.0	144_smiling	0.0		132.92992200140088	
20.0	122.49912070464416	pulse	1.0	t		27.0	female	white	3.504576203740549	smiling	144	sub-07	2.0	2.0	144_smiling	0.0		133.6299057013839	
20.0	123.199102593514	pulse	1.0	t		27.0	female	white	3.504576203740549	smiling	144	sub-07	2.0	2.0	144_smiling	0.0		134.32988759025375	
20.0	123.89908116201059	pulse	1.0	t		27.0	female	white	3.504576203740549	smiling	144	sub-07	2.0	2.0	144_smiling	0.0		135.02986615875034	
20.0	124.59904584530705	pulse	1.0	t		27.0	female	white	3.504576203740549	smiling	144	sub-07	2.0	2.0	144_smiling	0.0		135.7298308420468	
21.0	125.2739272174058	face	0.0		145	19.0	male	white	3.2522881018702745	neutral	018	sub-07	2.0	2.0	018_neutral	0.0		136.40471221414555	1.2333012363869784
21.0	125.29905580642844	pulse	0.0	t		19.0	male	white	3.2522881018702745	neutral	018	sub-07	2.0	2.0	018_neutral	0.0		136.4298408031682	
21.0	125.99901475453407	pulse	0.0	t		19.0	male	white	3.2522881018702745	neutral	018	sub-07	2.0	2.0	018_neutral	0.0		137.12979975127382	
21.0	126.50722845379278	fix	1.0		443	19.0	male	white	3.2522881018702745	neutral	018	sub-07	2.0	2.0	018_neutral	0.0		137.63801345053253	3.7665318393665075
21.0	126.69899996377808	pulse	1.0	t		19.0	male	white	3.2522881018702745	neutral	018	sub-07	2.0	2.0	018_neutral	0.0		137.82978496051783	
21.0	127.39897491004831	pulse	1.0	t		19.0	male	white	3.2522881018702745	neutral	018	sub-07	2.0	2.0	018_neutral	0.0		138.52975990678806	
21.0	128.09895408224838	pulse	1.0	t		19.0	male	white	3.2522881018702745	neutral	018	sub-07	2.0	2.0	018_neutral	0.0		139.22973907898813	
21.0	128.79894019704898	pulse	1.0	t		19.0	male	white	3.2522881018702745	neutral	018	sub-07	2.0	2.0	018_neutral	0.0		139.92972519378873	
21.0	129.49891363405914	pulse	1.0	t		19.0	male	white	3.2522881018702745	neutral	018	sub-07	2.0	2.0	018_neutral	0.0		140.62969863079888	
21.0	130.1988946173724	pulse	1.0	t		19.0	male	white	3.2522881018702745	neutral	018	sub-07	2.0	2.0	018_neutral	0.0		141.32967961411214	
22.0	130.27376029315928	face	0.0		146	25.0	female	black	3.858336649423	smiling	126	sub-07	2.0	2.0	126_smiling	0.0		141.40454528989903	1.2333057641690175
22.0	130.8988795247642	pulse	0.0	t		25.0	female	black	3.858336649423	smiling	126	sub-07	2.0	2.0	126_smiling	0.0		142.02966452150395	
22.0	131.5070660573283	fix	1.0		443	25.0	female	black	3.858336649423	smiling	126	sub-07	2.0	2.0	126_smiling	0.0		142.63785105406805	3.7665665523645657
22.0	131.59885235806905	pulse	1.0	t		25.0	female	black	3.858336649423	smiling	126	sub-07	2.0	2.0	126_smiling	0.0		142.7296373548088	
22.0	132.29882881360027	pulse	1.0	t		25.0	female	black	3.858336649423	smiling	126	sub-07	2.0	2.0	126_smiling	0.0		143.42961381034002	
22.0	132.9988125135833	pulse	1.0	t		25.0	female	black	3.858336649423	smiling	126	sub-07	2.0	2.0	126_smiling	0.0		144.12959751032304	
22.0	133.69879349689745	pulse	1.0	t		25.0	female	black	3.858336649423	smiling	126	sub-07	2.0	2.0	126_smiling	0.0		144.8295784936372	
22.0	134.39876482094132	pulse	1.0	t		25.0	female	black	3.858336649423	smiling	126	sub-07	2.0	2.0	126_smiling	0.0		145.52954981768107	
22.0	135.09874852092435	pulse	1.0	t		25.0	female	black	3.858336649423	smiling	126	sub-07	2.0	2.0	126_smiling	0.0		146.2295335176641	
23.0	135.27363260969287	face	0.0		146	31.0	male	west_asian	1.9538400318344609	smiling	070	sub-07	2.0	2.0	070_smiling	0.0		146.40441760643262	1.241631450580826
23.0	135.79872769312533	pulse	0.0	t		31.0	male	west_asian	1.9538400318344609	smiling	070	sub-07	2.0	2.0	070_smiling	0.0		146.92951268986508	
23.0	136.49870897829078	pulse	0.0	t		31.0	male	west_asian	1.9538400318344609	smiling	070	sub-07	2.0	2.0	070_smiling	0.0		147.62949397503053	
23.0	136.5152640602737	fix	1.0		443	31.0	male	west_asian	1.9538400318344609	smiling	070	sub-07	2.0	2.0	070_smiling	0.0		147.64604905701344	3.7498874091425023
23.0	137.19868754678737	pulse	1.0	t		31.0	male	west_asian	1.9538400318344609	smiling	070	sub-07	2.0	2.0	070_smiling	0.0		148.32947254352712	
23.0	137.8986627949098	pulse	1.0	t		31.0	male	west_asian	1.9538400318344609	smiling	070	sub-07	2.0	2.0	070_smiling	0.0		149.02944779164955	
23.0	138.5986480041538	pulse	1.0	t		31.0	male	west_asian	1.9538400318344609	smiling	070	sub-07	2.0	2.0	070_smiling	0.0		149.72943300089355	
23.0	139.2986247615372	pulse	1.0	t		31.0	male	west_asian	1.9538400318344609	smiling	070	sub-07	2.0	2.0	070_smiling	0.0		150.42940975827696	
23.0	139.99860091521623	pulse	1.0	t		31.0	male	west_asian	1.9538400318344609	smiling	070	sub-07	2.0	2.0	070_smiling	0.0		151.12938591195598	
24.0	140.2651514694162	face	0.0		146	40.0	male	white	1.868682849184242	neutral	172	sub-07	2.0	2.0	172_neutral	0.0		151.39593646615594	1.2416308468764328
24.0	140.6985876337203	pulse	0.0	t		40.0	male	white	1.868682849184242	neutral	172	sub-07	2.0	2.0	172_neutral	0.0		151.82937263046006	
24.0	141.39856257999054	pulse	0.0	t		40.0	male	white	1.868682849184242	neutral	172	sub-07	2.0	2.0	172_neutral	0.0		152.5293475767303	
24.0	141.50678231629263	fix	1.0		444	40.0	male	white	1.868682849184242	neutral	172	sub-07	2.0	2.0	172_neutral	0.0		152.63756731303238	3.7665433097490677
24.0	142.0985429596003	pulse	1.0	t		40.0	male	white	1.868682849184242	neutral	172	sub-07	2.0	2.0	172_neutral	0.0		153.22932795634006	
24.0	142.79851730216615	pulse	1.0	t		40.0	male	white	1.868682849184242	neutral	172	sub-07	2.0	2.0	172_neutral	0.0		153.9293022989059	
24.0	143.49850281326235	pulse	1.0	t		40.0	male	white	1.868682849184242	neutral	172	sub-07	2.0	2.0	172_neutral	0.0		154.6292878100021	
24.0	144.1984831928712	pulse	1.0	t		40.0	male	white	1.868682849184242	neutral	172	sub-07	2.0	2.0	172_neutral	0.0		155.32926818961096	
24.0	144.89845059283743	pulse	1.0	t		40.0	male	white	1.868682849184242	neutral	172	sub-07	2.0	2.0	172_neutral	0.0		156.02923558957718	
25.0	145.2733256260417	face	0.0		145	26.0	female	white	4.854755272582572	smiling	027	sub-07	2.0	2.0	027_smiling	0.0		156.40411062278145	1.2333124049164326
25.0	145.59845662988118	pulse	0.0	t		26.0	female	white	4.854755272582572	smiling	027	sub-07	2.0	2.0	027_smiling	0.0		156.72924162662093	
25.0	146.29841316316924	pulse	0.0	t		26.0	female	white	4.854755272582572	smiling	027	sub-07	2.0	2.0	027_smiling	0.0		157.429198159909	
25.0	146.50663803095813	fix	1.0		444	26.0	female	white	4.854755272582572	smiling	027	sub-07	2.0	2.0	027_smiling	0.0		157.63742302769788	3.766549950496483
25.0	146.99840078723082	pulse	1.0	t		26.0	female	white	4.854755272582572	smiling	027	sub-07	2.0	2.0	027_smiling	0.0		158.12918578397057	
25.0	147.6983712057181	pulse	1.0	t		26.0	female	white	4.854755272582572	smiling	027	sub-07	2.0	2.0	027_smiling	0.0		158.82915620245785	
25.0	148.39835943348407	pulse	1.0	t		26.0	female	white	4.854755272582572	smiling	027	sub-07	2.0	2.0	027_smiling	0.0		159.52914443022382	
25.0	149.09834917051012	pulse	1.0	t		26.0	female	white	4.854755272582572	smiling	027	sub-07	2.0	2.0	027_smiling	0.0		160.22913416724987	
25.0	149.79830872232014	pulse	1.0	t		26.0	female	white	4.854755272582572	smiling	027	sub-07	2.0	2.0	027_smiling	0.0		160.9290937190599	
26.0	150.2731879814546	face	0.0		145	19.0	male	white	2.243931555909272	smiling	130	sub-07	2.0	2.0	130_smiling	0.0		161.40397297819436	1.2332955011952436
26.0	150.49829936490278	pulse	0.0	t		19.0	male	white	2.243931555909272	smiling	130	sub-07	2.0	2.0	130_smiling	0.0		161.62908436164253	
26.0	151.19827280191294	pulse	0.0	t		19.0	male	white	2.243931555909272	smiling	130	sub-07	2.0	2.0	130_smiling	0.0		162.32905779865268	
26.0	151.50648348264986	fix	1.0		444	19.0	male	white	2.243931555909272	smiling	130	sub-07	2.0	2.0	130_smiling	0.0		162.6372684793896	3.7665559875395047
26.0	151.8982528796696	pulse	1.0	t		19.0	male	white	2.243931555909272	smiling	130	sub-07	2.0	2.0	130_smiling	0.0		163.02903787640935	
26.0	152.59822812779203	pulse	1.0	t		19.0	male	white	2.243931555909272	smiling	130	sub-07	2.0	2.0	130_smiling	0.0		163.72901312453178	
26.0	153.29820971481058	pulse	1.0	t		19.0	male	white	2.243931555909272	smiling	130	sub-07	2.0	2.0	130_smiling	0.0		164.42899471155033	
26.0	153.99816564439425	pulse	1.0	t		19.0	male	white	2.243931555909272	smiling	130	sub-07	2.0	2.0	130_smiling	0.0		165.128950641134	
26.0	154.6981710777327	pulse	1.0	t		19.0	male	white	2.243931555909272	smiling	130	sub-07	2.0	2.0	130_smiling	0.0		165.82895607447244	
27.0	155.27303947018936	face	0.0		145	34.0	male	white	2.651014723438122	smiling	121	sub-07	2.0	2.0	121_smiling	0.0		166.4038244669291	1.233272258578836
27.0	155.39815266475125	pulse	0.0	t		34.0	male	white	2.651014723438122	smiling	121	sub-07	2.0	2.0	121_smiling	0.0		166.528937661491	
27.0	156.09812157397846	pulse	0.0	t		34.0	male	white	2.651014723438122	smiling	121	sub-07	2.0	2.0	121_smiling	0.0		167.2289065707182	
27.0	156.5063117287682	fix	1.0		444	34.0	male	white	2.651014723438122	smiling	121	sub-07	2.0	2.0	121_smiling	0.0		167.63709672550794	3.7665798338603054
27.0	156.7981043684049	pulse	1.0	t		34.0	male	white	2.651014723438122	smiling	121	sub-07	2.0	2.0	121_smiling	0.0		167.92888936514464	
27.0	157.49808474801375	pulse	1.0	t		34.0	male	white	2.651014723438122	smiling	121	sub-07	2.0	2.0	121_smiling	0.0		168.6288697447535	
27.0	158.19806844799677	pulse	1.0	t		34.0	male	white	2.651014723438122	smiling	121	sub-07	2.0	2.0	121_smiling	0.0		169.32885344473652	
27.0	158.8980439979714	pulse	1.0	t		34.0	male	white	2.651014723438122	smiling	121	sub-07	2.0	2.0	121_smiling	0.0		170.02882899471115	
27.0	159.59801834053724	pulse	1.0	t		34.0	male	white	2.651014723438122	smiling	121	sub-07	2.0	2.0	121_smiling	0.0		170.728803337277	
28.0	160.2728915626285	face	0.0		145	22.0	male	black	2.767608436132113	neutral	044	sub-07	2.0	2.0	044_neutral	0.0		171.40367655936825	1.2333003308294792
28.0	160.29802105720682	pulse	0.0	t		22.0	male	black	2.767608436132113	neutral	044	sub-07	2.0	2.0	044_neutral	0.0		171.42880605394657	
28.0	160.99799660718145	pulse	0.0	t		22.0	male	black	2.767608436132113	neutral	044	sub-07	2.0	2.0	044_neutral	0.0		172.1287816039212	
28.0	161.50619189345798	fix	1.0		443	22.0	male	black	2.767608436132113	neutral	044	sub-07	2.0	2.0	044_neutral	0.0		172.63697689019773	3.766549950496483
28.0	161.69796913863502	pulse	1.0	t		22.0	male	black	2.767608436132113	neutral	044	sub-07	2.0	2.0	044_neutral	0.0		172.82875413537477	
28.0	162.39793684045344	pulse	1.0	t		22.0	male	black	2.767608436132113	neutral	044	sub-07	2.0	2.0	044_neutral	0.0		173.5287218371932	
28.0	163.0979256719229	pulse	1.0	t		22.0	male	black	2.767608436132113	neutral	044	sub-07	2.0	2.0	044_neutral	0.0		174.22871066866264	
28.0	163.79789910893214	pulse	1.0	t		22.0	male	black	2.767608436132113	neutral	044	sub-07	2.0	2.0	044_neutral	0.0		174.9286841056719	
28.0	164.4978873366981	pulse	1.0	t		22.0	male	black	2.767608436132113	neutral	044	sub-07	2.0	2.0	044_neutral	0.0		175.62867233343786	
28.0	165.19785926444638	pulse	1.0	t		22.0	male	black	2.767608436132113	neutral	044	sub-07	2.0	2.0	044_neutral	0.0		176.32864426118613	
29.0	165.27274184395446	face	0.0		146	24.0	male	white	3.1153999204138483	smiling	012	sub-07	2.0	2.0	012_smiling	0.0		176.4035268406942	1.2333000289781921
29.0	165.89783813479517	pulse	0.0	t		24.0	male	white	3.1153999204138483	smiling	012	sub-07	2.0	2.0	012_smiling	0.0		177.0286231315349	
29.0	166.50604187293266	fix	1.0		443	24.0	male	white	3.1153999204138483	smiling	012	sub-07	2.0	2.0	012_smiling	0.0		177.6368268696724	3.7665526671653424
29.0	166.59781730699615	pulse	1.0	t		24.0	male	white	3.1153999204138483	smiling	012	sub-07	2.0	2.0	012_smiling	0.0		177.7286023037359	
29.0	167.29779315882297	pulse	1.0	t		24.0	male	white	3.1153999204138483	smiling	012	sub-07	2.0	2.0	012_smiling	0.0		178.42857815556272	
29.0	167.99776961435418	pulse	1.0	t		24.0	male	white	3.1153999204138483	smiling	012	sub-07	2.0	2.0	012_smiling	0.0		179.12855461109393	
29.0	168.69775512544948	pulse	1.0	t		24.0	male	white	3.1153999204138483	smiling	012	sub-07	2.0	2.0	012_smiling	0.0		179.82854012218922	
29.0	169.39773429765046	pulse	1.0	t		24.0	male	white	3.1153999204138483	smiling	012	sub-07	2.0	2.0	012_smiling	0.0		180.5285192943902	
29.0	170.09771135688607	pulse	1.0	t		24.0	male	white	3.1153999204138483	smiling	012	sub-07	2.0	2.0	012_smiling	0.0		181.22849635362581	
30.0	170.272594540098	face	0.0		146	22.0	female	white	4.614007162753682	smiling	009	sub-07	2.0	2.0	009_smiling	1.0	dominance	181.40337953683775	1.2416338653983985
30.0	170.79769173649493	pulse	0.0	t		22.0	female	white	4.614007162753682	smiling	009	sub-07	2.0	2.0	009_smiling	1.0	dominance	181.92847673323467	
30.0	171.49766789017394	pulse	0.0	t		22.0	female	white	4.614007162753682	smiling	009	sub-07	2.0	2.0	009_smiling	1.0	dominance	182.6284528869137	
30.0	171.5142284054964	fix	1.0		176	22.0	female	white	4.614007162753682	smiling	009	sub-07	2.0	2.0	009_smiling	1.0	dominance	182.64501340223615	1.4916341672496856
30.0	172.1976500808969	pulse	1.0	t		22.0	female	white	4.614007162753682	smiling	009	sub-07	2.0	2.0	009_smiling	1.0	dominance	183.32843507763664	
30.0	172.89762140494076	pulse	1.0	t		22.0	female	white	4.614007162753682	smiling	009	sub-07	2.0	2.0	009_smiling	1.0	dominance	184.0284064016805	
30.0	173.00586257274608	rating	2.0		295	22.0	female	white	4.614007162753682	smiling	009	sub-07	2.0	2.0	009_smiling	1.0	dominance	184.13664756948583	2.4999145758374652
30.0	173.5976120475234	pulse	2.0	t		22.0	female	white	4.614007162753682	smiling	009	sub-07	2.0	2.0	009_smiling	1.0	dominance	184.72839704426315	
30.0	174.29759121972438	pulse	2.0	t		22.0	female	white	4.614007162753682	smiling	009	sub-07	2.0	2.0	009_smiling	1.0	dominance	185.42837621646413	
30.0	174.99757914563816	pulse	2.0	t		22.0	female	white	4.614007162753682	smiling	009	sub-07	2.0	2.0	009_smiling	1.0	dominance	186.1283641423779	
30.0	175.05895504817545	response	2.0	b		22.0	female	white	4.614007162753682	smiling	009	sub-07	2.0	2.0	009_smiling	1.0	dominance	186.1897400449152	
30.0	175.50577714858355	fix	3.0		443	22.0	female	white	4.614007162753682	smiling	009	sub-07	2.0	2.0	009_smiling	1.0	dominance	186.6365621453233	3.7665427060446746
30.0	175.69754745116006	pulse	3.0	t		22.0	female	white	4.614007162753682	smiling	009	sub-07	2.0	2.0	009_smiling	1.0	dominance	186.8283324478998	
30.0	176.39752541595226	pulse	3.0	t		22.0	female	white	4.614007162753682	smiling	009	sub-07	2.0	2.0	009_smiling	1.0	dominance	187.528310412692	
30.0	177.09750579556203	pulse	3.0	t		22.0	female	white	4.614007162753682	smiling	009	sub-07	2.0	2.0	009_smiling	1.0	dominance	188.22829079230178	
30.0	177.79747530849272	pulse	3.0	t		22.0	female	white	4.614007162753682	smiling	009	sub-07	2.0	2.0	009_smiling	1.0	dominance	188.92826030523247	
30.0	178.49746957330171	pulse	3.0	t		22.0	female	white	4.614007162753682	smiling	009	sub-07	2.0	2.0	009_smiling	1.0	dominance	189.62825457004146	
30.0	179.1974481417983	pulse	3.0	t		22.0	female	white	4.614007162753682	smiling	009	sub-07	2.0	2.0	009_smiling	1.0	dominance	190.32823313853805	
31.0	179.27231985462822	face	0.0		146	21.0	male	east_asian/white	3.501790688420215	neutral	036	sub-07	2.0	2.0	036_neutral	0.0		190.40310485136797	1.2333087826900737
31.0	179.89742459732952	pulse	0.0	t		21.0	male	east_asian/white	3.501790688420215	neutral	036	sub-07	2.0	2.0	036_neutral	0.0		191.02820959406927	
31.0	180.5056286373183	fix	1.0		443	21.0	male	east_asian/white	3.501790688420215	neutral	036	sub-07	2.0	2.0	036_neutral	0.0		191.63641363405804	3.766552063461859
31.0	180.59740558064277	pulse	1.0	t		21.0	male	east_asian/white	3.501790688420215	neutral	036	sub-07	2.0	2.0	036_neutral	0.0		191.72819057738252	
31.0	181.2973566805922	pulse	1.0	t		21.0	male	east_asian/white	3.501790688420215	neutral	036	sub-07	2.0	2.0	036_neutral	0.0		192.42814167733195	
31.0	181.99737630098298	pulse	1.0	t		21.0	male	east_asian/white	3.501790688420215	neutral	036	sub-07	2.0	2.0	036_neutral	0.0		193.12816129772273	
31.0	182.6973364564974	pulse	1.0	t		21.0	male	east_asian/white	3.501790688420215	neutral	036	sub-07	2.0	2.0	036_neutral	0.0		193.82812145323715	
31.0	183.39732558981905	pulse	1.0	t		21.0	male	east_asian/white	3.501790688420215	neutral	036	sub-07	2.0	2.0	036_neutral	0.0		194.5281105865588	
31.0	184.09729359348967	pulse	1.0	t		21.0	male	east_asian/white	3.501790688420215	neutral	036	sub-07	2.0	2.0	036_neutral	0.0		195.22807859022942	
32.0	184.27218070078015	face	0.0		146	31.0	female	west_asian	2.364902506963788	smiling	006	sub-07	2.0	2.0	006_smiling	0.0		195.4029656975199	1.2416326579896122
32.0	184.7972531452997	pulse	0.0	t		31.0	female	west_asian	2.364902506963788	smiling	006	sub-07	2.0	2.0	006_smiling	0.0		195.92803814203944	
32.0	185.4972552582649	pulse	0.0	t		31.0	female	west_asian	2.364902506963788	smiling	006	sub-07	2.0	2.0	006_smiling	0.0		196.62804025500463	
32.0	185.51381335876977	fix	1.0		443	31.0	female	west_asian	2.364902506963788	smiling	006	sub-07	2.0	2.0	006_smiling	0.0		196.64459835550952	3.75820253072834
32.0	186.19723624157814	pulse	1.0	t		31.0	female	west_asian	2.364902506963788	smiling	006	sub-07	2.0	2.0	006_smiling	0.0		197.3280212383179	
32.0	186.89722205452654	pulse	1.0	t		31.0	female	west_asian	2.364902506963788	smiling	006	sub-07	2.0	2.0	006_smiling	0.0		198.0280070512663	
32.0	187.59719337857132	pulse	1.0	t		31.0	female	west_asian	2.364902506963788	smiling	006	sub-07	2.0	2.0	006_smiling	0.0		198.72797837531107	
32.0	188.29717828596313	pulse	1.0	t		31.0	female	west_asian	2.364902506963788	smiling	006	sub-07	2.0	2.0	006_smiling	0.0		199.42796328270288	
32.0	188.9971577600154	pulse	1.0	t		31.0	female	west_asian	2.364902506963788	smiling	006	sub-07	2.0	2.0	006_smiling	0.0		200.12794275675515	
33.0	189.2720158894981	face	0.0		145	27.0	female	white	3.504576203740549	neutral	144	sub-07	2.0	2.0	144_neutral	0.0		200.40280088623786	1.2333184419594545
33.0	189.6971354229554	pulse	0.0	t		27.0	female	white	3.504576203740549	neutral	144	sub-07	2.0	2.0	144_neutral	0.0		200.82792041969515	
33.0	190.39710644514798	pulse	0.0	t		27.0	female	white	3.504576203740549	neutral	144	sub-07	2.0	2.0	144_neutral	0.0		201.52789144188773	
33.0	190.50533433145756	fix	1.0		444	27.0	female	white	3.504576203740549	neutral	144	sub-07	2.0	2.0	144_neutral	0.0		201.6361193281973	3.766551157905269
33.0	191.09709195624328	pulse	1.0	t		27.0	female	white	3.504576203740549	neutral	144	sub-07	2.0	2.0	144_neutral	0.0		202.22787695298302	
33.0	191.79707324140963	pulse	1.0	t		27.0	female	white	3.504576203740549	neutral	144	sub-07	2.0	2.0	144_neutral	0.0		202.92785823814938	
33.0	192.49704969694085	pulse	1.0	t		27.0	female	white	3.504576203740549	neutral	144	sub-07	2.0	2.0	144_neutral	0.0		203.6278346936806	
33.0	193.1970315858107	pulse	1.0	t		27.0	female	white	3.504576203740549	neutral	144	sub-07	2.0	2.0	144_neutral	0.0		204.32781658255044	
33.0	193.8970092487507	pulse	1.0	t		27.0	female	white	3.504576203740549	neutral	144	sub-07	2.0	2.0	144_neutral	0.0		205.02779424549044	
34.0	194.27188548936283	face	0.0		145	24.0	female	east_asian	4.409868682849185	neutral	030	sub-07	2.0	2.0	030_neutral	1.0	trustworthiness	205.40267048610258	1.2332985197172093
34.0	194.5969950616991	pulse	0.0	t		24.0	female	east_asian	4.409868682849185	neutral	030	sub-07	2.0	2.0	030_neutral	1.0	trustworthiness	205.72778005843884	
34.0	195.29696638574296	pulse	0.0	t		24.0	female	east_asian	4.409868682849185	neutral	030	sub-07	2.0	2.0	030_neutral	1.0	trustworthiness	206.4277513824827	
34.0	195.50518400908004	fix	1.0		177	24.0	female	east_asian	4.409868682849185	neutral	030	sub-07	2.0	2.0	030_neutral	1.0	trustworthiness	206.6359690058198	1.4999583444014206
34.0	195.99694223756978	pulse	1.0	t		24.0	female	east_asian	4.409868682849185	neutral	030	sub-07	2.0	2.0	030_neutral	1.0	trustworthiness	207.12772723430953	
34.0	196.69692050421418	pulse	1.0	t		24.0	female	east_asian	4.409868682849185	neutral	030	sub-07	2.0	2.0	030_neutral	1.0	trustworthiness	207.82770550095393	
34.0	197.00514235348146	rating	2.0		295	24.0	female	east_asian	4.409868682849185	neutral	030	sub-07	2.0	2.0	030_neutral	1.0	trustworthiness	208.1359273502212	2.508258675230536
34.0	197.3969120523534	pulse	2.0	t		24.0	female	east_asian	4.409868682849185	neutral	030	sub-07	2.0	2.0	030_neutral	1.0	trustworthiness	208.52769704909315	
34.0	198.0968900171456	pulse	2.0	t		24.0	female	east_asian	4.409868682849185	neutral	030	sub-07	2.0	2.0	030_neutral	1.0	trustworthiness	209.22767501388535	
34.0	198.7968676800847	pulse	2.0	t		24.0	female	east_asian	4.409868682849185	neutral	030	sub-07	2.0	2.0	030_neutral	1.0	trustworthiness	209.92765267682444	
34.0	198.9551885368619	response	2.0	y		24.0	female	east_asian	4.409868682849185	neutral	030	sub-07	2.0	2.0	030_neutral	1.0	trustworthiness	210.08597353360165	
34.0	199.4968374948685	pulse	2.0	t		24.0	female	east_asian	4.409868682849185	neutral	030	sub-07	2.0	2.0	030_neutral	1.0	trustworthiness	210.62762249160824	
34.0	199.513401028712	fix	3.0		443	24.0	female	east_asian	4.409868682849185	neutral	030	sub-07	2.0	2.0	030_neutral	1.0	trustworthiness	210.64418602545175	3.758217019632866
34.0	200.19682360966908	pulse	3.0	t		24.0	female	east_asian	4.409868682849185	neutral	030	sub-07	2.0	2.0	030_neutral	1.0	trustworthiness	211.32760860640883	
34.0	200.89679825408712	pulse	3.0	t		24.0	female	east_asian	4.409868682849185	neutral	030	sub-07	2.0	2.0	030_neutral	1.0	trustworthiness	212.02758325082686	
34.0	201.59677380406174	pulse	3.0	t		24.0	female	east_asian	4.409868682849185	neutral	030	sub-07	2.0	2.0	030_neutral	1.0	trustworthiness	212.7275588008015	
34.0	202.2967550892272	pulse	3.0	t		24.0	female	east_asian	4.409868682849185	neutral	030	sub-07	2.0	2.0	030_neutral	1.0	trustworthiness	213.42754008596694	
34.0	202.99674180773218	pulse	3.0	t		24.0	female	east_asian	4.409868682849185	neutral	030	sub-07	2.0	2.0	030_neutral	1.0	trustworthiness	214.12752680447193	
35.0	203.27161804834486	face	0.0		145	23.0	male	white	2.6275368085953046	smiling	141	sub-07	2.0	2.0	141_smiling	0.0		214.4024030450846	1.2332988215694058
35.0	203.696708603994	pulse	0.0	t		23.0	male	white	2.6275368085953046	smiling	141	sub-07	2.0	2.0	141_smiling	0.0		214.82749360073376	
35.0	204.3966941150902	pulse	0.0	t		23.0	male	white	2.6275368085953046	smiling	141	sub-07	2.0	2.0	141_smiling	0.0		215.52747911182996	
35.0	204.50491686991427	fix	1.0		444	23.0	male	white	2.6275368085953046	smiling	141	sub-07	2.0	2.0	141_smiling	0.0		215.63570186665402	3.766552969017539
35.0	205.09667872062982	pulse	1.0	t		23.0	male	white	2.6275368085953046	smiling	141	sub-07	2.0	2.0	141_smiling	0.0		216.22746371736957	
35.0	205.7966428002219	pulse	1.0	t		23.0	male	white	2.6275368085953046	smiling	141	sub-07	2.0	2.0	141_smiling	0.0		216.92742779696164	
35.0	206.49663344280543	pulse	1.0	t		23.0	male	white	2.6275368085953046	smiling	141	sub-07	2.0	2.0	141_smiling	0.0		217.62741843954518	
35.0	207.19662348168367	pulse	1.0	t		23.0	male	white	2.6275368085953046	smiling	141	sub-07	2.0	2.0	141_smiling	0.0		218.32740847842342	
35.0	207.89660054091928	pulse	1.0	t		23.0	male	white	2.6275368085953046	smiling	141	sub-07	2.0	2.0	141_smiling	0.0		219.02738553765903	
36.0	208.2714698389318	face	0.0		145	36.0	female	white	2.7548746518105847	smiling	011	sub-07	2.0	2.0	011_smiling	1.0	dominance	219.40225483567156	1.233301840090462
36.0	208.59656250754597	pulse	0.0	t		36.0	female	white	2.7548746518105847	smiling	011	sub-07	2.0	2.0	011_smiling	1.0	dominance	219.72734750428572	
36.0	209.29655194272073	pulse	0.0	t		36.0	female	white	2.7548746518105847	smiling	011	sub-07	2.0	2.0	011_smiling	1.0	dominance	220.42733693946047	
36.0	209.50477167902227	fix	1.0		177	36.0	female	white	2.7548746518105847	smiling	011	sub-07	2.0	2.0	011_smiling	1.0	dominance	220.63555667576202	1.4999571369926343
36.0	209.99653564270375	pulse	1.0	t		36.0	female	white	2.7548746518105847	smiling	011	sub-07	2.0	2.0	011_smiling	1.0	dominance	221.1273206394435	
36.0	210.69650606119194	pulse	1.0	t		36.0	female	white	2.7548746518105847	smiling	011	sub-07	2.0	2.0	011_smiling	1.0	dominance	221.8272910579317	
36.0	211.0047288160149	rating	2.0		295	36.0	female	white	2.7548746518105847	smiling	011	sub-07	2.0	2.0	011_smiling	1.0	dominance	222.13551381275465	2.5082580715270524
36.0	211.39649096858375	pulse	2.0	t		36.0	female	white	2.7548746518105847	smiling	011	sub-07	2.0	2.0	011_smiling	1.0	dominance	222.5272759653235	
36.0	212.09647617782684	pulse	2.0	t		36.0	female	white	2.7548746518105847	smiling	011	sub-07	2.0	2.0	011_smiling	1.0	dominance	223.2272611745666	
36.0	212.79642697592408	pulse	2.0	t		36.0	female	white	2.7548746518105847	smiling	011	sub-07	2.0	2.0	011_smiling	1.0	dominance	223.92721197266383	
36.0	213.06618229455944	response	2.0	y		36.0	female	white	2.7548746518105847	smiling	011	sub-07	2.0	2.0	011_smiling	1.0	dominance	224.1969672912992	
36.0	213.49642305184625	pulse	2.0	t		36.0	female	white	2.7548746518105847	smiling	011	sub-07	2.0	2.0	011_smiling	1.0	dominance	224.627208048586	
36.0	213.51298688754196	fix	3.0		443	36.0	female	white	2.7548746518105847	smiling	011	sub-07	2.0	2.0	011_smiling	1.0	dominance	224.6437718842817	3.75821490666749
36.0	214.19641037405563	pulse	3.0	t		36.0	female	white	2.7548746518105847	smiling	011	sub-07	2.0	2.0	011_smiling	1.0	dominance	225.32719537079538	
36.0	214.89638501847367	pulse	3.0	t		36.0	female	white	2.7548746518105847	smiling	011	sub-07	2.0	2.0	011_smiling	1.0	dominance	226.02717001521341	
36.0	215.59636117215268	pulse	3.0	t		36.0	female	white	2.7548746518105847	smiling	011	sub-07	2.0	2.0	011_smiling	1.0	dominance	226.72714616889243	
36.0	216.29634819250896	pulse	3.0	t		36.0	female	white	2.7548746518105847	smiling	011	sub-07	2.0	2.0	011_smiling	1.0	dominance	227.4271331892487	
36.0	216.99632464804017	pulse	3.0	t		36.0	female	white	2.7548746518105847	smiling	011	sub-07	2.0	2.0	011_smiling	1.0	dominance	228.12710964477992	
37.0	217.27120179420945	face	0.0		145	28.0	male	white	3.9076800636689217	neutral	033	sub-07	2.0	2.0	033_neutral	0.0		228.4019867909492	1.2332834271082902
37.0	217.6963083480232	pulse	0.0	t		28.0	male	white	3.9076800636689217	neutral	033	sub-07	2.0	2.0	033_neutral	0.0		228.82709334476294	
37.0	218.3962860109632	pulse	0.0	t		28.0	male	white	3.9076800636689217	neutral	033	sub-07	2.0	2.0	033_neutral	0.0		229.52707100770294	
37.0	218.50448522131774	fix	1.0		444	28.0	male	white	3.9076800636689217	neutral	033	sub-07	2.0	2.0	033_neutral	0.0		229.63527021805749	3.7583190456643933
37.0	219.09626639057296	pulse	1.0	t		28.0	male	white	3.9076800636689217	neutral	033	sub-07	2.0	2.0	033_neutral	0.0		230.2270513873127	
37.0	219.79623469609578	pulse	1.0	t		28.0	male	white	3.9076800636689217	neutral	033	sub-07	2.0	2.0	033_neutral	0.0		230.92701969283553	
37.0	220.4962189997832	pulse	1.0	t		28.0	male	white	3.9076800636689217	neutral	033	sub-07	2.0	2.0	033_neutral	0.0		231.62700399652294	
37.0	221.19619877568766	pulse	1.0	t		28.0	male	white	3.9076800636689217	neutral	033	sub-07	2.0	2.0	033_neutral	0.0		232.3269837724274	
37.0	221.89618609789704	pulse	1.0	t		28.0	male	white	3.9076800636689217	neutral	033	sub-07	2.0	2.0	033_neutral	0.0		233.0269710946368	
38.0	222.26280426698213	face	0.0		146	31.0	female	west_asian	2.364902506963788	neutral	006	sub-07	2.0	2.0	006_neutral	0.0		233.39358926372188	1.2415568930964582
38.0	222.59616194972386	pulse	0.0	t		31.0	female	west_asian	2.364902506963788	neutral	006	sub-07	2.0	2.0	006_neutral	0.0		233.7269469464636	
38.0	223.29613870710727	pulse	0.0	t		31.0	female	west_asian	2.364902506963788	neutral	006	sub-07	2.0	2.0	006_neutral	0.0		234.42692370384702	
38.0	223.5043611600786	fix	1.0		444	31.0	female	west_asian	2.364902506963788	neutral	006	sub-07	2.0	2.0	006_neutral	0.0		234.63514615681834	3.766532141218704
38.0	223.99612361449908	pulse	1.0	t		31.0	female	west_asian	2.364902506963788	neutral	006	sub-07	2.0	2.0	006_neutral	0.0		235.12690861123883	
38.0	224.69609554224735	pulse	1.0	t		31.0	female	west_asian	2.364902506963788	neutral	006	sub-07	2.0	2.0	006_neutral	0.0		235.8268805389871	
38.0	225.39607531815273	pulse	1.0	t		31.0	female	west_asian	2.364902506963788	neutral	006	sub-07	2.0	2.0	006_neutral	0.0		236.52686031489247	
38.0	226.0960544903528	pulse	1.0	t		31.0	female	west_asian	2.364902506963788	neutral	006	sub-07	2.0	2.0	006_neutral	0.0		237.22683948709255	
38.0	226.79602762550985	pulse	1.0	t		31.0	female	west_asian	2.364902506963788	neutral	006	sub-07	2.0	2.0	006_neutral	0.0		237.9268126222496	
39.0	227.2708933012973	face	0.0		145	26.0	male	white	2.7966573816155993	smiling	117	sub-07	2.0	2.0	117_smiling	0.0		238.40167829803704	1.2333148197330956
39.0	227.49601645698021	pulse	0.0	t		26.0	male	white	2.7966573816155993	smiling	117	sub-07	2.0	2.0	117_smiling	0.0		238.62680145371996	
39.0	228.19599079954605	pulse	0.0	t		26.0	male	white	2.7966573816155993	smiling	117	sub-07	2.0	2.0	117_smiling	0.0		239.3267757962858	
39.0	228.5042081210304	fix	1.0		444	26.0	male	white	2.7966573816155993	smiling	117	sub-07	2.0	2.0	117_smiling	0.0		239.63499311777014	3.7498886165512886
39.0	228.89597631064225	pulse	1.0	t		26.0	male	white	2.7966573816155993	smiling	117	sub-07	2.0	2.0	117_smiling	0.0		240.026761307382	
39.0	229.59595155876468	pulse	1.0	t		26.0	male	white	2.7966573816155993	smiling	117	sub-07	2.0	2.0	117_smiling	0.0		240.72673655550443	
39.0	230.29593435319111	pulse	1.0	t		26.0	male	white	2.7966573816155993	smiling	117	sub-07	2.0	2.0	117_smiling	0.0		241.42671934993086	
39.0	230.9959126198355	pulse	1.0	t		26.0	male	white	2.7966573816155993	smiling	117	sub-07	2.0	2.0	117_smiling	0.0		242.12669761657526	
39.0	231.69590356427034	pulse	1.0	t		26.0	male	white	2.7966573816155993	smiling	117	sub-07	2.0	2.0	117_smiling	0.0		242.8266885610101	
40.0	232.25409673758168	fix	0.0		720													243.38488173432143	5.999821303518729
40.0	232.39587277534974	pulse	0.0	t														243.5266577720895	
40.0	233.09584923088096	pulse	0.0	t														244.2266342276207	
40.0	233.79582689382096	pulse	0.0	t														244.9266118905607	
40.0	234.49580757528202	pulse	0.0	t														245.62659257202176	
40.0	235.1957864456308	pulse	0.0	t														246.32657144237055	
40.0	235.89573452705827	pulse	0.0	t														247.02651952379802	
40.0	236.5957417715099	pulse	0.0	t														247.72652676824964	
40.0	237.29572335852845	pulse	0.0	t														248.4265083552682	
40.0	237.99570071961534	pulse	0.0	t														249.1264857163551	
