trial_nr	onset	event_type	phase	response	nr_frames	face_age	face_sex	face_eth	attractiveness	expression	face_id	sub_id	ses	run	trial_type	catch	rating_type	onset_abs	duration
-1.0	0.056338806194617064	fix	0.0		714													23.900153403494187	5.966386463303934
-1.0	0.7062383483389567	pulse	0.0	t														24.550052945638527	
-1.0	1.406224040338202	pulse	0.0	t														25.250038637637772	
-1.0	2.1062230140269094	pulse	0.0	t														25.95003761132648	
-1.0	2.80623376011863	pulse	0.0	t														26.6500483574182	
-1.0	3.5062194521196943	pulse	0.0	t														27.350034049419264	
-1.0	4.206188542009841	pulse	0.0	t														28.05000313930941	
-1.0	4.906213173502692	pulse	0.0	t														28.750027770802262	
-1.0	5.606174113267116	pulse	0.0	t														29.449988710566686	
0.0	6.022725269498551	face	0.0		144	30.0	female	black	2.7345801830481498	smiling	062	sub-02	1.0	2.0	062_smiling	0.0		29.86653986679812	1.233307635280653
0.0	6.306159805266361	pulse	0.0	t		30.0	female	black	2.7345801830481498	smiling	062	sub-02	1.0	2.0	062_smiling	0.0		30.14997440256593	
0.0	7.006146402836748	pulse	0.0	t		30.0	female	black	2.7345801830481498	smiling	062	sub-02	1.0	2.0	062_smiling	0.0		30.849961000136318	
0.0	7.256032904779204	fix	1.0		445	30.0	female	black	2.7345801830481498	smiling	062	sub-02	1.0	2.0	062_smiling	0.0		31.099847502078774	3.758274793288365
0.0	7.7061387356807245	pulse	1.0	t		30.0	female	black	2.7345801830481498	smiling	062	sub-02	1.0	2.0	062_smiling	0.0		31.549953332980294	
0.0	8.406139520508077	pulse	1.0	t		30.0	female	black	2.7345801830481498	smiling	062	sub-02	1.0	2.0	062_smiling	0.0		32.24995411780765	
0.0	9.1061149493853	pulse	1.0	t		30.0	female	black	2.7345801830481498	smiling	062	sub-02	1.0	2.0	062_smiling	0.0		32.94992954668487	
0.0	9.806110904508387	pulse	1.0	t		30.0	female	black	2.7345801830481498	smiling	062	sub-02	1.0	2.0	062_smiling	0.0		33.64992550180796	
0.0	10.506107161487307	pulse	1.0	t		30.0	female	black	2.7345801830481498	smiling	062	sub-02	1.0	2.0	062_smiling	0.0		34.34992175878688	
1.0	11.014307698067569	face	0.0		146	20.0	male	black	2.609629924393156	neutral	043	sub-02	1.0	2.0	043_neutral	0.0		34.85812229536714	1.2416545722808223
1.0	11.20608832563812	pulse	0.0	t		20.0	male	black	2.609629924393156	neutral	043	sub-02	1.0	2.0	043_neutral	0.0		35.04990292293769	
1.0	11.90608458261704	pulse	0.0	t		20.0	male	black	2.609629924393156	neutral	043	sub-02	1.0	2.0	043_neutral	0.0		35.74989917991661	
1.0	12.255962270348391	fix	1.0		444	20.0	male	black	2.609629924393156	neutral	043	sub-02	1.0	2.0	043_neutral	0.0		36.09977686764796	3.7582705672975862
1.0	12.606079632170804	pulse	1.0	t		20.0	male	black	2.609629924393156	neutral	043	sub-02	1.0	2.0	043_neutral	0.0		36.449894229470374	
1.0	13.306064116744892	pulse	1.0	t		20.0	male	black	2.609629924393156	neutral	043	sub-02	1.0	2.0	043_neutral	0.0		37.14987871404446	
1.0	14.006062788575946	pulse	1.0	t		20.0	male	black	2.609629924393156	neutral	043	sub-02	1.0	2.0	043_neutral	0.0		37.849877385875516	
1.0	14.706040028591815	pulse	1.0	t		20.0	male	black	2.609629924393156	neutral	043	sub-02	1.0	2.0	043_neutral	0.0		38.549854625891385	
1.0	15.406039304136357	pulse	1.0	t		20.0	male	black	2.609629924393156	neutral	043	sub-02	1.0	2.0	043_neutral	0.0		39.24985390143593	
2.0	16.014232837645977	face	0.0		146	32.0	male	white	2.389176283326701	smiling	092	sub-02	1.0	2.0	092_smiling	1.0	attractiveness	39.85804743494555	1.2416612131255533
2.0	16.106028014703043	pulse	0.0	t		32.0	male	white	2.389176283326701	smiling	092	sub-02	1.0	2.0	092_smiling	1.0	attractiveness	39.94984261200261	
2.0	16.80600314172443	pulse	0.0	t		32.0	male	white	2.389176283326701	smiling	092	sub-02	1.0	2.0	092_smiling	1.0	attractiveness	40.649817739024	
2.0	17.25589405077153	fix	1.0		177	32.0	male	white	2.389176283326701	smiling	092	sub-02	1.0	2.0	092_smiling	1.0	attractiveness	41.0997086480711	1.5083490499964682
2.0	17.505994267141432	pulse	1.0	t		32.0	male	white	2.389176283326701	smiling	092	sub-02	1.0	2.0	092_smiling	1.0	attractiveness	41.349808864441	
2.0	18.205978148002032	pulse	1.0	t		32.0	male	white	2.389176283326701	smiling	092	sub-02	1.0	2.0	092_smiling	1.0	attractiveness	42.0497927453016	
2.0	18.764243100768	rating	2.0		293	32.0	male	white	2.389176283326701	smiling	092	sub-02	1.0	2.0	092_smiling	1.0	attractiveness	42.60805769806757	2.491583635994175
2.0	18.90079665977646	pulse	2.0	t		32.0	male	white	2.389176283326701	smiling	092	sub-02	1.0	2.0	092_smiling	1.0	attractiveness	42.74461125707603	
2.0	19.409641961923626	response	2.0	w		32.0	male	white	2.389176283326701	smiling	092	sub-02	1.0	2.0	092_smiling	1.0	attractiveness	43.253456559223196	
2.0	19.600683644688615	pulse	2.0	t		32.0	male	white	2.389176283326701	smiling	092	sub-02	1.0	2.0	092_smiling	1.0	attractiveness	43.444498241988185	
2.0	20.306383480961813	pulse	2.0	t		32.0	male	white	2.389176283326701	smiling	092	sub-02	1.0	2.0	092_smiling	1.0	attractiveness	44.15019807826138	
2.0	21.005971326045255	pulse	2.0	t		32.0	male	white	2.389176283326701	smiling	092	sub-02	1.0	2.0	092_smiling	1.0	attractiveness	44.849785923344825	
2.0	21.255826736762174	fix	3.0		444	32.0	male	white	2.389176283326701	smiling	092	sub-02	1.0	2.0	092_smiling	1.0	attractiveness	45.099641334061744	3.7582868675508507
2.0	21.705933171377183	pulse	3.0	t		32.0	male	white	2.389176283326701	smiling	092	sub-02	1.0	2.0	092_smiling	1.0	attractiveness	45.54974776867675	
2.0	22.405954482450397	pulse	3.0	t		32.0	male	white	2.389176283326701	smiling	092	sub-02	1.0	2.0	092_smiling	1.0	attractiveness	46.24976907974997	
2.0	23.1059175352093	pulse	3.0	t		32.0	male	white	2.389176283326701	smiling	092	sub-02	1.0	2.0	092_smiling	1.0	attractiveness	46.94973213250887	
2.0	23.805900812356413	pulse	3.0	t		32.0	male	white	2.389176283326701	smiling	092	sub-02	1.0	2.0	092_smiling	1.0	attractiveness	47.64971540965598	
2.0	24.505913067732763	pulse	3.0	t		32.0	male	white	2.389176283326701	smiling	092	sub-02	1.0	2.0	092_smiling	1.0	attractiveness	48.34972766503233	
3.0	25.014113604313025	face	0.0		146	47.0	male	east_asian	2.171110226820533	smiling	024	sub-02	1.0	2.0	024_smiling	0.0		48.857928201612594	1.241649440720721
3.0	25.20590902285585	pulse	0.0	t		47.0	male	east_asian	2.171110226820533	smiling	024	sub-02	1.0	2.0	024_smiling	0.0		49.04972362015542	
3.0	25.905880225740475	pulse	0.0	t		47.0	male	east_asian	2.171110226820533	smiling	024	sub-02	1.0	2.0	024_smiling	0.0		49.749694823040045	
3.0	26.255763045033746	fix	1.0		444	47.0	male	east_asian	2.171110226820533	smiling	024	sub-02	1.0	2.0	024_smiling	0.0		50.099577642333315	3.7582636245952017
3.0	26.605862597320083	pulse	1.0	t		47.0	male	east_asian	2.171110226820533	smiling	024	sub-02	1.0	2.0	024_smiling	0.0		50.44967719461965	
3.0	27.30586579699775	pulse	1.0	t		47.0	male	east_asian	2.171110226820533	smiling	024	sub-02	1.0	2.0	024_smiling	0.0		51.14968039429732	
3.0	28.005856016847247	pulse	1.0	t		47.0	male	east_asian	2.171110226820533	smiling	024	sub-02	1.0	2.0	024_smiling	0.0		51.84967061414682	
3.0	28.705830238297494	pulse	1.0	t		47.0	male	east_asian	2.171110226820533	smiling	024	sub-02	1.0	2.0	024_smiling	0.0		52.549644835597064	
3.0	29.405816534012047	pulse	1.0	t		47.0	male	east_asian	2.171110226820533	smiling	024	sub-02	1.0	2.0	024_smiling	0.0		53.24963113131162	
4.0	30.014026669628947	face	0.0		146	20.0	male	black	3.1070433744528456	smiling	082	sub-02	1.0	2.0	082_smiling	0.0		53.85784126692852	1.2416572889906092
4.0	30.105816111412423	pulse	0.0	t		20.0	male	black	3.1070433744528456	smiling	082	sub-02	1.0	2.0	082_smiling	0.0		53.94963070871199	
4.0	30.805807236829423	pulse	0.0	t		20.0	male	black	3.1070433744528456	smiling	082	sub-02	1.0	2.0	082_smiling	0.0		54.64962183412899	
4.0	31.255683958619557	fix	1.0		444	20.0	male	black	3.1070433744528456	smiling	082	sub-02	1.0	2.0	082_smiling	0.0		55.099498555919126	3.766604524467766
4.0	31.505804399379485	pulse	1.0	t		20.0	male	black	3.1070433744528456	smiling	082	sub-02	1.0	2.0	082_smiling	0.0		55.349618996679055	
4.0	32.20579341180019	pulse	1.0	t		20.0	male	black	3.1070433744528456	smiling	082	sub-02	1.0	2.0	082_smiling	0.0		56.04960800909976	
4.0	32.90578997063676	pulse	1.0	t		20.0	male	black	3.1070433744528456	smiling	082	sub-02	1.0	2.0	082_smiling	0.0		56.74960456793633	
4.0	33.60575423082264	pulse	1.0	t		20.0	male	black	3.1070433744528456	smiling	082	sub-02	1.0	2.0	082_smiling	0.0		57.44956882812221	
4.0	34.305736904256264	pulse	1.0	t		20.0	male	black	3.1070433744528456	smiling	082	sub-02	1.0	2.0	082_smiling	0.0		58.149551501555834	
5.0	35.02228848308732	face	0.0		146	22.0	female	west_asian	3.8205332272184642	smiling	066	sub-02	1.0	2.0	066_smiling	0.0		58.86610308038689	1.2333067297095113
5.0	35.00849152628325	pulse	0.0	t		22.0	female	west_asian	3.8205332272184642	smiling	066	sub-02	1.0	2.0	066_smiling	0.0		58.85230612358282	
5.0	35.70571523095714	pulse	0.0	t		22.0	female	west_asian	3.8205332272184642	smiling	066	sub-02	1.0	2.0	066_smiling	0.0		59.54952982825671	
5.0	36.255595212796834	fix	1.0		443	22.0	female	west_asian	3.8205332272184642	smiling	066	sub-02	1.0	2.0	066_smiling	0.0		60.099409810096404	3.766625352569463
5.0	36.40572869375865	pulse	1.0	t		22.0	female	west_asian	3.8205332272184642	smiling	066	sub-02	1.0	2.0	066_smiling	0.0		60.24954329105822	
5.0	37.1057128764769	pulse	1.0	t		22.0	female	west_asian	3.8205332272184642	smiling	066	sub-02	1.0	2.0	066_smiling	0.0		60.94952747377647	
5.0	37.8057018888976	pulse	1.0	t		22.0	female	west_asian	3.8205332272184642	smiling	066	sub-02	1.0	2.0	066_smiling	0.0		61.64951648619717	
5.0	38.50569120317596	pulse	1.0	t		22.0	female	west_asian	3.8205332272184642	smiling	066	sub-02	1.0	2.0	066_smiling	0.0		62.34950580047553	
5.0	39.20569440285544	pulse	1.0	t		22.0	female	west_asian	3.8205332272184642	smiling	066	sub-02	1.0	2.0	066_smiling	0.0		63.04950900015501	
5.0	39.905674057725264	pulse	1.0	t		22.0	female	west_asian	3.8205332272184642	smiling	066	sub-02	1.0	2.0	066_smiling	0.0		63.749488655024834	
6.0	40.0222205653663	face	0.0		146	31.0	female	east_asian	3.395941106247513	neutral	087	sub-02	1.0	2.0	087_neutral	0.0		63.86603516266587	1.2333185021143436
6.0	40.605662466434296	pulse	0.0	t		31.0	female	east_asian	3.395941106247513	neutral	087	sub-02	1.0	2.0	087_neutral	0.0		64.44947706373387	
6.0	41.25553906748064	fix	1.0		443	31.0	female	east_asian	3.395941106247513	neutral	087	sub-02	1.0	2.0	087_neutral	0.0		65.09935366478021	3.75841093058807
6.0	41.30565027142984	pulse	1.0	t		31.0	female	east_asian	3.395941106247513	neutral	087	sub-02	1.0	2.0	087_neutral	0.0		65.14946486872941	
6.0	42.00565165997068	pulse	1.0	t		31.0	female	east_asian	3.395941106247513	neutral	087	sub-02	1.0	2.0	087_neutral	0.0		65.84946625727025	
6.0	42.70562678699207	pulse	1.0	t		31.0	female	east_asian	3.395941106247513	neutral	087	sub-02	1.0	2.0	087_neutral	0.0		66.54944138429164	
6.0	43.4056339108065	pulse	1.0	t		31.0	female	east_asian	3.395941106247513	neutral	087	sub-02	1.0	2.0	087_neutral	0.0		67.24944850810607	
6.0	44.10560752854508	pulse	1.0	t		31.0	female	east_asian	3.395941106247513	neutral	087	sub-02	1.0	2.0	087_neutral	0.0		67.94942212584465	
6.0	44.80560106881421	pulse	1.0	t		31.0	female	east_asian	3.395941106247513	neutral	087	sub-02	1.0	2.0	087_neutral	0.0		68.64941566611378	
7.0	45.01394999806871	face	0.0		146	40.0	male	white	1.868682849184242	neutral	172	sub-02	1.0	2.0	172_neutral	0.0		68.85776459536828	1.241515718273149
7.0	45.505587968240434	pulse	0.0	t		40.0	male	white	1.868682849184242	neutral	172	sub-02	1.0	2.0	172_neutral	0.0		69.34940256554	
7.0	46.20557939551509	pulse	0.0	t		40.0	male	white	1.868682849184242	neutral	172	sub-02	1.0	2.0	172_neutral	0.0		70.04939399281466	
7.0	46.25546571634186	fix	1.0		445	40.0	male	white	1.868682849184242	neutral	172	sub-02	1.0	2.0	172_neutral	0.0		70.09928031364143	3.766609354172033
7.0	46.905576859919165	pulse	1.0	t		40.0	male	white	1.868682849184242	neutral	172	sub-02	1.0	2.0	172_neutral	0.0		70.74939145721874	
7.0	47.60555832592945	pulse	1.0	t		40.0	male	white	1.868682849184242	neutral	172	sub-02	1.0	2.0	172_neutral	0.0		71.44937292322902	
7.0	48.305546130924995	pulse	1.0	t		40.0	male	white	1.868682849184242	neutral	172	sub-02	1.0	2.0	172_neutral	0.0		72.14936072822456	
7.0	49.005544500898395	pulse	1.0	t		40.0	male	white	1.868682849184242	neutral	172	sub-02	1.0	2.0	172_neutral	0.0		72.84935909819797	
7.0	49.705529891041806	pulse	1.0	t		40.0	male	white	1.868682849184242	neutral	172	sub-02	1.0	2.0	172_neutral	0.0		73.54934448834138	
8.0	50.02207507051389	face	0.0		145	28.0	female	white	5.676880222841227	smiling	124	sub-02	1.0	2.0	124_smiling	0.0		73.86588966781346	1.2333172946891864
8.0	50.405545768697266	pulse	0.0	t		28.0	female	white	5.676880222841227	smiling	124	sub-02	1.0	2.0	124_smiling	0.0		74.24936036599684	
8.0	51.105526027278756	pulse	0.0	t		28.0	female	white	5.676880222841227	smiling	124	sub-02	1.0	2.0	124_smiling	0.0		74.94934062457833	
8.0	51.25539236520308	fix	1.0		444	28.0	female	white	5.676880222841227	smiling	124	sub-02	1.0	2.0	124_smiling	0.0		75.09920696250265	3.758273284007373
8.0	51.805506889573735	pulse	1.0	t		28.0	female	white	5.676880222841227	smiling	124	sub-02	1.0	2.0	124_smiling	0.0		75.6493214868733	
8.0	52.50547718689086	pulse	1.0	t		28.0	female	white	5.676880222841227	smiling	124	sub-02	1.0	2.0	124_smiling	0.0		76.34929178419043	
8.0	53.20547223644462	pulse	1.0	t		28.0	female	white	5.676880222841227	smiling	124	sub-02	1.0	2.0	124_smiling	0.0		77.04928683374419	
8.0	53.905467285996565	pulse	1.0	t		28.0	female	white	5.676880222841227	smiling	124	sub-02	1.0	2.0	124_smiling	0.0		77.74928188329613	
8.0	54.6054556947056	pulse	1.0	t		28.0	female	white	5.676880222841227	smiling	124	sub-02	1.0	2.0	124_smiling	0.0		78.44927029200517	
9.0	55.01366564921045	face	0.0		146	23.0	male	white	2.6275368085953046	smiling	141	sub-02	1.0	2.0	141_smiling	0.0		78.85748024651002	1.2416642316893558
9.0	55.30547096864575	pulse	0.0	t		23.0	male	white	2.6275368085953046	smiling	141	sub-02	1.0	2.0	141_smiling	0.0		79.14928556594532	
9.0	56.005449416088595	pulse	0.0	t		23.0	male	white	2.6275368085953046	smiling	141	sub-02	1.0	2.0	141_smiling	0.0		79.84926401338817	
9.0	56.25532988089981	fix	1.0		444	23.0	male	white	2.6275368085953046	smiling	141	sub-02	1.0	2.0	141_smiling	0.0		80.09914447819938	3.766599392905846
9.0	56.70543027838539	pulse	1.0	t		23.0	male	white	2.6275368085953046	smiling	141	sub-02	1.0	2.0	141_smiling	0.0		80.54924487568496	
9.0	57.405450683887466	pulse	1.0	t		23.0	male	white	2.6275368085953046	smiling	141	sub-02	1.0	2.0	141_smiling	0.0		81.24926528118704	
9.0	58.1054161514985	pulse	1.0	t		23.0	male	white	2.6275368085953046	smiling	141	sub-02	1.0	2.0	141_smiling	0.0		81.94923074879807	
9.0	58.80540365463821	pulse	1.0	t		23.0	male	white	2.6275368085953046	smiling	141	sub-02	1.0	2.0	141_smiling	0.0		82.64921825193778	
9.0	59.50539840233432	pulse	1.0	t		23.0	male	white	2.6275368085953046	smiling	141	sub-02	1.0	2.0	141_smiling	0.0		83.34921299963389	
10.0	60.021929273805654	face	0.0		145	28.0	male	white	3.9076800636689217	neutral	033	sub-02	1.0	2.0	033_neutral	1.0	trustworthiness	83.86574387110522	1.2333227281069412
10.0	60.20538711289919	pulse	0.0	t		28.0	male	white	3.9076800636689217	neutral	033	sub-02	1.0	2.0	033_neutral	1.0	trustworthiness	84.04920171019876	
10.0	60.90535952321261	pulse	0.0	t		28.0	male	white	3.9076800636689217	neutral	033	sub-02	1.0	2.0	033_neutral	1.0	trustworthiness	84.74917412051218	
10.0	61.255252001912595	fix	1.0		177	28.0	male	white	3.9076800636689217	neutral	033	sub-02	1.0	2.0	033_neutral	1.0	trustworthiness	85.09906659921216	1.4999737384823675
10.0	61.60537811757422	pulse	1.0	t		28.0	male	white	3.9076800636689217	neutral	033	sub-02	1.0	2.0	033_neutral	1.0	trustworthiness	85.44919271487379	
10.0	62.30534086847911	pulse	1.0	t		28.0	male	white	3.9076800636689217	neutral	033	sub-02	1.0	2.0	033_neutral	1.0	trustworthiness	86.14915546577868	
10.0	62.75522574039496	rating	2.0		294	28.0	male	white	3.9076800636689217	neutral	033	sub-02	1.0	2.0	033_neutral	1.0	trustworthiness	86.59904033769453	2.49996075864874
10.0	63.00009387738464	pulse	2.0	t		28.0	male	white	3.9076800636689217	neutral	033	sub-02	1.0	2.0	033_neutral	1.0	trustworthiness	86.84390847468421	
10.0	63.69697648416877	response	2.0	w		28.0	male	white	3.9076800636689217	neutral	033	sub-02	1.0	2.0	033_neutral	1.0	trustworthiness	87.54079108146834	
10.0	63.70816057077536	pulse	2.0	t		28.0	male	white	3.9076800636689217	neutral	033	sub-02	1.0	2.0	033_neutral	1.0	trustworthiness	87.55197516807493	
10.0	64.40532179114416	pulse	2.0	t		28.0	male	white	3.9076800636689217	neutral	033	sub-02	1.0	2.0	033_neutral	1.0	trustworthiness	88.24913638844373	
10.0	65.10530838871455	pulse	2.0	t		28.0	male	white	3.9076800636689217	neutral	033	sub-02	1.0	2.0	033_neutral	1.0	trustworthiness	88.94912298601412	
10.0	65.2551864990437	fix	3.0		444	28.0	male	white	3.9076800636689217	neutral	033	sub-02	1.0	2.0	033_neutral	1.0	trustworthiness	89.09900109634327	3.766610561599009
10.0	65.80531370139033	pulse	3.0	t		28.0	male	white	3.9076800636689217	neutral	033	sub-02	1.0	2.0	033_neutral	1.0	trustworthiness	89.6491282986899	
10.0	66.5052909414062	pulse	3.0	t		28.0	male	white	3.9076800636689217	neutral	033	sub-02	1.0	2.0	033_neutral	1.0	trustworthiness	90.34910553870577	
10.0	67.20527059627602	pulse	3.0	t		28.0	male	white	3.9076800636689217	neutral	033	sub-02	1.0	2.0	033_neutral	1.0	trustworthiness	91.04908519357559	
10.0	67.90526956996473	pulse	3.0	t		28.0	male	white	3.9076800636689217	neutral	033	sub-02	1.0	2.0	033_neutral	1.0	trustworthiness	91.7490841672643	
10.0	68.60525345082533	pulse	3.0	t		28.0	male	white	3.9076800636689217	neutral	033	sub-02	1.0	2.0	033_neutral	1.0	trustworthiness	92.4490680481249	
11.0	69.02179706064271	face	0.0		145	25.0	female	west_asian	2.6756864305610826	neutral	064	sub-02	1.0	2.0	064_neutral	0.0		92.86561165794228	1.2333100501327863
11.0	69.30525544307784	pulse	0.0	t		25.0	female	west_asian	2.6756864305610826	neutral	064	sub-02	1.0	2.0	064_neutral	0.0		93.14907004037741	
11.0	70.00524505921385	pulse	0.0	t		25.0	female	west_asian	2.6756864305610826	neutral	064	sub-02	1.0	2.0	064_neutral	0.0		93.84905965651342	
11.0	70.2551071107755	fix	1.0		444	25.0	female	west_asian	2.6756864305610826	neutral	064	sub-02	1.0	2.0	064_neutral	0.0		94.09892170807507	3.766619315436401
11.0	70.70523105306893	pulse	1.0	t		25.0	female	west_asian	2.6756864305610826	neutral	064	sub-02	1.0	2.0	064_neutral	0.0		94.5490456503685	
11.0	71.4052088968001	pulse	1.0	t		25.0	female	west_asian	2.6756864305610826	neutral	064	sub-02	1.0	2.0	064_neutral	0.0		95.24902349409967	
11.0	72.1052208503188	pulse	1.0	t		25.0	female	west_asian	2.6756864305610826	neutral	064	sub-02	1.0	2.0	064_neutral	0.0		95.94903544761837	
11.0	72.80519205320525	pulse	1.0	t		25.0	female	west_asian	2.6756864305610826	neutral	064	sub-02	1.0	2.0	064_neutral	0.0		96.64900665050482	
11.0	73.5051907250363	pulse	1.0	t		25.0	female	west_asian	2.6756864305610826	neutral	064	sub-02	1.0	2.0	064_neutral	0.0		97.34900532233587	
12.0	74.0217264262119	face	0.0		145	20.0	female	white	3.9502586549940313	smiling	091	sub-02	1.0	2.0	091_smiling	0.0		97.86554102351147	1.233327557813027
12.0	74.2051724929006	pulse	0.0	t		20.0	female	white	3.9502586549940313	smiling	091	sub-02	1.0	2.0	091_smiling	0.0		98.04898709020017	
12.0	74.90517357958379	pulse	0.0	t		20.0	female	white	3.9502586549940313	smiling	091	sub-02	1.0	2.0	091_smiling	0.0		98.74898817688336	
12.0	75.25505398402493	fix	1.0		444	20.0	female	white	3.9502586549940313	smiling	091	sub-02	1.0	2.0	091_smiling	0.0		99.0988685813245	3.7582910935416294
12.0	75.60515202702845	pulse	1.0	t		20.0	female	white	3.9502586549940313	smiling	091	sub-02	1.0	2.0	091_smiling	0.0		99.44896662432802	
12.0	76.30514949143253	pulse	1.0	t		20.0	female	white	3.9502586549940313	smiling	091	sub-02	1.0	2.0	091_smiling	0.0		100.1489640887321	
12.0	77.00513910756854	pulse	1.0	t		20.0	female	white	3.9502586549940313	smiling	091	sub-02	1.0	2.0	091_smiling	0.0		100.84895370486811	
12.0	77.70511755501138	pulse	1.0	t		20.0	female	white	3.9502586549940313	smiling	091	sub-02	1.0	2.0	091_smiling	0.0		101.54893215231095	
12.0	78.4051065674339	pulse	1.0	t		20.0	female	white	3.9502586549940313	smiling	091	sub-02	1.0	2.0	091_smiling	0.0		102.24892116473347	
13.0	79.01334507756656	face	0.0		146	47.0	male	east_asian	2.171110226820533	neutral	024	sub-02	1.0	2.0	024_neutral	0.0		102.85715967486612	1.2416331404656376
13.0	79.10511670981214	pulse	0.0	t		47.0	male	east_asian	2.171110226820533	neutral	024	sub-02	1.0	2.0	024_neutral	0.0		102.9489313071117	
13.0	79.8050909312642	pulse	0.0	t		47.0	male	east_asian	2.171110226820533	neutral	024	sub-02	1.0	2.0	024_neutral	0.0		103.64890552856377	
13.0	80.25497821803219	fix	1.0		444	47.0	male	east_asian	2.171110226820533	neutral	024	sub-02	1.0	2.0	024_neutral	0.0		104.09879281533176	3.766596676197878
13.0	80.50508296225235	pulse	1.0	t		47.0	male	east_asian	2.171110226820533	neutral	024	sub-02	1.0	2.0	024_neutral	0.0		104.34889755955192	
13.0	81.20506654125529	pulse	1.0	t		47.0	male	east_asian	2.171110226820533	neutral	024	sub-02	1.0	2.0	024_neutral	0.0		105.04888113855486	
13.0	81.90507638177951	pulse	1.0	t		47.0	male	east_asian	2.171110226820533	neutral	024	sub-02	1.0	2.0	024_neutral	0.0		105.74889097907908	
13.0	82.60504969766043	pulse	1.0	t		47.0	male	east_asian	2.171110226820533	neutral	024	sub-02	1.0	2.0	024_neutral	0.0		106.44886429496	
13.0	83.30502784324744	pulse	1.0	t		47.0	male	east_asian	2.171110226820533	neutral	024	sub-02	1.0	2.0	024_neutral	0.0		107.14884244054701	
14.0	84.02157489423007	face	0.0		145	22.0	female	white	4.614007162753682	neutral	009	sub-02	1.0	2.0	009_neutral	0.0		107.86538949152964	1.233321520681784
14.0	84.0079053208865	pulse	0.0	t		22.0	female	white	4.614007162753682	neutral	009	sub-02	1.0	2.0	009_neutral	0.0		107.85171991818606	
14.0	84.70502699805002	pulse	0.0	t		22.0	female	white	4.614007162753682	neutral	009	sub-02	1.0	2.0	009_neutral	0.0		108.54884159534959	
14.0	85.25489641491185	fix	1.0		443	22.0	female	white	4.614007162753682	neutral	009	sub-02	1.0	2.0	009_neutral	0.0		109.09871101221142	3.766592148347627
14.0	85.40502838658904	pulse	1.0	t		22.0	female	white	4.614007162753682	neutral	009	sub-02	1.0	2.0	009_neutral	0.0		109.24884298388861	
14.0	86.10499475977122	pulse	1.0	t		22.0	female	white	4.614007162753682	neutral	009	sub-02	1.0	2.0	009_neutral	0.0		109.94880935707079	
14.0	86.80498014991463	pulse	1.0	t		22.0	female	white	4.614007162753682	neutral	009	sub-02	1.0	2.0	009_neutral	0.0		110.6487947472142	
14.0	87.50497882174568	pulse	1.0	t		22.0	female	white	4.614007162753682	neutral	009	sub-02	1.0	2.0	009_neutral	0.0		111.34879341904525	
14.0	88.20496904159336	pulse	1.0	t		22.0	female	white	4.614007162753682	neutral	009	sub-02	1.0	2.0	009_neutral	0.0		112.04878363889293	
14.0	88.90496439300296	pulse	1.0	t		22.0	female	white	4.614007162753682	neutral	009	sub-02	1.0	2.0	009_neutral	0.0		112.74877899030253	
15.0	89.02148856325948	face	0.0		146	21.0	male	east_asian/white	3.501790688420215	smiling	036	sub-02	1.0	2.0	036_smiling	0.0		112.86530316055905	1.233347480343582
15.0	89.60496095183953	pulse	0.0	t		21.0	male	east_asian/white	3.501790688420215	smiling	036	sub-02	1.0	2.0	036_smiling	0.0		113.4487755491391	
15.0	90.25483604360306	fix	1.0		443	21.0	male	east_asian/white	3.501790688420215	smiling	036	sub-02	1.0	2.0	036_smiling	0.0		114.09865064090263	3.766602109615633
15.0	90.3049777350625	pulse	1.0	t		21.0	male	east_asian/white	3.501790688420215	smiling	036	sub-02	1.0	2.0	036_smiling	0.0		114.14879233236206	
15.0	91.00493958039624	pulse	1.0	t		21.0	male	east_asian/white	3.501790688420215	smiling	036	sub-02	1.0	2.0	036_smiling	0.0		114.84875417769581	
15.0	91.70491048142503	pulse	1.0	t		21.0	male	east_asian/white	3.501790688420215	smiling	036	sub-02	1.0	2.0	036_smiling	0.0		115.5487250787246	
15.0	92.4049221330879	pulse	1.0	t		21.0	male	east_asian/white	3.501790688420215	smiling	036	sub-02	1.0	2.0	036_smiling	0.0		116.24873673038746	
15.0	93.10490208981355	pulse	1.0	t		21.0	male	east_asian/white	3.501790688420215	smiling	036	sub-02	1.0	2.0	036_smiling	0.0		116.94871668711312	
15.0	93.80487902797358	pulse	1.0	t		21.0	male	east_asian/white	3.501790688420215	smiling	036	sub-02	1.0	2.0	036_smiling	0.0		117.64869362527315	
16.0	94.0214381532187	face	0.0		145	20.0	male	black	2.609629924393156	smiling	043	sub-02	1.0	2.0	043_smiling	0.0		117.86525275051827	1.2333266522418853
16.0	94.50487649237948	pulse	0.0	t		20.0	male	black	2.609629924393156	smiling	043	sub-02	1.0	2.0	043_smiling	0.0		118.34869108967905	
16.0	95.20487516421053	pulse	0.0	t		20.0	male	black	2.609629924393156	smiling	043	sub-02	1.0	2.0	043_smiling	0.0		119.0486897615101	
16.0	95.25476480546058	fix	1.0		444	20.0	male	black	2.609629924393156	smiling	043	sub-02	1.0	2.0	043_smiling	0.0		119.09857940276015	3.766592148349446
16.0	95.90485512093619	pulse	1.0	t		20.0	male	black	2.609629924393156	smiling	043	sub-02	1.0	2.0	043_smiling	0.0		119.74866971823576	
16.0	96.60485620761938	pulse	1.0	t		20.0	male	black	2.609629924393156	smiling	043	sub-02	1.0	2.0	043_smiling	0.0		120.44867080491895	
16.0	97.3048588035872	pulse	1.0	t		20.0	male	black	2.609629924393156	smiling	043	sub-02	1.0	2.0	043_smiling	0.0		121.14867340088676	
16.0	98.00483604360306	pulse	1.0	t		20.0	male	black	2.609629924393156	smiling	043	sub-02	1.0	2.0	043_smiling	0.0		121.84865064090263	
16.0	98.70482264117345	pulse	1.0	t		20.0	male	black	2.609629924393156	smiling	043	sub-02	1.0	2.0	043_smiling	0.0		122.54863723847302	
17.0	99.02135695381003	face	0.0		145	40.0	male	white	1.868682849184242	smiling	172	sub-02	1.0	2.0	172_smiling	0.0		122.8651715511096	1.233324237389752
17.0	99.40480380532426	pulse	0.0	t		40.0	male	white	1.868682849184242	smiling	172	sub-02	1.0	2.0	172_smiling	0.0		123.24861840262383	
17.0	100.10479311960444	pulse	0.0	t		40.0	male	white	1.868682849184242	smiling	172	sub-02	1.0	2.0	172_smiling	0.0		123.94860771690401	
17.0	100.25468119119978	fix	1.0		444	40.0	male	white	1.868682849184242	smiling	172	sub-02	1.0	2.0	172_smiling	0.0		124.09849578849935	3.7666051281794353
17.0	100.8047818301693	pulse	1.0	t		40.0	male	white	1.868682849184242	smiling	172	sub-02	1.0	2.0	172_smiling	0.0		124.64859642746887	
17.0	101.50477687972125	pulse	1.0	t		40.0	male	white	1.868682849184242	smiling	172	sub-02	1.0	2.0	172_smiling	0.0		125.34859147702082	
17.0	102.20477585340996	pulse	1.0	t		40.0	male	white	1.868682849184242	smiling	172	sub-02	1.0	2.0	172_smiling	0.0		126.04859045070953	
17.0	102.90475550827978	pulse	1.0	t		40.0	male	white	1.868682849184242	smiling	172	sub-02	1.0	2.0	172_smiling	0.0		126.74857010557935	
17.0	103.60473516314778	pulse	1.0	t		40.0	male	white	1.868682849184242	smiling	172	sub-02	1.0	2.0	172_smiling	0.0		127.44854976044735	
18.0	104.02128631937921	face	0.0		145	37.0	male	white	3.898925586947871	neutral	101	sub-02	1.0	2.0	101_neutral	0.0		127.86510091667878	1.2333363116522378
18.0	104.3047314201267	pulse	0.0	t		37.0	male	white	3.898925586947871	neutral	101	sub-02	1.0	2.0	101_neutral	0.0		128.14854601742627	
18.0	105.00472345111484	pulse	0.0	t		37.0	male	white	3.898925586947871	neutral	101	sub-02	1.0	2.0	101_neutral	0.0		128.8485380484144	
18.0	105.25462263103145	fix	1.0		444	37.0	male	white	3.898925586947871	neutral	101	sub-02	1.0	2.0	101_neutral	0.0		129.09843722833102	3.758258191177447
18.0	105.70471668952814	pulse	1.0	t		37.0	male	white	3.898925586947871	neutral	101	sub-02	1.0	2.0	101_neutral	0.0		129.5485312868277	
18.0	106.40470298524087	pulse	1.0	t		37.0	male	white	3.898925586947871	neutral	101	sub-02	1.0	2.0	101_neutral	0.0		130.24851758254044	
18.0	107.1046877716708	pulse	1.0	t		37.0	male	white	3.898925586947871	neutral	101	sub-02	1.0	2.0	101_neutral	0.0		130.94850236897037	
18.0	107.80468946206747	pulse	1.0	t		37.0	male	white	3.898925586947871	neutral	101	sub-02	1.0	2.0	101_neutral	0.0		131.64850405936704	
18.0	108.50468390790775	pulse	1.0	t		37.0	male	white	3.898925586947871	neutral	101	sub-02	1.0	2.0	101_neutral	0.0		132.34849850520732	
19.0	109.0128808222089	face	0.0		146	34.0	male	white	2.651014723438122	smiling	121	sub-02	1.0	2.0	121_smiling	1.0	attractiveness	132.85669541950847	1.2416636279776867
19.0	109.20466899619532	pulse	0.0	t		34.0	male	white	2.651014723438122	smiling	121	sub-02	1.0	2.0	121_smiling	1.0	attractiveness	133.0484835934949	
19.0	109.90465227334244	pulse	0.0	t		34.0	male	white	2.651014723438122	smiling	121	sub-02	1.0	2.0	121_smiling	1.0	attractiveness	133.748466870642	
19.0	110.25454445018659	fix	1.0		177	34.0	male	white	2.651014723438122	smiling	121	sub-02	1.0	2.0	121_smiling	1.0	attractiveness	134.09835904748616	1.4999661920683138
19.0	110.60466332129181	pulse	1.0	t		34.0	male	white	2.651014723438122	smiling	121	sub-02	1.0	2.0	121_smiling	1.0	attractiveness	134.44847791859138	
19.0	111.30462939261633	pulse	1.0	t		34.0	male	white	2.651014723438122	smiling	121	sub-02	1.0	2.0	121_smiling	1.0	attractiveness	135.1484439899159	
19.0	111.7545106422549	rating	2.0		294	34.0	male	white	2.651014723438122	smiling	121	sub-02	1.0	2.0	121_smiling	1.0	attractiveness	135.59832523955447	2.4999643809278496
19.0	111.99936036599502	pulse	2.0	t		34.0	male	white	2.651014723438122	smiling	121	sub-02	1.0	2.0	121_smiling	1.0	attractiveness	135.8431749632946	
19.0	112.69936748980945	pulse	2.0	t		34.0	male	white	2.651014723438122	smiling	121	sub-02	1.0	2.0	121_smiling	1.0	attractiveness	136.54318208710902	
19.0	112.77960216515748	response	2.0	w		34.0	male	white	2.651014723438122	smiling	121	sub-02	1.0	2.0	121_smiling	1.0	attractiveness	136.62341676245705	
19.0	113.40460608929243	pulse	2.0	t		34.0	male	white	2.651014723438122	smiling	121	sub-02	1.0	2.0	121_smiling	1.0	attractiveness	137.248420686592	
19.0	114.10458725344506	pulse	2.0	t		34.0	male	white	2.651014723438122	smiling	121	sub-02	1.0	2.0	121_smiling	1.0	attractiveness	137.94840185074463	
19.0	114.25447502318275	fix	3.0		444	34.0	male	white	2.651014723438122	smiling	121	sub-02	1.0	2.0	121_smiling	1.0	attractiveness	138.09828962048232	3.7666090523161984
19.0	114.80458260485284	pulse	3.0	t		34.0	male	white	2.651014723438122	smiling	121	sub-02	1.0	2.0	121_smiling	1.0	attractiveness	138.6483972021524	
19.0	115.50456558014412	pulse	3.0	t		34.0	male	white	2.651014723438122	smiling	121	sub-02	1.0	2.0	121_smiling	1.0	attractiveness	139.3483801774437	
19.0	116.20457964665911	pulse	3.0	t		34.0	male	white	2.651014723438122	smiling	121	sub-02	1.0	2.0	121_smiling	1.0	attractiveness	140.04839424395868	
19.0	116.90454843469342	pulse	3.0	t		34.0	male	white	2.651014723438122	smiling	121	sub-02	1.0	2.0	121_smiling	1.0	attractiveness	140.748363031993	
19.0	117.60454620095516	pulse	3.0	t		34.0	male	white	2.651014723438122	smiling	121	sub-02	1.0	2.0	121_smiling	1.0	attractiveness	141.44836079825473	
20.0	118.02108407549895	face	0.0		145	32.0	male	white	2.389176283326701	neutral	092	sub-02	1.0	2.0	092_neutral	0.0		141.86489867279852	1.2333206151106424
20.0	118.30456449346093	pulse	0.0	t		32.0	male	white	2.389176283326701	neutral	092	sub-02	1.0	2.0	092_neutral	0.0		142.1483790907605	
20.0	119.00452875364681	pulse	0.0	t		32.0	male	white	2.389176283326701	neutral	092	sub-02	1.0	2.0	092_neutral	0.0		142.84834335094638	
20.0	119.25440469060959	fix	1.0		1185	32.0	male	white	2.389176283326701	neutral	092	sub-02	1.0	2.0	092_neutral	0.0		143.09821928790916	10.016516382358532
20.0	119.7045059936645	pulse	1.0	t		32.0	male	white	2.389176283326701	neutral	092	sub-02	1.0	2.0	092_neutral	0.0		143.54832059096407	
20.0	120.40449772279499	pulse	1.0	t		32.0	male	white	2.389176283326701	neutral	092	sub-02	1.0	2.0	092_neutral	0.0		144.24831232009456	
20.0	121.10449216863526	pulse	1.0	t		32.0	male	white	2.389176283326701	neutral	092	sub-02	1.0	2.0	092_neutral	0.0		144.94830676593483	
20.0	121.80446789936832	pulse	1.0	t		32.0	male	white	2.389176283326701	neutral	092	sub-02	1.0	2.0	092_neutral	0.0		145.6482824966679	
20.0	122.50447019347848	pulse	1.0	t		32.0	male	white	2.389176283326701	neutral	092	sub-02	1.0	2.0	092_neutral	0.0		146.34828479077805	
20.0	123.20444290564774	pulse	1.0	t		32.0	male	white	2.389176283326701	neutral	092	sub-02	1.0	2.0	092_neutral	0.0		147.0482575029473	
20.0	123.90445365174128	pulse	1.0	t		32.0	male	white	2.389176283326701	neutral	092	sub-02	1.0	2.0	092_neutral	0.0		147.74826824904085	
20.0	124.60443753260188	pulse	1.0	t		32.0	male	white	2.389176283326701	neutral	092	sub-02	1.0	2.0	092_neutral	0.0		148.44825212990145	
20.0	125.30442171531831	pulse	1.0	t		32.0	male	white	2.389176283326701	neutral	092	sub-02	1.0	2.0	092_neutral	0.0		149.14823631261788	
20.0	126.00442642428061	pulse	1.0	t		32.0	male	white	2.389176283326701	neutral	092	sub-02	1.0	2.0	092_neutral	0.0		149.84824102158018	
20.0	126.70441392742032	pulse	1.0	t		32.0	male	white	2.389176283326701	neutral	092	sub-02	1.0	2.0	092_neutral	0.0		150.5482285247199	
20.0	127.40441893823845	pulse	1.0	t		32.0	male	white	2.389176283326701	neutral	092	sub-02	1.0	2.0	092_neutral	0.0		151.24823353553802	
20.0	128.1044103655131	pulse	1.0	t		32.0	male	white	2.389176283326701	neutral	092	sub-02	1.0	2.0	092_neutral	0.0		151.94822496281267	
20.0	128.804384888821	pulse	1.0	t		32.0	male	white	2.389176283326701	neutral	092	sub-02	1.0	2.0	092_neutral	0.0		152.64819948612057	
21.0	129.27092107296812	face	0.0		145	31.0	female	west_asian	2.364902506963788	smiling	006	sub-02	1.0	2.0	006_smiling	1.0	dominance	153.1147356702677	1.2333172946891864
21.0	129.50437963651711	pulse	0.0	t		31.0	female	west_asian	2.364902506963788	smiling	006	sub-02	1.0	2.0	006_smiling	1.0	dominance	153.34819423381668	
21.0	130.20435234868637	pulse	0.0	t		31.0	female	west_asian	2.364902506963788	smiling	006	sub-02	1.0	2.0	006_smiling	1.0	dominance	154.04816694598594	
21.0	130.5042383676573	fix	1.0		177	31.0	female	west_asian	2.364902506963788	smiling	006	sub-02	1.0	2.0	006_smiling	1.0	dominance	154.34805296495688	1.4999915480166237
21.0	130.9043609817836	pulse	1.0	t		31.0	female	west_asian	2.364902506963788	smiling	006	sub-02	1.0	2.0	006_smiling	1.0	dominance	154.74817557908318	
21.0	131.60433912737062	pulse	1.0	t		31.0	female	west_asian	2.364902506963788	smiling	006	sub-02	1.0	2.0	006_smiling	1.0	dominance	155.4481537246702	
21.0	132.00422991567393	rating	2.0		294	31.0	female	west_asian	2.364902506963788	smiling	006	sub-02	1.0	2.0	006_smiling	1.0	dominance	155.8480445129735	2.499960758650559
21.0	132.29905410235187	pulse	2.0	t		31.0	female	west_asian	2.364902506963788	smiling	006	sub-02	1.0	2.0	006_smiling	1.0	dominance	156.14286869965144	
21.0	132.99931991722042	pulse	2.0	t		31.0	female	west_asian	2.364902506963788	smiling	006	sub-02	1.0	2.0	006_smiling	1.0	dominance	156.84313451452	
21.0	133.47098645509504	response	2.0	w		31.0	female	west_asian	2.364902506963788	smiling	006	sub-02	1.0	2.0	006_smiling	1.0	dominance	157.3148010523946	
21.0	133.69904118289196	pulse	2.0	t		31.0	female	west_asian	2.364902506963788	smiling	006	sub-02	1.0	2.0	006_smiling	1.0	dominance	157.54285578019153	
21.0	134.40430302532695	pulse	2.0	t		31.0	female	west_asian	2.364902506963788	smiling	006	sub-02	1.0	2.0	006_smiling	1.0	dominance	158.24811762262652	
21.0	134.5041906743245	fix	3.0		444	31.0	female	west_asian	2.364902506963788	smiling	006	sub-02	1.0	2.0	006_smiling	1.0	dominance	158.34800527162406	3.7665984873365232
21.0	135.10428841547218	pulse	3.0	t		31.0	female	west_asian	2.364902506963788	smiling	006	sub-02	1.0	2.0	006_smiling	1.0	dominance	158.94810301277175	
21.0	135.80429372814615	pulse	3.0	t		31.0	female	west_asian	2.364902506963788	smiling	006	sub-02	1.0	2.0	006_smiling	1.0	dominance	159.64810832544572	
21.0	136.50427247744665	pulse	3.0	t		31.0	female	west_asian	2.364902506963788	smiling	006	sub-02	1.0	2.0	006_smiling	1.0	dominance	160.34808707474622	
21.0	137.20425122674533	pulse	3.0	t		31.0	female	west_asian	2.364902506963788	smiling	006	sub-02	1.0	2.0	006_smiling	1.0	dominance	161.0480658240449	
21.0	137.9042508041457	pulse	3.0	t		31.0	female	west_asian	2.364902506963788	smiling	006	sub-02	1.0	2.0	006_smiling	1.0	dominance	161.74806540144527	
22.0	138.270789161661	face	0.0		145	25.0	female	west_asian	2.6756864305610826	smiling	064	sub-02	1.0	2.0	064_smiling	0.0		162.11460375896058	1.2333293689498532
22.0	138.60426185209508	pulse	0.0	t		25.0	female	west_asian	2.6756864305610826	smiling	064	sub-02	1.0	2.0	064_smiling	0.0		162.44807644939465	
22.0	139.3042342624085	pulse	0.0	t		25.0	female	west_asian	2.6756864305610826	smiling	064	sub-02	1.0	2.0	064_smiling	0.0		163.14804885970807	
22.0	139.50411853061087	fix	1.0		444	25.0	female	west_asian	2.6756864305610826	smiling	064	sub-02	1.0	2.0	064_smiling	0.0		163.34793312791044	3.7582645301663433
22.0	140.00422991567393	pulse	1.0	t		25.0	female	west_asian	2.6756864305610826	smiling	064	sub-02	1.0	2.0	064_smiling	0.0		163.8480445129735	
22.0	140.70422345594488	pulse	1.0	t		25.0	female	west_asian	2.6756864305610826	smiling	064	sub-02	1.0	2.0	064_smiling	0.0		164.54803805324445	
22.0	141.40419133840805	pulse	1.0	t		25.0	female	west_asian	2.6756864305610826	smiling	064	sub-02	1.0	2.0	064_smiling	0.0		165.24800593570762	
22.0	142.10419091581025	pulse	1.0	t		25.0	female	west_asian	2.6756864305610826	smiling	064	sub-02	1.0	2.0	064_smiling	0.0		165.94800551310982	
22.0	142.8041859653622	pulse	1.0	t		25.0	female	west_asian	2.6756864305610826	smiling	064	sub-02	1.0	2.0	064_smiling	0.0		166.64800056266176	
23.0	143.2623830607772	face	0.0		146	34.0	male	white	2.651014723438122	neutral	121	sub-02	1.0	2.0	121_neutral	0.0		167.10619765807678	1.2416606094120652
23.0	143.50418705204538	pulse	0.0	t		34.0	male	white	2.651014723438122	neutral	121	sub-02	1.0	2.0	121_neutral	0.0		167.34800164934495	
23.0	144.20415916050115	pulse	0.0	t		34.0	male	white	2.651014723438122	neutral	121	sub-02	1.0	2.0	121_neutral	0.0		168.04797375780072	
23.0	144.50404367018928	fix	1.0		444	34.0	male	white	2.651014723438122	neutral	121	sub-02	1.0	2.0	121_neutral	0.0		168.34785826748885	3.7666015059021447
23.0	144.90415511562423	pulse	1.0	t		34.0	male	white	2.651014723438122	neutral	121	sub-02	1.0	2.0	121_neutral	0.0		168.7479697129238	
23.0	145.6041417131928	pulse	1.0	t		34.0	male	white	2.651014723438122	neutral	121	sub-02	1.0	2.0	121_neutral	0.0		169.44795631049237	
23.0	146.30411804764117	pulse	1.0	t		34.0	male	white	2.651014723438122	neutral	121	sub-02	1.0	2.0	121_neutral	0.0		170.14793264494074	
23.0	147.00412124732065	pulse	1.0	t		34.0	male	white	2.651014723438122	neutral	121	sub-02	1.0	2.0	121_neutral	0.0		170.84793584462022	
23.0	147.70411539130328	pulse	1.0	t		34.0	male	white	2.651014723438122	neutral	121	sub-02	1.0	2.0	121_neutral	0.0		171.54792998860285	
24.0	148.27064517609142	face	0.0		145	54.0	female	white	2.286908077994429	neutral	136	sub-02	1.0	2.0	136_neutral	0.0		172.114459773391	1.2333178984026745
24.0	148.4041038000123	pulse	0.0	t		54.0	female	white	2.286908077994429	neutral	136	sub-02	1.0	2.0	136_neutral	0.0		172.24791839731188	
24.0	149.1040882845864	pulse	0.0	t		54.0	female	white	2.286908077994429	neutral	136	sub-02	1.0	2.0	136_neutral	0.0		172.94790288188597	
24.0	149.5039630744941	fix	1.0		444	54.0	female	white	2.286908077994429	neutral	136	sub-02	1.0	2.0	136_neutral	0.0		173.34777767179366	3.7666090523161984
24.0	149.80408333413834	pulse	1.0	t		54.0	female	white	2.286908077994429	neutral	136	sub-02	1.0	2.0	136_neutral	0.0		173.6478979314379	
24.0	150.50405936672905	pulse	1.0	t		54.0	female	white	2.286908077994429	neutral	136	sub-02	1.0	2.0	136_neutral	0.0		174.34787396402862	
24.0	151.204052907	pulse	1.0	t		54.0	female	white	2.286908077994429	neutral	136	sub-02	1.0	2.0	136_neutral	0.0		175.04786750429957	
24.0	151.90410138516017	pulse	1.0	t		54.0	female	white	2.286908077994429	neutral	136	sub-02	1.0	2.0	136_neutral	0.0		175.74791598245974	
24.0	152.6040393838266	pulse	1.0	t		54.0	female	white	2.286908077994429	neutral	136	sub-02	1.0	2.0	136_neutral	0.0		176.44785398112617	
25.0	153.2705721268103	face	0.0		145	21.0	male	black	2.969757262236371	neutral	137	sub-02	1.0	2.0	137_neutral	0.0		177.11438672410986	1.2333160872622102
25.0	153.3040353389497	pulse	0.0	t		21.0	male	black	2.969757262236371	neutral	137	sub-02	1.0	2.0	137_neutral	0.0		177.14784993624926	
25.0	154.00402827550715	pulse	0.0	t		21.0	male	black	2.969757262236371	neutral	137	sub-02	1.0	2.0	137_neutral	0.0		177.84784287280672	
25.0	154.5038882140725	fix	1.0		443	21.0	male	black	2.969757262236371	neutral	137	sub-02	1.0	2.0	137_neutral	0.0		178.34770281137207	3.7666108634548436
25.0	154.7039979691108	pulse	1.0	t		21.0	male	black	2.969757262236371	neutral	137	sub-02	1.0	2.0	137_neutral	0.0		178.54781256641036	
25.0	155.40400177250194	pulse	1.0	t		21.0	male	black	2.969757262236371	neutral	137	sub-02	1.0	2.0	137_neutral	0.0		179.2478163698015	
25.0	156.1039678438283	pulse	1.0	t		21.0	male	black	2.969757262236371	neutral	137	sub-02	1.0	2.0	137_neutral	0.0		179.94778244112786	
25.0	156.804003040299	pulse	1.0	t		21.0	male	black	2.969757262236371	neutral	137	sub-02	1.0	2.0	137_neutral	0.0		180.64781763759856	
25.0	157.50394737795432	pulse	1.0	t		21.0	male	black	2.969757262236371	neutral	137	sub-02	1.0	2.0	137_neutral	0.0		181.3477619752539	
25.0	158.20394303121975	pulse	1.0	t		21.0	male	black	2.969757262236371	neutral	137	sub-02	1.0	2.0	137_neutral	0.0		182.04775762851932	
26.0	158.27049907752735	face	0.0		146	31.0	female	white	2.1822522881018704	neutral	102	sub-02	1.0	2.0	102_neutral	1.0	dominance	182.11431367482692	1.233328161524696
26.0	158.9039712849917	pulse	0.0	t		31.0	female	white	2.1822522881018704	neutral	102	sub-02	1.0	2.0	102_neutral	1.0	dominance	182.74778588229128	
26.0	159.50382723905204	fix	1.0		177	31.0	female	white	2.1822522881018704	neutral	102	sub-02	1.0	2.0	102_neutral	1.0	dominance	183.3476418363516	1.4999785681848152
26.0	159.60394037488186	pulse	1.0	t		31.0	female	white	2.1822522881018704	neutral	102	sub-02	1.0	2.0	102_neutral	1.0	dominance	183.44775497218143	
26.0	160.30392757616573	pulse	1.0	t		31.0	female	white	2.1822522881018704	neutral	102	sub-02	1.0	2.0	102_neutral	1.0	dominance	184.1477421734653	
26.0	161.00380580723686	rating	2.0		294	31.0	female	white	2.1822522881018704	neutral	102	sub-02	1.0	2.0	102_neutral	1.0	dominance	184.84762040453643	2.499952004811348
26.0	160.99887981038592	pulse	2.0	t		31.0	female	white	2.1822522881018704	neutral	102	sub-02	1.0	2.0	102_neutral	1.0	dominance	184.84269440768549	
26.0	161.69868106804097	pulse	2.0	t		31.0	female	white	2.1822522881018704	neutral	102	sub-02	1.0	2.0	102_neutral	1.0	dominance	185.54249566534054	
26.0	162.081977896858	response	2.0	w		31.0	female	white	2.1822522881018704	neutral	102	sub-02	1.0	2.0	102_neutral	1.0	dominance	185.92579249415758	
26.0	162.40389068929653	pulse	2.0	t		31.0	female	white	2.1822522881018704	neutral	102	sub-02	1.0	2.0	102_neutral	1.0	dominance	186.2477052865961	
26.0	163.10387457015713	pulse	2.0	t		31.0	female	white	2.1822522881018704	neutral	102	sub-02	1.0	2.0	102_neutral	1.0	dominance	186.9476891674567	
26.0	163.5037578120482	fix	3.0		444	31.0	female	white	2.1822522881018704	neutral	102	sub-02	1.0	2.0	102_neutral	1.0	dominance	187.34757240934778	3.7665870167875255
26.0	163.80386629928762	pulse	3.0	t		31.0	female	white	2.1822522881018704	neutral	102	sub-02	1.0	2.0	102_neutral	1.0	dominance	187.6476808965872	
26.0	164.5038535005715	pulse	3.0	t		31.0	female	white	2.1822522881018704	neutral	102	sub-02	1.0	2.0	102_neutral	1.0	dominance	188.34766809787106	
26.0	165.20383617400512	pulse	3.0	t		31.0	female	white	2.1822522881018704	neutral	102	sub-02	1.0	2.0	102_neutral	1.0	dominance	189.0476507713047	
26.0	165.90382880870493	pulse	3.0	t		31.0	female	white	2.1822522881018704	neutral	102	sub-02	1.0	2.0	102_neutral	1.0	dominance	189.7476434060045	
26.0	166.60382446197218	pulse	3.0	t		31.0	female	white	2.1822522881018704	neutral	102	sub-02	1.0	2.0	102_neutral	1.0	dominance	190.44763905927175	
27.0	167.27034482883573	face	0.0		145	28.0	male	east_asian	1.5563072025467568	smiling	005	sub-02	1.0	2.0	005_smiling	0.0		191.1141594261353	1.2333396320736938
27.0	167.30383822662952	pulse	0.0	t		28.0	male	east_asian	1.5563072025467568	smiling	005	sub-02	1.0	2.0	005_smiling	0.0		191.1476528239291	
27.0	168.00381637221653	pulse	0.0	t		28.0	male	east_asian	1.5563072025467568	smiling	005	sub-02	1.0	2.0	005_smiling	0.0		191.8476309695161	
27.0	168.50368446090943	fix	1.0		443	28.0	male	east_asian	1.5563072025467568	smiling	005	sub-02	1.0	2.0	005_smiling	0.0		192.347499058209	3.758370481811653
27.0	168.7037848583932	pulse	1.0	t		28.0	male	east_asian	1.5563072025467568	smiling	005	sub-02	1.0	2.0	005_smiling	0.0		192.54759945569276	
27.0	169.40380345275662	pulse	1.0	t		28.0	male	east_asian	1.5563072025467568	smiling	005	sub-02	1.0	2.0	005_smiling	0.0		193.2476180500562	
27.0	170.1037864280479	pulse	1.0	t		28.0	male	east_asian	1.5563072025467568	smiling	005	sub-02	1.0	2.0	005_smiling	0.0		193.94760102534747	
27.0	170.80375853650366	pulse	1.0	t		28.0	male	east_asian	1.5563072025467568	smiling	005	sub-02	1.0	2.0	005_smiling	0.0		194.64757313380323	
27.0	171.50376083061383	pulse	1.0	t		28.0	male	east_asian	1.5563072025467568	smiling	005	sub-02	1.0	2.0	005_smiling	0.0		195.3475754279134	
27.0	172.20373535392173	pulse	1.0	t		28.0	male	east_asian	1.5563072025467568	smiling	005	sub-02	1.0	2.0	005_smiling	0.0		196.0475499512213	
28.0	172.26205494272108	face	0.0		147	27.0	female	white	3.504576203740549	smiling	144	sub-02	1.0	2.0	144_smiling	0.0		196.10586954002065	1.2415600911845104
28.0	172.90373674246075	pulse	0.0	t		27.0	female	white	3.504576203740549	smiling	144	sub-02	1.0	2.0	144_smiling	0.0		196.74755133976032	
28.0	173.5036150339056	fix	1.0		443	27.0	female	white	3.504576203740549	smiling	144	sub-02	1.0	2.0	144_smiling	0.0		197.34742963120516	3.7666057318929234
28.0	173.6037230381753	pulse	1.0	t		27.0	female	white	3.504576203740549	smiling	144	sub-02	1.0	2.0	144_smiling	0.0		197.44753763547487	
28.0	174.30371295616715	pulse	1.0	t		27.0	female	white	3.504576203740549	smiling	144	sub-02	1.0	2.0	144_smiling	0.0		198.14752755346672	
28.0	175.00371464656382	pulse	1.0	t		27.0	female	white	3.504576203740549	smiling	144	sub-02	1.0	2.0	144_smiling	0.0		198.8475292438634	
28.0	175.70370728126363	pulse	1.0	t		27.0	female	white	3.504576203740549	smiling	144	sub-02	1.0	2.0	144_smiling	0.0		199.5475218785632	
28.0	176.4036908602684	pulse	1.0	t		27.0	female	white	3.504576203740549	smiling	144	sub-02	1.0	2.0	144_smiling	0.0		200.24750545756797	
28.0	177.10368379682404	pulse	1.0	t		27.0	female	white	3.504576203740549	smiling	144	sub-02	1.0	2.0	144_smiling	0.0		200.9474983941236	
29.0	177.2702207657985	face	0.0		146	36.0	female	white	2.7548746518105847	neutral	011	sub-02	1.0	2.0	011_neutral	0.0		201.11403536309808	1.2333254448167281
29.0	177.80366556469016	pulse	0.0	t		36.0	female	white	2.7548746518105847	neutral	011	sub-02	1.0	2.0	011_neutral	0.0		201.64748016198973	
29.0	178.50354621061524	fix	1.0		444	36.0	female	white	2.7548746518105847	neutral	011	sub-02	1.0	2.0	011_neutral	0.0		202.3473608079148	3.7582590967485885
29.0	178.51116506964536	pulse	1.0	t		36.0	female	white	2.7548746518105847	neutral	011	sub-02	1.0	2.0	011_neutral	0.0		202.35497966694493	
29.0	179.20364026911193	pulse	1.0	t		36.0	female	white	2.7548746518105847	neutral	011	sub-02	1.0	2.0	011_neutral	0.0		203.0474548664115	
29.0	179.90362867782096	pulse	1.0	t		36.0	female	white	2.7548746518105847	neutral	011	sub-02	1.0	2.0	011_neutral	0.0		203.74744327512053	
29.0	180.60362131252077	pulse	1.0	t		36.0	female	white	2.7548746518105847	neutral	011	sub-02	1.0	2.0	011_neutral	0.0		204.44743590982034	
29.0	181.30360851380465	pulse	1.0	t		36.0	female	white	2.7548746518105847	neutral	011	sub-02	1.0	2.0	011_neutral	0.0		205.14742311110422	
29.0	182.0035936020904	pulse	1.0	t		36.0	female	white	2.7548746518105847	neutral	011	sub-02	1.0	2.0	011_neutral	0.0		205.84740819938997	
30.0	182.26180530736383	face	0.0		146	31.0	male	west_asian	1.9538400318344609	smiling	070	sub-02	1.0	2.0	070_smiling	0.0		206.1056199046634	1.2416738910997083
30.0	182.7035895572135	pulse	0.0	t		31.0	male	west_asian	1.9538400318344609	smiling	070	sub-02	1.0	2.0	070_smiling	0.0		206.54740415451306	
30.0	183.40357736220903	pulse	0.0	t		31.0	male	west_asian	1.9538400318344609	smiling	070	sub-02	1.0	2.0	070_smiling	0.0		207.2473919595086	
30.0	183.50347919846354	fix	1.0		444	31.0	male	west_asian	1.9538400318344609	smiling	070	sub-02	1.0	2.0	070_smiling	0.0		207.3472937957631	3.7665858093605493
30.0	184.10357663775358	pulse	1.0	t		31.0	male	west_asian	1.9538400318344609	smiling	070	sub-02	1.0	2.0	070_smiling	0.0		207.94739123505315	
30.0	184.80355599076574	pulse	1.0	t		31.0	male	west_asian	1.9538400318344609	smiling	070	sub-02	1.0	2.0	070_smiling	0.0		208.64737058806531	
30.0	185.50356915171142	pulse	1.0	t		31.0	male	west_asian	1.9538400318344609	smiling	070	sub-02	1.0	2.0	070_smiling	0.0		209.347383749011	
30.0	186.2035349211801	pulse	1.0	t		31.0	male	west_asian	1.9538400318344609	smiling	070	sub-02	1.0	2.0	070_smiling	0.0		210.04734951847968	
30.0	186.90355653410734	pulse	1.0	t		31.0	male	west_asian	1.9538400318344609	smiling	070	sub-02	1.0	2.0	070_smiling	0.0		210.7473711314069	
31.0	187.2700650078241	face	0.0		145	24.0	male	white	3.1153999204138483	neutral	012	sub-02	1.0	2.0	012_neutral	0.0		211.11387960512366	1.2333287652381841
31.0	187.60353558526367	pulse	0.0	t		24.0	male	white	3.1153999204138483	neutral	012	sub-02	1.0	2.0	012_neutral	0.0		211.44735018256324	
31.0	188.3035182586991	pulse	0.0	t		24.0	male	white	3.1153999204138483	neutral	012	sub-02	1.0	2.0	012_neutral	0.0		212.14733285599868	
31.0	188.50339377306227	fix	1.0		444	24.0	male	white	3.1153999204138483	neutral	012	sub-02	1.0	2.0	012_neutral	0.0		212.34720837036184	3.7666090523161984
31.0	189.00350093213456	pulse	1.0	t		24.0	male	white	3.1153999204138483	neutral	012	sub-02	1.0	2.0	012_neutral	0.0		212.84731552943413	
31.0	189.70347334244616	pulse	1.0	t		24.0	male	white	3.1153999204138483	neutral	012	sub-02	1.0	2.0	012_neutral	0.0		213.54728793974573	
31.0	190.4034720142772	pulse	1.0	t		24.0	male	white	3.1153999204138483	neutral	012	sub-02	1.0	2.0	012_neutral	0.0		214.24728661157678	
31.0	191.10347943994748	pulse	1.0	t		24.0	male	white	3.1153999204138483	neutral	012	sub-02	1.0	2.0	012_neutral	0.0		214.94729403724705	
31.0	191.80345094469158	pulse	1.0	t		24.0	male	white	3.1153999204138483	neutral	012	sub-02	1.0	2.0	012_neutral	0.0		215.64726554199115	
32.0	192.27000282537847	face	0.0		145	27.0	female	white	4.181058495821727	neutral	039	sub-02	1.0	2.0	039_neutral	0.0		216.11381742267804	1.2333260485283972
32.0	192.50345414437106	pulse	0.0	t		27.0	female	white	4.181058495821727	neutral	039	sub-02	1.0	2.0	039_neutral	0.0		216.34726874167063	
32.0	193.20343440295255	pulse	0.0	t		27.0	female	white	4.181058495821727	neutral	039	sub-02	1.0	2.0	039_neutral	0.0		217.04724900025212	
32.0	193.50332887390687	fix	1.0		444	27.0	female	white	4.181058495821727	neutral	039	sub-02	1.0	2.0	039_neutral	0.0		217.34714347120644	3.7666002984751685
32.0	193.90342945250632	pulse	1.0	t		27.0	female	white	4.181058495821727	neutral	039	sub-02	1.0	2.0	039_neutral	0.0		217.7472440498059	
32.0	194.6034175593577	pulse	1.0	t		27.0	female	white	4.181058495821727	neutral	039	sub-02	1.0	2.0	039_neutral	0.0		218.44723215665726	
32.0	195.30340415692808	pulse	1.0	t		27.0	female	white	4.181058495821727	neutral	039	sub-02	1.0	2.0	039_neutral	0.0		219.14721875422765	
32.0	196.00340675289408	pulse	1.0	t		27.0	female	white	4.181058495821727	neutral	039	sub-02	1.0	2.0	039_neutral	0.0		219.84722135019365	
32.0	196.70339184118166	pulse	1.0	t		27.0	female	white	4.181058495821727	neutral	039	sub-02	1.0	2.0	039_neutral	0.0		220.54720643848123	
33.0	197.26992917238204	face	0.0		145	20.0	female	white	3.9502586549940313	neutral	091	sub-02	1.0	2.0	091_neutral	0.0		221.1137437696816	1.2333172946891864
33.0	197.40338115546	pulse	0.0	t		20.0	female	white	3.9502586549940313	neutral	091	sub-02	1.0	2.0	091_neutral	0.0		221.24719575275958	
33.0	198.10337620501195	pulse	0.0	t		20.0	female	white	3.9502586549940313	neutral	091	sub-02	1.0	2.0	091_neutral	0.0		221.94719080231152	
33.0	198.50324646707122	fix	1.0		444	20.0	female	white	3.9502586549940313	neutral	091	sub-02	1.0	2.0	091_neutral	0.0		222.3470610643708	3.766607844889222
33.0	198.80336793414244	pulse	1.0	t		20.0	female	white	3.9502586549940313	neutral	091	sub-02	1.0	2.0	091_neutral	0.0		222.647182531442	
33.0	199.50335181500304	pulse	1.0	t		20.0	female	white	3.9502586549940313	neutral	091	sub-02	1.0	2.0	091_neutral	0.0		223.3471664123026	
33.0	200.20332331974714	pulse	1.0	t		20.0	female	white	3.9502586549940313	neutral	091	sub-02	1.0	2.0	091_neutral	0.0		224.0471379170467	
33.0	200.90332108600887	pulse	1.0	t		20.0	female	white	3.9502586549940313	neutral	091	sub-02	1.0	2.0	091_neutral	0.0		224.74713568330844	
33.0	201.6033360580932	pulse	1.0	t		20.0	female	white	3.9502586549940313	neutral	091	sub-02	1.0	2.0	091_neutral	0.0		225.44715065539276	
34.0	202.26985431196044	face	0.0		145	24.0	female	east_asian	2.9076800636689217	neutral	034	sub-02	1.0	2.0	034_neutral	0.0		226.11366890926	1.2333345005117735
34.0	202.3033208445231	pulse	0.0	t		24.0	female	east_asian	2.9076800636689217	neutral	034	sub-02	1.0	2.0	034_neutral	0.0		226.14713544182268	
34.0	203.00329717896966	pulse	0.0	t		24.0	female	east_asian	2.9076800636689217	neutral	034	sub-02	1.0	2.0	034_neutral	0.0		226.84711177626923	
34.0	203.50318881247222	fix	1.0		443	24.0	female	east_asian	2.9076800636689217	neutral	034	sub-02	1.0	2.0	034_neutral	0.0		227.3470034097718	3.7665951669150672
34.0	203.7032970582277	pulse	1.0	t		24.0	female	east_asian	2.9076800636689217	neutral	034	sub-02	1.0	2.0	034_neutral	0.0		227.54711165552726	
34.0	204.4032830520846	pulse	1.0	t		24.0	female	east_asian	2.9076800636689217	neutral	034	sub-02	1.0	2.0	034_neutral	0.0		228.24709764938416	
34.0	205.10326542366238	pulse	1.0	t		24.0	female	east_asian	2.9076800636689217	neutral	034	sub-02	1.0	2.0	034_neutral	0.0		228.94708002096195	
34.0	205.80325866207568	pulse	1.0	t		24.0	female	east_asian	2.9076800636689217	neutral	034	sub-02	1.0	2.0	034_neutral	0.0		229.64707325937525	
34.0	206.50325763576438	pulse	1.0	t		24.0	female	east_asian	2.9076800636689217	neutral	034	sub-02	1.0	2.0	034_neutral	0.0		230.34707223306395	
34.0	207.20323246092812	pulse	1.0	t		24.0	female	east_asian	2.9076800636689217	neutral	034	sub-02	1.0	2.0	034_neutral	0.0		231.0470470582277	
35.0	207.26978397938728	face	0.0		146	26.0	female	white	4.854755272582572	smiling	027	sub-02	1.0	2.0	027_smiling	0.0		231.11359857668685	1.2333326893731282
35.0	207.9032247937721	pulse	0.0	t		26.0	female	white	4.854755272582572	smiling	027	sub-02	1.0	2.0	027_smiling	0.0		231.74703939107167	
35.0	208.5031166687604	fix	1.0		443	26.0	female	white	4.854755272582572	smiling	027	sub-02	1.0	2.0	027_smiling	0.0		232.34693126605998	3.7583885932035628
35.0	208.60321652290258	pulse	1.0	t		26.0	female	white	4.854755272582572	smiling	027	sub-02	1.0	2.0	027_smiling	0.0		232.44703112020215	
35.0	209.30321217616984	pulse	1.0	t		26.0	female	white	4.854755272582572	smiling	027	sub-02	1.0	2.0	027_smiling	0.0		233.1470267734694	
35.0	210.0032014904482	pulse	1.0	t		26.0	female	white	4.854755272582572	smiling	027	sub-02	1.0	2.0	027_smiling	0.0		233.84701608774776	
35.0	210.70317480632912	pulse	1.0	t		26.0	female	white	4.854755272582572	smiling	027	sub-02	1.0	2.0	027_smiling	0.0		234.5469894036287	
35.0	211.40317619486996	pulse	1.0	t		26.0	female	white	4.854755272582572	smiling	027	sub-02	1.0	2.0	027_smiling	0.0		235.24699079216953	
35.0	212.10316581100415	pulse	1.0	t		26.0	female	white	4.854755272582572	smiling	027	sub-02	1.0	2.0	027_smiling	0.0		235.94698040830372	
36.0	212.26150526196398	face	0.0		147	31.0	female	white	2.1822522881018704	smiling	102	sub-02	1.0	2.0	102_smiling	0.0		236.10531985926355	1.241517831269448
36.0	212.80317716081117	pulse	0.0	t		31.0	female	white	2.1822522881018704	smiling	102	sub-02	1.0	2.0	102_smiling	0.0		236.64699175811074	
36.0	213.50302309323342	fix	1.0		444	31.0	female	white	2.1822522881018704	smiling	102	sub-02	1.0	2.0	102_smiling	0.0		237.346837690533	3.7582440039223
36.0	213.5107237553857	pulse	1.0	t		31.0	female	white	2.1822522881018704	smiling	102	sub-02	1.0	2.0	102_smiling	0.0		237.35453835268527	
36.0	214.2031099071737	pulse	1.0	t		31.0	female	white	2.1822522881018704	smiling	102	sub-02	1.0	2.0	102_smiling	0.0		238.04692450447328	
36.0	214.90311914398444	pulse	1.0	t		31.0	female	white	2.1822522881018704	smiling	102	sub-02	1.0	2.0	102_smiling	0.0		238.746933741284	
36.0	215.60310030813525	pulse	1.0	t		31.0	female	white	2.1822522881018704	smiling	102	sub-02	1.0	2.0	102_smiling	0.0		239.44691490543482	
36.0	216.30308600013632	pulse	1.0	t		31.0	female	white	2.1822522881018704	smiling	102	sub-02	1.0	2.0	102_smiling	0.0		240.1469005974359	
36.0	217.00309463323356	pulse	1.0	t		31.0	female	white	2.1822522881018704	smiling	102	sub-02	1.0	2.0	102_smiling	0.0		240.84690923053313	
37.0	217.26126709715572	face	0.0		146	19.0	female	white	4.298846000795861	smiling	100	sub-02	1.0	2.0	100_smiling	0.0		241.1050816944553	1.2416838523640763
37.0	217.70307126953776	pulse	0.0	t		19.0	female	white	4.298846000795861	smiling	100	sub-02	1.0	2.0	100_smiling	0.0		241.54688586683733	
37.0	218.403068432086	pulse	0.0	t		19.0	female	white	4.298846000795861	smiling	100	sub-02	1.0	2.0	100_smiling	0.0		242.24688302938557	
37.0	218.5029509495198	fix	1.0		444	19.0	female	white	4.298846000795861	smiling	100	sub-02	1.0	2.0	100_smiling	0.0		242.34676554681937	3.7582856601256935
37.0	219.1030610667858	pulse	1.0	t		19.0	female	white	4.298846000795861	smiling	100	sub-02	1.0	2.0	100_smiling	0.0		242.94687566408538	
37.0	219.8030627571825	pulse	1.0	t		19.0	female	white	4.298846000795861	smiling	100	sub-02	1.0	2.0	100_smiling	0.0		243.64687735448206	
37.0	220.5030294322205	pulse	1.0	t		19.0	female	white	4.298846000795861	smiling	100	sub-02	1.0	2.0	100_smiling	0.0		244.34684402952007	
37.0	221.2030413857392	pulse	1.0	t		19.0	female	white	4.298846000795861	smiling	100	sub-02	1.0	2.0	100_smiling	0.0		245.04685598303877	
37.0	221.90302134246485	pulse	1.0	t		19.0	female	white	4.298846000795861	smiling	100	sub-02	1.0	2.0	100_smiling	0.0		245.74683593976442	
38.0	222.2612366096455	face	0.0		146	28.0	female	white	5.676880222841227	neutral	124	sub-02	1.0	2.0	124_neutral	0.0		246.10505120694506	1.241652157428689
38.0	222.6029825840851	pulse	0.0	t		28.0	female	white	5.676880222841227	neutral	124	sub-02	1.0	2.0	124_neutral	0.0		246.44679718138468	
38.0	223.3029966506001	pulse	0.0	t		28.0	female	white	5.676880222841227	neutral	124	sub-02	1.0	2.0	124_neutral	0.0		247.14681124789968	
38.0	223.50288876707418	fix	1.0		444	28.0	female	white	5.676880222841227	neutral	124	sub-02	1.0	2.0	124_neutral	0.0		247.34670336437375	3.758274793288365
38.0	224.00297811660857	pulse	1.0	t		28.0	female	white	5.676880222841227	neutral	124	sub-02	1.0	2.0	124_neutral	0.0		247.84679271390814	
38.0	224.7029785995801	pulse	1.0	t		28.0	female	white	5.676880222841227	neutral	124	sub-02	1.0	2.0	124_neutral	0.0		248.54679319687966	
38.0	225.4029718379934	pulse	1.0	t		28.0	female	white	5.676880222841227	neutral	124	sub-02	1.0	2.0	124_neutral	0.0		249.24678643529296	
38.0	226.1029608504159	pulse	1.0	t		28.0	female	white	5.676880222841227	neutral	124	sub-02	1.0	2.0	124_neutral	0.0		249.94677544771548	
38.0	226.8029562018237	pulse	1.0	t		28.0	female	white	5.676880222841227	neutral	124	sub-02	1.0	2.0	124_neutral	0.0		250.64677079912326	
39.0	227.26116356036255	face	0.0		146	28.0	male	east_asian	1.5563072025467568	neutral	005	sub-02	1.0	2.0	005_neutral	0.0		251.10497815766212	1.2416479314379103
39.0	227.5029458179597	pulse	0.0	t		28.0	male	east_asian	1.5563072025467568	neutral	005	sub-02	1.0	2.0	005_neutral	0.0		251.34676041525927	
39.0	228.20292517097187	pulse	0.0	t		28.0	male	east_asian	1.5563072025467568	neutral	005	sub-02	1.0	2.0	005_neutral	0.0		252.04673976827144	
39.0	228.50281149180046	fix	1.0		444	28.0	male	east_asian	1.5563072025467568	neutral	005	sub-02	1.0	2.0	005_neutral	0.0		252.34662608910003	3.7499444583972945
39.0	228.9029178056735	pulse	1.0	t		28.0	male	east_asian	1.5563072025467568	neutral	005	sub-02	1.0	2.0	005_neutral	0.0		252.74673240297307	
39.0	229.60292583505725	pulse	1.0	t		28.0	male	east_asian	1.5563072025467568	neutral	005	sub-02	1.0	2.0	005_neutral	0.0		253.44674043235682	
39.0	230.30291937532638	pulse	1.0	t		28.0	male	east_asian	1.5563072025467568	neutral	005	sub-02	1.0	2.0	005_neutral	0.0		254.14673397262595	
39.0	231.00289993576553	pulse	1.0	t		28.0	male	east_asian	1.5563072025467568	neutral	005	sub-02	1.0	2.0	005_neutral	0.0		254.8467145330651	
39.0	231.70287023308265	pulse	1.0	t		28.0	male	east_asian	1.5563072025467568	neutral	005	sub-02	1.0	2.0	005_neutral	0.0		255.54668483038222	
40.0	232.25275595019775	fix	0.0		720													256.0965705474973	5.999921517299299
40.0	232.4028761494701	pulse	0.0	t														256.2466907467697	
40.0	233.1028585210479	pulse	0.0	t														256.94667311834746	
40.0	233.802851759463	pulse	0.0	t														257.6466663567626	
40.0	234.50283835703158	pulse	0.0	t														258.34665295433115	
40.0	235.20282706759644	pulse	0.0	t														259.046641664896	
40.0	235.90281155217053	pulse	0.0	t														259.7466261494701	
40.0	236.60280147016238	pulse	0.0	t														260.44661606746195	
40.0	237.30280376427254	pulse	0.0	t														261.1466183615721	
40.0	238.00279700268584	pulse	0.0	t														261.8466115999854	
