trial_nr	onset	event_type	phase	response	nr_frames	face_age	face_sex	face_eth	attractiveness	expression	face_id	sub_id	ses	run	trial_type	catch	rating_type	onset_abs	duration
-1.0	0.05945332283272364	fix	0.0		713													125.84315684587045	5.957967019947773
-1.0	0.7009663277945037	pulse	0.0	t														126.48466985083223	
-1.0	1.4009419681115105	pulse	0.0	t														127.18464549114924	
-1.0	2.100942360522822	pulse	0.0	t														127.88464588356055	
-1.0	2.8009339991444904	pulse	0.0	t														128.58463752218222	
-1.0	3.500912658009838	pulse	0.0	t														129.28461618104757	
-1.0	4.200886185343279	pulse	0.0	t														129.984589708381	
-1.0	4.900874805417061	pulse	0.0	t														130.6845783284548	
-1.0	5.6008679533129	pulse	0.0	t														131.38457147635063	
0.0	6.017420342780497	face	0.0		143	27.0	female	white	4.181058495821727	neutral	039	sub-11	1.0	1.0	039_neutral	0.0		131.80112386581823	1.2332999582531556
0.0	6.3008556678219065	pulse	0.0	t		27.0	female	white	4.181058495821727	neutral	039	sub-11	1.0	1.0	039_neutral	0.0		132.08455919085964	
0.0	7.000838854509311	pulse	0.0	t		27.0	female	white	4.181058495821727	neutral	039	sub-11	1.0	1.0	039_neutral	0.0		132.78454237754704	
0.0	7.008596221200605	response	0.0	g		27.0	female	white	4.181058495821727	neutral	039	sub-11	1.0	1.0	039_neutral	0.0		132.79229974423833	
0.0	7.2507203010336525	fix	1.0		445	27.0	female	white	4.181058495821727	neutral	039	sub-11	1.0	1.0	039_neutral	0.0		133.03442382407138	3.7665895628870203
0.0	7.7008160041004885	pulse	1.0	t		27.0	female	white	4.181058495821727	neutral	039	sub-11	1.0	1.0	039_neutral	0.0		133.48451952713822	
0.0	8.400807039012761	pulse	1.0	t		27.0	female	white	4.181058495821727	neutral	039	sub-11	1.0	1.0	039_neutral	0.0		134.1845105620505	
0.0	9.100792036828807	pulse	1.0	t		27.0	female	white	4.181058495821727	neutral	039	sub-11	1.0	1.0	039_neutral	0.0		134.88449555986654	
0.0	9.800771903112945	pulse	1.0	t		27.0	female	white	4.181058495821727	neutral	039	sub-11	1.0	1.0	039_neutral	0.0		135.58447542615068	
0.0	10.500762636170748	pulse	1.0	t		27.0	female	white	4.181058495821727	neutral	039	sub-11	1.0	1.0	039_neutral	0.0		136.28446615920848	
1.0	11.017309863920673	face	0.0		145	20.0	male	black	3.1070433744528456	smiling	082	sub-11	1.0	1.0	082_smiling	0.0		136.8010133869584	1.2333078064784786
1.0	11.200753369228096	pulse	0.0	t		20.0	male	black	3.1070433744528456	smiling	082	sub-11	1.0	1.0	082_smiling	0.0		136.98445689226583	
1.0	11.900731122528668	pulse	0.0	t		20.0	male	black	3.1070433744528456	smiling	082	sub-11	1.0	1.0	082_smiling	0.0		137.6844346455664	
1.0	12.250617670399151	fix	1.0		445	20.0	male	black	3.1070433744528456	smiling	082	sub-11	1.0	1.0	082_smiling	0.0		138.03432119343688	3.7665880536133045
1.0	12.600721251876621	pulse	1.0	t		20.0	male	black	3.1070433744528456	smiling	082	sub-11	1.0	1.0	082_smiling	0.0		138.38442477491435	
1.0	13.300722549852253	pulse	1.0	t		20.0	male	black	3.1070433744528456	smiling	082	sub-11	1.0	1.0	082_smiling	0.0		139.08442607288998	
1.0	14.000703321700712	pulse	1.0	t		20.0	male	black	3.1070433744528456	smiling	082	sub-11	1.0	1.0	082_smiling	0.0		139.78440684473844	
1.0	14.7006970733064	pulse	1.0	t		20.0	male	black	3.1070433744528456	smiling	082	sub-11	1.0	1.0	082_smiling	0.0		140.48440059634413	
1.0	15.400659130157237	pulse	1.0	t		20.0	male	black	3.1070433744528456	smiling	082	sub-11	1.0	1.0	082_smiling	0.0		141.18436265319497	
2.0	16.017205724012456	face	0.0		144	22.0	male	black	2.767608436132113	smiling	044	sub-11	1.0	1.0	044_smiling	0.0		141.80090924705019	1.2333102213169695
2.0	16.100656805875133	pulse	0.0	t		22.0	male	black	2.767608436132113	smiling	044	sub-11	1.0	1.0	044_smiling	0.0		141.88436032891286	
2.0	16.800636974014196	pulse	0.0	t		22.0	male	black	2.767608436132113	smiling	044	sub-11	1.0	1.0	044_smiling	0.0		142.58434049705193	
2.0	17.092288183199344	response	0.0	y		22.0	male	black	2.767608436132113	smiling	044	sub-11	1.0	1.0	044_smiling	0.0		142.87599170623707	
2.0	17.250515945329425	fix	1.0		445	22.0	male	black	2.767608436132113	smiling	044	sub-11	1.0	1.0	044_smiling	0.0		143.03421946836716	3.7583407765696393
2.0	17.50061925513728	pulse	1.0	t		22.0	male	black	2.767608436132113	smiling	044	sub-11	1.0	1.0	044_smiling	0.0		143.284322778175	
2.0	18.200613006742515	pulse	1.0	t		22.0	male	black	2.767608436132113	smiling	044	sub-11	1.0	1.0	044_smiling	0.0		143.98431652978024	
2.0	18.900596797139315	pulse	1.0	t		22.0	male	black	2.767608436132113	smiling	044	sub-11	1.0	1.0	044_smiling	0.0		144.68430032017704	
2.0	19.600600811808363	pulse	1.0	t		22.0	male	black	2.767608436132113	smiling	044	sub-11	1.0	1.0	044_smiling	0.0		145.3843043348461	
2.0	20.300559548256388	pulse	1.0	t		22.0	male	black	2.767608436132113	smiling	044	sub-11	1.0	1.0	044_smiling	0.0		146.08426307129412	
3.0	21.008856721899065	face	0.0		147	28.0	male	white	3.9076800636689217	neutral	033	sub-11	1.0	1.0	033_neutral	0.0		146.7925602449368	1.2415584039245005
3.0	21.00301039799251	pulse	0.0	t		28.0	male	white	3.9076800636689217	neutral	033	sub-11	1.0	1.0	033_neutral	0.0		146.78671392103024	
3.0	21.70054131622601	pulse	0.0	t		28.0	male	white	3.9076800636689217	neutral	033	sub-11	1.0	1.0	033_neutral	0.0		147.48424483926374	
3.0	22.250415125823565	fix	1.0		443	28.0	male	white	3.9076800636689217	neutral	033	sub-11	1.0	1.0	033_neutral	0.0		148.0341186488613	3.7665850350649634
3.0	22.400529030735015	pulse	1.0	t		28.0	male	white	3.9076800636689217	neutral	033	sub-11	1.0	1.0	033_neutral	0.0		148.18423255377274	
3.0	22.40070108797545	response	1.0	y		28.0	male	white	3.9076800636689217	neutral	033	sub-11	1.0	1.0	033_neutral	0.0		148.18440461101318	
3.0	23.10051040629378	pulse	1.0	t		28.0	male	white	3.9076800636689217	neutral	033	sub-11	1.0	1.0	033_neutral	0.0		148.8842139293315	
3.0	23.80048815959435	pulse	1.0	t		28.0	male	white	3.9076800636689217	neutral	033	sub-11	1.0	1.0	033_neutral	0.0		149.58419168263208	
3.0	24.500484326038077	pulse	1.0	t		28.0	male	white	3.9076800636689217	neutral	033	sub-11	1.0	1.0	033_neutral	0.0		150.2841878490758	
3.0	25.20046419232267	pulse	1.0	t		28.0	male	white	3.9076800636689217	neutral	033	sub-11	1.0	1.0	033_neutral	0.0		150.9841677153604	
3.0	25.90044617159083	pulse	1.0	t		28.0	male	white	3.9076800636689217	neutral	033	sub-11	1.0	1.0	033_neutral	0.0		151.68414969462856	
4.0	26.01700016088853	face	0.0		145	22.0	female	white	4.614007162753682	neutral	009	sub-11	1.0	1.0	009_neutral	0.0		151.80070368392626	1.23331173059114
4.0	26.600455015936404	pulse	0.0	t		22.0	female	white	4.614007162753682	neutral	009	sub-11	1.0	1.0	009_neutral	0.0		152.38415853897413	
4.0	27.100417435012787	response	0.0	g		22.0	female	white	4.614007162753682	neutral	009	sub-11	1.0	1.0	009_neutral	0.0		152.88412095805052	
4.0	27.25031189147967	fix	1.0		445	22.0	female	white	4.614007162753682	neutral	009	sub-11	1.0	1.0	009_neutral	0.0		153.0340154145174	3.7582511256919133
4.0	27.300411639400863	pulse	1.0	t		22.0	female	white	4.614007162753682	neutral	009	sub-11	1.0	1.0	009_neutral	0.0		153.0841151624386	
4.0	28.00040871140891	pulse	1.0	t		22.0	female	white	4.614007162753682	neutral	009	sub-11	1.0	1.0	009_neutral	0.0		153.78411223444664	
4.0	28.70039219995124	pulse	1.0	t		22.0	female	white	4.614007162753682	neutral	009	sub-11	1.0	1.0	009_neutral	0.0		154.48409572298897	
4.0	29.40037931075085	pulse	1.0	t		22.0	female	white	4.614007162753682	neutral	009	sub-11	1.0	1.0	009_neutral	0.0		155.18408283378858	
4.0	30.100358573325593	pulse	1.0	t		22.0	female	white	4.614007162753682	neutral	009	sub-11	1.0	1.0	009_neutral	0.0		155.88406209636332	
4.0	30.800353230495602	pulse	1.0	t		22.0	female	white	4.614007162753682	neutral	009	sub-11	1.0	1.0	009_neutral	0.0		156.58405675353333	
5.0	31.008563017171582	face	0.0		146	36.0	female	white	2.7548746518105847	neutral	011	sub-11	1.0	1.0	011_neutral	0.0		156.7922665402093	1.241646847382981
5.0	31.500347585810687	pulse	0.0	t		36.0	female	white	2.7548746518105847	neutral	011	sub-11	1.0	1.0	011_neutral	0.0		157.28405110884842	
5.0	32.20032111314413	pulse	0.0	t		36.0	female	white	2.7548746518105847	neutral	011	sub-11	1.0	1.0	011_neutral	0.0		157.98402463618186	
5.0	32.25020986455456	fix	1.0		445	36.0	female	white	2.7548746518105847	neutral	011	sub-11	1.0	1.0	011_neutral	0.0		158.0339133875923	3.7665886573227
5.0	32.30030900876636	response	1.0	g		36.0	female	white	2.7548746518105847	neutral	011	sub-11	1.0	1.0	011_neutral	0.0		158.0840125318041	
5.0	32.90030128128319	pulse	1.0	t		36.0	female	white	2.7548746518105847	neutral	011	sub-11	1.0	1.0	011_neutral	0.0		158.68400480432092	
5.0	33.60029895700109	pulse	1.0	t		36.0	female	white	2.7548746518105847	neutral	011	sub-11	1.0	1.0	011_neutral	0.0		159.38400248003882	
5.0	34.30027338989885	pulse	1.0	t		36.0	female	white	2.7548746518105847	neutral	011	sub-11	1.0	1.0	011_neutral	0.0		160.08397691293658	
5.0	35.000263217391876	pulse	1.0	t		36.0	female	white	2.7548746518105847	neutral	011	sub-11	1.0	1.0	011_neutral	0.0		160.7839667404296	
5.0	35.70025093190134	pulse	1.0	t		36.0	female	white	2.7548746518105847	neutral	011	sub-11	1.0	1.0	011_neutral	0.0		161.48395445493907	
6.0	36.01679852187726	face	0.0		144	19.0	male	white	2.243931555909272	smiling	130	sub-11	1.0	1.0	130_smiling	0.0		161.800502044915	1.2333072027690832
6.0	36.40023774084602	pulse	0.0	t		19.0	male	white	2.243931555909272	smiling	130	sub-11	1.0	1.0	130_smiling	0.0		162.18394126388375	
6.0	37.10023602027377	pulse	0.0	t		19.0	male	white	2.243931555909272	smiling	130	sub-11	1.0	1.0	130_smiling	0.0		162.8839395433115	
6.0	37.14186572230392	response	0.0	b		19.0	male	white	2.243931555909272	smiling	130	sub-11	1.0	1.0	130_smiling	0.0		162.92556924534165	
6.0	37.250105724646346	fix	1.0		445	19.0	male	white	2.243931555909272	smiling	130	sub-11	1.0	1.0	130_smiling	0.0		163.03380924768408	3.7665877517583795
6.0	37.80022645147665	pulse	1.0	t		19.0	male	white	2.243931555909272	smiling	130	sub-11	1.0	1.0	130_smiling	0.0		163.58392997451438	
6.0	38.50019635655235	pulse	1.0	t		19.0	male	white	2.243931555909272	smiling	130	sub-11	1.0	1.0	130_smiling	0.0		164.28389987959008	
6.0	39.20017139315951	pulse	1.0	t		19.0	male	white	2.243931555909272	smiling	130	sub-11	1.0	1.0	130_smiling	0.0		164.98387491619724	
6.0	39.90016091879761	pulse	1.0	t		19.0	male	white	2.243931555909272	smiling	130	sub-11	1.0	1.0	130_smiling	0.0		165.68386444183534	
6.0	40.60014833145215	pulse	1.0	t		19.0	male	white	2.243931555909272	smiling	130	sub-11	1.0	1.0	130_smiling	0.0		166.38385185448988	
7.0	41.016693476404726	face	0.0		144	47.0	male	east_asian	2.171110226820533	smiling	024	sub-11	1.0	1.0	024_smiling	0.0		166.80039699944246	1.2333141454291763
7.0	41.30014087563859	pulse	0.0	t		47.0	male	east_asian	2.171110226820533	smiling	024	sub-11	1.0	1.0	024_smiling	0.0		167.08384439867632	
7.0	42.00012376047107	pulse	0.0	t		47.0	male	east_asian	2.171110226820533	smiling	024	sub-11	1.0	1.0	024_smiling	0.0		167.7838272835088	
7.0	42.21676374820345	response	0.0	b		47.0	male	east_asian	2.171110226820533	smiling	024	sub-11	1.0	1.0	024_smiling	0.0		168.00046727124118	
7.0	42.2500076218339	fix	1.0		445	47.0	male	east_asian	2.171110226820533	smiling	024	sub-11	1.0	1.0	024_smiling	0.0		168.03371114487163	3.7583311172161302
7.0	42.700098495223756	pulse	1.0	t		47.0	male	east_asian	2.171110226820533	smiling	024	sub-11	1.0	1.0	024_smiling	0.0		168.48380201826149	
7.0	43.400090133845424	pulse	1.0	t		47.0	male	east_asian	2.171110226820533	smiling	024	sub-11	1.0	1.0	024_smiling	0.0		169.18379365688315	
7.0	44.100085696579754	pulse	1.0	t		47.0	male	east_asian	2.171110226820533	smiling	024	sub-11	1.0	1.0	024_smiling	0.0		169.88378921961748	
7.0	44.800058318348874	pulse	1.0	t		47.0	male	east_asian	2.171110226820533	smiling	024	sub-11	1.0	1.0	024_smiling	0.0		170.5837618413866	
7.0	45.500079236886904	pulse	1.0	t		47.0	male	east_asian	2.171110226820533	smiling	024	sub-11	1.0	1.0	024_smiling	0.0		171.28378275992463	
8.0	46.00833873905003	face	0.0		145	28.0	female	white	5.676880222841227	smiling	124	sub-11	1.0	1.0	124_smiling	0.0		171.79204226208776	1.2415659502944436
8.0	46.20003525664151	pulse	0.0	t		28.0	female	white	5.676880222841227	smiling	124	sub-11	1.0	1.0	124_smiling	0.0		171.98373877967924	
8.0	46.90001965074816	pulse	0.0	t		28.0	female	white	5.676880222841227	smiling	124	sub-11	1.0	1.0	124_smiling	0.0		172.6837231737859	
8.0	46.98333610536656	response	0.0	g		28.0	female	white	5.676880222841227	smiling	124	sub-11	1.0	1.0	124_smiling	0.0		172.7670396284043	
8.0	47.249904689344476	fix	1.0		445	28.0	female	white	5.676880222841227	smiling	124	sub-11	1.0	1.0	124_smiling	0.0		173.0336082123822	3.766584733210493
8.0	47.600006157837925	pulse	1.0	t		28.0	female	white	5.676880222841227	smiling	124	sub-11	1.0	1.0	124_smiling	0.0		173.38370968087565	
8.0	48.29999568347648	pulse	1.0	t		28.0	female	white	5.676880222841227	smiling	124	sub-11	1.0	1.0	124_smiling	0.0		174.0836992065142	
8.0	48.99997856830851	pulse	1.0	t		28.0	female	white	5.676880222841227	smiling	124	sub-11	1.0	1.0	124_smiling	0.0		174.78368209134624	
8.0	49.69997624402686	pulse	1.0	t		28.0	female	white	5.676880222841227	smiling	124	sub-11	1.0	1.0	124_smiling	0.0		175.4836797670646	
8.0	50.399944337973466	pulse	1.0	t		28.0	female	white	5.676880222841227	smiling	124	sub-11	1.0	1.0	124_smiling	0.0		176.1836478610112	
9.0	51.01648942255497	face	0.0		145	27.0	female	white	3.504576203740549	smiling	144	sub-11	1.0	1.0	144_smiling	0.0		176.8001929455927	1.233313541719781
9.0	51.09993869328855	pulse	0.0	t		27.0	female	white	3.504576203740549	smiling	144	sub-11	1.0	1.0	144_smiling	0.0		176.88364221632628	
9.0	51.799921276266105	pulse	0.0	t		27.0	female	white	3.504576203740549	smiling	144	sub-11	1.0	1.0	144_smiling	0.0		177.58362479930383	
9.0	52.24980296427475	fix	1.0		444	27.0	female	white	3.504576203740549	smiling	144	sub-11	1.0	1.0	144_smiling	0.0		178.03350648731248	3.766578394258886
9.0	52.483240870174996	response	1.0	y		27.0	female	white	3.504576203740549	smiling	144	sub-11	1.0	1.0	144_smiling	0.0		178.26694439321273	
9.0	52.49990084069577	pulse	1.0	t		27.0	female	white	3.504576203740549	smiling	144	sub-11	1.0	1.0	144_smiling	0.0		178.2836043637335	
9.0	53.199905459074216	pulse	1.0	t		27.0	female	white	3.504576203740549	smiling	144	sub-11	1.0	1.0	144_smiling	0.0		178.98360898211195	
9.0	53.8998744585856	pulse	1.0	t		27.0	female	white	3.504576203740549	smiling	144	sub-11	1.0	1.0	144_smiling	0.0		179.68357798162333	
9.0	54.5998639842237	pulse	1.0	t		27.0	female	white	3.504576203740549	smiling	144	sub-11	1.0	1.0	144_smiling	0.0		180.38356750726143	
9.0	55.299844756072616	pulse	1.0	t		27.0	female	white	3.504576203740549	smiling	144	sub-11	1.0	1.0	144_smiling	0.0		181.08354827911035	
10.0	56.016381358533636	face	0.0		145	22.0	male	black	2.767608436132113	neutral	044	sub-11	1.0	1.0	044_neutral	0.0		181.80008488157137	1.233316560268122
10.0	56.00283803889761	pulse	0.0	t		22.0	male	black	2.767608436132113	neutral	044	sub-11	1.0	1.0	044_neutral	0.0		181.78654156193534	
10.0	56.699819883236614	pulse	0.0	t		22.0	male	black	2.767608436132113	neutral	044	sub-11	1.0	1.0	044_neutral	0.0		182.48352340627434	
10.0	57.074802941635426	response	0.0	e		22.0	male	black	2.767608436132113	neutral	044	sub-11	1.0	1.0	044_neutral	0.0		182.85850646467316	
10.0	57.24969791880176	fix	1.0		444	22.0	male	black	2.767608436132113	neutral	044	sub-11	1.0	1.0	044_neutral	0.0		183.0334014418395	3.766585638774359
10.0	57.399788882748	pulse	1.0	t		22.0	male	black	2.767608436132113	neutral	044	sub-11	1.0	1.0	044_neutral	0.0		183.18349240578573	
10.0	58.09979199185227	pulse	1.0	t		22.0	male	black	2.767608436132113	neutral	044	sub-11	1.0	1.0	044_neutral	0.0		183.88349551489	
10.0	58.79977397112043	pulse	1.0	t		22.0	male	black	2.767608436132113	neutral	044	sub-11	1.0	1.0	044_neutral	0.0		184.58347749415816	
10.0	59.49976108192004	pulse	1.0	t		22.0	male	black	2.767608436132113	neutral	044	sub-11	1.0	1.0	044_neutral	0.0		185.28346460495777	
10.0	60.19974638159101	pulse	1.0	t		22.0	male	black	2.767608436132113	neutral	044	sub-11	1.0	1.0	044_neutral	0.0		185.98344990462874	
10.0	60.899734397954944	pulse	1.0	t		22.0	male	black	2.767608436132113	neutral	044	sub-11	1.0	1.0	044_neutral	0.0		186.68343792099267	
11.0	61.016283557576116	face	0.0		146	19.0	female	white	4.298846000795861	neutral	100	sub-11	1.0	1.0	100_neutral	0.0		186.79998708061385	1.23331112688129
11.0	61.59973509222118	pulse	0.0	t		19.0	female	white	4.298846000795861	neutral	100	sub-11	1.0	1.0	100_neutral	0.0		187.3834386152589	
11.0	62.249594684457406	fix	1.0		443	19.0	female	white	4.298846000795861	neutral	100	sub-11	1.0	1.0	100_neutral	0.0		188.03329820749514	3.7665877517583795
11.0	62.29970982697387	pulse	1.0	t		19.0	female	white	4.298846000795861	neutral	100	sub-11	1.0	1.0	100_neutral	0.0		188.0834133500116	
11.0	62.441383871474955	response	1.0	e		19.0	female	white	4.298846000795861	neutral	100	sub-11	1.0	1.0	100_neutral	0.0		188.22508739451268	
11.0	62.99968335430731	pulse	1.0	t		19.0	female	white	4.298846000795861	neutral	100	sub-11	1.0	1.0	100_neutral	0.0		188.78338687734504	
11.0	63.69967620034822	pulse	1.0	t		19.0	female	white	4.298846000795861	neutral	100	sub-11	1.0	1.0	100_neutral	0.0		189.48337972338595	
11.0	64.39965697219714	pulse	1.0	t		19.0	female	white	4.298846000795861	neutral	100	sub-11	1.0	1.0	100_neutral	0.0		190.18336049523487	
11.0	65.09966672210749	pulse	1.0	t		19.0	female	white	4.298846000795861	neutral	100	sub-11	1.0	1.0	100_neutral	0.0		190.88337024514522	
11.0	65.7996324012156	pulse	1.0	t		19.0	female	white	4.298846000795861	neutral	100	sub-11	1.0	1.0	100_neutral	0.0		191.58333592425333	
12.0	66.01618243621579	face	0.0		144	40.0	male	white	1.868682849184242	neutral	172	sub-11	1.0	1.0	172_neutral	0.0		191.79988595925352	1.2333099194620445
12.0	66.49962222870863	pulse	0.0	t		40.0	male	white	1.868682849184242	neutral	172	sub-11	1.0	1.0	172_neutral	0.0		192.28332575174636	
12.0	66.85793294053974	response	0.0	e		40.0	male	white	1.868682849184242	neutral	172	sub-11	1.0	1.0	172_neutral	0.0		192.64163646357747	
12.0	67.19958941709137	pulse	0.0	t		40.0	male	white	1.868682849184242	neutral	172	sub-11	1.0	1.0	172_neutral	0.0		192.9832929401291	
12.0	67.24949235567783	fix	1.0		444	40.0	male	white	1.868682849184242	neutral	172	sub-11	1.0	1.0	172_neutral	0.0		193.03319587871556	3.766586544339134
12.0	67.37459426940723	response	1.0	w		40.0	male	white	1.868682849184242	neutral	172	sub-11	1.0	1.0	172_neutral	0.0		193.15829779244496	
12.0	67.8995735093431	pulse	1.0	t		40.0	male	white	1.868682849184242	neutral	172	sub-11	1.0	1.0	172_neutral	0.0		193.68327703238083	
12.0	68.59957782586662	pulse	1.0	t		40.0	male	white	1.868682849184242	neutral	172	sub-11	1.0	1.0	172_neutral	0.0		194.38328134890435	
12.0	69.29955406989347	pulse	1.0	t		40.0	male	white	1.868682849184242	neutral	172	sub-11	1.0	1.0	172_neutral	0.0		195.0832575929312	
12.0	69.99953967141892	pulse	1.0	t		40.0	male	white	1.868682849184242	neutral	172	sub-11	1.0	1.0	172_neutral	0.0		195.78324319445665	
12.0	70.69953100818611	pulse	1.0	t		40.0	male	white	1.868682849184242	neutral	172	sub-11	1.0	1.0	172_neutral	0.0		196.48323453122384	
13.0	71.01607890001696	face	0.0		144	26.0	male	white	2.7966573816155993	smiling	117	sub-11	1.0	1.0	117_smiling	0.0		196.7997824230547	1.2333129380103856
13.0	71.39951872269557	pulse	0.0	t		26.0	male	white	2.7966573816155993	smiling	117	sub-11	1.0	1.0	117_smiling	0.0		197.1832222457333	
13.0	71.99116984132388	response	0.0	g		26.0	male	white	2.7966573816155993	smiling	117	sub-11	1.0	1.0	117_smiling	0.0		197.7748733643616	
13.0	72.09949798527032	pulse	0.0	t		26.0	male	white	2.7966573816155993	smiling	117	sub-11	1.0	1.0	117_smiling	0.0		197.88320150830805	
13.0	72.24939183802735	fix	1.0		445	26.0	male	white	2.7966573816155993	smiling	117	sub-11	1.0	1.0	117_smiling	0.0		198.03309536106508	3.7582520312562337
13.0	72.7994923405854	pulse	1.0	t		26.0	male	white	2.7966573816155993	smiling	117	sub-11	1.0	1.0	117_smiling	0.0		198.58319586362313	
13.0	73.49948307364275	pulse	1.0	t		26.0	male	white	2.7966573816155993	smiling	117	sub-11	1.0	1.0	117_smiling	0.0		199.28318659668048	
13.0	74.19945660097619	pulse	1.0	t		26.0	male	white	2.7966573816155993	smiling	117	sub-11	1.0	1.0	117_smiling	0.0		199.98316012401392	
13.0	74.89944401363073	pulse	1.0	t		26.0	male	white	2.7966573816155993	smiling	117	sub-11	1.0	1.0	117_smiling	0.0		200.68314753666846	
13.0	75.59942901144677	pulse	1.0	t		26.0	male	white	2.7966573816155993	smiling	117	sub-11	1.0	1.0	117_smiling	0.0		201.3831325344845	
14.0	76.00764386928358	face	0.0		145	31.0	female	east_asian	3.395941106247513	neutral	087	sub-11	1.0	1.0	087_neutral	0.0		201.7913473923213	1.2416435269801696
14.0	76.29942095192337	pulse	0.0	t		31.0	female	east_asian	3.395941106247513	neutral	087	sub-11	1.0	1.0	087_neutral	0.0		202.0831244749611	
14.0	76.9994228536084	pulse	0.0	t		31.0	female	east_asian	3.395941106247513	neutral	087	sub-11	1.0	1.0	087_neutral	0.0		202.78312637664612	
14.0	77.22439976926216	response	0.0	b		31.0	female	east_asian	3.395941106247513	neutral	087	sub-11	1.0	1.0	087_neutral	0.0		203.0081032922999	
14.0	77.24928739626375	fix	1.0		445	31.0	female	east_asian	3.395941106247513	neutral	087	sub-11	1.0	1.0	087_neutral	0.0		203.03299091930148	3.7665750738565293
14.0	77.69938792900757	pulse	1.0	t		31.0	female	east_asian	3.395941106247513	neutral	087	sub-11	1.0	1.0	087_neutral	0.0		203.4830914520453	
14.0	78.39937383238794	pulse	1.0	t		31.0	female	east_asian	3.395941106247513	neutral	087	sub-11	1.0	1.0	087_neutral	0.0		204.18307735542567	
14.0	79.09935762278474	pulse	1.0	t		31.0	female	east_asian	3.395941106247513	neutral	087	sub-11	1.0	1.0	087_neutral	0.0		204.88306114582247	
14.0	79.79933869648858	pulse	1.0	t		31.0	female	east_asian	3.395941106247513	neutral	087	sub-11	1.0	1.0	087_neutral	0.0		205.5830422195263	
14.0	80.49933003325532	pulse	1.0	t		31.0	female	east_asian	3.395941106247513	neutral	087	sub-11	1.0	1.0	087_neutral	0.0		206.28303355629305	
15.0	81.01586247012028	face	0.0		144	20.0	female	white	3.9502586549940313	smiling	091	sub-11	1.0	1.0	091_smiling	0.0		206.799565993158	1.2333222955089695
15.0	81.19933434977929	pulse	0.0	t		20.0	female	white	3.9502586549940313	smiling	091	sub-11	1.0	1.0	091_smiling	0.0		206.98303787281702	
15.0	81.89929791590384	pulse	0.0	t		20.0	female	white	3.9502586549940313	smiling	091	sub-11	1.0	1.0	091_smiling	0.0		207.68300143894157	
15.0	82.19929027897706	response	0.0	y		20.0	female	white	3.9502586549940313	smiling	091	sub-11	1.0	1.0	091_smiling	0.0		207.9829938020148	
15.0	82.24918476562925	fix	1.0		446	20.0	female	white	3.9502586549940313	smiling	091	sub-11	1.0	1.0	091_smiling	0.0		208.03288828866698	3.766654461670896
15.0	82.59928774339687	pulse	1.0	t		20.0	female	white	3.9502586549940313	smiling	091	sub-11	1.0	1.0	091_smiling	0.0		208.3829912664346	
15.0	83.29927425048709	pulse	1.0	t		20.0	female	white	3.9502586549940313	smiling	091	sub-11	1.0	1.0	091_smiling	0.0		209.08297777352482	
15.0	83.99926045572238	pulse	1.0	t		20.0	female	white	3.9502586549940313	smiling	091	sub-11	1.0	1.0	091_smiling	0.0		209.7829639787601	
15.0	84.69924303869993	pulse	1.0	t		20.0	female	white	3.9502586549940313	smiling	091	sub-11	1.0	1.0	091_smiling	0.0		210.48294656173766	
15.0	85.39922169756528	pulse	1.0	t		20.0	female	white	3.9502586549940313	smiling	091	sub-11	1.0	1.0	091_smiling	0.0		211.182925220603	
16.0	86.01583922730015	face	0.0		145	28.0	male	east_asian	1.5563072025467568	neutral	005	sub-11	1.0	1.0	005_neutral	0.0		211.79954275033788	1.2415753077934824
16.0	86.09921544917052	pulse	0.0	t		28.0	male	east_asian	1.5563072025467568	neutral	005	sub-11	1.0	1.0	005_neutral	0.0		211.88291897220824	
16.0	86.79920618222786	pulse	0.0	t		28.0	male	east_asian	1.5563072025467568	neutral	005	sub-11	1.0	1.0	005_neutral	0.0		212.5829097052656	
16.0	86.95751212475307	response	0.0	w		28.0	male	east_asian	1.5563072025467568	neutral	005	sub-11	1.0	1.0	005_neutral	0.0		212.7412156477908	
16.0	87.25741453509363	fix	1.0		444	28.0	male	east_asian	1.5563072025467568	neutral	005	sub-11	1.0	1.0	005_neutral	0.0		213.04111805813136	3.7665877517583795
16.0	87.49919027447959	pulse	1.0	t		28.0	male	east_asian	1.5563072025467568	neutral	005	sub-11	1.0	1.0	005_neutral	0.0		213.28289379751732	
16.0	88.19917376302146	pulse	1.0	t		28.0	male	east_asian	1.5563072025467568	neutral	005	sub-11	1.0	1.0	005_neutral	0.0		213.9828772860592	
16.0	88.89915755341872	pulse	1.0	t		28.0	male	east_asian	1.5563072025467568	neutral	005	sub-11	1.0	1.0	005_neutral	0.0		214.68286107645645	
16.0	89.59914738091175	pulse	1.0	t		28.0	male	east_asian	1.5563072025467568	neutral	005	sub-11	1.0	1.0	005_neutral	0.0		215.38285090394947	
16.0	90.29913177501794	pulse	1.0	t		28.0	male	east_asian	1.5563072025467568	neutral	005	sub-11	1.0	1.0	005_neutral	0.0		216.08283529805567	
16.0	90.99911979138233	pulse	1.0	t		28.0	male	east_asian	1.5563072025467568	neutral	005	sub-11	1.0	1.0	005_neutral	0.0		216.78282331442006	
17.0	91.02400228685201	face	0.0		146	22.0	female	west_asian	3.8205332272184642	smiling	066	sub-11	1.0	1.0	066_smiling	0.0		216.80770580988974	1.2333301437342925
17.0	91.69910509105284	pulse	0.0	t		22.0	female	west_asian	3.8205332272184642	smiling	066	sub-11	1.0	1.0	066_smiling	0.0		217.48280861409057	
17.0	92.2573324305863	fix	1.0		443	22.0	female	west_asian	3.8205332272184642	smiling	066	sub-11	1.0	1.0	066_smiling	0.0		218.04103595362403	3.7665530384551857
17.0	92.35743110692283	response	1.0	b		22.0	female	west_asian	3.8205332272184642	smiling	066	sub-11	1.0	1.0	066_smiling	0.0		218.14113462996056	
17.0	92.3990755998384	pulse	1.0	t		22.0	female	west_asian	3.8205332272184642	smiling	066	sub-11	1.0	1.0	066_smiling	0.0		218.18277912287613	
17.0	93.09907508668539	pulse	1.0	t		22.0	female	west_asian	3.8205332272184642	smiling	066	sub-11	1.0	1.0	066_smiling	0.0		218.88277860972312	
17.0	93.79905555667938	pulse	1.0	t		22.0	female	west_asian	3.8205332272184642	smiling	066	sub-11	1.0	1.0	066_smiling	0.0		219.5827590797171	
17.0	94.49904508231748	pulse	1.0	t		22.0	female	west_asian	3.8205332272184642	smiling	066	sub-11	1.0	1.0	066_smiling	0.0		220.2827486053552	
17.0	95.19902555231147	pulse	1.0	t		22.0	female	west_asian	3.8205332272184642	smiling	066	sub-11	1.0	1.0	066_smiling	0.0		220.9827290753492	
17.0	95.89900994641766	pulse	1.0	t		22.0	female	west_asian	3.8205332272184642	smiling	066	sub-11	1.0	1.0	066_smiling	0.0		221.6827134694554	
18.0	96.02388546904149	face	0.0		145	28.0	female	white	5.676880222841227	neutral	124	sub-11	1.0	1.0	124_neutral	1.0	dominance	221.80758899207922	1.2333244084929902
18.0	96.59900339616843	pulse	0.0	t		28.0	female	white	5.676880222841227	neutral	124	sub-11	1.0	1.0	124_neutral	1.0	dominance	222.38270691920616	
18.0	96.91565301306946	response	0.0	g		28.0	female	white	5.676880222841227	neutral	124	sub-11	1.0	1.0	124_neutral	1.0	dominance	222.6993565361072	
18.0	97.25720987753448	fix	1.0		176	28.0	female	white	5.676880222841227	neutral	124	sub-11	1.0	1.0	124_neutral	1.0	dominance	223.0409134005722	1.5083382862676444
18.0	97.29898477172674	pulse	1.0	t		28.0	female	white	5.676880222841227	neutral	124	sub-11	1.0	1.0	124_neutral	1.0	dominance	223.08268829476447	
18.0	97.99896856212354	pulse	1.0	t		28.0	female	white	5.676880222841227	neutral	124	sub-11	1.0	1.0	124_neutral	1.0	dominance	223.78267208516127	
18.0	98.69895989889073	pulse	1.0	t		28.0	female	white	5.676880222841227	neutral	124	sub-11	1.0	1.0	124_neutral	1.0	dominance	224.48266342192846	
18.0	98.76554816380212	rating	2.0		295	28.0	female	white	5.676880222841227	neutral	124	sub-11	1.0	1.0	124_neutral	1.0	dominance	224.54925168683985	2.491579911079498
18.0	99.39897266734897	pulse	2.0	t		28.0	female	white	5.676880222841227	neutral	124	sub-11	1.0	1.0	124_neutral	1.0	dominance	225.1826761903867	
18.0	100.09892929081343	pulse	2.0	t		28.0	female	white	5.676880222841227	neutral	124	sub-11	1.0	1.0	124_neutral	1.0	dominance	225.88263281385116	
18.0	100.79891398677455	pulse	2.0	t		28.0	female	white	5.676880222841227	neutral	124	sub-11	1.0	1.0	124_neutral	1.0	dominance	226.58261750981228	
18.0	101.25712807488162	fix	3.0		444	28.0	female	white	5.676880222841227	neutral	124	sub-11	1.0	1.0	124_neutral	1.0	dominance	227.04083159791935	3.7666831378774077
18.0	101.49890260684833	pulse	3.0	t		28.0	female	white	5.676880222841227	neutral	124	sub-11	1.0	1.0	124_neutral	1.0	dominance	227.28260612988606	
18.0	102.19888760466438	pulse	3.0	t		28.0	female	white	5.676880222841227	neutral	124	sub-11	1.0	1.0	124_neutral	1.0	dominance	227.9825911277021	
18.0	102.89886958393254	pulse	3.0	t		28.0	female	white	5.676880222841227	neutral	124	sub-11	1.0	1.0	124_neutral	1.0	dominance	228.68257310697027	
18.0	103.59885910957064	pulse	3.0	t		28.0	female	white	5.676880222841227	neutral	124	sub-11	1.0	1.0	124_neutral	1.0	dominance	229.38256263260837	
18.0	104.29890870431564	pulse	3.0	t		28.0	female	white	5.676880222841227	neutral	124	sub-11	1.0	1.0	124_neutral	1.0	dominance	230.08261222735337	
18.0	104.99882819963841	pulse	3.0	t		28.0	female	white	5.676880222841227	neutral	124	sub-11	1.0	1.0	124_neutral	1.0	dominance	230.78253172267614	
19.0	105.02381121275903	face	0.0		145	31.0	female	west_asian	2.364902506963788	smiling	006	sub-11	1.0	1.0	006_smiling	1.0	attractiveness	230.80751473579676	1.2332133259237708
19.0	105.69881681971219	pulse	0.0	t		31.0	female	west_asian	2.364902506963788	smiling	006	sub-11	1.0	1.0	006_smiling	1.0	attractiveness	231.48252034274992	
19.0	106.14046421043395	response	0.0	e		31.0	female	west_asian	2.364902506963788	smiling	006	sub-11	1.0	1.0	006_smiling	1.0	attractiveness	231.92416773347168	
19.0	106.2570245386828	fix	1.0		177	31.0	female	west_asian	2.364902506963788	smiling	006	sub-11	1.0	1.0	006_smiling	1.0	attractiveness	232.04072806172053	1.4999726821401964
19.0	106.39877948027242	pulse	1.0	t		31.0	female	west_asian	2.364902506963788	smiling	006	sub-11	1.0	1.0	006_smiling	1.0	attractiveness	232.18248300331015	
19.0	107.09878621163489	pulse	1.0	t		31.0	female	west_asian	2.364902506963788	smiling	006	sub-11	1.0	1.0	006_smiling	1.0	attractiveness	232.88248973467262	
19.0	107.756997220823	rating	2.0		295	31.0	female	west_asian	2.364902506963788	smiling	006	sub-11	1.0	1.0	006_smiling	1.0	attractiveness	233.54070074386073	2.4999467226261913
19.0	107.79879415041614	pulse	2.0	t		31.0	female	west_asian	2.364902506963788	smiling	006	sub-11	1.0	1.0	006_smiling	1.0	attractiveness	233.58249767345387	
19.0	108.49875892395994	pulse	2.0	t		31.0	female	west_asian	2.364902506963788	smiling	006	sub-11	1.0	1.0	006_smiling	1.0	attractiveness	234.28246244699767	
19.0	109.19873758282529	pulse	2.0	t		31.0	female	west_asian	2.364902506963788	smiling	006	sub-11	1.0	1.0	006_smiling	1.0	attractiveness	234.98244110586302	
19.0	109.89872318435073	pulse	2.0	t		31.0	female	west_asian	2.364902506963788	smiling	006	sub-11	1.0	1.0	006_smiling	1.0	attractiveness	235.68242670738846	
19.0	110.25694394344919	fix	3.0		444	31.0	female	west_asian	2.364902506963788	smiling	006	sub-11	1.0	1.0	006_smiling	1.0	attractiveness	236.04064746648692	3.7582671239970296
19.0	110.5987160303921	pulse	3.0	t		31.0	female	west_asian	2.364902506963788	smiling	006	sub-11	1.0	1.0	006_smiling	1.0	attractiveness	236.38241955342983	
19.0	111.29870133006307	pulse	3.0	t		31.0	female	west_asian	2.364902506963788	smiling	006	sub-11	1.0	1.0	006_smiling	1.0	attractiveness	237.0824048531008	
19.0	111.99868330933077	pulse	3.0	t		31.0	female	west_asian	2.364902506963788	smiling	006	sub-11	1.0	1.0	006_smiling	1.0	attractiveness	237.7823868323685	
19.0	112.69867585351722	pulse	3.0	t		31.0	female	west_asian	2.364902506963788	smiling	006	sub-11	1.0	1.0	006_smiling	1.0	attractiveness	238.48237937655495	
19.0	113.3986569272206	pulse	3.0	t		31.0	female	west_asian	2.364902506963788	smiling	006	sub-11	1.0	1.0	006_smiling	1.0	attractiveness	239.18236045025833	
20.0	114.01521106744622	face	0.0		146	19.0	male	white	2.243931555909272	neutral	130	sub-11	1.0	1.0	130_neutral	1.0	trustworthiness	239.79891459048395	1.2416311509332445
20.0	114.09864766027795	pulse	0.0	t		19.0	male	white	2.243931555909272	neutral	130	sub-11	1.0	1.0	130_neutral	1.0	trustworthiness	239.88235118331568	
20.0	114.79862994140103	pulse	0.0	t		19.0	male	white	2.243931555909272	neutral	130	sub-11	1.0	1.0	130_neutral	1.0	trustworthiness	240.58233346443876	
20.0	115.25684221837946	fix	1.0		176	19.0	male	white	2.243931555909272	neutral	130	sub-11	1.0	1.0	130_neutral	1.0	trustworthiness	241.0405457414172	1.4999681543176848
20.0	115.43195030503921	response	1.0	b		19.0	male	white	2.243931555909272	neutral	130	sub-11	1.0	1.0	130_neutral	1.0	trustworthiness	241.21565382807694	
20.0	115.4986037705894	pulse	1.0	t		19.0	male	white	2.243931555909272	neutral	130	sub-11	1.0	1.0	130_neutral	1.0	trustworthiness	241.28230729362713	
20.0	116.19861382235422	pulse	1.0	t		19.0	male	white	2.243931555909272	neutral	130	sub-11	1.0	1.0	130_neutral	1.0	trustworthiness	241.98231734539195	
20.0	116.75681037269715	rating	2.0		295	19.0	male	white	2.243931555909272	neutral	130	sub-11	1.0	1.0	130_neutral	1.0	trustworthiness	242.54051389573488	2.499948835610212
20.0	116.89859036823555	pulse	2.0	t		19.0	male	white	2.243931555909272	neutral	130	sub-11	1.0	1.0	130_neutral	1.0	trustworthiness	242.68229389127328	
20.0	117.59857083822953	pulse	2.0	t		19.0	male	white	2.243931555909272	neutral	130	sub-11	1.0	1.0	130_neutral	1.0	trustworthiness	243.38227436126726	
20.0	118.29855885459392	pulse	2.0	t		19.0	male	white	2.243931555909272	neutral	130	sub-11	1.0	1.0	130_neutral	1.0	trustworthiness	244.08226237763165	
20.0	118.99855170063483	pulse	2.0	t		19.0	male	white	2.243931555909272	neutral	130	sub-11	1.0	1.0	130_neutral	1.0	trustworthiness	244.78225522367256	
20.0	119.25675920830736	fix	3.0		1185	19.0	male	white	2.243931555909272	neutral	130	sub-11	1.0	1.0	130_neutral	1.0	trustworthiness	245.0404627313451	10.016456218525946
20.0	119.69852945393586	pulse	3.0	t		19.0	male	white	2.243931555909272	neutral	130	sub-11	1.0	1.0	130_neutral	1.0	trustworthiness	245.4822329769736	
20.0	120.39850147199513	pulse	3.0	t		19.0	male	white	2.243931555909272	neutral	130	sub-11	1.0	1.0	130_neutral	1.0	trustworthiness	246.18220499503286	
20.0	121.09849190319756	pulse	3.0	t		19.0	male	white	2.243931555909272	neutral	130	sub-11	1.0	1.0	130_neutral	1.0	trustworthiness	246.88219542623528	
20.0	121.7984826362549	pulse	3.0	t		19.0	male	white	2.243931555909272	neutral	130	sub-11	1.0	1.0	130_neutral	1.0	trustworthiness	247.58218615929263	
20.0	122.49846974705497	pulse	3.0	t		19.0	male	white	2.243931555909272	neutral	130	sub-11	1.0	1.0	130_neutral	1.0	trustworthiness	248.2821732700927	
20.0	123.19845474487101	pulse	3.0	t		19.0	male	white	2.243931555909272	neutral	130	sub-11	1.0	1.0	130_neutral	1.0	trustworthiness	248.98215826790874	
20.0	123.89843612042932	pulse	3.0	t		19.0	male	white	2.243931555909272	neutral	130	sub-11	1.0	1.0	130_neutral	1.0	trustworthiness	249.68213964346705	
20.0	124.59843047574441	pulse	3.0	t		19.0	male	white	2.243931555909272	neutral	130	sub-11	1.0	1.0	130_neutral	1.0	trustworthiness	250.38213399878214	
20.0	125.2984109457384	pulse	3.0	t		19.0	male	white	2.243931555909272	neutral	130	sub-11	1.0	1.0	130_neutral	1.0	trustworthiness	251.08211446877613	
20.0	125.99839896210233	pulse	3.0	t		19.0	male	white	2.243931555909272	neutral	130	sub-11	1.0	1.0	130_neutral	1.0	trustworthiness	251.78210248514006	
20.0	126.69838758217611	pulse	3.0	t		19.0	male	white	2.243931555909272	neutral	130	sub-11	1.0	1.0	130_neutral	1.0	trustworthiness	252.48209110521384	
20.0	127.39836261878372	pulse	3.0	t		19.0	male	white	2.243931555909272	neutral	130	sub-11	1.0	1.0	130_neutral	1.0	trustworthiness	253.18206614182145	
20.0	128.0983621056307	pulse	3.0	t		19.0	male	white	2.243931555909272	neutral	130	sub-11	1.0	1.0	130_neutral	1.0	trustworthiness	253.88206562866844	
20.0	128.7983407644956	pulse	3.0	t		19.0	male	white	2.243931555909272	neutral	130	sub-11	1.0	1.0	130_neutral	1.0	trustworthiness	254.58204428753334	
21.0	129.2732154268333	face	0.0		144	40.0	male	black	2.408674890569041	neutral	061	sub-11	1.0	1.0	061_neutral	0.0		255.05691894987103	1.2333123343005354
21.0	129.4983327049722	pulse	0.0	t		40.0	male	black	2.408674890569041	neutral	061	sub-11	1.0	1.0	061_neutral	0.0		255.28203622800993	
21.0	130.15665600414877	response	0.0	w		40.0	male	black	2.408674890569041	neutral	061	sub-11	1.0	1.0	061_neutral	0.0		255.9403595271865	
21.0	130.19830472303147	pulse	0.0	t		40.0	male	black	2.408674890569041	neutral	061	sub-11	1.0	1.0	061_neutral	0.0		255.9820082460692	
21.0	130.50652776113384	fix	1.0		444	40.0	male	black	2.408674890569041	neutral	061	sub-11	1.0	1.0	061_neutral	0.0		256.29023128417157	3.7665856387748136
21.0	130.89829817278223	pulse	1.0	t		40.0	male	black	2.408674890569041	neutral	061	sub-11	1.0	1.0	061_neutral	0.0		256.68200169581996	
21.0	131.59828618914662	pulse	1.0	t		40.0	male	black	2.408674890569041	neutral	061	sub-11	1.0	1.0	061_neutral	0.0		257.38198971218435	
21.0	132.29826726285	pulse	1.0	t		40.0	male	black	2.408674890569041	neutral	061	sub-11	1.0	1.0	061_neutral	0.0		258.08197078588773	
21.0	132.9982528643759	pulse	1.0	t		40.0	male	black	2.408674890569041	neutral	061	sub-11	1.0	1.0	061_neutral	0.0		258.78195638741363	
21.0	133.6982429937234	pulse	1.0	t		40.0	male	black	2.408674890569041	neutral	061	sub-11	1.0	1.0	061_neutral	0.0		259.4819465167611	
22.0	134.27311339990865	face	0.0		145	34.0	male	white	2.651014723438122	smiling	121	sub-11	1.0	1.0	121_smiling	1.0	attractiveness	260.0568169229464	1.2333123343005354
22.0	134.39823101008778	pulse	0.0	t		34.0	male	white	2.651014723438122	smiling	121	sub-11	1.0	1.0	121_smiling	1.0	attractiveness	260.1819345331255	
22.0	135.09821600790383	pulse	0.0	t		34.0	male	white	2.651014723438122	smiling	121	sub-11	1.0	1.0	121_smiling	1.0	attractiveness	260.88191953094156	
22.0	135.5064257342092	fix	1.0		176	34.0	male	white	2.651014723438122	smiling	121	sub-11	1.0	1.0	121_smiling	1.0	attractiveness	261.2901292572469	1.4999690598820052
22.0	135.7482008698853	response	1.0	b		34.0	male	white	2.651014723438122	smiling	121	sub-11	1.0	1.0	121_smiling	1.0	attractiveness	261.531904392923	
22.0	135.7981822907218	pulse	1.0	t		34.0	male	white	2.651014723438122	smiling	121	sub-11	1.0	1.0	121_smiling	1.0	attractiveness	261.5818858137595	
22.0	136.49818298498803	pulse	1.0	t		34.0	male	white	2.651014723438122	smiling	121	sub-11	1.0	1.0	121_smiling	1.0	attractiveness	262.28188650802576	
22.0	137.0063947940912	rating	2.0		295	34.0	male	white	2.651014723438122	smiling	121	sub-11	1.0	1.0	121_smiling	1.0	attractiveness	262.7900983171289	2.499949439320062
22.0	137.19817311433553	pulse	2.0	t		34.0	male	white	2.651014723438122	smiling	121	sub-11	1.0	1.0	121_smiling	1.0	attractiveness	262.98187663737326	
22.0	137.89815056578163	pulse	2.0	t		34.0	male	white	2.651014723438122	smiling	121	sub-11	1.0	1.0	121_smiling	1.0	attractiveness	263.68185408881936	
22.0	138.59814612851596	pulse	2.0	t		34.0	male	white	2.651014723438122	smiling	121	sub-11	1.0	1.0	121_smiling	1.0	attractiveness	264.3818496515537	
22.0	139.29812418367146	pulse	2.0	t		34.0	male	white	2.651014723438122	smiling	121	sub-11	1.0	1.0	121_smiling	1.0	attractiveness	265.0818277067092	
22.0	139.50634423341126	fix	3.0		444	34.0	male	white	2.651014723438122	smiling	121	sub-11	1.0	1.0	121_smiling	1.0	attractiveness	265.290047756449	3.766585940629284
22.0	139.99811069076168	pulse	3.0	t		34.0	male	white	2.651014723438122	smiling	121	sub-11	1.0	1.0	121_smiling	1.0	attractiveness	265.7818142137994	
22.0	140.6981086683345	pulse	3.0	t		34.0	male	white	2.651014723438122	smiling	121	sub-11	1.0	1.0	121_smiling	1.0	attractiveness	266.4818121913722	
22.0	141.39807947897452	pulse	3.0	t		34.0	male	white	2.651014723438122	smiling	121	sub-11	1.0	1.0	121_smiling	1.0	attractiveness	267.18178300201225	
22.0	142.09806749533846	pulse	3.0	t		34.0	male	white	2.651014723438122	smiling	121	sub-11	1.0	1.0	121_smiling	1.0	attractiveness	267.8817710183762	
22.0	142.79805038017093	pulse	3.0	t		34.0	male	white	2.651014723438122	smiling	121	sub-11	1.0	1.0	121_smiling	1.0	attractiveness	268.58175390320866	
23.0	143.27293017404054	face	0.0		144	20.0	male	black	2.609629924393156	neutral	043	sub-11	1.0	1.0	043_neutral	0.0		269.05663369707827	1.233310825026365
23.0	143.49804654661511	pulse	0.0	t		20.0	male	black	2.609629924393156	neutral	043	sub-11	1.0	1.0	043_neutral	0.0		269.28175006965284	
23.0	144.19803214814056	pulse	0.0	t		20.0	male	black	2.609629924393156	neutral	043	sub-11	1.0	1.0	043_neutral	0.0		269.9817356711783	
23.0	144.23133488345866	response	0.0	w		20.0	male	black	2.609629924393156	neutral	043	sub-11	1.0	1.0	043_neutral	0.0		270.0150384064964	
23.0	144.5062409990669	fix	1.0		444	20.0	male	black	2.609629924393156	neutral	043	sub-11	1.0	1.0	043_neutral	0.0		270.28994452210463	3.766586846194059
23.0	144.8980074866031	pulse	1.0	t		20.0	male	black	2.609629924393156	neutral	043	sub-11	1.0	1.0	043_neutral	0.0		270.6817110096408	
23.0	145.59799912522476	pulse	1.0	t		20.0	male	black	2.609629924393156	neutral	043	sub-11	1.0	1.0	043_neutral	0.0		271.3817026482625	
23.0	146.29798170820231	pulse	1.0	t		20.0	male	black	2.609629924393156	neutral	043	sub-11	1.0	1.0	043_neutral	0.0		272.08168523124004	
23.0	146.99797002642117	pulse	1.0	t		20.0	male	black	2.609629924393156	neutral	043	sub-11	1.0	1.0	043_neutral	0.0		272.7816735494589	
23.0	147.69794989270576	pulse	1.0	t		20.0	male	black	2.609629924393156	neutral	043	sub-11	1.0	1.0	043_neutral	0.0		273.4816534157435	
24.0	148.27282784526096	face	0.0		144	22.0	female	west_asian	3.8205332272184642	neutral	066	sub-11	1.0	1.0	066_neutral	0.0		274.0565313682987	1.233309013897724
24.0	148.39794334245653	pulse	0.0	t		22.0	female	west_asian	3.8205332272184642	neutral	066	sub-11	1.0	1.0	066_neutral	0.0		274.18164686549426	
24.0	149.09792169946695	pulse	0.0	t		22.0	female	west_asian	3.8205332272184642	neutral	066	sub-11	1.0	1.0	066_neutral	0.0		274.8816252225047	
24.0	149.46455756688147	response	0.0	e		22.0	female	west_asian	3.8205332272184642	neutral	066	sub-11	1.0	1.0	066_neutral	0.0		275.2482610899192	
24.0	149.5061368591587	fix	1.0		445	22.0	female	west_asian	3.8205332272184642	neutral	066	sub-11	1.0	1.0	066_neutral	0.0		275.2898403821964	3.7665868461936043
24.0	149.79788888784924	pulse	1.0	t		22.0	female	west_asian	3.8205332272184642	neutral	066	sub-11	1.0	1.0	066_neutral	0.0		275.58159241088697	
24.0	150.4978962229211	pulse	1.0	t		22.0	female	west_asian	3.8205332272184642	neutral	066	sub-11	1.0	1.0	066_neutral	0.0		276.28159974595883	
24.0	151.19788031517282	pulse	1.0	t		22.0	female	west_asian	3.8205332272184642	neutral	066	sub-11	1.0	1.0	066_neutral	0.0		276.98158383821055	
24.0	151.8978604833119	pulse	1.0	t		22.0	female	west_asian	3.8205332272184642	neutral	066	sub-11	1.0	1.0	066_neutral	0.0		277.6815640063496	
24.0	152.59784970709507	pulse	1.0	t		22.0	female	west_asian	3.8205332272184642	neutral	066	sub-11	1.0	1.0	066_neutral	0.0		278.3815532301328	
25.0	153.2727237053523	face	0.0		145	34.0	male	white	2.651014723438122	neutral	121	sub-11	1.0	1.0	121_neutral	0.0		279.05642722839	1.2333123343005354
25.0	153.2978612681345	pulse	0.0	t		34.0	male	white	2.651014723438122	neutral	121	sub-11	1.0	1.0	121_neutral	0.0		279.08156479117224	
25.0	153.9978227212755	pulse	0.0	t		34.0	male	white	2.651014723438122	neutral	121	sub-11	1.0	1.0	121_neutral	0.0		279.7815262443132	
25.0	154.50603603965283	fix	1.0		443	34.0	male	white	2.651014723438122	neutral	121	sub-11	1.0	1.0	121_neutral	0.0		280.28973956269056	3.7665847332100384
25.0	154.69781496360702	response	1.0	b		34.0	male	white	2.651014723438122	neutral	121	sub-11	1.0	1.0	121_neutral	0.0		280.48151848664475	
25.0	154.69794808157712	pulse	1.0	t		34.0	male	white	2.651014723438122	neutral	121	sub-11	1.0	1.0	121_neutral	0.0		280.48165160461485	
25.0	155.39778577424704	pulse	1.0	t		34.0	male	white	2.651014723438122	neutral	121	sub-11	1.0	1.0	121_neutral	0.0		281.18148929728477	
25.0	156.09778012956212	pulse	1.0	t		34.0	male	white	2.651014723438122	neutral	121	sub-11	1.0	1.0	121_neutral	0.0		281.88148365259985	
25.0	156.79776573108802	pulse	1.0	t		34.0	male	white	2.651014723438122	neutral	121	sub-11	1.0	1.0	121_neutral	0.0		282.58146925412575	
25.0	157.49775103075854	pulse	1.0	t		34.0	male	white	2.651014723438122	neutral	121	sub-11	1.0	1.0	121_neutral	0.0		283.28145455379627	
25.0	158.19773753784875	pulse	1.0	t		34.0	male	white	2.651014723438122	neutral	121	sub-11	1.0	1.0	121_neutral	0.0		283.9814410608865	
26.0	158.27262077286287	face	0.0		146	23.0	male	white	2.6275368085953046	smiling	141	sub-11	1.0	1.0	141_smiling	0.0		284.0563242959006	1.2333132398653106
26.0	158.8977258560676	pulse	0.0	t		23.0	male	white	2.6275368085953046	smiling	141	sub-11	1.0	1.0	141_smiling	0.0		284.68142937910534	
26.0	159.50593401272818	fix	1.0		442	23.0	male	white	2.6275368085953046	smiling	141	sub-11	1.0	1.0	141_smiling	0.0		285.2896375357659	3.766585940629284
26.0	159.5977144761414	pulse	1.0	t		23.0	male	white	2.6275368085953046	smiling	141	sub-11	1.0	1.0	141_smiling	0.0		285.3814179991791	
26.0	159.73101808683805	response	1.0	y		23.0	male	white	2.6275368085953046	smiling	141	sub-11	1.0	1.0	141_smiling	0.0		285.5147216098758	
26.0	160.29768558863634	pulse	1.0	t		23.0	male	white	2.6275368085953046	smiling	141	sub-11	1.0	1.0	141_smiling	0.0		286.08138911167407	
26.0	160.9976832643547	pulse	1.0	t		23.0	male	white	2.6275368085953046	smiling	141	sub-11	1.0	1.0	141_smiling	0.0		286.7813867873924	
26.0	161.69766192321958	pulse	1.0	t		23.0	male	white	2.6275368085953046	smiling	141	sub-11	1.0	1.0	141_smiling	0.0		287.4813654462573	
26.0	162.39765024143844	pulse	1.0	t		23.0	male	white	2.6275368085953046	smiling	141	sub-11	1.0	1.0	141_smiling	0.0		288.18135376447617	
26.0	163.09764097449624	pulse	1.0	t		23.0	male	white	2.6275368085953046	smiling	141	sub-11	1.0	1.0	141_smiling	0.0		288.881344497534	
27.0	163.27251995335746	face	0.0		146	19.0	male	white	3.2522881018702745	neutral	018	sub-11	1.0	1.0	018_neutral	0.0		289.0562234763952	1.2416462436735856
27.0	163.797627481586	pulse	0.0	t		19.0	male	white	3.2522881018702745	neutral	018	sub-11	1.0	1.0	018_neutral	0.0		289.58133100462373	
27.0	164.4976106682734	pulse	0.0	t		19.0	male	white	3.2522881018702745	neutral	018	sub-11	1.0	1.0	018_neutral	0.0		290.28131419131114	
27.0	164.51416619703105	fix	1.0		443	19.0	male	white	3.2522881018702745	neutral	018	sub-11	1.0	1.0	018_neutral	0.0		290.2978697200688	3.758249918272668
27.0	164.50547821196915	response	1.0	e		19.0	male	white	3.2522881018702745	neutral	018	sub-11	1.0	1.0	018_neutral	0.0		290.2891817350069	
27.0	165.19759717536363	pulse	1.0	t		19.0	male	white	3.2522881018702745	neutral	018	sub-11	1.0	1.0	018_neutral	0.0		290.98130069840136	
27.0	165.89757281568063	pulse	1.0	t		19.0	male	white	3.2522881018702745	neutral	018	sub-11	1.0	1.0	018_neutral	0.0		291.68127633871836	
27.0	166.59756988768913	pulse	1.0	t		19.0	male	white	3.2522881018702745	neutral	018	sub-11	1.0	1.0	018_neutral	0.0		292.38127341072686	
27.0	167.29754703727986	pulse	1.0	t		19.0	male	white	3.2522881018702745	neutral	018	sub-11	1.0	1.0	018_neutral	0.0		293.0812505603176	
27.0	167.99753837404705	pulse	1.0	t		19.0	male	white	3.2522881018702745	neutral	018	sub-11	1.0	1.0	018_neutral	0.0		293.7812418970848	
28.0	168.2724161153037	face	0.0		145	24.0	female	black	3.0955033824114606	neutral	099	sub-11	1.0	1.0	099_neutral	0.0		294.05611963834144	1.2333123343005354
28.0	168.69752457928234	pulse	0.0	t		24.0	female	black	3.0955033824114606	neutral	099	sub-11	1.0	1.0	099_neutral	0.0		294.4812281023201	
28.0	169.39750233258292	pulse	0.0	t		24.0	female	black	3.0955033824114606	neutral	099	sub-11	1.0	1.0	099_neutral	0.0		295.18120585562065	
28.0	169.50572844960425	fix	1.0		443	24.0	female	black	3.0955033824114606	neutral	099	sub-11	1.0	1.0	099_neutral	0.0		295.289431972642	3.766586544339134
28.0	169.82250212883127	response	1.0	w		24.0	female	black	3.0955033824114606	neutral	099	sub-11	1.0	1.0	099_neutral	0.0		295.606205651869	
28.0	170.0974885378182	pulse	1.0	t		24.0	female	black	3.0955033824114606	neutral	099	sub-11	1.0	1.0	099_neutral	0.0		295.88119206085594	
28.0	170.79747564861827	pulse	1.0	t		24.0	female	black	3.0955033824114606	neutral	099	sub-11	1.0	1.0	099_neutral	0.0		296.581179171656	
28.0	171.49746517425638	pulse	1.0	t		24.0	female	black	3.0955033824114606	neutral	099	sub-11	1.0	1.0	099_neutral	0.0		297.2811686972941	
28.0	172.19745681287804	pulse	1.0	t		24.0	female	black	3.0955033824114606	neutral	099	sub-11	1.0	1.0	099_neutral	0.0		297.9811603359158	
28.0	172.8974354717434	pulse	1.0	t		24.0	female	black	3.0955033824114606	neutral	099	sub-11	1.0	1.0	099_neutral	0.0		298.6811389947811	
29.0	173.27231499394338	face	0.0		145	21.0	male	east_asian/white	3.501790688420215	neutral	036	sub-11	1.0	1.0	036_neutral	1.0	dominance	299.0560185169811	1.2333132398648559
29.0	173.59742529923642	pulse	0.0	t		21.0	male	east_asian/white	3.501790688420215	neutral	036	sub-11	1.0	1.0	036_neutral	1.0	dominance	299.38112882227415	
29.0	174.29740697664965	pulse	0.0	t		21.0	male	east_asian/white	3.501790688420215	neutral	036	sub-11	1.0	1.0	036_neutral	1.0	dominance	300.0811104996874	
29.0	174.50562823380824	fix	1.0		176	21.0	male	east_asian/white	3.501790688420215	neutral	036	sub-11	1.0	1.0	036_neutral	1.0	dominance	300.28933175684597	1.4999675506082895
29.0	174.6390625476365	response	1.0	w		21.0	male	east_asian/white	3.501790688420215	neutral	036	sub-11	1.0	1.0	036_neutral	1.0	dominance	300.42276607067424	
29.0	174.9973838243859	pulse	1.0	t		21.0	male	east_asian/white	3.501790688420215	neutral	036	sub-11	1.0	1.0	036_neutral	1.0	dominance	300.78108734742364	
29.0	175.6973796889747	pulse	1.0	t		21.0	male	east_asian/white	3.501790688420215	neutral	036	sub-11	1.0	1.0	036_neutral	1.0	dominance	301.48108321201244	
29.0	176.00559578441653	rating	2.0		296	21.0	male	east_asian/white	3.501790688420215	neutral	036	sub-11	1.0	1.0	036_neutral	1.0	dominance	301.78929930745426	2.5082815375640166
29.0	176.39736649791985	pulse	2.0	t		21.0	male	east_asian/white	3.501790688420215	neutral	036	sub-11	1.0	1.0	036_neutral	1.0	dominance	302.1810700209576	
29.0	177.09736326807342	pulse	2.0	t		21.0	male	east_asian/white	3.501790688420215	neutral	036	sub-11	1.0	1.0	036_neutral	1.0	dominance	302.88106679111115	
29.0	177.79733166387496	pulse	2.0	t		21.0	male	east_asian/white	3.501790688420215	neutral	036	sub-11	1.0	1.0	036_neutral	1.0	dominance	303.5810351869127	
29.0	178.49731937838442	pulse	2.0	t		21.0	male	east_asian/white	3.501790688420215	neutral	036	sub-11	1.0	1.0	036_neutral	1.0	dominance	304.28102290142215	
29.0	178.51387732198054	fix	3.0		443	21.0	male	east_asian/white	3.501790688420215	neutral	036	sub-11	1.0	1.0	036_neutral	1.0	dominance	304.2975808450183	3.7582517294013087
29.0	179.1973046780554	pulse	3.0	t		21.0	male	east_asian/white	3.501790688420215	neutral	036	sub-11	1.0	1.0	036_neutral	1.0	dominance	304.9810082010931	
29.0	179.89728484619445	pulse	3.0	t		21.0	male	east_asian/white	3.501790688420215	neutral	036	sub-11	1.0	1.0	036_neutral	1.0	dominance	305.6809883692322	
29.0	180.59727678667105	pulse	3.0	t		21.0	male	east_asian/white	3.501790688420215	neutral	036	sub-11	1.0	1.0	036_neutral	1.0	dominance	306.3809803097088	
29.0	181.29726208634202	pulse	3.0	t		21.0	male	east_asian/white	3.501790688420215	neutral	036	sub-11	1.0	1.0	036_neutral	1.0	dominance	307.08096560937975	
29.0	181.99724285819093	pulse	3.0	t		21.0	male	east_asian/white	3.501790688420215	neutral	036	sub-11	1.0	1.0	036_neutral	1.0	dominance	307.78094638122866	
30.0	182.27212905138185	face	0.0		144	24.0	female	east_asian	2.9076800636689217	smiling	034	sub-11	1.0	1.0	034_smiling	0.0		308.0558325744196	1.233311428736215
30.0	182.69724234503747	pulse	0.0	t		24.0	female	east_asian	2.9076800636689217	smiling	034	sub-11	1.0	1.0	034_smiling	0.0		308.4809458680752	
30.0	183.29722224150737	response	0.0	y		24.0	female	east_asian	2.9076800636689217	smiling	034	sub-11	1.0	1.0	034_smiling	0.0		309.0809257645451	
30.0	183.3972119482587	pulse	0.0	t		24.0	female	east_asian	2.9076800636689217	smiling	034	sub-11	1.0	1.0	034_smiling	0.0		309.18091547129643	
30.0	183.50544048011807	fix	1.0		444	24.0	female	east_asian	2.9076800636689217	smiling	034	sub-11	1.0	1.0	034_smiling	0.0		309.2891440031558	3.7665874499034544
30.0	184.09720600171886	pulse	1.0	t		24.0	female	east_asian	2.9076800636689217	smiling	034	sub-11	1.0	1.0	034_smiling	0.0		309.8809095247566	
30.0	184.79719130138983	pulse	1.0	t		24.0	female	east_asian	2.9076800636689217	smiling	034	sub-11	1.0	1.0	034_smiling	0.0		310.58089482442756	
30.0	185.49717841218944	pulse	1.0	t		24.0	female	east_asian	2.9076800636689217	smiling	034	sub-11	1.0	1.0	034_smiling	0.0		311.28088193522717	
30.0	186.1971585803285	pulse	1.0	t		24.0	female	east_asian	2.9076800636689217	smiling	034	sub-11	1.0	1.0	034_smiling	0.0		311.98086210336623	
30.0	186.89714448370887	pulse	1.0	t		24.0	female	east_asian	2.9076800636689217	smiling	034	sub-11	1.0	1.0	034_smiling	0.0		312.6808480067466	
31.0	187.27202793002152	face	0.0		144	27.0	female	white	3.504576203740549	neutral	144	sub-11	1.0	1.0	144_neutral	0.0		313.05573145305925	1.2333099194620445
31.0	187.59713914087888	pulse	0.0	t		27.0	female	white	3.504576203740549	neutral	144	sub-11	1.0	1.0	144_neutral	0.0		313.3808426639166	
31.0	188.29712625167895	pulse	0.0	t		27.0	female	white	3.504576203740549	neutral	144	sub-11	1.0	1.0	144_neutral	0.0		314.0808297747167	
31.0	188.46378662970346	response	0.0	y		27.0	female	white	3.504576203740549	neutral	144	sub-11	1.0	1.0	144_neutral	0.0		314.2474901527412	
31.0	188.50533784948357	fix	1.0		445	27.0	female	white	3.504576203740549	neutral	144	sub-11	1.0	1.0	144_neutral	0.0		314.2890413725213	3.766587148048984
31.0	188.99709253449691	pulse	1.0	t		27.0	female	white	3.504576203740549	neutral	144	sub-11	1.0	1.0	144_neutral	0.0		314.78079605753464	
31.0	189.69711164190585	pulse	1.0	t		27.0	female	white	3.504576203740549	neutral	144	sub-11	1.0	1.0	144_neutral	0.0		315.4808151649436	
31.0	190.39707158577312	pulse	1.0	t		27.0	female	white	3.504576203740549	neutral	144	sub-11	1.0	1.0	144_neutral	0.0		316.18077510881085	
31.0	191.09706171512107	pulse	1.0	t		27.0	female	white	3.504576203740549	neutral	144	sub-11	1.0	1.0	144_neutral	0.0		316.8807652381588	
31.0	191.79704550551787	pulse	1.0	t		27.0	female	white	3.504576203740549	neutral	144	sub-11	1.0	1.0	144_neutral	0.0		317.5807490285556	
32.0	192.27192499753255	face	0.0		145	20.0	male	black	2.609629924393156	smiling	043	sub-11	1.0	1.0	043_smiling	0.0		318.0556285205703	1.2333117305906853
32.0	192.49703955897803	pulse	0.0	t		20.0	male	black	2.609629924393156	smiling	043	sub-11	1.0	1.0	043_smiling	0.0		318.28074308201576	
32.0	193.19702968832598	pulse	0.0	t		20.0	male	black	2.609629924393156	smiling	043	sub-11	1.0	1.0	043_smiling	0.0		318.9807332113637	
32.0	193.50523672812324	fix	1.0		443	20.0	male	black	2.609629924393156	smiling	043	sub-11	1.0	1.0	043_smiling	0.0		319.28894025116097	3.7665847332100384
32.0	193.6636923906326	response	1.0	e		20.0	male	black	2.609629924393156	smiling	043	sub-11	1.0	1.0	043_smiling	0.0		319.44739591367033	
32.0	193.8969941600153	pulse	1.0	t		20.0	male	black	2.609629924393156	smiling	043	sub-11	1.0	1.0	043_smiling	0.0		319.68069768305304	
32.0	194.59699123202336	pulse	1.0	t		20.0	male	black	2.609629924393156	smiling	043	sub-11	1.0	1.0	043_smiling	0.0		320.3806947550611	
32.0	195.2969704945981	pulse	1.0	t		20.0	male	black	2.609629924393156	smiling	043	sub-11	1.0	1.0	043_smiling	0.0		321.08067401763583	
32.0	195.99697028330002	pulse	1.0	t		20.0	male	black	2.609629924393156	smiling	043	sub-11	1.0	1.0	043_smiling	0.0		321.78067380633775	
32.0	196.69695014958415	pulse	1.0	t		20.0	male	black	2.609629924393156	smiling	043	sub-11	1.0	1.0	043_smiling	0.0		322.4806536726219	
33.0	197.27182146133327	face	0.0		144	31.0	female	east_asian	3.395941106247513	smiling	087	sub-11	1.0	1.0	087_smiling	0.0		323.055524984371	1.233311428736215
33.0	197.3969375622387	pulse	0.0	t		31.0	female	east_asian	3.395941106247513	smiling	087	sub-11	1.0	1.0	087_smiling	0.0		323.1806410852764	
33.0	198.09692588045755	pulse	0.0	t		31.0	female	east_asian	3.395941106247513	smiling	087	sub-11	1.0	1.0	087_smiling	0.0		323.8806294034953	
33.0	198.48023681113364	response	0.0	b		31.0	female	east_asian	3.395941106247513	smiling	087	sub-11	1.0	1.0	087_smiling	0.0		324.26394033417137	
33.0	198.5051328900695	fix	1.0		444	31.0	female	east_asian	3.395941106247513	smiling	087	sub-11	1.0	1.0	087_smiling	0.0		324.2888364131072	3.7665883554682296
33.0	198.79688582432482	pulse	1.0	t		31.0	female	east_asian	3.395941106247513	smiling	087	sub-11	1.0	1.0	087_smiling	0.0		324.58058934736255	
33.0	199.49688651859105	pulse	1.0	t		31.0	female	east_asian	3.395941106247513	smiling	087	sub-11	1.0	1.0	087_smiling	0.0		325.2805900416288	
33.0	200.19688147761553	pulse	1.0	t		31.0	female	east_asian	3.395941106247513	smiling	087	sub-11	1.0	1.0	087_smiling	0.0		325.98058500065326	
33.0	200.89686194760952	pulse	1.0	t		31.0	female	east_asian	3.395941106247513	smiling	087	sub-11	1.0	1.0	087_smiling	0.0		326.68056547064725	
33.0	201.59685268066687	pulse	1.0	t		31.0	female	east_asian	3.395941106247513	smiling	087	sub-11	1.0	1.0	087_smiling	0.0		327.3805562037046	
34.0	202.27172124553772	face	0.0		145	26.0	female	white	4.854755272582572	smiling	027	sub-11	1.0	1.0	027_smiling	0.0		328.05542476857545	1.2333090138972693
34.0	202.29685307307818	pulse	0.0	t		26.0	female	white	4.854755272582572	smiling	027	sub-11	1.0	1.0	027_smiling	0.0		328.0805565961159	
34.0	202.99682116702525	pulse	0.0	t		26.0	female	white	4.854755272582572	smiling	027	sub-11	1.0	1.0	027_smiling	0.0		328.780524690063	
34.0	203.505030259435	fix	1.0		442	26.0	female	white	4.854755272582572	smiling	027	sub-11	1.0	1.0	027_smiling	0.0		329.2887337824727	3.7665901665968704
34.0	203.61356939989173	response	1.0	b		26.0	female	white	4.854755272582572	smiling	027	sub-11	1.0	1.0	027_smiling	0.0		329.39727292292946	
34.0	203.69679197766527	pulse	1.0	t		26.0	female	white	4.854755272582572	smiling	027	sub-11	1.0	1.0	027_smiling	0.0		329.480495500703	
34.0	204.39678029588413	pulse	1.0	t		26.0	female	white	4.854755272582572	smiling	027	sub-11	1.0	1.0	027_smiling	0.0		330.18048381892186	
34.0	205.0967719345058	pulse	1.0	t		26.0	female	white	4.854755272582572	smiling	027	sub-11	1.0	1.0	027_smiling	0.0		330.8804754575435	
34.0	205.79675723417677	pulse	1.0	t		26.0	female	white	4.854755272582572	smiling	027	sub-11	1.0	1.0	027_smiling	0.0		331.5804607572145	
34.0	206.4967331763487	pulse	1.0	t		26.0	female	white	4.854755272582572	smiling	027	sub-11	1.0	1.0	027_smiling	0.0		332.2804366993864	
34.0	207.1967326631957	pulse	1.0	t		26.0	female	white	4.854755272582572	smiling	027	sub-11	1.0	1.0	027_smiling	0.0		332.9804361862334	
35.0	207.27162042603186	face	0.0		146	31.0	male	west_asian	1.9538400318344609	smiling	070	sub-11	1.0	1.0	070_smiling	0.0		333.0553239490696	1.2333069009141582
35.0	207.89672037770515	pulse	0.0	t		31.0	male	west_asian	1.9538400318344609	smiling	070	sub-11	1.0	1.0	070_smiling	0.0		333.6804239007429	
35.0	208.50492732694602	fix	1.0		442	31.0	male	west_asian	1.9538400318344609	smiling	070	sub-11	1.0	1.0	070_smiling	0.0		334.28863084998375	3.766585940629284
35.0	208.59671080890757	pulse	1.0	t		31.0	male	west_asian	1.9538400318344609	smiling	070	sub-11	1.0	1.0	070_smiling	0.0		334.3804143319453	
35.0	208.88836352736644	response	1.0	b		31.0	male	west_asian	1.9538400318344609	smiling	070	sub-11	1.0	1.0	070_smiling	0.0		334.67206705040417	
35.0	209.29668554366026	pulse	1.0	t		31.0	male	west_asian	1.9538400318344609	smiling	070	sub-11	1.0	1.0	070_smiling	0.0		335.080389066698	
35.0	209.99666631550917	pulse	1.0	t		31.0	male	west_asian	1.9538400318344609	smiling	070	sub-11	1.0	1.0	070_smiling	0.0		335.7803698385469	
35.0	210.6966618782435	pulse	1.0	t		31.0	male	west_asian	1.9538400318344609	smiling	070	sub-11	1.0	1.0	070_smiling	0.0		336.48036540128123	
35.0	211.39664083896332	pulse	1.0	t		31.0	male	west_asian	1.9538400318344609	smiling	070	sub-11	1.0	1.0	070_smiling	0.0		337.18034436200105	
35.0	212.0966261386343	pulse	1.0	t		31.0	male	west_asian	1.9538400318344609	smiling	070	sub-11	1.0	1.0	070_smiling	0.0		337.880329661672	
36.0	212.2715132675753	face	0.0		145	24.0	female	black	3.0955033824114606	smiling	099	sub-11	1.0	1.0	099_smiling	0.0		338.05521679061303	1.2416483566571515
36.0	212.79661838096536	pulse	0.0	t		24.0	female	black	3.0955033824114606	smiling	099	sub-11	1.0	1.0	099_smiling	0.0		338.5803219040031	
36.0	213.38828972386636	response	0.0	b		24.0	female	black	3.0955033824114606	smiling	099	sub-11	1.0	1.0	099_smiling	0.0		339.1719932469041	
36.0	213.49660126579784	pulse	0.0	t		24.0	female	black	3.0955033824114606	smiling	099	sub-11	1.0	1.0	099_smiling	0.0		339.28030478883556	
36.0	213.51316162423245	fix	1.0		443	24.0	female	black	3.0955033824114606	smiling	099	sub-11	1.0	1.0	099_smiling	0.0		339.2968651472702	3.7582496164181975
36.0	214.19658415063031	pulse	1.0	t		24.0	female	black	3.0955033824114606	smiling	099	sub-11	1.0	1.0	099_smiling	0.0		339.98028767366804	
36.0	214.89657246884917	pulse	1.0	t		24.0	female	black	3.0955033824114606	smiling	099	sub-11	1.0	1.0	099_smiling	0.0		340.6802759918869	
36.0	215.5965565611009	pulse	1.0	t		24.0	female	black	3.0955033824114606	smiling	099	sub-11	1.0	1.0	099_smiling	0.0		341.3802600841386	
36.0	216.29653884222398	pulse	1.0	t		24.0	female	black	3.0955033824114606	smiling	099	sub-11	1.0	1.0	099_smiling	0.0		342.0802423652617	
36.0	216.99654376245735	pulse	1.0	t		24.0	female	black	3.0955033824114606	smiling	099	sub-11	1.0	1.0	099_smiling	0.0		342.7802472854951	
37.0	217.27141124065065	face	0.0		145	36.0	female	white	2.7548746518105847	smiling	011	sub-11	1.0	1.0	011_smiling	0.0		343.0551147636884	1.2333105231714399
37.0	217.69652030833868	pulse	0.0	t		36.0	female	white	2.7548746518105847	smiling	011	sub-11	1.0	1.0	011_smiling	0.0		343.4802238313764	
37.0	218.39650409873548	pulse	0.0	t		36.0	female	white	2.7548746518105847	smiling	011	sub-11	1.0	1.0	011_smiling	0.0		344.1802076217732	
37.0	218.5047217638221	fix	1.0		443	36.0	female	white	2.7548746518105847	smiling	011	sub-11	1.0	1.0	011_smiling	0.0		344.2884252868598	3.7665853369198885
37.0	218.63818475385688	response	1.0	y		36.0	female	white	2.7548746518105847	smiling	011	sub-11	1.0	1.0	011_smiling	0.0		344.4218882768946	
37.0	219.0964806446168	pulse	1.0	t		36.0	female	white	2.7548746518105847	smiling	011	sub-11	1.0	1.0	011_smiling	0.0		344.88018416765453	
37.0	219.79647228323893	pulse	1.0	t		36.0	female	white	2.7548746518105847	smiling	011	sub-11	1.0	1.0	011_smiling	0.0		345.58017580627666	
37.0	220.49647871274647	pulse	1.0	t		36.0	female	white	2.7548746518105847	smiling	011	sub-11	1.0	1.0	011_smiling	0.0		346.2801822357842	
37.0	221.19644107145177	pulse	1.0	t		36.0	female	white	2.7548746518105847	smiling	011	sub-11	1.0	1.0	011_smiling	0.0		346.9801445944895	
37.0	221.89642637112274	pulse	1.0	t		36.0	female	white	2.7548746518105847	smiling	011	sub-11	1.0	1.0	011_smiling	0.0		347.6801298941605	
38.0	222.27130710074198	face	0.0		145	31.0	female	west_asian	2.364902506963788	neutral	006	sub-11	1.0	1.0	006_neutral	0.0		348.0550106237797	1.2333126361554605
38.0	222.5964228394214	pulse	0.0	t		31.0	female	west_asian	2.364902506963788	neutral	006	sub-11	1.0	1.0	006_neutral	0.0		348.3801263624591	
38.0	223.29639968715765	pulse	0.0	t		31.0	female	west_asian	2.364902506963788	neutral	006	sub-11	1.0	1.0	006_neutral	0.0		349.0801032101954	
38.0	223.50461973689744	fix	1.0		443	31.0	female	west_asian	2.364902506963788	neutral	006	sub-11	1.0	1.0	006_neutral	0.0		349.28832325993517	3.7665868461936043
38.0	223.7213862017943	response	1.0	e		31.0	female	west_asian	2.364902506963788	neutral	006	sub-11	1.0	1.0	006_neutral	0.0		349.50508972483203	
38.0	223.99639192948916	pulse	1.0	t		31.0	female	west_asian	2.364902506963788	neutral	006	sub-11	1.0	1.0	006_neutral	0.0		349.7800954525269	
38.0	224.69637722916013	pulse	1.0	t		31.0	female	west_asian	2.364902506963788	neutral	006	sub-11	1.0	1.0	006_neutral	0.0		350.48008075219786	
38.0	225.39635830286352	pulse	1.0	t		31.0	female	west_asian	2.364902506963788	neutral	006	sub-11	1.0	1.0	006_neutral	0.0		351.18006182590125	
38.0	226.09634209326032	pulse	1.0	t		31.0	female	west_asian	2.364902506963788	neutral	006	sub-11	1.0	1.0	006_neutral	0.0		351.88004561629805	
38.0	226.7963276947862	pulse	1.0	t		31.0	female	west_asian	2.364902506963788	neutral	006	sub-11	1.0	1.0	006_neutral	0.0		352.58003121782394	
39.0	227.27120658309104	face	0.0		145	21.0	male	black	2.969757262236371	smiling	137	sub-11	1.0	1.0	137_smiling	0.0		353.0549101061288	1.23331112688129
39.0	227.4963220501013	pulse	0.0	t		21.0	male	black	2.969757262236371	smiling	137	sub-11	1.0	1.0	137_smiling	0.0		353.280025573139	
39.0	228.1963025200953	pulse	0.0	t		21.0	male	black	2.969757262236371	smiling	137	sub-11	1.0	1.0	137_smiling	0.0		353.980006043133	
39.0	228.50451770997233	fix	1.0		444	21.0	male	black	2.969757262236371	smiling	137	sub-11	1.0	1.0	137_smiling	0.0		354.28822123301006	3.7499220459963
39.0	228.51199646467649	response	1.0	b		21.0	male	black	2.969757262236371	smiling	137	sub-11	1.0	1.0	137_smiling	0.0		354.2956999877142	
39.0	228.89628449936345	pulse	1.0	t		21.0	male	black	2.969757262236371	smiling	137	sub-11	1.0	1.0	137_smiling	0.0		354.6799880224012	
39.0	229.5962646675025	pulse	1.0	t		21.0	male	black	2.969757262236371	smiling	137	sub-11	1.0	1.0	137_smiling	0.0		355.37996819054024	
39.0	230.2962538912857	pulse	1.0	t		21.0	male	black	2.969757262236371	smiling	137	sub-11	1.0	1.0	137_smiling	0.0		356.0799574143234	
39.0	230.99624764289138	pulse	1.0	t		21.0	male	black	2.969757262236371	smiling	137	sub-11	1.0	1.0	137_smiling	0.0		356.7799511659291	
39.0	231.6962293203046	pulse	1.0	t		21.0	male	black	2.969757262236371	smiling	137	sub-11	1.0	1.0	137_smiling	0.0		357.47993284334234	
40.0	232.25443975596863	fix	0.0		720													358.03814327900636	5.9998762395289305
40.0	232.39621703481407	pulse	0.0	t														358.1799205578518	
40.0	233.096205051178	pulse	0.0	t														358.87990857421573	
40.0	233.7961864267363	pulse	0.0	t														359.57988994977404	
40.0	234.49617323568145	pulse	0.0	t														360.2798767587192	
40.0	235.19615461123976	pulse	0.0	t														360.9798581342775	
40.0	235.89615319252198	pulse	0.0	t														361.6798567155597	
40.0	236.59612853098452	pulse	0.0	t														362.37983205402224	
40.0	237.2961120195264	pulse	0.0	t														363.0798155425641	
40.0	237.9961024507288	pulse	0.0	t														363.77980597376654	
