trial_nr	onset	event_type	phase	response	nr_frames	face_age	face_sex	face_eth	attractiveness	expression	face_id	sub_id	ses	run	trial_type	catch	rating_type	onset_abs	duration
-1.0	0.058972042425239124	fix	0.0		713													101.12463924468466	5.957945159456813
-1.0	0.7004537797015473	pulse	0.0	t														101.76612098196097	
-1.0	1.4004514554123944	pulse	0.0	t														102.46611865767181	
-1.0	2.100420454830328	pulse	0.0	t														103.16608765708975	
-1.0	2.800422658376874	pulse	0.0	t														103.8660898606363	
-1.0	3.5004103728492737	pulse	0.0	t														104.5660775751087	
-1.0	4.2003866168042805	pulse	0.0	t														105.2660538190637	
-1.0	4.900375840554943	pulse	0.0	t														105.96604304281436	
-1.0	5.600365668017275	pulse	0.0	t														106.6660328702767	
0.0	6.016917201882052	face	0.0		144	21.0	male	east_asian/white	3.501790688420215	neutral	036	sub-13	2.0	1.0	036_neutral	0.0		107.08258440414147	1.2333266220746282
0.0	6.300368475275491	pulse	0.0	t		21.0	male	east_asian/white	3.501790688420215	neutral	036	sub-13	2.0	1.0	036_neutral	0.0		107.36603567753491	
0.0	7.000347737787706	pulse	0.0	t		21.0	male	east_asian/white	3.501790688420215	neutral	036	sub-13	2.0	1.0	036_neutral	0.0		108.06601494004713	
0.0	7.25024382395668	fix	1.0		445	21.0	male	east_asian/white	3.501790688420215	neutral	036	sub-13	2.0	1.0	036_neutral	0.0		108.3159110262161	3.766581915642746
0.0	7.70033816896148	pulse	1.0	t		21.0	male	east_asian/white	3.501790688420215	neutral	036	sub-13	2.0	1.0	036_neutral	0.0		108.7660053712209	
0.0	8.400334033538002	pulse	1.0	t		21.0	male	east_asian/white	3.501790688420215	neutral	036	sub-13	2.0	1.0	036_neutral	0.0		109.46600123579742	
0.0	9.100311183060057	pulse	1.0	t		21.0	male	east_asian/white	3.501790688420215	neutral	036	sub-13	2.0	1.0	036_neutral	0.0		110.16597838531948	
0.0	9.800298595676622	pulse	1.0	t		21.0	male	east_asian/white	3.501790688420215	neutral	036	sub-13	2.0	1.0	036_neutral	0.0		110.86596579793604	
0.0	10.500282386024537	pulse	1.0	t		21.0	male	east_asian/white	3.501790688420215	neutral	036	sub-13	2.0	1.0	036_neutral	0.0		111.56594958828396	
1.0	11.016825739599426	face	0.0		145	28.0	male	white	3.9076800636689217	smiling	033	sub-13	2.0	1.0	033_smiling	0.0		112.08249294185885	1.233323301661585
1.0	11.200270100496937	pulse	0.0	t		28.0	male	white	3.9076800636689217	smiling	033	sub-13	2.0	1.0	033_smiling	0.0		112.26593730275636	
1.0	11.900257211257667	pulse	0.0	t		28.0	male	white	3.9076800636689217	smiling	033	sub-13	2.0	1.0	033_smiling	0.0		112.96592441351709	
1.0	12.250149041261011	fix	1.0		445	28.0	male	white	3.9076800636689217	smiling	033	sub-13	2.0	1.0	033_smiling	0.0		113.31581624352043	3.7665870471901144
1.0	12.600253075834416	pulse	1.0	t		28.0	male	white	3.9076800636689217	smiling	033	sub-13	2.0	1.0	033_smiling	0.0		113.66592027809384	
1.0	13.300240186595147	pulse	1.0	t		28.0	male	white	3.9076800636689217	smiling	033	sub-13	2.0	1.0	033_smiling	0.0		114.36590738885457	
1.0	14.000222165808736	pulse	1.0	t		28.0	male	white	3.9076800636689217	smiling	033	sub-13	2.0	1.0	033_smiling	0.0		115.06588936806816	
1.0	14.700214106261228	pulse	1.0	t		28.0	male	white	3.9076800636689217	smiling	033	sub-13	2.0	1.0	033_smiling	0.0		115.76588130852065	
1.0	15.400192463206167	pulse	1.0	t		28.0	male	white	3.9076800636689217	smiling	033	sub-13	2.0	1.0	033_smiling	0.0		116.46585966546559	
2.0	16.016736088451125	face	0.0		145	23.0	male	white	2.6275368085953046	neutral	141	sub-13	2.0	1.0	141_neutral	0.0		117.08240329071054	1.2333027754725663
2.0	16.100189233349965	pulse	0.0	t		23.0	male	white	2.6275368085953046	neutral	141	sub-13	2.0	1.0	141_neutral	0.0		117.16585643560938	
2.0	16.80016638287202	pulse	0.0	t		23.0	male	white	2.6275368085953046	neutral	141	sub-13	2.0	1.0	141_neutral	0.0		117.86583358513144	
2.0	17.25003886392369	fix	1.0		446	23.0	male	white	2.6275368085953046	neutral	141	sub-13	2.0	1.0	141_neutral	0.0		118.31570606618311	3.766586745334507
2.0	17.500158323324285	pulse	1.0	t		23.0	male	white	2.6275368085953046	neutral	141	sub-13	2.0	1.0	141_neutral	0.0		118.5658255255837	
2.0	18.20014120810515	pulse	1.0	t		23.0	male	white	2.6275368085953046	neutral	141	sub-13	2.0	1.0	141_neutral	0.0		119.26580841036457	
2.0	18.900136167114624	pulse	1.0	t		23.0	male	white	2.6275368085953046	neutral	141	sub-13	2.0	1.0	141_neutral	0.0		119.96580336937404	
2.0	19.600125994576956	pulse	1.0	t		23.0	male	white	2.6275368085953046	neutral	141	sub-13	2.0	1.0	141_neutral	0.0		120.66579319683638	
2.0	20.30011733131778	pulse	1.0	t		23.0	male	white	2.6275368085953046	neutral	141	sub-13	2.0	1.0	141_neutral	0.0		121.3657845335772	
3.0	21.0166256092582	face	0.0		146	36.0	female	white	2.7548746518105847	neutral	011	sub-13	2.0	1.0	011_neutral	0.0		122.08229281151762	1.2333329610444252
3.0	21.003063835541752	pulse	0.0	t		36.0	female	white	2.7548746518105847	neutral	011	sub-13	2.0	1.0	011_neutral	0.0		122.06873103780117	
3.0	21.700083704590725	pulse	0.0	t		36.0	female	white	2.7548746518105847	neutral	011	sub-13	2.0	1.0	011_neutral	0.0		122.76575090685014	
3.0	22.249958570302624	fix	1.0		444	36.0	female	white	2.7548746518105847	neutral	011	sub-13	2.0	1.0	011_neutral	0.0		123.31562577256204	3.7665894620358813
3.0	22.400080474734523	pulse	1.0	t		36.0	female	white	2.7548746518105847	neutral	011	sub-13	2.0	1.0	011_neutral	0.0		123.46574767699394	
3.0	23.10005309642088	pulse	1.0	t		36.0	female	white	2.7548746518105847	neutral	011	sub-13	2.0	1.0	011_neutral	0.0		124.1657202986803	
3.0	23.800052885121886	pulse	1.0	t		36.0	female	white	2.7548746518105847	neutral	011	sub-13	2.0	1.0	011_neutral	0.0		124.8657200873813	
3.0	24.5000294309325	pulse	1.0	t		36.0	female	white	2.7548746518105847	neutral	011	sub-13	2.0	1.0	011_neutral	0.0		125.56569663319192	
3.0	25.200024993653642	pulse	1.0	t		36.0	female	white	2.7548746518105847	neutral	011	sub-13	2.0	1.0	011_neutral	0.0		126.26569219591306	
3.0	25.900025386065863	pulse	1.0	t		36.0	female	white	2.7548746518105847	neutral	011	sub-13	2.0	1.0	011_neutral	0.0		126.96569258832528	
4.0	26.016548032338505	face	0.0		146	47.0	male	east_asian	2.171110226820533	smiling	024	sub-13	2.0	1.0	024_smiling	0.0		127.08221523459792	1.2333396018702842
4.0	26.600010081981054	pulse	0.0	t		47.0	male	east_asian	2.171110226820533	smiling	024	sub-13	2.0	1.0	024_smiling	0.0		127.66567728424047	
4.0	27.24988763420879	fix	1.0		444	47.0	male	east_asian	2.171110226820533	smiling	024	sub-13	2.0	1.0	024_smiling	0.0		128.3155548364682	3.7582506978151287
4.0	27.30004096182097	pulse	1.0	t		47.0	male	east_asian	2.171110226820533	smiling	024	sub-13	2.0	1.0	024_smiling	0.0		128.3657081640804	
4.0	27.999974342264068	pulse	1.0	t		47.0	male	east_asian	2.171110226820533	smiling	024	sub-13	2.0	1.0	024_smiling	0.0		129.0656415445235	
4.0	28.69997081055203	pulse	1.0	t		47.0	male	east_asian	2.171110226820533	smiling	024	sub-13	2.0	1.0	024_smiling	0.0		129.76563801281145	
4.0	29.39997120296448	pulse	1.0	t		47.0	male	east_asian	2.171110226820533	smiling	024	sub-13	2.0	1.0	024_smiling	0.0		130.4656384052239	
4.0	30.09994050423802	pulse	1.0	t		47.0	male	east_asian	2.171110226820533	smiling	024	sub-13	2.0	1.0	024_smiling	0.0		131.16560770649744	
4.0	30.799934557680217	pulse	1.0	t		47.0	male	east_asian	2.171110226820533	smiling	024	sub-13	2.0	1.0	024_smiling	0.0		131.86560175993964	
5.0	31.00813833202392	face	0.0		146	37.0	male	white	3.898925586947871	neutral	101	sub-13	2.0	1.0	101_neutral	0.0		132.07380553428334	1.2416617640267305
5.0	31.499922574008224	pulse	0.0	t		37.0	male	white	3.898925586947871	neutral	101	sub-13	2.0	1.0	101_neutral	0.0		132.56558977626764	
5.0	32.199903647654764	pulse	0.0	t		37.0	male	white	3.898925586947871	neutral	101	sub-13	2.0	1.0	101_neutral	0.0		133.26557084991418	
5.0	32.24980009605065	fix	1.0		446	37.0	male	white	3.898925586947871	neutral	101	sub-13	2.0	1.0	101_neutral	0.0		133.31546729831007	3.766583726777071
5.0	32.89990132336561	pulse	1.0	t		37.0	male	white	3.898925586947871	neutral	101	sub-13	2.0	1.0	101_neutral	0.0		133.96556852562503	
5.0	33.59988118958927	pulse	1.0	t		37.0	male	white	3.898925586947871	neutral	101	sub-13	2.0	1.0	101_neutral	0.0		134.6655483918487	
5.0	34.299838416633975	pulse	1.0	t		37.0	male	white	3.898925586947871	neutral	101	sub-13	2.0	1.0	101_neutral	0.0		135.3655056188934	
5.0	34.9998632593597	pulse	1.0	t		37.0	male	white	3.898925586947871	neutral	101	sub-13	2.0	1.0	101_neutral	0.0		136.06553046161912	
5.0	35.69982712723004	pulse	1.0	t		37.0	male	white	3.898925586947871	neutral	101	sub-13	2.0	1.0	101_neutral	0.0		136.76549432948946	
6.0	36.01638382282772	face	0.0		145	22.0	female	white	4.614007162753682	neutral	009	sub-13	2.0	1.0	009_neutral	1.0	attractiveness	137.08205102508714	1.2333281313531188
6.0	36.39983295304546	pulse	0.0	t		22.0	female	white	4.614007162753682	neutral	009	sub-13	2.0	1.0	009_neutral	1.0	attractiveness	137.46550015530488	
6.0	37.09981372483617	pulse	0.0	t		22.0	female	white	4.614007162753682	neutral	009	sub-13	2.0	1.0	009_neutral	1.0	attractiveness	138.1654809270956	
6.0	37.24971195418084	fix	1.0		177	22.0	female	white	4.614007162753682	neutral	009	sub-13	2.0	1.0	009_neutral	1.0	attractiveness	138.31537915644026	1.5083368021585102
6.0	37.80000549377405	pulse	1.0	t		22.0	female	white	4.614007162753682	neutral	009	sub-13	2.0	1.0	009_neutral	1.0	attractiveness	138.86567269603347	
6.0	38.49979337976083	pulse	1.0	t		22.0	female	white	4.614007162753682	neutral	009	sub-13	2.0	1.0	009_neutral	1.0	attractiveness	139.56546058202025	
6.0	38.75804875633935	rating	2.0		294	22.0	female	white	4.614007162753682	neutral	009	sub-13	2.0	1.0	009_neutral	1.0	attractiveness	139.82371595859877	2.491576867106005
6.0	39.19978320722316	pulse	2.0	t		22.0	female	white	4.614007162753682	neutral	009	sub-13	2.0	1.0	009_neutral	1.0	attractiveness	140.26545040948258	
6.0	39.894492370747685	response	2.0	y		22.0	female	white	4.614007162753682	neutral	009	sub-13	2.0	1.0	009_neutral	1.0	attractiveness	140.9601595730071	
6.0	39.89973681199922	pulse	2.0	t		22.0	female	white	4.614007162753682	neutral	009	sub-13	2.0	1.0	009_neutral	1.0	attractiveness	140.96540401425864	
6.0	40.599963596200496	pulse	2.0	t		22.0	female	white	4.614007162753682	neutral	009	sub-13	2.0	1.0	009_neutral	1.0	attractiveness	141.66563079845992	
6.0	41.249625623445354	fix	3.0		443	22.0	female	white	4.614007162753682	neutral	009	sub-13	2.0	1.0	009_neutral	1.0	attractiveness	142.31529282570477	3.758300202152668
6.0	41.29974182280421	pulse	3.0	t		22.0	female	white	4.614007162753682	neutral	009	sub-13	2.0	1.0	009_neutral	1.0	attractiveness	142.36540902506363	
6.0	41.99973315954503	pulse	3.0	t		22.0	female	white	4.614007162753682	neutral	009	sub-13	2.0	1.0	009_neutral	1.0	attractiveness	143.06540036180445	
6.0	42.6997136294799	pulse	3.0	t		22.0	female	white	4.614007162753682	neutral	009	sub-13	2.0	1.0	009_neutral	1.0	attractiveness	143.76538083173932	
6.0	43.39971553117107	pulse	3.0	t		22.0	female	white	4.614007162753682	neutral	009	sub-13	2.0	1.0	009_neutral	1.0	attractiveness	144.4653827334305	
6.0	44.099689662135916	pulse	3.0	t		22.0	female	white	4.614007162753682	neutral	009	sub-13	2.0	1.0	009_neutral	1.0	attractiveness	145.16535686439533	
6.0	44.799671641349505	pulse	3.0	t		22.0	female	white	4.614007162753682	neutral	009	sub-13	2.0	1.0	009_neutral	1.0	attractiveness	145.86533884360892	
7.0	45.00792582559802	face	0.0		146	24.0	male	white	3.1153999204138483	neutral	012	sub-13	2.0	1.0	012_neutral	0.0		146.07359302785744	1.2416321821663132
7.0	45.49968893768232	pulse	0.0	t		24.0	male	white	3.1153999204138483	neutral	012	sub-13	2.0	1.0	012_neutral	0.0		146.56535613994174	
7.0	46.199785320213095	pulse	0.0	t		24.0	male	white	3.1153999204138483	neutral	012	sub-13	2.0	1.0	012_neutral	0.0		147.26545252247251	
7.0	46.249558007764335	fix	1.0		445	24.0	male	white	3.1153999204138483	neutral	012	sub-13	2.0	1.0	012_neutral	0.0		147.31522521002375	3.766567426568372
7.0	46.899671007452525	pulse	1.0	t		24.0	male	white	3.1153999204138483	neutral	012	sub-13	2.0	1.0	012_neutral	0.0		147.96533820971194	
7.0	47.59962914006451	pulse	1.0	t		24.0	male	white	3.1153999204138483	neutral	012	sub-13	2.0	1.0	012_neutral	0.0		148.66529634232393	
7.0	48.299640701138514	pulse	1.0	t		24.0	male	white	3.1153999204138483	neutral	012	sub-13	2.0	1.0	012_neutral	0.0		149.36530790339793	
7.0	48.99977662676838	pulse	1.0	t		24.0	male	white	3.1153999204138483	neutral	012	sub-13	2.0	1.0	012_neutral	0.0		150.0654438290278	
7.0	49.69958896306821	pulse	1.0	t		24.0	male	white	3.1153999204138483	neutral	012	sub-13	2.0	1.0	012_neutral	0.0		150.76525616532763	
8.0	50.01612543433271	face	0.0		145	32.0	male	white	2.389176283326701	neutral	092	sub-13	2.0	1.0	092_neutral	0.0		151.08179263659213	1.2333211886716526
8.0	50.39963553940561	pulse	0.0	t		32.0	male	white	2.389176283326701	neutral	092	sub-13	2.0	1.0	092_neutral	0.0		151.46530274166503	
8.0	51.09965253388259	pulse	0.0	t		32.0	male	white	2.389176283326701	neutral	092	sub-13	2.0	1.0	092_neutral	0.0		152.165319736142	
8.0	51.24944662300436	fix	1.0		445	32.0	male	white	2.389176283326701	neutral	092	sub-13	2.0	1.0	092_neutral	0.0		152.31511382526378	3.766604554821697
8.0	51.79955965287809	pulse	1.0	t		32.0	male	white	2.389176283326701	neutral	092	sub-13	2.0	1.0	092_neutral	0.0		152.8652268551375	
8.0	52.499543443226	pulse	1.0	t		32.0	male	white	2.389176283326701	neutral	092	sub-13	2.0	1.0	092_neutral	0.0		153.56521064548542	
8.0	53.199527535429525	pulse	1.0	t		32.0	male	white	2.389176283326701	neutral	092	sub-13	2.0	1.0	092_neutral	0.0		154.26519473768894	
8.0	53.89959041197585	pulse	1.0	t		32.0	male	white	2.389176283326701	neutral	092	sub-13	2.0	1.0	092_neutral	0.0		154.96525761423527	
8.0	54.59951292561277	pulse	1.0	t		32.0	male	white	2.389176283326701	neutral	092	sub-13	2.0	1.0	092_neutral	0.0		155.6651801278722	
9.0	55.01605117782606	face	0.0		145	31.0	male	west_asian	1.9538400318344609	smiling	070	sub-13	2.0	1.0	070_smiling	0.0		156.08171838008548	1.2333193775371
9.0	55.29949430111492	pulse	0.0	t		31.0	male	west_asian	1.9538400318344609	smiling	070	sub-13	2.0	1.0	070_smiling	0.0		156.36516150337434	
9.0	55.99948714713446	pulse	0.0	t		31.0	male	west_asian	1.9538400318344609	smiling	070	sub-13	2.0	1.0	070_smiling	0.0		157.06515434939388	
9.0	56.24937055536316	fix	1.0		445	31.0	male	west_asian	1.9538400318344609	smiling	070	sub-13	2.0	1.0	070_smiling	0.0		157.31503775762258	3.7665906694587648
9.0	56.69948029500961	pulse	1.0	t		31.0	male	west_asian	1.9538400318344609	smiling	070	sub-13	2.0	1.0	070_smiling	0.0		157.76514749726903	
9.0	57.399461670511755	pulse	1.0	t		31.0	male	west_asian	1.9538400318344609	smiling	070	sub-13	2.0	1.0	070_smiling	0.0		158.46512887277117	
9.0	58.09944032931253	pulse	1.0	t		31.0	male	west_asian	1.9538400318344609	smiling	070	sub-13	2.0	1.0	070_smiling	0.0		159.16510753157195	
9.0	58.799423817804836	pulse	1.0	t		31.0	male	west_asian	1.9538400318344609	smiling	070	sub-13	2.0	1.0	070_smiling	0.0		159.86509102006426	
9.0	59.49941998423719	pulse	1.0	t		31.0	male	west_asian	1.9538400318344609	smiling	070	sub-13	2.0	1.0	070_smiling	0.0		160.5650871864966	
10.0	60.01596122482192	face	0.0		145	31.0	female	west_asian	2.364902506963788	smiling	006	sub-13	2.0	1.0	006_smiling	0.0		161.08162842708134	1.233328433208726
10.0	60.1994080005652	pulse	0.0	t		31.0	female	west_asian	2.364902506963788	smiling	006	sub-13	2.0	1.0	006_smiling	0.0		161.26507520282462	
10.0	60.89941020411197	pulse	0.0	t		31.0	female	west_asian	2.364902506963788	smiling	006	sub-13	2.0	1.0	006_smiling	0.0		161.9650774063714	
10.0	61.24928965803065	fix	1.0		444	31.0	female	west_asian	2.364902506963788	smiling	006	sub-13	2.0	1.0	006_smiling	0.0		162.31495686029007	3.766582519354415
10.0	61.59937920352968	pulse	1.0	t		31.0	female	west_asian	2.364902506963788	smiling	006	sub-13	2.0	1.0	006_smiling	0.0		162.6650464057891	
10.0	62.299374766250594	pulse	1.0	t		31.0	female	west_asian	2.364902506963788	smiling	006	sub-13	2.0	1.0	006_smiling	0.0		163.36504196851	
10.0	62.99936881969279	pulse	1.0	t		31.0	female	west_asian	2.364902506963788	smiling	006	sub-13	2.0	1.0	006_smiling	0.0		164.0650360219522	
10.0	63.69935291189654	pulse	1.0	t		31.0	female	west_asian	2.364902506963788	smiling	006	sub-13	2.0	1.0	006_smiling	0.0		164.76502011415596	
10.0	64.39934877647329	pulse	1.0	t		31.0	female	west_asian	2.364902506963788	smiling	006	sub-13	2.0	1.0	006_smiling	0.0		165.4650159787327	
11.0	65.01587217738506	face	0.0		145	20.0	female	white	3.9502586549940313	smiling	091	sub-13	2.0	1.0	091_smiling	1.0	attractiveness	166.08153937964448	1.233327527641677
11.0	65.09935279115416	pulse	0.0	t		20.0	female	white	3.9502586549940313	smiling	091	sub-13	2.0	1.0	091_smiling	1.0	attractiveness	166.16501999341358	
11.0	65.79932329985058	pulse	0.0	t		20.0	female	white	3.9502586549940313	smiling	091	sub-13	2.0	1.0	091_smiling	1.0	attractiveness	166.86499050211	
11.0	66.24919970502674	fix	1.0		177	20.0	female	white	3.9502586549940313	smiling	091	sub-13	2.0	1.0	091_smiling	1.0	attractiveness	167.31486690728616	1.499958192982831
11.0	66.49931312731292	pulse	1.0	t		20.0	female	white	3.9502586549940313	smiling	091	sub-13	2.0	1.0	091_smiling	1.0	attractiveness	167.56498032957234	
11.0	67.19928514528783	pulse	1.0	t		20.0	female	white	3.9502586549940313	smiling	091	sub-13	2.0	1.0	091_smiling	1.0	attractiveness	168.26495234754725	
11.0	67.74915789800957	rating	2.0		294	20.0	female	white	3.9502586549940313	smiling	091	sub-13	2.0	1.0	091_smiling	1.0	attractiveness	168.814825100269	2.4999714746347763
11.0	67.89929006553598	pulse	2.0	t		20.0	female	white	3.9502586549940313	smiling	091	sub-13	2.0	1.0	091_smiling	1.0	attractiveness	168.9649572677954	
11.0	68.49925879328362	response	2.0	b		20.0	female	white	3.9502586549940313	smiling	091	sub-13	2.0	1.0	091_smiling	1.0	attractiveness	169.56492599554304	
11.0	68.59925876309785	pulse	2.0	t		20.0	female	white	3.9502586549940313	smiling	091	sub-13	2.0	1.0	091_smiling	1.0	attractiveness	169.66492596535727	
11.0	69.29925553324188	pulse	2.0	t		20.0	female	white	3.9502586549940313	smiling	091	sub-13	2.0	1.0	091_smiling	1.0	attractiveness	170.3649227355013	
11.0	69.999228154928	pulse	2.0	t		20.0	female	white	3.9502586549940313	smiling	091	sub-13	2.0	1.0	091_smiling	1.0	attractiveness	171.06489535718742	
11.0	70.24912937264435	fix	3.0		445	20.0	female	white	3.9502586549940313	smiling	091	sub-13	2.0	1.0	091_smiling	1.0	attractiveness	171.31479657490377	3.7749164538834066
11.0	70.69921858610178	pulse	3.0	t		20.0	female	white	3.9502586549940313	smiling	091	sub-13	2.0	1.0	091_smiling	1.0	attractiveness	171.7648857883612	
11.0	71.39921294139981	pulse	3.0	t		20.0	female	white	3.9502586549940313	smiling	091	sub-13	2.0	1.0	091_smiling	1.0	attractiveness	172.46488014365923	
11.0	72.09918918535482	pulse	3.0	t		20.0	female	white	3.9502586549940313	smiling	091	sub-13	2.0	1.0	091_smiling	1.0	attractiveness	173.16485638761424	
11.0	72.79918414436429	pulse	3.0	t		20.0	female	white	3.9502586549940313	smiling	091	sub-13	2.0	1.0	091_smiling	1.0	attractiveness	173.8648513466237	
11.0	73.49915797347353	pulse	3.0	t		20.0	female	white	3.9502586549940313	smiling	091	sub-13	2.0	1.0	091_smiling	1.0	attractiveness	174.56482517573295	
12.0	74.02404582652775	face	0.0		145	40.0	female	west_asian	1.5777954635893354	neutral	038	sub-13	2.0	1.0	038_neutral	0.0		175.08971302878717	1.2333133404229102
12.0	74.19915746031893	pulse	0.0	t		40.0	female	west_asian	1.5777954635893354	neutral	038	sub-13	2.0	1.0	038_neutral	0.0		175.26482466257835	
12.0	74.89917626593001	pulse	0.0	t		40.0	female	west_asian	1.5777954635893354	neutral	038	sub-13	2.0	1.0	038_neutral	0.0		175.96484346818943	
12.0	75.25735916695066	fix	1.0		444	40.0	female	west_asian	1.5777954635893354	neutral	038	sub-13	2.0	1.0	038_neutral	0.0		176.32302636921008	3.766597612140231
12.0	75.59913047441773	pulse	1.0	t		40.0	female	west_asian	1.5777954635893354	neutral	038	sub-13	2.0	1.0	038_neutral	0.0		176.66479767667715	
12.0	76.29912754641714	pulse	1.0	t		40.0	female	west_asian	1.5777954635893354	neutral	038	sub-13	2.0	1.0	038_neutral	0.0		177.36479474867656	
12.0	76.99912612769526	pulse	1.0	t		40.0	female	west_asian	1.5777954635893354	neutral	038	sub-13	2.0	1.0	038_neutral	0.0		178.06479332995468	
12.0	77.6991262182521	pulse	1.0	t		40.0	female	west_asian	1.5777954635893354	neutral	038	sub-13	2.0	1.0	038_neutral	0.0		178.76479342051152	
12.0	78.39910880117714	pulse	1.0	t		40.0	female	west_asian	1.5777954635893354	neutral	038	sub-13	2.0	1.0	038_neutral	0.0		179.46477600343655	
13.0	79.0239567790909	face	0.0		145	20.0	male	black	2.609629924393156	smiling	043	sub-13	2.0	1.0	043_smiling	1.0	dominance	180.08962398135031	1.2333302443430512
13.0	79.099101043485	pulse	0.0	t		20.0	male	black	2.609629924393156	smiling	043	sub-13	2.0	1.0	043_smiling	1.0	dominance	180.16476824574443	
13.0	79.7990507241368	pulse	0.0	t		20.0	male	black	2.609629924393156	smiling	043	sub-13	2.0	1.0	043_smiling	1.0	dominance	180.86471792639622	
13.0	80.25728702343395	fix	1.0		177	20.0	male	black	2.609629924393156	smiling	043	sub-13	2.0	1.0	043_smiling	1.0	dominance	181.32295422569337	1.4999557781372914
13.0	80.49906711490235	pulse	1.0	t		20.0	male	black	2.609629924393156	smiling	043	sub-13	2.0	1.0	043_smiling	1.0	dominance	181.56473431716176	
13.0	81.19902343638	pulse	1.0	t		20.0	male	black	2.609629924393156	smiling	043	sub-13	2.0	1.0	043_smiling	1.0	dominance	182.26469063863942	
13.0	81.75724280157124	rating	2.0		294	20.0	male	black	2.609629924393156	smiling	043	sub-13	2.0	1.0	043_smiling	1.0	dominance	182.82291000383066	2.4999744931917576
13.0	81.89902956405103	pulse	2.0	t		20.0	male	black	2.609629924393156	smiling	043	sub-13	2.0	1.0	043_smiling	1.0	dominance	182.96469676631045	
13.0	82.59901908965753	pulse	2.0	t		20.0	male	black	2.609629924393156	smiling	043	sub-13	2.0	1.0	043_smiling	1.0	dominance	183.66468629191695	
13.0	83.07400566462456	response	2.0	y		20.0	male	black	2.609629924393156	smiling	043	sub-13	2.0	1.0	043_smiling	1.0	dominance	184.13967286688398	
13.0	83.2989920131995	pulse	2.0	t		20.0	male	black	2.609629924393156	smiling	043	sub-13	2.0	1.0	043_smiling	1.0	dominance	184.36465921545891	
13.0	83.99897580354764	pulse	2.0	t		20.0	male	black	2.609629924393156	smiling	043	sub-13	2.0	1.0	043_smiling	1.0	dominance	185.06464300580706	
13.0	84.257217294763	fix	3.0		444	20.0	male	black	2.609629924393156	smiling	043	sub-13	2.0	1.0	043_smiling	1.0	dominance	185.32288449702241	3.7665822174985806
13.0	84.69896110317404	pulse	3.0	t		20.0	male	black	2.609629924393156	smiling	043	sub-13	2.0	1.0	043_smiling	1.0	dominance	185.76462830543346	
13.0	85.3989412712533	pulse	3.0	t		20.0	male	black	2.609629924393156	smiling	043	sub-13	2.0	1.0	043_smiling	1.0	dominance	186.46460847351273	
13.0	86.09894347480008	pulse	3.0	t		20.0	male	black	2.609629924393156	smiling	043	sub-13	2.0	1.0	043_smiling	1.0	dominance	187.1646106770595	
13.0	86.79892334102374	pulse	3.0	t		20.0	male	black	2.609629924393156	smiling	043	sub-13	2.0	1.0	043_smiling	1.0	dominance	187.86459054328316	
13.0	87.49893550580919	pulse	3.0	t		20.0	male	black	2.609629924393156	smiling	043	sub-13	2.0	1.0	043_smiling	1.0	dominance	188.5646027080686	
14.0	88.02379951226158	face	0.0		145	30.0	female	black	2.7345801830481498	neutral	062	sub-13	2.0	1.0	062_neutral	1.0	dominance	189.089466714521	1.233330848054493
14.0	88.19890510893833	pulse	0.0	t		30.0	female	black	2.7345801830481498	neutral	062	sub-13	2.0	1.0	062_neutral	1.0	dominance	189.26457231119775	
14.0	88.89889010670913	pulse	0.0	t		30.0	female	black	2.7345801830481498	neutral	062	sub-13	2.0	1.0	062_neutral	1.0	dominance	189.96455730896855	
14.0	89.25713036031607	fix	1.0		177	30.0	female	black	2.7345801830481498	neutral	062	sub-13	2.0	1.0	062_neutral	1.0	dominance	190.3227975625755	1.4999732857691015
14.0	89.59887902860419	pulse	1.0	t		30.0	female	black	2.7345801830481498	neutral	062	sub-13	2.0	1.0	062_neutral	1.0	dominance	190.6645462308636	
14.0	90.29888787297682	pulse	1.0	t		30.0	female	black	2.7345801830481498	neutral	062	sub-13	2.0	1.0	062_neutral	1.0	dominance	191.36455507523624	
14.0	90.75710364608517	rating	2.0		294	30.0	female	black	2.7345801830481498	neutral	062	sub-13	2.0	1.0	062_neutral	1.0	dominance	191.8227708483446	2.4999415909185245
14.0	90.99886834291169	pulse	2.0	t		30.0	female	black	2.7345801830481498	neutral	062	sub-13	2.0	1.0	062_neutral	1.0	dominance	192.0645355451711	
14.0	91.6988521332596	pulse	2.0	t		30.0	female	black	2.7345801830481498	neutral	062	sub-13	2.0	1.0	062_neutral	1.0	dominance	192.76451933551903	
14.0	92.25191399164646	response	2.0	g		30.0	female	black	2.7345801830481498	neutral	062	sub-13	2.0	1.0	062_neutral	1.0	dominance	193.31758119390588	
14.0	92.39884769598075	pulse	2.0	t		30.0	female	black	2.7345801830481498	neutral	062	sub-13	2.0	1.0	062_neutral	1.0	dominance	193.46451489824017	
14.0	93.0988290714829	pulse	2.0	t		30.0	female	black	2.7345801830481498	neutral	062	sub-13	2.0	1.0	062_neutral	1.0	dominance	194.16449627374232	
14.0	93.2570452370037	fix	3.0		444	30.0	female	black	2.7345801830481498	neutral	062	sub-13	2.0	1.0	062_neutral	1.0	dominance	194.3227124392631	3.7665948954386295
14.0	93.7988140692537	pulse	3.0	t		30.0	female	black	2.7345801830481498	neutral	062	sub-13	2.0	1.0	062_neutral	1.0	dominance	194.8644812715131	
14.0	94.49880812269589	pulse	3.0	t		30.0	female	black	2.7345801830481498	neutral	062	sub-13	2.0	1.0	062_neutral	1.0	dominance	195.5644753249553	
14.0	95.19879010190948	pulse	3.0	t		30.0	female	black	2.7345801830481498	neutral	062	sub-13	2.0	1.0	062_neutral	1.0	dominance	196.2644573041689	
14.0	95.89878596648623	pulse	3.0	t		30.0	female	black	2.7345801830481498	neutral	062	sub-13	2.0	1.0	062_neutral	1.0	dominance	196.96445316874565	
14.0	96.59875496590394	pulse	3.0	t		30.0	female	black	2.7345801830481498	neutral	062	sub-13	2.0	1.0	062_neutral	1.0	dominance	197.66442216816336	
15.0	97.02364013244232	face	0.0		145	28.0	female	white	5.676880222841227	neutral	124	sub-13	2.0	1.0	124_neutral	0.0		198.08930733470174	1.2333305461988857
15.0	97.29876290470929	pulse	0.0	t		28.0	female	white	5.676880222841227	neutral	124	sub-13	2.0	1.0	124_neutral	0.0		198.3644301069687	
15.0	97.99874699691304	pulse	0.0	t		28.0	female	white	5.676880222841227	neutral	124	sub-13	2.0	1.0	124_neutral	0.0		199.06441419917246	
15.0	98.25697067864121	fix	1.0		445	28.0	female	white	5.676880222841227	neutral	124	sub-13	2.0	1.0	124_neutral	0.0		199.32263788090063	3.7665674265681446
15.0	98.69873833365386	pulse	1.0	t		28.0	female	white	5.676880222841227	neutral	124	sub-13	2.0	1.0	124_neutral	0.0		199.76440553591328	
15.0	99.39871699245464	pulse	1.0	t		28.0	female	white	5.676880222841227	neutral	124	sub-13	2.0	1.0	124_neutral	0.0		200.46438419471406	
15.0	100.09874002404581	pulse	1.0	t		28.0	female	white	5.676880222841227	neutral	124	sub-13	2.0	1.0	124_neutral	0.0		201.16440722630523	
15.0	100.79868910098617	pulse	1.0	t		28.0	female	white	5.676880222841227	neutral	124	sub-13	2.0	1.0	124_neutral	0.0		201.8643563032456	
15.0	101.4986747024684	pulse	1.0	t		28.0	female	white	5.676880222841227	neutral	124	sub-13	2.0	1.0	124_neutral	0.0		202.56434190472783	
16.0	102.02353810520935	face	0.0		145	31.0	female	east_asian	3.395941106247513	smiling	087	sub-13	2.0	1.0	087_smiling	0.0		203.08920530746877	1.2333426204277202
16.0	102.19868143385088	pulse	0.0	t		31.0	female	east_asian	3.395941106247513	smiling	087	sub-13	2.0	1.0	087_smiling	0.0		203.2643486361103	
16.0	102.89866431863175	pulse	0.0	t		31.0	female	east_asian	3.395941106247513	smiling	087	sub-13	2.0	1.0	087_smiling	0.0		203.96433152089116	
16.0	103.25688072563707	fix	1.0		445	31.0	female	east_asian	3.395941106247513	smiling	087	sub-13	2.0	1.0	087_smiling	0.0		204.3225479278965	3.7665873490457216
16.0	103.59864267557668	pulse	1.0	t		31.0	female	east_asian	3.395941106247513	smiling	087	sub-13	2.0	1.0	087_smiling	0.0		204.6643098778361	
16.0	104.29863008819325	pulse	1.0	t		31.0	female	east_asian	3.395941106247513	smiling	087	sub-13	2.0	1.0	087_smiling	0.0		205.36429729045267	
16.0	104.99862685833705	pulse	1.0	t		31.0	female	east_asian	3.395941106247513	smiling	087	sub-13	2.0	1.0	087_smiling	0.0		206.06429406059647	
16.0	105.69861668579938	pulse	1.0	t		31.0	female	east_asian	3.395941106247513	smiling	087	sub-13	2.0	1.0	087_smiling	0.0		206.7642838880588	
16.0	106.39860409841594	pulse	1.0	t		31.0	female	east_asian	3.395941106247513	smiling	087	sub-13	2.0	1.0	087_smiling	0.0		207.46427130067536	
17.0	107.0234680746828	face	0.0		145	19.0	male	white	3.2522881018702745	neutral	018	sub-13	2.0	1.0	018_neutral	0.0		208.08913527694222	1.2332928142341189
17.0	107.09859332216683	pulse	0.0	t		19.0	male	white	3.2522881018702745	neutral	018	sub-13	2.0	1.0	018_neutral	0.0		208.16426052442625	
17.0	107.79856383086303	pulse	0.0	t		19.0	male	white	3.2522881018702745	neutral	018	sub-13	2.0	1.0	018_neutral	0.0		208.86423103312245	
17.0	108.25676088891692	fix	1.0		445	19.0	male	white	3.2522881018702745	neutral	018	sub-13	2.0	1.0	018_neutral	0.0		209.32242809117633	3.7666160253388625
17.0	108.49856452513131	pulse	1.0	t		19.0	male	white	3.2522881018702745	neutral	018	sub-13	2.0	1.0	018_neutral	0.0		209.56423172739073	
17.0	109.19854861733484	pulse	1.0	t		19.0	male	white	3.2522881018702745	neutral	018	sub-13	2.0	1.0	018_neutral	0.0		210.26421581959426	
17.0	109.89853844479717	pulse	1.0	t		19.0	male	white	3.2522881018702745	neutral	018	sub-13	2.0	1.0	018_neutral	0.0		210.9642056470566	
17.0	110.59853038524943	pulse	1.0	t		19.0	male	white	3.2522881018702745	neutral	018	sub-13	2.0	1.0	018_neutral	0.0		211.66419758750885	
17.0	111.2985017995129	pulse	1.0	t		19.0	male	white	3.2522881018702745	neutral	018	sub-13	2.0	1.0	018_neutral	0.0		212.36416900177232	
17.0	111.99849675852238	pulse	1.0	t		19.0	male	white	3.2522881018702745	neutral	018	sub-13	2.0	1.0	018_neutral	0.0		213.0641639607818	
18.0	112.02337691425578	face	0.0		146	54.0	female	white	2.286908077994429	neutral	136	sub-13	2.0	1.0	136_neutral	0.0		213.0890441165152	1.2333278294975116
18.0	112.6984908119648	pulse	0.0	t		54.0	female	white	2.286908077994429	neutral	136	sub-13	2.0	1.0	136_neutral	0.0		213.76415801422422	
18.0	113.25670474375329	fix	1.0		444	54.0	female	white	2.286908077994429	neutral	136	sub-13	2.0	1.0	136_neutral	0.0		214.3223719460127	3.7583029188542696
18.0	113.39848516726283	pulse	1.0	t		54.0	female	white	2.286908077994429	neutral	136	sub-13	2.0	1.0	136_neutral	0.0		214.46415236952225	
18.0	114.09845567595926	pulse	1.0	t		54.0	female	white	2.286908077994429	neutral	136	sub-13	2.0	1.0	136_neutral	0.0		215.16412287821868	
18.0	114.79844852197857	pulse	1.0	t		54.0	female	white	2.286908077994429	neutral	136	sub-13	2.0	1.0	136_neutral	0.0		215.864115724238	
18.0	115.49843231232649	pulse	1.0	t		54.0	female	white	2.286908077994429	neutral	136	sub-13	2.0	1.0	136_neutral	0.0		216.5640995145859	
18.0	116.19841670638584	pulse	1.0	t		54.0	female	white	2.286908077994429	neutral	136	sub-13	2.0	1.0	136_neutral	0.0		217.26408390864526	
18.0	116.89840140230103	pulse	1.0	t		54.0	female	white	2.286908077994429	neutral	136	sub-13	2.0	1.0	136_neutral	0.0		217.96406860456045	
19.0	117.01500766260756	face	0.0		147	27.0	male	black	3.5523278949462798	smiling	042	sub-13	2.0	1.0	042_smiling	0.0		218.08067486486698	1.241610448554411
19.0	117.59840662440502	pulse	0.0	t		27.0	male	black	3.5523278949462798	smiling	042	sub-13	2.0	1.0	042_smiling	0.0		218.66407382666443	
19.0	118.25661811116197	fix	1.0		444	27.0	male	black	3.5523278949462798	smiling	042	sub-13	2.0	1.0	042_smiling	0.0		219.3222853134214	3.7665837267772986
19.0	118.29838498134995	pulse	1.0	t		27.0	male	black	3.5523278949462798	smiling	042	sub-13	2.0	1.0	042_smiling	0.0		219.36405218360937	
19.0	118.99842189830429	pulse	1.0	t		27.0	male	black	3.5523278949462798	smiling	042	sub-13	2.0	1.0	042_smiling	0.0		220.0640891005637	
19.0	119.69833988410551	pulse	1.0	t		27.0	male	black	3.5523278949462798	smiling	042	sub-13	2.0	1.0	042_smiling	0.0		220.76400708636493	
19.0	120.39837861219416	pulse	1.0	t		27.0	male	black	3.5523278949462798	smiling	042	sub-13	2.0	1.0	042_smiling	0.0		221.46404581445358	
19.0	121.09833704666175	pulse	1.0	t		27.0	male	black	3.5523278949462798	smiling	042	sub-13	2.0	1.0	042_smiling	0.0		222.16400424892117	
19.0	121.79832445927832	pulse	1.0	t		27.0	male	black	3.5523278949462798	smiling	042	sub-13	2.0	1.0	042_smiling	0.0		222.86399166153774	
20.0	122.02320183793927	face	0.0		145	24.0	female	east_asian	4.409868682849185	smiling	030	sub-13	2.0	1.0	030_smiling	0.0		223.0888690401987	1.2333263202187936
20.0	122.49832304055644	pulse	0.0	t		24.0	female	east_asian	4.409868682849185	smiling	030	sub-13	2.0	1.0	030_smiling	0.0		223.56399024281586	
20.0	123.19829777523296	pulse	0.0	t		24.0	female	east_asian	4.409868682849185	smiling	030	sub-13	2.0	1.0	030_smiling	0.0		224.26396497749238	
20.0	123.25652815815806	fix	1.0		1186	24.0	female	east_asian	4.409868682849185	smiling	030	sub-13	2.0	1.0	030_smiling	0.0		224.32219536041748	10.016458079334143
20.0	123.89829363980948	pulse	1.0	t		24.0	female	east_asian	4.409868682849185	smiling	030	sub-13	2.0	1.0	030_smiling	0.0		224.9639608420689	
20.0	124.59827924129172	pulse	1.0	t		24.0	female	east_asian	4.409868682849185	smiling	030	sub-13	2.0	1.0	030_smiling	0.0		225.66394644355114	
20.0	125.29825880565954	pulse	1.0	t		24.0	female	east_asian	4.409868682849185	smiling	030	sub-13	2.0	1.0	030_smiling	0.0		226.36392600791896	
20.0	125.99824984054476	pulse	1.0	t		24.0	female	east_asian	4.409868682849185	smiling	030	sub-13	2.0	1.0	030_smiling	0.0		227.06391704280418	
20.0	126.69823876243981	pulse	1.0	t		24.0	female	east_asian	4.409868682849185	smiling	030	sub-13	2.0	1.0	030_smiling	0.0		227.76390596469923	
20.0	127.39823040103647	pulse	1.0	t		24.0	female	east_asian	4.409868682849185	smiling	030	sub-13	2.0	1.0	030_smiling	0.0		228.4638976032959	
20.0	128.0982069468473	pulse	1.0	t		24.0	female	east_asian	4.409868682849185	smiling	030	sub-13	2.0	1.0	030_smiling	0.0		229.16387414910673	
20.0	128.79819285018493	pulse	1.0	t		24.0	female	east_asian	4.409868682849185	smiling	030	sub-13	2.0	1.0	030_smiling	0.0		229.86386005244435	
20.0	129.4981971667221	pulse	1.0	t		24.0	female	east_asian	4.409868682849185	smiling	030	sub-13	2.0	1.0	030_smiling	0.0		230.5638643689815	
20.0	130.1981824663485	pulse	1.0	t		24.0	female	east_asian	4.409868682849185	smiling	030	sub-13	2.0	1.0	030_smiling	0.0		231.26384966860792	
20.0	130.8981722938106	pulse	1.0	t		24.0	female	east_asian	4.409868682849185	smiling	030	sub-13	2.0	1.0	030_smiling	0.0		231.96383949607002	
20.0	131.5981479340544	pulse	1.0	t		24.0	female	east_asian	4.409868682849185	smiling	030	sub-13	2.0	1.0	030_smiling	0.0		232.66381513631381	
20.0	132.29813866708355	pulse	1.0	t		24.0	female	east_asian	4.409868682849185	smiling	030	sub-13	2.0	1.0	030_smiling	0.0		233.36380586934297	
20.0	132.9981330223818	pulse	1.0	t		24.0	female	east_asian	4.409868682849185	smiling	030	sub-13	2.0	1.0	030_smiling	0.0		234.06380022464123	
21.0	133.2729862374922	face	0.0		145	40.0	male	black	2.408674890569041	smiling	061	sub-13	2.0	1.0	061_smiling	0.0		234.33865343975162	1.233326320219021
21.0	133.6981255665455	pulse	0.0	t		40.0	male	black	2.408674890569041	smiling	061	sub-13	2.0	1.0	061_smiling	0.0		234.76379276880493	
21.0	134.39809909379892	pulse	0.0	t		40.0	male	black	2.408674890569041	smiling	061	sub-13	2.0	1.0	061_smiling	0.0		235.46376629605834	
21.0	134.50631255771123	fix	1.0		445	40.0	male	black	2.408674890569041	smiling	061	sub-13	2.0	1.0	061_smiling	0.0		235.57197975997065	3.766585839767231
21.0	135.09812272910176	pulse	1.0	t		40.0	male	black	2.408674890569041	smiling	061	sub-13	2.0	1.0	061_smiling	0.0		236.16378993136118	
21.0	135.79808388027095	pulse	1.0	t		40.0	male	black	2.408674890569041	smiling	061	sub-13	2.0	1.0	061_smiling	0.0		236.86375108253037	
21.0	136.4980332590667	pulse	1.0	t		40.0	male	black	2.408674890569041	smiling	061	sub-13	2.0	1.0	061_smiling	0.0		237.5637004613261	
21.0	137.19804421642948	pulse	1.0	t		40.0	male	black	2.408674890569041	smiling	061	sub-13	2.0	1.0	061_smiling	0.0		238.2637114186889	
21.0	137.89803585502614	pulse	1.0	t		40.0	male	black	2.408674890569041	smiling	061	sub-13	2.0	1.0	061_smiling	0.0		238.96370305728556	
22.0	138.27289839747846	face	0.0		145	40.0	male	black	2.408674890569041	neutral	061	sub-13	2.0	1.0	061_neutral	0.0		239.33856559973788	1.2333447334171979
22.0	138.59803745486124	pulse	0.0	t		40.0	male	black	2.408674890569041	neutral	061	sub-13	2.0	1.0	061_neutral	0.0		239.66370465712066	
22.0	139.29801611366202	pulse	0.0	t		40.0	male	black	2.408674890569041	neutral	061	sub-13	2.0	1.0	061_neutral	0.0		240.36368331592143	
22.0	139.50624313089565	fix	1.0		444	40.0	male	black	2.408674890569041	neutral	061	sub-13	2.0	1.0	061_neutral	0.0		240.57191033315507	3.766567728424434
22.0	139.99800594112412	pulse	1.0	t		40.0	male	black	2.408674890569041	neutral	061	sub-13	2.0	1.0	061_neutral	0.0		241.06367314338354	
22.0	140.6979888259052	pulse	1.0	t		40.0	male	black	2.408674890569041	neutral	061	sub-13	2.0	1.0	061_neutral	0.0		241.76365602816463	
22.0	141.39797654037739	pulse	1.0	t		40.0	male	black	2.408674890569041	neutral	061	sub-13	2.0	1.0	061_neutral	0.0		242.4636437426368	
22.0	142.09796365113834	pulse	1.0	t		40.0	male	black	2.408674890569041	neutral	061	sub-13	2.0	1.0	061_neutral	0.0		243.16363085339776	
22.0	142.79794834705308	pulse	1.0	t		40.0	male	black	2.408674890569041	neutral	061	sub-13	2.0	1.0	061_neutral	0.0		243.8636155493125	
23.0	143.2728108593201	face	0.0		145	26.0	male	white	2.7966573816155993	neutral	117	sub-13	2.0	1.0	117_neutral	0.0		244.3384780615795	1.233320283104149
23.0	143.49794119307262	pulse	0.0	t		26.0	male	white	2.7966573816155993	neutral	117	sub-13	2.0	1.0	117_neutral	0.0		244.56360839533204	
23.0	144.19791743702763	pulse	0.0	t		26.0	male	white	2.7966573816155993	neutral	117	sub-13	2.0	1.0	117_neutral	0.0		245.26358463928705	
23.0	144.50613114242424	fix	1.0		444	26.0	male	white	2.7966573816155993	neutral	117	sub-13	2.0	1.0	117_neutral	0.0		245.57179834468366	3.758273940705294
23.0	144.89791752758447	pulse	1.0	t		26.0	male	white	2.7966573816155993	neutral	117	sub-13	2.0	1.0	117_neutral	0.0		245.9635847298439	
23.0	145.5979121847381	pulse	1.0	t		26.0	male	white	2.7966573816155993	neutral	117	sub-13	2.0	1.0	117_neutral	0.0		246.66357938699753	
23.0	146.297889636116	pulse	1.0	t		26.0	male	white	2.7966573816155993	neutral	117	sub-13	2.0	1.0	117_neutral	0.0		247.36355683837542	
23.0	146.99788700997124	pulse	1.0	t		26.0	male	white	2.7966573816155993	neutral	117	sub-13	2.0	1.0	117_neutral	0.0		248.06355421223066	
23.0	147.6978623483592	pulse	1.0	t		26.0	male	white	2.7966573816155993	neutral	117	sub-13	2.0	1.0	117_neutral	0.0		248.7635295506186	
24.0	148.26440508312953	face	0.0		146	25.0	female	black	3.858336649423	neutral	126	sub-13	2.0	1.0	126_neutral	0.0		249.33007228538895	1.2416614621711233
24.0	148.39787421128858	pulse	0.0	t		25.0	female	black	3.858336649423	neutral	126	sub-13	2.0	1.0	126_neutral	0.0		249.463541413548	
24.0	149.09784653111956	pulse	0.0	t		25.0	female	black	3.858336649423	neutral	126	sub-13	2.0	1.0	126_neutral	0.0		250.16351373337898	
24.0	149.50606654530065	fix	1.0		444	25.0	female	black	3.858336649423	neutral	126	sub-13	2.0	1.0	126_neutral	0.0		250.57173374756007	3.766582821209795
24.0	149.7978393771391	pulse	1.0	t		25.0	female	black	3.858336649423	neutral	126	sub-13	2.0	1.0	126_neutral	0.0		250.86350657939852	
24.0	150.49782678975544	pulse	1.0	t		25.0	female	black	3.858336649423	neutral	126	sub-13	2.0	1.0	126_neutral	0.0		251.56349399201486	
24.0	151.19779729845186	pulse	1.0	t		25.0	female	black	3.858336649423	neutral	126	sub-13	2.0	1.0	126_neutral	0.0		252.26346450071128	
24.0	151.89779376674005	pulse	1.0	t		25.0	female	black	3.858336649423	neutral	126	sub-13	2.0	1.0	126_neutral	0.0		252.96346096899947	
24.0	152.5977784626548	pulse	1.0	t		25.0	female	black	3.858336649423	neutral	126	sub-13	2.0	1.0	126_neutral	0.0		253.6634456649142	
25.0	153.27264936651045	face	0.0		145	36.0	female	white	2.7548746518105847	smiling	011	sub-13	2.0	1.0	011_smiling	0.0		254.33831656876987	1.2333278294972843
25.0	153.29777885506746	pulse	0.0	t		36.0	female	white	2.7548746518105847	smiling	011	sub-13	2.0	1.0	011_smiling	0.0		254.36344605732688	
25.0	153.99776023056938	pulse	0.0	t		36.0	female	white	2.7548746518105847	smiling	011	sub-13	2.0	1.0	011_smiling	0.0		255.0634274328288	
25.0	154.50597719600773	fix	1.0		443	36.0	female	white	2.7548746518105847	smiling	011	sub-13	2.0	1.0	011_smiling	0.0		255.57164439826715	3.766585537911851
25.0	154.6977437190617	pulse	1.0	t		36.0	female	white	2.7548746518105847	smiling	011	sub-13	2.0	1.0	011_smiling	0.0		255.7634109213211	
25.0	155.39774199848398	pulse	1.0	t		36.0	female	white	2.7548746518105847	smiling	011	sub-13	2.0	1.0	011_smiling	0.0		256.4634092007434	
25.0	156.09771673316072	pulse	1.0	t		36.0	female	white	2.7548746518105847	smiling	011	sub-13	2.0	1.0	011_smiling	0.0		257.16338393542014	
25.0	156.79771320144846	pulse	1.0	t		36.0	female	white	2.7548746518105847	smiling	011	sub-13	2.0	1.0	011_smiling	0.0		257.8633804037079	
25.0	157.49770484004512	pulse	1.0	t		36.0	female	white	2.7548746518105847	smiling	011	sub-13	2.0	1.0	011_smiling	0.0		258.56337204230454	
25.0	158.19767866915436	pulse	1.0	t		36.0	female	white	2.7548746518105847	smiling	011	sub-13	2.0	1.0	011_smiling	0.0		259.2633458714138	
26.0	158.27256273391959	face	0.0		146	24.0	female	black	3.0955033824114606	smiling	099	sub-13	2.0	1.0	099_smiling	0.0		259.338229936179	1.233310020009867
26.0	158.89768026898992	pulse	0.0	t		24.0	female	black	3.0955033824114606	smiling	099	sub-13	2.0	1.0	099_smiling	0.0		259.96334747124934	
26.0	159.50587275392945	fix	1.0		443	24.0	female	black	3.0955033824114606	smiling	099	sub-13	2.0	1.0	099_smiling	0.0		260.5715399561889	3.7665861416226107
26.0	159.59765560737742	pulse	1.0	t		24.0	female	black	3.0955033824114606	smiling	099	sub-13	2.0	1.0	099_smiling	0.0		260.66332280963684	
26.0	160.2976550942226	pulse	1.0	t		24.0	female	black	3.0955033824114606	smiling	099	sub-13	2.0	1.0	099_smiling	0.0		261.363322296482	
26.0	160.9976322437451	pulse	1.0	t		24.0	female	black	3.0955033824114606	smiling	099	sub-13	2.0	1.0	099_smiling	0.0		262.0632994460045	
26.0	161.69761180811292	pulse	1.0	t		24.0	female	black	3.0955033824114606	smiling	099	sub-13	2.0	1.0	099_smiling	0.0		262.76327901037234	
26.0	162.3976131060922	pulse	1.0	t		24.0	female	black	3.0955033824114606	smiling	099	sub-13	2.0	1.0	099_smiling	0.0		263.4632803083516	
26.0	163.09758572777855	pulse	1.0	t		24.0	female	black	3.0955033824114606	smiling	099	sub-13	2.0	1.0	099_smiling	0.0		264.16325293003797	
27.0	163.27245889555206	face	0.0		146	19.0	female	white	4.298846000795861	neutral	100	sub-13	2.0	1.0	100_neutral	0.0		264.3381260978115	1.2416837994942398
27.0	163.7975930628727	pulse	0.0	t		19.0	female	white	4.298846000795861	neutral	100	sub-13	2.0	1.0	100_neutral	0.0		264.8632602651321	
27.0	164.49756176043456	pulse	0.0	t		19.0	female	white	4.298846000795861	neutral	100	sub-13	2.0	1.0	100_neutral	0.0		265.563228962694	
27.0	164.5141426950463	fix	1.0		444	19.0	female	white	4.298846000795861	neutral	100	sub-13	2.0	1.0	100_neutral	0.0		265.5798098973057	3.758228360492012
27.0	165.19755792686692	pulse	1.0	t		19.0	female	white	4.298846000795861	neutral	100	sub-13	2.0	1.0	100_neutral	0.0		266.26322512912634	
27.0	165.89755530072216	pulse	1.0	t		19.0	female	white	4.298846000795861	neutral	100	sub-13	2.0	1.0	100_neutral	0.0		266.9632225029816	
27.0	166.59753818550325	pulse	1.0	t		19.0	female	white	4.298846000795861	neutral	100	sub-13	2.0	1.0	100_neutral	0.0		267.6632053877627	
27.0	167.297511109045	pulse	1.0	t		19.0	female	white	4.298846000795861	neutral	100	sub-13	2.0	1.0	100_neutral	0.0		268.3631783113044	
27.0	167.99750335135332	pulse	1.0	t		19.0	female	white	4.298846000795861	neutral	100	sub-13	2.0	1.0	100_neutral	0.0		269.06317055361274	
28.0	168.27237105553831	face	0.0		145	28.0	male	east_asian	1.5563072025467568	smiling	005	sub-13	2.0	1.0	005_smiling	0.0		269.33803825779773	1.2333293387760023
28.0	168.69750404562137	pulse	0.0	t		28.0	male	east_asian	1.5563072025467568	smiling	005	sub-13	2.0	1.0	005_smiling	0.0		269.7631712478808	
28.0	169.39755726278463	pulse	0.0	t		28.0	male	east_asian	1.5563072025467568	smiling	005	sub-13	2.0	1.0	005_smiling	0.0		270.46322446504405	
28.0	169.50570039431432	fix	1.0		445	28.0	male	east_asian	1.5563072025467568	smiling	005	sub-13	2.0	1.0	005_smiling	0.0		270.57136759657374	3.76659851770728
28.0	170.0974906432275	pulse	1.0	t		28.0	male	east_asian	1.5563072025467568	smiling	005	sub-13	2.0	1.0	005_smiling	0.0		271.1631578454869	
28.0	170.7974554166649	pulse	1.0	t		28.0	male	east_asian	1.5563072025467568	smiling	005	sub-13	2.0	1.0	005_smiling	0.0		271.8631226189243	
28.0	171.49744222557	pulse	1.0	t		28.0	male	east_asian	1.5563072025467568	smiling	005	sub-13	2.0	1.0	005_smiling	0.0		272.56310942782943	
28.0	172.19741937509252	pulse	1.0	t		28.0	male	east_asian	1.5563072025467568	smiling	005	sub-13	2.0	1.0	005_smiling	0.0		273.26308657735194	
28.0	172.8974294268878	pulse	1.0	t		28.0	male	east_asian	1.5563072025467568	smiling	005	sub-13	2.0	1.0	005_smiling	0.0		273.96309662914723	
29.0	173.2722989120216	face	0.0		145	22.0	female	white	4.614007162753682	smiling	009	sub-13	2.0	1.0	009_smiling	0.0		274.337966114281	1.233311529288585
29.0	173.59741895249408	pulse	0.0	t		22.0	female	white	4.614007162753682	smiling	009	sub-13	2.0	1.0	009_smiling	0.0		274.6630861547535	
29.0	174.2973961020166	pulse	0.0	t		22.0	female	white	4.614007162753682	smiling	009	sub-13	2.0	1.0	009_smiling	0.0		275.363063304276	
29.0	174.50561044131018	fix	1.0		444	22.0	female	white	4.614007162753682	smiling	009	sub-13	2.0	1.0	009_smiling	0.0		275.5712776435696	3.766600630697212
29.0	174.9973859294787	pulse	1.0	t		22.0	female	white	4.614007162753682	smiling	009	sub-13	2.0	1.0	009_smiling	0.0		276.0630531317381	
29.0	175.69737032353805	pulse	1.0	t		22.0	female	white	4.614007162753682	smiling	009	sub-13	2.0	1.0	009_smiling	0.0		276.7630375257975	
29.0	176.397360452856	pulse	1.0	t		22.0	female	white	4.614007162753682	smiling	009	sub-13	2.0	1.0	009_smiling	0.0		277.4630276551154	
29.0	177.09733579124395	pulse	1.0	t		22.0	female	white	4.614007162753682	smiling	009	sub-13	2.0	1.0	009_smiling	0.0		278.16300299350337	
29.0	177.79734795602917	pulse	1.0	t		22.0	female	white	4.614007162753682	smiling	009	sub-13	2.0	1.0	009_smiling	0.0		278.8630151582886	
30.0	178.2722110720074	face	0.0		145	19.0	male	white	2.243931555909272	neutral	130	sub-13	2.0	1.0	130_neutral	1.0	trustworthiness	279.3378782742668	1.2333278294972843
30.0	178.4973335575114	pulse	0.0	t		19.0	male	white	2.243931555909272	neutral	130	sub-13	2.0	1.0	130_neutral	1.0	trustworthiness	279.56300075977083	
30.0	179.1973209701282	pulse	0.0	t		19.0	male	white	2.243931555909272	neutral	130	sub-13	2.0	1.0	130_neutral	1.0	trustworthiness	280.2629881723876	
30.0	179.50553890150468	fix	1.0		177	19.0	male	white	2.243931555909272	neutral	130	sub-13	2.0	1.0	130_neutral	1.0	trustworthiness	280.5712061037641	1.4999615133961015
30.0	179.89731321243607	pulse	1.0	t		19.0	male	white	2.243931555909272	neutral	130	sub-13	2.0	1.0	130_neutral	1.0	trustworthiness	280.9629804146955	
30.0	180.59729700278422	pulse	1.0	t		19.0	male	white	2.243931555909272	neutral	130	sub-13	2.0	1.0	130_neutral	1.0	trustworthiness	281.66296420504364	
30.0	181.00550041490078	rating	2.0		294	19.0	male	white	2.243931555909272	neutral	130	sub-13	2.0	1.0	130_neutral	1.0	trustworthiness	282.0711676171602	2.4999530614359173
30.0	181.29728713210216	pulse	2.0	t		19.0	male	white	2.243931555909272	neutral	130	sub-13	2.0	1.0	130_neutral	1.0	trustworthiness	282.3629543343616	
30.0	181.9972733372956	pulse	2.0	t		19.0	male	white	2.243931555909272	neutral	130	sub-13	2.0	1.0	130_neutral	1.0	trustworthiness	283.06294053955503	
30.0	182.24726148945865	response	2.0	d		19.0	male	white	2.243931555909272	neutral	130	sub-13	2.0	1.0	130_neutral	1.0	trustworthiness	283.31292869171807	
30.0	182.6972417330021	pulse	2.0	t		19.0	male	white	2.243931555909272	neutral	130	sub-13	2.0	1.0	130_neutral	1.0	trustworthiness	283.7629089352615	
30.0	183.39724484211592	pulse	2.0	t		19.0	male	white	2.243931555909272	neutral	130	sub-13	2.0	1.0	130_neutral	1.0	trustworthiness	284.46291204437534	
30.0	183.5054534763367	fix	3.0		444	19.0	male	white	2.243931555909272	neutral	130	sub-13	2.0	1.0	130_neutral	1.0	trustworthiness	284.5711206785961	3.766583726776844
30.0	184.09723738627963	pulse	3.0	t		19.0	male	white	2.243931555909272	neutral	130	sub-13	2.0	1.0	130_neutral	1.0	trustworthiness	285.16290458853905	
30.0	184.7972199692049	pulse	3.0	t		19.0	male	white	2.243931555909272	neutral	130	sub-13	2.0	1.0	130_neutral	1.0	trustworthiness	285.8628871714643	
30.0	185.49720949481116	pulse	3.0	t		19.0	male	white	2.243931555909272	neutral	130	sub-13	2.0	1.0	130_neutral	1.0	trustworthiness	286.5628766970706	
30.0	186.19719388887052	pulse	3.0	t		19.0	male	white	2.243931555909272	neutral	130	sub-13	2.0	1.0	130_neutral	1.0	trustworthiness	287.26286109112993	
30.0	186.89718220705436	pulse	3.0	t		19.0	male	white	2.243931555909272	neutral	130	sub-13	2.0	1.0	130_neutral	1.0	trustworthiness	287.9628494093138	
31.0	187.27203720311354	face	0.0		145	23.0	male	white	2.6275368085953046	smiling	141	sub-13	2.0	1.0	141_smiling	0.0		288.33770440537296	1.233344431561818
31.0	187.59715965843225	pulse	0.0	t		23.0	male	white	2.6275368085953046	smiling	141	sub-13	2.0	1.0	141_smiling	0.0		288.66282686069167	
31.0	188.2971452599145	pulse	0.0	t		23.0	male	white	2.6275368085953046	smiling	141	sub-13	2.0	1.0	141_smiling	0.0		289.3628124621739	
31.0	188.50538163467536	fix	1.0		444	23.0	male	white	2.6275368085953046	smiling	141	sub-13	2.0	1.0	141_smiling	0.0		289.5710488369348	3.7665822174985806
31.0	188.99715651913266	pulse	1.0	t		23.0	male	white	2.6275368085953046	smiling	141	sub-13	2.0	1.0	141_smiling	0.0		290.0628237213921	
31.0	189.6971375927792	pulse	1.0	t		23.0	male	white	2.6275368085953046	smiling	141	sub-13	2.0	1.0	141_smiling	0.0		290.7628047950386	
31.0	190.39713074065457	pulse	1.0	t		23.0	male	white	2.6275368085953046	smiling	141	sub-13	2.0	1.0	141_smiling	0.0		291.462797942914	
31.0	191.09711060687778	pulse	1.0	t		23.0	male	white	2.6275368085953046	smiling	141	sub-13	2.0	1.0	141_smiling	0.0		292.1627778091372	
31.0	191.7971571832154	pulse	1.0	t		23.0	male	white	2.6275368085953046	smiling	141	sub-13	2.0	1.0	141_smiling	0.0		292.8628243854748	
32.0	192.27196385217394	face	0.0		145	22.0	male	black	2.767608436132113	neutral	044	sub-13	2.0	1.0	044_neutral	0.0		293.33763105443336	1.2333217923833217
32.0	192.49707788571823	pulse	0.0	t		22.0	male	black	2.767608436132113	neutral	044	sub-13	2.0	1.0	044_neutral	0.0		293.56274508797765	
32.0	193.19705956307598	pulse	0.0	t		22.0	male	black	2.767608436132113	neutral	044	sub-13	2.0	1.0	044_neutral	0.0		294.2627267653354	
32.0	193.50528564455726	fix	1.0		444	22.0	male	black	2.767608436132113	neutral	044	sub-13	2.0	1.0	044_neutral	0.0		294.5709528468167	3.7665894620354265
32.0	193.89706176662276	pulse	1.0	t		22.0	male	black	2.767608436132113	neutral	044	sub-13	2.0	1.0	044_neutral	0.0		294.9627289688822	
32.0	194.59704978295076	pulse	1.0	t		22.0	male	black	2.767608436132113	neutral	044	sub-13	2.0	1.0	044_neutral	0.0		295.6627169852102	
32.0	195.29703870484582	pulse	1.0	t		22.0	male	black	2.767608436132113	neutral	044	sub-13	2.0	1.0	044_neutral	0.0		296.36270590710524	
32.0	195.99701947663652	pulse	1.0	t		22.0	male	black	2.767608436132113	neutral	044	sub-13	2.0	1.0	044_neutral	0.0		297.06268667889594	
32.0	196.6970080966762	pulse	1.0	t		22.0	male	black	2.767608436132113	neutral	044	sub-13	2.0	1.0	044_neutral	0.0		297.7626752989356	
33.0	197.2718751065927	face	0.0		145	37.0	male	white	3.898925586947871	smiling	101	sub-13	2.0	1.0	101_smiling	0.0		298.3375423088521	1.233326320219021
33.0	197.3969991315612	pulse	0.0	t		37.0	male	white	3.898925586947871	smiling	101	sub-13	2.0	1.0	101_smiling	0.0		298.4626663338206	
33.0	198.09697567737203	pulse	0.0	t		37.0	male	white	3.898925586947871	smiling	101	sub-13	2.0	1.0	101_smiling	0.0		299.16264287963145	
33.0	198.5052014268117	fix	1.0		444	37.0	male	white	3.898925586947871	smiling	101	sub-13	2.0	1.0	101_smiling	0.0		299.57086862907113	3.7665746711054453
33.0	198.79697546607304	pulse	1.0	t		37.0	male	white	3.898925586947871	smiling	101	sub-13	2.0	1.0	101_smiling	0.0		299.86264266833246	
33.0	199.4969517100276	pulse	1.0	t		37.0	male	white	3.898925586947871	smiling	101	sub-13	2.0	1.0	101_smiling	0.0		300.562618912287	
33.0	200.196933991097	pulse	1.0	t		37.0	male	white	3.898925586947871	smiling	101	sub-13	2.0	1.0	101_smiling	0.0		301.26260119335643	
33.0	200.89692925196232	pulse	1.0	t		37.0	male	white	3.898925586947871	smiling	101	sub-13	2.0	1.0	101_smiling	0.0		301.96259645422174	
33.0	201.59692058870314	pulse	1.0	t		37.0	male	white	3.898925586947871	smiling	101	sub-13	2.0	1.0	101_smiling	0.0		302.66258779096256	
34.0	202.27177609791715	face	0.0		145	31.0	female	east_asian	3.395941106247513	neutral	087	sub-13	2.0	1.0	087_neutral	0.0		303.3374433001766	1.233328735064788
34.0	202.2969167551355	pulse	0.0	t		31.0	female	east_asian	3.395941106247513	neutral	087	sub-13	2.0	1.0	087_neutral	0.0		303.3625839573949	
34.0	202.99690114919485	pulse	0.0	t		31.0	female	east_asian	3.395941106247513	neutral	087	sub-13	2.0	1.0	087_neutral	0.0		304.0625683514543	
34.0	203.50510483298194	fix	1.0		443	31.0	female	east_asian	3.395941106247513	neutral	087	sub-13	2.0	1.0	087_neutral	0.0		304.57077203524136	3.766594593582795
34.0	203.69688252469723	pulse	1.0	t		31.0	female	east_asian	3.395941106247513	neutral	087	sub-13	2.0	1.0	087_neutral	0.0		304.76254972695665	
34.0	204.39687446514927	pulse	1.0	t		31.0	female	east_asian	3.395941106247513	neutral	087	sub-13	2.0	1.0	087_neutral	0.0		305.4625416674087	
34.0	205.09687485756194	pulse	1.0	t		31.0	female	east_asian	3.395941106247513	neutral	087	sub-13	2.0	1.0	087_neutral	0.0		306.16254205982136	
34.0	205.79686800543686	pulse	1.0	t		31.0	female	east_asian	3.395941106247513	neutral	087	sub-13	2.0	1.0	087_neutral	0.0		306.8625352076963	
34.0	206.4968327788747	pulse	1.0	t		31.0	female	east_asian	3.395941106247513	neutral	087	sub-13	2.0	1.0	087_neutral	0.0		307.5624999811341	
34.0	207.19681415437708	pulse	1.0	t		31.0	female	east_asian	3.395941106247513	neutral	087	sub-13	2.0	1.0	087_neutral	0.0		308.2624813566365	
35.0	207.27169942656474	face	0.0		146	19.0	male	white	2.243931555909272	smiling	130	sub-13	2.0	1.0	130_smiling	0.0		308.33736662882416	1.23332722578607
35.0	207.89700803630467	pulse	0.0	t		19.0	male	white	2.243931555909272	smiling	130	sub-13	2.0	1.0	130_smiling	0.0		308.9626752385641	
35.0	208.5050266523508	fix	1.0		443	19.0	male	white	2.243931555909272	smiling	130	sub-13	2.0	1.0	130_smiling	0.0		309.5706938546102	3.766582821209795
35.0	208.5968010538386	pulse	1.0	t		19.0	male	white	2.243931555909272	smiling	130	sub-13	2.0	1.0	130_smiling	0.0		309.662468256098	
35.0	209.29678484418673	pulse	1.0	t		19.0	male	white	2.243931555909272	smiling	130	sub-13	2.0	1.0	130_smiling	0.0		310.36245204644615	
35.0	209.9967607862859	pulse	1.0	t		19.0	male	white	2.243931555909272	smiling	130	sub-13	2.0	1.0	130_smiling	0.0		311.0624279885453	
35.0	210.69675634900705	pulse	1.0	t		19.0	male	white	2.243931555909272	smiling	130	sub-13	2.0	1.0	130_smiling	0.0		311.76242355126647	
35.0	211.39675764698632	pulse	1.0	t		19.0	male	white	2.243931555909272	smiling	130	sub-13	2.0	1.0	130_smiling	0.0		312.46242484924574	
35.0	212.0967290612498	pulse	1.0	t		19.0	male	white	2.243931555909272	smiling	130	sub-13	2.0	1.0	130_smiling	0.0		313.1623962635092	
36.0	212.2716094735606	face	0.0		146	24.0	female	east_asian	2.9076800636689217	smiling	034	sub-13	2.0	1.0	034_smiling	0.0		313.33727667582	1.2416641788727247
36.0	212.7967270388167	pulse	0.0	t		24.0	female	east_asian	2.9076800636689217	smiling	034	sub-13	2.0	1.0	034_smiling	0.0		313.8623942410761	
36.0	213.49671445143304	pulse	0.0	t		24.0	female	east_asian	2.9076800636689217	smiling	034	sub-13	2.0	1.0	034_smiling	0.0		314.56238165369246	
36.0	213.51327365243333	fix	1.0		444	24.0	female	east_asian	2.9076800636689217	smiling	034	sub-13	2.0	1.0	034_smiling	0.0		314.57894085469275	3.7582485848247416
36.0	214.1966903935322	pulse	1.0	t		24.0	female	east_asian	2.9076800636689217	smiling	034	sub-13	2.0	1.0	034_smiling	0.0		315.2623575957916	
36.0	214.89668927666617	pulse	1.0	t		24.0	female	east_asian	2.9076800636689217	smiling	034	sub-13	2.0	1.0	034_smiling	0.0		315.9623564789256	
36.0	215.59667759485	pulse	1.0	t		24.0	female	east_asian	2.9076800636689217	smiling	034	sub-13	2.0	1.0	034_smiling	0.0		316.6623447971094	
36.0	216.29665444251623	pulse	1.0	t		24.0	female	east_asian	2.9076800636689217	smiling	034	sub-13	2.0	1.0	034_smiling	0.0		317.36232164477565	
36.0	216.99664487369	pulse	1.0	t		24.0	female	east_asian	2.9076800636689217	smiling	034	sub-13	2.0	1.0	034_smiling	0.0		318.0623120759494	
37.0	217.27152223725807	face	0.0		145	30.0	female	black	2.7345801830481498	smiling	062	sub-13	2.0	1.0	062_smiling	0.0		318.3371894395175	1.2333314517659346
37.0	217.6966295696052	pulse	0.0	t		30.0	female	black	2.7345801830481498	smiling	062	sub-13	2.0	1.0	062_smiling	0.0		318.7622967718646	
37.0	218.39663237686318	pulse	0.0	t		30.0	female	black	2.7345801830481498	smiling	062	sub-13	2.0	1.0	062_smiling	0.0		319.4622995791226	
37.0	218.504853689024	fix	1.0		444	30.0	female	black	2.7345801830481498	smiling	062	sub-13	2.0	1.0	062_smiling	0.0		319.5705208912834	3.7665804063644828
37.0	219.09661495978844	pulse	1.0	t		30.0	female	black	2.7345801830481498	smiling	062	sub-13	2.0	1.0	062_smiling	0.0		320.16228216204786	
37.0	219.79659512786748	pulse	1.0	t		30.0	female	black	2.7345801830481498	smiling	062	sub-13	2.0	1.0	062_smiling	0.0		320.8622623301269	
37.0	220.49659310543439	pulse	1.0	t		30.0	female	black	2.7345801830481498	smiling	062	sub-13	2.0	1.0	062_smiling	0.0		321.5622603076938	
37.0	221.19656150114042	pulse	1.0	t		30.0	female	black	2.7345801830481498	smiling	062	sub-13	2.0	1.0	062_smiling	0.0		322.26222870339984	
37.0	221.89652295416545	pulse	1.0	t		30.0	female	black	2.7345801830481498	smiling	062	sub-13	2.0	1.0	062_smiling	0.0		322.96219015642487	
38.0	222.27143409538849	face	0.0		145	27.0	female	white	3.504576203740549	smiling	144	sub-13	2.0	1.0	144_smiling	0.0		323.3371012976479	1.2333275276414497
38.0	222.5965752657612	pulse	0.0	t		27.0	female	white	3.504576203740549	smiling	144	sub-13	2.0	1.0	144_smiling	0.0		323.6622424680206	
38.0	223.29653098352765	pulse	0.0	t		27.0	female	white	3.504576203740549	smiling	144	sub-13	2.0	1.0	144_smiling	0.0		324.36219818578707	
38.0	223.50476162302994	fix	1.0		444	27.0	female	white	3.504576203740549	smiling	144	sub-13	2.0	1.0	144_smiling	0.0		324.57042882528935	3.7665837267772986
38.0	223.99653047037282	pulse	1.0	t		27.0	female	white	3.504576203740549	smiling	144	sub-13	2.0	1.0	144_smiling	0.0		325.06219767263224	
38.0	224.69653086278504	pulse	1.0	t		27.0	female	white	3.504576203740549	smiling	144	sub-13	2.0	1.0	144_smiling	0.0		325.76219806504446	
38.0	225.39660883211718	pulse	1.0	t		27.0	female	white	3.504576203740549	smiling	144	sub-13	2.0	1.0	144_smiling	0.0		326.4622760343766	
38.0	226.09648667110787	pulse	1.0	t		27.0	female	white	3.504576203740549	smiling	144	sub-13	2.0	1.0	144_smiling	0.0		327.1621538733673	
38.0	226.79648042269446	pulse	1.0	t		27.0	female	white	3.504576203740549	smiling	144	sub-13	2.0	1.0	144_smiling	0.0		327.8621476249539	
39.0	227.27134534980723	face	0.0		145	22.0	female	west_asian	3.8205332272184642	neutral	066	sub-13	2.0	1.0	066_neutral	0.0		328.33701255206665	1.2333133404226828
39.0	227.49646119448562	pulse	0.0	t		22.0	female	west_asian	3.8205332272184642	neutral	066	sub-13	2.0	1.0	066_neutral	0.0		328.56212839674504	
39.0	228.19644407926626	pulse	0.0	t		22.0	female	west_asian	3.8205332272184642	neutral	066	sub-13	2.0	1.0	066_neutral	0.0		329.2621112815257	
39.0	228.50465869022992	fix	1.0		444	22.0	female	west_asian	3.8205332272184642	neutral	066	sub-13	2.0	1.0	066_neutral	0.0		329.57032589248934	3.749948156280425
39.0	228.89643239744964	pulse	1.0	t		22.0	female	west_asian	3.8205332272184642	neutral	066	sub-13	2.0	1.0	066_neutral	0.0		329.96209959970906	
39.0	229.59642131934515	pulse	1.0	t		22.0	female	west_asian	3.8205332272184642	neutral	066	sub-13	2.0	1.0	066_neutral	0.0		330.6620885216046	
39.0	230.29641627835463	pulse	1.0	t		22.0	female	west_asian	3.8205332272184642	neutral	066	sub-13	2.0	1.0	066_neutral	0.0		331.36208348061405	
39.0	230.99639855942405	pulse	1.0	t		22.0	female	west_asian	3.8205332272184642	neutral	066	sub-13	2.0	1.0	066_neutral	0.0		332.06206576168347	
39.0	231.69638899059737	pulse	1.0	t		22.0	female	west_asian	3.8205332272184642	neutral	066	sub-13	2.0	1.0	066_neutral	0.0		332.7620561928568	
40.0	232.25460684651034	fix	0.0		720													333.32027404876976	5.999895256065884
40.0	232.3963890811542	pulse	0.0	t														333.46205628341363	
40.0	233.09634540263187	pulse	0.0	t														334.1620126048913	
40.0	233.79634398391	pulse	0.0	t														334.8620111861694	
40.0	234.49633954663068	pulse	0.0	t														335.5620067488901	
40.0	235.19633058151612	pulse	0.0	t														336.26199778377554	
40.0	235.8963155792867	pulse	0.0	t														336.9619827815461	
40.0	236.59630299190349	pulse	0.0	t														337.6619701941629	
40.0	237.29628859338573	pulse	0.0	t														338.36195579564514	
40.0	237.99628143940527	pulse	0.0	t														339.0619486416647	
