trial_nr	onset	event_type	phase	response	nr_frames	rating_type	face_id	repetition	session	rating	onset_abs	duration
0.0	0.009265486449294258	cue	0.0		479						43.5528357610674	3.992140863163513
0.0	4.001406349612807	fix	1.0		120						47.54497662423091	1.041815884416792
0.0	5.043222234029599	face	0.0		144	dominance	012	1.0	1		48.586792508647704	1.2586705272096879
0.0	6.301892761239287	rating	1.0		465	dominance	012	1.0	1		49.84546303585739	3.8835989872113714
0.0	10.185491748450659	fix	2.0		60	dominance	012	1.0	1	0.3799999999999999	53.729062023068764	0.5167231540872308
1.0	10.70221490253789	face	0.0		147	dominance	042	1.0	1		54.245785177155994	1.2334929751941672
1.0	11.935707877732057	rating	1.0		666	dominance	042	1.0	1		55.47927815235016	5.558998162297939
1.0	17.494706040029996	fix	2.0		60	dominance	042	1.0	1	-1.5499999999999998	61.0382763146481	0.5083970451851201
2.0	18.003103085215116	face	0.0		148	dominance	091	1.0	1		61.54667335983322	1.2418184803827899
2.0	19.244921565597906	rating	1.0		184	dominance	091	1.0	1		62.78849184021601	1.5418527109122806
2.0	20.786774276510187	fix	2.0		60	dominance	091	1.0	1	-3.64	64.33034455112829	0.5167497174625169
3.0	21.303523993972703	face	0.0		147	dominance	064	1.0	1		64.84709426859081	1.2334621858281025
3.0	22.536986179800806	rating	1.0		157	dominance	064	1.0	1		66.08055645441891	1.3168243967702438
3.0	23.85381057657105	fix	2.0		60	dominance	064	1.0	1	-3.17	67.39738085118915	0.5084691888987436
4.0	24.362279765469793	face	0.0		148	dominance	039	1.0	1		67.9058500400879	1.2417363754029793
4.0	25.604016140872773	rating	1.0		498	dominance	039	1.0	1		69.14758641549088	4.158840834670627
4.0	29.7628569755434	fix	2.0		60	dominance	039	1.0	1	0.3700000000000001	73.3064272501615	0.5084151565788488
5.0	30.27127213212225	face	0.0		148	dominance	038	1.0	1		73.81484240674035	1.2417895021535514
5.0	31.5130616342758	rating	1.0		150	dominance	038	1.0	1		75.0566319088939	1.258484281726851
5.0	32.77154591600265	fix	2.0		60	dominance	038	1.0	1	1.38	76.31511619062076	0.5167545471667836
6.0	33.288300463169435	face	0.0		147	dominance	024	1.0	1		76.83187073778754	1.2334612802587799
6.0	34.521761743428215	rating	1.0		145	dominance	024	1.0	1		78.06533201804632	1.2168190237225645
6.0	35.73858076715078	fix	2.0		60	dominance	024	1.0	1	1.12	79.28215104176888	0.5167445859005966
7.0	36.255325353051376	face	0.0		147	dominance	009	1.0	1		79.79889562766948	1.2334597709759691
7.0	37.488785124027345	rating	1.0		60	dominance	009	1.0	1		81.03235539864545	0.5084003656083951
7.0	37.99718548963574	fix	2.0		60	dominance	009	1.0	1	-0.98	81.54075576425384	0.5167551508802717
8.0	38.51394064051601	face	0.0		147	dominance	018	1.0	1		82.05751091513412	1.2334579598355049
8.0	39.74739860035152	rating	1.0		86	dominance	018	1.0	1		83.29096887496962	0.7250772149036493
8.0	40.472475815255166	fix	2.0		60	dominance	018	1.0	1	0.41999999999999993	84.01604608987327	0.516753641597461
9.0	40.98922945685263	face	0.0		147	dominance	043	1.0	1		84.53279973147073	1.2334594691183156
9.0	42.22268892597094	rating	1.0		93	dominance	043	1.0	1		85.76625920058905	0.7834345357696293
9.0	43.00612346174057	fix	2.0		60	dominance	043	1.0	1	-0.8999999999999999	86.54969373635868	0.5167554527361062
10.0	43.52287891447668	face	0.0		147	dominance	126	1.0	1		87.06644918909478	1.2334567524103477
10.0	44.756335666887026	rating	1.0		84	dominance	126	1.0	1		88.29990594150513	0.7084180544006813
10.0	45.46475372128771	fix	2.0		60	dominance	126	1.0	1	-0.9500000000000002	89.00832399590581	0.5167460951834073
11.0	45.981499816471114	face	0.0		147	dominance	066	1.0	1		89.52507009108922	1.2334673173900228
11.0	47.21496713386114	rating	1.0		88	dominance	066	1.0	1		90.75853740847924	0.7417463366691663
11.0	47.9567134705303	fix	2.0		60	dominance	066	1.0	1	0.9199999999999999	91.50028374514841	0.5167539434532955
12.0	48.4734674139836	face	0.0		147	dominance	030	1.0	1		92.0170376886017	1.2334600728318037
12.0	49.7069274868154	rating	1.0		122	dominance	030	1.0	1		93.25049776143351	1.0251226141263032
12.0	50.732050100941706	fix	2.0		60	dominance	030	1.0	1	0.4900000000000002	94.27562037555981	0.5167521323146502
13.0	51.248802233256356	face	0.0		147	dominance	062	1.0	1		94.79237250787446	1.2334609784011263
13.0	52.48226321165748	rating	1.0		251	dominance	062	1.0	1		96.02583348627559	2.100257725112897
13.0	54.58252093677038	fix	2.0		60	dominance	062	1.0	1	1.42	98.12609121138848	0.5167539434532955
14.0	55.099274880223675	face	0.0		147	dominance	124	1.0	1		98.64284515484178	1.2334603746894572
14.0	56.33273525491313	rating	1.0		216	dominance	124	1.0	1		99.87630552953124	1.8085414533543371
14.0	58.14127670826747	fix	2.0		60	dominance	124	1.0	1	1.0199999999999996	101.68484698288557	0.516757565732405
15.0	58.658034273999874	face	0.0		147	dominance	172	1.0	1		102.20160454861798	1.2334627895397716
15.0	59.891497063539646	rating	1.0		104	dominance	172	1.0	1		103.43506733815775	0.8751020275103656
15.0	60.76659909105001	fix	2.0		60	dominance	172	1.0	1	2.25	104.31016936566812	0.516750321176005
16.0	61.283349412226016	face	0.0		147	dominance	082	1.0	1		104.82691968684412	1.2334564505526942
16.0	62.51680586277871	rating	1.0		95	dominance	082	1.0	1		106.06037613739682	0.8000949036959355
16.0	63.316900766474646	fix	2.0		60	dominance	082	1.0	1	-0.98	106.86047104109275	0.5167524341704848
17.0	63.83365320064513	face	0.0		147	dominance	033	1.0	1		107.37722347526324	1.233479089794855
17.0	65.06713229043999	rating	1.0		73	dominance	033	1.0	1		108.61070256505809	0.6167224900018482
17.0	65.68385478044183	fix	2.0		60	dominance	033	1.0	1	1.4699999999999998	109.22742505505994	0.516753641597461
18.0	66.2006084220393	face	0.0		147	dominance	070	1.0	1		109.7441786966574	1.2334594691183156
18.0	67.43406789115761	rating	1.0		80	dominance	070	1.0	1		110.97763816577572	0.6750810182966234
18.0	68.10914890945423	fix	2.0		60	dominance	070	1.0	1	1.4800000000000004	111.65271918407234	0.5167584713017277
19.0	68.62590738075596	face	0.0		147	dominance	144	1.0	1		112.16947765537407	1.233465204391905
19.0	69.85937258514787	rating	1.0		59	dominance	144	1.0	1		113.40294285976597	0.5000504100426042
19.0	70.35942299519047	fix	2.0		60	dominance	144	1.0	1	-0.9199999999999999	113.90299326980858	0.516760282440373
20.0	70.87618327763084	face	0.0		147	dominance	136	1.0	1		114.41975355224895	1.233455243127537
20.0	72.10963852075838	rating	1.0		168	dominance	136	1.0	1		115.65320879537649	1.4085024534906552
20.0	73.51814097424904	fix	2.0		60	dominance	136	1.0	1	-2.2800000000000002	117.06171124886714	0.516750321174186
21.0	74.03489129542322	face	0.0		147	dominance	034	1.0	1		117.57846157004133	1.2334621858281025
21.0	75.26835348125132	rating	1.0		54	dominance	034	1.0	1		118.81192375586943	0.4583791149088938
21.0	75.72673259616022	fix	2.0		60	dominance	034	1.0	1	-1.0699999999999998	119.27030287077832	0.5167530378839729
22.0	76.24348563404419	face	0.0		147	dominance	061	1.0	1		119.7870559086623	1.23346852481518
22.0	77.47695415885937	rating	1.0		385	dominance	061	1.0	1		121.02052443347748	3.217045416127803
22.0	80.69399957498717	fix	2.0		60	dominance	061	1.0	1	1.92	124.23756984960528	0.5167587731575622
23.0	81.21075834814474	face	0.0		147	dominance	005	1.0	1		124.75432862276284	1.2334597709759691
23.0	82.4442181191207	rating	1.0		148	dominance	005	1.0	1		125.98778839373881	1.2418151599595149
23.0	83.68603327908022	fix	2.0		60	dominance	005	1.0	1	-1.19	127.22960355369833	0.5167533397416264
24.0	84.20278661882185	face	0.0		147	dominance	006	1.0	1		127.74635689343995	1.2334576579796703
24.0	85.43624427680152	rating	1.0		116	dominance	006	1.0	1		128.97981455141962	0.9751176636782475
24.0	86.41136194047976	fix	2.0		60	dominance	006	1.0	1	1.13	129.95493221509787	0.5167479063220526
25.0	86.92810984680182	face	0.0		147	dominance	117	1.0	1		130.47168012141992	1.2334600728318037
25.0	88.16156991963362	rating	1.0		106	dominance	117	1.0	1		131.70514019425173	0.8917732622721815
25.0	89.0533431819058	fix	2.0		60	dominance	117	1.0	1	1.4299999999999997	132.5969134565239	0.5167563583072479
26.0	89.57009954021305	face	0.0		147	dominance	130	1.0	1		133.11366981483116	1.2334564505526942
26.0	90.80355599076574	rating	1.0		205	dominance	130	1.0	1		134.34712626538385	1.7168803006006783
26.0	92.52043629136642	fix	2.0		60	dominance	130	1.0	1	-2.26	136.06400656598453	0.5167421710502822
27.0	93.0371784624167	face	0.0		147	dominance	121	1.0	1		136.5807487370348	1.233469128526849
27.0	94.27064759094355	rating	1.0		55	dominance	121	1.0	1		137.81421786556166	0.46672031663547386
27.0	94.73736790757903	fix	2.0		60	dominance	121	1.0	1	1.1500000000000004	138.28093818219713	0.5167521323146502
28.0	95.25412003989368	face	0.0		147	dominance	092	1.0	1		138.79769031451178	1.2334630913974252
28.0	96.4875831312911	rating	1.0		59	dominance	092	1.0	1		140.0311534059092	0.5000573527431698
28.0	96.98764048403427	fix	2.0		60	dominance	092	1.0	1	-1.81	140.53121075865238	0.516744284044762
29.0	97.50438476807903	face	0.0		147	dominance	101	1.0	1		141.04795504269714	1.2334676192440384
29.0	98.73785238732307	rating	1.0		63	dominance	101	1.0	1		142.28142266194118	0.5333965018453455
29.0	99.27124888916842	fix	2.0		60	dominance	101	1.0	1	1.2599999999999998	142.81481916378652	0.5167533397416264
30.0	99.78800222891005	face	0.0		147	dominance	011	1.0	1		143.33157250352815	1.2334594691183156
30.0	101.02146169802836	rating	1.0		52	dominance	011	1.0	1		144.56503197264647	0.44171874698076863
30.0	101.46318044500913	fix	2.0		60	dominance	011	1.0	1	1.67	145.00675071962723	0.5167454914717382
31.0	101.97992593648087	face	0.0		147	dominance	100	1.0	1		145.52349621109897	1.2334621858281025
31.0	103.21338812230897	rating	1.0		58	dominance	100	1.0	1		146.75695839692708	0.49172550856746966
31.0	103.70511363087644	fix	2.0		60	dominance	100	1.0	1	-1.4900000000000002	147.24868390549454	0.5167554527361062
32.0	104.22186908361255	face	0.0		147	dominance	102	1.0	1		147.76543935823065	1.2334920696248446
32.0	105.45536115323739	rating	1.0		333	dominance	102	1.0	1		148.9989314278555	2.783640100071352
32.0	108.23900125330874	fix	2.0		60	dominance	102	1.0	1	1.2999999999999998	151.78257152792685	0.5167506230318395
33.0	108.75575187634058	face	0.0		147	dominance	099	1.0	1		152.2993221509587	1.2334600728318037
33.0	109.98921194917239	rating	1.0		54	dominance	099	1.0	1		153.5327822237905	0.4583827371880034
33.0	110.44759468636039	fix	2.0		60	dominance	099	1.0	1	-1.4900000000000002	153.9911649609785	0.5167581694440742
34.0	110.96435285580446	face	0.0		147	dominance	044	1.0	1		154.50792313042257	1.2334633932550787
34.0	112.19781624905954	rating	1.0		124	dominance	044	1.0	1		155.74138652367765	1.041777246777201
34.0	113.23959349583674	fix	2.0		60	dominance	044	1.0	1	0.79	156.78316377045485	0.5167590750152158
35.0	113.75635257085196	face	0.0		147	dominance	027	1.0	1		157.29992284547006	1.2334570542661822
35.0	114.98980962511814	rating	1.0		59	dominance	027	1.0	1		158.53337989973625	0.5000552397468709
35.0	115.48986486486501	fix	2.0		60	dominance	027	1.0	1	-1.65	159.03343513948312	0.5167651121464587
36.0	116.00662997701147	face	0.0		147	dominance	137	1.0	1		159.55020025162958	1.233448602282806
36.0	117.24007857929428	rating	1.0		90	dominance	137	1.0	1		160.78364885391238	0.7584725093220186
36.0	117.9985510886163	fix	2.0		60	dominance	137	1.0	1	-1.35	161.5421213632344	0.5167125891075557
37.0	118.51526367772385	face	0.0		147	dominance	036	1.0	1		162.05883395234196	1.2334588654066465
37.0	119.7487225431305	rating	1.0		142	dominance	036	1.0	1		163.2922928177486	1.1918080965169793
37.0	120.94053063964748	fix	2.0		60	dominance	036	1.0	1	-1.21	164.48410091426558	0.5167548490226181
38.0	121.4572854886701	face	0.0		147	dominance	141	1.0	1		165.0008557632882	1.233451922706081
38.0	122.69073741137618	rating	1.0		64	dominance	141	1.0	1		166.23430768599428	0.5417322701541707
38.0	123.23246968153035	fix	2.0		60	dominance	141	1.0	1	-1.35	166.77603995614845	0.5167494156048633
39.0	123.74921909713521	face	0.0		147	dominance	087	1.0	1		167.29278937175332	1.2334606765452918
39.0	124.9826797736805	rating	1.0		148	dominance	087	1.0	1		168.5262500482986	1.2418592310150416
39.0	126.22453900469554	fix	2.0		60	dominance	087	1.0	1	1.33	169.76810927931365	0.500015998395611
40.0	126.72455500309115	cue	0.0		480						170.26812527770926	4.000490818732942
40.0	130.7250458218241	fix	1.0		120						174.2686160964422	1.016812805477457
40.0	131.74185862730155	face	0.0		147	attractiveness	091	1.0	1		175.28542890191966	1.233455243127537
40.0	132.9753138704291	rating	1.0		268	attractiveness	091	1.0	1		176.5188841450472	2.2419515991150547
40.0	135.21726546954415	fix	2.0		60	attractiveness	091	1.0	1	1.0300000000000002	178.76083574416225	0.5167331153534178
41.0	135.73399858489756	face	0.0		147	attractiveness	101	1.0	1		179.27756885951567	1.233471241523148
41.0	136.9674698264207	rating	1.0		167	attractiveness	101	1.0	1		180.51104010103882	1.4001657796106883
41.0	138.3676356060314	fix	2.0		60	attractiveness	101	1.0	1	1.3099999999999996	181.9112058806495	0.5167451896140847
42.0	138.88438079564548	face	0.0		147	attractiveness	136	1.0	1		182.4279510702636	1.2334615821146144
42.0	140.1178423777601	rating	1.0		312	attractiveness	136	1.0	1		183.6614126523782	2.6086457146029716
42.0	142.72648809236307	fix	2.0		60	attractiveness	136	1.0	1	-4.0	186.27005836698117	0.5167533397416264
43.0	143.2432414321047	face	0.0		147	attractiveness	124	1.0	1		186.7868117067228	1.233459167262481
43.0	144.47670059936718	rating	1.0		218	attractiveness	124	1.0	1		188.02027087398528	1.8252190271032305
43.0	146.3019196264704	fix	2.0		60	attractiveness	124	1.0	1	4.0	189.8454899010885	0.5167533397416264
44.0	146.81867296621203	face	0.0		147	attractiveness	011	1.0	1		190.36224324083014	1.2334588654066465
44.0	148.05213183161868	rating	1.0		292	attractiveness	011	1.0	1		191.59570210623679	2.441979249173528
44.0	150.4941110807922	fix	2.0		60	attractiveness	011	1.0	1	-1.0899999999999999	194.0376813554103	0.5167352283478976
45.0	151.0108463091401	face	0.0		147	attractiveness	141	1.0	1		194.5544165837582	1.2334661099630466
45.0	152.24431241910315	rating	1.0		96	attractiveness	141	1.0	1		195.78788269372126	0.8084222200213844
45.0	153.05273463912454	fix	2.0		60	attractiveness	141	1.0	1	-2.71	196.59630491374264	0.516760282442192
46.0	153.56949492156673	face	0.0		147	attractiveness	044	1.0	1		197.11306519618483	1.2334531301312381
46.0	154.80294805169797	rating	1.0		219	attractiveness	044	1.0	1		198.34651832631607	1.8335593232623069
46.0	156.63650737496027	fix	2.0		60	attractiveness	044	1.0	1	0.7699999999999996	200.18007764957838	0.5167527360263193
47.0	157.1532601109866	face	0.0		147	attractiveness	012	1.0	1		200.6968303856047	1.2334609784029453
47.0	158.38672108938954	rating	1.0		200	attractiveness	012	1.0	1		201.93029136400764	1.675193007069538
47.0	160.06191409645908	fix	2.0		60	attractiveness	012	1.0	1	-1.1	203.60548437107718	0.5167506230318395
48.0	160.57866471949092	face	0.0		147	attractiveness	036	1.0	1		204.12223499410902	1.233469128528668
48.0	161.81213384801958	rating	1.0		316	attractiveness	036	1.0	1		205.3557041226377	2.641977619148747
48.0	164.45411146716833	fix	2.0		60	attractiveness	036	1.0	1	-0.94	207.99768174178644	0.516757565732405
49.0	164.97086903290074	face	0.0		147	attractiveness	126	1.0	1		208.51443930751884	1.2335020308910316
49.0	166.20437106379177	rating	1.0		69	attractiveness	126	1.0	1		209.74794133840987	0.5833561738108983
49.0	166.78772723760267	fix	2.0		60	attractiveness	126	1.0	1	1.12	210.33129751222077	0.5167488118931942
50.0	167.30447604949586	face	0.0		147	attractiveness	027	1.0	1		210.84804632411397	1.2334673173882038
50.0	168.53794336688406	rating	1.0		75	attractiveness	027	1.0	1		212.08151364150217	0.6334015730353713
50.0	169.17134493991944	fix	2.0		60	attractiveness	027	1.0	1	-0.79	212.71491521453754	0.5167512267453276
51.0	169.68809616666476	face	0.0		147	attractiveness	130	1.0	1		213.23166644128287	1.2334630913974252
51.0	170.9215592580622	rating	1.0		103	attractiveness	130	1.0	1		214.4651295326803	0.8667683721960202
51.0	171.7883276302582	fix	2.0		60	attractiveness	130	1.0	1	-2.8600000000000003	215.3318979048763	0.5167542453091301
52.0	172.30508187556734	face	0.0		147	attractiveness	172	1.0	1		215.84865215018544	1.2334673173900228
52.0	173.53854919295736	rating	1.0		624	attractiveness	172	1.0	1		217.08211946757547	5.208995807815882
52.0	178.74754500077324	fix	2.0		60	attractiveness	172	1.0	1	-2.92	222.29111527539135	0.5167092686860997
53.0	179.26425426945934	face	0.0		147	attractiveness	009	1.0	1		222.80782454407745	1.2334987104695756
53.0	180.49775297992892	rating	1.0		115	attractiveness	009	1.0	1		224.04132325454702	0.966744163300973
53.0	181.4644971432299	fix	2.0		60	attractiveness	009	1.0	1	1.08	225.008067417848	0.516750321176005
54.0	181.9812474644059	face	0.0		147	attractiveness	092	1.0	1		225.524817739024	1.2334603746876383
54.0	183.21470783909353	rating	1.0		89	attractiveness	092	1.0	1		226.75827811371164	0.7500908588190214
54.0	183.96479869791256	fix	2.0		60	attractiveness	092	1.0	1	-1.48	227.50836897253066	0.5167578675882396
55.0	184.4815565655008	face	0.0		147	attractiveness	030	1.0	1		228.0251268401189	1.2334615821146144
55.0	185.7150181476154	rating	1.0		171	attractiveness	030	1.0	1		229.25858842223352	1.4334979860141175
55.0	187.14851613362953	fix	2.0		60	attractiveness	030	1.0	1	3.5	230.69208640824763	0.516753641597461
56.0	187.665269775227	face	0.0		147	attractiveness	070	1.0	1		231.2088400498451	1.2334664118188812
56.0	188.89873618704587	rating	1.0		78	attractiveness	070	1.0	1		232.44230646166397	0.6584097835329885
56.0	189.55714597057886	fix	2.0		60	attractiveness	070	1.0	1	-1.3599999999999999	233.10071624519696	0.5167539434532955
57.0	190.07389991403215	face	0.0		147	attractiveness	066	1.0	1		233.61747018865026	1.2334615821146144
57.0	191.30736149614677	rating	1.0		176	attractiveness	066	1.0	1		234.85093177076487	1.4751683755766862
57.0	192.78252987172345	fix	2.0		60	attractiveness	066	1.0	1	0.4500000000000002	236.32610014634156	0.5167488118931942
58.0	193.29927868361665	face	0.0		147	attractiveness	121	1.0	1		236.84284895823475	1.233461883970449
58.0	194.5327405675871	rating	1.0		68	attractiveness	121	1.0	1		238.0763108422052	0.5750759471047786
58.0	195.10781651469188	fix	2.0		60	attractiveness	121	1.0	1	-0.9900000000000002	238.65138678930998	0.5167460951852263
59.0	195.6245626098771	face	0.0		147	attractiveness	034	1.0	1		239.1681328844952	1.2334670155323693
59.0	196.85802962540947	rating	1.0		68	attractiveness	034	1.0	1		240.40159990002758	0.5750620617036475
59.0	197.43309168711312	fix	2.0		60	attractiveness	034	1.0	1	-0.8500000000000001	240.97666196173122	0.516753641597461
60.0	197.94984532871058	face	0.0		147	attractiveness	102	1.0	1		241.49341560332869	1.2334649025360704
60.0	199.18331023124665	rating	1.0		133	attractiveness	102	1.0	1		242.72688050586476	1.116799161563904
60.0	200.30010939281055	fix	2.0		60	attractiveness	102	1.0	1	-3.0300000000000002	243.84367966742866	0.516750924887674
61.0	200.81686031769823	face	0.0		147	attractiveness	005	1.0	1		244.36043059231633	1.2334621858281025
61.0	202.05032250352633	rating	1.0		136	attractiveness	005	1.0	1		245.59389277814444	1.1417940903738781
61.0	203.1921165939002	fix	2.0		60	attractiveness	005	1.0	1	-3.62	246.73568686851831	0.5167623954366718
62.0	203.70887898933688	face	0.0		147	attractiveness	006	1.0	1		247.252449263955	1.2334600728318037
62.0	204.94233906216868	rating	1.0		153	attractiveness	006	1.0	1		248.4859093367868	1.283478606823337
62.0	206.22581766899202	fix	2.0		60	attractiveness	006	1.0	1	-3.15	249.76938794361013	0.5167533397416264
63.0	206.74257100873365	face	0.0		147	attractiveness	038	1.0	1		250.28614128335175	1.233459167260662
63.0	207.9760301759943	rating	1.0		164	attractiveness	038	1.0	1		251.51960045061242	1.3751620969615033
63.0	209.3511922729558	fix	2.0		60	attractiveness	038	1.0	1	-4.0	252.89476254757392	0.516753641597461
64.0	209.86794591455327	face	0.0		147	attractiveness	117	1.0	1		253.41151618917138	1.2334667136765347
64.0	211.1014126282298	rating	1.0		161	attractiveness	117	1.0	1		254.64498290284791	1.3501629421589314
64.0	212.45157557038874	fix	2.0		60	attractiveness	117	1.0	1	0.3799999999999999	255.99514584500685	0.516744284044762
65.0	212.9683198544335	face	0.0		147	attractiveness	024	1.0	1		256.5118901290516	1.2334682229575265
65.0	214.20178807739103	rating	1.0		104	attractiveness	024	1.0	1		257.74535835200913	0.8751026312238537
65.0	215.07689070861488	fix	2.0		60	attractiveness	024	1.0	1	0.41000000000000014	258.620460983233	0.516757565732405
66.0	215.5936482743473	face	0.0		147	attractiveness	043	1.0	1		259.1372185489654	1.2334495078521286
66.0	216.82709778219942	rating	1.0		341	attractiveness	043	1.0	1		260.3706680568175	2.8503485839319183
66.0	219.67744636613133	fix	2.0		60	attractiveness	043	1.0	1	-0.7599999999999998	263.22101664074944	0.5167521323146502
67.0	220.19419849844599	face	0.0		147	attractiveness	064	1.0	1		263.7377687730641	1.2334564505526942
67.0	221.42765494899868	rating	1.0		137	attractiveness	064	1.0	1		264.9712252236168	1.1501349902446236
67.0	222.5777899392433	fix	2.0		60	attractiveness	064	1.0	1	-1.02	266.1213602138614	0.5167524341704848
68.0	223.0945423734138	face	0.0		147	attractiveness	082	1.0	1		266.6381126480319	1.2334667136765347
68.0	224.32800908709032	rating	1.0		1219	attractiveness	082	1.0	1		267.8715793617084	10.20956541110354
68.0	234.53757449819386	fix	2.0		60	attractiveness	082	1.0	1	0.79	278.08114477281197	0.516740963623306
69.0	235.05431546181717	face	0.0		147	attractiveness	099	1.0	1		278.5978857364353	1.2334700340979907
69.0	236.28778549591516	rating	1.0		87	attractiveness	099	1.0	1		279.83135577053326	0.7334205296247092
69.0	237.02120602553987	fix	2.0		60	attractiveness	099	1.0	1	0.71	280.564776300158	0.5167533397416264
70.0	237.5379593652815	face	0.0		147	attractiveness	018	1.0	1		281.0815296398996	1.2334615821146144
70.0	238.7714209473961	rating	1.0		112	attractiveness	018	1.0	1		282.3149912220142	0.9417685533098847
70.0	239.713189500706	fix	2.0		60	attractiveness	018	1.0	1	0.3799999999999999	283.2567597753241	0.5167554527361062
71.0	240.2299449534421	face	0.0		147	attractiveness	042	1.0	1		283.7735152280602	1.2335071624529519
71.0	241.46345211589505	rating	1.0		283	attractiveness	042	1.0	1		285.00702239051316	2.366901490928285
71.0	243.83035360682334	fix	2.0		60	attractiveness	042	1.0	1	0.4400000000000004	287.37392388144144	0.5167533397416264
72.0	244.34710694656496	face	0.0		147	attractiveness	137	1.0	1		287.89067722118307	1.2334682229575265
72.0	245.5805751695225	rating	1.0		192	attractiveness	137	1.0	1		289.1241454441406	1.6085159162921627
72.0	247.18909108581465	fix	2.0		60	attractiveness	137	1.0	1	-0.81	290.73266136043276	0.516753641597461
73.0	247.7058447274121	face	0.0		147	attractiveness	061	1.0	1		291.2494150020302	1.2334667136765347
73.0	248.93931144108865	rating	1.0		107	attractiveness	061	1.0	1		292.48288171570675	0.9000990693148196
73.0	249.83941051040347	fix	2.0		60	attractiveness	061	1.0	1	0.5	293.3829807850216	0.5167524341723038
74.0	250.35616294457577	face	0.0		147	attractiveness	062	1.0	1		293.8997332191939	1.2334688266710145
74.0	251.5896317712468	rating	1.0		154	attractiveness	062	1.0	1		295.1332020458649	1.2918137714186742
74.0	252.88144554266546	fix	2.0		60	attractiveness	062	1.0	1	0.5599999999999996	296.42501581728357	0.5167551508802717
75.0	253.39820069354573	face	0.0		147	attractiveness	033	1.0	1		296.94177096816384	1.2334594691201346
75.0	254.63166016266587	rating	1.0		226	attractiveness	033	1.0	1		298.175230437284	1.8918930993168033
75.0	256.52355326198267	fix	2.0		60	attractiveness	033	1.0	1	0.6399999999999997	300.0671235366008	0.5167500193201704
76.0	257.04030328130284	face	0.0		147	attractiveness	144	1.0	1		300.58387355592095	1.233475165658092
76.0	258.27377844696093	rating	1.0		117	attractiveness	144	1.0	1		301.81734872157904	0.9834377354472963
76.0	259.25721618240823	fix	2.0		60	attractiveness	144	1.0	1	1.58	302.80078645702633	0.5167494156066823
77.0	259.7739655980149	face	0.0		147	attractiveness	100	1.0	1		303.317535872633	1.233479089793036
77.0	261.00744468780795	rating	1.0		84	attractiveness	100	1.0	1		304.55101496242605	0.7084068857111561
77.0	261.7158515735191	fix	2.0		60	attractiveness	100	1.0	1	0.9000000000000004	305.2594218481372	0.5168049572075688
78.0	262.2326565307267	face	0.0		147	attractiveness	087	1.0	1		305.7762268053448	1.233399399668997
78.0	263.46605593039567	rating	1.0		281	attractiveness	087	1.0	1		307.0096262050138	2.3502891181924497
78.0	265.8163450485881	fix	2.0		60	attractiveness	087	1.0	1	2.8499999999999996	309.3599153232062	0.5167448877564311
79.0	266.33308993634455	face	0.0		147	attractiveness	039	1.0	1		309.87666021096265	1.233471241524967
79.0	267.5665611778695	rating	1.0		160	attractiveness	039	1.0	1		311.1101314524876	1.3418196274360525
79.0	268.90838080530557	fix	2.0		61	attractiveness	039	1.0	1	2.5999999999999996	312.4519510799237	0.5083994600390724
80.0	269.41678026534464	cue	0.0		479						312.96035053996275	3.9921481077217322
80.0	273.4089283730664	fix	1.0		120						316.9524986476845	1.0168046553517343
80.0	274.4257330284181	face	0.0		147	trustworthiness	172	1.0	1		317.9693033030362	1.2334606765452918
80.0	275.6591937049634	rating	1.0		88	trustworthiness	172	1.0	1		319.2027639795815	0.741760523926132
80.0	276.40095422888953	fix	2.0		60	trustworthiness	172	1.0	1	-1.6800000000000002	319.94452450350764	0.5167533397416264
81.0	276.91770756863116	face	0.0		147	trustworthiness	033	1.0	1		320.46127784324926	1.2334615821146144
81.0	278.1511691507458	rating	1.0		83	trustworthiness	033	1.0	1		321.6947394253639	0.7000729285391571
81.0	278.85124207928493	fix	2.0		60	trustworthiness	033	1.0	1	0.8099999999999996	322.39481235390303	0.5167587731593812
82.0	279.3680008524443	face	0.0		147	trustworthiness	087	1.0	1		322.9115711270624	1.233468524813361
82.0	280.6014693772577	rating	1.0		68	trustworthiness	087	1.0	1		324.1450396518758	0.5750629672747891
82.0	281.17653234453246	fix	2.0		60	trustworthiness	087	1.0	1	1.17	324.72010261915057	0.5167473026103835
83.0	281.69327964714284	face	0.0		147	trustworthiness	036	1.0	1		325.23684992176095	1.233459167262481
83.0	282.9267388144053	rating	1.0		148	trustworthiness	036	1.0	1		326.47030908902343	1.2418160655288375
83.0	284.16855487993416	fix	2.0		60	trustworthiness	036	1.0	1	-0.9700000000000002	327.71212515455227	0.516750924887674
84.0	284.68530580482184	face	0.0		147	trustworthiness	091	1.0	1		328.22887607943994	1.2334588654066465
84.0	285.9187646702285	rating	1.0		101	trustworthiness	091	1.0	1		329.4623349448466	0.8501061931310687
84.0	286.76887086335955	fix	2.0		60	trustworthiness	091	1.0	1	0.9699999999999998	330.31244113797766	0.5167527360263193
85.0	287.2856235993859	face	0.0		147	trustworthiness	005	1.0	1		330.829193874004	1.2334564505545131
85.0	288.5190800499404	rating	1.0		67	trustworthiness	005	1.0	1		332.0626503245585	0.5667392732248118
85.0	289.0858193231652	fix	2.0		60	trustworthiness	005	1.0	1	1.4299999999999997	332.6293895977833	0.5167445859024156
86.0	289.6025639090676	face	0.0		147	trustworthiness	039	1.0	1		333.1461341836857	1.2334688266710145
86.0	290.8360327357386	rating	1.0		123	trustworthiness	039	1.0	1		334.37960301035673	1.0334472137437842
86.0	291.8694799494824	fix	2.0		60	trustworthiness	039	1.0	1	2.67	335.4130502241005	0.5167626972925063
87.0	292.3862426467749	face	0.0		147	trustworthiness	042	1.0	1		335.929812921393	1.233458563548993
87.0	293.6197012103239	rating	1.0		509	trustworthiness	042	1.0	1		337.163271484942	4.250532776790351
87.0	297.87023398711426	fix	2.0		60	trustworthiness	042	1.0	1	-0.5499999999999998	341.41380426173237	0.5167213429485855
88.0	298.38695533006285	face	0.0		147	trustworthiness	082	1.0	1		341.93052560468095	1.2334633932532597
88.0	299.6204187233161	rating	1.0		214	trustworthiness	082	1.0	1		343.1639889979342	1.7918892355555727
88.0	301.4123079588717	fix	2.0		60	trustworthiness	082	1.0	1	-0.8500000000000001	344.9558782334898	0.5167518304569967
89.0	301.9290597893287	face	0.0		147	trustworthiness	066	1.0	1		345.4726300639468	1.2334498097097821
89.0	303.16250959903846	rating	1.0		61	trustworthiness	066	1.0	1		346.70607987365656	0.5167313042129535
89.0	303.6792409032514	fix	2.0		60	trustworthiness	066	1.0	1	-1.0	347.2228111778695	0.5167485100373597
90.0	304.19598941328877	face	0.0		147	trustworthiness	099	1.0	1		347.7395596879069	1.233467921101692
90.0	305.42945733439046	rating	1.0		122	trustworthiness	099	1.0	1		348.97302760900857	1.0251177844202175
90.0	306.4545751188107	fix	2.0		60	trustworthiness	099	1.0	1	1.2000000000000002	349.9981453934288	0.5167566601630824
91.0	306.97133177897376	face	0.0		147	trustworthiness	009	1.0	1		350.51490205359187	1.2334543375582143
91.0	308.204786116532	rating	1.0		57	trustworthiness	009	1.0	1		351.7483563911501	0.4833906458279671
91.0	308.68817676235994	fix	2.0		60	trustworthiness	009	1.0	1	1.0099999999999998	352.23174703697805	0.5167626972925063
92.0	309.20493945965245	face	0.0		147	trustworthiness	030	1.0	1		352.74850973427056	1.2335029364621732
92.0	310.4384423961146	rating	1.0		98	trustworthiness	030	1.0	1		353.98201267073273	0.8250439503117377
92.0	311.26348634642636	fix	2.0		60	trustworthiness	030	1.0	1	1.9400000000000004	354.80705662104447	0.5167500193183514
93.0	311.7802363657447	face	0.0		147	trustworthiness	124	1.0	1		355.3238066403628	1.2334649025360704
93.0	313.0137012682808	rating	1.0		82	trustworthiness	124	1.0	1		356.5572715428989	0.691753762339431
93.0	313.7054550306202	fix	2.0		60	trustworthiness	124	1.0	1	1.5	357.2490253052383	0.5167460951852263
94.0	314.22220112580544	face	0.0		147	trustworthiness	006	1.0	1		357.76577140042355	1.2334570542661822
94.0	315.4556581800716	rating	1.0		97	trustworthiness	006	1.0	1		358.9992284546897	0.8167667421712395
94.0	316.27242492224286	fix	2.0		60	trustworthiness	006	1.0	1	1.8099999999999996	359.81599519686097	0.5167512267453276
95.0	316.7891761489882	face	0.0		147	trustworthiness	092	1.0	1		360.3327464236063	1.2334615821146144
95.0	318.0226377311028	rating	1.0		123	trustworthiness	092	1.0	1		361.5662080057209	1.033462004712419
95.0	319.0560997358152	fix	2.0		60	trustworthiness	092	1.0	1	-1.56	362.59967001043333	0.5167545471667836
96.0	319.572854282982	face	0.0		147	trustworthiness	034	1.0	1		363.1164245576001	1.2334513189925929
96.0	320.8063056019746	rating	1.0		52	trustworthiness	034	1.0	1		364.3498758765927	0.4417238785426889
96.0	321.2480294805173	fix	2.0		60	trustworthiness	034	1.0	1	1.17	364.7915997551354	0.5167521323146502
97.0	321.76478161283194	face	0.0		147	trustworthiness	027	1.0	1		365.30835188745004	1.233455846841025
97.0	322.99823745967296	rating	1.0		64	trustworthiness	027	1.0	1		366.54180773429107	0.5417292515885492
97.0	323.5399667112615	fix	2.0		60	trustworthiness	027	1.0	1	-1.4700000000000002	367.0835369858796	0.5167608861538611
98.0	324.0567275974154	face	0.0		147	trustworthiness	024	1.0	1		367.6002978720335	1.2334594691201346
98.0	325.2901870665355	rating	1.0		213	trustworthiness	024	1.0	1		368.8337573411536	1.7835413929824426
98.0	327.07372845951795	fix	2.0		60	trustworthiness	024	1.0	1	0.9199999999999999	370.61729873413606	0.5167563583054289
99.0	327.5904848178234	face	0.0		147	trustworthiness	100	1.0	1		371.1340550924415	1.2334639969685668
99.0	328.82394881479195	rating	1.0		154	trustworthiness	100	1.0	1		372.36751908941005	1.2918113565665408
99.0	330.1157601713585	fix	2.0		60	trustworthiness	100	1.0	1	0.9199999999999999	373.6593304459766	0.5167533397416264
100.0	330.6325135111001	face	0.0		147	trustworthiness	043	1.0	1		374.1760837857182	1.2334603746876383
100.0	331.86597388578775	rating	1.0		124	trustworthiness	043	1.0	1		375.40954416040586	1.041793245174631
100.0	332.9077671309624	fix	2.0		60	trustworthiness	043	1.0	1	1.1500000000000004	376.4513374055805	0.5167485100373597
101.0	333.42451564099974	face	0.0		147	trustworthiness	011	1.0	1		376.96808591561785	1.2334627895397716
101.0	334.6579784305395	rating	1.0		58	trustworthiness	011	1.0	1		378.2015487051576	0.49172158443252556
101.0	335.14970001497204	fix	2.0		60	trustworthiness	011	1.0	1	-0.7599999999999998	378.69327028959015	0.516753641597461
102.0	335.6664536565695	face	0.0		147	trustworthiness	018	1.0	1		379.2100239311876	1.233459167262481
102.0	336.899912823832	rating	1.0		76	trustworthiness	018	1.0	1		380.4434830984501	0.6417421710484632
102.0	337.54165499488045	fix	2.0		60	trustworthiness	018	1.0	1	-0.7599999999999998	381.08522526949855	0.5167512267453276
103.0	338.0584062216258	face	0.0		147	trustworthiness	141	1.0	1		381.6019764962439	1.2334697322421562
103.0	339.29187595386793	rating	1.0		54	trustworthiness	141	1.0	1		382.83544622848603	0.45838515203831776
103.0	339.75026110590625	fix	2.0		60	trustworthiness	141	1.0	1	-0.8300000000000001	383.29383138052435	0.5167463970410608
104.0	340.2670075029473	face	0.0		147	trustworthiness	070	1.0	1		383.8105777775654	1.2334597709741502
104.0	341.50046727392146	rating	1.0		84	trustworthiness	070	1.0	1		385.04403754853956	0.7084174506890122
104.0	342.20888472461047	fix	2.0		60	trustworthiness	070	1.0	1	-2.58	385.7524549992286	0.5167563583072479
105.0	342.7256410829177	face	0.0		147	trustworthiness	012	1.0	1		386.2692113575358	1.233458563548993
105.0	343.9590996464667	rating	1.0		80	trustworthiness	012	1.0	1		387.5026699210848	0.6750840368604258
105.0	344.63418368332714	fix	2.0		60	trustworthiness	012	1.0	1	-2.46	388.17775395794524	0.5167463970392419
106.0	345.1509300803664	face	0.0		147	trustworthiness	126	1.0	1		388.6945003549845	1.233467921101692
106.0	346.38439800146807	rating	1.0		88	trustworthiness	126	1.0	1		389.9279682760862	0.7417463366691663
106.0	347.12614433813724	fix	2.0		60	trustworthiness	126	1.0	1	1.42	390.66971461275534	0.5167584713017277
107.0	347.64290280943897	face	0.0		147	trustworthiness	136	1.0	1		391.18647308405707	1.2334540357023798
107.0	348.87635684514134	rating	1.0		99	trustworthiness	136	1.0	1		392.41992711975945	0.8334316379459779
107.0	349.7097884830873	fix	2.0		60	trustworthiness	136	1.0	1	0.79	393.2533587577054	0.516753641597461
108.0	350.2265421246848	face	0.0		147	trustworthiness	102	1.0	1		393.7701123993029	1.2334606765452918
108.0	351.4600028012301	rating	1.0		62	trustworthiness	102	1.0	1		395.0035730758482	0.5250616391040239
108.0	351.9850644403341	fix	2.0		61	trustworthiness	102	1.0	1	-1.3599999999999999	395.5286347149522	0.5250836746326968
109.0	352.5101481149668	face	0.0		146	trustworthiness	121	1.0	1		396.0537183895849	1.2251297379407333
109.0	353.73527785290753	rating	1.0		197	trustworthiness	121	1.0	1		397.27884812752563	1.6502035116773186
109.0	355.38548136458485	fix	2.0		60	trustworthiness	121	1.0	1	0.8300000000000001	398.92905163920295	0.5167515286011621
110.0	355.902232893186	face	0.0		147	trustworthiness	061	1.0	1		399.4458031678041	1.2334606765452918
110.0	357.1356935697313	rating	1.0		80	trustworthiness	061	1.0	1		400.6792638443494	0.6750758867347031
110.0	357.810769456466	fix	2.0		60	trustworthiness	061	1.0	1	1.17	401.3543397310841	0.5167485100355407
111.0	358.32751796650155	face	0.0		147	trustworthiness	038	1.0	1		401.87108824111965	1.2334609784011263
111.0	359.5609789449027	rating	1.0		94	trustworthiness	038	1.0	1		403.1045492195208	0.7917651725183532
111.0	360.352744117421	fix	2.0		60	trustworthiness	038	1.0	1	1.9000000000000004	403.89631439203913	0.5167557545919408
112.0	360.86949987201297	face	0.0		147	trustworthiness	144	1.0	1		404.41307014663107	1.2334531301312381
112.0	362.1029530021442	rating	1.0		141	trustworthiness	144	1.0	1		405.6465232767623	1.1834735356351302
112.0	363.28642653777933	fix	2.0		60	trustworthiness	144	1.0	1	1.4900000000000002	406.82999681239744	0.5167617917231837
113.0	363.8031883295025	face	0.0		147	trustworthiness	117	1.0	1		407.3467586041206	1.2334573561238358
113.0	365.03664568562635	rating	1.0		95	trustworthiness	117	1.0	1		408.58021596024446	0.8000958092652581
113.0	365.8367414948916	fix	2.0		60	trustworthiness	117	1.0	1	1.4699999999999998	409.3803117695097	0.516750321174186
114.0	366.3534918160658	face	0.0		147	trustworthiness	130	1.0	1		409.8970620906839	1.2334573561238358
114.0	367.58694917218963	rating	1.0		56	trustworthiness	130	1.0	1		411.13051944680774	0.475052160809355
114.0	368.062001332999	fix	2.0		60	trustworthiness	130	1.0	1	-0.8500000000000001	411.6055716076171	0.5167608861538611
115.0	368.57876221915285	face	0.0		147	trustworthiness	064	1.0	1		412.12233249377095	1.2334573561238358
115.0	369.8122195752767	rating	1.0		121	trustworthiness	064	1.0	1		413.3557898498948	1.0167844309635257
115.0	370.8290040062402	fix	2.0		60	trustworthiness	064	1.0	1	-2.7199999999999998	414.3725742808583	0.516756962018917
116.0	371.3457609682591	face	0.0		147	trustworthiness	101	1.0	1		414.88933124287723	1.2334603746894572
116.0	372.5792213429486	rating	1.0		149	trustworthiness	101	1.0	1		416.1227916175667	1.2501494189855293
116.0	373.8293707619341	fix	2.0		60	trustworthiness	101	1.0	1	1.25	417.3729410365522	0.5167500193201704
117.0	374.3461207812543	face	0.0		147	trustworthiness	044	1.0	1		417.8896910558724	1.2334621858262835
117.0	375.57958296708057	rating	1.0		88	trustworthiness	044	1.0	1		419.1231532416987	0.7417556942218653
117.0	376.32133866130243	fix	2.0		60	trustworthiness	044	1.0	1	2.58	419.86490893592054	0.5167430766196048
118.0	376.83808173792204	face	0.0		147	trustworthiness	062	1.0	1		420.38165201254014	1.2334633932532597
118.0	378.0715451311753	rating	1.0		219	trustworthiness	062	1.0	1		421.6151154057934	1.8335517768482532
118.0	379.90509690802355	fix	2.0		60	trustworthiness	062	1.0	1	-3.23	423.44866718264166	0.5167524341704848
119.0	380.42184934219404	face	0.0		147	trustworthiness	137	1.0	1		423.96541961681214	1.2334606765452918
119.0	381.6553100187393	rating	1.0		67	trustworthiness	137	1.0	1		425.19888029335743	0.5667404806536069
119.0	382.22205049939294	fix	2.0		60	trustworthiness	137	1.0	1	0.71	425.76562077401104	0.5000612768762949
120.0	382.72211177626923	cue	0.0		3600						426.26568205088734	30.003653671541542
120.0	412.7257654478108	fix	1.0		120						456.2693357224289	1.0000827086914796
120.0	413.72584815650225	cue	0.0		480						457.26941843112036	4.000476027760669
120.0	417.7263241842629	fix	1.0		120						461.269894458881	1.0168164277583855
120.0	418.7431406120213	face	0.0		147	attractiveness	091	2.0	1		462.2867108866394	1.2334615821146144
120.0	419.9766021941359	rating	1.0		114	attractiveness	091	2.0	1		463.520172468754	0.9584485419109114
120.0	420.93505073604683	fix	2.0		60	attractiveness	091	2.0	1	1.7999999999999998	464.47862101066494	0.516750321176005
121.0	421.45180105722284	face	0.0		147	attractiveness	141	2.0	1		464.99537133184094	1.2334636951109132
121.0	422.68526475233375	rating	1.0		176	attractiveness	141	2.0	1		466.22883502695186	1.475173808994441
121.0	424.1604385613282	fix	2.0		60	attractiveness	141	2.0	1	-1.2799999999999998	467.7040088359463	0.5167533397416264
122.0	424.6771919010698	face	0.0		147	attractiveness	042	2.0	1		468.2207621756879	1.233461280256961
122.0	425.9106531813268	rating	1.0		111	attractiveness	042	2.0	1		469.4542234559449	0.9334345961397048
122.0	426.8440877774665	fix	2.0		60	attractiveness	042	2.0	1	0.5099999999999998	470.3876580520846	0.51676088615568
123.0	427.36084866362216	face	0.0		147	attractiveness	062	2.0	1		470.90441893824027	1.233461280256961
123.0	428.5943099438791	rating	1.0		147	attractiveness	062	2.0	1		472.13788021849723	1.2334709396673134
123.0	429.82778088354644	fix	2.0		60	attractiveness	062	2.0	1	-1.2799999999999998	473.37135115816454	0.5167545471667836
124.0	430.3445354307132	face	0.0		147	attractiveness	087	2.0	1		473.8881057053313	1.233467921101692
124.0	431.5780033518149	rating	1.0		115	attractiveness	087	2.0	1		475.121573626433	0.9667710285339126
124.0	432.5447743803488	fix	2.0		60	attractiveness	087	2.0	1	2.8200000000000003	476.08834465496693	0.5167759789819684
125.0	433.0615503593308	face	0.0		147	attractiveness	024	2.0	1		476.6051206339489	1.2334389428742725
125.0	434.29498930220507	rating	1.0		79	attractiveness	024	2.0	1		477.8385595768232	0.6667534001117019
125.0	434.96174270231677	fix	2.0		60	attractiveness	024	2.0	1	0.8600000000000003	478.5053129769349	0.516750321176005
126.0	435.4784930234928	face	0.0		147	attractiveness	005	2.0	1		479.0220632981109	1.23345252641775
126.0	436.7119455499105	rating	1.0		207	attractiveness	005	2.0	1		480.25551582452863	1.7335406685288035
126.0	438.4454862184393	fix	2.0		60	attractiveness	005	2.0	1	-3.29	481.98905649305743	0.5167925810892484
127.0	438.9622787995286	face	0.0		147	attractiveness	101	2.0	1		482.5058490741467	1.2334211333400162
127.0	440.1956999328686	rating	1.0		109	attractiveness	101	2.0	1		483.7392702074867	0.9167757374943903
127.0	441.112475670363	fix	2.0		60	attractiveness	101	2.0	1	1.21	484.6560459449811	0.5167572638765705
128.0	441.62923293423955	face	0.0		147	attractiveness	030	2.0	1		485.17280320885766	1.2334636951109132
128.0	442.86269662935047	rating	1.0		144	attractiveness	030	2.0	1		486.40626690396857	1.2085161577761028
128.0	444.07121278712657	fix	2.0		60	attractiveness	030	2.0	1	3.3499999999999996	487.6147830617447	0.5167107779689104
129.0	444.5879235650955	face	0.0		147	attractiveness	117	2.0	1		488.1314938397136	1.2334606765452918
129.0	445.82138424164077	rating	1.0		147	attractiveness	117	2.0	1		489.3649545162589	1.23347576937158
129.0	447.05486001101235	fix	2.0		60	attractiveness	117	2.0	1	0.5999999999999996	490.59843028563046	0.5167732622721815
130.0	447.57163327328453	face	0.0		147	attractiveness	126	2.0	1		491.11520354790264	1.2334446781478619
130.0	448.8050779514324	rating	1.0		87	attractiveness	126	2.0	1		492.3486482260505	0.733449205998113
130.0	449.5385271574305	fix	2.0		60	attractiveness	126	2.0	1	1.58	493.0820974320486	0.5167131928210438
131.0	450.05524035025155	face	0.0		147	attractiveness	136	2.0	1		493.59881062486966	1.2334700340961717
131.0	451.2887103843477	rating	1.0		151	attractiveness	136	2.0	1		494.83228065896583	1.266816125900732
131.0	452.55552651024846	fix	2.0		60	attractiveness	136	2.0	1	-3.05	496.09909678486656	0.5167466988968954
132.0	453.07227320914535	face	0.0		147	attractiveness	061	2.0	1		496.61584348376346	1.2334597709759691
132.0	454.3057329801213	rating	1.0		145	attractiveness	061	2.0	1		497.8493032547394	1.2168202311495406
132.0	455.52255321127086	fix	2.0		60	attractiveness	061	2.0	1	0.7599999999999998	499.06612348588897	0.516744284044762
133.0	456.0392974953156	face	0.0		147	attractiveness	064	2.0	1		499.5828677699337	1.233469128528668
133.0	457.2727666238443	rating	1.0		80	attractiveness	064	2.0	1		500.8163368984624	0.6750698496034602
133.0	457.94783647344775	fix	2.0		60	attractiveness	064	2.0	1	-3.24	501.49140674806586	0.5167614898673492
134.0	458.4645979633151	face	0.0		147	attractiveness	018	2.0	1		502.0081682379332	1.2334600728318037
134.0	459.6980580361469	rating	1.0		271	attractiveness	018	2.0	1		503.241628310765	2.2669380759416526
134.0	461.96499611208856	fix	2.0		60	attractiveness	018	2.0	1	0.4800000000000004	505.50856638670666	0.516750321176005
135.0	462.48174643326456	face	0.0		147	attractiveness	009	2.0	1		506.02531670788267	1.2334546394140489
135.0	463.7152010726786	rating	1.0		176	attractiveness	009	2.0	1		507.2587713472967	1.4751822609778174
135.0	465.1903833336564	fix	2.0		60	attractiveness	009	2.0	1	1.5300000000000002	508.73395360827453	0.5167497174625169
136.0	465.70713305111894	face	0.0		147	attractiveness	012	2.0	1		509.25070332573705	1.2334670155323693
136.0	466.9406000666513	rating	1.0		90	attractiveness	012	2.0	1		510.4841703412694	0.7584112324439047
136.0	467.6990112990952	fix	2.0		60	attractiveness	012	2.0	1	-3.15	511.2425815737133	0.5167518304569967
137.0	468.2157631295522	face	0.0		147	attractiveness	144	2.0	1		511.7593334041703	1.2334706378114788
137.0	469.4492337673637	rating	1.0		67	attractiveness	144	2.0	1		512.9928040419818	0.5667323305260652
137.0	470.01596609788976	fix	2.0		60	attractiveness	144	2.0	1	1.3600000000000003	513.5595363725079	0.516750321174186
138.0	470.53271641906395	face	0.0		147	attractiveness	130	2.0	1		514.076286693682	1.2334633932550787
138.0	471.766179812319	rating	1.0		66	attractiveness	130	2.0	1		515.3097500869371	0.5583956566460984
138.0	472.3245754689651	fix	2.0		60	attractiveness	130	2.0	1	-1.4900000000000002	515.8681457435832	0.5167466988968954
139.0	472.841322167862	face	0.0		147	attractiveness	092	2.0	1		516.3848924424801	1.2334594691183156
139.0	474.07478163698033	rating	1.0		57	attractiveness	092	2.0	1		517.6183519115984	0.4833993996689969
139.0	474.55818103664933	fix	2.0		60	attractiveness	092	2.0	1	-1.33	518.1017513112674	0.516753641595642
140.0	475.074934678245	face	0.0		147	attractiveness	027	2.0	1		518.6185049528631	1.2334507152809238
140.0	476.3083853935259	rating	1.0		70	attractiveness	027	2.0	1		519.851955668144	0.5917468800107599
140.0	476.90013227353666	fix	2.0		60	attractiveness	027	2.0	1	-0.8700000000000001	520.4437025481548	0.5167482081778871
141.0	477.41688048171454	face	0.0		147	attractiveness	102	2.0	1		520.9604507563326	1.2334537338447262
141.0	478.65033421555927	rating	1.0		63	attractiveness	102	2.0	1		522.1939044901774	0.533403444545911
141.0	479.1837376601052	fix	2.0		60	attractiveness	102	2.0	1	-1.2200000000000002	522.7273079347233	0.5167488118931942
142.0	479.7004864719984	face	0.0		147	attractiveness	172	2.0	1		523.2440567466165	1.2334639969667478
142.0	480.9339504689651	rating	1.0		65	attractiveness	172	2.0	1		524.4775207435832	0.5500641143280518
142.0	481.4840145832932	fix	2.0		60	attractiveness	172	2.0	1	-1.81	525.0275848579113	0.5167539434551145
143.0	482.0007685267483	face	0.0		147	attractiveness	124	2.0	1		525.5443388013664	1.2334799953623587
143.0	483.23424852211065	rating	1.0		188	attractiveness	124	2.0	1		526.7778187967288	1.5751689189200988
143.0	484.80941744103075	fix	2.0		60	attractiveness	124	2.0	1	4.0	528.3529877156489	0.5167512267435086
144.0	485.32616866777425	face	0.0		147	attractiveness	066	2.0	1		528.8697389423924	1.233451922706081
144.0	486.55962059048034	rating	1.0		117	attractiveness	066	2.0	1		530.1031908650984	0.9834555449833715
144.0	487.5430761354637	fix	2.0		60	attractiveness	066	2.0	1	0.7000000000000002	531.0866464100818	0.5167454914717382
145.0	488.05982162693545	face	0.0		147	attractiveness	070	2.0	1		531.6033919015536	1.2334627895397716
145.0	489.2932844164752	rating	1.0		127	attractiveness	070	2.0	1		532.8368546910933	1.0667999463912565
145.0	490.3600843628665	fix	2.0		60	attractiveness	070	2.0	1	-2.15	533.9036546374846	0.5167518304569967
146.0	490.87683619332347	face	0.0		147	attractiveness	039	2.0	1		534.4204064679416	1.2334612802587799
146.0	492.11029747358225	rating	1.0		143	attractiveness	039	2.0	1		535.6538677482004	1.2001366202694044
146.0	493.31043409385165	fix	2.0		60	attractiveness	039	2.0	1	1.67	536.8540043684698	0.5167527360281383
147.0	493.8271868298798	face	0.0		147	attractiveness	082	2.0	1		537.3707571044979	1.2334597709741502
147.0	495.06064660085394	rating	1.0		74	attractiveness	082	2.0	1		538.604216875472	0.6250754641350795
147.0	495.685722064989	fix	2.0		60	attractiveness	082	2.0	1	0.54	539.2292923396071	0.5167560564495943
148.0	496.2024781214386	face	0.0		147	attractiveness	011	2.0	1		539.7460483960567	1.2334555449833715
148.0	497.435933666422	rating	1.0		47	attractiveness	011	2.0	1		540.9795039410401	0.40004624442190106
148.0	497.8359799108439	fix	2.0		60	attractiveness	011	2.0	1	-1.06	541.379550185462	0.5167463970410608
149.0	498.35272630788495	face	0.0		147	attractiveness	034	2.0	1		541.896296582503	1.2334642988225824
149.0	499.58619060670753	rating	1.0		59	attractiveness	034	2.0	1		543.1297608813256	0.5000588620259805
149.0	500.0862494687335	fix	2.0		60	attractiveness	034	2.0	1	-1.54	543.6298197433516	0.5167599805845384
150.0	500.60300944931805	face	0.0		147	attractiveness	038	2.0	1		544.1465797239362	1.23345252641775
150.0	501.8364619757358	rating	1.0		75	attractiveness	038	2.0	1		545.3800322503539	0.6334528886472981
150.0	502.4699148643831	fix	2.0		60	attractiveness	038	2.0	1	-2.6399999999999997	546.0134851390012	0.5167113816805795
151.0	502.9866262460637	face	0.0		147	attractiveness	121	2.0	1		546.5301965206818	1.2334700340979907
151.0	504.22009628016167	rating	1.0		236	attractiveness	121	2.0	1		547.7636665547798	1.9752215023290773
151.0	506.19531778249075	fix	2.0		60	attractiveness	121	2.0	1	0.6799999999999997	549.7388880571089	0.5167542453091301
152.0	506.7120720277999	face	0.0		147	attractiveness	137	2.0	1		550.255642302418	1.2334606765452918
152.0	507.94553270434517	rating	1.0		206	attractiveness	137	2.0	1		551.4891029789633	1.7252045983623248
152.0	509.6707373027075	fix	2.0		60	attractiveness	137	2.0	1	-0.73	553.2143075773256	0.5167533397398074
153.0	510.1874906424473	face	0.0		147	attractiveness	036	2.0	1		553.7310609170654	1.2334676192458573
153.0	511.42095826169316	rating	1.0		75	attractiveness	036	2.0	1		554.9645285363113	0.6334003656083951
153.0	512.0543586273016	fix	2.0		60	attractiveness	036	2.0	1	-1.06	555.5979289019197	0.5167563583072479
154.0	512.5711149856088	face	0.0		147	attractiveness	006	2.0	1		556.1146852602269	1.2334564505526942
154.0	513.8045714361615	rating	1.0		86	attractiveness	006	2.0	1		557.3481417107796	0.7250841576023959
154.0	514.5296555937639	fix	2.0		60	attractiveness	006	2.0	1	-0.9700000000000002	558.073225868382	0.5167605842980265
155.0	515.0464161780619	face	0.0		147	attractiveness	043	2.0	1		558.58998645268	1.2334597709759691
155.0	516.2798759490379	rating	1.0		142	attractiveness	043	2.0	1		559.823446223656	1.1918014556722483
155.0	517.4716774047101	fix	2.0		60	attractiveness	043	2.0	1	0.5999999999999996	561.0152476793282	0.5167599805845384
156.0	517.9884373852947	face	0.0		147	attractiveness	100	2.0	1		561.5320076599128	1.2334615821146144
156.0	519.2218989674093	rating	1.0		145	attractiveness	100	2.0	1		562.7654692420274	1.2168090624581964
156.0	520.4387080298675	fix	2.0		60	attractiveness	100	2.0	1	0.9900000000000002	563.9822783044856	0.5167430766177858
157.0	520.9554511064853	face	0.0		147	attractiveness	099	2.0	1		564.4990213811034	1.2334655062495585
157.0	522.1889166127348	rating	1.0		265	attractiveness	099	2.0	1		565.7324868873529	2.2169301069297944
157.0	524.4058467196646	fix	2.0		60	attractiveness	099	2.0	1	0.8399999999999999	567.9494169942827	0.5167491137490288
158.0	524.9225958334137	face	0.0		147	attractiveness	044	2.0	1		568.4661661080318	1.2334661099630466
158.0	526.1560619433767	rating	1.0		86	attractiveness	044	2.0	1		569.6996322179948	0.725082044607916
158.0	526.8811439879846	fix	2.0		60	attractiveness	044	2.0	1	1.0599999999999996	570.4247142626027	0.5167527360281383
159.0	527.3978967240128	face	0.0		147	attractiveness	033	2.0	1		570.9414669986309	1.2334670155323693
159.0	528.6313637395451	rating	1.0		85	attractiveness	033	2.0	1		572.1749340141632	0.7167523134285148
159.0	529.3481160529736	fix	2.0		60	attractiveness	033	2.0	1	0.5300000000000002	572.8916863275917	0.500061880589783
160.0	529.8481779335634	cue	0.0		480						573.3917482081815	4.000475122191347
160.0	533.8486530557548	fix	1.0		120						577.3922233303729	1.01681672961422
160.0	534.865469785369	face	0.0		147	dominance	018	2.0	1		578.4090400599871	1.2334609784011263
160.0	536.0989307637701	rating	1.0		203	dominance	018	2.0	1		579.6425010383882	1.7001991045726754
160.0	537.7991298683428	fix	2.0		60	dominance	018	2.0	1	0.6399999999999997	581.3427001429609	0.5167593768710503
161.0	538.3158892452138	face	0.0		147	dominance	101	2.0	1		581.859459519832	1.2334522245619155
161.0	539.5493414697758	rating	1.0		71	dominance	101	2.0	1		583.0929117443939	0.6000766111901612
161.0	540.1494180809659	fix	2.0		60	dominance	101	2.0	1	1.7199999999999998	583.692988355584	0.5167479063238716
162.0	540.6661659872898	face	0.0		147	dominance	092	2.0	1		584.2097362619079	1.233465204391905
162.0	541.8996311916817	rating	1.0		56	dominance	092	2.0	1		585.4432014662998	0.4750542738056538
162.0	542.3746854654873	fix	2.0		60	dominance	092	2.0	1	1.3200000000000003	585.9182557401055	0.5167512267453276
163.0	542.8914366922327	face	0.0		147	dominance	082	2.0	1		586.4350069668508	1.2334615821146144
163.0	544.1248982743473	rating	1.0		106	dominance	082	2.0	1		587.6684685489654	0.8917690362814028
163.0	545.0166673106287	fix	2.0		60	dominance	082	2.0	1	0.9900000000000002	588.5602375852468	0.5167515286011621
164.0	545.5334188392299	face	0.0		147	dominance	043	2.0	1		589.076989113848	1.2334576579796703
164.0	546.7668764972095	rating	1.0		59	dominance	043	2.0	1		590.3104467718276	0.5000588620241615
164.0	547.2669353592337	fix	2.0		60	dominance	043	2.0	1	-1.29	590.8105056338518	0.5167515286011621
165.0	547.7836868878348	face	0.0		147	dominance	036	2.0	1		591.327257162453	1.2334615821146144
165.0	549.0171484699495	rating	1.0		64	dominance	036	2.0	1		592.5607187445676	0.5417304590155254
165.0	549.558878928965	fix	2.0		60	dominance	036	2.0	1	-1.33	593.1024492035831	0.5167545471667836
166.0	550.0756334761318	face	0.0		147	dominance	066	2.0	1		593.6192037507499	1.2334564505545131
166.0	551.3090899266863	rating	1.0		122	dominance	066	2.0	1		594.8526602013044	1.0251232178379723
166.0	552.3342131445243	fix	2.0		60	dominance	066	2.0	1	1.17	595.8777834191424	0.5167518304588157
167.0	552.8509649749831	face	0.0		147	dominance	117	2.0	1		596.3945352496012	1.233465808105393
167.0	554.0844307830885	rating	1.0		63	dominance	117	2.0	1		597.6280010577066	0.5333916721410787
167.0	554.6178224552295	fix	2.0		60	dominance	117	2.0	1	1.38	598.1613927298476	0.5167608861538611
168.0	555.1345833413834	face	0.0		147	dominance	042	2.0	1		598.6781536160015	1.2334573561238358
168.0	556.3680406975072	rating	1.0		313	dominance	042	2.0	1		599.9116109721253	2.6169790680596634
168.0	558.9850197655669	fix	2.0		60	dominance	042	2.0	1	1.0300000000000002	602.528590040185	0.5167433784754394
169.0	559.5017631440423	face	0.0		147	dominance	130	2.0	1		603.0453334186604	1.2334703359538253
169.0	560.7352334799962	rating	1.0		71	dominance	130	2.0	1		604.2788037546143	0.6000636313583527
169.0	561.3352971113545	fix	2.0		60	dominance	130	2.0	1	-1.7799999999999998	604.8788673859726	0.5167551508802717
170.0	561.8520522622348	face	0.0		147	dominance	064	2.0	1		605.3956225368529	1.2334639969667478
170.0	563.0855162592015	rating	1.0		139	dominance	064	2.0	1		606.6290865338196	1.1668004897310311
170.0	564.2523167489326	fix	2.0		60	dominance	064	2.0	1	1.1600000000000001	607.7958870235507	0.516750321176005
171.0	564.7690670701086	face	0.0		147	dominance	033	2.0	1		608.3126373447267	1.2334621858281025
171.0	566.0025292559367	rating	1.0		71	dominance	033	2.0	1		609.5460995305548	0.6000669517798087
171.0	566.6025962077165	fix	2.0		60	dominance	033	2.0	1	2.09	610.1461664823346	0.5167506230318395
172.0	567.1193468307483	face	0.0		147	dominance	012	2.0	1		610.6629171053664	1.2334630913974252
172.0	568.3528099221458	rating	1.0		72	dominance	012	2.0	1		611.8963801967639	0.6084129832124745
172.0	568.9612229053582	fix	2.0		60	dominance	012	2.0	1	1.38	612.5047931799763	0.5168010330726247
173.0	569.4780239384309	face	0.0		147	dominance	061	2.0	1		613.021594213049	1.233402720090453
173.0	570.7114266585213	rating	1.0		238	dominance	061	2.0	1		614.2549969331394	1.9919090373423387
173.0	572.7033356958636	fix	2.0		60	dominance	061	2.0	1	1.0700000000000003	616.2469059704817	0.516757565732405
174.0	573.220093261596	face	0.0		147	dominance	070	2.0	1		616.7636635362142	1.2334597709759691
174.0	574.453553032572	rating	1.0		341	dominance	070	2.0	1		617.9971233071901	2.8503398300908884
174.0	577.3038928626629	fix	2.0		60	dominance	070	2.0	1	1.42	620.847463137281	0.5167491137490288
175.0	577.8206419764119	face	0.0		147	dominance	087	2.0	1		621.36421225103	1.233458563548993
175.0	579.0541005399609	rating	1.0		155	dominance	087	2.0	1		622.597670814579	1.300161010278316
175.0	580.3542615502392	fix	2.0		60	dominance	087	2.0	1	-0.9700000000000002	623.8978318248573	0.5167527360281383
176.0	580.8710142862674	face	0.0		147	dominance	100	2.0	1		624.4145845608855	1.2334528282754036
176.0	582.1044671145428	rating	1.0		133	dominance	100	2.0	1		625.6480373891609	1.1168076135454612
176.0	583.2212747280882	fix	2.0		60	dominance	100	2.0	1	0.7300000000000004	626.7648450027064	0.516753641597461
177.0	583.7380283696857	face	0.0		147	dominance	038	2.0	1		627.2815986443038	1.233458563548993
177.0	584.9714869332347	rating	1.0		228	dominance	038	2.0	1		628.5150572078528	1.9085519579621177
177.0	586.8800388911968	fix	2.0		60	dominance	038	2.0	1	1.6100000000000003	630.4236091658149	0.5167554527361062
178.0	587.3967943439329	face	0.0		147	dominance	137	2.0	1		630.940364618551	1.2334627895415906
178.0	588.6302571334745	rating	1.0		256	dominance	137	2.0	1		632.1738274080926	2.1419187571245857
178.0	590.7721758905991	fix	2.0		60	dominance	137	2.0	1	-1.46	634.3157461652172	0.5167584713017277
179.0	591.2889343619008	face	0.0		147	dominance	124	2.0	1		634.8325046365189	1.233459167262481
179.0	592.5223935291633	rating	1.0		603	dominance	124	2.0	1		636.0659638037814	5.033935617620955
179.0	597.5563291467843	fix	2.0		60	dominance	124	2.0	1	2.17	641.0998994214024	0.5167488118931942
180.0	598.0730779586775	face	0.0		147	dominance	062	2.0	1		641.6166482332956	1.233462487683937
180.0	599.3065404463614	rating	1.0		228	dominance	062	2.0	1		642.8501107209795	1.9085688619288703
180.0	601.2151093082903	fix	2.0		60	dominance	062	2.0	1	1.4400000000000004	644.7586795829084	0.516750924887674
181.0	601.7318602331779	face	0.0		147	dominance	030	2.0	1		645.275430507796	1.2334537338447262
181.0	602.9653139670227	rating	1.0		100	dominance	030	2.0	1		646.5088842416408	0.8417740470995341
181.0	603.8070880141222	fix	2.0		60	dominance	030	2.0	1	-1.1400000000000001	647.3506582887403	0.5167590750152158
182.0	604.3238470891374	face	0.0		147	dominance	136	2.0	1		647.8674173637555	1.2334546394140489
182.0	605.5573017285515	rating	1.0		71	dominance	136	2.0	1		649.1008720031696	0.6000615183638729
182.0	606.1573632469153	fix	2.0		60	dominance	136	2.0	1	1.1600000000000001	649.7009335215334	0.5167645084311516
183.0	606.6741277553465	face	0.0		147	dominance	034	2.0	1		650.2176980299646	1.23344528186135
183.0	607.9075730372078	rating	1.0		63	dominance	034	2.0	1		651.451143311826	0.5334043501152337
183.0	608.4409773873231	fix	2.0		60	dominance	034	2.0	1	-1.19	651.9845476619412	0.5167460951852263
184.0	608.9577234825083	face	0.0		147	dominance	172	2.0	1		652.5012937571264	1.2334588654048275
184.0	610.1911823479131	rating	1.0		77	dominance	172	2.0	1		653.7347526225312	0.6500854857713421
184.0	610.8412678336845	fix	2.0		60	dominance	172	2.0	1	1.5599999999999996	654.3848381083026	0.5167424729061167
185.0	611.3580103065906	face	0.0		147	dominance	009	2.0	1		654.9015805812087	1.2334649025360704
185.0	612.5914752091267	rating	1.0		86	dominance	009	2.0	1		656.1350454837448	0.7250926095857722
185.0	613.3165678187124	fix	2.0		60	dominance	009	2.0	1	0.6100000000000003	656.8601380933305	0.5167530378839729
186.0	613.8333208565964	face	0.0		147	dominance	121	2.0	1		657.3768911312145	1.2334561486968596
186.0	615.0667770052933	rating	1.0		89	dominance	121	2.0	1		658.6103472799114	0.7500902551055333
186.0	615.8168672603988	fix	2.0		60	dominance	121	2.0	1	0.9299999999999997	659.3604375350169	0.516753641597461
187.0	616.3336209019963	face	0.0		147	dominance	011	2.0	1		659.8771911766144	1.2334522245619155
187.0	617.5670731265582	rating	1.0		182	dominance	011	2.0	1		661.1106434011763	1.5251875132817077
187.0	619.0922606398399	fix	2.0		60	dominance	011	2.0	1	1.9299999999999997	662.635830914458	0.5167482081797061
188.0	619.6090088480196	face	0.0		147	dominance	027	2.0	1		663.1525791226377	1.2334582616931584
188.0	620.8424671097127	rating	1.0		69	dominance	027	2.0	1		664.3860373843308	0.5834023578609049
188.0	621.4258694675736	fix	2.0		60	dominance	027	2.0	1	-1.13	664.9694397421918	0.5167506230318395
189.0	621.9426200906055	face	0.0		147	dominance	144	2.0	1		665.4861903652236	1.2335128977265413
189.0	623.176132988332	rating	1.0		118	dominance	144	2.0	1		666.7197032629501	0.9917390921127662
189.0	624.1678720804448	fix	2.0		60	dominance	144	2.0	1	1.21	667.7114423550629	0.516744284044762
190.0	624.6846163644896	face	0.0		147	dominance	024	2.0	1		668.2281866391077	1.2334627895397716
190.0	625.9180791540293	rating	1.0		69	dominance	024	2.0	1		669.4616494286474	0.5834020560050703
190.0	626.5014812100344	fix	2.0		60	dominance	024	2.0	1	1.8099999999999996	670.0450514846525	0.5167491137490288
191.0	627.0182303237834	face	0.0		147	dominance	141	2.0	1		670.5618005984015	1.2334642988244013
191.0	628.2516946226078	rating	1.0		43	dominance	141	2.0	1		671.7952648972259	0.36672731970611494
191.0	628.618421942314	fix	2.0		60	dominance	141	2.0	1	-1.2400000000000002	672.161992216932	0.5167379450576846
192.0	629.1351598873716	face	0.0		147	dominance	126	2.0	1		672.6787301619897	1.2334633932550787
192.0	630.3686232806267	rating	1.0		159	dominance	126	2.0	1		673.9121935552448	1.3334911036836274
192.0	631.7021143843103	fix	2.0		60	dominance	126	2.0	1	0.8200000000000003	675.2456846589284	0.5167512267453276
193.0	632.2188656110557	face	0.0		147	dominance	044	2.0	1		675.7624358856738	1.233459167260662
193.0	633.4523247783163	rating	1.0		210	dominance	044	2.0	1		676.9958950529344	1.7585449548914767
193.0	635.2108697332078	fix	2.0		60	dominance	044	2.0	1	0.9400000000000004	678.7544400078259	0.516744284044762
194.0	635.7276140172526	face	0.0		147	dominance	039	2.0	1		679.2711842918707	1.2334694303845026
194.0	636.9610834476371	rating	1.0		441	dominance	039	2.0	1		680.5046537222552	3.683774184746653
194.0	640.6448576323837	fix	2.0		60	dominance	039	2.0	1	1.5300000000000002	684.1884279070018	0.516766923283285
195.0	641.161624555667	face	0.0		147	dominance	005	2.0	1		684.7051948302851	1.2334446781496808
195.0	642.3950692338167	rating	1.0		228	dominance	005	2.0	1		685.9386395084348	1.9085745972024597
195.0	644.3036438310191	fix	2.0		60	dominance	005	2.0	1	-1.7400000000000002	687.8472141056372	0.5167307004994655
196.0	644.8203745315186	face	0.0		147	dominance	099	2.0	1		688.3639448061367	1.2334730526636122
196.0	646.0538475841822	rating	1.0		70	dominance	099	2.0	1		689.5974178588003	0.5917278630495275
196.0	646.6455754472317	fix	2.0		60	dominance	099	2.0	1	-1.44	690.1891457218499	0.5167521323146502
197.0	647.1623275795464	face	0.0		147	dominance	091	2.0	1		690.7058978541645	1.2334655062495585
197.0	648.395793085796	rating	1.0		320	dominance	091	2.0	1		691.9393633604141	2.6753197868165444
197.0	651.0711128726125	fix	2.0		60	dominance	091	2.0	1	0.9900000000000002	694.6146831472306	0.5167473026103835
198.0	651.5878601752229	face	0.0		147	dominance	102	2.0	1		695.131430449841	1.2334600728318037
198.0	652.8213202480547	rating	1.0		353	dominance	102	2.0	1		696.3648905226728	2.950352447693149
198.0	655.7716726957478	fix	2.0		60	dominance	102	2.0	1	-1.5	699.315242970366	0.5167533397416264
199.0	656.2884260354895	face	0.0		147	dominance	006	2.0	1		699.8319963101076	1.2334636951109132
199.0	657.5218897306004	rating	1.0		100	dominance	006	2.0	1		701.0654600052185	0.8417680099682912
199.0	658.3636577405687	fix	2.0		60	dominance	006	2.0	1	0.6900000000000004	701.9072280151868	0.5000621824456175
200.0	658.8637199230143	cue	0.0		480						702.4072901976324	4.0004745184796775
200.0	662.864194441494	fix	1.0		120						706.4077647161121	1.0168149184737558
200.0	663.8810093599677	face	0.0		147	trustworthiness	024	2.0	1		707.4245796345858	1.2334570542661822
200.0	665.1144664142339	rating	1.0		73	trustworthiness	024	2.0	1		708.658036688852	0.6167381865434436
200.0	665.7312046007773	fix	2.0		60	trustworthiness	024	2.0	1	0.9400000000000004	709.2747748753955	0.5167690362814028
201.0	666.2479736370587	face	0.0		147	trustworthiness	062	2.0	1		709.7915439116769	1.2334516208484274
201.0	667.4814252579072	rating	1.0		69	trustworthiness	062	2.0	1		711.0249955325253	0.5833972263008036
201.0	668.064822484208	fix	2.0		60	trustworthiness	062	2.0	1	-2.13	711.6083927588261	0.5167491137490288
202.0	668.581571597957	face	0.0		147	trustworthiness	099	2.0	1		712.1251418725751	1.233461280256961
202.0	669.815032878214	rating	1.0		73	trustworthiness	099	2.0	1		713.3586031528321	0.6167460348133318
202.0	670.4317789130273	fix	2.0		60	trustworthiness	099	2.0	1	1.4699999999999998	713.9753491876454	0.5167678288544266
203.0	670.9485467418817	face	0.0		147	trustworthiness	136	2.0	1		714.4921170164998	1.2334498097097821
203.0	672.1819965515915	rating	1.0		55	trustworthiness	136	2.0	1		715.7255668262096	0.4667197129219858
203.0	672.6487162645135	fix	2.0		60	trustworthiness	136	2.0	1	-1.2200000000000002	716.1922865391316	0.5167500193183514
204.0	673.1654662838318	face	0.0		147	trustworthiness	036	2.0	1		716.70903655845	1.2334582616931584
204.0	674.398924545525	rating	1.0		102	trustworthiness	036	2.0	1		717.9424948201431	0.8584280760387628
204.0	675.2573526215638	fix	2.0		60	trustworthiness	036	2.0	1	0.8700000000000001	718.8009228961819	0.5167593768728693
205.0	675.7741119984366	face	0.0		147	trustworthiness	006	2.0	1		719.3176822730547	1.233461280256961
205.0	677.0075732786936	rating	1.0		65	trustworthiness	006	2.0	1		720.5511435533117	0.5500571716293052
205.0	677.5576304503229	fix	2.0		60	trustworthiness	006	2.0	1	1.6600000000000001	721.101200724941	0.5167539434532955
206.0	678.0743843937762	face	0.0		147	trustworthiness	144	2.0	1		721.6179546683943	1.2334579598355049
206.0	679.3078423536117	rating	1.0		102	trustworthiness	144	2.0	1		722.8514126282298	0.858442565153382
206.0	680.1662849187651	fix	2.0		60	trustworthiness	144	2.0	1	2.1399999999999997	723.7098551933832	0.5167512267453276
207.0	680.6830361455104	face	0.0		147	trustworthiness	091	2.0	1		724.2266064201285	1.2334540357005608
207.0	681.916490181211	rating	1.0		102	trustworthiness	091	2.0	1		725.4600604558291	0.8584461874306726
207.0	682.7749363686416	fix	2.0		60	trustworthiness	091	2.0	1	1.96	726.3185066432598	0.5167494156066823
208.0	683.2916857842483	face	0.0		147	trustworthiness	102	2.0	1		726.8352560588664	1.2334531301312381
208.0	684.5251389143796	rating	1.0		48	trustworthiness	102	2.0	1		728.0687091889977	0.4083795978785929
208.0	684.9335185122582	fix	2.0		60	trustworthiness	102	2.0	1	-1.33	728.4770887868763	0.5167527360281383
209.0	685.4502712482863	face	0.0		147	trustworthiness	042	2.0	1		728.9938415229044	1.2334673173882038
209.0	686.6837385656745	rating	1.0		79	trustworthiness	042	2.0	1		730.2273088402926	0.6667386091412482
209.0	687.3504771748158	fix	2.0		60	trustworthiness	042	2.0	1	0.6900000000000004	730.8940474494339	0.5167506230336585
210.0	687.8672277978494	face	0.0		147	trustworthiness	009	2.0	1		731.4107980724675	1.233461280256961
210.0	689.1006890781064	rating	1.0		98	trustworthiness	009	2.0	1		732.6442593527245	0.8251043216205289
210.0	689.9257933997269	fix	2.0		60	trustworthiness	009	2.0	1	1.9299999999999997	733.469363674345	0.5167494156048633
211.0	690.4425428153318	face	0.0		147	trustworthiness	027	2.0	1		733.9861130899499	1.2334564505545131
211.0	691.6759992658863	rating	1.0		216	trustworthiness	027	2.0	1		735.2195695405044	1.8085571498941135
211.0	693.4845564157804	fix	2.0		60	trustworthiness	027	2.0	1	1.04	737.0281266903985	0.5167521323146502
212.0	694.001308548095	face	0.0		147	trustworthiness	092	2.0	1		737.5448788227131	1.2334513189925929
212.0	695.2347598670876	rating	1.0		76	trustworthiness	092	2.0	1		738.7783301417057	0.6417530378839729
212.0	695.8765129049716	fix	2.0		60	trustworthiness	092	2.0	1	-1.52	739.4200831795897	0.516750924887674
213.0	696.3932638298593	face	0.0		147	trustworthiness	121	2.0	1		739.9368341044774	1.2334510171367583
213.0	697.626714846996	rating	1.0		76	trustworthiness	121	2.0	1		741.1702851216141	0.641750321174186
213.0	698.2684651681702	fix	2.0		60	trustworthiness	121	2.0	1	-1.73	741.8120354427883	0.5167454914717382
214.0	698.785210659642	face	0.0		147	trustworthiness	172	2.0	1		742.3287809342601	1.2334594691183156
214.0	700.0186701287603	rating	1.0		92	trustworthiness	172	2.0	1		743.5622404033784	0.7750999748859613
214.0	700.7937701036462	fix	2.0		60	trustworthiness	172	2.0	1	-1.6800000000000002	744.3373403782643	0.5167518304588157
215.0	701.310521934105	face	0.0		147	trustworthiness	064	2.0	1		744.8540922087232	1.233462487683937
215.0	702.543984421789	rating	1.0		95	trustworthiness	064	2.0	1		746.0875546964071	0.8000873572818819
215.0	703.3440717790709	fix	2.0		60	trustworthiness	064	2.0	1	-1.7200000000000002	746.887642053689	0.5167506230318395
216.0	703.8608224021027	face	0.0		147	trustworthiness	087	2.0	1		747.4043926767208	1.2334682229575265
216.0	705.0942906250602	rating	1.0		85	trustworthiness	087	2.0	1		748.6378608996783	0.7167514078591921
216.0	705.8110420329194	fix	2.0		60	trustworthiness	087	2.0	1	2.05	749.3546123075375	0.5167451896140847
217.0	706.3277872225335	face	0.0		147	trustworthiness	038	2.0	1		749.8713574971516	1.2334673173900228
217.0	707.5612545399235	rating	1.0		70	trustworthiness	038	2.0	1		751.1048248145416	0.5917278630477085
217.0	708.1529824029712	fix	2.0		60	trustworthiness	038	2.0	1	1.9500000000000002	751.6965526775894	0.5167599805845384
218.0	708.6697423835558	face	0.0		147	trustworthiness	033	2.0	1		752.2133126581739	1.2334528282754036
218.0	709.9031952118312	rating	1.0		62	trustworthiness	033	2.0	1		753.4467654864493	0.5250619409616775
218.0	710.4282571527929	fix	2.0		60	trustworthiness	033	2.0	1	-1.5299999999999998	753.971827427411	0.5167515286011621
219.0	710.945008681394	face	0.0		147	trustworthiness	061	2.0	1		754.4885789560121	1.2334606765452918
219.0	712.1784693579393	rating	1.0		69	trustworthiness	061	2.0	1		755.7220396325574	0.5834099042749585
219.0	712.7618792622143	fix	2.0		60	trustworthiness	061	2.0	1	1.7199999999999998	756.3054495368324	0.5167642065771361
220.0	713.2786434687914	face	0.0		147	trustworthiness	124	2.0	1		756.8222137434095	1.2334476967134833
220.0	714.5120911655049	rating	1.0		157	trustworthiness	124	2.0	1		758.055661440123	1.3168216800604569
220.0	715.8289128455654	fix	2.0		60	trustworthiness	124	2.0	1	2.1500000000000004	759.3724831201835	0.516754245310949
221.0	716.3456670908763	face	0.0		147	trustworthiness	100	2.0	1		759.8892373654944	1.2334603746894572
221.0	717.5791274655658	rating	1.0		132	trustworthiness	100	2.0	1		761.1226977401839	1.1084573561220168
221.0	718.6875848216878	fix	2.0		60	trustworthiness	100	2.0	1	-1.85	762.2311550963059	0.5167856383905018
222.0	719.2043704600783	face	0.0		147	trustworthiness	044	2.0	1		762.7479407346964	1.233425359330795
222.0	720.4377958194091	rating	1.0		250	trustworthiness	044	2.0	1		763.9813660940272	2.091926484650685
222.0	722.5297223040598	fix	2.0		60	trustworthiness	044	2.0	1	1.5599999999999996	766.0732925786779	0.516750924887674
223.0	723.0464732289474	face	0.0		147	trustworthiness	030	2.0	1		766.5900435035655	1.2334597709759691
223.0	724.2799329999234	rating	1.0		98	trustworthiness	030	2.0	1		767.8235032745415	0.8250964733488217
223.0	725.1050294732722	fix	2.0		60	trustworthiness	030	2.0	1	2.26	768.6485997478903	0.5167524341723038
224.0	725.6217819074445	face	0.0		147	trustworthiness	126	2.0	1		769.1653521820626	1.2334615821146144
224.0	726.8552434895591	rating	1.0		137	trustworthiness	126	2.0	1		770.3988137641772	1.1501364995256154
224.0	728.0053799890848	fix	2.0		60	trustworthiness	126	2.0	1	1.8899999999999997	771.5489502637029	0.5167518304588157
225.0	728.5221318195436	face	0.0		147	trustworthiness	018	2.0	1		772.0657020941617	1.2334863343512552
225.0	729.7556181538948	rating	1.0		60	trustworthiness	018	2.0	1		773.2991884285129	0.5083665576767089
225.0	730.2639847115715	fix	2.0		60	trustworthiness	018	2.0	1	0.7999999999999998	773.8075549861896	0.5167515286011621
226.0	730.7807362401727	face	0.0		147	trustworthiness	012	2.0	1		774.3243065147908	1.2334561486968596
226.0	732.0141923888696	rating	1.0		80	trustworthiness	012	2.0	1		775.5577626634877	0.6750789052985056
226.0	732.6892712941681	fix	2.0		60	trustworthiness	012	2.0	1	-2.29	776.2328415687862	0.5167596787287039
227.0	733.2060309728968	face	0.0		147	trustworthiness	117	2.0	1		776.7496012475149	1.233459167262481
227.0	734.4394901401593	rating	1.0		66	trustworthiness	117	2.0	1		777.9830604147774	0.5583902232283435
227.0	734.9978803633876	fix	2.0		60	trustworthiness	117	2.0	1	1.12	778.5414506380057	0.5167518304588157
228.0	735.5146321938464	face	0.0		147	trustworthiness	070	2.0	1		779.0582024684645	1.2334636951090943
228.0	736.7480958889555	rating	1.0		68	trustworthiness	070	2.0	1		780.2916661635736	0.5750662876962451
228.0	737.3231621766517	fix	2.0		60	trustworthiness	070	2.0	1	-1.4700000000000002	780.8667324512699	0.5167521323146502
229.0	737.8399143089664	face	0.0		147	trustworthiness	066	2.0	1		781.3834845835845	1.2334603746894572
229.0	739.0733746836559	rating	1.0		82	trustworthiness	066	2.0	1		782.616944958274	0.6917486307775107
229.0	739.7651233144334	fix	2.0		60	trustworthiness	066	2.0	1	1.3899999999999997	783.3086935890515	0.5167515286011621
230.0	740.2818748430345	face	0.0		147	trustworthiness	141	2.0	1		783.8254451176526	1.233467921103511
230.0	741.515342764138	rating	1.0		73	trustworthiness	141	2.0	1		785.0589130387561	0.6167396958244353
230.0	742.1320824599625	fix	2.0		60	trustworthiness	141	2.0	1	-1.7400000000000002	785.6756527345806	0.5167512267453276
231.0	742.6488336867078	face	0.0		147	trustworthiness	082	2.0	1		786.1924039613259	1.2335047475989995
231.0	743.8823384343068	rating	1.0		75	trustworthiness	082	2.0	1		787.4259087089249	0.6333568982681754
231.0	744.515695332575	fix	2.0		60	trustworthiness	082	2.0	1	-0.9900000000000002	788.0592656071931	0.5167774882629601
232.0	745.0324728208379	face	0.0		147	trustworthiness	039	2.0	1		788.576043095456	1.2334440744361927
232.0	746.2659168952741	rating	1.0		100	trustworthiness	039	2.0	1		789.8094871698922	0.8417637839756935
232.0	747.1076806792498	fix	2.0		60	trustworthiness	039	2.0	1	1.8099999999999996	790.6512509538679	0.5167518304588157
233.0	747.6244325097086	face	0.0		147	trustworthiness	137	2.0	1		791.1680027843267	1.2334606765452918
233.0	748.8578931862539	rating	1.0		89	trustworthiness	137	2.0	1		792.401463460872	0.7500899532478797
233.0	749.6079831395018	fix	2.0		60	trustworthiness	137	2.0	1	-1.9	793.1515534141199	0.5167500193183514
234.0	750.1247331588202	face	0.0		147	trustworthiness	034	2.0	1		793.6683034334383	1.2334540357023798
234.0	751.3581871945225	rating	1.0		262	trustworthiness	034	2.0	1		794.9017574691406	2.191928537275089
234.0	753.5501157317976	fix	2.0		60	trustworthiness	034	2.0	1	1.5700000000000003	797.0936860064157	0.5167584713017277
235.0	754.0668742030994	face	0.0		147	trustworthiness	130	2.0	1		797.6104444777175	1.2334609784011263
235.0	755.3003351815005	rating	1.0		44	trustworthiness	130	2.0	1		798.8439054561186	0.3750386376377719
235.0	755.6753738191383	fix	2.0		60	trustworthiness	130	2.0	1	-1.4700000000000002	799.2189440937564	0.5167584713017277
236.0	756.19213229044	face	0.0		147	trustworthiness	011	2.0	1		799.7357025650581	1.2334531301312381
236.0	757.4255854205712	rating	1.0		98	trustworthiness	011	2.0	1		800.9691556951893	0.8250967752064753
236.0	758.2506821957777	fix	2.0		60	trustworthiness	011	2.0	1	0.9400000000000004	801.7942524703958	0.5167593768710503
237.0	758.7674415726487	face	0.0		147	trustworthiness	043	2.0	1		802.3110118472669	1.2334627895415906
237.0	760.0009043621903	rating	1.0		55	trustworthiness	043	2.0	1		803.5444746368084	0.46671488321771903
237.0	760.4676192454081	fix	2.0		60	trustworthiness	043	2.0	1	1.0599999999999996	804.0111895200262	0.5167491137490288
238.0	760.9843683591571	face	0.0		147	trustworthiness	005	2.0	1		804.5279386337752	1.2334600728318037
238.0	762.2178284319889	rating	1.0		86	trustworthiness	005	2.0	1		805.761398706607	0.7250929114416067
238.0	762.9429213434305	fix	2.0		60	trustworthiness	005	2.0	1	1.5499999999999998	806.4864916180486	0.5167454914717382
239.0	763.4596668349022	face	0.0		147	trustworthiness	101	2.0	1		807.0032371095203	1.2334664118188812
239.0	764.6931332467211	rating	1.0		152	trustworthiness	101	2.0	1		808.2367035213392	1.2751506867844
239.0	765.9682839335055	fix	2.0		60	trustworthiness	101	2.0	1	1.2599999999999998	809.5118542081236	0.5000537304640602
