trial_nr	onset	event_type	phase	response	nr_frames	face_age	face_sex	face_eth	attractiveness	expression	face_id	sub_id	ses	run	trial_type	catch	rating_type	onset_abs	duration
-1.0	0.06118620374945749	fix	0.0		713													18.705542715066258	5.957860417745906
-1.0	0.7026485486458114	pulse	0.0	t														19.347005059962612	
-1.0	1.402615435374173	pulse	0.0	t														20.046971946690974	
-1.0	2.1025886610132147	pulse	0.0	t														20.746945172330015	
-1.0	2.80257245150824	pulse	0.0	t														21.44692896282504	
-1.0	3.5025535253262206	pulse	0.0	t														22.14691003664302	
-1.0	4.202529467644126	pulse	0.0	t														22.846885978960927	
-1.0	4.90251657852059	pulse	0.0	t														23.54687308983739	
-1.0	5.602498859750995	pulse	0.0	t														24.246855371067795	
0.0	6.019046621495363	face	0.0		144	24.0	female	east_asian	4.409868682849185	smiling	030	sub-01	1.0	4.0	030_smiling	0.0		24.663403132812164	1.2333130387505662
0.0	6.302495328071018	pulse	0.0	t		24.0	female	east_asian	4.409868682849185	smiling	030	sub-01	1.0	4.0	030_smiling	0.0		24.94685183938782	
0.0	7.002476401888998	pulse	0.0	t		24.0	female	east_asian	4.409868682849185	smiling	030	sub-01	1.0	4.0	030_smiling	0.0		25.6468329132058	
0.0	7.252359660245929	fix	1.0		445	24.0	female	east_asian	4.409868682849185	smiling	030	sub-01	1.0	4.0	030_smiling	0.0		25.89671617156273	3.758212438699047
0.0	7.702462305354857	pulse	1.0	t		24.0	female	east_asian	4.409868682849185	smiling	030	sub-01	1.0	4.0	030_smiling	0.0		26.346818816671657	
0.0	8.402433418023065	pulse	1.0	t		24.0	female	east_asian	4.409868682849185	smiling	030	sub-01	1.0	4.0	030_smiling	0.0		27.046789929339866	
0.0	9.102413888134834	pulse	1.0	t		24.0	female	east_asian	4.409868682849185	smiling	030	sub-01	1.0	4.0	030_smiling	0.0		27.746770399451634	
0.0	9.802387113775694	pulse	1.0	t		24.0	female	east_asian	4.409868682849185	smiling	030	sub-01	1.0	4.0	030_smiling	0.0		28.446743625092495	
0.0	10.502378450595643	pulse	1.0	t		24.0	female	east_asian	4.409868682849185	smiling	030	sub-01	1.0	4.0	030_smiling	0.0		29.146734961912443	
1.0	11.010572098944976	face	0.0		146	40.0	female	west_asian	1.5777954635893354	neutral	038	sub-01	1.0	4.0	038_neutral	0.0		29.654928610261777	1.2416514256055962
1.0	11.202367070736727	pulse	0.0	t		40.0	female	west_asian	1.5777954635893354	neutral	038	sub-01	1.0	4.0	038_neutral	0.0		29.846723582053528	
1.0	11.902328825965014	pulse	0.0	t		40.0	female	west_asian	1.5777954635893354	neutral	038	sub-01	1.0	4.0	038_neutral	0.0		30.546685337281815	
1.0	12.252223524550573	fix	1.0		445	40.0	female	west_asian	1.5777954635893354	neutral	038	sub-01	1.0	4.0	038_neutral	0.0		30.896580035867373	3.7582169664929097
1.0	12.60234068878708	pulse	1.0	t		40.0	female	west_asian	1.5777954635893354	neutral	038	sub-01	1.0	4.0	038_neutral	0.0		31.24669720010388	
1.0	13.302300934748928	pulse	1.0	t		40.0	female	west_asian	1.5777954635893354	neutral	038	sub-01	1.0	4.0	038_neutral	0.0		31.94665744606573	
1.0	14.002276273360621	pulse	1.0	t		40.0	female	west_asian	1.5777954635893354	neutral	038	sub-01	1.0	4.0	038_neutral	0.0		32.64663278467742	
1.0	14.70226217682466	pulse	1.0	t		40.0	female	west_asian	1.5777954635893354	neutral	038	sub-01	1.0	4.0	038_neutral	0.0		33.34661868814146	
1.0	15.402238722848779	pulse	1.0	t		40.0	female	west_asian	1.5777954635893354	neutral	038	sub-01	1.0	4.0	038_neutral	0.0		34.04659523416558	
2.0	16.010440491043482	face	0.0		146	31.0	female	west_asian	2.364902506963788	neutral	006	sub-01	1.0	4.0	006_neutral	1.0	dominance	34.65479700236028	1.2416511237533996
2.0	16.102242737493725	pulse	0.0	t		31.0	female	west_asian	2.364902506963788	neutral	006	sub-01	1.0	4.0	006_neutral	1.0	dominance	34.746599248810526	
2.0	16.80220087048474	pulse	0.0	t		31.0	female	west_asian	2.364902506963788	neutral	006	sub-01	1.0	4.0	006_neutral	1.0	dominance	35.44655738180154	
2.0	17.252091614796882	fix	1.0		177	31.0	female	west_asian	2.364902506963788	neutral	006	sub-01	1.0	4.0	006_neutral	1.0	dominance	35.89644812611368	1.5083300858968869
2.0	17.502186773950598	pulse	1.0	t		31.0	female	west_asian	2.364902506963788	neutral	006	sub-01	1.0	4.0	006_neutral	1.0	dominance	36.1465432852674	
2.0	18.20217871447494	pulse	1.0	t		31.0	female	west_asian	2.364902506963788	neutral	006	sub-01	1.0	4.0	006_neutral	1.0	dominance	36.84653522579174	
2.0	18.76042170069377	rating	2.0		293	31.0	female	west_asian	2.364902506963788	neutral	006	sub-01	1.0	4.0	006_neutral	1.0	dominance	37.40477821201057	2.4915524932912376
2.0	18.902170353147085	pulse	2.0	t		31.0	female	west_asian	2.364902506963788	neutral	006	sub-01	1.0	4.0	006_neutral	1.0	dominance	37.546526864463885	
2.0	19.60213995655249	pulse	2.0	t		31.0	female	west_asian	2.364902506963788	neutral	006	sub-01	1.0	4.0	006_neutral	1.0	dominance	38.24649646786929	
2.0	20.293773286071882	response	2.0	e		31.0	female	west_asian	2.364902506963788	neutral	006	sub-01	1.0	4.0	006_neutral	1.0	dominance	38.93812979738868	
2.0	20.30534149986488	pulse	2.0	t		31.0	female	west_asian	2.364902506963788	neutral	006	sub-01	1.0	4.0	006_neutral	1.0	dominance	38.94969801118168	
2.0	21.00207976706588	pulse	2.0	t		31.0	female	west_asian	2.364902506963788	neutral	006	sub-01	1.0	4.0	006_neutral	1.0	dominance	39.64643627838268	
2.0	21.251974193985006	fix	3.0		444	31.0	female	west_asian	2.364902506963788	neutral	006	sub-01	1.0	4.0	006_neutral	1.0	dominance	39.89633070530181	3.7582275313470745
2.0	21.702079253916963	pulse	3.0	t		31.0	female	west_asian	2.364902506963788	neutral	006	sub-01	1.0	4.0	006_neutral	1.0	dominance	40.346435765233764	
2.0	22.40205368696843	pulse	3.0	t		31.0	female	west_asian	2.364902506963788	neutral	006	sub-01	1.0	4.0	006_neutral	1.0	dominance	41.04641019828523	
2.0	23.102035968198834	pulse	3.0	t		31.0	female	west_asian	2.364902506963788	neutral	006	sub-01	1.0	4.0	006_neutral	1.0	dominance	41.746392479515634	
2.0	23.80204873657931	pulse	3.0	t		31.0	female	west_asian	2.364902506963788	neutral	006	sub-01	1.0	4.0	006_neutral	1.0	dominance	42.44640524789611	
2.0	24.50200868068896	pulse	3.0	t		31.0	female	west_asian	2.364902506963788	neutral	006	sub-01	1.0	4.0	006_neutral	1.0	dominance	43.14636519200576	
3.0	25.01020172533208	face	0.0		146	40.0	female	west_asian	1.5777954635893354	smiling	038	sub-01	1.0	4.0	038_smiling	0.0		43.65455823664888	1.2416423700160522
3.0	25.20198824524232	pulse	0.0	t		40.0	female	west_asian	1.5777954635893354	smiling	038	sub-01	1.0	4.0	038_smiling	0.0		43.84634475655912	
3.0	25.901956339381286	pulse	0.0	t		40.0	female	west_asian	1.5777954635893354	smiling	038	sub-01	1.0	4.0	038_smiling	0.0		44.54631285069809	
3.0	26.251844095348133	fix	1.0		445	40.0	female	west_asian	1.5777954635893354	smiling	038	sub-01	1.0	4.0	038_smiling	0.0		44.896200606664934	3.7582284369054832
3.0	26.601949789172068	pulse	1.0	t		40.0	female	west_asian	1.5777954635893354	smiling	038	sub-01	1.0	4.0	038_smiling	0.0		45.24630630048887	
3.0	27.301922411104897	pulse	1.0	t		40.0	female	west_asian	1.5777954635893354	smiling	038	sub-01	1.0	4.0	038_smiling	0.0		45.9462789224217	
3.0	28.00190861642477	pulse	1.0	t		40.0	female	west_asian	1.5777954635893354	smiling	038	sub-01	1.0	4.0	038_smiling	0.0		46.64626512774157	
3.0	28.70190297177396	pulse	1.0	t		40.0	female	west_asian	1.5777954635893354	smiling	038	sub-01	1.0	4.0	038_smiling	0.0		47.34625948309076	
3.0	29.401879215944064	pulse	1.0	t		40.0	female	west_asian	1.5777954635893354	smiling	038	sub-01	1.0	4.0	038_smiling	0.0		48.046235727260864	
4.0	30.010072532253616	face	0.0		146	28.0	female	white	5.676880222841227	smiling	124	sub-01	1.0	4.0	124_smiling	0.0		48.65442904357042	1.241639653340826
4.0	30.10187477870386	pulse	0.0	t		28.0	female	white	5.676880222841227	smiling	124	sub-01	1.0	4.0	124_smiling	0.0		48.74623129002066	
4.0	30.801835326519722	pulse	0.0	t		28.0	female	white	5.676880222841227	smiling	124	sub-01	1.0	4.0	124_smiling	0.0		49.44619183783652	
4.0	31.251712185594442	fix	1.0		444	28.0	female	white	5.676880222841227	smiling	124	sub-01	1.0	4.0	124_smiling	0.0		49.89606869691124	3.758255905526312
4.0	31.50182122998558	pulse	1.0	t		28.0	female	white	5.676880222841227	smiling	124	sub-01	1.0	4.0	124_smiling	0.0		50.14617774130238	
4.0	32.201791135243184	pulse	1.0	t		28.0	female	white	5.676880222841227	smiling	124	sub-01	1.0	4.0	124_smiling	0.0		50.846147646559984	
4.0	32.901781566502905	pulse	1.0	t		28.0	female	white	5.676880222841227	smiling	124	sub-01	1.0	4.0	124_smiling	0.0		51.546138077819705	
4.0	33.601763545879294	pulse	1.0	t		28.0	female	white	5.676880222841227	smiling	124	sub-01	1.0	4.0	124_smiling	0.0		52.246120057196094	
4.0	34.30173646966614	pulse	1.0	t		28.0	female	white	5.676880222841227	smiling	124	sub-01	1.0	4.0	124_smiling	0.0		52.94609298098294	
5.0	35.009968091120754	face	0.0		147	25.0	female	black	3.858336649423	neutral	126	sub-01	1.0	4.0	126_neutral	0.0		53.654324602437555	1.2416130902784062
5.0	35.00414051739426	pulse	0.0	t		25.0	female	black	3.858336649423	neutral	126	sub-01	1.0	4.0	126_neutral	0.0		53.64849702871106	
5.0	35.70171431365816	pulse	0.0	t		25.0	female	black	3.858336649423	neutral	126	sub-01	1.0	4.0	126_neutral	0.0		54.34607082497496	
5.0	36.25158118139916	fix	1.0		444	25.0	female	black	3.858336649423	neutral	126	sub-01	1.0	4.0	126_neutral	0.0		54.89593769271596	3.7665616922604386
5.0	36.40169448191591	pulse	1.0	t		25.0	female	black	3.858336649423	neutral	126	sub-01	1.0	4.0	126_neutral	0.0		55.04605099323271	
5.0	37.10166619829215	pulse	1.0	t		25.0	female	black	3.858336649423	neutral	126	sub-01	1.0	4.0	126_neutral	0.0		55.74602270960895	
5.0	37.80165512028725	pulse	1.0	t		25.0	female	black	3.858336649423	neutral	126	sub-01	1.0	4.0	126_neutral	0.0		56.44601163160405	
5.0	38.50162321442622	pulse	1.0	t		25.0	female	black	3.858336649423	neutral	126	sub-01	1.0	4.0	126_neutral	0.0		57.14597972574302	
5.0	39.201607608627455	pulse	1.0	t		25.0	female	black	3.858336649423	neutral	126	sub-01	1.0	4.0	126_neutral	0.0		57.845964119944256	
5.0	39.901596530622555	pulse	1.0	t		25.0	female	black	3.858336649423	neutral	126	sub-01	1.0	4.0	126_neutral	0.0		58.545953041939356	
6.0	40.0181428736596	face	0.0		146	31.0	male	west_asian	1.9538400318344609	neutral	070	sub-01	1.0	4.0	070_neutral	0.0		58.6624993849764	1.2333217924860946
6.0	40.60158515076546	pulse	0.0	t		31.0	male	west_asian	1.9538400318344609	neutral	070	sub-01	1.0	4.0	070_neutral	0.0		59.24594166208226	
6.0	41.251464666145694	fix	1.0		443	31.0	male	west_asian	1.9538400318344609	neutral	070	sub-01	1.0	4.0	070_neutral	0.0		59.895821177462494	3.7582423221429053
6.0	41.30156833755427	pulse	1.0	t		31.0	male	west_asian	1.9538400318344609	neutral	070	sub-01	1.0	4.0	070_neutral	0.0		59.94592484887107	
6.0	42.001547600253616	pulse	1.0	t		31.0	male	west_asian	1.9538400318344609	neutral	070	sub-01	1.0	4.0	070_neutral	0.0		60.64590411157042	
6.0	42.70153682410273	pulse	1.0	t		31.0	male	west_asian	1.9538400318344609	neutral	070	sub-01	1.0	4.0	070_neutral	0.0		61.34589333541953	
6.0	43.40150974788958	pulse	1.0	t		31.0	male	west_asian	1.9538400318344609	neutral	070	sub-01	1.0	4.0	070_neutral	0.0		62.04586625920638	
6.0	44.101487803178316	pulse	1.0	t		31.0	male	west_asian	1.9538400318344609	neutral	070	sub-01	1.0	4.0	070_neutral	0.0		62.745844314495116	
6.0	44.80147038626092	pulse	1.0	t		31.0	male	west_asian	1.9538400318344609	neutral	070	sub-01	1.0	4.0	070_neutral	0.0		63.44582689757772	
7.0	45.0097069882886	face	0.0		146	21.0	male	east_asian/white	3.501790688420215	neutral	036	sub-01	1.0	4.0	036_neutral	1.0	trustworthiness	63.6540634996054	1.2416121847199975
7.0	45.5014526674895	pulse	0.0	t		21.0	male	east_asian/white	3.501790688420215	neutral	036	sub-01	1.0	4.0	036_neutral	1.0	trustworthiness	64.1458091788063	
7.0	46.201417139394835	pulse	0.0	t		21.0	male	east_asian/white	3.501790688420215	neutral	036	sub-01	1.0	4.0	036_neutral	1.0	trustworthiness	64.84577365071164	
7.0	46.251319173008596	fix	1.0		177	21.0	male	east_asian/white	3.501790688420215	neutral	036	sub-01	1.0	4.0	036_neutral	1.0	trustworthiness	64.8956756843254	1.4999726823043602
7.0	46.901424776275235	pulse	1.0	t		21.0	male	east_asian/white	3.501790688420215	neutral	036	sub-01	1.0	4.0	036_neutral	1.0	trustworthiness	65.54578128759204	
7.0	47.6013992093267	pulse	1.0	t		21.0	male	east_asian/white	3.501790688420215	neutral	036	sub-01	1.0	4.0	036_neutral	1.0	trustworthiness	66.2457557206435	
7.0	47.75129185531296	rating	2.0		295	21.0	male	east_asian/white	3.501790688420215	neutral	036	sub-01	1.0	4.0	036_neutral	1.0	trustworthiness	66.39564836662976	2.4999174432086875
7.0	48.301393262823694	pulse	2.0	t		21.0	male	east_asian/white	3.501790688420215	neutral	036	sub-01	1.0	4.0	036_neutral	1.0	trustworthiness	66.9457497741405	
7.0	49.001362564375086	pulse	2.0	t		21.0	male	east_asian/white	3.501790688420215	neutral	036	sub-01	1.0	4.0	036_neutral	1.0	trustworthiness	67.64571907569189	
7.0	49.10967284871731	response	2.0	b		21.0	male	east_asian/white	3.501790688420215	neutral	036	sub-01	1.0	4.0	036_neutral	1.0	trustworthiness	67.75402936003411	
7.0	49.70134092151602	pulse	2.0	t		21.0	male	east_asian/white	3.501790688420215	neutral	036	sub-01	1.0	4.0	036_neutral	1.0	trustworthiness	68.34569743283282	
7.0	50.251209298521644	fix	3.0		443	21.0	male	east_asian/white	3.501790688420215	neutral	036	sub-01	1.0	4.0	036_neutral	1.0	trustworthiness	68.89556580983844	3.7665665219083166
7.0	50.40132380645082	pulse	3.0	t		21.0	male	east_asian/white	3.501790688420215	neutral	036	sub-01	1.0	4.0	036_neutral	1.0	trustworthiness	69.04568031776762	
7.0	51.10129763579789	pulse	3.0	t		21.0	male	east_asian/white	3.501790688420215	neutral	036	sub-01	1.0	4.0	036_neutral	1.0	trustworthiness	69.74565414711469	
7.0	51.801283237409734	pulse	3.0	t		21.0	male	east_asian/white	3.501790688420215	neutral	036	sub-01	1.0	4.0	036_neutral	1.0	trustworthiness	70.44563974872653	
7.0	52.501275177935895	pulse	3.0	t		21.0	male	east_asian/white	3.501790688420215	neutral	036	sub-01	1.0	4.0	036_neutral	1.0	trustworthiness	71.1456316892527	
7.0	53.20125564804766	pulse	3.0	t		21.0	male	east_asian/white	3.501790688420215	neutral	036	sub-01	1.0	4.0	036_neutral	1.0	trustworthiness	71.84561215936446	
7.0	53.901223440334434	pulse	3.0	t		21.0	male	east_asian/white	3.501790688420215	neutral	036	sub-01	1.0	4.0	036_neutral	1.0	trustworthiness	72.54557995165123	
8.0	54.01777582042996	face	0.0		146	40.0	male	white	1.868682849184242	smiling	172	sub-01	1.0	4.0	172_smiling	0.0		72.66213233174676	1.2332988516609475
8.0	54.60122534200673	pulse	0.0	t		40.0	male	white	1.868682849184242	smiling	172	sub-01	1.0	4.0	172_smiling	0.0		73.24558185332353	
8.0	55.25107467209091	fix	1.0		443	40.0	male	white	1.868682849184242	smiling	172	sub-01	1.0	4.0	172_smiling	0.0		73.89543118340771	3.766567729318922
8.0	55.30120098247244	pulse	1.0	t		40.0	male	white	1.868682849184242	smiling	172	sub-01	1.0	4.0	172_smiling	0.0		73.94555749378924	
8.0	56.00116756734678	pulse	1.0	t		40.0	male	white	1.868682849184242	smiling	172	sub-01	1.0	4.0	172_smiling	0.0		74.64552407866358	
8.0	56.70115377266484	pulse	1.0	t		40.0	male	white	1.868682849184242	smiling	172	sub-01	1.0	4.0	172_smiling	0.0		75.34551028398164	
8.0	57.40113635574744	pulse	1.0	t		40.0	male	white	1.868682849184242	smiling	172	sub-01	1.0	4.0	172_smiling	0.0		76.04549286706424	
8.0	58.10111259991754	pulse	1.0	t		40.0	male	white	1.868682849184242	smiling	172	sub-01	1.0	4.0	172_smiling	0.0		76.74546911123434	
8.0	58.80111027564999	pulse	1.0	t		40.0	male	white	1.868682849184242	smiling	172	sub-01	1.0	4.0	172_smiling	0.0		77.44546678696679	
9.0	59.01764240140983	face	0.0		145	25.0	female	west_asian	2.6756864305610826	neutral	064	sub-01	1.0	4.0	064_neutral	1.0	attractiveness	77.66199891272663	1.2333060961318552
9.0	59.50109768838047	pulse	0.0	t		25.0	female	west_asian	2.6756864305610826	neutral	064	sub-01	1.0	4.0	064_neutral	1.0	attractiveness	78.14545419969727	
9.0	60.201068197344284	pulse	0.0	t		25.0	female	west_asian	2.6756864305610826	neutral	064	sub-01	1.0	4.0	064_neutral	1.0	attractiveness	78.84542470866108	
9.0	60.250948497541685	fix	1.0		177	25.0	female	west_asian	2.6756864305610826	neutral	064	sub-01	1.0	4.0	064_neutral	1.0	attractiveness	78.89530500885849	1.4999738897167845
9.0	60.901046856337416	pulse	1.0	t		25.0	female	west_asian	2.6756864305610826	neutral	064	sub-01	1.0	4.0	064_neutral	1.0	attractiveness	79.54540336765422	
9.0	61.601026420890776	pulse	1.0	t		25.0	female	west_asian	2.6756864305610826	neutral	064	sub-01	1.0	4.0	064_neutral	1.0	attractiveness	80.24538293220758	
9.0	61.75092238725847	rating	2.0		295	25.0	female	west_asian	2.6756864305610826	neutral	064	sub-01	1.0	4.0	064_neutral	1.0	attractiveness	80.39527889857527	2.499932535858534
9.0	62.30102258735678	pulse	2.0	t		25.0	female	west_asian	2.6756864305610826	neutral	064	sub-01	1.0	4.0	064_neutral	1.0	attractiveness	80.94537909867358	
9.0	63.0009930963206	pulse	2.0	t		25.0	female	west_asian	2.6756864305610826	neutral	064	sub-01	1.0	4.0	064_neutral	1.0	attractiveness	81.6453496076374	
9.0	63.100984312399305	response	2.0	w		25.0	female	west_asian	2.6756864305610826	neutral	064	sub-01	1.0	4.0	064_neutral	1.0	attractiveness	81.7453408237161	
9.0	63.700966623813656	pulse	2.0	t		25.0	female	west_asian	2.6756864305610826	neutral	064	sub-01	1.0	4.0	064_neutral	1.0	attractiveness	82.34532313513046	
9.0	64.250854923117	fix	3.0		443	25.0	female	west_asian	2.6756864305610826	neutral	064	sub-01	1.0	4.0	064_neutral	1.0	attractiveness	82.8952114344338	3.7665514292584703
9.0	64.40096641251694	pulse	3.0	t		25.0	female	west_asian	2.6756864305610826	neutral	064	sub-01	1.0	4.0	064_neutral	1.0	attractiveness	83.04532292383374	
9.0	65.10093933630378	pulse	3.0	t		25.0	female	west_asian	2.6756864305610826	neutral	064	sub-01	1.0	4.0	064_neutral	1.0	attractiveness	83.74529584762058	
9.0	65.80091980641555	pulse	3.0	t		25.0	female	west_asian	2.6756864305610826	neutral	064	sub-01	1.0	4.0	064_neutral	1.0	attractiveness	84.44527631773235	
9.0	66.5008996728211	pulse	3.0	t		25.0	female	west_asian	2.6756864305610826	neutral	064	sub-01	1.0	4.0	064_neutral	1.0	attractiveness	85.1452561841379	
9.0	67.2008686725203	pulse	3.0	t		25.0	female	west_asian	2.6756864305610826	neutral	064	sub-01	1.0	4.0	064_neutral	1.0	attractiveness	85.8452251838371	
9.0	67.90086695195896	pulse	3.0	t		25.0	female	west_asian	2.6756864305610826	neutral	064	sub-01	1.0	4.0	064_neutral	1.0	attractiveness	86.54522346327576	
10.0	68.01740635237547	face	0.0		146	20.0	female	white	3.9502586549940313	smiling	091	sub-01	1.0	4.0	091_smiling	0.0		86.66176286369227	1.2333196795170807
10.0	68.60085406283542	pulse	0.0	t		20.0	female	white	3.9502586549940313	smiling	091	sub-01	1.0	4.0	091_smiling	0.0		87.24521057415222	
10.0	69.25072603189255	fix	1.0		443	20.0	female	white	3.9502586549940313	smiling	091	sub-01	1.0	4.0	091_smiling	0.0		87.89508254320936	3.766550221846046
10.0	69.30083272183037	pulse	1.0	t		20.0	female	white	3.9502586549940313	smiling	091	sub-01	1.0	4.0	091_smiling	0.0		87.94518923314718	
10.0	70.00081953085464	pulse	1.0	t		20.0	female	white	3.9502586549940313	smiling	091	sub-01	1.0	4.0	091_smiling	0.0		88.64517604217144	
10.0	70.70078460646437	pulse	1.0	t		20.0	female	white	3.9502586549940313	smiling	091	sub-01	1.0	4.0	091_smiling	0.0		89.34514111778117	
10.0	71.40077201919485	pulse	1.0	t		20.0	female	white	3.9502586549940313	smiling	091	sub-01	1.0	4.0	091_smiling	0.0		90.04512853051165	
10.0	72.10075067818798	pulse	1.0	t		20.0	female	white	3.9502586549940313	smiling	091	sub-01	1.0	4.0	091_smiling	0.0		90.74510718950478	
10.0	72.80073326127058	pulse	1.0	t		20.0	female	white	3.9502586549940313	smiling	091	sub-01	1.0	4.0	091_smiling	0.0		91.44508977258738	
11.0	73.0172762537386	face	0.0		145	31.0	female	white	2.1822522881018704	neutral	102	sub-01	1.0	4.0	102_neutral	0.0		91.6616327650554	1.2333196795170807
11.0	73.50072580550295	pulse	0.0	t		31.0	female	white	2.1822522881018704	neutral	102	sub-01	1.0	4.0	102_neutral	0.0		92.14508231681975	
11.0	74.20071804788131	pulse	0.0	t		31.0	female	white	2.1822522881018704	neutral	102	sub-01	1.0	4.0	102_neutral	0.0		92.84507455919811	
11.0	74.25059593325568	fix	1.0		445	31.0	female	white	2.1822522881018704	neutral	102	sub-01	1.0	4.0	102_neutral	0.0		92.89495244457248	3.7665490144354408
11.0	74.9006939901974	pulse	1.0	t		31.0	female	white	2.1822522881018704	neutral	102	sub-01	1.0	4.0	102_neutral	0.0		93.5450505015142	
11.0	75.60067355475076	pulse	1.0	t		31.0	female	white	2.1822522881018704	neutral	102	sub-01	1.0	4.0	102_neutral	0.0		94.24503006606756	
11.0	76.30064225259594	pulse	1.0	t		31.0	female	white	2.1822522881018704	neutral	102	sub-01	1.0	4.0	102_neutral	0.0		94.94499876391274	
11.0	77.00061879862005	pulse	1.0	t		31.0	female	white	2.1822522881018704	neutral	102	sub-01	1.0	4.0	102_neutral	0.0		95.64497530993685	
11.0	77.70059866502561	pulse	1.0	t		31.0	female	white	2.1822522881018704	neutral	102	sub-01	1.0	4.0	102_neutral	0.0		96.34495517634241	
12.0	78.01714494769112	face	0.0		145	34.0	male	white	2.651014723438122	smiling	121	sub-01	1.0	4.0	121_smiling	0.0		96.66150145900792	1.2333060961318552
12.0	78.4006117352601	pulse	0.0	t		34.0	male	white	2.651014723438122	smiling	121	sub-01	1.0	4.0	121_smiling	0.0		97.0449682465769	
12.0	79.10056383119081	pulse	0.0	t		34.0	male	white	2.651014723438122	smiling	121	sub-01	1.0	4.0	121_smiling	0.0		97.74492034250761	
12.0	79.25045104382298	fix	1.0		444	34.0	male	white	2.651014723438122	smiling	121	sub-01	1.0	4.0	121_smiling	0.0		97.89480755513978	3.7665625978188473
12.0	79.80056060136485	pulse	1.0	t		34.0	male	white	2.651014723438122	smiling	121	sub-01	1.0	4.0	121_smiling	0.0		98.44491711268165	
12.0	80.5005271862392	pulse	1.0	t		34.0	male	white	2.651014723438122	smiling	121	sub-01	1.0	4.0	121_smiling	0.0		99.144883697556	
12.0	81.20051459896968	pulse	1.0	t		34.0	male	white	2.651014723438122	smiling	121	sub-01	1.0	4.0	121_smiling	0.0		99.84487111028648	
12.0	81.90049084313978	pulse	1.0	t		34.0	male	white	2.651014723438122	smiling	121	sub-01	1.0	4.0	121_smiling	0.0		100.54484735445658	
12.0	82.60047372807458	pulse	1.0	t		34.0	male	white	2.651014723438122	smiling	121	sub-01	1.0	4.0	121_smiling	0.0		101.24483023939138	
13.0	83.01701364164182	face	0.0		145	20.0	female	white	3.9502586549940313	neutral	091	sub-01	1.0	4.0	091_neutral	0.0		101.66137015295863	1.233305492427462
13.0	83.30047049824861	pulse	0.0	t		20.0	female	white	3.9502586549940313	neutral	091	sub-01	1.0	4.0	091_neutral	0.0		101.94482700956542	
13.0	84.00044825168334	pulse	0.0	t		20.0	female	white	3.9502586549940313	neutral	091	sub-01	1.0	4.0	091_neutral	0.0		102.64480476300014	
13.0	84.25031913406929	fix	1.0		444	20.0	female	white	3.9502586549940313	neutral	091	sub-01	1.0	4.0	091_neutral	0.0		102.89467564538609	3.766561994112635
13.0	84.70042540141185	pulse	1.0	t		20.0	female	white	3.9502586549940313	neutral	091	sub-01	1.0	4.0	091_neutral	0.0		103.34478191272865	
13.0	85.40038806219854	pulse	1.0	t		20.0	female	white	3.9502586549940313	neutral	091	sub-01	1.0	4.0	091_neutral	0.0		104.04474457351535	
13.0	86.10038543607698	pulse	1.0	t		20.0	female	white	3.9502586549940313	neutral	091	sub-01	1.0	4.0	091_neutral	0.0		104.74474194739378	
13.0	86.80037435807208	pulse	1.0	t		20.0	female	white	3.9502586549940313	neutral	091	sub-01	1.0	4.0	091_neutral	0.0		105.44473086938888	
13.0	87.50035513003786	pulse	1.0	t		20.0	female	white	3.9502586549940313	neutral	091	sub-01	1.0	4.0	091_neutral	0.0		106.14471164135466	
14.0	88.01688112818192	face	0.0		145	37.0	male	white	3.898925586947871	smiling	101	sub-01	1.0	4.0	101_smiling	0.0		106.66123763949872	1.2333106239275367
14.0	88.20034254276834	pulse	0.0	t		37.0	male	white	3.898925586947871	smiling	101	sub-01	1.0	4.0	101_smiling	0.0		106.84469905408514	
14.0	88.90030641096564	pulse	0.0	t		37.0	male	white	3.898925586947871	smiling	101	sub-01	1.0	4.0	101_smiling	0.0		107.54466292228244	
14.0	89.25019175210946	fix	1.0		444	37.0	male	white	3.898925586947871	smiling	101	sub-01	1.0	4.0	101_smiling	0.0		107.89454826342626	3.7665589755833935
14.0	89.60028537181279	pulse	1.0	t		37.0	male	white	3.898925586947871	smiling	101	sub-01	1.0	4.0	101_smiling	0.0		108.24464188312959	
14.0	90.30029210313478	pulse	1.0	t		37.0	male	white	3.898925586947871	smiling	101	sub-01	1.0	4.0	101_smiling	0.0		108.94464861445158	
14.0	91.00026563062784	pulse	1.0	t		37.0	male	white	3.898925586947871	smiling	101	sub-01	1.0	4.0	101_smiling	0.0		109.64462214194464	
14.0	91.70024911926885	pulse	1.0	t		37.0	male	white	3.898925586947871	smiling	101	sub-01	1.0	4.0	101_smiling	0.0		110.34460563058565	
14.0	92.40029388406583	pulse	1.0	t		37.0	male	white	3.898925586947871	smiling	101	sub-01	1.0	4.0	101_smiling	0.0		111.04465039538263	
15.0	93.01675072769285	face	0.0		145	19.0	male	white	2.243931555909272	neutral	130	sub-01	1.0	4.0	130_neutral	0.0		111.66110723900965	1.2333024738964014
15.0	93.10021217246322	pulse	0.0	t		19.0	male	white	2.243931555909272	neutral	130	sub-01	1.0	4.0	130_neutral	0.0		111.74456868378002	
15.0	93.8001941518396	pulse	0.0	t		19.0	male	white	2.243931555909272	neutral	130	sub-01	1.0	4.0	130_neutral	0.0		112.4445506631564	
15.0	94.25005320158925	fix	1.0		444	19.0	male	white	2.243931555909272	neutral	130	sub-01	1.0	4.0	130_neutral	0.0		112.89440971290605	3.7665514292584703
15.0	94.50017643307001	pulse	1.0	t		19.0	male	white	2.243931555909272	neutral	130	sub-01	1.0	4.0	130_neutral	0.0		113.14453294438681	
15.0	95.20014603647542	pulse	1.0	t		19.0	male	white	2.243931555909272	neutral	130	sub-01	1.0	4.0	130_neutral	0.0		113.84450254779222	
15.0	95.90012378991014	pulse	1.0	t		19.0	male	white	2.243931555909272	neutral	130	sub-01	1.0	4.0	130_neutral	0.0		114.54448030122694	
15.0	96.60010244890327	pulse	1.0	t		19.0	male	white	2.243931555909272	neutral	130	sub-01	1.0	4.0	130_neutral	0.0		115.24445896022007	
15.0	97.300080202338	pulse	1.0	t		19.0	male	white	2.243931555909272	neutral	130	sub-01	1.0	4.0	130_neutral	0.0		115.9444367136548	
16.0	98.01660463084772	face	0.0		146	19.0	male	white	3.2522881018702745	smiling	018	sub-01	1.0	4.0	018_smiling	0.0		116.66096114216452	1.2333341684607149
16.0	98.00292525727673	pulse	0.0	t		19.0	male	white	3.2522881018702745	smiling	018	sub-01	1.0	4.0	018_smiling	0.0		116.64728176859353	
16.0	98.70006468709471	pulse	0.0	t		19.0	male	white	3.2522881018702745	smiling	018	sub-01	1.0	4.0	018_smiling	0.0		117.34442119841151	
16.0	99.24993879930844	fix	1.0		443	19.0	male	white	3.2522881018702745	smiling	018	sub-01	1.0	4.0	018_smiling	0.0		117.89429531062524	3.7665484107274096
16.0	99.40004696832511	pulse	1.0	t		19.0	male	white	3.2522881018702745	smiling	018	sub-01	1.0	4.0	018_smiling	0.0		118.04440347964191	
16.0	100.10002623102446	pulse	1.0	t		19.0	male	white	3.2522881018702745	smiling	018	sub-01	1.0	4.0	018_smiling	0.0		118.74438274234126	
16.0	100.8000045881654	pulse	1.0	t		19.0	male	white	3.2522881018702745	smiling	018	sub-01	1.0	4.0	018_smiling	0.0		119.4443610994822	
16.0	101.49997087118754	pulse	1.0	t		19.0	male	white	3.2522881018702745	smiling	018	sub-01	1.0	4.0	018_smiling	0.0		120.14432738250434	
16.0	102.1999504357409	pulse	1.0	t		19.0	male	white	3.2522881018702745	smiling	018	sub-01	1.0	4.0	018_smiling	0.0		120.8443069470577	
16.0	102.89995565779645	pulse	1.0	t		19.0	male	white	3.2522881018702745	smiling	018	sub-01	1.0	4.0	018_smiling	0.0		121.54431216911325	
17.0	103.01648721003585	face	0.0		146	24.0	female	east_asian	2.9076800636689217	smiling	034	sub-01	1.0	4.0	034_smiling	0.0		121.66084372135265	1.2333190758108685
17.0	103.59992677046648	pulse	0.0	t		24.0	female	east_asian	2.9076800636689217	smiling	034	sub-01	1.0	4.0	034_smiling	0.0		122.24428328178328	
17.0	104.24980628584672	fix	1.0		443	24.0	female	east_asian	2.9076800636689217	smiling	034	sub-01	1.0	4.0	034_smiling	0.0		122.89416279716352	3.766551731112486
17.0	104.29992052210946	pulse	1.0	t		24.0	female	east_asian	2.9076800636689217	smiling	034	sub-01	1.0	4.0	034_smiling	0.0		122.94427703342626	
17.0	104.9998997848088	pulse	1.0	t		24.0	female	east_asian	2.9076800636689217	smiling	034	sub-01	1.0	4.0	034_smiling	0.0		123.6442562961256	
17.0	105.69986365300792	pulse	1.0	t		24.0	female	east_asian	2.9076800636689217	smiling	034	sub-01	1.0	4.0	034_smiling	0.0		124.34422016432472	
17.0	106.39984231200106	pulse	1.0	t		24.0	female	east_asian	2.9076800636689217	smiling	034	sub-01	1.0	4.0	034_smiling	0.0		125.04419882331786	
17.0	107.09982549878987	pulse	1.0	t		24.0	female	east_asian	2.9076800636689217	smiling	034	sub-01	1.0	4.0	034_smiling	0.0		125.74418201010667	
17.0	107.79982015599126	pulse	1.0	t		24.0	female	east_asian	2.9076800636689217	smiling	034	sub-01	1.0	4.0	034_smiling	0.0		126.44417666730806	
18.0	108.0163580169592	face	0.0		145	28.0	male	east_asian	1.5563072025467568	smiling	005	sub-01	1.0	4.0	005_smiling	1.0	attractiveness	126.660714528276	1.2333157554276113
18.0	108.49979609830916	pulse	0.0	t		28.0	male	east_asian	1.5563072025467568	smiling	005	sub-01	1.0	4.0	005_smiling	1.0	attractiveness	127.14415260962596	
18.0	109.19978381289184	pulse	0.0	t		28.0	male	east_asian	1.5563072025467568	smiling	005	sub-01	1.0	4.0	005_smiling	1.0	attractiveness	127.84414032420864	
18.0	109.24967377238681	fix	1.0		177	28.0	male	east_asian	1.5563072025467568	smiling	005	sub-01	1.0	4.0	005_smiling	1.0	attractiveness	127.89403028370361	1.4999497414773941
18.0	109.89976217003277	pulse	1.0	t		28.0	male	east_asian	1.5563072025467568	smiling	005	sub-01	1.0	4.0	005_smiling	1.0	attractiveness	128.54411868134957	
18.0	110.59974203644015	pulse	1.0	t		28.0	male	east_asian	1.5563072025467568	smiling	005	sub-01	1.0	4.0	005_smiling	1.0	attractiveness	129.24409854775695	
18.0	110.74962351386421	rating	2.0		295	28.0	male	east_asian	1.5563072025467568	smiling	005	sub-01	1.0	4.0	005_smiling	1.0	attractiveness	129.393980025181	2.4999461192437593
18.0	111.29972401581654	pulse	2.0	t		28.0	male	east_asian	1.5563072025467568	smiling	005	sub-01	1.0	4.0	005_smiling	1.0	attractiveness	129.94408052713334	
18.0	111.78303863929614	response	2.0	b		28.0	male	east_asian	1.5563072025467568	smiling	005	sub-01	1.0	4.0	005_smiling	1.0	attractiveness	130.42739515061294	
18.0	111.999685771043	pulse	2.0	t		28.0	male	east_asian	1.5563072025467568	smiling	005	sub-01	1.0	4.0	005_smiling	1.0	attractiveness	130.6440422823598	
18.0	112.69969703015886	pulse	2.0	t		28.0	male	east_asian	1.5563072025467568	smiling	005	sub-01	1.0	4.0	005_smiling	1.0	attractiveness	131.34405354147566	
18.0	113.24956963310797	fix	3.0		443	28.0	male	east_asian	1.5563072025467568	smiling	005	sub-01	1.0	4.0	005_smiling	1.0	attractiveness	131.89392614442477	3.7665505236982426
18.0	113.39967900953707	pulse	3.0	t		28.0	male	east_asian	1.5563072025467568	smiling	005	sub-01	1.0	4.0	005_smiling	1.0	attractiveness	132.04403552085387	
18.0	114.09964167032194	pulse	3.0	t		28.0	male	east_asian	1.5563072025467568	smiling	005	sub-01	1.0	4.0	005_smiling	1.0	attractiveness	132.74399818163874	
18.0	114.7996399497606	pulse	3.0	t		28.0	male	east_asian	1.5563072025467568	smiling	005	sub-01	1.0	4.0	005_smiling	1.0	attractiveness	133.4439964610774	
18.0	115.49961921245995	pulse	3.0	t		28.0	male	east_asian	1.5563072025467568	smiling	005	sub-01	1.0	4.0	005_smiling	1.0	attractiveness	134.14397572377675	
18.0	116.19959515477785	pulse	3.0	t		28.0	male	east_asian	1.5563072025467568	smiling	005	sub-01	1.0	4.0	005_smiling	1.0	attractiveness	134.84395166609465	
18.0	116.89957079524174	pulse	3.0	t		28.0	male	east_asian	1.5563072025467568	smiling	005	sub-01	1.0	4.0	005_smiling	1.0	attractiveness	135.54392730655854	
19.0	117.01612015680621	face	0.0		146	20.0	male	black	3.1070433744528456	smiling	082	sub-01	1.0	4.0	082_smiling	0.0		135.660476668123	1.2333130387523852
19.0	117.59956183020768	pulse	0.0	t		20.0	male	black	3.1070433744528456	smiling	082	sub-01	1.0	4.0	082_smiling	0.0		136.24391834152448	
19.0	118.2494331955586	fix	1.0		443	20.0	male	black	3.1070433744528456	smiling	082	sub-01	1.0	4.0	082_smiling	0.0		136.8937897068754	3.7665547496417275
19.0	118.29954290402566	pulse	1.0	t		20.0	male	black	3.1070433744528456	smiling	082	sub-01	1.0	4.0	082_smiling	0.0		136.94389941534246	
19.0	118.99953001490212	pulse	1.0	t		20.0	male	black	3.1070433744528456	smiling	082	sub-01	1.0	4.0	082_smiling	0.0		137.64388652621892	
19.0	119.69950867389707	pulse	1.0	t		20.0	male	black	3.1070433744528456	smiling	082	sub-01	1.0	4.0	082_smiling	0.0		138.34386518521387	
19.0	120.39947827730066	pulse	1.0	t		20.0	male	black	3.1070433744528456	smiling	082	sub-01	1.0	4.0	082_smiling	0.0		139.04383478861746	
19.0	121.09946961412061	pulse	1.0	t		20.0	male	black	3.1070433744528456	smiling	082	sub-01	1.0	4.0	082_smiling	0.0		139.7438261254374	
19.0	121.79945008423238	pulse	1.0	t		20.0	male	black	3.1070433744528456	smiling	082	sub-01	1.0	4.0	082_smiling	0.0		140.44380659554918	
20.0	122.01598794520032	face	0.0		145	21.0	male	black	2.969757262236371	smiling	137	sub-01	1.0	4.0	137_smiling	0.0		140.66034445651712	1.2333082091026881
20.0	122.49943779881687	pulse	0.0	t		21.0	male	black	2.969757262236371	smiling	137	sub-01	1.0	4.0	137_smiling	0.0		141.14379431013367	
20.0	123.19940589295584	pulse	0.0	t		21.0	male	black	2.969757262236371	smiling	137	sub-01	1.0	4.0	137_smiling	0.0		141.84376240427264	
20.0	123.24929615430301	fix	1.0		1186	21.0	male	black	2.969757262236371	smiling	137	sub-01	1.0	4.0	137_smiling	0.0		141.8936526656198	10.024728400230742
20.0	123.89937851489049	pulse	1.0	t		21.0	male	black	2.969757262236371	smiling	137	sub-01	1.0	4.0	137_smiling	0.0		142.5437350262073	
20.0	124.5993867554771	pulse	1.0	t		21.0	male	black	2.969757262236371	smiling	137	sub-01	1.0	4.0	137_smiling	0.0		143.2437432667939	
20.0	125.29934851070357	pulse	1.0	t		21.0	male	black	2.969757262236371	smiling	137	sub-01	1.0	4.0	137_smiling	0.0		143.94370502202037	
20.0	125.99932656599049	pulse	1.0	t		21.0	male	black	2.969757262236371	smiling	137	sub-01	1.0	4.0	137_smiling	0.0		144.6436830773073	
20.0	126.69931428057498	pulse	1.0	t		21.0	male	black	2.969757262236371	smiling	137	sub-01	1.0	4.0	137_smiling	0.0		145.34367079189178	
20.0	127.39931376742425	pulse	1.0	t		21.0	male	black	2.969757262236371	smiling	137	sub-01	1.0	4.0	137_smiling	0.0		146.04367027874105	
20.0	128.09929755791927	pulse	1.0	t		21.0	male	black	2.969757262236371	smiling	137	sub-01	1.0	4.0	137_smiling	0.0		146.74365406923607	
20.0	128.79926142611657	pulse	1.0	t		21.0	male	black	2.969757262236371	smiling	137	sub-01	1.0	4.0	137_smiling	0.0		147.44361793743337	
20.0	129.49924099066993	pulse	1.0	t		21.0	male	black	2.969757262236371	smiling	137	sub-01	1.0	4.0	137_smiling	0.0		148.14359750198673	
20.0	130.19923655343155	pulse	1.0	t		21.0	male	black	2.969757262236371	smiling	137	sub-01	1.0	4.0	137_smiling	0.0		148.84359306474835	
20.0	130.89921400501225	pulse	1.0	t		21.0	male	black	2.969757262236371	smiling	137	sub-01	1.0	4.0	137_smiling	0.0		149.54357051632905	
20.0	131.59920021033213	pulse	1.0	t		21.0	male	black	2.969757262236371	smiling	137	sub-01	1.0	4.0	137_smiling	0.0		150.24355672164893	
20.0	132.29917343597117	pulse	1.0	t		21.0	male	black	2.969757262236371	smiling	137	sub-01	1.0	4.0	137_smiling	0.0		150.94352994728797	
20.0	132.99916054684945	pulse	1.0	t		21.0	male	black	2.969757262236371	smiling	137	sub-01	1.0	4.0	137_smiling	0.0		151.64351705816625	
21.0	133.27402455453375	face	0.0		145	24.0	female	black	3.0955033824114606	neutral	099	sub-01	1.0	4.0	099_neutral	0.0		151.91838106585055	1.2333066998380673
21.0	133.69914826143213	pulse	0.0	t		24.0	female	black	3.0955033824114606	neutral	099	sub-01	1.0	4.0	099_neutral	0.0		152.34350477274893	
21.0	134.3991166574251	pulse	0.0	t		24.0	female	black	3.0955033824114606	neutral	099	sub-01	1.0	4.0	099_neutral	0.0		153.0434731687419	
21.0	134.50733125437182	fix	1.0		444	24.0	female	black	3.0955033824114606	neutral	099	sub-01	1.0	4.0	099_neutral	0.0		153.15168776568862	3.7665589755833935
21.0	135.09910920165748	pulse	1.0	t		24.0	female	black	3.0955033824114606	neutral	099	sub-01	1.0	4.0	099_neutral	0.0		153.74346571297428	
21.0	135.79908393656115	pulse	1.0	t		24.0	female	black	3.0955033824114606	neutral	099	sub-01	1.0	4.0	099_neutral	0.0		154.44344044787795	
21.0	136.49905474737898	pulse	1.0	t		24.0	female	black	3.0955033824114606	neutral	099	sub-01	1.0	4.0	099_neutral	0.0		155.14341125869578	
21.0	137.19904668790332	pulse	1.0	t		24.0	female	black	3.0955033824114606	neutral	099	sub-01	1.0	4.0	099_neutral	0.0		155.84340319922012	
21.0	137.89912526023545	pulse	1.0	t		24.0	female	black	3.0955033824114606	neutral	099	sub-01	1.0	4.0	099_neutral	0.0		156.54348177155225	
22.0	138.2738902299552	face	0.0		145	24.0	male	white	3.1153999204138483	smiling	012	sub-01	1.0	4.0	012_smiling	0.0		156.91824674127201	1.233311831338142
22.0	138.59901849483504	pulse	0.0	t		24.0	male	white	3.1153999204138483	smiling	012	sub-01	1.0	4.0	012_smiling	0.0		157.24337500615184	
22.0	139.29898870194484	pulse	0.0	t		24.0	male	white	3.1153999204138483	smiling	012	sub-01	1.0	4.0	012_smiling	0.0		157.94334521326164	
22.0	139.50720206129336	fix	1.0		444	24.0	male	white	3.1153999204138483	smiling	012	sub-01	1.0	4.0	012_smiling	0.0		158.15155857261016	3.766562899672863
22.0	139.9989815480294	pulse	1.0	t		24.0	male	white	3.1153999204138483	smiling	012	sub-01	1.0	4.0	012_smiling	0.0		158.6433380593462	
22.0	140.69894420881428	pulse	1.0	t		24.0	male	white	3.1153999204138483	smiling	012	sub-01	1.0	4.0	012_smiling	0.0		159.34330072013108	
22.0	141.39892347151545	pulse	1.0	t		24.0	male	white	3.1153999204138483	smiling	012	sub-01	1.0	4.0	012_smiling	0.0		160.04327998283225	
22.0	142.098916015746	pulse	1.0	t		24.0	male	white	3.1153999204138483	smiling	012	sub-01	1.0	4.0	012_smiling	0.0		160.7432725270628	
22.0	142.7988931654745	pulse	1.0	t		24.0	male	white	3.1153999204138483	smiling	012	sub-01	1.0	4.0	012_smiling	0.0		161.4432496767913	
23.0	143.27376496096622	face	0.0		145	20.0	male	black	2.609629924393156	neutral	043	sub-01	1.0	4.0	043_neutral	0.0		161.91812147228302	1.2333190758108685
23.0	143.49887816338196	pulse	0.0	t		20.0	male	black	2.609629924393156	neutral	043	sub-01	1.0	4.0	043_neutral	0.0		162.14323467469876	
23.0	144.1988628594354	pulse	0.0	t		20.0	male	black	2.609629924393156	neutral	043	sub-01	1.0	4.0	043_neutral	0.0		162.8432193707522	
23.0	144.5070840367771	fix	1.0		444	20.0	male	black	2.609629924393156	neutral	043	sub-01	1.0	4.0	043_neutral	0.0		163.1514405480939	3.7583042020050925
23.0	144.89885449810754	pulse	1.0	t		20.0	male	black	2.609629924393156	neutral	043	sub-01	1.0	4.0	043_neutral	0.0		163.54321100942434	
23.0	145.5988222903943	pulse	1.0	t		20.0	male	black	2.609629924393156	neutral	043	sub-01	1.0	4.0	043_neutral	0.0		164.2431788017111	
23.0	146.2987906863873	pulse	1.0	t		20.0	male	black	2.609629924393156	neutral	043	sub-01	1.0	4.0	043_neutral	0.0		164.9431471977041	
23.0	146.99877900467618	pulse	1.0	t		20.0	male	black	2.609629924393156	neutral	043	sub-01	1.0	4.0	043_neutral	0.0		165.64313551599298	
23.0	147.69876702111287	pulse	1.0	t		20.0	male	black	2.609629924393156	neutral	043	sub-01	1.0	4.0	043_neutral	0.0		166.34312353242967	
24.0	148.26538823878218	face	0.0		146	47.0	male	east_asian	2.171110226820533	smiling	024	sub-01	1.0	4.0	024_smiling	0.0		166.90974475009898	1.241549097443567
24.0	148.39876590425774	pulse	0.0	t		47.0	male	east_asian	2.171110226820533	smiling	024	sub-01	1.0	4.0	024_smiling	0.0		167.04312241557454	
24.0	149.09872433910095	pulse	0.0	t		47.0	male	east_asian	2.171110226820533	smiling	024	sub-01	1.0	4.0	024_smiling	0.0		167.74308085041775	
24.0	149.50693733622575	fix	1.0		444	47.0	male	east_asian	2.171110226820533	smiling	024	sub-01	1.0	4.0	024_smiling	0.0		168.15129384754255	3.766564107085287
24.0	149.79871265738984	pulse	1.0	t		47.0	male	east_asian	2.171110226820533	smiling	024	sub-01	1.0	4.0	024_smiling	0.0		168.44306916870664	
24.0	150.49870520162222	pulse	1.0	t		47.0	male	east_asian	2.171110226820533	smiling	024	sub-01	1.0	4.0	024_smiling	0.0		169.14306171293902	
24.0	151.19868446432156	pulse	1.0	t		47.0	male	east_asian	2.171110226820533	smiling	024	sub-01	1.0	4.0	024_smiling	0.0		169.84304097563836	
24.0	151.89864682325424	pulse	1.0	t		47.0	male	east_asian	2.171110226820533	smiling	024	sub-01	1.0	4.0	024_smiling	0.0		170.54300333457104	
24.0	152.59863604710335	pulse	1.0	t		47.0	male	east_asian	2.171110226820533	smiling	024	sub-01	1.0	4.0	024_smiling	0.0		171.24299255842016	
25.0	153.27350144331103	face	0.0		145	30.0	female	black	2.7345801830481498	neutral	062	sub-01	1.0	4.0	062_neutral	0.0		171.91785795462783	1.2333181702506408
25.0	153.29866873778155	pulse	0.0	t		30.0	female	black	2.7345801830481498	neutral	062	sub-01	1.0	4.0	062_neutral	0.0		171.94302524909835	
25.0	153.99860845773946	pulse	0.0	t		30.0	female	black	2.7345801830481498	neutral	062	sub-01	1.0	4.0	062_neutral	0.0		172.64296496905627	
25.0	154.50681961356167	fix	1.0		443	30.0	female	black	2.7345801830481498	neutral	062	sub-01	1.0	4.0	062_neutral	0.0		173.15117612487848	3.766541769964533
25.0	154.69859587046994	pulse	1.0	t		30.0	female	black	2.7345801830481498	neutral	062	sub-01	1.0	4.0	062_neutral	0.0		173.34295238178674	
25.0	155.39857664243573	pulse	1.0	t		30.0	female	black	2.7345801830481498	neutral	062	sub-01	1.0	4.0	062_neutral	0.0		174.04293315375253	
25.0	156.09856194219537	pulse	1.0	t		30.0	female	black	2.7345801830481498	neutral	062	sub-01	1.0	4.0	062_neutral	0.0		174.74291845351217	
25.0	156.79853697895305	pulse	1.0	t		30.0	female	black	2.7345801830481498	neutral	062	sub-01	1.0	4.0	062_neutral	0.0		175.44289349026985	
25.0	157.49850628050444	pulse	1.0	t		30.0	female	black	2.7345801830481498	neutral	062	sub-01	1.0	4.0	062_neutral	0.0		176.14286279182124	
25.0	158.19849399508894	pulse	1.0	t		30.0	female	black	2.7345801830481498	neutral	062	sub-01	1.0	4.0	062_neutral	0.0		176.84285050640574	
26.0	158.2733613835262	face	0.0		146	34.0	male	white	2.651014723438122	neutral	121	sub-01	1.0	4.0	121_neutral	0.0		176.917717894843	1.2333263202817761
26.0	158.8984738614945	pulse	0.0	t		34.0	male	white	2.651014723438122	neutral	121	sub-01	1.0	4.0	121_neutral	0.0		177.5428303728113	
26.0	159.50668770380798	fix	1.0		443	34.0	male	white	2.651014723438122	neutral	121	sub-01	1.0	4.0	121_neutral	0.0		178.15104421512478	3.766548712581425
26.0	159.59845402975225	pulse	1.0	t		34.0	male	white	2.651014723438122	neutral	121	sub-01	1.0	4.0	121_neutral	0.0		178.24281054106905	
26.0	160.29844204618894	pulse	1.0	t		34.0	male	white	2.651014723438122	neutral	121	sub-01	1.0	4.0	121_neutral	0.0		178.94279855750574	
26.0	160.99841225330056	pulse	1.0	t		34.0	male	white	2.651014723438122	neutral	121	sub-01	1.0	4.0	121_neutral	0.0		179.64276876461736	
26.0	161.69838638449983	pulse	1.0	t		34.0	male	white	2.651014723438122	neutral	121	sub-01	1.0	4.0	121_neutral	0.0		180.34274289581663	
26.0	162.39837108055326	pulse	1.0	t		34.0	male	white	2.651014723438122	neutral	121	sub-01	1.0	4.0	121_neutral	0.0		181.04272759187006	
26.0	163.09837147296093	pulse	1.0	t		34.0	male	white	2.651014723438122	neutral	121	sub-01	1.0	4.0	121_neutral	0.0		181.74272798427774	
27.0	163.2732364163894	face	0.0		146	21.0	male	black	2.969757262236371	neutral	137	sub-01	1.0	4.0	137_neutral	0.0		181.9175929277062	1.241655047842869
27.0	163.79834590601422	pulse	0.0	t		21.0	male	black	2.969757262236371	neutral	137	sub-01	1.0	4.0	137_neutral	0.0		182.44270241733102	
27.0	164.49831581127182	pulse	0.0	t		21.0	male	black	2.969757262236371	neutral	137	sub-01	1.0	4.0	137_neutral	0.0		183.14267232258862	
27.0	164.51489146423228	fix	1.0		443	21.0	male	black	2.969757262236371	neutral	137	sub-01	1.0	4.0	137_neutral	0.0		183.15924797554908	3.7582169664910907
27.0	165.19831892035654	pulse	1.0	t		21.0	male	black	2.969757262236371	neutral	137	sub-01	1.0	4.0	137_neutral	0.0		183.84267543167334	
27.0	165.89828127928922	pulse	1.0	t		21.0	male	black	2.969757262236371	neutral	137	sub-01	1.0	4.0	137_neutral	0.0		184.54263779060602	
27.0	166.59826114569478	pulse	1.0	t		21.0	male	black	2.969757262236371	neutral	137	sub-01	1.0	4.0	137_neutral	0.0		185.24261765701158	
27.0	167.2982506713961	pulse	1.0	t		21.0	male	black	2.969757262236371	neutral	137	sub-01	1.0	4.0	137_neutral	0.0		185.9426071827129	
27.0	167.99824200821604	pulse	1.0	t		21.0	male	black	2.969757262236371	neutral	137	sub-01	1.0	4.0	137_neutral	0.0		186.64259851953284	
28.0	168.27310843072337	face	0.0		145	27.0	female	white	4.181058495821727	smiling	039	sub-01	1.0	4.0	039_smiling	0.0		186.91746494204017	1.2333184721046564
28.0	168.6982270061235	pulse	0.0	t		27.0	female	white	4.181058495821727	smiling	039	sub-01	1.0	4.0	039_smiling	0.0		187.3425835174403	
28.0	169.39819630767488	pulse	0.0	t		27.0	female	white	4.181058495821727	smiling	039	sub-01	1.0	4.0	039_smiling	0.0		188.04255281899168	
28.0	169.50642690282803	fix	1.0		444	27.0	female	white	4.181058495821727	smiling	039	sub-01	1.0	4.0	039_smiling	0.0		188.15078341414483	3.7665505237000616
28.0	170.09819337970112	pulse	1.0	t		27.0	female	white	4.181058495821727	smiling	039	sub-01	1.0	4.0	039_smiling	0.0		188.74254989101792	
28.0	170.79815272010273	pulse	1.0	t		27.0	female	white	4.181058495821727	smiling	039	sub-01	1.0	4.0	039_smiling	0.0		189.44250923141954	
28.0	171.49814858471836	pulse	1.0	t		27.0	female	white	4.181058495821727	smiling	039	sub-01	1.0	4.0	039_smiling	0.0		190.14250509603517	
28.0	172.19812965853453	pulse	1.0	t		27.0	female	white	4.181058495821727	smiling	039	sub-01	1.0	4.0	039_smiling	0.0		190.84248616985133	
28.0	172.89811193976493	pulse	1.0	t		27.0	female	white	4.181058495821727	smiling	039	sub-01	1.0	4.0	039_smiling	0.0		191.54246845108173	
29.0	173.2729774265281	face	0.0		145	24.0	female	east_asian	2.9076800636689217	neutral	034	sub-01	1.0	4.0	034_neutral	0.0		191.9173339378449	1.2333051905734465
29.0	173.59808969319965	pulse	0.0	t		24.0	female	east_asian	2.9076800636689217	neutral	034	sub-01	1.0	4.0	034_neutral	0.0		192.24244620451645	
29.0	174.2980559762218	pulse	0.0	t		24.0	female	east_asian	2.9076800636689217	neutral	034	sub-01	1.0	4.0	034_neutral	0.0		192.9424124875386	
29.0	174.50628261710153	fix	1.0		444	24.0	female	east_asian	2.9076800636689217	neutral	034	sub-01	1.0	4.0	034_neutral	0.0		193.15063912841833	3.758253792557298
29.0	174.99805848160213	pulse	1.0	t		24.0	female	east_asian	2.9076800636689217	neutral	034	sub-01	1.0	4.0	034_neutral	0.0		193.64241499291893	
29.0	175.69801752015155	pulse	1.0	t		24.0	female	east_asian	2.9076800636689217	neutral	034	sub-01	1.0	4.0	034_neutral	0.0		194.34237403146835	
29.0	176.3980284774152	pulse	1.0	t		24.0	female	east_asian	2.9076800636689217	neutral	034	sub-01	1.0	4.0	034_neutral	0.0		195.042384988732	
29.0	177.09800200490827	pulse	1.0	t		24.0	female	east_asian	2.9076800636689217	neutral	034	sub-01	1.0	4.0	034_neutral	0.0		195.74235851622507	
29.0	177.79798368243246	pulse	1.0	t		24.0	female	east_asian	2.9076800636689217	neutral	034	sub-01	1.0	4.0	034_neutral	0.0		196.44234019374926	
30.0	178.26453640965883	face	0.0		146	54.0	female	white	2.286908077994429	smiling	136	sub-01	1.0	4.0	136_smiling	0.0		196.90889292097563	1.2416239569847676
30.0	178.49796022845476	pulse	0.0	t		54.0	female	white	2.286908077994429	smiling	136	sub-01	1.0	4.0	136_smiling	0.0		197.14231673977156	
30.0	179.1979449245082	pulse	0.0	t		54.0	female	white	2.286908077994429	smiling	136	sub-01	1.0	4.0	136_smiling	0.0		197.842301435825	
30.0	179.5061603666436	fix	1.0		444	54.0	female	white	2.286908077994429	smiling	136	sub-01	1.0	4.0	136_smiling	0.0		198.1505168779604	3.7665520329646824
30.0	179.8979335446511	pulse	1.0	t		54.0	female	white	2.286908077994429	smiling	136	sub-01	1.0	4.0	136_smiling	0.0		198.5422900559679	
30.0	180.5978974128484	pulse	1.0	t		54.0	female	white	2.286908077994429	smiling	136	sub-01	1.0	4.0	136_smiling	0.0		199.2422539241652	
30.0	181.2978745625769	pulse	1.0	t		54.0	female	white	2.286908077994429	smiling	136	sub-01	1.0	4.0	136_smiling	0.0		199.9422310738937	
30.0	181.99785805121974	pulse	1.0	t		54.0	female	white	2.286908077994429	smiling	136	sub-01	1.0	4.0	136_smiling	0.0		200.64221456253654	
30.0	182.6978451620962	pulse	1.0	t		54.0	female	white	2.286908077994429	smiling	136	sub-01	1.0	4.0	136_smiling	0.0		201.342201673413	
31.0	183.27271239960828	face	0.0		145	25.0	female	black	3.858336649423	smiling	126	sub-01	1.0	4.0	126_smiling	0.0		201.91706891092508	1.233319377663065
31.0	183.39784374338888	pulse	0.0	t		25.0	female	black	3.858336649423	smiling	126	sub-01	1.0	4.0	126_smiling	0.0		202.04220025470568	
31.0	184.09781696902792	pulse	0.0	t		25.0	female	black	3.858336649423	smiling	126	sub-01	1.0	4.0	126_smiling	0.0		202.74217348034472	
31.0	184.50603177727135	fix	1.0		444	25.0	female	black	3.858336649423	smiling	126	sub-01	1.0	4.0	126_smiling	0.0		203.15038828858815	3.758340726215465
31.0	184.79779442061044	pulse	1.0	t		25.0	female	black	3.858336649423	smiling	126	sub-01	1.0	4.0	126_smiling	0.0		203.44215093192724	
31.0	185.4977670425451	pulse	1.0	t		25.0	female	black	3.858336649423	smiling	126	sub-01	1.0	4.0	126_smiling	0.0		204.1421235538619	
31.0	186.19774630524444	pulse	1.0	t		25.0	female	black	3.858336649423	smiling	126	sub-01	1.0	4.0	126_smiling	0.0		204.84210281656124	
31.0	186.8977258697978	pulse	1.0	t		25.0	female	black	3.858336649423	smiling	126	sub-01	1.0	4.0	126_smiling	0.0		205.5420823811146	
31.0	187.59771207511585	pulse	1.0	t		25.0	female	black	3.858336649423	smiling	126	sub-01	1.0	4.0	126_smiling	0.0		206.24206858643265	
32.0	188.2643725034868	face	0.0		146	47.0	male	east_asian	2.171110226820533	neutral	024	sub-01	1.0	4.0	024_neutral	1.0	trustworthiness	206.9087290148036	1.2415143843518308
32.0	188.29771095826072	pulse	0.0	t		47.0	male	east_asian	2.171110226820533	neutral	024	sub-01	1.0	4.0	024_neutral	1.0	trustworthiness	206.94206746957752	
32.0	188.99769716357878	pulse	0.0	t		47.0	male	east_asian	2.171110226820533	neutral	024	sub-01	1.0	4.0	024_neutral	1.0	trustworthiness	207.64205367489558	
32.0	189.50588688783864	fix	1.0		177	47.0	male	east_asian	2.171110226820533	neutral	024	sub-01	1.0	4.0	024_neutral	1.0	trustworthiness	208.15024339915544	1.4999621174501954
32.0	189.6976758225719	pulse	1.0	t		47.0	male	east_asian	2.171110226820533	neutral	024	sub-01	1.0	4.0	024_neutral	1.0	trustworthiness	208.3420323338887	
32.0	190.3976511611836	pulse	1.0	t		47.0	male	east_asian	2.171110226820533	neutral	024	sub-01	1.0	4.0	024_neutral	1.0	trustworthiness	209.0420076725004	
32.0	191.00584900528884	rating	2.0		294	47.0	male	east_asian	2.171110226820533	neutral	024	sub-01	1.0	4.0	024_neutral	1.0	trustworthiness	209.65020551660564	2.499933139564746
32.0	191.09764883691605	pulse	2.0	t		47.0	male	east_asian	2.171110226820533	neutral	024	sub-01	1.0	4.0	024_neutral	1.0	trustworthiness	209.74200534823285	
32.0	191.7976099884363	pulse	2.0	t		47.0	male	east_asian	2.171110226820533	neutral	024	sub-01	1.0	4.0	024_neutral	1.0	trustworthiness	210.4419664997531	
32.0	192.04759557495709	response	2.0	g		47.0	male	east_asian	2.171110226820533	neutral	024	sub-01	1.0	4.0	024_neutral	1.0	trustworthiness	210.6919520862739	
32.0	192.49759317522512	pulse	2.0	t		47.0	male	east_asian	2.171110226820533	neutral	024	sub-01	1.0	4.0	024_neutral	1.0	trustworthiness	211.14194968654192	
32.0	193.19756308048272	pulse	2.0	t		47.0	male	east_asian	2.171110226820533	neutral	024	sub-01	1.0	4.0	024_neutral	1.0	trustworthiness	211.84191959179952	
32.0	193.50578214485358	fix	3.0		444	47.0	male	east_asian	2.171110226820533	neutral	024	sub-01	1.0	4.0	024_neutral	1.0	trustworthiness	212.15013865617038	3.766562899671044
32.0	193.89755260618404	pulse	3.0	t		47.0	male	east_asian	2.171110226820533	neutral	024	sub-01	1.0	4.0	024_neutral	1.0	trustworthiness	212.54190911750084	
32.0	194.59753639667906	pulse	3.0	t		47.0	male	east_asian	2.171110226820533	neutral	024	sub-01	1.0	4.0	024_neutral	1.0	trustworthiness	213.24189290799586	
32.0	195.29752230014492	pulse	3.0	t		47.0	male	east_asian	2.171110226820533	neutral	024	sub-01	1.0	4.0	024_neutral	1.0	trustworthiness	213.94187881146172	
32.0	195.99750005357964	pulse	3.0	t		47.0	male	east_asian	2.171110226820533	neutral	024	sub-01	1.0	4.0	024_neutral	1.0	trustworthiness	214.64185656489644	
32.0	196.6974859570455	pulse	3.0	t		47.0	male	east_asian	2.171110226820533	neutral	024	sub-01	1.0	4.0	024_neutral	1.0	trustworthiness	215.3418424683623	
33.0	197.27234504452463	face	0.0		145	19.0	female	white	4.298846000795861	smiling	100	sub-01	1.0	4.0	100_smiling	0.0		215.91670155584143	1.233311831339961
33.0	197.39747699201143	pulse	0.0	t		19.0	female	white	4.298846000795861	smiling	100	sub-01	1.0	4.0	100_smiling	0.0		216.04183350332823	
33.0	198.09746078250646	pulse	0.0	t		19.0	female	white	4.298846000795861	smiling	100	sub-01	1.0	4.0	100_smiling	0.0		216.74181729382326	
33.0	198.5056568758646	fix	1.0		444	19.0	female	white	4.298846000795861	smiling	100	sub-01	1.0	4.0	100_smiling	0.0		217.1500133871814	3.76655927743559
33.0	198.79743672482255	pulse	1.0	t		19.0	female	white	4.298846000795861	smiling	100	sub-01	1.0	4.0	100_smiling	0.0		217.44179323613935	
33.0	199.49739817819682	pulse	1.0	t		19.0	female	white	4.298846000795861	smiling	100	sub-01	1.0	4.0	100_smiling	0.0		218.14175468951362	
33.0	200.1973979669001	pulse	1.0	t		19.0	female	white	4.298846000795861	smiling	100	sub-01	1.0	4.0	100_smiling	0.0		218.8417544782169	
33.0	200.89737270180558	pulse	1.0	t		19.0	female	white	4.298846000795861	smiling	100	sub-01	1.0	4.0	100_smiling	0.0		219.54172921312238	
33.0	201.5973450218862	pulse	1.0	t		19.0	female	white	4.298846000795861	smiling	100	sub-01	1.0	4.0	100_smiling	0.0		220.241701533203	
34.0	202.27221615330018	face	0.0		145	40.0	male	white	1.868682849184242	neutral	172	sub-01	1.0	4.0	172_neutral	0.0		220.91657266461698	1.2333042850150377
34.0	202.29734964023737	pulse	0.0	t		40.0	male	white	1.868682849184242	neutral	172	sub-01	1.0	4.0	172_neutral	0.0		220.94170615155417	
34.0	202.99731139546384	pulse	0.0	t		40.0	male	white	1.868682849184242	neutral	172	sub-01	1.0	4.0	172_neutral	0.0		221.64166790678064	
34.0	203.50552043831522	fix	1.0		443	40.0	male	white	1.868682849184242	neutral	172	sub-01	1.0	4.0	172_neutral	0.0		222.14987694963202	3.7665632015250594
34.0	203.69729850634212	pulse	1.0	t		40.0	male	white	1.868682849184242	neutral	172	sub-01	1.0	4.0	172_neutral	0.0		222.34165501765892	
34.0	204.39727022271654	pulse	1.0	t		40.0	male	white	1.868682849184242	neutral	172	sub-01	1.0	4.0	172_neutral	0.0		223.04162673403334	
34.0	205.09727061512604	pulse	1.0	t		40.0	male	white	1.868682849184242	neutral	172	sub-01	1.0	4.0	172_neutral	0.0		223.74162712644284	
34.0	205.79724685929614	pulse	1.0	t		40.0	male	white	1.868682849184242	neutral	172	sub-01	1.0	4.0	172_neutral	0.0		224.44160337061294	
34.0	206.4972146515829	pulse	1.0	t		40.0	male	white	1.868682849184242	neutral	172	sub-01	1.0	4.0	172_neutral	0.0		225.1415711628997	
34.0	207.19720598840104	pulse	1.0	t		40.0	male	white	1.868682849184242	neutral	172	sub-01	1.0	4.0	172_neutral	0.0		225.84156249971784	
35.0	207.27208363984028	face	0.0		146	20.0	male	black	3.1070433744528456	neutral	082	sub-01	1.0	4.0	082_neutral	0.0		225.91644015115708	1.233302775750417
35.0	207.89719702336697	pulse	0.0	t		20.0	male	black	3.1070433744528456	neutral	082	sub-01	1.0	4.0	082_neutral	0.0		226.54155353468377	
35.0	208.5053864155907	fix	1.0		443	20.0	male	black	3.1070433744528456	neutral	082	sub-01	1.0	4.0	082_neutral	0.0		227.1497429269075	3.766565616348089
35.0	208.59717900274518	pulse	1.0	t		20.0	male	black	3.1070433744528456	neutral	082	sub-01	1.0	4.0	082_neutral	0.0		227.24153551406198	
35.0	209.29713985241324	pulse	1.0	t		20.0	male	black	3.1070433744528456	neutral	082	sub-01	1.0	4.0	082_neutral	0.0		227.94149636373004	
35.0	209.99712454846667	pulse	1.0	t		20.0	male	black	3.1070433744528456	neutral	082	sub-01	1.0	4.0	082_neutral	0.0		228.64148105978347	
35.0	210.69710682969526	pulse	1.0	t		20.0	male	black	3.1070433744528456	neutral	082	sub-01	1.0	4.0	082_neutral	0.0		229.34146334101206	
35.0	211.39708760166104	pulse	1.0	t		20.0	male	black	3.1070433744528456	neutral	082	sub-01	1.0	4.0	082_neutral	0.0		230.04144411297784	
35.0	212.0970668643604	pulse	1.0	t		20.0	male	black	3.1070433744528456	neutral	082	sub-01	1.0	4.0	082_neutral	0.0		230.7414233756772	
36.0	212.27195203193878	face	0.0		146	40.0	male	black	2.408674890569041	neutral	061	sub-01	1.0	4.0	061_neutral	0.0		230.91630854325558	1.241652934872036
36.0	212.79707057715314	pulse	0.0	t		40.0	male	black	2.408674890569041	neutral	061	sub-01	1.0	4.0	061_neutral	0.0		231.44142708846994	
36.0	213.49703444535044	pulse	0.0	t		40.0	male	black	2.408674890569041	neutral	061	sub-01	1.0	4.0	061_neutral	0.0		232.14139095666724	
36.0	213.51360496681082	fix	1.0		443	40.0	male	black	2.408674890569041	neutral	061	sub-01	1.0	4.0	061_neutral	0.0		232.15796147812762	3.758213947961849
36.0	214.19703030996425	pulse	1.0	t		40.0	male	black	2.408674890569041	neutral	061	sub-01	1.0	4.0	061_neutral	0.0		232.84138682128105	
36.0	214.89701078007602	pulse	1.0	t		40.0	male	black	2.408674890569041	neutral	061	sub-01	1.0	4.0	061_neutral	0.0		233.54136729139282	
36.0	215.59698068533362	pulse	1.0	t		40.0	male	black	2.408674890569041	neutral	061	sub-01	1.0	4.0	061_neutral	0.0		234.24133719665042	
36.0	216.29696598509327	pulse	1.0	t		40.0	male	black	2.408674890569041	neutral	061	sub-01	1.0	4.0	061_neutral	0.0		234.94132249641007	
36.0	216.99693981443852	pulse	1.0	t		40.0	male	black	2.408674890569041	neutral	061	sub-01	1.0	4.0	061_neutral	0.0		235.64129632575532	
37.0	217.27181891477267	face	0.0		145	21.0	male	east_asian/white	3.501790688420215	smiling	036	sub-01	1.0	4.0	036_smiling	0.0		235.91617542608947	1.233307605396476
37.0	217.6969389994356	pulse	0.0	t		21.0	male	east_asian/white	3.501790688420215	smiling	036	sub-01	1.0	4.0	036_smiling	0.0		236.3412955107524	
37.0	218.39691162137024	pulse	0.0	t		21.0	male	east_asian/white	3.501790688420215	smiling	036	sub-01	1.0	4.0	036_smiling	0.0		237.04126813268704	
37.0	218.50512652016914	fix	1.0		444	21.0	male	east_asian/white	3.501790688420215	smiling	036	sub-01	1.0	4.0	036_smiling	0.0		237.14948303148594	3.7665622959666507
37.0	219.09690114707155	pulse	1.0	t		21.0	male	east_asian/white	3.501790688420215	smiling	036	sub-01	1.0	4.0	036_smiling	0.0		237.74125765838835	
37.0	219.79686592082908	pulse	1.0	t		21.0	male	east_asian/white	3.501790688420215	smiling	036	sub-01	1.0	4.0	036_smiling	0.0		238.44122243214588	
37.0	220.4968500131763	pulse	1.0	t		21.0	male	east_asian/white	3.501790688420215	smiling	036	sub-01	1.0	4.0	036_smiling	0.0		239.1412065244931	
37.0	221.19682837031723	pulse	1.0	t		21.0	male	east_asian/white	3.501790688420215	smiling	036	sub-01	1.0	4.0	036_smiling	0.0		239.84118488163404	
37.0	221.89680914228302	pulse	1.0	t		21.0	male	east_asian/white	3.501790688420215	smiling	036	sub-01	1.0	4.0	036_smiling	0.0		240.54116565359982	
38.0	222.2716888161358	face	0.0		145	27.0	female	white	3.504576203740549	smiling	144	sub-01	1.0	4.0	144_smiling	0.0		240.9160453274526	1.2333184721046564
38.0	222.5968037994844	pulse	0.0	t		27.0	female	white	3.504576203740549	smiling	144	sub-01	1.0	4.0	144_smiling	0.0		241.2411603108012	
38.0	223.2967978529814	pulse	0.0	t		27.0	female	white	3.504576203740549	smiling	144	sub-01	1.0	4.0	144_smiling	0.0		241.9411543642982	
38.0	223.50500728824045	fix	1.0		444	27.0	female	white	3.504576203740549	smiling	144	sub-01	1.0	4.0	144_smiling	0.0		242.14936379955725	3.7665387514334725
38.0	223.99676051376628	pulse	1.0	t		27.0	female	white	3.504576203740549	smiling	144	sub-01	1.0	4.0	144_smiling	0.0		242.64111702508308	
38.0	224.69675849135092	pulse	1.0	t		27.0	female	white	3.504576203740549	smiling	144	sub-01	1.0	4.0	144_smiling	0.0		243.34111500266772	
38.0	225.3967338299626	pulse	1.0	t		27.0	female	white	3.504576203740549	smiling	144	sub-01	1.0	4.0	144_smiling	0.0		244.0410903412794	
38.0	226.09671158339734	pulse	1.0	t		27.0	female	white	3.504576203740549	smiling	144	sub-01	1.0	4.0	144_smiling	0.0		244.74106809471414	
38.0	226.79668933683206	pulse	1.0	t		27.0	female	white	3.504576203740549	smiling	144	sub-01	1.0	4.0	144_smiling	0.0		245.44104584814886	
39.0	227.27154603967392	face	0.0		145	27.0	female	white	3.504576203740549	neutral	144	sub-01	1.0	4.0	144_neutral	0.0		245.91590255099072	1.2333169628400356
39.0	227.4966673921208	pulse	0.0	t		27.0	female	white	3.504576203740549	neutral	144	sub-01	1.0	4.0	144_neutral	0.0		246.1410239034376	
39.0	228.1966436362909	pulse	0.0	t		27.0	female	white	3.504576203740549	neutral	144	sub-01	1.0	4.0	144_neutral	0.0		246.8410001476077	
39.0	228.50486300251396	fix	1.0		444	27.0	female	white	3.504576203740549	neutral	144	sub-01	1.0	4.0	144_neutral	0.0		247.14921951383076	3.7499151038482523
39.0	228.8966334638444	pulse	1.0	t		27.0	female	white	3.504576203740549	neutral	144	sub-01	1.0	4.0	144_neutral	0.0		247.5409899751612	
39.0	229.59663747848936	pulse	1.0	t		27.0	female	white	3.504576203740549	neutral	144	sub-01	1.0	4.0	144_neutral	0.0		248.24099398980616	
39.0	230.29660134668666	pulse	1.0	t		27.0	female	white	3.504576203740549	neutral	144	sub-01	1.0	4.0	144_neutral	0.0		248.94095785800346	
39.0	230.99657427047532	pulse	1.0	t		27.0	female	white	3.504576203740549	neutral	144	sub-01	1.0	4.0	144_neutral	0.0		249.64093078179212	
39.0	231.6965689276767	pulse	1.0	t		27.0	female	white	3.504576203740549	neutral	144	sub-01	1.0	4.0	144_neutral	0.0		250.3409254389935	
40.0	232.2547781063622	fix	0.0		720													250.899134617679	5.9998394142112375
40.0	232.39654064405295	pulse	0.0	t														251.04089715536975	
40.0	233.0965325845773	pulse	0.0	t														251.7408890958941	
40.0	233.79650098057027	pulse	0.0	t														252.44085749188707	
40.0	234.49648175253424	pulse	0.0	t														253.14083826385104	
40.0	235.19647973011888	pulse	0.0	t														253.84083624143568	
40.0	235.89645174834732	pulse	0.0	t														254.54080825966412	
40.0	236.59642467213598	pulse	0.0	t														255.24078118345278	
40.0	237.29640514224775	pulse	0.0	t														255.94076165356455	
40.0	237.99640613836164	pulse	0.0	t														256.64076264967844	
