trial_nr	onset	event_type	phase	response	nr_frames	face_age	face_sex	face_eth	attractiveness	expression	face_id	sub_id	ses	run	trial_type	catch	rating_type	onset_abs	duration
-1.0	0.053751454198391	fix	0.0		714													22.62238931038246	5.966383946978567
-1.0	0.7036695602719192	pulse	0.0	t														23.272307416455988	
-1.0	1.4036564596590324	pulse	0.0	t														23.9722943158431	
-1.0	2.103649698051413	pulse	0.0	t														24.67228755423548	
-1.0	2.8036444457320613	pulse	0.0	t														25.37228230191613	
-1.0	3.5036274209714975	pulse	0.0	t														26.072265277155566	
-1.0	4.203622168652146	pulse	0.0	t														26.772260024836214	
-1.0	4.90361329404368	pulse	0.0	t														27.47225115022775	
-1.0	5.603609852868431	pulse	0.0	t														28.1722477090525	
0.0	6.020135401176958	face	0.0		144	31.0	female	east_asian	3.395941106247513	smiling	087	sub-17	1.0	5.0	087_smiling	0.0		28.588773257361026	1.2333448642884832
0.0	6.303613656272319	pulse	0.0	t		31.0	female	east_asian	3.395941106247513	smiling	087	sub-17	1.0	5.0	087_smiling	0.0		28.872251512456387	
0.0	7.003596329655011	pulse	0.0	t		31.0	female	east_asian	3.395941106247513	smiling	087	sub-17	1.0	5.0	087_smiling	0.0		29.57223418583908	
0.0	7.253480265465441	fix	1.0		444	31.0	female	east_asian	3.395941106247513	smiling	087	sub-17	1.0	5.0	087_smiling	0.0		29.82211812164951	3.7582710450487866
0.0	7.704007338757947	pulse	1.0	t		31.0	female	east_asian	3.395941106247513	smiling	087	sub-17	1.0	5.0	087_smiling	0.0		30.272645194942015	
0.0	8.403572543287737	pulse	1.0	t		31.0	female	east_asian	3.395941106247513	smiling	087	sub-17	1.0	5.0	087_smiling	0.0		30.972210399471805	
0.0	9.103560348246901	pulse	1.0	t		31.0	female	east_asian	3.395941106247513	smiling	087	sub-17	1.0	5.0	087_smiling	0.0		31.67219820443097	
0.0	9.803556605213998	pulse	1.0	t		31.0	female	east_asian	3.395941106247513	smiling	087	sub-17	1.0	5.0	087_smiling	0.0		32.37219446139807	
0.0	10.503548636177584	pulse	1.0	t		31.0	female	east_asian	3.395941106247513	smiling	087	sub-17	1.0	5.0	087_smiling	0.0		33.07218649236165	
1.0	11.011751310514228	face	0.0		146	21.0	male	east_asian/white	3.501790688420215	smiling	036	sub-17	1.0	5.0	036_smiling	0.0		33.580389166698296	1.241666168601114
1.0	11.203530102130571	pulse	0.0	t		21.0	male	east_asian/white	3.501790688420215	smiling	036	sub-17	1.0	5.0	036_smiling	0.0		33.77216795831464	
1.0	11.90353722596592	pulse	0.0	t		21.0	male	east_asian/white	3.501790688420215	smiling	036	sub-17	1.0	5.0	036_smiling	0.0		34.47217508214999	
1.0	12.253417479115342	fix	1.0		445	21.0	male	east_asian/white	3.501790688420215	smiling	036	sub-17	1.0	5.0	036_smiling	0.0		34.82205533529941	3.7582722524784913
1.0	12.603546462803934	pulse	1.0	t		21.0	male	east_asian/white	3.501790688420215	smiling	036	sub-17	1.0	5.0	036_smiling	0.0		35.172184318988	
1.0	13.303516760031016	pulse	1.0	t		21.0	male	east_asian/white	3.501790688420215	smiling	036	sub-17	1.0	5.0	036_smiling	0.0		35.872154616215084	
1.0	14.003510602138704	pulse	1.0	t		21.0	male	east_asian/white	3.501790688420215	smiling	036	sub-17	1.0	5.0	036_smiling	0.0		36.57214845832277	
1.0	14.703500821957277	pulse	1.0	t		21.0	male	east_asian/white	3.501790688420215	smiling	036	sub-17	1.0	5.0	036_smiling	0.0		37.272138678141346	
1.0	15.403491343633505	pulse	1.0	t		21.0	male	east_asian/white	3.501790688420215	smiling	036	sub-17	1.0	5.0	036_smiling	0.0		37.97212919981757	
2.0	16.011689731593833	face	0.0		146	31.0	male	west_asian	1.9538400318344609	smiling	070	sub-17	1.0	5.0	070_smiling	0.0		38.5803275877779	1.2416746206108655
2.0	16.103503599046235	pulse	0.0	t		31.0	male	west_asian	1.9538400318344609	smiling	070	sub-17	1.0	5.0	070_smiling	0.0		38.6721414552303	
2.0	16.803470273983294	pulse	0.0	t		31.0	male	west_asian	1.9538400318344609	smiling	070	sub-17	1.0	5.0	070_smiling	0.0		39.37210813016736	
2.0	17.2533643522047	fix	1.0		444	31.0	male	west_asian	1.9538400318344609	smiling	070	sub-17	1.0	5.0	070_smiling	0.0		39.82200220838877	3.758267422758763
2.0	17.50347075695572	pulse	1.0	t		31.0	male	west_asian	1.9538400318344609	smiling	070	sub-17	1.0	5.0	070_smiling	0.0		40.07210861313979	
2.0	18.203462184204	pulse	1.0	t		31.0	male	west_asian	1.9538400318344609	smiling	070	sub-17	1.0	5.0	070_smiling	0.0		40.77210004038807	
2.0	18.90345391330993	pulse	1.0	t		31.0	male	west_asian	1.9538400318344609	smiling	070	sub-17	1.0	5.0	070_smiling	0.0		41.472091769494	
2.0	19.603457112998512	pulse	1.0	t		31.0	male	west_asian	1.9538400318344609	smiling	070	sub-17	1.0	5.0	070_smiling	0.0		42.17209496918258	
2.0	20.303433145517374	pulse	1.0	t		31.0	male	west_asian	1.9538400318344609	smiling	070	sub-17	1.0	5.0	070_smiling	0.0		42.87207100170144	
3.0	21.011631774963462	face	0.0		147	21.0	male	black	2.969757262236371	neutral	137	sub-17	1.0	5.0	137_neutral	0.0		43.58026963114753	1.2416679797470351
3.0	21.00443670079403	pulse	0.0	t		21.0	male	black	2.969757262236371	neutral	137	sub-17	1.0	5.0	137_neutral	0.0		43.5730745569781	
3.0	21.7034199241607	pulse	0.0	t		21.0	male	black	2.969757262236371	neutral	137	sub-17	1.0	5.0	137_neutral	0.0		44.27205778034477	
3.0	22.253299754710497	fix	1.0		443	21.0	male	black	2.969757262236371	neutral	137	sub-17	1.0	5.0	137_neutral	0.0		44.821937610894565	3.758250216884335
3.0	22.40340350311544	pulse	1.0	t		21.0	male	black	2.969757262236371	neutral	137	sub-17	1.0	5.0	137_neutral	0.0		44.97204135929951	
3.0	23.103383157923417	pulse	1.0	t		21.0	male	black	2.969757262236371	neutral	137	sub-17	1.0	5.0	137_neutral	0.0		45.672021014107486	
3.0	23.8033957151938	pulse	1.0	t		21.0	male	black	2.969757262236371	neutral	137	sub-17	1.0	5.0	137_neutral	0.0		46.37203357137787	
3.0	24.503369634709998	pulse	1.0	t		21.0	male	black	2.969757262236371	neutral	137	sub-17	1.0	5.0	137_neutral	0.0		47.072007490894066	
3.0	25.20337615483095	pulse	1.0	t		21.0	male	black	2.969757262236371	neutral	137	sub-17	1.0	5.0	137_neutral	0.0		47.77201401101502	
3.0	25.90335369663626	pulse	1.0	t		21.0	male	black	2.969757262236371	neutral	137	sub-17	1.0	5.0	137_neutral	0.0		48.47199155282033	
4.0	26.01154997159483	face	0.0		147	40.0	male	black	2.408674890569041	smiling	061	sub-17	1.0	5.0	061_smiling	0.0		48.5801878277789	1.2416924301996914
4.0	26.60336595204899	pulse	0.0	t		40.0	male	black	2.408674890569041	smiling	061	sub-17	1.0	5.0	061_smiling	0.0		49.17200380823306	
4.0	27.253242401794523	fix	1.0		444	40.0	male	black	2.408674890569041	smiling	061	sub-17	1.0	5.0	061_smiling	0.0		49.82188025797859	3.7582816100593845
4.0	27.30335436072346	pulse	1.0	t		40.0	male	black	2.408674890569041	smiling	061	sub-17	1.0	5.0	061_smiling	0.0		49.87199221690753	
4.0	28.003343071254676	pulse	1.0	t		40.0	male	black	2.408674890569041	smiling	061	sub-17	1.0	5.0	061_smiling	0.0		50.571980927438744	
4.0	28.70333751707767	pulse	1.0	t		40.0	male	black	2.408674890569041	smiling	061	sub-17	1.0	5.0	061_smiling	0.0		51.27197537326174	
4.0	29.403329246183603	pulse	1.0	t		40.0	male	black	2.408674890569041	smiling	061	sub-17	1.0	5.0	061_smiling	0.0		51.97196710236767	
4.0	30.103321880861586	pulse	1.0	t		40.0	male	black	2.408674890569041	smiling	061	sub-17	1.0	5.0	061_smiling	0.0		52.671959737045654	
4.0	30.803315722969273	pulse	1.0	t		40.0	male	black	2.408674890569041	smiling	061	sub-17	1.0	5.0	061_smiling	0.0		53.37195357915334	
5.0	31.011524011853908	face	0.0		146	19.0	female	white	4.298846000795861	smiling	100	sub-17	1.0	5.0	100_smiling	0.0		53.580161868037976	1.2416580184508348
5.0	31.503306546503154	pulse	0.0	t		19.0	female	white	4.298846000795861	smiling	100	sub-17	1.0	5.0	100_smiling	0.0		54.07194440268722	
5.0	32.203294049604665	pulse	0.0	t		19.0	female	white	4.298846000795861	smiling	100	sub-17	1.0	5.0	100_smiling	0.0		54.77193190578873	
5.0	32.25318203030474	fix	1.0		445	19.0	female	white	4.298846000795861	smiling	100	sub-17	1.0	5.0	100_smiling	0.0		54.82181988648881	3.7666080459503064
5.0	32.90328909914206	pulse	1.0	t		19.0	female	white	4.298846000795861	smiling	100	sub-17	1.0	5.0	100_smiling	0.0		55.471926955326126	
5.0	33.60329803412333	pulse	1.0	t		19.0	female	white	4.298846000795861	smiling	100	sub-17	1.0	5.0	100_smiling	0.0		56.171935890307395	
5.0	34.30327165178187	pulse	1.0	t		19.0	female	white	4.298846000795861	smiling	100	sub-17	1.0	5.0	100_smiling	0.0		56.87190950796594	
5.0	35.00325915488338	pulse	1.0	t		19.0	female	white	4.298846000795861	smiling	100	sub-17	1.0	5.0	100_smiling	0.0		57.57189701106745	
5.0	35.703253600706375	pulse	1.0	t		19.0	female	white	4.298846000795861	smiling	100	sub-17	1.0	5.0	100_smiling	0.0		58.271891456890444	
6.0	36.01979007625505	face	0.0		145	22.0	male	black	2.767608436132113	neutral	044	sub-17	1.0	5.0	044_neutral	0.0		58.58842793243912	1.2333312807022594
6.0	36.403252574391445	pulse	0.0	t		22.0	male	black	2.767608436132113	neutral	044	sub-17	1.0	5.0	044_neutral	0.0		58.97189043057551	
6.0	37.10329501554861	pulse	0.0	t		22.0	male	black	2.767608436132113	neutral	044	sub-17	1.0	5.0	044_neutral	0.0		59.67193287173268	
6.0	37.25312135695731	fix	1.0		445	22.0	male	black	2.767608436132113	neutral	044	sub-17	1.0	5.0	044_neutral	0.0		59.82175921314138	3.758366130145987
6.0	37.80323271217094	pulse	1.0	t		22.0	male	black	2.767608436132113	neutral	044	sub-17	1.0	5.0	044_neutral	0.0		60.37187056835501	
6.0	38.50321719669773	pulse	1.0	t		22.0	male	black	2.767608436132113	neutral	044	sub-17	1.0	5.0	044_neutral	0.0		61.0718550528818	
6.0	39.203212246236035	pulse	1.0	t		22.0	male	black	2.767608436132113	neutral	044	sub-17	1.0	5.0	044_neutral	0.0		61.7718501024201	
6.0	39.90320246605461	pulse	1.0	t		22.0	male	black	2.767608436132113	neutral	044	sub-17	1.0	5.0	044_neutral	0.0		62.47184032223868	
6.0	40.603219249328504	pulse	1.0	t		22.0	male	black	2.767608436132113	neutral	044	sub-17	1.0	5.0	044_neutral	0.0		63.17185710551257	
7.0	41.011487487103295	face	0.0		146	31.0	male	west_asian	1.9538400318344609	neutral	070	sub-17	1.0	5.0	070_neutral	0.0		63.580125343287364	1.241574403937193
7.0	41.30320282828325	pulse	0.0	t		31.0	male	west_asian	1.9538400318344609	neutral	070	sub-17	1.0	5.0	070_neutral	0.0		63.871840684467315	
7.0	42.00318580352268	pulse	0.0	t		31.0	male	west_asian	1.9538400318344609	neutral	070	sub-17	1.0	5.0	070_neutral	0.0		64.57182365970675	
7.0	42.25306189104049	fix	1.0		445	31.0	male	west_asian	1.9538400318344609	neutral	070	sub-17	1.0	5.0	070_neutral	0.0		64.82169974722456	3.766615592386188
7.0	42.703180853060985	pulse	1.0	t		31.0	male	west_asian	1.9538400318344609	neutral	070	sub-17	1.0	5.0	070_neutral	0.0		65.27181870924505	
7.0	43.403177411885736	pulse	1.0	t		31.0	male	west_asian	1.9538400318344609	neutral	070	sub-17	1.0	5.0	070_neutral	0.0		65.9718152680698	
7.0	44.1031446905381	pulse	1.0	t		31.0	male	west_asian	1.9538400318344609	neutral	070	sub-17	1.0	5.0	070_neutral	0.0		66.67178254672217	
7.0	44.80314758836994	pulse	1.0	t		31.0	male	west_asian	1.9538400318344609	neutral	070	sub-17	1.0	5.0	070_neutral	0.0		67.371785444554	
7.0	45.50314263790824	pulse	1.0	t		31.0	male	west_asian	1.9538400318344609	neutral	070	sub-17	1.0	5.0	070_neutral	0.0		68.07178049409231	
8.0	46.019677483426676	face	0.0		145	22.0	female	west_asian	3.8205332272184642	smiling	066	sub-17	1.0	5.0	066_smiling	0.0		68.58831533961074	1.2333279602698894
8.0	46.203139498590645	pulse	0.0	t		22.0	female	west_asian	3.8205332272184642	smiling	066	sub-17	1.0	5.0	066_smiling	0.0		68.77177735477471	
8.0	46.90312579426245	pulse	0.0	t		22.0	female	west_asian	3.8205332272184642	smiling	066	sub-17	1.0	5.0	066_smiling	0.0		69.47176365044652	
8.0	47.253005443696566	fix	1.0		444	22.0	female	west_asian	3.8205332272184642	smiling	066	sub-17	1.0	5.0	066_smiling	0.0		69.82164329988063	3.7666113663826764
8.0	47.60313865338958	pulse	1.0	t		22.0	female	west_asian	3.8205332272184642	smiling	066	sub-17	1.0	5.0	066_smiling	0.0		70.17177650957365	
8.0	48.30312404348933	pulse	1.0	t		22.0	female	west_asian	3.8205332272184642	smiling	066	sub-17	1.0	5.0	066_smiling	0.0		70.8717618996734	
8.0	49.003106716871116	pulse	1.0	t		22.0	female	west_asian	3.8205332272184642	smiling	066	sub-17	1.0	5.0	066_smiling	0.0		71.57174457305518	
8.0	49.703091503255564	pulse	1.0	t		22.0	female	west_asian	3.8205332272184642	smiling	066	sub-17	1.0	5.0	066_smiling	0.0		72.27172935943963	
8.0	50.40309591037476	pulse	1.0	t		22.0	female	west_asian	3.8205332272184642	smiling	066	sub-17	1.0	5.0	066_smiling	0.0		72.97173376655883	
9.0	51.01961681007924	face	0.0		145	34.0	male	white	2.651014723438122	neutral	121	sub-17	1.0	5.0	121_neutral	0.0		73.58825466626331	1.2333421475705109
9.0	51.10307767818449	pulse	0.0	t		34.0	male	white	2.651014723438122	neutral	121	sub-17	1.0	5.0	121_neutral	0.0		73.67171553436856	
9.0	51.8030633701419	pulse	0.0	t		34.0	male	white	2.651014723438122	neutral	121	sub-17	1.0	5.0	121_neutral	0.0		74.37170122632597	
9.0	52.25295895764975	fix	1.0		444	34.0	male	white	2.651014723438122	neutral	121	sub-17	1.0	5.0	121_neutral	0.0		74.82159681383382	3.766594764221736
9.0	52.503062947541366	pulse	1.0	t		34.0	male	white	2.651014723438122	neutral	121	sub-17	1.0	5.0	121_neutral	0.0		75.07170080372543	
9.0	53.20305075250053	pulse	1.0	t		34.0	male	white	2.651014723438122	neutral	121	sub-17	1.0	5.0	121_neutral	0.0		75.7716886086846	
9.0	53.9030415760335	pulse	1.0	t		34.0	male	white	2.651014723438122	neutral	121	sub-17	1.0	5.0	121_neutral	0.0		76.47167943221757	
9.0	54.603031795852075	pulse	1.0	t		34.0	male	white	2.651014723438122	neutral	121	sub-17	1.0	5.0	121_neutral	0.0		77.17166965203614	
9.0	55.30302382681566	pulse	1.0	t		34.0	male	white	2.651014723438122	neutral	121	sub-17	1.0	5.0	121_neutral	0.0		77.87166168299973	
10.0	56.01955372187149	face	0.0		146	54.0	female	white	2.286908077994429	neutral	136	sub-17	1.0	5.0	136_neutral	0.0		78.58819157805556	1.2333330918481806
10.0	56.006014509684064	pulse	0.0	t		54.0	female	white	2.286908077994429	neutral	136	sub-17	1.0	5.0	136_neutral	0.0		78.57465236586813	
10.0	56.703020566755185	pulse	0.0	t		54.0	female	white	2.286908077994429	neutral	136	sub-17	1.0	5.0	136_neutral	0.0		79.27165842293925	
10.0	57.25288681371967	fix	1.0		443	54.0	female	white	2.286908077994429	neutral	136	sub-17	1.0	5.0	136_neutral	0.0		79.82152466990374	3.766608649664704
10.0	57.40300656056934	pulse	1.0	t		54.0	female	white	2.286908077994429	neutral	136	sub-17	1.0	5.0	136_neutral	0.0		79.9716444167534	
10.0	58.10299164881144	pulse	1.0	t		54.0	female	white	2.286908077994429	neutral	136	sub-17	1.0	5.0	136_neutral	0.0		80.67162950499551	
10.0	58.80300571536827	pulse	1.0	t		54.0	female	white	2.286908077994429	neutral	136	sub-17	1.0	5.0	136_neutral	0.0		81.37164357155234	
10.0	59.5029751070233	pulse	1.0	t		54.0	female	white	2.286908077994429	neutral	136	sub-17	1.0	5.0	136_neutral	0.0		82.07161296320737	
10.0	60.20295627111864	pulse	1.0	t		54.0	female	white	2.286908077994429	neutral	136	sub-17	1.0	5.0	136_neutral	0.0		82.7715941273027	
10.0	60.90296037638018	pulse	1.0	t		54.0	female	white	2.286908077994429	neutral	136	sub-17	1.0	5.0	136_neutral	0.0		83.47159823256425	
11.0	61.019495463384374	face	0.0		146	19.0	male	white	3.2522881018702745	neutral	018	sub-17	1.0	5.0	018_neutral	0.0		83.58813331956844	1.2333481847199437
11.0	61.60295874634994	pulse	0.0	t		19.0	male	white	3.2522881018702745	neutral	018	sub-17	1.0	5.0	018_neutral	0.0		84.17159660253401	
11.0	62.25284364810432	fix	1.0		443	19.0	male	white	3.2522881018702745	neutral	018	sub-17	1.0	5.0	018_neutral	0.0		84.82148150428839	3.7665977827964525
11.0	62.302962247896176	pulse	1.0	t		19.0	male	white	3.2522881018702745	neutral	018	sub-17	1.0	5.0	018_neutral	0.0		84.87160010408024	
11.0	63.002960316008284	pulse	1.0	t		19.0	male	white	3.2522881018702745	neutral	018	sub-17	1.0	5.0	018_neutral	0.0		85.57159817219235	
11.0	63.70293061323537	pulse	1.0	t		19.0	male	white	3.2522881018702745	neutral	018	sub-17	1.0	5.0	018_neutral	0.0		86.27156846941944	
11.0	64.40292053119629	pulse	1.0	t		19.0	male	white	3.2522881018702745	neutral	018	sub-17	1.0	5.0	018_neutral	0.0		86.97155838738036	
11.0	65.10291256215987	pulse	1.0	t		19.0	male	white	3.2522881018702745	neutral	018	sub-17	1.0	5.0	018_neutral	0.0		87.67155041834394	
11.0	65.80290519683786	pulse	1.0	t		19.0	male	white	3.2522881018702745	neutral	018	sub-17	1.0	5.0	018_neutral	0.0		88.37154305302192	
12.0	66.01944143090077	face	0.0		145	31.0	female	white	2.1822522881018704	smiling	102	sub-17	1.0	5.0	102_smiling	0.0		88.58807928708484	1.2333333937049247
12.0	66.50290839652735	pulse	0.0	t		31.0	female	white	2.1822522881018704	smiling	102	sub-17	1.0	5.0	102_smiling	0.0		89.07154625271141	
12.0	67.20288805133441	pulse	0.0	t		31.0	female	white	2.1822522881018704	smiling	102	sub-17	1.0	5.0	102_smiling	0.0		89.77152590751848	
12.0	67.2527748246057	fix	1.0		444	31.0	female	white	2.1822522881018704	smiling	102	sub-17	1.0	5.0	102_smiling	0.0		89.82141268078976	3.766600801371169
12.0	67.90288038415565	pulse	1.0	t		31.0	female	white	2.1822522881018704	smiling	102	sub-17	1.0	5.0	102_smiling	0.0		90.47151824033972	
12.0	68.60287754669571	pulse	1.0	t		31.0	female	white	2.1822522881018704	smiling	102	sub-17	1.0	5.0	102_smiling	0.0		91.17151540287978	
12.0	69.30286565351162	pulse	1.0	t		31.0	female	white	2.1822522881018704	smiling	102	sub-17	1.0	5.0	102_smiling	0.0		91.87150350969569	
12.0	70.00285164732668	pulse	1.0	t		31.0	female	white	2.1822522881018704	smiling	102	sub-17	1.0	5.0	102_smiling	0.0		92.57148950351075	
12.0	70.7028533377279	pulse	1.0	t		31.0	female	white	2.1822522881018704	smiling	102	sub-17	1.0	5.0	102_smiling	0.0		93.27149119391197	
13.0	71.01937562597686	face	0.0		145	40.0	female	west_asian	1.5777954635893354	smiling	038	sub-17	1.0	5.0	038_smiling	0.0		93.58801348216093	1.233339430853448
13.0	71.40284084082941	pulse	0.0	t		40.0	female	west_asian	1.5777954635893354	smiling	038	sub-17	1.0	5.0	038_smiling	0.0		93.97147869701348	
13.0	72.10282623092917	pulse	0.0	t		40.0	female	west_asian	1.5777954635893354	smiling	038	sub-17	1.0	5.0	038_smiling	0.0		94.67146408711324	
13.0	72.25271505683031	fix	1.0		444	40.0	female	west_asian	1.5777954635893354	smiling	038	sub-17	1.0	5.0	038_smiling	0.0		94.82135291301438	3.7582731580505424
13.0	72.80282188418187	pulse	1.0	t		40.0	female	west_asian	1.5777954635893354	smiling	038	sub-17	1.0	5.0	038_smiling	0.0		95.37145974036594	
13.0	73.50280968914103	pulse	1.0	t		40.0	female	west_asian	1.5777954635893354	smiling	038	sub-17	1.0	5.0	038_smiling	0.0		96.0714475453251	
13.0	74.20280202196136	pulse	1.0	t		40.0	female	west_asian	1.5777954635893354	smiling	038	sub-17	1.0	5.0	038_smiling	0.0		96.77143987814543	
13.0	74.90279526035465	pulse	1.0	t		40.0	female	west_asian	1.5777954635893354	smiling	038	sub-17	1.0	5.0	038_smiling	0.0		97.47143311653872	
13.0	75.60279242289471	pulse	1.0	t		40.0	female	west_asian	1.5777954635893354	smiling	038	sub-17	1.0	5.0	038_smiling	0.0		98.17143027907878	
14.0	76.01098821488085	face	0.0		146	27.0	female	white	3.504576203740549	neutral	144	sub-17	1.0	5.0	144_neutral	0.0		98.57962607106492	1.2416580184508348
14.0	76.30278234085563	pulse	0.0	t		27.0	female	white	3.504576203740549	neutral	144	sub-17	1.0	5.0	144_neutral	0.0		98.8714201970397	
14.0	77.00274992136565	pulse	0.0	t		27.0	female	white	3.504576203740549	neutral	144	sub-17	1.0	5.0	144_neutral	0.0		99.57138777754972	
14.0	77.25264623333169	fix	1.0		444	27.0	female	white	3.504576203740549	neutral	144	sub-17	1.0	5.0	144_neutral	0.0		99.82128408951576	3.7666255536823883
14.0	77.70277123250162	pulse	1.0	t		27.0	female	white	3.504576203740549	neutral	144	sub-17	1.0	5.0	144_neutral	0.0		100.27140908868569	
14.0	78.40275541517167	pulse	1.0	t		27.0	female	white	3.504576203740549	neutral	144	sub-17	1.0	5.0	144_neutral	0.0		100.97139327135574	
14.0	79.10275982228995	pulse	1.0	t		27.0	female	white	3.504576203740549	neutral	144	sub-17	1.0	5.0	144_neutral	0.0		101.67139767847402	
14.0	79.80276302197944	pulse	1.0	t		27.0	female	white	3.504576203740549	neutral	144	sub-17	1.0	5.0	144_neutral	0.0		102.37140087816351	
14.0	80.50273754521004	pulse	1.0	t		27.0	female	white	3.504576203740549	neutral	144	sub-17	1.0	5.0	144_neutral	0.0		103.0713754013941	
15.0	81.01927178701408	face	0.0		145	26.0	female	white	4.854755272582572	neutral	027	sub-17	1.0	5.0	027_neutral	0.0		103.58790964319815	1.2333318844175665
15.0	81.20274285790128	pulse	0.0	t		26.0	female	white	4.854755272582572	neutral	027	sub-17	1.0	5.0	027_neutral	0.0		103.77138071408535	
15.0	81.90271315512837	pulse	0.0	t		26.0	female	white	4.854755272582572	neutral	027	sub-17	1.0	5.0	027_neutral	0.0		104.47135101131244	
15.0	82.25260367143164	fix	1.0		444	26.0	female	white	4.854755272582572	neutral	027	sub-17	1.0	5.0	027_neutral	0.0		104.82124152761571	3.766607744092653
15.0	82.6027054879496	pulse	1.0	t		26.0	female	white	4.854755272582572	neutral	027	sub-17	1.0	5.0	027_neutral	0.0		105.17134334413367	
15.0	83.30268695390168	pulse	1.0	t		26.0	female	white	4.854755272582572	neutral	027	sub-17	1.0	5.0	027_neutral	0.0		105.87132481008575	
15.0	84.0026756644329	pulse	1.0	t		26.0	female	white	4.854755272582572	neutral	027	sub-17	1.0	5.0	027_neutral	0.0		106.57131352061697	
15.0	84.70268369384121	pulse	1.0	t		26.0	female	white	4.854755272582572	neutral	027	sub-17	1.0	5.0	027_neutral	0.0		107.27132155002528	
15.0	85.40267512108949	pulse	1.0	t		26.0	female	white	4.854755272582572	neutral	027	sub-17	1.0	5.0	027_neutral	0.0		107.97131297727356	
16.0	86.0192114155243	face	0.0		145	19.0	male	white	2.243931555909272	neutral	130	sub-17	1.0	5.0	130_neutral	1.0	attractiveness	108.58784927170836	1.2333273565554919
16.0	86.10268677278782	pulse	0.0	t		19.0	male	white	2.243931555909272	neutral	130	sub-17	1.0	5.0	130_neutral	1.0	attractiveness	108.67132462897189	
16.0	86.80265556072754	pulse	0.0	t		19.0	male	white	2.243931555909272	neutral	130	sub-17	1.0	5.0	130_neutral	1.0	attractiveness	109.37129341691161	
16.0	87.25253877207979	fix	1.0		177	19.0	male	white	2.243931555909272	neutral	130	sub-17	1.0	5.0	130_neutral	1.0	attractiveness	109.82117662826386	1.5083439436230037
16.0	87.5026521195523	pulse	1.0	t		19.0	male	white	2.243931555909272	neutral	130	sub-17	1.0	5.0	130_neutral	1.0	attractiveness	110.07128997573636	
16.0	88.20264505608793	pulse	1.0	t		19.0	male	white	2.243931555909272	neutral	130	sub-17	1.0	5.0	130_neutral	1.0	attractiveness	110.771282912272	
16.0	88.76088271570279	rating	2.0		293	19.0	male	white	2.243931555909272	neutral	130	sub-17	1.0	5.0	130_neutral	1.0	attractiveness	111.32952057188686	2.4916005146060343
16.0	88.90263708705152	pulse	2.0	t		19.0	male	white	2.243931555909272	neutral	130	sub-17	1.0	5.0	130_neutral	1.0	attractiveness	111.47127494323558	
16.0	89.60262670315478	pulse	2.0	t		19.0	male	white	2.243931555909272	neutral	130	sub-17	1.0	5.0	130_neutral	1.0	attractiveness	112.17126455933885	
16.0	90.30261873411837	pulse	2.0	t		19.0	male	white	2.243931555909272	neutral	130	sub-17	1.0	5.0	130_neutral	1.0	attractiveness	112.87125659030244	
16.0	90.70577682712792	response	2.0	b		19.0	male	white	2.243931555909272	neutral	130	sub-17	1.0	5.0	130_neutral	1.0	attractiveness	113.27441468331199	
16.0	91.002598690784	pulse	2.0	t		19.0	male	white	2.243931555909272	neutral	130	sub-17	1.0	5.0	130_neutral	1.0	attractiveness	113.57123654696807	
16.0	91.25248323030883	fix	3.0		444	19.0	male	white	2.243931555909272	neutral	130	sub-17	1.0	5.0	130_neutral	1.0	attractiveness	113.8211210864929	3.766615290529444
16.0	91.70262302049377	pulse	3.0	t		19.0	male	white	2.243931555909272	neutral	130	sub-17	1.0	5.0	130_neutral	1.0	attractiveness	114.27126087667784	
16.0	92.40258909171644	pulse	3.0	t		19.0	male	white	2.243931555909272	neutral	130	sub-17	1.0	5.0	130_neutral	1.0	attractiveness	114.9712269479005	
16.0	93.10259078211857	pulse	3.0	t		19.0	male	white	2.243931555909272	neutral	130	sub-17	1.0	5.0	130_neutral	1.0	attractiveness	115.67122863830264	
16.0	93.80257647407507	pulse	3.0	t		19.0	male	white	2.243931555909272	neutral	130	sub-17	1.0	5.0	130_neutral	1.0	attractiveness	116.37121433025914	
16.0	94.5025588456001	pulse	3.0	t		19.0	male	white	2.243931555909272	neutral	130	sub-17	1.0	5.0	130_neutral	1.0	attractiveness	117.07119670178417	
17.0	95.01909852083827	face	0.0		145	47.0	male	east_asian	2.171110226820533	neutral	024	sub-17	1.0	5.0	024_neutral	0.0		117.58773637702234	1.2333391289957945
17.0	95.20255781928518	pulse	0.0	t		47.0	male	east_asian	2.171110226820533	neutral	024	sub-17	1.0	5.0	024_neutral	0.0		117.77119567546924	
17.0	95.90256705612319	pulse	0.0	t		47.0	male	east_asian	2.171110226820533	neutral	024	sub-17	1.0	5.0	024_neutral	0.0		118.47120491230726	
17.0	96.25243764983406	fix	1.0		444	47.0	male	east_asian	2.171110226820533	neutral	024	sub-17	1.0	5.0	024_neutral	0.0		118.82107550601813	3.766602914373834
17.0	96.60254852207527	pulse	1.0	t		47.0	male	east_asian	2.171110226820533	neutral	024	sub-17	1.0	5.0	024_neutral	0.0		119.17118637825934	
17.0	97.30253632703443	pulse	1.0	t		47.0	male	east_asian	2.171110226820533	neutral	024	sub-17	1.0	5.0	024_neutral	0.0		119.8711741832185	
17.0	98.00256035488746	pulse	1.0	t		47.0	male	east_asian	2.171110226820533	neutral	024	sub-17	1.0	5.0	024_neutral	0.0		120.57119821107153	
17.0	98.7025215963913	pulse	1.0	t		47.0	male	east_asian	2.171110226820533	neutral	024	sub-17	1.0	5.0	024_neutral	0.0		121.27115945257538	
17.0	99.40251181620988	pulse	1.0	t		47.0	male	east_asian	2.171110226820533	neutral	024	sub-17	1.0	5.0	024_neutral	0.0		121.97114967239395	
18.0	100.0190405642079	face	0.0		145	24.0	female	east_asian	2.9076800636689217	neutral	034	sub-17	1.0	5.0	034_neutral	0.0		122.58767842039197	1.2333342992769758
18.0	100.1025768966756	pulse	0.0	t		24.0	female	east_asian	2.9076800636689217	neutral	034	sub-17	1.0	5.0	034_neutral	0.0		122.67121475285967	
18.0	100.80250191528557	pulse	0.0	t		24.0	female	east_asian	2.9076800636689217	neutral	034	sub-17	1.0	5.0	034_neutral	0.0		123.37113977146964	
18.0	101.25237486348487	fix	1.0		444	24.0	female	east_asian	2.9076800636689217	neutral	034	sub-17	1.0	5.0	034_neutral	0.0		123.82101271966894	3.7666125738114715
18.0	101.50248911652943	pulse	1.0	t		24.0	female	east_asian	2.9076800636689217	neutral	034	sub-17	1.0	5.0	034_neutral	0.0		124.0711269727135	
18.0	102.20247480848593	pulse	1.0	t		24.0	female	east_asian	2.9076800636689217	neutral	034	sub-17	1.0	5.0	034_neutral	0.0		124.77111266467	
18.0	102.90246804687922	pulse	1.0	t		24.0	female	east_asian	2.9076800636689217	neutral	034	sub-17	1.0	5.0	034_neutral	0.0		125.47110590306329	
18.0	103.60247245399842	pulse	1.0	t		24.0	female	east_asian	2.9076800636689217	neutral	034	sub-17	1.0	5.0	034_neutral	0.0		126.17111031018248	
18.0	104.30245271252079	pulse	1.0	t		24.0	female	east_asian	2.9076800636689217	neutral	034	sub-17	1.0	5.0	034_neutral	0.0		126.87109056870486	
19.0	105.01898743729635	face	0.0		146	24.0	male	white	3.1153999204138483	neutral	012	sub-17	1.0	5.0	012_neutral	0.0		127.58762529348041	1.233328563986106
19.0	105.00525896048748	pulse	0.0	t		24.0	male	white	3.1153999204138483	neutral	012	sub-17	1.0	5.0	012_neutral	0.0		127.57389681667155	
19.0	105.70243979302177	pulse	0.0	t		24.0	male	white	3.1153999204138483	neutral	012	sub-17	1.0	5.0	012_neutral	0.0		128.27107764920584	
19.0	106.25231600128245	fix	1.0		443	24.0	male	white	3.1153999204138483	neutral	012	sub-17	1.0	5.0	012_neutral	0.0		128.82095385746652	3.766624346251774
19.0	106.40243122027096	pulse	1.0	t		24.0	male	white	3.1153999204138483	neutral	012	sub-17	1.0	5.0	012_neutral	0.0		128.97106907645502	
19.0	107.10242294937598	pulse	1.0	t		24.0	male	white	3.1153999204138483	neutral	012	sub-17	1.0	5.0	012_neutral	0.0		129.67106080556005	
19.0	107.80241920634398	pulse	1.0	t		24.0	male	white	3.1153999204138483	neutral	012	sub-17	1.0	5.0	012_neutral	0.0		130.37105706252805	
19.0	108.5024073131608	pulse	1.0	t		24.0	male	white	3.1153999204138483	neutral	012	sub-17	1.0	5.0	012_neutral	0.0		131.07104516934487	
19.0	109.20239360883261	pulse	1.0	t		24.0	male	white	3.1153999204138483	neutral	012	sub-17	1.0	5.0	012_neutral	0.0		131.77103146501668	
19.0	109.90238171564852	pulse	1.0	t		24.0	male	white	3.1153999204138483	neutral	012	sub-17	1.0	5.0	012_neutral	0.0		132.47101957183258	
20.0	110.01894034753423	face	0.0		146	20.0	female	white	3.9502586549940313	neutral	091	sub-17	1.0	5.0	091_neutral	0.0		132.5875782037183	1.2333016986722214
20.0	110.60238672648211	pulse	0.0	t		20.0	female	white	3.9502586549940313	neutral	091	sub-17	1.0	5.0	091_neutral	0.0		133.17102458266618	
20.0	111.25224204620645	fix	1.0		1184	20.0	female	white	3.9502586549940313	neutral	091	sub-17	1.0	5.0	091_neutral	0.0		133.82087990239052	10.016551145820813
20.0	111.30236336271628	pulse	1.0	t		20.0	female	white	3.9502586549940313	neutral	091	sub-17	1.0	5.0	091_neutral	0.0		133.87100121890035	
20.0	112.00238648499635	pulse	1.0	t		20.0	female	white	3.9502586549940313	neutral	091	sub-17	1.0	5.0	091_neutral	0.0		134.57102434118042	
20.0	112.70235195250461	pulse	1.0	t		20.0	female	white	3.9502586549940313	neutral	091	sub-17	1.0	5.0	091_neutral	0.0		135.27098980868868	
20.0	113.40234820947171	pulse	1.0	t		20.0	female	white	3.9502586549940313	neutral	091	sub-17	1.0	5.0	091_neutral	0.0		135.97098606565578	
20.0	114.10234959801619	pulse	1.0	t		20.0	female	white	3.9502586549940313	neutral	091	sub-17	1.0	5.0	091_neutral	0.0		136.67098745420026	
20.0	114.80233106396918	pulse	1.0	t		20.0	female	white	3.9502586549940313	neutral	091	sub-17	1.0	5.0	091_neutral	0.0		137.37096892015325	
20.0	115.5023233967895	pulse	1.0	t		20.0	female	white	3.9502586549940313	neutral	091	sub-17	1.0	5.0	091_neutral	0.0		138.07096125297358	
20.0	116.20231603146749	pulse	1.0	t		20.0	female	white	3.9502586549940313	neutral	091	sub-17	1.0	5.0	091_neutral	0.0		138.77095388765156	
20.0	116.90230323271226	pulse	1.0	t		20.0	female	white	3.9502586549940313	neutral	091	sub-17	1.0	5.0	091_neutral	0.0		139.47094108889632	
20.0	117.60231156397731	pulse	1.0	t		20.0	female	white	3.9502586549940313	neutral	091	sub-17	1.0	5.0	091_neutral	0.0		140.17094942016138	
20.0	118.30228487977911	pulse	1.0	t		20.0	female	white	3.9502586549940313	neutral	091	sub-17	1.0	5.0	091_neutral	0.0		140.87092273596318	
20.0	119.0022793256021	pulse	1.0	t		20.0	female	white	3.9502586549940313	neutral	091	sub-17	1.0	5.0	091_neutral	0.0		141.57091718178617	
20.0	119.70227135656478	pulse	1.0	t		20.0	female	white	3.9502586549940313	neutral	091	sub-17	1.0	5.0	091_neutral	0.0		142.27090921274885	
20.0	120.40224859651335	pulse	1.0	t		20.0	female	white	3.9502586549940313	neutral	091	sub-17	1.0	5.0	091_neutral	0.0		142.9708864526974	
20.0	121.10226266307109	pulse	1.0	t		20.0	female	white	3.9502586549940313	neutral	091	sub-17	1.0	5.0	091_neutral	0.0		143.67090051925516	
21.0	121.26879319202726	face	0.0		146	40.0	female	west_asian	1.5777954635893354	neutral	038	sub-17	1.0	5.0	038_neutral	0.0		143.83743104821133	1.2333349029922829
21.0	121.80224775131228	pulse	0.0	t		40.0	female	west_asian	1.5777954635893354	neutral	038	sub-17	1.0	5.0	038_neutral	0.0		144.37088560749635	
21.0	122.50212809501954	fix	1.0		444	40.0	female	west_asian	1.5777954635893354	neutral	038	sub-17	1.0	5.0	038_neutral	0.0		145.0707659512036	3.758389071311285
21.0	122.50953628054867	pulse	1.0	t		40.0	female	west_asian	1.5777954635893354	neutral	038	sub-17	1.0	5.0	038_neutral	0.0		145.07817413673274	
21.0	123.2022327188115	pulse	1.0	t		40.0	female	west_asian	1.5777954635893354	neutral	038	sub-17	1.0	5.0	038_neutral	0.0		145.77087057499557	
21.0	123.90222022191301	pulse	1.0	t		40.0	female	west_asian	1.5777954635893354	neutral	038	sub-17	1.0	5.0	038_neutral	0.0		146.47085807809708	
21.0	124.60221496959366	pulse	1.0	t		40.0	female	west_asian	1.5777954635893354	neutral	038	sub-17	1.0	5.0	038_neutral	0.0		147.17085282577773	
21.0	125.30222782872079	pulse	1.0	t		40.0	female	west_asian	1.5777954635893354	neutral	038	sub-17	1.0	5.0	038_neutral	0.0		147.87086568490486	
21.0	126.00219903151992	pulse	1.0	t		40.0	female	west_asian	1.5777954635893354	neutral	038	sub-17	1.0	5.0	038_neutral	0.0		148.570836887704	
22.0	126.26051716633083	face	0.0		146	20.0	male	black	3.1070433744528456	smiling	082	sub-17	1.0	5.0	082_smiling	0.0		148.8291550225149	1.2415499534836272
22.0	126.70220223120941	pulse	0.0	t		20.0	male	black	3.1070433744528456	smiling	082	sub-17	1.0	5.0	082_smiling	0.0		149.27084008739348	
22.0	127.40218369716149	pulse	0.0	t		20.0	male	black	3.1070433744528456	smiling	082	sub-17	1.0	5.0	082_smiling	0.0		149.97082155334556	
22.0	127.50206711981446	fix	1.0		444	20.0	male	black	3.1070433744528456	smiling	082	sub-17	1.0	5.0	082_smiling	0.0		150.07070497599852	3.7666068385206017
22.0	128.1021835764186	pulse	1.0	t		20.0	male	black	3.1070433744528456	smiling	082	sub-17	1.0	5.0	082_smiling	0.0		150.67082143260268	
22.0	128.8021662498013	pulse	1.0	t		20.0	male	black	3.1070433744528456	smiling	082	sub-17	1.0	5.0	082_smiling	0.0		151.37080410598537	
22.0	129.5021582807649	pulse	1.0	t		20.0	male	black	3.1070433744528456	smiling	082	sub-17	1.0	5.0	082_smiling	0.0		152.07079613694896	
22.0	130.20215966930846	pulse	1.0	t		20.0	male	black	3.1070433744528456	smiling	082	sub-17	1.0	5.0	082_smiling	0.0		152.77079752549253	
22.0	130.90214234269115	pulse	1.0	t		20.0	male	black	3.1070433744528456	smiling	082	sub-17	1.0	5.0	082_smiling	0.0		153.47078019887522	
23.0	131.26867395833506	face	0.0		145	23.0	male	white	2.6275368085953046	neutral	141	sub-17	1.0	5.0	141_neutral	1.0	attractiveness	153.83731181451913	1.23331316925578
23.0	131.602158220393	pulse	0.0	t		23.0	male	white	2.6275368085953046	neutral	141	sub-17	1.0	5.0	141_neutral	1.0	attractiveness	154.17079607657706	
23.0	132.30210738759888	pulse	0.0	t		23.0	male	white	2.6275368085953046	neutral	141	sub-17	1.0	5.0	141_neutral	1.0	attractiveness	154.87074524378295	
23.0	132.50198712759084	fix	1.0		177	23.0	male	white	2.6275368085953046	neutral	141	sub-17	1.0	5.0	141_neutral	1.0	attractiveness	155.0706249837749	1.5000045278611651
23.0	133.00212296344307	pulse	1.0	t		23.0	male	white	2.6275368085953046	neutral	141	sub-17	1.0	5.0	141_neutral	1.0	attractiveness	155.57076081962714	
23.0	133.70213008727842	pulse	1.0	t		23.0	male	white	2.6275368085953046	neutral	141	sub-17	1.0	5.0	141_neutral	1.0	attractiveness	156.2707679434625	
23.0	134.001991655452	rating	2.0		295	23.0	male	white	2.6275368085953046	neutral	141	sub-17	1.0	5.0	141_neutral	1.0	attractiveness	156.57062951163607	2.499973134687025
23.0	134.4021009882208	pulse	2.0	t		23.0	male	white	2.6275368085953046	neutral	141	sub-17	1.0	5.0	141_neutral	1.0	attractiveness	156.97073884440488	
23.0	135.1020978489032	pulse	2.0	t		23.0	male	white	2.6275368085953046	neutral	141	sub-17	1.0	5.0	141_neutral	1.0	attractiveness	157.67073570508728	
23.0	135.31874758136655	response	2.0	w		23.0	male	white	2.6275368085953046	neutral	141	sub-17	1.0	5.0	141_neutral	1.0	attractiveness	157.88738543755062	
23.0	135.80208595572003	pulse	2.0	t		23.0	male	white	2.6275368085953046	neutral	141	sub-17	1.0	5.0	141_neutral	1.0	attractiveness	158.3707238119041	
23.0	136.50196479013903	fix	3.0		444	23.0	male	white	2.6275368085953046	neutral	141	sub-17	1.0	5.0	141_neutral	1.0	attractiveness	159.0706026463231	3.7666180072465067
23.0	136.5097560327722	pulse	3.0	t		23.0	male	white	2.6275368085953046	neutral	141	sub-17	1.0	5.0	141_neutral	1.0	attractiveness	159.07839388895627	
23.0	137.20206850835893	pulse	3.0	t		23.0	male	white	2.6275368085953046	neutral	141	sub-17	1.0	5.0	141_neutral	1.0	attractiveness	159.770706364543	
23.0	137.90205842631985	pulse	3.0	t		23.0	male	white	2.6275368085953046	neutral	141	sub-17	1.0	5.0	141_neutral	1.0	attractiveness	160.47069628250392	
23.0	138.60206222972374	pulse	3.0	t		23.0	male	white	2.6275368085953046	neutral	141	sub-17	1.0	5.0	141_neutral	1.0	attractiveness	161.1707000859078	
23.0	139.30204279010468	pulse	3.0	t		23.0	male	white	2.6275368085953046	neutral	141	sub-17	1.0	5.0	141_neutral	1.0	attractiveness	161.87068064628875	
23.0	140.0020408582168	pulse	3.0	t		23.0	male	white	2.6275368085953046	neutral	141	sub-17	1.0	5.0	141_neutral	1.0	attractiveness	162.57067871440086	
24.0	140.26858279738553	face	0.0		145	24.0	male	white	3.1153999204138483	smiling	012	sub-17	1.0	5.0	012_smiling	0.0		162.8372206535696	1.2333192064043033
24.0	140.7020389263289	pulse	0.0	t		24.0	male	white	3.1153999204138483	smiling	012	sub-17	1.0	5.0	012_smiling	0.0		163.27067678251296	
24.0	141.40202069413863	pulse	0.0	t		24.0	male	white	3.1153999204138483	smiling	012	sub-17	1.0	5.0	012_smiling	0.0		163.9706585503227	
24.0	141.50190200378984	fix	1.0		444	24.0	male	white	3.1153999204138483	smiling	012	sub-17	1.0	5.0	012_smiling	0.0		164.0705398599739	3.7666258555391323
24.0	142.10202057339575	pulse	1.0	t		24.0	male	white	3.1153999204138483	smiling	012	sub-17	1.0	5.0	012_smiling	0.0		164.67065842957982	
24.0	142.8020047560658	pulse	1.0	t		24.0	male	white	3.1153999204138483	smiling	012	sub-17	1.0	5.0	012_smiling	0.0		165.37064261224987	
24.0	143.5020022204635	pulse	1.0	t		24.0	male	white	3.1153999204138483	smiling	012	sub-17	1.0	5.0	012_smiling	0.0		166.07064007664758	
24.0	144.2019854975606	pulse	1.0	t		24.0	male	white	3.1153999204138483	smiling	012	sub-17	1.0	5.0	012_smiling	0.0		166.77062335374467	
24.0	144.90198084895565	pulse	1.0	t		24.0	male	white	3.1153999204138483	smiling	012	sub-17	1.0	5.0	012_smiling	0.0		167.4706187051397	
25.0	145.26852785932897	face	0.0		145	20.0	female	white	3.9502586549940313	smiling	091	sub-17	1.0	5.0	091_smiling	0.0		167.83716571551304	1.2333189045475592
25.0	145.60195778704656	pulse	0.0	t		20.0	female	white	3.9502586549940313	smiling	091	sub-17	1.0	5.0	091_smiling	0.0		168.17059564323063	
25.0	146.30195766630368	pulse	0.0	t		20.0	female	white	3.9502586549940313	smiling	091	sub-17	1.0	5.0	091_smiling	0.0		168.87059552248775	
25.0	146.50184676387653	fix	1.0		444	20.0	female	white	3.9502586549940313	smiling	091	sub-17	1.0	5.0	091_smiling	0.0		169.0704846200606	3.766605932947641
25.0	147.00195784741845	pulse	1.0	t		20.0	female	white	3.9502586549940313	smiling	091	sub-17	1.0	5.0	091_smiling	0.0		169.57059570360252	
25.0	147.70194535051996	pulse	1.0	t		20.0	female	white	3.9502586549940313	smiling	091	sub-17	1.0	5.0	091_smiling	0.0		170.27058320670403	
25.0	148.40193375919353	pulse	1.0	t		20.0	female	white	3.9502586549940313	smiling	091	sub-17	1.0	5.0	091_smiling	0.0		170.9705716153776	
25.0	149.10194239231623	pulse	1.0	t		20.0	female	white	3.9502586549940313	smiling	091	sub-17	1.0	5.0	091_smiling	0.0		171.6705802485003	
25.0	149.80192868798804	pulse	1.0	t		20.0	female	white	3.9502586549940313	smiling	091	sub-17	1.0	5.0	091_smiling	0.0		172.3705665441721	
26.0	150.26845269682417	face	0.0		145	21.0	male	black	2.969757262236371	smiling	137	sub-17	1.0	5.0	137_smiling	1.0	trustworthiness	172.83709055300824	1.2333349029922829
26.0	150.50191679480486	pulse	0.0	t		21.0	male	black	2.969757262236371	smiling	137	sub-17	1.0	5.0	137_smiling	1.0	trustworthiness	173.07055465098892	
26.0	151.20190520347842	pulse	0.0	t		21.0	male	black	2.969757262236371	smiling	137	sub-17	1.0	5.0	137_smiling	1.0	trustworthiness	173.7705430596625	
26.0	151.50178759981645	fix	1.0		177	21.0	male	black	2.969757262236371	smiling	137	sub-17	1.0	5.0	137_smiling	1.0	trustworthiness	174.07042545600052	1.4999840015552763
26.0	151.90189572515465	pulse	1.0	t		21.0	male	black	2.969757262236371	smiling	137	sub-17	1.0	5.0	137_smiling	1.0	trustworthiness	174.4705335813387	
26.0	152.60188624683087	pulse	1.0	t		21.0	male	black	2.969757262236371	smiling	137	sub-17	1.0	5.0	137_smiling	1.0	trustworthiness	175.17052410301494	
26.0	153.00177160137173	rating	2.0		295	21.0	male	black	2.969757262236371	smiling	137	sub-17	1.0	5.0	137_smiling	1.0	trustworthiness	175.5704094575558	2.4999680031105527
26.0	153.30188461680063	pulse	2.0	t		21.0	male	black	2.969757262236371	smiling	137	sub-17	1.0	5.0	137_smiling	1.0	trustworthiness	175.8705224729847	
26.0	154.0018730254751	pulse	2.0	t		21.0	male	black	2.969757262236371	smiling	137	sub-17	1.0	5.0	137_smiling	1.0	trustworthiness	176.57051088165917	
26.0	154.70186445272338	pulse	2.0	t		21.0	male	black	2.969757262236371	smiling	137	sub-17	1.0	5.0	137_smiling	1.0	trustworthiness	177.27050230890745	
26.0	155.40183686295222	pulse	2.0	t		21.0	male	black	2.969757262236371	smiling	137	sub-17	1.0	5.0	137_smiling	1.0	trustworthiness	177.9704747191363	
26.0	155.50173960448228	fix	3.0		443	21.0	male	black	2.969757262236371	smiling	137	sub-17	1.0	5.0	137_smiling	1.0	trustworthiness	178.07037746066635	3.7666083478070504
26.0	155.776846748784	response	3.0	y		21.0	male	black	2.969757262236371	smiling	137	sub-17	1.0	5.0	137_smiling	1.0	trustworthiness	178.34548460496808	
26.0	156.10184972207935	pulse	3.0	t		21.0	male	black	2.969757262236371	smiling	137	sub-17	1.0	5.0	137_smiling	1.0	trustworthiness	178.67048757826342	
26.0	156.8018450734753	pulse	3.0	t		21.0	male	black	2.969757262236371	smiling	137	sub-17	1.0	5.0	137_smiling	1.0	trustworthiness	179.37048292965937	
26.0	157.5018283505724	pulse	3.0	t		21.0	male	black	2.969757262236371	smiling	137	sub-17	1.0	5.0	137_smiling	1.0	trustworthiness	180.07046620675646	
26.0	158.20182128710803	pulse	3.0	t		21.0	male	black	2.969757262236371	smiling	137	sub-17	1.0	5.0	137_smiling	1.0	trustworthiness	180.7704591432921	
26.0	158.90181180878426	pulse	3.0	t		21.0	male	black	2.969757262236371	smiling	137	sub-17	1.0	5.0	137_smiling	1.0	trustworthiness	181.47044966496833	
27.0	159.26834795228933	face	0.0		145	54.0	female	white	2.286908077994429	smiling	136	sub-17	1.0	5.0	136_smiling	1.0	dominance	181.8369858084734	1.2333442605731761
27.0	159.60182225305198	pulse	0.0	t		54.0	female	white	2.286908077994429	smiling	136	sub-17	1.0	5.0	136_smiling	1.0	dominance	182.17046010923605	
27.0	160.30180432271936	pulse	0.0	t		54.0	female	white	2.286908077994429	smiling	136	sub-17	1.0	5.0	136_smiling	1.0	dominance	182.87044217890343	
27.0	160.5016922128625	fix	1.0		177	54.0	female	white	2.286908077994429	smiling	136	sub-17	1.0	5.0	136_smiling	1.0	dominance	183.07033006904658	1.4999737384014225
27.0	161.00180571126384	pulse	1.0	t		54.0	female	white	2.286908077994429	smiling	136	sub-17	1.0	5.0	136_smiling	1.0	dominance	183.5704435674479	
27.0	161.7017847623565	pulse	1.0	t		54.0	female	white	2.286908077994429	smiling	136	sub-17	1.0	5.0	136_smiling	1.0	dominance	184.27042261854058	
27.0	162.00166595126393	rating	2.0		295	54.0	female	white	2.286908077994429	smiling	136	sub-17	1.0	5.0	136_smiling	1.0	dominance	184.570303807448	2.499970116113218
27.0	162.40177830260654	pulse	2.0	t		54.0	female	white	2.286908077994429	smiling	136	sub-17	1.0	5.0	136_smiling	1.0	dominance	184.9704161587906	
27.0	163.10177697443396	pulse	2.0	t		54.0	female	white	2.286908077994429	smiling	136	sub-17	1.0	5.0	136_smiling	1.0	dominance	185.67041483061803	
27.0	163.16327952422398	response	2.0	w		54.0	female	white	2.286908077994429	smiling	136	sub-17	1.0	5.0	136_smiling	1.0	dominance	185.73191738040805	
27.0	163.8017569310996	pulse	2.0	t		54.0	female	white	2.286908077994429	smiling	136	sub-17	1.0	5.0	136_smiling	1.0	dominance	186.37039478728366	
27.0	164.50163606737715	fix	3.0		444	54.0	female	white	2.286908077994429	smiling	136	sub-17	1.0	5.0	136_smiling	1.0	dominance	187.07027392356122	3.766609555236755
27.0	164.50950277437187	pulse	3.0	t		54.0	female	white	2.286908077994429	smiling	136	sub-17	1.0	5.0	136_smiling	1.0	dominance	187.07814063055594	
27.0	165.20173978559615	pulse	3.0	t		54.0	female	white	2.286908077994429	smiling	136	sub-17	1.0	5.0	136_smiling	1.0	dominance	187.77037764178021	
27.0	165.90173423141914	pulse	3.0	t		54.0	female	white	2.286908077994429	smiling	136	sub-17	1.0	5.0	136_smiling	1.0	dominance	188.4703720876032	
27.0	166.60172354566566	pulse	3.0	t		54.0	female	white	2.286908077994429	smiling	136	sub-17	1.0	5.0	136_smiling	1.0	dominance	189.17036140184973	
27.0	167.30171678405895	pulse	3.0	t		54.0	female	white	2.286908077994429	smiling	136	sub-17	1.0	5.0	136_smiling	1.0	dominance	189.87035464024302	
27.0	168.00172360603756	pulse	3.0	t		54.0	female	white	2.286908077994429	smiling	136	sub-17	1.0	5.0	136_smiling	1.0	dominance	190.57036146222163	
28.0	168.2682456226139	face	0.0		145	25.0	female	west_asian	2.6756864305610826	neutral	064	sub-17	1.0	5.0	064_neutral	0.0		190.83688347879797	1.2333306769878618
28.0	168.70170054412756	pulse	0.0	t		25.0	female	west_asian	2.6756864305610826	neutral	064	sub-17	1.0	5.0	064_neutral	0.0		191.27033840031163	
28.0	169.40168804722998	pulse	0.0	t		25.0	female	west_asian	2.6756864305610826	neutral	064	sub-17	1.0	5.0	064_neutral	0.0		191.97032590341405	
28.0	169.50157629960177	fix	1.0		444	25.0	female	west_asian	2.6756864305610826	neutral	064	sub-17	1.0	5.0	064_neutral	0.0		192.07021415578583	3.75827134690644
28.0	170.1016921524906	pulse	1.0	t		25.0	female	west_asian	2.6756864305610826	neutral	064	sub-17	1.0	5.0	064_neutral	0.0		192.67033000867468	
28.0	170.80167573144536	pulse	1.0	t		25.0	female	west_asian	2.6756864305610826	neutral	064	sub-17	1.0	5.0	064_neutral	0.0		193.37031358762943	
28.0	171.50166534754953	pulse	1.0	t		25.0	female	west_asian	2.6756864305610826	neutral	064	sub-17	1.0	5.0	064_neutral	0.0		194.0703032037336	
28.0	172.20165888779957	pulse	1.0	t		25.0	female	west_asian	2.6756864305610826	neutral	064	sub-17	1.0	5.0	064_neutral	0.0		194.77029674398364	
28.0	172.9016488057614	pulse	1.0	t		25.0	female	west_asian	2.6756864305610826	neutral	064	sub-17	1.0	5.0	064_neutral	0.0		195.47028666194547	
29.0	173.2598476465082	face	0.0		146	25.0	female	black	3.858336649423	smiling	126	sub-17	1.0	5.0	126_smiling	0.0		195.82848550269227	1.2416706964631885
29.0	173.6016456664438	pulse	0.0	t		25.0	female	black	3.858336649423	smiling	126	sub-17	1.0	5.0	126_smiling	0.0		196.17028352262787	
29.0	174.30163105654265	pulse	0.0	t		25.0	female	black	3.858336649423	smiling	126	sub-17	1.0	5.0	126_smiling	0.0		196.87026891272671	
29.0	174.5015183429714	fix	1.0		444	25.0	female	black	3.858336649423	smiling	126	sub-17	1.0	5.0	126_smiling	0.0		197.07015619915546	3.766609555236755
29.0	175.00160920206326	pulse	1.0	t		25.0	female	black	3.858336649423	smiling	126	sub-17	1.0	5.0	126_smiling	0.0		197.57024705824733	
29.0	175.701621457476	pulse	1.0	t		25.0	female	black	3.858336649423	smiling	126	sub-17	1.0	5.0	126_smiling	0.0		198.27025931366006	
29.0	176.40161077172252	pulse	1.0	t		25.0	female	black	3.858336649423	smiling	126	sub-17	1.0	5.0	126_smiling	0.0		198.97024862790659	
29.0	177.1016046138302	pulse	1.0	t		25.0	female	black	3.858336649423	smiling	126	sub-17	1.0	5.0	126_smiling	0.0		199.67024247001427	
29.0	177.80159060764527	pulse	1.0	t		25.0	female	black	3.858336649423	smiling	126	sub-17	1.0	5.0	126_smiling	0.0		200.37022846382933	
30.0	178.26812789820815	face	0.0		145	24.0	female	east_asian	4.409868682849185	smiling	030	sub-17	1.0	5.0	030_smiling	0.0		200.83676575439222	1.2333324881328736
30.0	178.50159018504473	pulse	0.0	t		24.0	female	east_asian	4.409868682849185	smiling	030	sub-17	1.0	5.0	030_smiling	0.0		201.0702280412288	
30.0	179.2015773862886	pulse	0.0	t		24.0	female	east_asian	4.409868682849185	smiling	030	sub-17	1.0	5.0	030_smiling	0.0		201.77021524247266	
30.0	179.50146038634102	fix	1.0		444	24.0	female	east_asian	4.409868682849185	smiling	030	sub-17	1.0	5.0	030_smiling	0.0		202.0700982425251	3.766607744092653
30.0	179.9015519095201	pulse	1.0	t		24.0	female	east_asian	4.409868682849185	smiling	030	sub-17	1.0	5.0	030_smiling	0.0		202.47018976570416	
30.0	180.60156325935986	pulse	1.0	t		24.0	female	east_asian	4.409868682849185	smiling	030	sub-17	1.0	5.0	030_smiling	0.0		203.17020111554393	
30.0	181.30155287546404	pulse	1.0	t		24.0	female	east_asian	4.409868682849185	smiling	030	sub-17	1.0	5.0	030_smiling	0.0		203.8701907316481	
30.0	182.00154581199968	pulse	1.0	t		24.0	female	east_asian	4.409868682849185	smiling	030	sub-17	1.0	5.0	030_smiling	0.0		204.57018366818374	
30.0	182.70153814482	pulse	1.0	t		24.0	female	east_asian	4.409868682849185	smiling	030	sub-17	1.0	5.0	030_smiling	0.0		205.27017600100407	
31.0	183.26806813043368	face	0.0		145	23.0	male	white	2.6275368085953046	smiling	141	sub-17	1.0	5.0	141_smiling	0.0		205.83670598661774	1.2333312807022594
31.0	183.40153711850508	pulse	0.0	t		23.0	male	white	2.6275368085953046	smiling	141	sub-17	1.0	5.0	141_smiling	0.0		205.97017497468914	
31.0	184.1015264327507	pulse	0.0	t		23.0	male	white	2.6275368085953046	smiling	141	sub-17	1.0	5.0	141_smiling	0.0		206.67016428893476	
31.0	184.50139941113594	fix	1.0		444	23.0	male	white	2.6275368085953046	smiling	141	sub-17	1.0	5.0	141_smiling	0.0		207.07003726732	3.7666047255179365
31.0	184.80151755814222	pulse	1.0	t		23.0	male	white	2.6275368085953046	smiling	141	sub-17	1.0	5.0	141_smiling	0.0		207.3701554143263	
31.0	185.50150143895462	pulse	1.0	t		23.0	male	white	2.6275368085953046	smiling	141	sub-17	1.0	5.0	141_smiling	0.0		208.0701392951387	
31.0	186.20150312935584	pulse	1.0	t		23.0	male	white	2.6275368085953046	smiling	141	sub-17	1.0	5.0	141_smiling	0.0		208.7701409855399	
31.0	186.9014879157403	pulse	1.0	t		23.0	male	white	2.6275368085953046	smiling	141	sub-17	1.0	5.0	141_smiling	0.0		209.47012577192436	
31.0	187.60147843741652	pulse	1.0	t		23.0	male	white	2.6275368085953046	smiling	141	sub-17	1.0	5.0	141_smiling	0.0		210.17011629360059	
32.0	188.26800413665387	face	0.0		145	40.0	male	white	1.868682849184242	smiling	172	sub-17	1.0	5.0	172_smiling	0.0		210.83664199283794	1.2333382234246528
32.0	188.30147499624127	pulse	0.0	t		40.0	male	white	1.868682849184242	smiling	172	sub-17	1.0	5.0	172_smiling	0.0		210.87011285242534	
32.0	189.00146219748603	pulse	0.0	t		40.0	male	white	1.868682849184242	smiling	172	sub-17	1.0	5.0	172_smiling	0.0		211.5701000536701	
32.0	189.50134236007852	fix	1.0		443	40.0	male	white	1.868682849184242	smiling	172	sub-17	1.0	5.0	172_smiling	0.0		212.0699802162626	3.758291269497022
32.0	189.70145603959372	pulse	1.0	t		40.0	male	white	1.868682849184242	smiling	172	sub-17	1.0	5.0	172_smiling	0.0		212.2700938957778	
32.0	190.40144716498435	pulse	1.0	t		40.0	male	white	1.868682849184242	smiling	172	sub-17	1.0	5.0	172_smiling	0.0		212.97008502116842	
32.0	191.1014425163803	pulse	1.0	t		40.0	male	white	1.868682849184242	smiling	172	sub-17	1.0	5.0	172_smiling	0.0		213.67008037256437	
32.0	191.80143092505386	pulse	1.0	t		40.0	male	white	1.868682849184242	smiling	172	sub-17	1.0	5.0	172_smiling	0.0		214.37006878123793	
32.0	192.5014157114383	pulse	1.0	t		40.0	male	white	1.868682849184242	smiling	172	sub-17	1.0	5.0	172_smiling	0.0		215.07005356762238	
32.0	193.2014294761384	pulse	1.0	t		40.0	male	white	1.868682849184242	smiling	172	sub-17	1.0	5.0	172_smiling	0.0		215.77006733232247	
33.0	193.25963362957555	face	0.0		147	31.0	female	east_asian	3.395941106247513	neutral	087	sub-17	1.0	5.0	087_neutral	0.0		215.82827148575961	1.2416504720149533
33.0	193.90139856593578	pulse	0.0	t		31.0	female	east_asian	3.395941106247513	neutral	087	sub-17	1.0	5.0	087_neutral	0.0		216.47003642211985	
33.0	194.5012841015905	fix	1.0		443	31.0	female	east_asian	3.395941106247513	neutral	087	sub-17	1.0	5.0	087_neutral	0.0		217.06992195777457	3.766606536662948
33.0	194.601402067482	pulse	1.0	t		31.0	female	east_asian	3.395941106247513	neutral	087	sub-17	1.0	5.0	087_neutral	0.0		217.17003992366608	
33.0	195.3013877594385	pulse	1.0	t		31.0	female	east_asian	3.395941106247513	neutral	087	sub-17	1.0	5.0	087_neutral	0.0		217.87002561562258	
33.0	196.0013903554127	pulse	1.0	t		31.0	female	east_asian	3.395941106247513	neutral	087	sub-17	1.0	5.0	087_neutral	0.0		218.57002821159676	
33.0	196.7013754436548	pulse	1.0	t		31.0	female	east_asian	3.395941106247513	neutral	087	sub-17	1.0	5.0	087_neutral	0.0		219.27001329983887	
33.0	197.40135600403482	pulse	1.0	t		31.0	female	east_asian	3.395941106247513	neutral	087	sub-17	1.0	5.0	087_neutral	0.0		219.9699938602189	
33.0	198.10136131672607	pulse	1.0	t		31.0	female	east_asian	3.395941106247513	neutral	087	sub-17	1.0	5.0	087_neutral	0.0		220.66999917291014	
34.0	198.26789063825345	face	0.0		146	32.0	male	white	2.389176283326701	neutral	092	sub-17	1.0	5.0	092_neutral	0.0		220.83652849443752	1.2333373178516922
34.0	198.80135002725729	pulse	0.0	t		32.0	male	white	2.389176283326701	neutral	092	sub-17	1.0	5.0	092_neutral	0.0		221.36998788344135	
34.0	199.50122795610514	fix	1.0		444	32.0	male	white	2.389176283326701	neutral	092	sub-17	1.0	5.0	092_neutral	0.0		222.0698658122892	3.766586312212894
34.0	199.50877227934325	pulse	1.0	t		32.0	male	white	2.389176283326701	neutral	092	sub-17	1.0	5.0	092_neutral	0.0		222.07741013552732	
34.0	200.20133710775826	pulse	1.0	t		32.0	male	white	2.389176283326701	neutral	092	sub-17	1.0	5.0	092_neutral	0.0		222.76997496394233	
34.0	200.90132672386244	pulse	1.0	t		32.0	male	white	2.389176283326701	neutral	092	sub-17	1.0	5.0	092_neutral	0.0		223.4699645800465	
34.0	201.60131905668277	pulse	1.0	t		32.0	male	white	2.389176283326701	neutral	092	sub-17	1.0	5.0	092_neutral	0.0		224.16995691286684	
34.0	202.30130655978428	pulse	1.0	t		32.0	male	white	2.389176283326701	neutral	092	sub-17	1.0	5.0	092_neutral	0.0		224.86994441596835	
34.0	203.0012964777461	pulse	1.0	t		32.0	male	white	2.389176283326701	neutral	092	sub-17	1.0	5.0	092_neutral	0.0		225.56993433393018	
35.0	203.26781426831803	face	0.0		145	26.0	female	white	4.854755272582572	smiling	027	sub-17	1.0	5.0	027_smiling	0.0		225.8364521245021	1.2333542218693765
35.0	203.70129514957353	pulse	0.0	t		26.0	female	white	4.854755272582572	smiling	027	sub-17	1.0	5.0	027_smiling	0.0		226.2699330057576	
35.0	204.40128174710208	pulse	0.0	t		26.0	female	white	4.854755272582572	smiling	027	sub-17	1.0	5.0	027_smiling	0.0		226.96991960328614	
35.0	204.5011684901874	fix	1.0		444	26.0	female	white	4.854755272582572	smiling	027	sub-17	1.0	5.0	027_smiling	0.0		227.06980634637148	3.766596575366748
35.0	205.10127649478272	pulse	1.0	t		26.0	female	white	4.854755272582572	smiling	027	sub-17	1.0	5.0	027_smiling	0.0		227.6699143509668	
35.0	205.80126943131836	pulse	1.0	t		26.0	female	white	4.854755272582572	smiling	027	sub-17	1.0	5.0	027_smiling	0.0		228.36990728750243	
35.0	206.50125512327486	pulse	1.0	t		26.0	female	white	4.854755272582572	smiling	027	sub-17	1.0	5.0	027_smiling	0.0		229.06989297945893	
35.0	207.20125047467081	pulse	1.0	t		26.0	female	white	4.854755272582572	smiling	027	sub-17	1.0	5.0	027_smiling	0.0		229.76988833085488	
35.0	207.90123677034262	pulse	1.0	t		26.0	female	white	4.854755272582572	smiling	027	sub-17	1.0	5.0	027_smiling	0.0		230.4698746265267	
36.0	208.26776506555416	face	0.0		145	24.0	female	east_asian	4.409868682849185	neutral	030	sub-17	1.0	5.0	030_neutral	1.0	dominance	230.83640292173823	1.2333421475705109
36.0	208.60123966817355	pulse	0.0	t		24.0	female	east_asian	4.409868682849185	neutral	030	sub-17	1.0	5.0	030_neutral	1.0	dominance	231.16987752435762	
36.0	209.30122717127506	pulse	0.0	t		24.0	female	east_asian	4.409868682849185	neutral	030	sub-17	1.0	5.0	030_neutral	1.0	dominance	231.86986502745913	
36.0	209.50110721312467	fix	1.0		177	24.0	female	east_asian	4.409868682849185	neutral	030	sub-17	1.0	5.0	030_neutral	1.0	dominance	232.06974506930874	1.499981586695867
36.0	210.00121920223864	pulse	1.0	t		24.0	female	east_asian	4.409868682849185	neutral	030	sub-17	1.0	5.0	030_neutral	1.0	dominance	232.5698570584227	
36.0	210.70121123320223	pulse	1.0	t		24.0	female	east_asian	4.409868682849185	neutral	030	sub-17	1.0	5.0	030_neutral	1.0	dominance	233.2698490893863	
36.0	211.00108879982054	rating	2.0		295	24.0	female	east_asian	4.409868682849185	neutral	030	sub-17	1.0	5.0	030_neutral	1.0	dominance	233.5697266560046	2.4999797755508553
36.0	211.40121654589348	pulse	2.0	t		24.0	female	east_asian	4.409868682849185	neutral	030	sub-17	1.0	5.0	030_neutral	1.0	dominance	233.96985440207754	
36.0	212.10120042670587	pulse	2.0	t		24.0	female	east_asian	4.409868682849185	neutral	030	sub-17	1.0	5.0	030_neutral	1.0	dominance	234.66983828288994	
36.0	212.80118611866237	pulse	2.0	t		24.0	female	east_asian	4.409868682849185	neutral	030	sub-17	1.0	5.0	030_neutral	1.0	dominance	235.36982397484644	
36.0	213.07621447816928	response	2.0	n		24.0	female	east_asian	4.409868682849185	neutral	030	sub-17	1.0	5.0	030_neutral	1.0	dominance	235.64485233435335	
36.0	213.5010685753714	fix	3.0		443	24.0	female	east_asian	4.409868682849185	neutral	030	sub-17	1.0	5.0	030_neutral	1.0	dominance	236.06970643155546	3.766616196101495
36.0	213.50906719407158	pulse	3.0	t		24.0	female	east_asian	4.409868682849185	neutral	030	sub-17	1.0	5.0	030_neutral	1.0	dominance	236.07770505025564	
36.0	214.20115750257628	pulse	3.0	t		24.0	female	east_asian	4.409868682849185	neutral	030	sub-17	1.0	5.0	030_neutral	1.0	dominance	236.76979535876035	
36.0	214.90114440196248	pulse	3.0	t		24.0	female	east_asian	4.409868682849185	neutral	030	sub-17	1.0	5.0	030_neutral	1.0	dominance	237.46978225814655	
36.0	215.6011548462302	pulse	3.0	t		24.0	female	east_asian	4.409868682849185	neutral	030	sub-17	1.0	5.0	030_neutral	1.0	dominance	238.16979270241427	
36.0	216.301141141902	pulse	3.0	t		24.0	female	east_asian	4.409868682849185	neutral	030	sub-17	1.0	5.0	030_neutral	1.0	dominance	238.86977899808608	
36.0	217.00114283230414	pulse	3.0	t		24.0	female	east_asian	4.409868682849185	neutral	030	sub-17	1.0	5.0	030_neutral	1.0	dominance	239.5697806884882	
37.0	217.2676847714729	face	0.0		145	19.0	female	white	4.298846000795861	neutral	100	sub-17	1.0	5.0	100_neutral	0.0		239.83632262765695	1.233321017549315
37.0	217.70115840814833	pulse	0.0	t		19.0	female	white	4.298846000795861	neutral	100	sub-17	1.0	5.0	100_neutral	0.0		240.2697962643324	
37.0	218.40112900723307	pulse	0.0	t		19.0	female	white	4.298846000795861	neutral	100	sub-17	1.0	5.0	100_neutral	0.0		240.96976686341714	
37.0	218.5010057890222	fix	1.0		444	19.0	female	white	4.298846000795861	neutral	100	sub-17	1.0	5.0	100_neutral	0.0		241.06964364520627	3.7666074422349993
37.0	219.10112224562636	pulse	1.0	t		19.0	female	white	4.298846000795861	neutral	100	sub-17	1.0	5.0	100_neutral	0.0		241.66976010181043	
37.0	219.80109133542283	pulse	1.0	t		19.0	female	white	4.298846000795861	neutral	100	sub-17	1.0	5.0	100_neutral	0.0		242.3697291916069	
37.0	220.50110600569496	pulse	1.0	t		19.0	female	white	4.298846000795861	neutral	100	sub-17	1.0	5.0	100_neutral	0.0		243.06974386187903	
37.0	221.20109109393707	pulse	1.0	t		19.0	female	white	4.298846000795861	neutral	100	sub-17	1.0	5.0	100_neutral	0.0		243.76972895012113	
37.0	221.90107618217917	pulse	1.0	t		19.0	female	white	4.298846000795861	neutral	100	sub-17	1.0	5.0	100_neutral	0.0		244.46971403836324	
38.0	222.2676132312572	face	0.0		145	28.0	male	white	3.9076800636689217	smiling	033	sub-17	1.0	5.0	033_smiling	0.0		244.83625108744127	1.2333336955616687
38.0	222.60107545772098	pulse	0.0	t		28.0	male	white	3.9076800636689217	smiling	033	sub-17	1.0	5.0	033_smiling	0.0		245.16971331390505	
38.0	223.30106145153604	pulse	0.0	t		28.0	male	white	3.9076800636689217	smiling	033	sub-17	1.0	5.0	033_smiling	0.0		245.8696993077201	
38.0	223.50094692681887	fix	1.0		444	28.0	male	white	3.9076800636689217	smiling	033	sub-17	1.0	5.0	033_smiling	0.0		246.06958478300294	3.7666026125161807
38.0	224.00105529364373	pulse	1.0	t		28.0	male	white	3.9076800636689217	smiling	033	sub-17	1.0	5.0	033_smiling	0.0		246.5696931498278	
38.0	224.70105517290085	pulse	1.0	t		28.0	male	white	3.9076800636689217	smiling	033	sub-17	1.0	5.0	033_smiling	0.0		247.26969302908492	
38.0	225.40104146857266	pulse	1.0	t		28.0	male	white	3.9076800636689217	smiling	033	sub-17	1.0	5.0	033_smiling	0.0		247.96967932475673	
38.0	226.1010350088227	pulse	1.0	t		28.0	male	white	3.9076800636689217	smiling	033	sub-17	1.0	5.0	033_smiling	0.0		248.66967286500676	
38.0	226.80102221006746	pulse	1.0	t		28.0	male	white	3.9076800636689217	smiling	033	sub-17	1.0	5.0	033_smiling	0.0		249.36966006625153	
39.0	227.26754953933505	face	0.0		145	19.0	male	white	3.2522881018702745	smiling	018	sub-17	1.0	5.0	018_smiling	0.0		249.83618739551912	1.2333445624308297
39.0	227.50101846703456	pulse	0.0	t		19.0	male	white	3.2522881018702745	smiling	018	sub-17	1.0	5.0	018_smiling	0.0		250.06965632321862	
39.0	228.20101502586022	pulse	0.0	t		19.0	male	white	3.2522881018702745	smiling	018	sub-17	1.0	5.0	018_smiling	0.0		250.76965288204428	
39.0	228.50089410176588	fix	1.0		444	19.0	male	white	3.2522881018702745	smiling	018	sub-17	1.0	5.0	018_smiling	0.0		251.06953195794995	3.749950344449644
39.0	228.90099981224466	pulse	1.0	t		19.0	male	white	3.2522881018702745	smiling	018	sub-17	1.0	5.0	018_smiling	0.0		251.46963766842873	
39.0	229.60098097634	pulse	1.0	t		19.0	male	white	3.2522881018702745	smiling	018	sub-17	1.0	5.0	018_smiling	0.0		252.16961883252407	
39.0	230.3009859871736	pulse	1.0	t		19.0	male	white	3.2522881018702745	smiling	018	sub-17	1.0	5.0	018_smiling	0.0		252.86962384335766	
39.0	231.00097258470214	pulse	1.0	t		19.0	male	white	3.2522881018702745	smiling	018	sub-17	1.0	5.0	018_smiling	0.0		253.5696104408862	
39.0	231.70095948408925	pulse	1.0	t		19.0	male	white	3.2522881018702745	smiling	018	sub-17	1.0	5.0	018_smiling	0.0		254.26959734027332	
40.0	232.25084444621552	fix	0.0		720													254.8194823023996	5.999930270928417
40.0	232.40096177820578	pulse	0.0	t														254.96959963438985	
40.0	233.10095712960083	pulse	0.0	t														255.6695949857849	
40.0	233.80094251970058	pulse	0.0	t														256.36958037588465	
40.0	234.50093907852533	pulse	0.0	t														257.0695769347094	
40.0	235.20092416676744	pulse	0.0	t														257.7695620229515	
40.0	235.9009237441669	pulse	0.0	t														258.46956160035097	
40.0	236.6009094361243	pulse	0.0	t														259.1695472923084	
40.0	237.30089754294022	pulse	0.0	t														259.8695353991243	
40.0	238.00089198876321	pulse	0.0	t														260.5695298449473	
