trial_nr	onset	event_type	phase	response	nr_frames	face_age	face_sex	face_eth	attractiveness	expression	face_id	sub_id	ses	run	trial_type	catch	rating_type	onset_abs	duration
-1.0	0.0605574439814518	fix	0.0		713													25.69833506949135	5.95786162515833
-1.0	0.7020246185256838	pulse	0.0	t														26.33980224403558	
-1.0	1.402009616432224	pulse	0.0	t														27.039787241942122	
-1.0	2.1020042736345204	pulse	0.0	t														27.73978189914442	
-1.0	2.801968141832276	pulse	0.0	t														28.439745767342174	
-1.0	3.50195012120912	pulse	0.0	t														29.139727746719018	
-1.0	4.201930289467782	pulse	0.0	t														29.83970791497768	
-1.0	4.901919513316443	pulse	0.0	t														30.53969713882634	
-1.0	5.601901492693287	pulse	0.0	t														31.239679118203185	
0.0	6.018419069139782	face	0.0		144	21.0	male	east_asian/white	3.501790688420215	neutral	036	sub-12	1.0	2.0	036_neutral	0.0		31.65619669464968	1.233315151721854
0.0	6.301876227598314	pulse	0.0	t		21.0	male	east_asian/white	3.501790688420215	neutral	036	sub-12	1.0	2.0	036_neutral	0.0		31.93965385310821	
0.0	7.00184824582675	pulse	0.0	t		21.0	male	east_asian/white	3.501790688420215	neutral	036	sub-12	1.0	2.0	036_neutral	0.0		32.63962587133665	
0.0	7.2517342208616355	fix	1.0		444	21.0	male	east_asian/white	3.501790688420215	neutral	036	sub-12	1.0	2.0	036_neutral	0.0		32.88951184637153	3.758214551668516
0.0	7.701841091910865	pulse	1.0	t		21.0	male	east_asian/white	3.501790688420215	neutral	036	sub-12	1.0	2.0	036_neutral	0.0		33.33961871742076	
0.0	8.40181552496324	pulse	1.0	t		21.0	male	east_asian/white	3.501790688420215	neutral	036	sub-12	1.0	2.0	036_neutral	0.0		34.03959315047314	
0.0	9.10179931545781	pulse	1.0	t		21.0	male	east_asian/white	3.501790688420215	neutral	036	sub-12	1.0	2.0	036_neutral	0.0		34.73957694096771	
0.0	9.802442352871367	pulse	1.0	t		21.0	male	east_asian/white	3.501790688420215	neutral	036	sub-12	1.0	2.0	036_neutral	0.0		35.440219978381265	
0.0	10.501764179770362	pulse	1.0	t		21.0	male	east_asian/white	3.501790688420215	neutral	036	sub-12	1.0	2.0	036_neutral	0.0		36.13954180528026	
1.0	11.009948772530151	face	0.0		146	26.0	male	white	2.7966573816155993	neutral	117	sub-12	1.0	2.0	117_neutral	0.0		36.64772639804005	1.241656255253929
1.0	11.201751290647735	pulse	0.0	t		26.0	male	white	2.7966573816155993	neutral	117	sub-12	1.0	2.0	117_neutral	0.0		36.83952891615763	
1.0	11.901751683056773	pulse	0.0	t		26.0	male	white	2.7966573816155993	neutral	117	sub-12	1.0	2.0	117_neutral	0.0		37.53952930856667	
1.0	12.25160502778408	fix	1.0		444	26.0	male	white	2.7966573816155993	neutral	117	sub-12	1.0	2.0	117_neutral	0.0		37.88938265329398	3.7582178720513184
1.0	12.60170921234203	pulse	1.0	t		26.0	male	white	2.7966573816155993	neutral	117	sub-12	1.0	2.0	117_neutral	0.0		38.23948683785193	
1.0	13.301685154659026	pulse	1.0	t		26.0	male	white	2.7966573816155993	neutral	117	sub-12	1.0	2.0	117_neutral	0.0		38.939462780168924	
1.0	14.001667435888521	pulse	1.0	t		26.0	male	white	2.7966573816155993	neutral	117	sub-12	1.0	2.0	117_neutral	0.0		39.63944506139842	
1.0	14.701652433795516	pulse	1.0	t		26.0	male	white	2.7966573816155993	neutral	117	sub-12	1.0	2.0	117_neutral	0.0		40.339430059305414	
1.0	15.401641657643722	pulse	1.0	t		26.0	male	white	2.7966573816155993	neutral	117	sub-12	1.0	2.0	117_neutral	0.0		41.03941928315362	
2.0	16.0098228998354	face	0.0		146	31.0	female	west_asian	2.364902506963788	neutral	006	sub-12	1.0	2.0	006_neutral	0.0		41.6476005253453	1.2416713479033206
2.0	16.101617901813825	pulse	0.0	t		31.0	female	west_asian	2.364902506963788	neutral	006	sub-12	1.0	2.0	006_neutral	0.0		41.73939552732372	
2.0	16.801591731159988	pulse	0.0	t		31.0	female	west_asian	2.364902506963788	neutral	006	sub-12	1.0	2.0	006_neutral	0.0		42.439369356669886	
2.0	17.25149424773872	fix	1.0		444	31.0	female	west_asian	2.364902506963788	neutral	006	sub-12	1.0	2.0	006_neutral	0.0		42.88927187324862	3.7581931201061707
2.0	17.50157974759668	pulse	1.0	t		31.0	female	west_asian	2.364902506963788	neutral	006	sub-12	1.0	2.0	006_neutral	0.0		43.13935737310658	
2.0	18.201553576942842	pulse	1.0	t		31.0	female	west_asian	2.364902506963788	neutral	006	sub-12	1.0	2.0	006_neutral	0.0		43.83933120245274	
2.0	18.901541895232185	pulse	1.0	t		31.0	female	west_asian	2.364902506963788	neutral	006	sub-12	1.0	2.0	006_neutral	0.0		44.53931952074208	
2.0	19.601521157931984	pulse	1.0	t		31.0	female	west_asian	2.364902506963788	neutral	006	sub-12	1.0	2.0	006_neutral	0.0		45.23929878344188	
2.0	20.30150253360307	pulse	1.0	t		31.0	female	west_asian	2.364902506963788	neutral	006	sub-12	1.0	2.0	006_neutral	0.0		45.93928015911297	
3.0	21.00968736784489	face	0.0		147	23.0	male	white	2.6275368085953046	neutral	141	sub-12	1.0	2.0	141_neutral	0.0		46.64746499335479	1.2416755738454412
3.0	21.002498739009297	pulse	0.0	t		23.0	male	white	2.6275368085953046	neutral	141	sub-12	1.0	2.0	141_neutral	0.0		46.640276364519195	
3.0	21.701491546154557	pulse	0.0	t		23.0	male	white	2.6275368085953046	neutral	141	sub-12	1.0	2.0	141_neutral	0.0		47.339269171664455	
3.0	22.25136294169033	fix	1.0		443	23.0	male	white	2.6275368085953046	neutral	141	sub-12	1.0	2.0	141_neutral	0.0		47.88914056720023	3.7582109294321526
3.0	22.4014484717336	pulse	1.0	t		23.0	male	white	2.6275368085953046	neutral	141	sub-12	1.0	2.0	141_neutral	0.0		48.0392260972435	
3.0	23.101424715903704	pulse	1.0	t		23.0	male	white	2.6275368085953046	neutral	141	sub-12	1.0	2.0	141_neutral	0.0		48.7392023414136	
3.0	23.801384660012445	pulse	1.0	t		23.0	male	white	2.6275368085953046	neutral	141	sub-12	1.0	2.0	141_neutral	0.0		49.43916228552234	
3.0	24.501395919128754	pulse	1.0	t		23.0	male	white	2.6275368085953046	neutral	141	sub-12	1.0	2.0	141_neutral	0.0		50.13917354463865	
3.0	25.20144792839801	pulse	1.0	t		23.0	male	white	2.6275368085953046	neutral	141	sub-12	1.0	2.0	141_neutral	0.0		50.83922555390791	
3.0	25.90138493168024	pulse	1.0	t		23.0	male	white	2.6275368085953046	neutral	141	sub-12	1.0	2.0	141_neutral	0.0		51.53916255719014	
4.0	26.009573871122484	face	0.0		147	21.0	male	black	2.969757262236371	smiling	137	sub-12	1.0	2.0	137_smiling	0.0		51.64735149663238	1.2416459922528702
4.0	26.601336122052544	pulse	0.0	t		21.0	male	black	2.969757262236371	smiling	137	sub-12	1.0	2.0	137_smiling	0.0		52.23911374756244	
4.0	27.251219863375354	fix	1.0		443	21.0	male	black	2.969757262236371	smiling	137	sub-12	1.0	2.0	137_smiling	0.0		52.88899748888525	3.7582157590800307
4.0	27.301355229346427	pulse	1.0	t		21.0	male	black	2.969757262236371	smiling	137	sub-12	1.0	2.0	137_smiling	0.0		52.939132854856325	
4.0	28.001299175246913	pulse	1.0	t		21.0	male	black	2.969757262236371	smiling	137	sub-12	1.0	2.0	137_smiling	0.0		53.63907680075681	
4.0	28.70127813609406	pulse	1.0	t		21.0	male	black	2.969757262236371	smiling	137	sub-12	1.0	2.0	137_smiling	0.0		54.33905576160396	
4.0	29.401262832147495	pulse	1.0	t		21.0	male	black	2.969757262236371	smiling	137	sub-12	1.0	2.0	137_smiling	0.0		55.03904045765739	
4.0	30.101241189288885	pulse	1.0	t		21.0	male	black	2.969757262236371	smiling	137	sub-12	1.0	2.0	137_smiling	0.0		55.73901881479878	
4.0	30.801223772371486	pulse	1.0	t		21.0	male	black	2.969757262236371	smiling	137	sub-12	1.0	2.0	137_smiling	0.0		56.439001397881384	
5.0	31.009435622455385	face	0.0		146	40.0	male	white	1.868682849184242	smiling	172	sub-12	1.0	2.0	172_smiling	1.0	dominance	56.64721324796528	1.241629692191509
5.0	31.501240766694536	pulse	0.0	t		40.0	male	white	1.868682849184242	smiling	172	sub-12	1.0	2.0	172_smiling	1.0	dominance	57.139018392204434	
5.0	32.20119014594911	pulse	0.0	t		40.0	male	white	1.868682849184242	smiling	172	sub-12	1.0	2.0	172_smiling	1.0	dominance	57.83896777145901	
5.0	32.251065314646894	fix	1.0		177	40.0	male	white	1.868682849184242	smiling	172	sub-12	1.0	2.0	172_smiling	1.0	dominance	57.88884294015679	1.5083312933102206
5.0	32.90118178462126	pulse	1.0	t		40.0	male	white	1.868682849184242	smiling	172	sub-12	1.0	2.0	172_smiling	1.0	dominance	58.538959410131156	
5.0	33.60115078431954	pulse	1.0	t		40.0	male	white	1.868682849184242	smiling	172	sub-12	1.0	2.0	172_smiling	1.0	dominance	59.23892840982944	
5.0	33.759396607957115	rating	2.0		295	40.0	male	white	1.868682849184242	smiling	172	sub-12	1.0	2.0	172_smiling	1.0	dominance	59.39717423346701	2.4915675859401745
5.0	34.301136385932296	pulse	2.0	t		40.0	male	white	1.868682849184242	smiling	172	sub-12	1.0	2.0	172_smiling	1.0	dominance	59.93891401144219	
5.0	35.00111806345603	pulse	2.0	t		40.0	male	white	1.868682849184242	smiling	172	sub-12	1.0	2.0	172_smiling	1.0	dominance	60.63889568896593	
5.0	35.70110004283288	pulse	2.0	t		40.0	male	white	1.868682849184242	smiling	172	sub-12	1.0	2.0	172_smiling	1.0	dominance	61.338877668342775	
5.0	36.25096419389729	fix	3.0		442	40.0	male	white	1.868682849184242	smiling	172	sub-12	1.0	2.0	172_smiling	1.0	dominance	61.88874181940719	3.7583168798300903
5.0	36.40107870182692	pulse	3.0	t		40.0	male	white	1.868682849184242	smiling	172	sub-12	1.0	2.0	172_smiling	1.0	dominance	62.038856327336816	
5.0	36.62605124075162	response	3.0	w		40.0	male	white	1.868682849184242	smiling	172	sub-12	1.0	2.0	172_smiling	1.0	dominance	62.26382886626152	
5.0	37.101061586762626	pulse	3.0	t		40.0	male	white	1.868682849184242	smiling	172	sub-12	1.0	2.0	172_smiling	1.0	dominance	62.738839212272524	
5.0	37.801080995909615	pulse	3.0	t		40.0	male	white	1.868682849184242	smiling	172	sub-12	1.0	2.0	172_smiling	1.0	dominance	63.43885862141951	
5.0	38.50102796034025	pulse	3.0	t		40.0	male	white	1.868682849184242	smiling	172	sub-12	1.0	2.0	172_smiling	1.0	dominance	64.13880558585015	
5.0	39.201002997098385	pulse	3.0	t		40.0	male	white	1.868682849184242	smiling	172	sub-12	1.0	2.0	172_smiling	1.0	dominance	64.83878062260828	
5.0	39.90099191909394	pulse	3.0	t		40.0	male	white	1.868682849184242	smiling	172	sub-12	1.0	2.0	172_smiling	1.0	dominance	65.53876954460384	
6.0	40.00928107372738	face	0.0		147	19.0	male	white	3.2522881018702745	neutral	018	sub-12	1.0	2.0	018_neutral	0.0		65.64705869923728	1.241552115974173
6.0	40.600988689266615	pulse	0.0	t		19.0	male	white	3.2522881018702745	neutral	018	sub-12	1.0	2.0	018_neutral	0.0		66.23876631477651	
6.0	41.25083318970155	fix	1.0		443	19.0	male	white	3.2522881018702745	neutral	018	sub-12	1.0	2.0	018_neutral	0.0		66.88861081521145	3.76654478849332
6.0	41.300965838996035	pulse	1.0	t		19.0	male	white	3.2522881018702745	neutral	018	sub-12	1.0	2.0	018_neutral	0.0		66.93874346450593	
6.0	42.000930612752654	pulse	1.0	t		19.0	male	white	3.2522881018702745	neutral	018	sub-12	1.0	2.0	018_neutral	0.0		67.63870823826255	
6.0	42.70090685692276	pulse	1.0	t		19.0	male	white	3.2522881018702745	neutral	018	sub-12	1.0	2.0	018_neutral	0.0		68.33868448243265	
6.0	43.40090211783081	pulse	1.0	t		19.0	male	white	3.2522881018702745	neutral	018	sub-12	1.0	2.0	018_neutral	0.0		69.03867974334071	
6.0	44.100907943593484	pulse	1.0	t		19.0	male	white	3.2522881018702745	neutral	018	sub-12	1.0	2.0	018_neutral	0.0		69.73868556910338	
6.0	44.80088720629328	pulse	1.0	t		19.0	male	white	3.2522881018702745	neutral	018	sub-12	1.0	2.0	018_neutral	0.0		70.43866483180318	
7.0	45.01737797819487	face	0.0		145	24.0	female	east_asian	4.409868682849185	smiling	030	sub-12	1.0	2.0	030_smiling	0.0		70.65515560370477	1.2333254147233674
7.0	45.50084835781399	pulse	0.0	t		24.0	female	east_asian	4.409868682849185	smiling	030	sub-12	1.0	2.0	030_smiling	0.0		71.13862598332389	
7.0	46.20082520569031	pulse	0.0	t		24.0	female	east_asian	4.409868682849185	smiling	030	sub-12	1.0	2.0	030_smiling	0.0		71.8386028312002	
7.0	46.25070339291824	fix	1.0		445	24.0	female	east_asian	4.409868682849185	smiling	030	sub-12	1.0	2.0	030_smiling	0.0		71.88848101842814	3.766528488431959
7.0	46.90083012589366	pulse	1.0	t		24.0	female	east_asian	4.409868682849185	smiling	030	sub-12	1.0	2.0	030_smiling	0.0		72.53860775140356	
7.0	47.600810596005886	pulse	1.0	t		24.0	female	east_asian	4.409868682849185	smiling	030	sub-12	1.0	2.0	030_smiling	0.0		73.23858822151578	
7.0	48.30079076426455	pulse	1.0	t		24.0	female	east_asian	4.409868682849185	smiling	030	sub-12	1.0	2.0	030_smiling	0.0		73.93856838977445	
7.0	49.00075614172738	pulse	1.0	t		24.0	female	east_asian	4.409868682849185	smiling	030	sub-12	1.0	2.0	030_smiling	0.0		74.63853376723728	
7.0	49.70071397286529	pulse	1.0	t		24.0	female	east_asian	4.409868682849185	smiling	030	sub-12	1.0	2.0	030_smiling	0.0		75.33849159837519	
8.0	50.0172318813502	face	0.0		145	25.0	female	west_asian	2.6756864305610826	smiling	064	sub-12	1.0	2.0	064_smiling	1.0	trustworthiness	75.6550095068601	1.2333540907566203
8.0	50.400726439393566	pulse	0.0	t		25.0	female	west_asian	2.6756864305610826	smiling	064	sub-12	1.0	2.0	064_smiling	1.0	trustworthiness	76.03850406490346	
8.0	51.10068547794344	pulse	0.0	t		25.0	female	west_asian	2.6756864305610826	smiling	064	sub-12	1.0	2.0	064_smiling	1.0	trustworthiness	76.73846310345334	
8.0	51.25058597210682	fix	1.0		177	25.0	female	west_asian	2.6756864305610826	smiling	064	sub-12	1.0	2.0	064_smiling	1.0	trustworthiness	76.88836359761672	1.499957589655878
8.0	51.80069130370612	pulse	1.0	t		25.0	female	west_asian	2.6756864305610826	smiling	064	sub-12	1.0	2.0	064_smiling	1.0	trustworthiness	77.43846892921601	
8.0	52.5006756979069	pulse	1.0	t		25.0	female	west_asian	2.6756864305610826	smiling	064	sub-12	1.0	2.0	064_smiling	1.0	trustworthiness	78.1384533234168	
8.0	52.7505435617627	rating	2.0		295	25.0	female	west_asian	2.6756864305610826	smiling	064	sub-12	1.0	2.0	064_smiling	1.0	trustworthiness	78.3883211872726	2.499931932151867
8.0	53.20063564201564	pulse	2.0	t		25.0	female	west_asian	2.6756864305610826	smiling	064	sub-12	1.0	2.0	064_smiling	1.0	trustworthiness	78.83841326752554	
8.0	53.90061309359771	pulse	2.0	t		25.0	female	west_asian	2.6756864305610826	smiling	064	sub-12	1.0	2.0	064_smiling	1.0	trustworthiness	79.53839071910761	
8.0	54.600593261856375	pulse	2.0	t		25.0	female	west_asian	2.6756864305610826	smiling	064	sub-12	1.0	2.0	064_smiling	1.0	trustworthiness	80.23837088736627	
8.0	54.7839140129513	response	2.0	g		25.0	female	west_asian	2.6756864305610826	smiling	064	sub-12	1.0	2.0	064_smiling	1.0	trustworthiness	80.4216916384612	
8.0	55.250475493914564	fix	3.0		443	25.0	female	west_asian	2.6756864305610826	smiling	064	sub-12	1.0	2.0	064_smiling	1.0	trustworthiness	80.88825311942446	3.7582181739039697
8.0	55.30058097643996	pulse	3.0	t		25.0	female	west_asian	2.6756864305610826	smiling	064	sub-12	1.0	2.0	064_smiling	1.0	trustworthiness	80.93835860194986	
8.0	56.00056537064074	pulse	3.0	t		25.0	female	west_asian	2.6756864305610826	smiling	064	sub-12	1.0	2.0	064_smiling	1.0	trustworthiness	81.63834299615064	
8.0	56.7005292388385	pulse	3.0	t		25.0	female	west_asian	2.6756864305610826	smiling	064	sub-12	1.0	2.0	064_smiling	1.0	trustworthiness	82.3383068643484	
8.0	57.40051634971587	pulse	3.0	t		25.0	female	west_asian	2.6756864305610826	smiling	064	sub-12	1.0	2.0	064_smiling	1.0	trustworthiness	83.03829397522577	
8.0	58.1004784067959	pulse	3.0	t		25.0	female	west_asian	2.6756864305610826	smiling	064	sub-12	1.0	2.0	064_smiling	1.0	trustworthiness	83.7382560323058	
8.0	58.80048634552941	pulse	3.0	t		25.0	female	west_asian	2.6756864305610826	smiling	064	sub-12	1.0	2.0	064_smiling	1.0	trustworthiness	84.4382639710393	
9.0	59.008693667818534	face	0.0		146	21.0	male	black	2.969757262236371	neutral	137	sub-12	1.0	2.0	137_neutral	1.0	trustworthiness	84.64647129332843	1.2416375403690836
9.0	59.50046409896413	pulse	0.0	t		21.0	male	black	2.969757262236371	neutral	137	sub-12	1.0	2.0	137_neutral	1.0	trustworthiness	85.13824172447403	
9.0	60.2004415505462	pulse	0.0	t		21.0	male	black	2.969757262236371	neutral	137	sub-12	1.0	2.0	137_neutral	1.0	trustworthiness	85.8382191760561	
9.0	60.25033120818762	fix	1.0		177	21.0	male	black	2.969757262236371	neutral	137	sub-12	1.0	2.0	137_neutral	1.0	trustworthiness	85.88810883369752	1.4999738897167845
9.0	60.90044405592607	pulse	1.0	t		21.0	male	black	2.969757262236371	neutral	137	sub-12	1.0	2.0	137_neutral	1.0	trustworthiness	86.53822168143597	
9.0	61.60041124450663	pulse	1.0	t		21.0	male	black	2.969757262236371	neutral	137	sub-12	1.0	2.0	137_neutral	1.0	trustworthiness	87.23818887001653	
9.0	61.7503050979044	rating	2.0		296	21.0	male	black	2.969757262236371	neutral	137	sub-12	1.0	2.0	137_neutral	1.0	trustworthiness	87.3880827234143	2.4999219710034595
9.0	62.30039412944234	pulse	2.0	t		21.0	male	black	2.969757262236371	neutral	137	sub-12	1.0	2.0	137_neutral	1.0	trustworthiness	87.93817175495224	
9.0	63.00037278843638	pulse	2.0	t		21.0	male	black	2.969757262236371	neutral	137	sub-12	1.0	2.0	137_neutral	1.0	trustworthiness	88.63815041394628	
9.0	63.70034752334141	pulse	2.0	t		21.0	male	black	2.969757262236371	neutral	137	sub-12	1.0	2.0	137_neutral	1.0	trustworthiness	89.3381251488513	
9.0	64.25022706890786	fix	3.0		442	21.0	male	black	2.969757262236371	neutral	137	sub-12	1.0	2.0	137_neutral	1.0	trustworthiness	89.88800469441776	3.7665641070843776
9.0	64.4003636121056	pulse	3.0	t		21.0	male	black	2.969757262236371	neutral	137	sub-12	1.0	2.0	137_neutral	1.0	trustworthiness	90.03814123761549	
9.0	64.50864793709161	response	3.0	w		21.0	male	black	2.969757262236371	neutral	137	sub-12	1.0	2.0	137_neutral	1.0	trustworthiness	90.14642556260151	
9.0	65.10030333206441	pulse	3.0	t		21.0	male	black	2.969757262236371	neutral	137	sub-12	1.0	2.0	137_neutral	1.0	trustworthiness	90.73808095757431	
9.0	65.80029315961883	pulse	3.0	t		21.0	male	black	2.969757262236371	neutral	137	sub-12	1.0	2.0	137_neutral	1.0	trustworthiness	91.43807078512873	
9.0	66.50027362973105	pulse	3.0	t		21.0	male	black	2.969757262236371	neutral	137	sub-12	1.0	2.0	137_neutral	1.0	trustworthiness	92.13805125524095	
9.0	67.20026919249176	pulse	3.0	t		21.0	male	black	2.969757262236371	neutral	137	sub-12	1.0	2.0	137_neutral	1.0	trustworthiness	92.83804681800166	
9.0	67.90027713122527	pulse	3.0	t		21.0	male	black	2.969757262236371	neutral	137	sub-12	1.0	2.0	137_neutral	1.0	trustworthiness	93.53805475673516	
10.0	68.01679117599224	face	0.0		146	22.0	female	west_asian	3.8205332272184642	smiling	066	sub-12	1.0	2.0	066_smiling	0.0		93.65456880150214	1.2333021720432953
10.0	68.60022228453818	pulse	0.0	t		22.0	female	west_asian	3.8205332272184642	smiling	066	sub-12	1.0	2.0	066_smiling	0.0		94.23799991004807	
10.0	69.25009334803553	fix	1.0		443	22.0	female	west_asian	3.8205332272184642	smiling	066	sub-12	1.0	2.0	066_smiling	0.0		94.88787097354543	3.758298466798351
10.0	69.30020124538487	pulse	1.0	t		22.0	female	west_asian	3.8205332272184642	smiling	066	sub-12	1.0	2.0	066_smiling	0.0		94.93797887089477	
10.0	70.00018050808512	pulse	1.0	t		22.0	female	west_asian	3.8205332272184642	smiling	066	sub-12	1.0	2.0	066_smiling	0.0		95.63795813359502	
10.0	70.70017486343431	pulse	1.0	t		22.0	female	west_asian	3.8205332272184642	smiling	066	sub-12	1.0	2.0	066_smiling	0.0		96.33795248894421	
10.0	71.40017585954911	pulse	1.0	t		22.0	female	west_asian	3.8205332272184642	smiling	066	sub-12	1.0	2.0	066_smiling	0.0		97.037953485059	
10.0	72.10013006845111	pulse	1.0	t		22.0	female	west_asian	3.8205332272184642	smiling	066	sub-12	1.0	2.0	066_smiling	0.0		97.737907693961	
10.0	72.80013649792	pulse	1.0	t		22.0	female	west_asian	3.8205332272184642	smiling	066	sub-12	1.0	2.0	066_smiling	0.0		98.43791412342989	
11.0	73.00839181483389	face	0.0		146	30.0	female	black	2.7345801830481498	neutral	062	sub-12	1.0	2.0	062_neutral	0.0		98.64616944034378	1.241575056801139
11.0	73.5001260236213	pulse	0.0	t		30.0	female	black	2.7345801830481498	neutral	062	sub-12	1.0	2.0	062_neutral	0.0		99.1379036491312	
11.0	74.20006876210982	pulse	0.0	t		30.0	female	black	2.7345801830481498	neutral	062	sub-12	1.0	2.0	062_neutral	0.0		99.83784638761972	
11.0	74.24996687163502	fix	1.0		445	30.0	female	black	2.7345801830481498	neutral	062	sub-12	1.0	2.0	062_neutral	0.0		99.88774449714492	3.76653543105067
11.0	74.9000561748403	pulse	1.0	t		30.0	female	black	2.7345801830481498	neutral	062	sub-12	1.0	2.0	062_neutral	0.0		100.5378338003502	
11.0	75.60003090974578	pulse	1.0	t		30.0	female	black	2.7345801830481498	neutral	062	sub-12	1.0	2.0	062_neutral	0.0		101.23780853525568	
11.0	76.30001620950543	pulse	1.0	t		30.0	female	black	2.7345801830481498	neutral	062	sub-12	1.0	2.0	062_neutral	0.0		101.93779383501533	
11.0	77.00003380753424	pulse	1.0	t		30.0	female	black	2.7345801830481498	neutral	062	sub-12	1.0	2.0	062_neutral	0.0		102.63781143304413	
11.0	77.69997654602321	pulse	1.0	t		30.0	female	black	2.7345801830481498	neutral	062	sub-12	1.0	2.0	062_neutral	0.0		103.3377541715331	
12.0	78.0165023026857	face	0.0		145	24.0	female	black	3.0955033824114606	neutral	099	sub-12	1.0	2.0	099_neutral	0.0		103.65427992819559	1.2333239054582918
12.0	78.39997573101982	pulse	0.0	t		24.0	female	black	3.0955033824114606	neutral	099	sub-12	1.0	2.0	099_neutral	0.0		104.03775335652972	
12.0	79.09997612342886	pulse	0.0	t		24.0	female	black	3.0955033824114606	neutral	099	sub-12	1.0	2.0	099_neutral	0.0		104.73775374893876	
12.0	79.24982620814399	fix	1.0		444	24.0	female	black	3.0955033824114606	neutral	099	sub-12	1.0	2.0	099_neutral	0.0		104.88760383365388	3.76654871258188
12.0	79.79992791750738	pulse	1.0	t		24.0	female	black	3.0955033824114606	neutral	099	sub-12	1.0	2.0	099_neutral	0.0		105.43770554301727	
12.0	80.49990174685354	pulse	1.0	t		24.0	female	black	3.0955033824114606	neutral	099	sub-12	1.0	2.0	099_neutral	0.0		106.13767937236344	
12.0	81.19988674476008	pulse	1.0	t		24.0	female	black	3.0955033824114606	neutral	099	sub-12	1.0	2.0	099_neutral	0.0		106.83766437026998	
12.0	81.89990373908313	pulse	1.0	t		24.0	female	black	3.0955033824114606	neutral	099	sub-12	1.0	2.0	099_neutral	0.0		107.53768136459303	
12.0	82.5998842091949	pulse	1.0	t		24.0	female	black	3.0955033824114606	neutral	099	sub-12	1.0	2.0	099_neutral	0.0		108.2376618347048	
13.0	83.01637492072587	face	0.0		145	31.0	male	west_asian	1.9538400318344609	neutral	070	sub-12	1.0	2.0	070_neutral	0.0		108.65415254623576	1.233319981369732
13.0	83.29983600327341	pulse	0.0	t		31.0	male	west_asian	1.9538400318344609	neutral	070	sub-12	1.0	2.0	070_neutral	0.0		108.93761362878331	
13.0	83.99981617153207	pulse	0.0	t		31.0	male	west_asian	1.9538400318344609	neutral	070	sub-12	1.0	2.0	070_neutral	0.0		109.63759379704197	
13.0	84.2496949020956	fix	1.0		444	31.0	male	west_asian	1.9538400318344609	neutral	070	sub-12	1.0	2.0	070_neutral	0.0		109.8874725276055	3.766550523699607
13.0	84.69981143244013	pulse	1.0	t		31.0	male	west_asian	1.9538400318344609	neutral	070	sub-12	1.0	2.0	070_neutral	0.0		110.33758905795003	
13.0	85.39977711175607	pulse	1.0	t		31.0	male	west_asian	1.9538400318344609	neutral	070	sub-12	1.0	2.0	070_neutral	0.0		111.03755473726596	
13.0	86.09976935413442	pulse	1.0	t		31.0	male	west_asian	1.9538400318344609	neutral	070	sub-12	1.0	2.0	070_neutral	0.0		111.73754697964432	
13.0	86.79973412789104	pulse	1.0	t		31.0	male	west_asian	1.9538400318344609	neutral	070	sub-12	1.0	2.0	070_neutral	0.0		112.43751175340094	
13.0	87.49971550356167	pulse	1.0	t		31.0	male	west_asian	1.9538400318344609	neutral	070	sub-12	1.0	2.0	070_neutral	0.0		113.13749312907157	
14.0	88.0162454257952	face	0.0		145	20.0	male	black	3.1070433744528456	neutral	082	sub-12	1.0	2.0	082_neutral	0.0		113.6540230513051	1.233304586867689
14.0	88.19970442555723	pulse	0.0	t		20.0	male	black	3.1070433744528456	neutral	082	sub-12	1.0	2.0	082_neutral	0.0		113.83748205106713	
14.0	88.8996851975221	pulse	0.0	t		20.0	male	black	3.1070433744528456	neutral	082	sub-12	1.0	2.0	082_neutral	0.0		114.537462823032	
14.0	89.2495500126629	fix	1.0		444	20.0	male	black	3.1070433744528456	neutral	082	sub-12	1.0	2.0	082_neutral	0.0		114.88732763817279	3.7583087297994098
14.0	89.59966627134008	pulse	1.0	t		20.0	male	black	3.1070433744528456	neutral	082	sub-12	1.0	2.0	082_neutral	0.0		115.23744389684998	
14.0	90.29964855256958	pulse	1.0	t		20.0	male	black	3.1070433744528456	neutral	082	sub-12	1.0	2.0	082_neutral	0.0		115.93742617807948	
14.0	90.99962600415165	pulse	1.0	t		20.0	male	black	3.1070433744528456	neutral	082	sub-12	1.0	2.0	082_neutral	0.0		116.63740362966155	
14.0	91.69959983349781	pulse	1.0	t		20.0	male	black	3.1070433744528456	neutral	082	sub-12	1.0	2.0	082_neutral	0.0		117.33737745900771	
14.0	92.39957607766792	pulse	1.0	t		20.0	male	black	3.1070433744528456	neutral	082	sub-12	1.0	2.0	082_neutral	0.0		118.03735370317781	
15.0	93.0078587424623	face	0.0		146	36.0	female	white	2.7548746518105847	smiling	011	sub-12	1.0	2.0	011_smiling	0.0		118.6456363679722	1.2415602660048535
15.0	93.09957496081188	pulse	0.0	t		36.0	female	white	2.7548746518105847	smiling	011	sub-12	1.0	2.0	011_smiling	0.0		118.73735258632178	
15.0	93.7995496957169	pulse	0.0	t		36.0	female	white	2.7548746518105847	smiling	011	sub-12	1.0	2.0	011_smiling	0.0		119.4373273212268	
15.0	94.24941900846716	fix	1.0		444	36.0	female	white	2.7548746518105847	smiling	011	sub-12	1.0	2.0	011_smiling	0.0		119.88719663397706	3.7665683330260435
15.0	94.49953318435882	pulse	1.0	t		36.0	female	white	2.7548746518105847	smiling	011	sub-12	1.0	2.0	011_smiling	0.0		120.13731080986872	
15.0	95.19952301191324	pulse	1.0	t		36.0	female	white	2.7548746518105847	smiling	011	sub-12	1.0	2.0	011_smiling	0.0		120.83730063742314	
15.0	95.89950167090728	pulse	1.0	t		36.0	female	white	2.7548746518105847	smiling	011	sub-12	1.0	2.0	011_smiling	0.0		121.53727929641718	
15.0	96.59947097245868	pulse	1.0	t		36.0	female	white	2.7548746518105847	smiling	011	sub-12	1.0	2.0	011_smiling	0.0		122.23724859796857	
15.0	97.29947287413233	pulse	1.0	t		36.0	female	white	2.7548746518105847	smiling	011	sub-12	1.0	2.0	011_smiling	0.0		122.93725049964223	
16.0	98.0159873414932	face	0.0		146	26.0	female	white	4.854755272582572	smiling	027	sub-12	1.0	2.0	027_smiling	0.0		123.6537649670031	1.2333076053973855
16.0	98.00201728349839	pulse	0.0	t		26.0	female	white	4.854755272582572	smiling	027	sub-12	1.0	2.0	027_smiling	0.0		123.63979490900829	
16.0	98.69942355135481	pulse	0.0	t		26.0	female	white	4.854755272582572	smiling	027	sub-12	1.0	2.0	027_smiling	0.0		124.33720117686471	
16.0	99.24929494689059	fix	1.0		443	26.0	female	white	4.854755272582572	smiling	027	sub-12	1.0	2.0	027_smiling	0.0		124.88707257240048	3.75830480571085
16.0	99.39940643629052	pulse	1.0	t		26.0	female	white	4.854755272582572	smiling	027	sub-12	1.0	2.0	027_smiling	0.0		125.03718406180042	
16.0	100.09938268046062	pulse	1.0	t		26.0	female	white	4.854755272582572	smiling	027	sub-12	1.0	2.0	027_smiling	0.0		125.73716030597052	
16.0	100.79936737651406	pulse	1.0	t		26.0	female	white	4.854755272582572	smiling	027	sub-12	1.0	2.0	027_smiling	0.0		126.43714500202395	
16.0	101.4993433188315	pulse	1.0	t		26.0	female	white	4.854755272582572	smiling	027	sub-12	1.0	2.0	027_smiling	0.0		127.1371209443414	
16.0	102.19934280568123	pulse	1.0	t		26.0	female	white	4.854755272582572	smiling	027	sub-12	1.0	2.0	027_smiling	0.0		127.83712043119112	
16.0	102.89931150352686	pulse	1.0	t		26.0	female	white	4.854755272582572	smiling	027	sub-12	1.0	2.0	027_smiling	0.0		128.53708912903676	
17.0	103.00759975260144	face	0.0		147	31.0	female	white	2.1822522881018704	neutral	102	sub-12	1.0	2.0	102_neutral	0.0		128.64537737811133	1.2415626808287925
17.0	103.59929257734439	pulse	0.0	t		31.0	female	white	2.1822522881018704	neutral	102	sub-12	1.0	2.0	102_neutral	0.0		129.23707020285428	
17.0	104.24916243343023	fix	1.0		444	31.0	female	white	2.1822522881018704	neutral	102	sub-12	1.0	2.0	102_neutral	0.0		129.88694005894013	3.766645607389819
17.0	104.29927153819153	pulse	1.0	t		31.0	female	white	2.1822522881018704	neutral	102	sub-12	1.0	2.0	102_neutral	0.0		129.93704916370143	
17.0	104.99925412127413	pulse	1.0	t		31.0	female	white	2.1822522881018704	neutral	102	sub-12	1.0	2.0	102_neutral	0.0		130.63703174678403	
17.0	105.69924274141658	pulse	1.0	t		31.0	female	white	2.1822522881018704	neutral	102	sub-12	1.0	2.0	102_neutral	0.0		131.33702036692648	
17.0	106.39921083555646	pulse	1.0	t		31.0	female	white	2.1822522881018704	neutral	102	sub-12	1.0	2.0	102_neutral	0.0		132.03698846106636	
17.0	107.09921364278898	pulse	1.0	t		31.0	female	white	2.1822522881018704	neutral	102	sub-12	1.0	2.0	102_neutral	0.0		132.73699126829888	
17.0	107.7991814350753	pulse	1.0	t		31.0	female	white	2.1822522881018704	neutral	102	sub-12	1.0	2.0	102_neutral	0.0		133.4369590605852	
18.0	108.01580804082005	face	0.0		146	20.0	female	white	3.9502586549940313	neutral	091	sub-12	1.0	2.0	091_neutral	0.0		133.65358566632995	1.2415542289454606
18.0	108.49916462186411	pulse	0.0	t		20.0	female	white	3.9502586549940313	neutral	091	sub-12	1.0	2.0	091_neutral	0.0		134.136942247374	
18.0	109.19914629938785	pulse	0.0	t		20.0	female	white	3.9502586549940313	neutral	091	sub-12	1.0	2.0	091_neutral	0.0		134.83692392489775	
18.0	109.25736226976551	fix	1.0		445	20.0	female	white	3.9502586549940313	neutral	091	sub-12	1.0	2.0	091_neutral	0.0		134.8951398952754	3.766551429258925
18.0	109.89912948617666	pulse	1.0	t		20.0	female	white	3.9502586549940313	neutral	091	sub-12	1.0	2.0	091_neutral	0.0		135.53690711168656	
18.0	110.599105126641	pulse	1.0	t		20.0	female	white	3.9502586549940313	neutral	091	sub-12	1.0	2.0	091_neutral	0.0		136.2368827521509	
18.0	111.29908348378194	pulse	1.0	t		20.0	female	white	3.9502586549940313	neutral	091	sub-12	1.0	2.0	091_neutral	0.0		136.93686110929184	
18.0	111.99907934839621	pulse	1.0	t		20.0	female	white	3.9502586549940313	neutral	091	sub-12	1.0	2.0	091_neutral	0.0		137.6368569739061	
18.0	112.69904683882942	pulse	1.0	t		20.0	female	white	3.9502586549940313	neutral	091	sub-12	1.0	2.0	091_neutral	0.0		138.33682446433932	
19.0	113.02391369902443	face	0.0		145	28.0	male	east_asian	1.5563072025467568	neutral	005	sub-12	1.0	2.0	005_neutral	0.0		138.66169132453433	1.233324207311398
19.0	113.3990315348833	pulse	0.0	t		28.0	male	east_asian	1.5563072025467568	neutral	005	sub-12	1.0	2.0	005_neutral	0.0		139.0368091603932	
19.0	114.0990138161128	pulse	0.0	t		28.0	male	east_asian	1.5563072025467568	neutral	005	sub-12	1.0	2.0	005_neutral	0.0		139.7367914416227	
19.0	114.25723790633583	fix	1.0		444	28.0	male	east_asian	1.5563072025467568	neutral	005	sub-12	1.0	2.0	005_neutral	0.0		139.89501553184573	3.7582513777324493
19.0	114.79899488993078	pulse	1.0	t		28.0	male	east_asian	1.5563072025467568	neutral	005	sub-12	1.0	2.0	005_neutral	0.0		140.43677251544068	
19.0	115.49897264336596	pulse	1.0	t		28.0	male	east_asian	1.5563072025467568	neutral	005	sub-12	1.0	2.0	005_neutral	0.0		141.13675026887586	
19.0	116.19895130236	pulse	1.0	t		28.0	male	east_asian	1.5563072025467568	neutral	005	sub-12	1.0	2.0	005_neutral	0.0		141.8367289278699	
19.0	116.89899153936267	pulse	1.0	t		28.0	male	east_asian	1.5563072025467568	neutral	005	sub-12	1.0	2.0	005_neutral	0.0		142.53676916487257	
19.0	117.59892039261422	pulse	1.0	t		28.0	male	east_asian	1.5563072025467568	neutral	005	sub-12	1.0	2.0	005_neutral	0.0		143.23669801812412	
20.0	118.01548928406828	face	0.0		146	30.0	female	black	2.7345801830481498	smiling	062	sub-12	1.0	2.0	062_smiling	0.0		143.65326690957818	1.241608864335376
20.0	118.29890086272599	pulse	0.0	t		30.0	female	black	2.7345801830481498	smiling	062	sub-12	1.0	2.0	062_smiling	0.0		143.93667848823588	
20.0	118.9988810309851	pulse	0.0	t		30.0	female	black	2.7345801830481498	smiling	062	sub-12	1.0	2.0	062_smiling	0.0		144.636658656495	
20.0	119.25709814840366	fix	1.0		1185	30.0	female	black	2.7345801830481498	smiling	062	sub-12	1.0	2.0	062_smiling	0.0		144.89487577391355	10.016387296698213
20.0	119.69886270850884	pulse	1.0	t		30.0	female	black	2.7345801830481498	smiling	062	sub-12	1.0	2.0	062_smiling	0.0		145.33664033401874	
20.0	120.39885042309243	pulse	1.0	t		30.0	female	black	2.7345801830481498	smiling	062	sub-12	1.0	2.0	062_smiling	0.0		146.03662804860232	
20.0	121.0988372321167	pulse	1.0	t		30.0	female	black	2.7345801830481498	smiling	062	sub-12	1.0	2.0	062_smiling	0.0		146.7366148576266	
20.0	121.7988038169915	pulse	1.0	t		30.0	female	black	2.7345801830481498	smiling	062	sub-12	1.0	2.0	062_smiling	0.0		147.4365814425014	
20.0	122.49879032416311	pulse	1.0	t		30.0	female	black	2.7345801830481498	smiling	062	sub-12	1.0	2.0	062_smiling	0.0		148.136567949673	
20.0	123.19876747389208	pulse	1.0	t		30.0	female	black	2.7345801830481498	smiling	062	sub-12	1.0	2.0	062_smiling	0.0		148.83654509940197	
20.0	123.89875096253354	pulse	1.0	t		30.0	female	black	2.7345801830481498	smiling	062	sub-12	1.0	2.0	062_smiling	0.0		149.53652858804344	
20.0	124.59872811226296	pulse	1.0	t		30.0	female	black	2.7345801830481498	smiling	062	sub-12	1.0	2.0	062_smiling	0.0		150.23650573777286	
20.0	125.2987191472289	pulse	1.0	t		30.0	female	black	2.7345801830481498	smiling	062	sub-12	1.0	2.0	062_smiling	0.0		150.9364967727388	
20.0	125.99870505069475	pulse	1.0	t		30.0	female	black	2.7345801830481498	smiling	062	sub-12	1.0	2.0	062_smiling	0.0		151.63648267620465	
20.0	126.69866137256759	pulse	1.0	t		30.0	female	black	2.7345801830481498	smiling	062	sub-12	1.0	2.0	062_smiling	0.0		152.33643899807748	
20.0	127.39866055756465	pulse	1.0	t		30.0	female	black	2.7345801830481498	smiling	062	sub-12	1.0	2.0	062_smiling	0.0		153.03643818307455	
20.0	128.0986355943228	pulse	1.0	t		30.0	female	black	2.7345801830481498	smiling	062	sub-12	1.0	2.0	062_smiling	0.0		153.73641321983268	
20.0	128.79863115708395	pulse	1.0	t		30.0	female	black	2.7345801830481498	smiling	062	sub-12	1.0	2.0	062_smiling	0.0		154.43640878259384	
21.0	129.27348544510187	face	0.0		145	24.0	male	white	3.1153999204138483	smiling	012	sub-12	1.0	2.0	012_smiling	0.0		154.91126307061177	1.2333136424567783
21.0	129.49861736240246	pulse	0.0	t		24.0	male	white	3.1153999204138483	smiling	012	sub-12	1.0	2.0	012_smiling	0.0		155.13639498791235	
21.0	130.19859421027877	pulse	0.0	t		24.0	male	white	3.1153999204138483	smiling	012	sub-12	1.0	2.0	012_smiling	0.0		155.83637183578867	
21.0	130.50679908755865	fix	1.0		444	24.0	male	white	3.1153999204138483	smiling	012	sub-12	1.0	2.0	012_smiling	0.0		156.14457671306855	3.7583564225715236
21.0	130.898582226715	pulse	1.0	t		24.0	male	white	3.1153999204138483	smiling	012	sub-12	1.0	2.0	012_smiling	0.0		156.5363598522249	
21.0	131.59854428379504	pulse	1.0	t		24.0	male	white	3.1153999204138483	smiling	012	sub-12	1.0	2.0	012_smiling	0.0		157.23632190930493	
21.0	132.29853169652552	pulse	1.0	t		24.0	male	white	3.1153999204138483	smiling	012	sub-12	1.0	2.0	012_smiling	0.0		157.9363093220354	
21.0	132.9985109592253	pulse	1.0	t		24.0	male	white	3.1153999204138483	smiling	012	sub-12	1.0	2.0	012_smiling	0.0		158.6362885847352	
21.0	133.69849324045526	pulse	1.0	t		24.0	male	white	3.1153999204138483	smiling	012	sub-12	1.0	2.0	012_smiling	0.0		159.33627086596516	
22.0	134.26515551013017	face	0.0		146	27.0	male	black	3.5523278949462798	smiling	042	sub-12	1.0	2.0	042_smiling	0.0		159.90293313564007	1.2415059324675894
22.0	134.39848276615658	pulse	0.0	t		27.0	male	black	3.5523278949462798	smiling	042	sub-12	1.0	2.0	042_smiling	0.0		160.03626039166647	
22.0	135.0984544825319	pulse	0.0	t		27.0	male	black	3.5523278949462798	smiling	042	sub-12	1.0	2.0	042_smiling	0.0		160.7362321080418	
22.0	135.50666144259776	fix	1.0		444	27.0	male	black	3.5523278949462798	smiling	042	sub-12	1.0	2.0	042_smiling	0.0		161.14443906810766	3.7582399073189663
22.0	135.79844280082125	pulse	1.0	t		27.0	male	black	3.5523278949462798	smiling	042	sub-12	1.0	2.0	042_smiling	0.0		161.43622042633115	
22.0	136.49841180052	pulse	1.0	t		27.0	male	black	3.5523278949462798	smiling	042	sub-12	1.0	2.0	042_smiling	0.0		162.1361894260299	
22.0	137.19839951510357	pulse	1.0	t		27.0	male	black	3.5523278949462798	smiling	042	sub-12	1.0	2.0	042_smiling	0.0		162.83617714061347	
22.0	137.89838179633307	pulse	1.0	t		27.0	male	black	3.5523278949462798	smiling	042	sub-12	1.0	2.0	042_smiling	0.0		163.53615942184297	
22.0	138.59835653123855	pulse	1.0	t		27.0	male	black	3.5523278949462798	smiling	042	sub-12	1.0	2.0	042_smiling	0.0		164.23613415674845	
23.0	139.26490134991673	face	0.0		146	25.0	female	black	3.858336649423	neutral	126	sub-12	1.0	2.0	126_neutral	0.0		164.90267897542662	1.2416321070154481
23.0	139.29834545323365	pulse	0.0	t		25.0	female	black	3.858336649423	neutral	126	sub-12	1.0	2.0	126_neutral	0.0		164.93612307874355	
23.0	139.99832230110997	pulse	0.0	t		25.0	female	black	3.858336649423	neutral	126	sub-12	1.0	2.0	126_neutral	0.0		165.63609992661986	
23.0	140.50653345693217	fix	1.0		443	25.0	female	black	3.858336649423	neutral	126	sub-12	1.0	2.0	126_neutral	0.0		166.14431108244207	3.758288505649489
23.0	140.69830941198734	pulse	1.0	t		25.0	female	black	3.858336649423	neutral	126	sub-12	1.0	2.0	126_neutral	0.0		166.33608703749724	
23.0	141.39828897654024	pulse	1.0	t		25.0	female	black	3.858336649423	neutral	126	sub-12	1.0	2.0	126_neutral	0.0		167.03606660205014	
23.0	142.09827699297693	pulse	1.0	t		25.0	female	black	3.858336649423	neutral	126	sub-12	1.0	2.0	126_neutral	0.0		167.73605461848683	
23.0	142.79824116302734	pulse	1.0	t		25.0	female	black	3.858336649423	neutral	126	sub-12	1.0	2.0	126_neutral	0.0		168.43601878853724	
23.0	143.4982050312251	pulse	1.0	t		25.0	female	black	3.858336649423	neutral	126	sub-12	1.0	2.0	126_neutral	0.0		169.135982656735	
23.0	144.1982162903414	pulse	1.0	t		25.0	female	black	3.858336649423	neutral	126	sub-12	1.0	2.0	126_neutral	0.0		169.8359939158513	
24.0	144.26482196258166	face	0.0		147	20.0	male	black	2.609629924393156	smiling	043	sub-12	1.0	2.0	043_smiling	0.0		169.90259958809156	1.2415783771839415
24.0	144.89819887342446	pulse	0.0	t		20.0	male	black	2.609629924393156	smiling	043	sub-12	1.0	2.0	043_smiling	0.0		170.53597649893436	
24.0	145.5064003397656	fix	1.0		443	20.0	male	black	2.609629924393156	smiling	043	sub-12	1.0	2.0	043_smiling	0.0		171.1441779652755	3.7665638052312715
24.0	145.59817843797737	pulse	1.0	t		20.0	male	black	2.609629924393156	smiling	043	sub-12	1.0	2.0	043_smiling	0.0		171.23595606348727	
24.0	146.29815528585323	pulse	1.0	t		20.0	male	black	2.609629924393156	smiling	043	sub-12	1.0	2.0	043_smiling	0.0		171.93593291136312	
24.0	146.99815296158522	pulse	1.0	t		20.0	male	black	2.609629924393156	smiling	043	sub-12	1.0	2.0	043_smiling	0.0		172.63593058709512	
24.0	147.6981186409007	pulse	1.0	t		20.0	male	black	2.609629924393156	smiling	043	sub-12	1.0	2.0	043_smiling	0.0		173.3358962664106	
24.0	148.3981003184249	pulse	1.0	t		20.0	male	black	2.609629924393156	smiling	043	sub-12	1.0	2.0	043_smiling	0.0		174.0358779439348	
24.0	149.09808561818454	pulse	1.0	t		20.0	male	black	2.609629924393156	smiling	043	sub-12	1.0	2.0	043_smiling	0.0		174.73586324369444	
25.0	149.27296414499688	face	0.0		146	21.0	male	east_asian/white	3.501790688420215	smiling	036	sub-12	1.0	2.0	036_smiling	0.0		174.91074177050677	1.2416369366633262
25.0	149.79806488088434	pulse	0.0	t		21.0	male	east_asian/white	3.501790688420215	smiling	036	sub-12	1.0	2.0	036_smiling	0.0		175.43584250639424	
25.0	150.49804142690755	pulse	0.0	t		21.0	male	east_asian/white	3.501790688420215	smiling	036	sub-12	1.0	2.0	036_smiling	0.0		176.13581905241745	
25.0	150.5146010816602	fix	1.0		443	21.0	male	east_asian/white	3.501790688420215	smiling	036	sub-12	1.0	2.0	036_smiling	0.0		176.1523787071701	3.7499803040923325
25.0	151.19802521740212	pulse	1.0	t		21.0	male	east_asian/white	3.501790688420215	smiling	036	sub-12	1.0	2.0	036_smiling	0.0		176.83580284291202	
25.0	151.8980542858444	pulse	1.0	t		21.0	male	east_asian/white	3.501790688420215	smiling	036	sub-12	1.0	2.0	036_smiling	0.0		177.5358319113543	
25.0	152.59799038356778	pulse	1.0	t		21.0	male	east_asian/white	3.501790688420215	smiling	036	sub-12	1.0	2.0	036_smiling	0.0		178.23576800907767	
25.0	153.29796934441447	pulse	1.0	t		21.0	male	east_asian/white	3.501790688420215	smiling	036	sub-12	1.0	2.0	036_smiling	0.0		178.93574696992437	
25.0	153.99794921082048	pulse	1.0	t		21.0	male	east_asian/white	3.501790688420215	smiling	036	sub-12	1.0	2.0	036_smiling	0.0		179.63572683633038	
26.0	154.26458138575254	face	0.0		146	24.0	female	black	3.0955033824114606	smiling	099	sub-12	1.0	2.0	099_smiling	0.0		179.90235901126243	1.2415515122684155
26.0	154.69793632169785	pulse	0.0	t		24.0	female	black	3.0955033824114606	smiling	099	sub-12	1.0	2.0	099_smiling	0.0		180.33571394720775	
26.0	155.3979249418403	pulse	0.0	t		24.0	female	black	3.0955033824114606	smiling	099	sub-12	1.0	2.0	099_smiling	0.0		181.0357025673502	
26.0	155.50613289802095	fix	1.0		444	24.0	female	black	3.0955033824114606	smiling	099	sub-12	1.0	2.0	099_smiling	0.0		181.14391052353085	3.7583672892787945
26.0	156.0979063175114	pulse	1.0	t		24.0	female	black	3.0955033824114606	smiling	099	sub-12	1.0	2.0	099_smiling	0.0		181.7356839430213	
26.0	156.79787199682687	pulse	1.0	t		24.0	female	black	3.0955033824114606	smiling	099	sub-12	1.0	2.0	099_smiling	0.0		182.43564962233677	
26.0	157.49786333364636	pulse	1.0	t		24.0	female	black	3.0955033824114606	smiling	099	sub-12	1.0	2.0	099_smiling	0.0		183.13564095915626	
26.0	158.19784984081798	pulse	1.0	t		24.0	female	black	3.0955033824114606	smiling	099	sub-12	1.0	2.0	099_smiling	0.0		183.83562746632788	
26.0	158.8978592888161	pulse	1.0	t		24.0	female	black	3.0955033824114606	smiling	099	sub-12	1.0	2.0	099_smiling	0.0		184.535636914326	
27.0	159.26450018729975	face	0.0		146	22.0	male	black	2.767608436132113	smiling	044	sub-12	1.0	2.0	044_smiling	0.0		184.90227781280964	1.241500499113954
27.0	159.59780353657015	pulse	0.0	t		22.0	male	black	2.767608436132113	smiling	044	sub-12	1.0	2.0	044_smiling	0.0		185.23558116208005	
27.0	160.2977834029757	pulse	0.0	t		22.0	male	black	2.767608436132113	smiling	044	sub-12	1.0	2.0	044_smiling	0.0		185.9355610284856	
27.0	160.5060006864137	fix	1.0		444	22.0	male	black	2.767608436132113	smiling	044	sub-12	1.0	2.0	044_smiling	0.0		186.1437783119236	3.7665698422906644
27.0	160.99776417494058	pulse	1.0	t		22.0	male	black	2.767608436132113	smiling	044	sub-12	1.0	2.0	044_smiling	0.0		186.63554180045048	
27.0	161.69777030255636	pulse	1.0	t		22.0	male	black	2.767608436132113	smiling	044	sub-12	1.0	2.0	044_smiling	0.0		187.33554792806626	
27.0	162.39773085037132	pulse	1.0	t		22.0	male	black	2.767608436132113	smiling	044	sub-12	1.0	2.0	044_smiling	0.0		188.03550847588122	
27.0	163.0977083019534	pulse	1.0	t		22.0	male	black	2.767608436132113	smiling	044	sub-12	1.0	2.0	044_smiling	0.0		188.7354859274633	
27.0	163.79768877206516	pulse	1.0	t		22.0	male	black	2.767608436132113	smiling	044	sub-12	1.0	2.0	044_smiling	0.0		189.43546639757506	
28.0	164.27257052870436	face	0.0		145	25.0	female	west_asian	2.6756864305610826	neutral	064	sub-12	1.0	2.0	064_neutral	0.0		189.91034815421426	1.2333139443103391
28.0	164.4976776940607	pulse	0.0	t		25.0	female	west_asian	2.6756864305610826	neutral	064	sub-12	1.0	2.0	064_neutral	0.0		190.1354553195706	
28.0	165.19765212711263	pulse	0.0	t		25.0	female	west_asian	2.6756864305610826	neutral	064	sub-12	1.0	2.0	064_neutral	0.0		190.83542975262253	
28.0	165.5058844730147	fix	1.0		444	25.0	female	west_asian	2.6756864305610826	neutral	064	sub-12	1.0	2.0	064_neutral	0.0		191.1436620985246	3.7582857889724437
28.0	165.8976380305785	pulse	1.0	t		25.0	female	west_asian	2.6756864305610826	neutral	064	sub-12	1.0	2.0	064_neutral	0.0		191.5354156560884	
28.0	166.59760974695382	pulse	1.0	t		25.0	female	west_asian	2.6756864305610826	neutral	064	sub-12	1.0	2.0	064_neutral	0.0		192.23538737246372	
28.0	167.2975998763609	pulse	1.0	t		25.0	female	west_asian	2.6756864305610826	neutral	064	sub-12	1.0	2.0	064_neutral	0.0		192.9353775018708	
28.0	167.99757430941327	pulse	1.0	t		25.0	female	west_asian	2.6756864305610826	neutral	064	sub-12	1.0	2.0	064_neutral	0.0		193.63535193492316	
28.0	168.69755538323125	pulse	1.0	t		25.0	female	west_asian	2.6756864305610826	neutral	064	sub-12	1.0	2.0	064_neutral	0.0		194.33533300874115	
29.0	169.26417026198715	face	0.0		146	28.0	male	white	3.9076800636689217	smiling	033	sub-12	1.0	2.0	033_smiling	0.0		194.90194788749704	1.2415647937996255
29.0	169.39754943672733	pulse	0.0	t		28.0	male	white	3.9076800636689217	smiling	033	sub-12	1.0	2.0	033_smiling	0.0		195.03532706223723	
29.0	170.09752054939645	pulse	0.0	t		28.0	male	white	3.9076800636689217	smiling	033	sub-12	1.0	2.0	033_smiling	0.0		195.73529817490635	
29.0	170.50573505578677	fix	1.0		444	28.0	male	white	3.9076800636689217	smiling	033	sub-12	1.0	2.0	033_smiling	0.0		196.14351268129667	3.758314766859712
29.0	170.79750735842117	pulse	1.0	t		28.0	male	white	3.9076800636689217	smiling	033	sub-12	1.0	2.0	033_smiling	0.0		196.43528498393107	
29.0	171.49748511185635	pulse	1.0	t		28.0	male	white	3.9076800636689217	smiling	033	sub-12	1.0	2.0	033_smiling	0.0		197.13526273736625	
29.0	172.1974686004978	pulse	1.0	t		28.0	male	white	3.9076800636689217	smiling	033	sub-12	1.0	2.0	033_smiling	0.0		197.8352462260077	
29.0	172.89748257629117	pulse	1.0	t		28.0	male	white	3.9076800636689217	smiling	033	sub-12	1.0	2.0	033_smiling	0.0		198.53526020180107	
29.0	173.5974361814874	pulse	1.0	t		28.0	male	white	3.9076800636689217	smiling	033	sub-12	1.0	2.0	033_smiling	0.0		199.2352138069973	
30.0	174.26404982264648	face	0.0		146	24.0	female	east_asian	2.9076800636689217	neutral	034	sub-12	1.0	2.0	034_neutral	0.0		199.90182744815638	1.2415509085622034
30.0	174.29742510348296	pulse	0.0	t		24.0	female	east_asian	2.9076800636689217	neutral	034	sub-12	1.0	2.0	034_neutral	0.0		199.93520272899286	
30.0	174.99739410318125	pulse	0.0	t		24.0	female	east_asian	2.9076800636689217	neutral	034	sub-12	1.0	2.0	034_neutral	0.0		200.63517172869115	
30.0	175.5056007312087	fix	1.0		443	24.0	female	east_asian	2.9076800636689217	neutral	034	sub-12	1.0	2.0	034_neutral	0.0		201.14337835671859	3.7582969575332754
30.0	175.69737728997006	pulse	1.0	t		24.0	female	east_asian	2.9076800636689217	neutral	034	sub-12	1.0	2.0	034_neutral	0.0		201.33515491547996	
30.0	176.39735987305266	pulse	1.0	t		24.0	female	east_asian	2.9076800636689217	neutral	034	sub-12	1.0	2.0	034_neutral	0.0		202.03513749856256	
30.0	177.09737083031587	pulse	1.0	t		24.0	female	east_asian	2.9076800636689217	neutral	034	sub-12	1.0	2.0	034_neutral	0.0		202.73514845582577	
30.0	177.7973042113622	pulse	1.0	t		24.0	female	east_asian	2.9076800636689217	neutral	034	sub-12	1.0	2.0	034_neutral	0.0		203.4350818368721	
30.0	178.4973088297129	pulse	1.0	t		24.0	female	east_asian	2.9076800636689217	neutral	034	sub-12	1.0	2.0	034_neutral	0.0		204.1350864552228	
30.0	179.19727782941163	pulse	1.0	t		24.0	female	east_asian	2.9076800636689217	neutral	034	sub-12	1.0	2.0	034_neutral	0.0		204.83505545492153	
31.0	179.26389768874196	face	0.0		147	19.0	male	white	2.243931555909272	smiling	130	sub-12	1.0	2.0	130_smiling	0.0		204.90167531425186	1.2415738493891695
31.0	179.89729754041127	pulse	0.0	t		19.0	male	white	2.243931555909272	smiling	130	sub-12	1.0	2.0	130_smiling	0.0		205.53507516592117	
31.0	180.50547153813113	fix	1.0		443	19.0	male	white	2.243931555909272	smiling	130	sub-12	1.0	2.0	130_smiling	0.0		206.14324916364103	3.758302692740017
31.0	180.5972478252247	pulse	1.0	t		19.0	male	white	2.243931555909272	smiling	130	sub-12	1.0	2.0	130_smiling	0.0		206.2350254507346	
31.0	181.29723071016042	pulse	1.0	t		19.0	male	white	2.243931555909272	smiling	130	sub-12	1.0	2.0	130_smiling	0.0		206.93500833567032	
31.0	181.99721027471332	pulse	1.0	t		19.0	male	white	2.243931555909272	smiling	130	sub-12	1.0	2.0	130_smiling	0.0		207.63498790022322	
31.0	182.69719859300267	pulse	1.0	t		19.0	male	white	2.243931555909272	smiling	130	sub-12	1.0	2.0	130_smiling	0.0		208.33497621851257	
31.0	183.39716970567224	pulse	1.0	t		19.0	male	white	2.243931555909272	smiling	130	sub-12	1.0	2.0	130_smiling	0.0		209.03494733118214	
31.0	184.09714957207825	pulse	1.0	t		19.0	male	white	2.243931555909272	smiling	130	sub-12	1.0	2.0	130_smiling	0.0		209.73492719758815	
32.0	184.26377423087115	face	0.0		147	28.0	female	white	5.676880222841227	smiling	124	sub-12	1.0	2.0	124_smiling	1.0	dominance	209.90155185638105	1.2498992565660956
32.0	184.79713577739676	pulse	0.0	t		28.0	female	white	5.676880222841227	smiling	124	sub-12	1.0	2.0	124_smiling	1.0	dominance	210.43491340290666	
32.0	185.49712983089285	pulse	0.0	t		28.0	female	white	5.676880222841227	smiling	124	sub-12	1.0	2.0	124_smiling	1.0	dominance	211.13490745640274	
32.0	185.51367348743725	fix	1.0		176	28.0	female	white	5.676880222841227	smiling	124	sub-12	1.0	2.0	124_smiling	1.0	dominance	211.15145111294714	1.491615882417591
32.0	186.1970973213265	pulse	1.0	t		28.0	female	white	5.676880222841227	smiling	124	sub-12	1.0	2.0	124_smiling	1.0	dominance	211.8348749468364	
32.0	186.8970783951445	pulse	1.0	t		28.0	female	white	5.676880222841227	smiling	124	sub-12	1.0	2.0	124_smiling	1.0	dominance	212.5348560206544	
32.0	187.00528936985484	rating	2.0		295	28.0	female	white	5.676880222841227	smiling	124	sub-12	1.0	2.0	124_smiling	1.0	dominance	212.64306699536473	2.4999400821825475
32.0	187.59706218563906	pulse	2.0	t		28.0	female	white	5.676880222841227	smiling	124	sub-12	1.0	2.0	124_smiling	1.0	dominance	213.23483981114896	
32.0	188.29704446686856	pulse	2.0	t		28.0	female	white	5.676880222841227	smiling	124	sub-12	1.0	2.0	124_smiling	1.0	dominance	213.93482209237845	
32.0	188.99702403142192	pulse	2.0	t		28.0	female	white	5.676880222841227	smiling	124	sub-12	1.0	2.0	124_smiling	1.0	dominance	214.6348016569318	
32.0	189.4053496197107	response	2.0	n		28.0	female	white	5.676880222841227	smiling	124	sub-12	1.0	2.0	124_smiling	1.0	dominance	215.0431272452206	
32.0	189.50522945203738	fix	3.0		443	28.0	female	white	5.676880222841227	smiling	124	sub-12	1.0	2.0	124_smiling	1.0	dominance	215.14300707754728	3.7665659182021045
32.0	189.69698035329475	pulse	3.0	t		28.0	female	white	5.676880222841227	smiling	124	sub-12	1.0	2.0	124_smiling	1.0	dominance	215.33475797880465	
32.0	190.39698678276318	pulse	3.0	t		28.0	female	white	5.676880222841227	smiling	124	sub-12	1.0	2.0	124_smiling	1.0	dominance	216.03476440827308	
32.0	191.09696453619836	pulse	3.0	t		28.0	female	white	5.676880222841227	smiling	124	sub-12	1.0	2.0	124_smiling	1.0	dominance	216.73474216170825	
32.0	191.7969561748705	pulse	3.0	t		28.0	female	white	5.676880222841227	smiling	124	sub-12	1.0	2.0	124_smiling	1.0	dominance	217.4347338003804	
32.0	192.49693060792288	pulse	3.0	t		28.0	female	white	5.676880222841227	smiling	124	sub-12	1.0	2.0	124_smiling	1.0	dominance	218.13470823343278	
32.0	193.19690956877002	pulse	3.0	t		28.0	female	white	5.676880222841227	smiling	124	sub-12	1.0	2.0	124_smiling	1.0	dominance	218.83468719427992	
33.0	193.2717953702395	face	0.0		146	31.0	female	west_asian	2.364902506963788	smiling	006	sub-12	1.0	2.0	006_smiling	0.0		218.9095729957494	1.233301568337538
33.0	193.8968933592646	pulse	0.0	t		31.0	female	west_asian	2.364902506963788	smiling	006	sub-12	1.0	2.0	006_smiling	0.0		219.5346709847745	
33.0	194.50509693857703	fix	1.0		443	31.0	female	west_asian	2.364902506963788	smiling	006	sub-12	1.0	2.0	006_smiling	0.0		220.14287456408692	3.7583217094779684
33.0	194.59689978873303	pulse	1.0	t		31.0	female	west_asian	2.364902506963788	smiling	006	sub-12	1.0	2.0	006_smiling	0.0		220.23467741424292	
33.0	195.2968494698407	pulse	1.0	t		31.0	female	west_asian	2.364902506963788	smiling	006	sub-12	1.0	2.0	006_smiling	0.0		220.9346270953506	
33.0	195.99686103080967	pulse	1.0	t		31.0	female	west_asian	2.364902506963788	smiling	006	sub-12	1.0	2.0	006_smiling	0.0		221.63463865631957	
33.0	196.69683787868598	pulse	1.0	t		31.0	female	west_asian	2.364902506963788	smiling	006	sub-12	1.0	2.0	006_smiling	0.0		222.33461550419588	
33.0	197.39679993576556	pulse	1.0	t		31.0	female	west_asian	2.364902506963788	smiling	006	sub-12	1.0	2.0	006_smiling	0.0		223.03457756127546	
33.0	198.09677617993566	pulse	1.0	t		31.0	female	west_asian	2.364902506963788	smiling	006	sub-12	1.0	2.0	006_smiling	0.0		223.73455380544556	
34.0	198.263418648055	face	0.0		147	40.0	female	west_asian	1.5777954635893354	neutral	038	sub-12	1.0	2.0	038_neutral	0.0		223.9011962735649	1.2498898991234455
34.0	198.79676117784265	pulse	0.0	t		40.0	female	west_asian	1.5777954635893354	neutral	038	sub-12	1.0	2.0	038_neutral	0.0		224.43453880335255	
34.0	199.49674164795442	pulse	0.0	t		40.0	female	west_asian	1.5777954635893354	neutral	038	sub-12	1.0	2.0	038_neutral	0.0		225.13451927346432	
34.0	199.51330854717844	fix	1.0		443	40.0	female	west_asian	1.5777954635893354	neutral	038	sub-12	1.0	2.0	038_neutral	0.0		225.15108617268834	3.7499914726531642
34.0	200.1967221180662	pulse	1.0	t		40.0	female	west_asian	1.5777954635893354	neutral	038	sub-12	1.0	2.0	038_neutral	0.0		225.8344997435761	
34.0	200.896705304855	pulse	1.0	t		40.0	female	west_asian	1.5777954635893354	neutral	038	sub-12	1.0	2.0	038_neutral	0.0		226.5344829303649	
34.0	201.59668215273086	pulse	1.0	t		40.0	female	west_asian	1.5777954635893354	neutral	038	sub-12	1.0	2.0	038_neutral	0.0		227.23445977824076	
34.0	202.29667741363892	pulse	1.0	t		40.0	female	west_asian	1.5777954635893354	neutral	038	sub-12	1.0	2.0	038_neutral	0.0		227.93445503914882	
34.0	202.99665033742622	pulse	1.0	t		40.0	female	west_asian	1.5777954635893354	neutral	038	sub-12	1.0	2.0	038_neutral	0.0		228.63442796293612	
35.0	203.2633000198316	face	0.0		146	19.0	female	white	4.298846000795861	smiling	100	sub-12	1.0	2.0	100_smiling	0.0		228.9010776453415	1.2415288732945555
35.0	203.6966317130973	pulse	0.0	t		19.0	female	white	4.298846000795861	smiling	100	sub-12	1.0	2.0	100_smiling	0.0		229.3344093386072	
35.0	204.39661278691483	pulse	0.0	t		19.0	female	white	4.298846000795861	smiling	100	sub-12	1.0	2.0	100_smiling	0.0		230.03439041242473	
35.0	204.50482889312616	fix	1.0		444	19.0	female	white	4.298846000795861	smiling	100	sub-12	1.0	2.0	100_smiling	0.0		230.14260651863606	3.7582987686510023
35.0	205.09659627555675	pulse	1.0	t		19.0	female	white	4.298846000795861	smiling	100	sub-12	1.0	2.0	100_smiling	0.0		230.73437390106665	
35.0	205.7965812734633	pulse	1.0	t		19.0	female	white	4.298846000795861	smiling	100	sub-12	1.0	2.0	100_smiling	0.0		231.4343588989732	
35.0	206.49654997130892	pulse	1.0	t		19.0	female	white	4.298846000795861	smiling	100	sub-12	1.0	2.0	100_smiling	0.0		232.13432759681882	
35.0	207.1965376858925	pulse	1.0	t		19.0	female	white	4.298846000795861	smiling	100	sub-12	1.0	2.0	100_smiling	0.0		232.8343153114024	
35.0	207.8965453227729	pulse	1.0	t		19.0	female	white	4.298846000795861	smiling	100	sub-12	1.0	2.0	100_smiling	0.0		233.5343229482828	
36.0	208.26312766177716	face	0.0		146	19.0	female	white	4.298846000795861	neutral	100	sub-12	1.0	2.0	100_neutral	0.0		233.90090528728706	1.2415699253006096
36.0	208.59650315391082	pulse	0.0	t		19.0	female	white	4.298846000795861	neutral	100	sub-12	1.0	2.0	100_neutral	0.0		234.23428077942071	
36.0	209.2964845295819	pulse	0.0	t		19.0	female	white	4.298846000795861	neutral	100	sub-12	1.0	2.0	100_neutral	0.0		234.9342621550918	
36.0	209.50469758707777	fix	1.0		444	19.0	female	white	4.298846000795861	neutral	100	sub-12	1.0	2.0	100_neutral	0.0		235.14247521258767	3.766569238584907
36.0	209.99646107560466	pulse	1.0	t		19.0	female	white	4.298846000795861	neutral	100	sub-12	1.0	2.0	100_neutral	0.0		235.63423870111455	
36.0	210.69644486609968	pulse	1.0	t		19.0	female	white	4.298846000795861	neutral	100	sub-12	1.0	2.0	100_neutral	0.0		236.33422249160958	
36.0	211.3964196010047	pulse	1.0	t		19.0	female	white	4.298846000795861	neutral	100	sub-12	1.0	2.0	100_neutral	0.0		237.0341972265146	
36.0	212.09640158038155	pulse	1.0	t		19.0	female	white	4.298846000795861	neutral	100	sub-12	1.0	2.0	100_neutral	0.0		237.73417920589145	
36.0	212.79639865240733	pulse	1.0	t		19.0	female	white	4.298846000795861	neutral	100	sub-12	1.0	2.0	100_neutral	0.0		238.43417627791723	
37.0	213.27126682566268	face	0.0		145	31.0	male	west_asian	1.9538400318344609	smiling	070	sub-12	1.0	2.0	070_smiling	0.0		238.90904445117258	1.2332891923651914
37.0	213.49639300775652	pulse	0.0	t		31.0	male	west_asian	1.9538400318344609	smiling	070	sub-12	1.0	2.0	070_smiling	0.0		239.13417063326642	
37.0	214.19635114074754	pulse	0.0	t		31.0	male	west_asian	1.9538400318344609	smiling	070	sub-12	1.0	2.0	070_smiling	0.0		239.83412876625744	
37.0	214.50455601802787	fix	1.0		444	31.0	male	west_asian	1.9538400318344609	smiling	070	sub-12	1.0	2.0	070_smiling	0.0		240.14233364353777	3.766564408937029
37.0	214.89635424983362	pulse	1.0	t		31.0	male	west_asian	1.9538400318344609	smiling	070	sub-12	1.0	2.0	070_smiling	0.0		240.53413187534352	
37.0	215.59638875162955	pulse	1.0	t		31.0	male	west_asian	1.9538400318344609	smiling	070	sub-12	1.0	2.0	070_smiling	0.0		241.23416637713945	
37.0	216.29630704002648	pulse	1.0	t		31.0	male	west_asian	1.9538400318344609	smiling	070	sub-12	1.0	2.0	070_smiling	0.0		241.93408466553637	
37.0	216.99628268049082	pulse	1.0	t		31.0	male	west_asian	1.9538400318344609	smiling	070	sub-12	1.0	2.0	070_smiling	0.0		242.63406030600072	
37.0	217.69625560427812	pulse	1.0	t		31.0	male	west_asian	1.9538400318344609	smiling	070	sub-12	1.0	2.0	070_smiling	0.0		243.33403322978802	
38.0	218.2711204269649	face	0.0		145	47.0	male	east_asian	2.171110226820533	neutral	024	sub-12	1.0	2.0	024_neutral	0.0		243.9088980524748	1.2333193776639746
38.0	218.39624422442057	pulse	0.0	t		47.0	male	east_asian	2.171110226820533	neutral	024	sub-12	1.0	2.0	024_neutral	0.0		244.03402184993047	
38.0	219.09624944647703	pulse	0.0	t		47.0	male	east_asian	2.171110226820533	neutral	024	sub-12	1.0	2.0	024_neutral	0.0		244.73402707198693	
38.0	219.50443980462887	fix	1.0		444	47.0	male	east_asian	2.171110226820533	neutral	024	sub-12	1.0	2.0	024_neutral	0.0		245.14221743013877	3.7583280483904673
38.0	219.79624349997312	pulse	1.0	t		47.0	male	east_asian	2.171110226820533	neutral	024	sub-12	1.0	2.0	024_neutral	0.0		245.434021125483	
38.0	220.49618895513913	pulse	1.0	t		47.0	male	east_asian	2.171110226820533	neutral	024	sub-12	1.0	2.0	024_neutral	0.0		246.13396658064903	
38.0	221.19616701042696	pulse	1.0	t		47.0	male	east_asian	2.171110226820533	neutral	024	sub-12	1.0	2.0	024_neutral	0.0		246.83394463593686	
38.0	221.896180080661	pulse	1.0	t		47.0	male	east_asian	2.171110226820533	neutral	024	sub-12	1.0	2.0	024_neutral	0.0		247.5339577061709	
38.0	222.59616266374405	pulse	1.0	t		47.0	male	east_asian	2.171110226820533	neutral	024	sub-12	1.0	2.0	024_neutral	0.0		248.23394028925395	
39.0	223.26276785301934	face	0.0		146	24.0	male	white	3.1153999204138483	neutral	012	sub-12	1.0	2.0	012_neutral	1.0	attractiveness	248.90054547852924	1.241532193677358
39.0	223.29613558753135	pulse	0.0	t		24.0	male	white	3.1153999204138483	neutral	012	sub-12	1.0	2.0	012_neutral	1.0	attractiveness	248.93391321304125	
39.0	223.9960988520229	pulse	0.0	t		24.0	male	white	3.1153999204138483	neutral	012	sub-12	1.0	2.0	012_neutral	1.0	attractiveness	249.6338764775328	
39.0	224.5043000466967	fix	1.0		177	24.0	male	white	3.1153999204138483	neutral	012	sub-12	1.0	2.0	012_neutral	1.0	attractiveness	250.1420776722066	1.499961513744438
39.0	224.69607388878103	pulse	1.0	t		24.0	male	white	3.1153999204138483	neutral	012	sub-12	1.0	2.0	012_neutral	1.0	attractiveness	250.33385151429093	
39.0	225.3960546607459	pulse	1.0	t		24.0	male	white	3.1153999204138483	neutral	012	sub-12	1.0	2.0	012_neutral	1.0	attractiveness	251.0338322862558	
39.0	226.00426156044114	rating	2.0		294	24.0	male	white	3.1153999204138483	neutral	012	sub-12	1.0	2.0	012_neutral	1.0	attractiveness	251.64203918595103	2.4999461192419403
39.0	226.09604026235866	pulse	2.0	t		24.0	male	white	3.1153999204138483	neutral	012	sub-12	1.0	2.0	012_neutral	1.0	attractiveness	251.73381788786855	
39.0	226.7960249584121	pulse	2.0	t		24.0	male	white	3.1153999204138483	neutral	012	sub-12	1.0	2.0	012_neutral	1.0	attractiveness	252.433802583922	
39.0	227.4960048248181	pulse	2.0	t		24.0	male	white	3.1153999204138483	neutral	012	sub-12	1.0	2.0	012_neutral	1.0	attractiveness	253.133782450328	
39.0	228.19600159499123	pulse	2.0	t		24.0	male	white	3.1153999204138483	neutral	012	sub-12	1.0	2.0	012_neutral	1.0	attractiveness	253.83377922050113	
39.0	228.39596893449834	response	2.0	b		24.0	male	white	3.1153999204138483	neutral	012	sub-12	1.0	2.0	012_neutral	1.0	attractiveness	254.03374656000824	
39.0	228.50420767968308	fix	3.0		444	24.0	male	white	3.1153999204138483	neutral	012	sub-12	1.0	2.0	012_neutral	1.0	attractiveness	254.14198530519297	3.7498855222556813
39.0	228.8959636520708	pulse	3.0	t		24.0	male	white	3.1153999204138483	neutral	012	sub-12	1.0	2.0	012_neutral	1.0	attractiveness	254.5337412775807	
39.0	229.59593868882894	pulse	3.0	t		24.0	male	white	3.1153999204138483	neutral	012	sub-12	1.0	2.0	012_neutral	1.0	attractiveness	255.23371631433884	
39.0	230.29591976264692	pulse	3.0	t		24.0	male	white	3.1153999204138483	neutral	012	sub-12	1.0	2.0	012_neutral	1.0	attractiveness	255.93369738815682	
39.0	230.9959035531415	pulse	3.0	t		24.0	male	white	3.1153999204138483	neutral	012	sub-12	1.0	2.0	012_neutral	1.0	attractiveness	256.6336811786514	
39.0	231.69589307884326	pulse	3.0	t		24.0	male	white	3.1153999204138483	neutral	012	sub-12	1.0	2.0	012_neutral	1.0	attractiveness	257.33367070435315	
40.0	232.25409320193876	fix	0.0		720													257.89187082744866	5.999851488331387
40.0	232.39588351010343	pulse	0.0	t														258.03366113561333	
40.0	233.0958491894189	pulse	0.0	t														258.7336268149288	
40.0	233.7958302632369	pulse	0.0	t														259.4336078887468	
40.0	234.49580379072995	pulse	0.0	t														260.13358141623985	
40.0	235.19579090160778	pulse	0.0	t														260.8335685271177	
40.0	235.89577257913152	pulse	0.0	t														261.5335502046414	
40.0	236.59574731403654	pulse	0.0	t														262.23352493954644	
40.0	237.29576068612414	pulse	0.0	t														262.93353831163404	
40.0	237.99574598588333	pulse	0.0	t														263.63352361139323	
