trial_nr	onset	event_type	phase	response	nr_frames	trial_type	stim_name	task_probe	onset_abs	duration
0.0	0.06040621563624882	baseline	0.0		40.0		baseline	0.0	93.75884391514228	0.3413700684395735
0.0	0.40177628407582233	ISI	1.0		11.0		baseline	0.0	94.10021398358185	0.09999574387256871
1.0	0.501772027948391	baseline	0.0		48.0		baseline	0.0	94.20020972745442	0.39999203108163783
1.0	0.7018755031513138	pulse	0.0	t			baseline	0.0	94.40031320265734	
1.0	0.9017640590300289	ISI	1.0		11.0		baseline	0.0	94.60020175853606	0.10004253108490957
2.0	1.0018065901149384	baseline	0.0		48.0		baseline	0.0	94.70024428962097	0.39992622713180026
2.0	1.4017328172467387	ISI	1.0		11.0		baseline	0.0	95.10017051675277	0.09999483831234102
2.0	1.4062584990479081	pulse	1.0	t			baseline	0.0	95.10469619855394	
3.0	1.5017276555590797	baseline	0.0		48.0		baseline	0.0	95.20016535506511	0.3999787495504279
3.0	1.9017064051095076	ISI	1.0		11.0		baseline	0.0	95.60014410461554	0.09999996981423465
4.0	2.0017063749237423	baseline	0.0		48.0		baseline	0.0	95.70014407442977	0.4000059163190599
4.0	2.1019457141555904	pulse	0.0	t			baseline	0.0	95.80038341366162	
4.0	2.401712291242802	ISI	1.0		11.0		baseline	0.0	96.10014999074883	0.09998548087241943
5.0	2.5016977721152216	baseline	0.0		48.0		baseline	0.0	96.20013547162125	0.399992634786031
5.0	2.801806046780257	pulse	0.0	t			baseline	0.0	96.50024374628629	
5.0	2.9016904069012526	ISI	1.0		11.0		baseline	0.0	96.60012810640728	0.09999453646196343
6.0	3.001684943363216	baseline	0.0		48.0		baseline	0.0	96.70012264286925	0.3999923329338344
6.0	3.4016772762970504	ISI	1.0		11.0		baseline	0.0	97.10011497580308	0.09999664943097741
7.0	3.501673925728028	baseline	0.0		47.0		baseline	0.0	97.20011162523406	0.39998931440459273
7.0	3.5056780055729178	pulse	0.0	t			baseline	0.0	97.20411570507895	
7.0	3.9016632401326206	ISI	1.0		11.0		baseline	0.0	97.60010093963865	0.09999514016635658
8.0	4.001658380298977	baseline	0.0		48.0		baseline	0.0	97.70009607980501	0.3999902199648204
8.0	4.20176879812243	pulse	0.0	t			baseline	0.0	97.90020649762846	
8.0	4.401648600263798	ISI	1.0		11.0		baseline	0.0	98.10008629976983	0.09999936610802251
9.0	4.50164796637182	baseline	0.0		48.0		baseline	0.0	98.20008566587785	0.39998810699216847
9.0	4.9016360733639885	ISI	1.0		11.0		baseline	0.0	98.60007377287002	0.09999634757878084
9.0	4.906124929102589	pulse	1.0	t			baseline	0.0	98.60456262860862	
10.0	5.001632420942769	baseline	0.0		48.0		baseline	0.0	98.7000701204488	0.3999887106983806
10.0	5.40162113164115	ISI	1.0		11.0		baseline	0.0	99.10005883114718	0.09999785684340168
11.0	5.501618988484552	baseline	0.0		48.0		baseline	0.0	99.20005668799058	0.3999878051399719
11.0	5.6017484532312665	pulse	0.0	t			baseline	0.0	99.3001861527373	
11.0	5.901606793624524	ISI	1.0		5.0		baseline	0.0	99.60004449313055	0.1250009432915249
12.0	6.0266077369160485	word	0.0		45.0	character	word-143.jpg	0.0	99.72504543642208	0.37494125186276506
12.0	6.301663119391378	pulse	0.0	t		character	word-143.jpg	0.0	100.00010081889741	
12.0	6.4015489887788135	ISI	1.0		8.0	character	word-143.jpg	0.0	100.09998668828484	0.11668428984921775
13.0	6.518233278628031	word	0.0		46.0	character	word-14.jpg	0.0	100.21667097813406	0.3833034851049888
13.0	6.90153676373302	ISI	1.0		7.0	character	word-14.jpg	0.0	100.59997446323905	0.11670089176368492
14.0	7.018237655496705	word	0.0		45.0	character	word-6.jpg	0.0	100.71667535500274	0.3832787331593863
14.0	7.0101024156992935	pulse	0.0	t		character	word-6.jpg	0.0	100.70854011520532	
14.0	7.401516388656091	ISI	1.0		7.0	character	word-6.jpg	0.0	101.09995408816212	0.11668791208467155
15.0	7.518204300740763	word	0.0		46.0	character	word-42.jpg	0.0	101.2166420002468	0.38331042772369983
15.0	7.701631304087641	pulse	0.0	t		character	word-42.jpg	0.0	101.40006900359367	
15.0	7.901514728464463	ISI	1.0		5.0	character	word-42.jpg	0.0	101.59995242797049	0.11666134902225167
16.0	8.018176077486714	word	0.0		46.0	character	word-21.jpg	0.0	101.71661377699274	0.38331193698832067
16.0	8.401488014475035	ISI	1.0		7.0	character	word-21.jpg	0.0	102.09992571398107	0.11669123246792878
16.0	8.43963679841545	pulse	1.0	t		character	word-21.jpg	0.0	102.13807449792148	
17.0	8.518179246942964	word	0.0		46.0	character	word-110.jpg	0.0	102.216616946449	0.38329835360491415
17.0	8.901477600547878	ISI	1.0		4.0	character	word-110.jpg	0.0	102.59991530005391	0.10833533814002294
18.0	9.009812938687901	word	0.0		47.0	character	word-75.jpg	0.0	102.70825063819393	0.3916536442247889
18.0	9.101595564694435	pulse	0.0	t		character	word-75.jpg	0.0	102.80003326420047	
18.0	9.40146658291269	ISI	1.0		6.0	character	word-75.jpg	0.0	103.09990428241872	0.10835224190850568
19.0	9.509818824821195	word	0.0		47.0	character	word-128.jpg	0.0	103.20825652432723	0.3916343256332766
19.0	9.801568790333476	pulse	0.0	t		character	word-128.jpg	0.0	103.5000064898395	
19.0	9.901453150454472	ISI	1.0		6.0	character	word-128.jpg	0.0	103.5998908499605	0.10835133635009697
20.0	10.009804486804569	word	0.0		47.0	character	word-65.jpg	0.0	103.7082421863106	0.3916343256332766
20.0	10.401438812437846	ISI	1.0		4.0	character	word-65.jpg	0.0	104.09987651194388	0.10842921441872022
21.0	10.509868026856566	word	0.0		46.0	character	word-45.jpg	0.0	104.2083057263626	0.3915476938291249
21.0	10.50553734208188	pulse	0.0	t		character	word-45.jpg	0.0	104.20397504158791	
21.0	10.90141572068569	ISI	1.0		6.0	character	word-45.jpg	0.0	104.59985342019172	0.10836129749623069
22.0	11.009777018181921	word	0.0		47.0	character	word-61.jpg	0.0	104.70821471768795	0.39163311822267133
22.0	11.201536673175724	pulse	0.0	t		character	word-61.jpg	0.0	104.89997437268175	
22.0	11.401410136404593	ISI	1.0		4.0	character	word-61.jpg	0.0	105.09984783591062	0.1083410733481287
23.0	11.509751209752721	word	0.0		47.0	character	word-37.jpg	0.0	105.20818890925875	0.39164639975388127
23.0	11.901397609506603	ISI	1.0		6.0	character	word-37.jpg	0.0	105.59983530901263	0.11668730838027841
23.0	11.943033399127671	pulse	1.0	t		character	word-37.jpg	0.0	105.6414710986337	
24.0	12.018084917886881	word	0.0		46.0	character	word-114.jpg	0.0	105.71652261739291	0.38333035001960525
24.0	12.401415267906486	ISI	1.0		7.0	character	word-114.jpg	0.0	106.09985296741252	0.11668821393868711
25.0	12.518103481845174	word	0.0		46.0	character	word-109.jpg	0.0	106.2165411813512	0.38328295910105226
25.0	12.601527194992741	pulse	0.0	t		character	word-109.jpg	0.0	106.29996489449877	
25.0	12.901386440946226	ISI	1.0		7.0	character	word-109.jpg	0.0	106.59982414045226	0.11672051220739377
26.0	13.01810695315362	word	0.0		46.0	character	word-109.jpg	1.0	106.71654465265965	0.383281751688628
26.0	13.301504646575268	pulse	0.0	t		character	word-109.jpg	1.0	106.9999423460813	
26.0	13.401388704842248	ISI	1.0		7.0	character	word-109.jpg	1.0	107.09982640434828	0.11669032691133907
27.0	13.518079031753587	word	0.0		45.0	character	word-23.jpg	0.0	107.21651673125962	0.38328748689491476
27.0	13.522395227584639	response	0.0	b		character	word-23.jpg	0.0	107.22083292709067	
27.0	13.901366518648501	ISI	1.0		7.0	character	word-23.jpg	0.0	107.59980421815453	0.11668761023247498
28.0	14.018054128880976	word	0.0		45.0	character	word-96.jpg	0.0	107.716491828387	0.38330861660506343
28.0	14.010330012850318	pulse	0.0	t		character	word-96.jpg	0.0	107.70876771235635	
28.0	14.40136274548604	ISI	1.0		7.0	character	word-96.jpg	0.0	108.09980044499207	0.1166864028218697
29.0	14.51804914830791	word	0.0		46.0	character	word-118.jpg	0.0	108.21648684781394	0.38326847015741805
29.0	14.701435401499111	pulse	0.0	t		character	word-118.jpg	0.0	108.39987310100514	
29.0	14.901317618465328	ISI	1.0		7.0	character	word-118.jpg	0.0	108.59975531797136	0.11668549726164201
30.0	15.01800311572697	word	0.0		46.0	character	word-98.jpg	0.0	108.716440815233	0.383299862867716
30.0	15.401302978594686	ISI	1.0		4.0	character	word-98.jpg	0.0	109.09974067810072	0.1166891194989148
30.0	15.459588073306804	pulse	1.0	t		character	word-98.jpg	0.0	109.15802577281283	
31.0	15.5179920980936	word	0.0		46.0	character	word-127.jpg	0.0	109.21642979759963	0.3832971461906709
31.0	15.901289244284271	ISI	1.0		7.0	character	word-127.jpg	0.0	109.5997269437903	0.11668791208649054
32.0	16.017977156370762	word	0.0		46.0	character	word-16.jpg	0.0	109.71641485587679	0.38329956101551943
32.0	16.10141807513901	pulse	0.0	t		character	word-16.jpg	0.0	109.79985577464504	
32.0	16.40127671738628	ISI	1.0		7.0	character	word-16.jpg	0.0	110.09971441689231	0.11667523425967374
33.0	16.517951951645955	word	0.0		46.0	character	word-125.jpg	0.0	110.21638965115199	0.383311031428093
33.0	16.801380132217673	pulse	0.0	t		character	word-125.jpg	0.0	110.4998178317237	
33.0	16.901262983074048	ISI	1.0		7.0	character	word-125.jpg	0.0	110.59970068258008	0.1166864028218697
34.0	17.017949385895918	word	0.0		46.0	character	word-82.jpg	0.0	110.71638708540195	0.38330107028014027
34.0	17.401250456176058	ISI	1.0		8.0	character	word-82.jpg	0.0	111.09968815568209	0.11668066761376394
35.0	17.517931123789822	word	0.0		45.0	character	word-30.jpg	0.0	111.21636882329585	0.38330559807582176
35.0	17.50996914760617	pulse	0.0	t		character	word-30.jpg	0.0	111.2084068471122	
35.0	17.901236721865644	ISI	1.0		7.0	character	word-30.jpg	0.0	111.59967442137167	0.11668368614300562
36.0	18.01792040800865	body	0.0		46.0	body	body-38.jpg	0.0	111.71635810751468	0.3833025795465801
36.0	18.201344694678482	pulse	0.0	t		body	body-38.jpg	0.0	111.89978239418451	
36.0	18.40122298755523	ISI	1.0		8.0	body	body-38.jpg	0.0	112.09966068706126	0.11669093061573221
37.0	18.51791391817096	body	0.0		46.0	body	body-21.jpg	0.0	112.21635161767699	0.38329654248445877
37.0	18.90121046065542	ISI	1.0		8.0	body	body-21.jpg	0.0	112.59964816016145	0.11669394914497389
37.0	18.932854916476572	pulse	1.0	t		body	body-21.jpg	0.0	112.6312926159826	
38.0	19.017904409800394	body	0.0		46.0	body	body-19.jpg	0.0	112.71634210930642	0.38329201469059626
38.0	19.40119642449099	ISI	1.0		8.0	body	body-19.jpg	0.0	113.09963412399702	0.1166728194366442
39.0	19.517869243927635	body	0.0		46.0	body	body-31.jpg	0.0	113.21630694343366	0.3833125406945328
39.0	19.60131952013944	pulse	0.0	t		body	body-31.jpg	0.0	113.29975721964547	
39.0	19.901181784622167	ISI	1.0		8.0	body	body-31.jpg	0.0	113.5996194841282	0.11668127131997608
40.0	20.017863055942144	body	0.0		46.0	body	body-109.jpg	0.0	113.71630075544817	0.3833052962218062
40.0	20.301285501307575	pulse	0.0	t		body	body-109.jpg	0.0	113.9997232008136	
40.0	20.40116835216395	ISI	1.0		8.0	body	body-109.jpg	0.0	114.09960605166998	0.11668610096785414
41.0	20.517854453131804	body	0.0		46.0	body	body-140.jpg	0.0	114.21629215263783	0.38333306669665035
41.0	20.901187519828454	ISI	1.0		8.0	body	body-140.jpg	0.0	114.59962521933448	0.11668278058459691
42.0	21.01787030041305	body	0.0		45.0	body	body-93.jpg	0.0	114.71630799991908	0.3833052962218062
42.0	21.01018693453625	pulse	0.0	t		body	body-93.jpg	0.0	114.70862463404228	
42.0	21.05961143672721	response	0.0	b		body	body-93.jpg	0.0	114.75804913623324	
42.0	21.401175596634857	ISI	1.0		7.0	body	body-93.jpg	0.0	115.09961329614089	0.1166836861448246
43.0	21.517859282779682	body	0.0		46.0	body	body-135.jpg	0.0	115.21629698228571	0.3832672627468128
43.0	21.70121685993945	pulse	0.0	t		body	body-135.jpg	0.0	115.39965455944548	
43.0	21.901126545526495	ISI	1.0		7.0	body	body-135.jpg	0.0	115.59956424503252	0.11668700652626285
44.0	22.017813552052758	body	0.0		46.0	body	body-47.jpg	0.0	115.71625125155879	0.38330288139877666
44.0	22.401116433451534	ISI	1.0		7.0	body	body-47.jpg	0.0	116.09955413295756	0.11672685111989267
44.0	22.43525027083888	pulse	1.0	t		body	body-47.jpg	0.0	116.13368797034491	
45.0	22.517843284571427	body	0.0		46.0	body	body-74.jpg	0.0	116.21628098407746	0.38325850900946534
45.0	22.901101793580892	ISI	1.0		7.0	body	body-74.jpg	0.0	116.59953949308692	0.11668398799702118
46.0	23.017785781577913	body	0.0		46.0	body	body-74.jpg	1.0	116.71622348108394	0.38330318325097323
46.0	23.10121432437336	pulse	0.0	t		body	body-74.jpg	1.0	116.79965202387939	
46.0	23.401088964828887	ISI	1.0		7.0	body	body-74.jpg	1.0	117.09952666433492	0.11668791208649054
47.0	23.517776876915377	body	0.0		46.0	body	body-138.jpg	0.0	117.21621457642141	0.38329835360309517
47.0	23.642867168689918	response	0.0	b		body	body-138.jpg	0.0	117.34130486819595	
47.0	23.80118060739551	pulse	0.0	t		body	body-138.jpg	0.0	117.49961830690154	
47.0	23.901075230518472	ISI	1.0		7.0	body	body-138.jpg	0.0	117.5995129300245	0.10834379002335481
48.0	24.009419020541827	body	0.0		47.0	body	body-142.jpg	0.0	117.70785672004786	0.39163855157676153
48.0	24.40105757211859	ISI	1.0		6.0	body	body-142.jpg	0.0	118.09949527162462	0.10835163820229354
49.0	24.509409210320882	body	0.0		46.0	body	body-101.jpg	0.0	118.20784690982691	0.3915996125415404
49.0	24.50500728824045	pulse	0.0	t		body	body-101.jpg	0.0	118.20344498774648	
49.0	24.901008822862423	ISI	1.0		6.0	body	body-101.jpg	0.0	118.59944652236845	0.1083902753834991
50.0	25.009399098245922	body	0.0		47.0	body	body-84.jpg	0.0	118.70783679775195	0.39163100525183836
50.0	25.201144868002302	pulse	0.0	t		body	body-84.jpg	0.0	118.89958256750833	
50.0	25.40103010349776	ISI	1.0		6.0	body	body-84.jpg	0.0	119.09946780300379	0.10835978823160985
51.0	25.50938989172937	body	0.0		47.0	body	body-95.jpg	0.0	119.2078275912354	0.3916343256350956
51.0	25.901024217364466	ISI	1.0		6.0	body	body-95.jpg	0.0	119.5994619168705	0.10837488088145619
51.0	25.942680834841667	pulse	1.0	t		body	body-95.jpg	0.0	119.6411185343477	
52.0	26.009399098245922	body	0.0		47.0	body	body-68.jpg	0.0	119.70783679775195	0.391608969983281
52.0	26.401008068229203	ISI	1.0		6.0	body	body-68.jpg	0.0	120.09944576773523	0.10838152164615167
53.0	26.509389589875354	body	0.0		47.0	body	body-119.jpg	0.0	120.20782728938138	0.39160474404343404
53.0	26.6011166749322	pulse	0.0	t		body	body-119.jpg	0.0	120.29955437443823	
53.0	26.90099433391879	ISI	1.0		6.0	body	body-119.jpg	0.0	120.59943203342482	0.1166701027595991
54.0	27.017664436678388	body	0.0		46.0	body	body-25.jpg	0.0	120.71610213618442	0.3833146536635468
54.0	27.30110318210427	pulse	0.0	t		body	body-25.jpg	0.0	120.9995408816103	
54.0	27.400979090341934	ISI	1.0		7.0	body	body-25.jpg	0.0	121.09941678984796	0.11668670467406628
55.0	27.517665795016	body	0.0		46.0	body	body-114.jpg	0.0	121.21610349452203	0.3833297463133931
55.0	27.900995541329394	ISI	1.0		7.0	body	body-114.jpg	0.0	121.59943324083542	0.11668579911565757
56.0	28.01768134044505	body	0.0		45.0	body	body-8.jpg	0.0	121.71611903995108	0.38330318325097323
56.0	28.008844594311086	pulse	0.0	t		body	body-8.jpg	0.0	121.70728229381712	
56.0	28.400984523696025	ISI	1.0		7.0	body	body-8.jpg	0.0	122.09942222320205	0.11669153432194435
57.0	28.51767605801797	body	0.0		46.0	body	body-129.jpg	0.0	122.216113757524	0.3832642442157521
57.0	28.70106231121099	pulse	0.0	t		body	body-129.jpg	0.0	122.39950001071702	
57.0	28.90094030223372	ISI	1.0		8.0	body	body-129.jpg	0.0	122.59937800173975	0.11668519540944544
58.0	29.017625497643166	body	0.0		46.0	body	body-96.jpg	0.0	122.7160631971492	0.3833025795447611
58.0	29.400928077187928	ISI	1.0		7.0	body	body-96.jpg	0.0	123.09936577669396	0.11668579911565757
58.0	29.434280417197442	pulse	1.0	t		body	body-96.jpg	0.0	123.13271811670347	
59.0	29.517613876303585	body	0.0		46.0	body	body-130.jpg	0.0	123.21605157580962	0.3832980517490796
59.0	29.900911928052665	ISI	1.0		8.0	body	body-130.jpg	0.0	123.5993496275587	0.11668398799702118
60.0	30.017595916049686	adult	0.0		46.0	face	adult-48.jpg	0.0	123.71603361555572	0.3833043906633975
60.0	30.10102385514074	pulse	0.0	t		face	adult-48.jpg	0.0	123.79946155464677	
60.0	30.400900306713083	ISI	1.0		8.0	face	adult-48.jpg	0.0	124.09933800621911	0.1166864028218697
61.0	30.517586709534953	adult	0.0		46.0	face	adult-44.jpg	0.0	124.21602440904098	0.383299862867716
61.0	30.80100341969228	pulse	0.0	t		face	adult-44.jpg	0.0	124.49944111919831	
61.0	30.90088657240267	ISI	1.0		8.0	face	adult-44.jpg	0.0	124.5993242719087	0.11668398799702118
62.0	31.01757056039969	adult	0.0		46.0	face	adult-106.jpg	0.0	124.71600825990572	0.38330046657392813
62.0	31.40087102697362	ISI	1.0		8.0	face	adult-106.jpg	0.0	125.09930872647965	0.11667915834914311
63.0	31.51755018532276	adult	0.0		45.0	face	adult-20.jpg	0.0	125.21598788482879	0.38330922031127557
63.0	31.509082907243283	pulse	0.0	t		face	adult-20.jpg	0.0	125.20752060674931	
63.0	31.900859405634037	ISI	1.0		7.0	face	adult-20.jpg	0.0	125.59929710514007	0.11671658811974339
64.0	32.01757599375378	adult	0.0		46.0	face	adult-69.jpg	0.0	125.71601369325981	0.38327118683446315
64.0	32.20096526547604	pulse	0.0	t		face	adult-69.jpg	0.0	125.89940296498207	
64.0	32.400847180588244	ISI	1.0		7.0	face	adult-69.jpg	0.0	126.09928488009427	0.11668308243861247
65.0	32.517530263026856	adult	0.0		46.0	face	adult-116.jpg	0.0	126.21596796253289	0.38330046657392813
65.0	32.900830729600784	ISI	1.0		7.0	face	adult-116.jpg	0.0	126.59926842910681	0.11668942135111138
65.0	32.93594589104214	pulse	1.0	t		face	adult-116.jpg	0.0	126.63438359054817	
66.0	33.017520150951896	adult	0.0		46.0	face	adult-140.jpg	0.0	126.71595785045793	0.38329925916150387
66.0	33.4008194101134	ISI	1.0		7.0	face	adult-140.jpg	0.0	127.09925710961943	0.11667946020315867
67.0	33.51749887031656	adult	0.0		46.0	face	adult-127.jpg	0.0	127.21593656982259	0.3833065036324115
67.0	33.60092831867041	pulse	0.0	t		face	adult-127.jpg	0.0	127.29936601817644	
67.0	33.90080537394897	ISI	1.0		7.0	face	adult-127.jpg	0.0	127.599243073455	0.11666980090740253
68.0	34.01747517485637	adult	0.0		46.0	face	adult-29.jpg	0.0	127.7159128743624	0.3833164647821832
68.0	34.300894299838546	pulse	0.0	t		face	adult-29.jpg	0.0	127.99933199934458	
68.0	34.400791639638555	ISI	1.0		7.0	face	adult-29.jpg	0.0	128.09922933914459	0.11666497125952446
69.0	34.51745661089808	adult	0.0		46.0	face	adult-46.jpg	0.0	128.2158943104041	0.3833535926987679
69.0	34.90081020359685	ISI	1.0		7.0	face	adult-46.jpg	0.0	128.59924790310288	0.11666316014088807
70.0	35.017473363737736	adult	0.0		45.0	face	adult-84.jpg	0.0	128.71591106324377	0.38332401110710634
70.0	35.00764503054961	pulse	0.0	t		face	adult-84.jpg	0.0	128.70608273005564	
70.0	35.40079737484484	ISI	1.0		7.0	face	adult-84.jpg	0.0	129.09923507435087	0.11669787323444325
71.0	35.517495248079285	adult	0.0		46.0	face	adult-64.jpg	0.0	129.21593294758532	0.38334393340483075
71.0	35.70090383839306	pulse	0.0	t		face	adult-64.jpg	0.0	129.3993415378991	
71.0	35.900839181484116	ISI	1.0		11.0	face	adult-64.jpg	0.0	129.59927688099015	0.099976727135072
72.0	36.00081590861919	baseline	0.0		48.0		baseline	0.0	129.69925360812522	0.3999896162567893
72.0	36.40080552487598	ISI	1.0		11.0		baseline	0.0	130.099243224382	0.09999363090173574
72.0	36.405362599389264	pulse	1.0	t			baseline	0.0	130.1038002988953	
73.0	36.50079915577771	baseline	0.0		48.0		baseline	0.0	130.19923685528374	0.3999950496108795
73.0	36.90079420538859	ISI	1.0		11.0		baseline	0.0	130.59923190489462	0.09999272534332704
74.0	37.00078693073192	baseline	0.0		48.0		baseline	0.0	130.69922463023795	0.3999932384940621
74.0	37.1009022083872	pulse	0.0	t			baseline	0.0	130.79933990789323	
74.0	37.40078016922598	ISI	1.0		11.0		baseline	0.0	131.099217868732	0.09999634757878084
75.0	37.50077651680476	baseline	0.0		48.0		baseline	0.0	131.1992142163108	0.39998901255057717
75.0	37.80088298035298	pulse	0.0	t			baseline	0.0	131.499320679859	
75.0	37.90076552935534	ISI	1.0		11.0		baseline	0.0	131.59920322886137	0.0999966494327964
76.0	38.000762178788136	baseline	0.0		48.0		baseline	0.0	131.69919987829417	0.3999923329338344
76.0	38.40075451172197	ISI	1.0		11.0		baseline	0.0	132.099192211228	0.09999544202037214
77.0	38.50074995374234	baseline	0.0		47.0		baseline	0.0	132.19918765324837	0.39998297549027484
77.0	38.505017853094614	pulse	0.0	t			baseline	0.0	132.20345555260064	
77.0	38.90073292923262	ISI	1.0		11.0		baseline	0.0	132.59917062873865	0.10001113837643061
78.0	39.00074406760905	baseline	0.0		48.0		baseline	0.0	132.69918176711508	0.39998297549027484
78.0	39.200843316870305	pulse	0.0	t			baseline	0.0	132.89928101637634	
78.0	39.40072704309932	ISI	1.0		11.0		baseline	0.0	133.09916474260535	0.0999957438743877
79.0	39.50072278697371	baseline	0.0		48.0		baseline	0.0	133.19916048647974	0.3999899181089859
79.0	39.9007127050827	ISI	1.0		11.0		baseline	0.0	133.59915040458873	0.09999876240362937
79.0	39.90528185371659	pulse	1.0	t			baseline	0.0	133.60371955322262	
80.0	40.000711467486326	baseline	0.0		48.0		baseline	0.0	133.69914916699236	0.39998478660891124
80.0	40.40069625409524	ISI	1.0		11.0		baseline	0.0	134.09913395360127	0.10000087537446234
81.0	40.5006971294697	baseline	0.0		48.0		baseline	0.0	134.19913482897573	0.39998659772754763
81.0	40.60080455894604	pulse	0.0	t			baseline	0.0	134.29924225845207	
81.0	40.90068372719725	ISI	1.0		11.0		baseline	0.0	134.59912142670328	0.09999725313718955
82.0	41.00068098033444	baseline	0.0		48.0		baseline	0.0	134.69911867984047	0.3999730143441411
82.0	41.300785029057806	pulse	0.0	t			baseline	0.0	134.99922272856384	
82.0	41.40065399467858	ISI	1.0		11.0		baseline	0.0	135.0990916941846	0.09999725313718955
83.0	41.50065124781577	baseline	0.0		48.0		baseline	0.0	135.1990889473218	0.40000199222959054
83.0	41.90065324004536	ISI	1.0		7.0		baseline	0.0	135.5990909395514	0.11664957675748155
84.0	42.01730281680284	car	0.0		45.0	object	car-141.jpg	0.0	135.71574051630887	0.38329865545529174
84.0	42.00835921471116	pulse	0.0	t		object	car-141.jpg	0.0	135.7067969142172	
84.0	42.40060147225813	ISI	1.0		7.0	object	car-141.jpg	0.0	136.09903917176416	0.11669545841141371
85.0	42.517296930669545	car	0.0		46.0	object	car-103.jpg	0.0	136.21573463017558	0.3832980517490796
85.0	42.700758948960356	pulse	0.0	t		object	car-103.jpg	0.0	136.3991966484664	
85.0	42.900594982418625	ISI	1.0		4.0	object	car-103.jpg	0.0	136.59903268192465	0.116685497263461
86.0	43.017280479682086	car	0.0		46.0	object	car-102.jpg	0.0	136.71571817918812	0.38329956101370044
86.0	43.400580040695786	ISI	1.0		7.0	object	car-102.jpg	0.0	137.09901774020182	0.1166891194989148
86.0	43.436055312749886	pulse	1.0	t		object	car-102.jpg	0.0	137.13449301225592	
87.0	43.5172691601947	car	0.0		46.0	object	car-129.jpg	0.0	137.21570685970073	0.3832980517490796
87.0	43.90056721194378	ISI	1.0		7.0	object	car-129.jpg	0.0	137.5990049114498	0.116685497263461
88.0	44.01725270920724	car	0.0		46.0	object	car-37.jpg	0.0	137.71569040871327	0.38329956101370044
88.0	44.100679742738066	pulse	0.0	t		object	car-37.jpg	0.0	137.7991174422441	
88.0	44.40055227022094	ISI	1.0		7.0	object	car-37.jpg	0.0	138.09898996972697	0.1166882139405061
89.0	44.51724048416145	car	0.0		46.0	object	car-12.jpg	0.0	138.21567818366748	0.38329956101370044
89.0	44.80065870358521	pulse	0.0	t		object	car-12.jpg	0.0	138.49909640309124	
89.0	44.90054004517515	ISI	1.0		7.0	object	car-12.jpg	0.0	138.59897774468118	0.11669394914679287
90.0	45.01723399432194	car	0.0		46.0	object	car-121.jpg	0.0	138.71567169382797	0.3832917128365807
90.0	45.40052570715852	ISI	1.0		7.0	object	car-121.jpg	0.0	139.09896340666455	0.11668308243861247
91.0	45.517208789597134	car	0.0		45.0	object	car-101.jpg	0.0	139.21564648910316	0.38330408880938194
91.0	45.507404302794384	pulse	0.0	t		object	car-101.jpg	0.0	139.20584200230041	
91.0	45.900512878406516	ISI	1.0		7.0	object	car-101.jpg	0.0	139.59895057791255	0.11668881764489925
92.0	46.017201696051416	car	0.0		46.0	object	car-45.jpg	0.0	139.71563939555745	0.3832651497759798
92.0	46.200592778892315	pulse	0.0	t		object	car-45.jpg	0.0	139.89903047839834	
92.0	46.400466845827395	ISI	1.0		7.0	object	car-45.jpg	0.0	140.09890454533343	0.11668398799702118
93.0	46.51715083382442	car	0.0		46.0	object	car-3.jpg	0.0	140.21558853333045	0.38330227769256453
93.0	46.90045311151698	ISI	1.0		7.0	object	car-3.jpg	0.0	140.598890811023	0.11668549726164201
93.0	46.935660338118396	pulse	1.0	t		object	car-3.jpg	0.0	140.63409803762443	
94.0	47.01713860877862	car	0.0		46.0	object	car-111.jpg	0.0	140.71557630828465	0.38330378695718537
94.0	47.40044239573581	ISI	1.0		7.0	object	car-111.jpg	0.0	141.09888009524184	0.11668247873240034
95.0	47.51712487446821	car	0.0		46.0	object	car-130.jpg	0.0	141.21556257397424	0.3833025795447611
95.0	47.6005624728532	pulse	0.0	t		object	car-130.jpg	0.0	141.29900017235923	
95.0	47.90042745401297	ISI	1.0		7.0	object	car-130.jpg	0.0	141.598865153519	0.11668368614300562
96.0	48.017111140155976	car	0.0		46.0	object	car-112.jpg	0.0	141.715548839662	0.383306805488246
96.0	48.300544754081784	pulse	0.0	t		object	car-112.jpg	0.0	141.99898245358781	
96.0	48.40041794564422	ISI	1.0		7.0	object	car-112.jpg	0.0	142.09885564515025	0.11669726952823112
97.0	48.51711521517245	car	0.0		46.0	object	car-15.jpg	0.0	142.21555291467848	0.38328597763029393
97.0	48.90040119280275	ISI	1.0		7.0	object	car-15.jpg	0.0	142.59883889230878	0.11668127131997608
98.0	49.01708246412272	car	0.0		45.0	object	car-77.jpg	0.0	142.71552016362875	0.3833025795447611
98.0	49.0072791847324	pulse	0.0	t		object	car-77.jpg	0.0	142.70571688423843	
98.0	49.400385043667484	ISI	1.0		7.0	object	car-77.jpg	0.0	143.0988227431735	0.11667221573225106
99.0	49.517057259399735	car	0.0		46.0	object	car-20.jpg	0.0	143.21549495890577	0.3833164647821832
99.0	49.70047852753851	pulse	0.0	t		object	car-20.jpg	0.0	143.39891622704454	
99.0	49.90037372418192	ISI	1.0		7.0	object	car-20.jpg	0.0	143.59881142368795	0.11668489355542988
100.0	50.01705861773735	car	0.0		46.0	object	car-30.jpg	0.0	143.71549631724338	0.38330016472173156
100.0	50.40035878245908	ISI	1.0		7.0	object	car-30.jpg	0.0	144.0987964819651	0.11668610096785414
100.0	50.43599826253558	pulse	1.0	t		object	car-30.jpg	0.0	144.1344359620416	
101.0	50.517044883426934	car	0.0		46.0	object	car-67.jpg	0.0	144.21548258293296	0.38328567577809736
101.0	50.90033055920503	ISI	1.0		7.0	object	car-67.jpg	0.0	144.59876825871106	0.11672322888443887
102.0	51.01705378808947	car	0.0		46.0	object	car-2.jpg	0.0	144.7154914875955	0.38327933686559845
102.0	51.10045516411628	pulse	0.0	t		object	car-2.jpg	0.0	144.7988928636223	
102.0	51.40033312495507	ISI	1.0		7.0	object	car-2.jpg	0.0	145.0987708244611	0.11668338429080904
103.0	51.51701650924588	car	0.0		46.0	object	car-19.jpg	0.0	145.2154542087519	0.38329744804468646
103.0	51.800440765729945	pulse	0.0	t		object	car-19.jpg	0.0	145.49887846523598	
103.0	51.900313957290564	ISI	1.0		7.0	object	car-19.jpg	0.0	145.5987516567966	0.11669032690952008
104.0	52.017004284200084	car	0.0		46.0	object	car-36.jpg	0.0	145.7154419837061	0.3833324629904382
104.0	52.40033674719052	ISI	1.0		7.0	object	car-36.jpg	0.0	146.09877444669655	0.11669093061573221
105.0	52.517027677806254	car	0.0		45.0	object	car-36.jpg	1.0	146.21546537731228	0.38329744804468646
105.0	52.507038155123155	pulse	0.0	t		object	car-36.jpg	1.0	146.20547585462919	
105.0	52.892106574630816	response	0.0	b		object	car-36.jpg	1.0	146.59054427413685	
105.0	52.90032512585094	ISI	1.0		7.0	object	car-36.jpg	1.0	146.59876282535697	0.11668791208649054
106.0	53.01701303793743	car	0.0		46.0	object	car-106.jpg	0.0	146.71545073744346	0.38329835360309517
106.0	53.20041679860151	pulse	0.0	t		object	car-106.jpg	0.0	146.89885449810754	
106.0	53.40031139154053	ISI	1.0		7.0	object	car-106.jpg	0.0	147.09874909104656	0.11667583796588588
107.0	53.51698722950641	car	0.0		46.0	object	car-64.jpg	0.0	147.21542492901244	0.383311031428093
107.0	53.900298260934505	ISI	1.0		7.0	object	car-64.jpg	0.0	147.59873596044054	0.11669696767603455
107.0	53.93672708656777	pulse	1.0	t		object	car-64.jpg	0.0	147.6351647860738	
108.0	54.01699522861054	adult	0.0		46.0	face	adult-5.jpg	0.0	147.71543292811657	0.38328839245514246
108.0	54.40028362106568	ISI	1.0		7.0	face	adult-5.jpg	0.0	148.0987213205717	0.11669334543876175
109.0	54.516976966504444	adult	0.0		46.0	face	adult-1.jpg	0.0	148.21541466601047	0.38329382580923266
109.0	54.60039041665186	pulse	0.0	t		face	adult-1.jpg	0.0	148.2988281161579	
109.0	54.90027079231368	ISI	1.0		7.0	face	adult-1.jpg	0.0	148.5987084918197	0.11668670467406628
110.0	55.01695749698774	adult	0.0		46.0	face	adult-75.jpg	0.0	148.71539519649377	0.3832989573093073
110.0	55.300372094176055	pulse	0.0	t		face	adult-75.jpg	0.0	148.99880979368209	
110.0	55.40025645429705	ISI	1.0		7.0	face	adult-75.jpg	0.0	149.09869415380308	0.11668761023247498
111.0	55.516944064529525	adult	0.0		46.0	face	adult-144.jpg	0.0	149.21538176403556	0.3832582071554498
111.0	55.900202271684975	ISI	1.0		7.0	face	adult-144.jpg	0.0	149.598639971191	0.11668730838027841
112.0	56.01688958006525	adult	0.0		45.0	face	adult-14.jpg	0.0	149.71532727957128	0.38330771104665473
112.0	56.00709535626447	pulse	0.0	t		face	adult-14.jpg	0.0	149.7055330557705	
112.0	56.40019729111191	ISI	1.0		7.0	face	adult-14.jpg	0.0	150.09863499061794	0.11668911949709582
113.0	56.516886410609004	adult	0.0		46.0	face	adult-78.jpg	0.0	150.21532411011503	0.3832989573093073
113.0	56.7003025472477	pulse	0.0	t		face	adult-78.jpg	0.0	150.39874024675373	
113.0	56.90018536791831	ISI	1.0		7.0	face	adult-78.jpg	0.0	150.59862306742434	0.11668519540944544
114.0	57.01687056332776	adult	0.0		46.0	face	adult-45.jpg	0.0	150.7153082628338	0.38329925916150387
114.0	57.40016982248926	ISI	1.0		7.0	face	adult-45.jpg	0.0	151.0986075219953	0.116685497263461
114.0	57.43578726729902	pulse	1.0	t		face	adult-45.jpg	0.0	151.13422496680505	
115.0	57.51685531975272	adult	0.0		46.0	face	adult-4.jpg	0.0	151.21529301925875	0.3832889961595356
115.0	57.90014431591226	ISI	1.0		7.0	face	adult-4.jpg	0.0	151.5985820154183	0.11668851579270267
116.0	58.01683283170496	adult	0.0		46.0	face	adult-4.jpg	1.0	151.715270531211	0.3833116351343051
116.0	58.10027193935457	pulse	0.0	t		face	adult-4.jpg	1.0	151.7987096388606	
116.0	58.400144466839265	ISI	1.0		7.0	face	adult-4.jpg	1.0	152.0985821663453	0.11668338429080904
116.0	58.436516845962615	response	1.0	b		face	adult-4.jpg	1.0	152.13495454546864	
117.0	58.516827851130074	adult	0.0		46.0	face	adult-22.jpg	0.0	152.2152655506361	0.38327571463014465
117.0	58.80024063719975	pulse	0.0	t		face	adult-22.jpg	0.0	152.49867833670578	
117.0	58.90010356576022	ISI	1.0		7.0	face	adult-22.jpg	0.0	152.59854126526625	0.11671266403027403
118.0	59.01681622979049	adult	0.0		46.0	face	adult-117.jpg	0.0	152.71525392929652	0.3832953350738535
118.0	59.400111564864346	ISI	1.0		7.0	face	adult-117.jpg	0.0	153.09854926437038	0.11668217687838478
119.0	59.51679374174273	adult	0.0		45.0	face	adult-118.jpg	0.0	153.21523144124876	0.38330861660506343
119.0	59.50701219576695	pulse	0.0	t		face	adult-118.jpg	0.0	153.20544989527298	
119.0	59.900102358347795	ISI	1.0		7.0	face	adult-118.jpg	0.0	153.59854005785382	0.11668972320330795
120.0	60.0167920815511	adult	0.0		46.0	face	adult-82.jpg	0.0	153.71522978105713	0.38329925916332286
120.0	60.20020972745442	pulse	0.0	t		face	adult-82.jpg	0.0	153.89864742696045	
120.0	60.400091340714425	ISI	1.0		7.0	face	adult-82.jpg	0.0	154.09852904022046	0.11673047335534648
121.0	60.51682181406977	adult	0.0		46.0	face	adult-91.jpg	0.0	154.2152595135758	0.38324734044908837
121.0	60.90006915451886	ISI	1.0		7.0	face	adult-91.jpg	0.0	154.5985068540249	0.11669243988217204
121.0	60.93645783370448	pulse	1.0	t		face	adult-91.jpg	0.0	154.6348955332105	
122.0	61.01676159440103	adult	0.0		46.0	face	adult-114.jpg	0.0	154.71519929390706	0.3833001647199126
122.0	61.400061759120945	ISI	1.0		7.0	face	adult-114.jpg	0.0	155.09849945862697	0.11668791208649054
123.0	61.516749671207435	adult	0.0		46.0	face	adult-130.jpg	0.0	155.21518737071347	0.3833300481674087
123.0	61.60019934371121	pulse	0.0	t		face	adult-130.jpg	0.0	155.29863704321724	
123.0	61.900079719374844	ISI	1.0		7.0	face	adult-130.jpg	0.0	155.59851741888087	0.11669093061573221
124.0	62.016770649990576	adult	0.0		46.0	face	adult-13.jpg	0.0	155.7152083494966	0.3832633386555244
124.0	62.300152043349954	pulse	0.0	t		face	adult-13.jpg	0.0	155.99858974285598	
124.0	62.4000339886461	ISI	1.0		7.0	face	adult-13.jpg	0.0	156.09847168815213	0.11668610096785414
125.0	62.516720089613955	adult	0.0		46.0	face	adult-111.jpg	0.0	156.21515778911998	0.38330107028014027
125.0	62.900021159894095	ISI	1.0		7.0	face	adult-111.jpg	0.0	156.59845885940013	0.11667855464474997
126.0	63.016699714538845	adult	0.0		45.0	face	adult-111.jpg	1.0	156.71513741404488	0.3833098240156687
126.0	63.006792899574066	pulse	0.0	t		face	adult-111.jpg	1.0	156.7052305990801	
126.0	63.400009538554514	ISI	1.0		7.0	face	adult-111.jpg	1.0	157.09844723806054	0.1166836861448246
127.0	63.51669322469934	adult	0.0		46.0	face	adult-136.jpg	0.0	157.21513092420537	0.3833028813969577
127.0	63.62511760947018	response	0.0	b		face	adult-136.jpg	0.0	157.3235553089762	
127.0	63.70010030574667	pulse	0.0	t		face	adult-136.jpg	0.0	157.3985380052527	
127.0	63.899996106096296	ISI	1.0		7.0	face	adult-136.jpg	0.0	157.59843380560233	0.11671568256133469
128.0	64.01671178865763	adult	0.0		46.0	face	adult-119.jpg	0.0	157.71514948816366	0.3832687720114336
128.0	64.39998056066906	ISI	1.0		7.0	face	adult-119.jpg	0.0	158.0984182601751	0.11668670467406628
128.0	64.43612021114131	pulse	1.0	t		face	adult-119.jpg	0.0	158.13455791064735	
129.0	64.51666726534313	adult	0.0		46.0	face	adult-57.jpg	0.0	158.21510496484916	0.38330197583854897
129.0	64.89996924118168	ISI	1.0		7.0	face	adult-57.jpg	0.0	158.5984069406877	0.11668579911565757
130.0	65.01665504029734	adult	0.0		46.0	face	adult-63.jpg	0.0	158.71509273980337	0.38329956101370044
130.0	65.10020372057988	pulse	0.0	t		face	adult-63.jpg	0.0	158.79864142008591	
130.0	65.39995460131104	ISI	1.0		7.0	face	adult-63.jpg	0.0	159.09839230081707	0.11668610096785414
131.0	65.51664070227889	adult	0.0		46.0	face	adult-89.jpg	0.0	159.21507840178492	0.3832986554571107
131.0	65.80006707173379	pulse	0.0	t		face	adult-89.jpg	0.0	159.49850477123982	
131.0	65.899939357736	ISI	1.0		7.0	face	adult-89.jpg	0.0	159.59837705724203	0.11668670467406628
132.0	66.01662606241007	car	0.0		46.0	object	car-33.jpg	0.0	159.7150637619161	0.38330016472173156
132.0	66.3999262271318	ISI	1.0		7.0	object	car-33.jpg	0.0	160.09836392663783	0.11668096946596052
133.0	66.51660719659776	car	0.0		45.0	object	car-33.jpg	1.0	160.2150448961038	0.3833080128988513
133.0	66.50669343901427	pulse	0.0	t		object	car-33.jpg	1.0	160.2051311385203	
133.0	66.89991520949661	ISI	1.0		7.0	object	car-33.jpg	1.0	160.59835290900264	0.1166691972011904
134.0	67.0165844066978	car	0.0		46.0	object	car-35.jpg	0.0	160.71502210620383	0.38331676663619874
134.0	67.0500113043945	response	0.0	b		object	car-35.jpg	0.0	160.74844900390053	
134.0	67.20001744710316	pulse	0.0	t		object	car-35.jpg	0.0	160.8984551466092	
134.0	67.399901173334	ISI	1.0		7.0	object	car-35.jpg	0.0	161.09833887284003	0.11671387144269829
135.0	67.5166150447767	car	0.0		46.0	object	car-123.jpg	0.0	161.21505274428273	0.38327118683446315
135.0	67.89988623161116	ISI	1.0		7.0	object	car-123.jpg	0.0	161.5983239311172	0.11668640282005072
135.0	67.93644636329009	pulse	1.0	t		object	car-123.jpg	0.0	161.63488406279612	
136.0	68.01657263443121	car	0.0		46.0	object	car-51.jpg	0.0	161.71501033393724	0.3833342741090746
136.0	68.39990690854029	ISI	1.0		7.0	object	car-51.jpg	0.0	162.09834460804632	0.11667131017202337
137.0	68.51657821871231	car	0.0		46.0	object	car-92.jpg	0.0	162.21501591821834	0.38331314439892594
137.0	68.60013897311546	pulse	0.0	t		object	car-92.jpg	0.0	162.2985766726215	
137.0	68.89989136311124	ISI	1.0		7.0	object	car-92.jpg	0.0	162.59832906261727	0.11668821393868711
138.0	69.01657957704992	car	0.0		46.0	object	car-115.jpg	0.0	162.71501727655595	0.38329744804468646
138.0	69.29999719276748	pulse	0.0	t		object	car-115.jpg	0.0	162.9984348922735	
138.0	69.39987702509461	ISI	1.0		7.0	object	car-115.jpg	0.0	163.09831472460064	0.11669093061573221
139.0	69.51656795571034	car	0.0		46.0	object	car-21.jpg	0.0	163.21500565521637	0.3832971461906709
139.0	69.89986510190101	ISI	1.0		7.0	object	car-21.jpg	0.0	163.59830280140704	0.11668459170323331
140.0	70.01654969360425	car	0.0		45.0	object	car-11.jpg	0.0	163.71498739311028	0.38330107028014027
140.0	70.00669992885378	pulse	0.0	t		object	car-11.jpg	0.0	163.7051376283598	
140.0	70.39985076388439	ISI	1.0		7.0	object	car-11.jpg	0.0	164.09828846339042	0.11667976205535524
141.0	70.51653052593974	car	0.0		46.0	object	car-1.jpg	0.0	164.21496822544577	0.38330771104665473
141.0	70.6999563218742	pulse	0.0	t		object	car-1.jpg	0.0	164.39839402138023	
141.0	70.8998382369864	ISI	1.0		7.0	object	car-1.jpg	0.0	164.59827593649243	0.11669636396982241
142.0	71.01653460095622	car	0.0		46.0	object	car-139.jpg	0.0	164.71497230046225	0.38328959986574773
142.0	71.39982420082197	ISI	1.0		7.0	object	car-139.jpg	0.0	165.098261900328	0.1166864028218697
142.0	71.43640757518187	pulse	1.0	t		object	car-139.jpg	0.0	165.1348452746879	
143.0	71.51651060364384	car	0.0		46.0	object	car-38.jpg	0.0	165.21494830314987	0.3833007684261247
143.0	71.89981137206996	ISI	1.0		11.0	object	car-38.jpg	0.0	165.598249071576	0.10002441990764055
144.0	71.9998357919776	baseline	0.0		48.0		baseline	0.0	165.69827349148363	0.39999836999231775
144.0	72.10010954244899	pulse	0.0	t			baseline	0.0	165.79854724195502	
144.0	72.39983416196992	ISI	1.0		11.0		baseline	0.0	166.09827186147595	0.09999695128499297
145.0	72.49983111325491	baseline	0.0		48.0		baseline	0.0	166.19826881276094	0.39998901255239616
145.0	72.79993727495093	pulse	0.0	t			baseline	0.0	166.49837497445696	
145.0	72.89982012580731	ISI	1.0		11.0		baseline	0.0	166.59825782531334	0.09999815869559825
146.0	72.99981828450291	baseline	0.0		48.0		baseline	0.0	166.69825598400894	0.3999902199648204
146.0	73.39980850446773	ISI	1.0		11.0		baseline	0.0	167.09824620397376	0.09999785684340168
147.0	73.49980636131113	baseline	0.0		47.0		baseline	0.0	167.19824406081716	0.39998720143375976
147.0	73.50418443700437	pulse	0.0	t			baseline	0.0	167.2026221365104	
147.0	73.89979356274489	ISI	1.0		11.0		baseline	0.0	167.59823126225092	0.09999755498938612
148.0	73.99979111773428	baseline	0.0		48.0		baseline	0.0	167.6982288172403	0.3999875032877753
148.0	74.1999006299975	pulse	0.0	t			baseline	0.0	167.89833832950353	
148.0	74.39977862102205	ISI	1.0		11.0		baseline	0.0	168.09821632052808	0.10002019396415562
149.0	74.4997988149862	baseline	0.0		48.0		baseline	0.0	168.19823651449224	0.3999684865484596
149.0	74.89976730153467	ISI	1.0		11.0		baseline	0.0	168.5982050010407	0.09999664943097741
149.0	74.90444300427043	pulse	1.0	t			baseline	0.0	168.60288070377646	
150.0	74.99976395096564	baseline	0.0		48.0		baseline	0.0	168.69820165047167	0.39999444590648636
150.0	75.39975839687213	ISI	1.0		11.0		baseline	0.0	169.09819609637816	0.09999031051847851
151.0	75.49974870739061	baseline	0.0		48.0		baseline	0.0	169.19818640689664	0.399954299458841
151.0	75.59990594261035	pulse	0.0	t			baseline	0.0	169.29834364211638	
151.0	75.89970300684945	ISI	1.0		11.0		baseline	0.0	169.59814070635548	0.10000661057893012
152.0	75.99970961742838	baseline	0.0		48.0		baseline	0.0	169.6981473169344	0.4000185941440577
152.0	76.2998350977141	pulse	0.0	t			baseline	0.0	169.99827279722012	
152.0	76.39972821157244	ISI	1.0		11.0		baseline	0.0	170.09816591107847	0.09998699013704027
153.0	76.49971520170948	baseline	0.0		48.0		baseline	0.0	170.1981529012155	0.40000380334822694
153.0	76.8997190050577	ISI	1.0		11.0		baseline	0.0	170.59815670456373	0.10002079767036776
154.0	76.99973980272807	baseline	0.0		47.0		baseline	0.0	170.6981775022341	0.3999588272527035
154.0	77.00436932195771	pulse	0.0	t			baseline	0.0	170.70280702146374	
154.0	77.39969862998078	ISI	1.0		11.0		baseline	0.0	171.0981363294868	0.09999785684340168
155.0	77.49969648682418	baseline	0.0		48.0		baseline	0.0	171.1981341863302	0.39998901255057717
155.0	77.69980750835202	pulse	0.0	t			baseline	0.0	171.39824520785805	
155.0	77.89968549937475	ISI	1.0		7.0		baseline	0.0	171.59812319888078	0.11665319899293536
156.0	78.01633869836769	adult	0.0		46.0	face	adult-81.jpg	0.0	171.71477639787372	0.3832962406322622
156.0	78.39963493899995	ISI	1.0		7.0	face	adult-81.jpg	0.0	172.09807263850598	0.1166882139405061
156.0	78.43671938931584	pulse	1.0	t		face	adult-81.jpg	0.0	172.13515708882187	
157.0	78.51632315294046	adult	0.0		46.0	face	adult-126.jpg	0.0	172.2147608524465	0.38329925916150387
157.0	78.89962241210196	ISI	1.0		7.0	face	adult-126.jpg	0.0	172.598060111608	0.11668911949709582
158.0	79.01631153159906	adult	0.0		46.0	face	adult-88.jpg	0.0	172.7147492311051	0.38329744804468646
158.0	79.09974309292556	pulse	0.0	t		face	adult-88.jpg	0.0	172.7981807924316	
158.0	79.39960897964374	ISI	1.0		7.0	face	adult-88.jpg	0.0	173.09804667914977	0.11668881764489925
159.0	79.51629779728864	adult	0.0		46.0	face	adult-85.jpg	0.0	173.21473549679467	0.38329744804468646
159.0	79.7997154130062	pulse	0.0	t		face	adult-85.jpg	0.0	173.49815311251223	
159.0	79.89959524533333	ISI	1.0		7.0	face	adult-85.jpg	0.0	173.59803294483936	0.11668761023247498
160.0	80.0162828555658	adult	0.0		46.0	face	adult-42.jpg	0.0	173.71472055507184	0.383299862867716
160.0	80.39958271843352	ISI	1.0		7.0	face	adult-42.jpg	0.0	174.09802041793955	0.11668247873240034
161.0	80.51626519716592	adult	0.0		45.0	face	adult-96.jpg	0.0	174.21470289667195	0.3833034851049888
161.0	80.5071733852601	pulse	0.0	t		face	adult-96.jpg	0.0	174.20561108476613	
161.0	80.89956868227091	ISI	1.0		7.0	face	adult-96.jpg	0.0	174.59800638177694	0.11668640282005072
162.0	81.01625508509096	adult	0.0		46.0	face	adult-120.jpg	0.0	174.714692784597	0.38329956101551943
162.0	81.19967273099428	pulse	0.0	t		face	adult-120.jpg	0.0	174.8981104305003	
162.0	81.39955464610648	ISI	1.0		7.0	face	adult-120.jpg	0.0	175.0979923456125	0.1166728194366442
163.0	81.51622746554312	adult	0.0		46.0	face	adult-17.jpg	0.0	175.21466516504915	0.38331284254672937
163.0	81.89954030808985	ISI	1.0		7.0	face	adult-17.jpg	0.0	175.59797800759588	0.11668942135111138
163.0	81.93570108827043	pulse	1.0	t		face	adult-17.jpg	0.0	175.63413878777646	
164.0	82.01622972944097	adult	0.0		46.0	face	adult-105.jpg	0.0	175.714667428947	0.3832654516281764
164.0	82.39949518106914	ISI	1.0		7.0	face	adult-105.jpg	0.0	176.09793288057517	0.11668670467406628
165.0	82.51618188574321	adult	0.0		46.0	face	adult-2.jpg	0.0	176.21461958524924	0.3833007684261247
165.0	82.5996074100076	pulse	0.0	t		face	adult-2.jpg	0.0	176.29804510951362	
165.0	82.89948265416933	ISI	1.0		7.0	face	adult-2.jpg	0.0	176.59792035367536	0.11670934364883578
166.0	83.01619199781817	adult	0.0		46.0	face	adult-99.jpg	0.0	176.7146296973242	0.3832769220407499
166.0	83.29958878567959	pulse	0.0	t		face	adult-99.jpg	0.0	176.99802648518562	
166.0	83.39946891985892	ISI	1.0		7.0	face	adult-99.jpg	0.0	177.09790661936495	0.11668519540944544
167.0	83.51615411526836	adult	0.0		46.0	face	adult-9.jpg	0.0	177.2145918147744	0.3833034851031698
167.0	83.89945760037153	ISI	1.0		7.0	face	adult-9.jpg	0.0	177.59789529987756	0.1166773472323257
168.0	84.01613494760386	body	0.0		45.0	body	body-34.jpg	0.0	177.7145726471099	0.38330861660506343
168.0	84.00861699716188	pulse	0.0	t		body	body-34.jpg	0.0	177.7070546966679	
168.0	84.39944356420892	ISI	1.0		7.0	body	body-34.jpg	0.0	178.09788126371495	0.11668368614300562
169.0	84.51612725035193	body	0.0		46.0	body	body-60.jpg	0.0	178.21456494985796	0.3833016739863524
169.0	84.6995482166385	pulse	0.0	t		body	body-60.jpg	0.0	178.39798591614453	
169.0	84.89942892433828	ISI	1.0		7.0	body	body-60.jpg	0.0	178.5978666238443	0.11668519540944544
170.0	85.01611411974773	body	0.0		46.0	body	body-81.jpg	0.0	178.71455181925376	0.38329865545529174
170.0	85.39941277520302	ISI	1.0		7.0	body	body-81.jpg	0.0	179.09785047470905	0.11667010276141809
170.0	85.43627506172197	pulse	1.0	t		body	body-81.jpg	0.0	179.134712761228	
171.0	85.51608287796444	body	0.0		46.0	body	body-81.jpg	1.0	179.21452057747047	0.38331767219278845
171.0	85.89940055015722	ISI	1.0		7.0	body	body-81.jpg	1.0	179.59783824966325	0.1166691972011904
172.0	86.01606974735842	body	0.0		46.0	body	body-144.jpg	0.0	179.71450744686445	0.38331857775301614
172.0	86.09951428836212	pulse	0.0	t		body	body-144.jpg	0.0	179.79795198786815	
172.0	86.11619438245543	response	0.0	b		body	body-144.jpg	0.0	179.81463208196146	
172.0	86.39938832511143	ISI	1.0		7.0	body	body-144.jpg	0.0	180.09782602461746	0.11671296588428959
173.0	86.51610129099572	body	0.0		46.0	body	body-15.jpg	0.0	180.21453899050175	0.3832736016593117
173.0	86.79949234365085	pulse	0.0	t		body	body-15.jpg	0.0	180.49793004315688	
173.0	86.89937489265503	ISI	1.0		7.0	body	body-15.jpg	0.0	180.59781259216106	0.11668911949709582
174.0	87.01606401215213	body	0.0		46.0	body	body-105.jpg	0.0	180.71450171165816	0.38329684433847433
174.0	87.3993608564906	ISI	1.0		7.0	body	body-105.jpg	0.0	181.09779855599663	0.11665863234702556
175.0	87.51601948883763	body	0.0		45.0	body	body-32.jpg	0.0	181.21445718834366	0.38332672778233245
175.0	87.5064939141921	pulse	0.0	t		body	body-32.jpg	0.0	181.20493161369814	
175.0	87.89934621661996	ISI	1.0		7.0	body	body-32.jpg	0.0	181.597783916126	0.11668610096785414
176.0	88.01603231758781	body	0.0		46.0	body	body-3.jpg	0.0	181.71447001709384	0.38333216113824164
176.0	88.19948678955552	pulse	0.0	t		body	body-3.jpg	0.0	181.89792448906155	
176.0	88.39936447872606	ISI	1.0		7.0	body	body-3.jpg	0.0	182.0978021782321	0.11668791208649054
177.0	88.51605239081255	body	0.0		46.0	body	body-4.jpg	0.0	182.21449009031858	0.38329684433847433
177.0	88.89934923515102	ISI	1.0		7.0	body	body-4.jpg	0.0	182.59778693465705	0.11672986965095333
177.0	88.93597335966297	pulse	1.0	t		body	body-4.jpg	0.0	182.634411059169	
178.0	89.01607910480197	body	0.0		46.0	body	body-122.jpg	0.0	182.714516804308	0.3832591127138585
178.0	89.39933821751583	ISI	1.0		7.0	body	body-122.jpg	0.0	183.09777591702186	0.1166755361136893
179.0	89.51601375362952	body	0.0		46.0	body	body-33.jpg	0.0	183.21445145313555	0.38331042772369983
179.0	89.59944833348527	pulse	0.0	t		body	body-33.jpg	0.0	183.2978860329913	
179.0	89.89932418135322	ISI	1.0		7.0	body	body-33.jpg	0.0	183.59776188085925	0.11669364729277731
180.0	90.016017828646	word	0.0		46.0	character	word-133.jpg	0.0	183.71445552815203	0.38326032012628275
180.0	90.29939801459295	pulse	0.0	t		character	word-133.jpg	0.0	183.99783571409898	
180.0	90.39927814877228	ISI	1.0		7.0	character	word-133.jpg	0.0	184.0977158482783	0.11668489355542988
181.0	90.51596304232771	word	0.0		46.0	character	word-69.jpg	0.0	184.21440074183374	0.38329956101551943
181.0	90.89926260334323	ISI	1.0		7.0	character	word-69.jpg	0.0	184.59770030284926	0.1166836861448246
182.0	91.01594628948806	word	0.0		45.0	character	word-73.jpg	0.0	184.7143839889941	0.3833071073404426
182.0	91.00618164727894	pulse	0.0	t		character	word-73.jpg	0.0	184.70461934678497	
182.0	91.3992533968285	ISI	1.0		7.0	character	word-73.jpg	0.0	185.09769109633453	0.11668157317217265
183.0	91.51593497000067	word	0.0		46.0	character	word-120.jpg	0.0	185.2143726695067	0.38330499436960963
183.0	91.69935744555187	pulse	0.0	t		character	word-120.jpg	0.0	185.3977951450579	
183.0	91.89923996437028	ISI	1.0		4.0	character	word-120.jpg	0.0	185.5976776638763	0.11668549726164201
184.0	92.01592546163192	word	0.0		46.0	character	word-63.jpg	0.0	185.71436316113795	0.38329231654279283
184.0	92.39921777817472	ISI	1.0		7.0	character	word-63.jpg	0.0	186.09765547768075	0.11670632511959411
184.0	92.43639368994445	pulse	1.0	t		character	word-63.jpg	0.0	186.13483138945048	
185.0	92.51592410329431	word	0.0		46.0	character	word-1.jpg	0.0	186.21436180280034	0.38326665903878165
185.0	92.89919076233309	ISI	1.0		4.0	character	word-1.jpg	0.0	186.59762846183912	0.11670541955936642
186.0	93.01589618189246	word	0.0		46.0	character	word-141.jpg	0.0	186.7143338813985	0.38329835360309517
186.0	93.0993183857754	pulse	0.0	t		character	word-141.jpg	0.0	186.79775608528143	
186.0	93.39919453549555	ISI	1.0		7.0	character	word-141.jpg	0.0	187.09763223500158	0.11669515655739815
187.0	93.51588969205295	word	0.0		46.0	character	word-139.jpg	0.0	187.21432739155898	0.3832953350738535
187.0	93.79930217627043	pulse	0.0	t		character	word-139.jpg	0.0	187.49773987577646	
187.0	93.8991850271268	ISI	1.0		7.0	character	word-139.jpg	0.0	187.59762272663284	0.11668670467406628
188.0	94.01587173180087	word	0.0		46.0	character	word-83.jpg	0.0	187.7143094313069	0.38330046657392813
188.0	94.3991721983748	ISI	1.0		7.0	character	word-83.jpg	0.0	188.09760989788083	0.11668006390755181
189.0	94.51585226228235	word	0.0		45.0	character	word-121.jpg	0.0	188.21428996178838	0.3833040888112009
189.0	94.50597080296939	pulse	0.0	t		character	word-121.jpg	0.0	188.20440850247542	
189.0	94.89915635109355	ISI	1.0		7.0	character	word-121.jpg	0.0	188.59759405059958	0.11668791208467155
190.0	95.01584426317822	word	0.0		46.0	character	word-36.jpg	0.0	188.71428196268425	0.38329835360491415
190.0	95.19926975725866	pulse	0.0	t		character	word-36.jpg	0.0	188.8977074567647	
190.0	95.39914261678314	ISI	1.0		7.0	character	word-36.jpg	0.0	189.09758031628917	0.11668428984921775
191.0	95.51582690663236	word	0.0		46.0	character	word-137.jpg	0.0	189.21426460613839	0.3833052962218062
191.0	95.89913220285416	ISI	1.0		8.0	character	word-137.jpg	0.0	189.5975699023602	0.12502509152909624
191.0	95.9345794025794	pulse	1.0	t		character	word-137.jpg	0.0	189.63301710208543	
192.0	96.02415729438326	car	0.0		45.0	object	car-117.jpg	0.0	189.7225949938893	0.374990755752151
192.0	96.39914805013541	ISI	1.0		7.0	object	car-117.jpg	0.0	190.09758574964144	0.1166891194989148
193.0	96.51583716963432	car	0.0		46.0	object	car-138.jpg	0.0	190.21427486914035	0.38329744804468646
193.0	96.59925997722348	pulse	0.0	t		object	car-138.jpg	0.0	190.2976976767295	
193.0	96.89913461767901	ISI	1.0		7.0	object	car-138.jpg	0.0	190.59757231718504	0.11667825278891542
194.0	97.01581287046793	car	0.0		47.0	object	car-74.jpg	0.0	190.71425056997396	0.39164217381221533
194.0	97.29924074918745	pulse	0.0	t		object	car-74.jpg	0.0	190.99767844869348	
194.0	97.40745504428014	ISI	1.0		6.0	object	car-74.jpg	0.0	191.10589274378617	0.10835858082100458
195.0	97.51581362510115	car	0.0		47.0	object	car-48.jpg	0.0	191.21425132460718	0.39162919413320196
195.0	97.90744281923435	ISI	1.0		6.0	object	car-48.jpg	0.0	191.60588051874038	0.10834922337744501
196.0	98.01579204261179	car	0.0		46.0	object	car-61.jpg	0.0	191.71422974211782	0.39163462748911115
196.0	98.00615297124568	pulse	0.0	t		object	car-61.jpg	0.0	191.7045906707517	
196.0	98.4074266701009	ISI	1.0		6.0	object	car-61.jpg	0.0	192.10586436960693	0.10840174579607265
197.0	98.51582841589698	car	0.0		47.0	object	car-4.jpg	0.0	192.214266115403	0.39159085880601197
197.0	98.69920048200038	pulse	0.0	t		object	car-4.jpg	0.0	192.3976381815064	
197.0	98.90741927470299	ISI	1.0		7.0	object	car-4.jpg	0.0	192.60585697420902	0.11668187502618821
198.0	99.02410114972918	car	0.0		46.0	object	car-79.jpg	0.0	192.7225388492352	0.3833025795447611
198.0	99.39918336693518	pulse	0.0	t		object	car-79.jpg	0.0	193.0976210664412	
198.0	99.40740372927394	ISI	1.0		7.0	object	car-79.jpg	0.0	193.10584142877997	0.11668821393868711
199.0	99.52409194321262	car	0.0		46.0	object	car-126.jpg	0.0	193.22252964271865	0.3832624330971157
199.0	99.90735437630974	ISI	1.0		7.0	object	car-126.jpg	0.0	193.60579207581577	0.11668761023429397
200.0	100.02404198654403	car	0.0		46.0	object	car-75.jpg	0.0	193.72247968605006	0.3833001647199126
200.0	100.09913334989506	pulse	0.0	t		object	car-75.jpg	0.0	193.79757104940109	
200.0	100.40734215126395	ISI	1.0		7.0	object	car-75.jpg	0.0	194.10577985076998	0.11668670467406628
201.0	100.52402885593801	car	0.0		46.0	object	car-29.jpg	0.0	194.22246655544404	0.38330378695718537
201.0	100.7991114051838	pulse	0.0	t		object	car-29.jpg	0.0	194.49754910468982	
201.0	100.9073326428952	ISI	1.0		7.0	object	car-29.jpg	0.0	194.60577034240123	0.1166836861448246
202.0	101.02401632904002	car	0.0		46.0	object	car-108.jpg	0.0	194.72245402854605	0.38329865545529174
202.0	101.40731498449532	ISI	1.0		7.0	object	car-108.jpg	0.0	195.10575268400135	0.11668700652808184
202.0	101.49909278085397	pulse	1.0	t		object	car-108.jpg	0.0	195.19753048036	
203.0	101.5240019910234	car	0.0		46.0	object	car-50.jpg	0.0	195.22243969052943	0.383299862867716
203.0	101.90730185389111	ISI	1.0		7.0	object	car-50.jpg	0.0	195.60573955339714	0.11669455285118602
204.0	102.0239964067423	house	0.0		46.0	place	house-43.jpg	0.0	195.72243410624833	0.383290807278172
204.0	102.19907808061362	pulse	0.0	t		place	house-43.jpg	0.0	195.89751578011965	
204.0	102.40728721402047	ISI	1.0		7.0	place	house-43.jpg	0.0	196.1057249135265	0.11668700652808184
205.0	102.52397422054855	house	0.0		46.0	place	house-134.jpg	0.0	196.22241192005458	0.38330227769256453
205.0	102.89905643775455	pulse	0.0	t		place	house-134.jpg	0.0	196.59749413726058	
205.0	102.90727649824112	ISI	1.0		4.0	place	house-134.jpg	0.0	196.60571419774715	0.11668459170323331
206.0	103.02396108994435	house	0.0		46.0	place	house-53.jpg	0.0	196.72239878945038	0.3833007684261247
206.0	103.40726185837048	ISI	1.0		7.0	place	house-53.jpg	0.0	197.1056995578765	0.11668579911565757
207.0	103.52394765748613	house	0.0		46.0	place	house-35.jpg	0.0	197.22238535699216	0.38329835360309517
207.0	103.59905290607458	pulse	0.0	t		place	house-35.jpg	0.0	197.2974906055806	
207.0	103.90724601108923	ISI	1.0		7.0	place	house-35.jpg	0.0	197.60568371059526	0.11669213802815648
208.0	104.02393814911738	house	0.0		46.0	place	house-35.jpg	1.0	197.72237584862341	0.3832609238324949
208.0	104.29902069836135	pulse	0.0	t		place	house-35.jpg	1.0	197.99745839786738	
208.0	104.40719907294988	ISI	1.0		7.0	place	house-35.jpg	1.0	198.1056367724559	0.11676065865503915
208.0	104.46566829798212	response	1.0	b		place	house-35.jpg	1.0	198.16410599748815	
209.0	104.52395973160492	house	0.0		46.0	place	house-137.jpg	0.0	198.22239743111095	0.38326122568651044
209.0	104.90722095729143	ISI	1.0		7.0	place	house-137.jpg	0.0	198.60565865679746	0.11668700652626285
209.0	104.99899996106251	pulse	1.0	t		place	house-137.jpg	0.0	198.69743766056854	
210.0	105.02390796381769	house	0.0		46.0	place	house-115.jpg	0.0	198.72234566332372	0.383299862867716
210.0	105.40720782668541	ISI	1.0		7.0	place	house-115.jpg	0.0	199.10564552619144	0.1166891194989148
211.0	105.52389694618432	house	0.0		46.0	place	house-21.jpg	0.0	199.22233464569035	0.3833279351947567
211.0	105.69901393685541	pulse	0.0	t		place	house-21.jpg	0.0	199.39745163636144	
211.0	105.90722488137908	ISI	1.0		7.0	place	house-21.jpg	0.0	199.6056625808851	0.11669364729277731
212.0	106.02391852867186	house	0.0		46.0	place	house-103.jpg	0.0	199.7223562281779	0.3832962406322622
212.0	106.39899289770256	pulse	0.0	t		place	house-103.jpg	0.0	200.0974305972086	
212.0	106.40721476930412	ISI	1.0		7.0	place	house-103.jpg	0.0	200.10565246881015	0.11667070646581124
213.0	106.52388547576993	house	0.0		46.0	place	house-80.jpg	0.0	200.22232317527596	0.38331284254672937
213.0	106.90719831831666	ISI	1.0		7.0	place	house-80.jpg	0.0	200.6056360178227	0.1166891194989148
214.0	107.02388743781557	house	0.0		46.0	place	house-133.jpg	0.0	200.7223251373216	0.3832651497741608
214.0	107.09894348436865	pulse	0.0	t		place	house-133.jpg	0.0	200.79738118387468	
214.0	107.40715258758974	ISI	1.0		7.0	place	house-133.jpg	0.0	201.10559028709577	0.11669032690952008
215.0	107.52384291449926	house	0.0		46.0	place	house-15.jpg	0.0	201.22228061400529	0.3832962406322622
215.0	107.79892606745125	pulse	0.0	t		place	house-15.jpg	0.0	201.49736376695728	
215.0	107.90713915513152	ISI	1.0		7.0	place	house-15.jpg	0.0	201.60557685463755	0.11671809738436423
216.0	108.02385725251588	word	0.0		46.0	character	word-25.jpg	0.0	201.7222949520219	0.38326847015923704
216.0	108.40712572267512	ISI	1.0		7.0	character	word-25.jpg	0.0	202.10556342218115	0.11668791208467155
216.0	108.49890351903377	pulse	1.0	t		character	word-25.jpg	0.0	202.1973412185398	
217.0	108.52381363475979	word	0.0		46.0	character	word-47.jpg	0.0	202.22225133426582	0.38329956101551943
217.0	108.90711319577531	ISI	1.0		5.0	character	word-47.jpg	0.0	202.60555089528134	0.11668700652808184
218.0	109.02380020230339	word	0.0		46.0	character	word-115.jpg	0.0	202.72223790180942	0.38329865545529174
218.0	109.19888187617471	pulse	0.0	t		character	word-115.jpg	0.0	202.89731957568074	
218.0	109.40709885775868	ISI	1.0		7.0	character	word-115.jpg	0.0	203.1055365572647	0.11668459170323331
219.0	109.52378344946192	word	0.0		46.0	character	word-32.jpg	0.0	203.22222114896795	0.3833052962218062
219.0	109.89884695178444	pulse	0.0	t		character	word-32.jpg	0.0	203.59728465129047	
219.0	109.90708874568372	ISI	1.0		7.0	character	word-32.jpg	0.0	203.60552644518975	0.11666708423035743
220.0	110.02375582991408	word	0.0		46.0	character	word-32.jpg	1.0	203.7221935294201	0.3833173703405919
220.0	110.40707320025467	ISI	1.0		7.0	character	word-32.jpg	1.0	204.1055108997607	0.11671870109057636
220.0	110.44417485619124	response	1.0	b		character	word-32.jpg	1.0	204.14261255569727	
221.0	110.52379190134525	word	0.0		46.0	character	word-57.jpg	0.0	204.22222960085128	0.3832660553343885
221.0	110.59883285524847	pulse	0.0	t		character	word-57.jpg	0.0	204.2972705547545	
221.0	110.90705795667964	ISI	1.0		7.0	character	word-57.jpg	0.0	204.60549565618567	0.11668519540944544
222.0	111.02374315208908	word	0.0		46.0	character	word-64.jpg	0.0	204.7221808515951	0.3833016739845334
222.0	111.2988290217163	pulse	0.0	t		character	word-64.jpg	0.0	204.99726672122233	
222.0	111.40704482607362	ISI	1.0		7.0	character	word-64.jpg	0.0	205.10548252557965	0.116685497263461
223.0	111.52373032333708	word	0.0		46.0	character	word-81.jpg	0.0	205.2221680228431	0.38330227769074554
223.0	111.90703260102782	ISI	1.0		7.0	character	word-81.jpg	0.0	205.60547030053385	0.11668610096785414
223.0	111.99882730115496	pulse	1.0	t		character	word-81.jpg	0.0	205.697265000661	
224.0	112.02371870199568	word	0.0		46.0	character	word-136.jpg	0.0	205.7221564015017	0.38329956101551943
224.0	112.4070182630112	ISI	1.0		7.0	character	word-136.jpg	0.0	206.10545596251723	0.1166864028218697
225.0	112.52370466583307	word	0.0		46.0	character	word-116.jpg	0.0	206.2221423653391	0.38330197583854897
225.0	112.69879298046908	pulse	0.0	t		character	word-116.jpg	0.0	206.3972306799751	
225.0	112.90700664167161	ISI	1.0		7.0	character	word-116.jpg	0.0	206.60544434117764	0.11668217688020377
226.0	113.02368881855182	word	0.0		46.0	character	word-22.jpg	0.0	206.72212651805785	0.3833342741072556
226.0	113.39880122105569	pulse	0.0	t		character	word-22.jpg	0.0	207.09723892056172	
226.0	113.40702309265907	ISI	1.0		7.0	character	word-22.jpg	0.0	207.1054607921651	0.11668730838027841
227.0	113.52371040103935	word	0.0		46.0	character	word-66.jpg	0.0	207.22214810054538	0.38330861660506343
227.0	113.90701901764442	ISI	1.0		7.0	character	word-66.jpg	0.0	207.60545671715045	0.11667855464293098
228.0	114.02369757228735	house	0.0		46.0	place	house-113.jpg	0.0	207.72213527179338	0.3832980517508986
228.0	114.09878561525693	pulse	0.0	t		place	house-113.jpg	0.0	207.79722331476296	
228.0	114.40699562403825	ISI	1.0		7.0	place	house-113.jpg	0.0	208.10543332354428	0.11668761023247498
229.0	114.52368323427072	house	0.0		46.0	place	house-126.jpg	0.0	208.22212093377675	0.38329141098438413
229.0	114.79876517981029	pulse	0.0	t		place	house-126.jpg	0.0	208.49720287931632	
229.0	114.9069746452551	ISI	1.0		7.0	place	house-126.jpg	0.0	208.60541234476113	0.11669636396982241
230.0	115.02367100922493	house	0.0		46.0	place	house-52.jpg	0.0	208.72210870873096	0.3832787331593863
230.0	115.40694974238431	ISI	1.0		7.0	place	house-52.jpg	0.0	209.10538744189034	0.11667372499505291
230.0	115.4987112386807	pulse	1.0	t		place	house-52.jpg	0.0	209.19714893818673	
231.0	115.52362346737937	house	0.0		46.0	place	house-91.jpg	0.0	209.2220611668854	0.3832950332216569
231.0	115.90691850060102	ISI	1.0		6.0	place	house-91.jpg	0.0	209.60535620010705	0.11669032690952008
232.0	116.02360882751054	house	0.0		46.0	place	house-5.jpg	0.0	209.72204652701657	0.38330107028014027
232.0	116.19870348105906	pulse	0.0	t		place	house-5.jpg	0.0	209.8971411805651	
232.0	116.40690989779068	ISI	1.0		7.0	place	house-5.jpg	0.0	210.1053475972967	0.11668338429080904
233.0	116.52359328208149	house	0.0		46.0	place	house-33.jpg	0.0	210.22203098158752	0.3833034851031698
233.0	116.89867731040613	pulse	0.0	t		place	house-33.jpg	0.0	210.59711500991216	
233.0	116.90689676718466	ISI	1.0		7.0	place	house-33.jpg	0.0	210.6053344666907	0.11668519540944544
234.0	117.02358196259411	house	0.0		46.0	place	house-67.jpg	0.0	210.72201966210014	0.3832989573093073
234.0	117.40688091990341	ISI	1.0		5.0	place	house-67.jpg	0.0	211.10531861940945	0.11670572141156299
235.0	117.52358664131498	house	0.0		46.0	place	house-89.jpg	0.0	211.222024340821	0.38328205354264355
235.0	117.59865657310547	pulse	0.0	t		place	house-89.jpg	0.0	211.2970942726115	
235.0	117.90686869485762	ISI	1.0		7.0	place	house-89.jpg	0.0	211.60530639436365	0.11668579911565757
236.0	118.02355449397328	house	0.0		46.0	place	house-97.jpg	0.0	211.7219921934793	0.38330046657392813
236.0	118.29863885433588	pulse	0.0	t		place	house-97.jpg	0.0	211.9970765538419	
236.0	118.40685496054721	ISI	1.0		4.0	place	house-97.jpg	0.0	212.10529266005324	0.11668881764489925
237.0	118.5235437781921	house	0.0		46.0	place	house-22.jpg	0.0	212.22198147769814	0.3832980517508986
237.0	118.906841829943	ISI	1.0		7.0	place	house-22.jpg	0.0	212.60527952944904	0.11668700652626285
237.0	118.99861962629984	pulse	1.0	t		place	house-22.jpg	0.0	212.69705732580587	
238.0	119.02352883646927	house	0.0		46.0	place	house-22.jpg	1.0	212.7219665359753	0.38329865545529174
238.0	119.40682749192456	ISI	1.0		7.0	place	house-22.jpg	1.0	213.1052651914306	0.11668730838027841
238.0	119.4569408226289	response	1.0	b		place	house-22.jpg	1.0	213.15537852213492	
239.0	119.52351480030484	house	0.0		46.0	place	house-118.jpg	0.0	213.22195249981087	0.3832989573093073
239.0	119.6985804759679	pulse	0.0	t		place	house-118.jpg	0.0	213.39701817547393	
239.0	119.90681375761415	ISI	1.0		7.0	place	house-118.jpg	0.0	213.60525145712018	0.11668761023247498
240.0	120.02350136784662	house	0.0		46.0	place	house-58.jpg	0.0	213.72193906735265	0.3833013721341558
240.0	120.39858117022959	pulse	0.0	t		place	house-58.jpg	0.0	214.09701886973562	
240.0	120.40680273998078	ISI	1.0		7.0	place	house-58.jpg	0.0	214.1052404394868	0.11668459170323331
241.0	120.52348733168401	house	0.0		46.0	place	house-12.jpg	0.0	214.22192503119004	0.38330499436779064
241.0	120.9067923260518	ISI	1.0		5.0	place	house-12.jpg	0.0	214.60523002555783	0.11670934364883578
242.0	121.02350166970064	house	0.0		46.0	place	house-87.jpg	0.0	214.72193936920667	0.3833043906633975
242.0	121.09859725899514	pulse	0.0	t		place	house-87.jpg	0.0	214.79703495850117	
242.0	121.40680606036403	ISI	1.0		5.0	place	house-87.jpg	0.0	215.10524375987006	0.11668821393868711
243.0	121.52349427430272	house	0.0		46.0	place	house-82.jpg	0.0	215.22193197380875	0.38330046657392813
243.0	121.79857591798827	pulse	0.0	t		place	house-82.jpg	0.0	215.4970136174943	
243.0	121.90679474087665	ISI	1.0		7.0	place	house-82.jpg	0.0	215.60523244038268	0.11667251758262864
244.0	122.02346725845928	house	0.0		46.0	place	house-114.jpg	0.0	215.7219049579653	0.38331223884233623
244.0	122.40677949730161	ISI	1.0		7.0	place	house-114.jpg	0.0	216.10521719680764	0.1249864543460717
244.0	122.49859019563519	pulse	1.0	t		place	house-114.jpg	0.0	216.19702789514122	
245.0	122.53176595164769	house	0.0		45.0	place	house-93.jpg	0.0	216.23020365115372	0.37499950948949845
245.0	122.90676546113718	ISI	1.0		7.0	place	house-93.jpg	0.0	216.6052031606432	0.11668911949709582
246.0	123.02345458063428	house	0.0		46.0	place	house-79.jpg	0.0	216.7218922801403	0.38330016472173156
246.0	123.19853957488885	pulse	0.0	t		place	house-79.jpg	0.0	216.89697727439489	
246.0	123.40675474535601	ISI	1.0		7.0	place	house-79.jpg	0.0	217.10519244486204	0.11672805853231694
247.0	123.52348280388833	house	0.0		46.0	place	house-83.jpg	0.0	217.22192050339436	0.38325820715726877
247.0	123.89851732832358	pulse	0.0	t		place	house-83.jpg	0.0	217.5969550278296	
247.0	123.9067410110456	ISI	1.0		7.0	place	house-83.jpg	0.0	217.60517871055163	0.11668489355542988
248.0	124.02342590460103	house	0.0		46.0	place	house-27.jpg	0.0	217.72186360410706	0.38329925916150387
248.0	124.40672516376253	ISI	1.0		7.0	place	house-27.jpg	0.0	218.10516286326856	0.11669304358838417
249.0	124.52341820735091	house	0.0		46.0	place	house-27.jpg	1.0	218.22185590685694	0.3832609238324949
249.0	124.59846550016664	pulse	0.0	t		place	house-27.jpg	1.0	218.29690319967267	
249.0	124.90667913118341	ISI	1.0		7.0	place	house-27.jpg	1.0	218.60511683068944	0.11668610096785414
250.0	125.02336523215126	house	0.0		46.0	place	house-25.jpg	0.0	218.7218029316573	0.3833016739863524
250.0	125.18181631581865	response	0.0	b		place	house-25.jpg	0.0	218.88025401532468	
250.0	125.29846287404507	pulse	0.0	t		place	house-25.jpg	0.0	218.9969005735511	
250.0	125.40666690613762	ISI	1.0		4.0	place	house-25.jpg	0.0	219.10510460564365	0.1166701027595991
251.0	125.52333700889722	house	0.0		46.0	place	house-122.jpg	0.0	219.22177470840325	0.3833152573697589
251.0	125.90665226626697	ISI	1.0		7.0	place	house-122.jpg	0.0	219.605089965773	0.11668881764489925
251.0	125.99842855336101	pulse	1.0	t		place	house-122.jpg	0.0	219.69686625286704	
252.0	126.02334108391187	car	0.0		46.0	object	car-144.jpg	0.0	219.7217787834179	0.38329654248627776
252.0	126.40663762639815	ISI	1.0		7.0	object	car-144.jpg	0.0	220.10507532590418	0.11668821393868711
253.0	126.52332584033684	car	0.0		46.0	object	car-98.jpg	0.0	220.22176353984287	0.38330740919263917
253.0	126.69838396967498	pulse	0.0	t		object	car-98.jpg	0.0	220.396821669181	
253.0	126.90663324952948	ISI	1.0		7.0	object	car-98.jpg	0.0	220.6050709490355	0.11671538070731913
254.0	127.0233486302368	car	0.0		46.0	object	car-104.jpg	0.0	220.72178632974283	0.38326575348037295
254.0	127.39838858802614	pulse	0.0	t		object	car-104.jpg	0.0	221.09682628753217	
254.0	127.40661438371717	ISI	1.0		7.0	object	car-104.jpg	0.0	221.1050520832232	0.11669243988217204
255.0	127.52330682359934	car	0.0		46.0	object	car-142.jpg	0.0	221.22174452310537	0.3832953350720345
255.0	127.90660215867138	ISI	1.0		7.0	object	car-142.jpg	0.0	221.6050398581774	0.11668459170323331
256.0	128.0232867503746	car	0.0		46.0	object	car-73.jpg	0.0	221.72172444988064	0.383297749898702
256.0	128.09837268037336	pulse	0.0	t		object	car-73.jpg	0.0	221.7968103798794	
256.0	128.4065845002733	ISI	1.0		7.0	object	car-73.jpg	0.0	222.10502219977934	0.11668730837845942
257.0	128.52327180865177	car	0.0		46.0	object	car-97.jpg	0.0	222.2217095081578	0.38330046657392813
257.0	128.79835224492672	pulse	0.0	t		object	car-97.jpg	0.0	222.49678994443275	
257.0	128.9065722752257	ISI	1.0		7.0	object	car-97.jpg	0.0	222.60500997473173	0.11668670467406628
258.0	129.02325897989977	car	0.0		46.0	object	car-140.jpg	0.0	222.7216966794058	0.383297749898702
258.0	129.40655672979847	ISI	1.0		7.0	object	car-140.jpg	0.0	223.1049944293045	0.11666678237634187
258.0	129.4983656170134	pulse	1.0	t		object	car-140.jpg	0.0	223.19680331651944	
259.0	129.5232235121748	car	0.0		46.0	object	car-136.jpg	0.0	223.22166121168084	0.38332038887165254
259.0	129.90654390104646	ISI	1.0		7.0	object	car-136.jpg	0.0	223.6049816005525	0.11668761023247498
260.0	130.02323151127894	car	0.0		46.0	object	car-24.jpg	0.0	223.72166921078497	0.38330408880938194
260.0	130.19831801479813	pulse	0.0	t		object	car-24.jpg	0.0	223.89675571430416	
260.0	130.40653560008832	ISI	1.0		7.0	object	car-24.jpg	0.0	224.10497329959435	0.11669515655739815
261.0	130.52323075664572	car	0.0		46.0	object	car-124.jpg	0.0	224.22166845615175	0.38332129443006124
261.0	130.89832052017846	pulse	0.0	t		object	car-124.jpg	0.0	224.5967582196845	
261.0	130.90655205107578	ISI	1.0		7.0	object	car-124.jpg	0.0	224.6049897505818	0.11668610096967313
262.0	131.02323815204545	car	0.0		46.0	object	car-13.jpg	0.0	224.72167585155148	0.3832980517490796
262.0	131.40653620379453	ISI	1.0		7.0	object	car-13.jpg	0.0	225.10497390330056	0.11667432870126504
263.0	131.5232105324958	car	0.0		46.0	object	car-89.jpg	0.0	225.22164823200183	0.38331193698832067
263.0	131.59833419411734	pulse	0.0	t		object	car-89.jpg	0.0	225.29677189362337	
263.0	131.90652246948412	ISI	1.0		7.0	object	car-89.jpg	0.0	225.60496016899015	0.11668761023247498
264.0	132.0232100797166	body	0.0		46.0	body	body-99.jpg	0.0	225.72164777922262	0.38324220894901373
264.0	132.29827451778328	pulse	0.0	t		body	body-99.jpg	0.0	225.9967122172893	
264.0	132.4064522886656	ISI	1.0		7.0	body	body-99.jpg	0.0	226.10488998817164	0.11670904179482022
265.0	132.52316133046043	body	0.0		46.0	body	body-91.jpg	0.0	226.22159902996646	0.38329744804468646
265.0	132.9064587785051	ISI	1.0		7.0	body	body-91.jpg	0.0	226.60489647801114	0.1167183992365608
265.0	132.99825317677642	pulse	1.0	t		body	body-91.jpg	0.0	226.69669087628245	
266.0	133.02317717774167	body	0.0		46.0	body	body-106.jpg	0.0	226.7216148772477	0.3832717905406753
266.0	133.40644896828235	ISI	1.0		7.0	body	body-106.jpg	0.0	227.10488666778838	0.11668761023247498
267.0	133.52313657851482	body	0.0		46.0	body	body-118.jpg	0.0	227.22157427802085	0.383299862867716
267.0	133.6982218746216	pulse	0.0	t		body	body-118.jpg	0.0	227.39665957412763	
267.0	133.90643644138254	ISI	1.0		7.0	body	body-118.jpg	0.0	227.60487414088857	0.11667402684906847
268.0	134.0231104682316	body	0.0		46.0	body	body-86.jpg	0.0	227.72154816773764	0.38331193698832067
268.0	134.39820174102897	pulse	0.0	t		body	body-86.jpg	0.0	228.096639440535	
268.0	134.40642240521993	ISI	1.0		7.0	body	body-86.jpg	0.0	228.10486010472596	0.11668549726164201
269.0	134.52310790248157	body	0.0		46.0	body	body-41.jpg	0.0	228.2215456019876	0.38329956101551943
269.0	134.9064074634971	ISI	1.0		7.0	body	body-41.jpg	0.0	228.60484516300312	0.11668881764489925
270.0	135.023096281142	body	0.0		46.0	body	body-115.jpg	0.0	228.72153398064802	0.38329956101551943
270.0	135.09831593201307	pulse	0.0	t		body	body-115.jpg	0.0	228.7967536315191	
270.0	135.4063958421575	ISI	1.0		7.0	body	body-115.jpg	0.0	229.10483354166354	0.11668579911383858
271.0	135.52308164127135	body	0.0		46.0	body	body-23.jpg	0.0	229.22151934077738	0.38330046657392813
271.0	135.79816539792955	pulse	0.0	t		body	body-23.jpg	0.0	229.49660309743558	
271.0	135.90638210784527	ISI	1.0		7.0	body	body-23.jpg	0.0	229.6048198073513	0.1166891194989148
272.0	136.0230712273442	body	0.0		46.0	body	body-102.jpg	0.0	229.72150892685022	0.38329925916150387
272.0	136.4063704865057	ISI	1.0		7.0	body	body-102.jpg	0.0	230.10480818601172	0.11668972320512694
272.0	136.49813409577473	pulse	1.0	t		body	body-102.jpg	0.0	230.19657179528076	
273.0	136.52306020971082	body	0.0		46.0	body	body-131.jpg	0.0	230.22149790921685	0.38329412766142923
273.0	136.90635433737225	ISI	1.0		7.0	body	body-131.jpg	0.0	230.60479203687828	0.11668821393868711
274.0	137.02304255131094	body	0.0		46.0	body	body-52.jpg	0.0	230.72148025081697	0.38329774989688303
274.0	137.1981281492699	pulse	0.0	t		body	body-52.jpg	0.0	230.89656584877594	
274.0	137.40634030120782	ISI	1.0		7.0	body	body-52.jpg	0.0	231.10477800071385	0.11668791208649054
275.0	137.5230282132943	body	0.0		46.0	body	body-73.jpg	0.0	231.22146591280034	0.3833007684261247
275.0	137.8981101286481	pulse	0.0	t		body	body-73.jpg	0.0	231.59654782815414	
275.0	137.90632898172043	ISI	1.0		7.0	body	body-73.jpg	0.0	231.60476668122647	0.11668579911565757
276.0	138.0230147808361	car	0.0		46.0	object	car-70.jpg	0.0	231.72145248034212	0.3833309537258174
276.0	138.4063457345619	ISI	1.0		7.0	object	car-70.jpg	0.0	232.10478343406794	0.11669002505550452
277.0	138.52303575961741	car	0.0		46.0	object	car-72.jpg	0.0	232.22147345912344	0.3832971461924899
277.0	138.59823971413425	pulse	0.0	t		object	car-72.jpg	0.0	232.29667741364028	
277.0	138.9063329058099	ISI	1.0		7.0	object	car-72.jpg	0.0	232.60477060531593	0.11667523425967374
278.0	139.02300814006958	car	0.0		46.0	object	car-114.jpg	0.0	232.7214458395756	0.38331223884051724
278.0	139.29810336714036	pulse	0.0	t		object	car-114.jpg	0.0	232.9965410666464	
278.0	139.4063203789101	ISI	1.0		7.0	object	car-114.jpg	0.0	233.10475807841613	0.11669062876353564
279.0	139.52301100767363	car	0.0		46.0	object	car-93.jpg	0.0	233.22144870717966	0.38329503321983793
279.0	139.90630604089347	ISI	1.0		7.0	object	car-93.jpg	0.0	233.6047437403995	0.12504108973735129
279.0	139.9981206633165	pulse	1.0	t		object	car-93.jpg	0.0	233.69655836282254	
280.0	140.03134713063082	car	0.0		45.0	object	car-62.jpg	0.0	233.72978483013685	0.3749472889230674
280.0	140.4062944195539	ISI	1.0		7.0	object	car-62.jpg	0.0	234.10473211905992	0.11668791208649054
281.0	140.52298233164038	car	0.0		46.0	object	car-17.jpg	0.0	234.2214200311464	0.3832645460679487
281.0	140.6980329146536	pulse	0.0	t		object	car-17.jpg	0.0	234.39647061415963	
281.0	140.90624687770833	ISI	1.0		7.0	object	car-17.jpg	0.0	234.60468457721436	0.11668791208649054
282.0	141.02293478979482	car	0.0		46.0	object	car-96.jpg	0.0	234.72137248930085	0.38330137213233684
282.0	141.39801308291317	pulse	0.0	t		object	car-96.jpg	0.0	235.0964507824192	
282.0	141.40623616192715	ISI	1.0		7.0	object	car-96.jpg	0.0	235.10467386143318	0.1166836861448246
283.0	141.52291984807198	car	0.0		46.0	object	car-60.jpg	0.0	235.221357547578	0.3833025795447611
283.0	141.90622242761674	ISI	1.0		7.0	object	car-60.jpg	0.0	235.60466012712277	0.11668489355724887
284.0	142.022907321174	car	0.0		46.0	object	car-132.jpg	0.0	235.72134502068002	0.3832944295136258
284.0	142.0981176146015	pulse	0.0	t		object	car-132.jpg	0.0	235.79655531410754	
284.0	142.40620175068761	ISI	1.0		7.0	object	car-132.jpg	0.0	236.10463945019364	0.1167310770633776
285.0	142.522932827751	car	0.0		46.0	object	car-109.jpg	0.0	236.22137052725702	0.3832606219802983
285.0	142.79797462684292	pulse	0.0	t		object	car-109.jpg	0.0	236.49641232634895	
285.0	142.9061934497313	ISI	1.0		7.0	object	car-109.jpg	0.0	236.60463114923732	0.11668398799702118
286.0	143.0228774377283	car	0.0		46.0	object	car-116.jpg	0.0	236.72131513723434	0.38330107028014027
286.0	143.40617850800845	ISI	1.0		7.0	object	car-116.jpg	0.0	237.10461620751448	0.11669364729277731
286.0	143.49806436773542	pulse	1.0	t		object	car-116.jpg	0.0	237.19650206724145	
287.0	143.52287215530123	car	0.0		46.0	object	car-56.jpg	0.0	237.22130985480726	0.3832971461906709
287.0	143.9061693014919	ISI	1.0		7.0	object	car-56.jpg	0.0	237.60460700099793	0.11667432870126504
288.0	144.02284363019317	word	0.0		46.0	character	word-108.jpg	0.0	237.7212813296992	0.38330891845726
288.0	144.1979325485372	pulse	0.0	t		character	word-108.jpg	0.0	237.89637024804324	
288.0	144.40615254865043	ISI	1.0		4.0	character	word-108.jpg	0.0	238.10459024815646	0.11667312129065976
289.0	144.52282566994108	word	0.0		46.0	character	word-39.jpg	0.0	238.22126336944712	0.3833264259301359
289.0	144.8980476450797	pulse	0.0	t		character	word-39.jpg	0.0	238.59648534458574	
289.0	144.90615209587122	ISI	1.0		6.0	character	word-39.jpg	0.0	238.60458979537725	0.1166728194366442
290.0	145.02282491530787	word	0.0		46.0	character	word-43.jpg	0.0	238.7212626148139	0.38330107028014027
290.0	145.406125985588	ISI	1.0		7.0	character	word-43.jpg	0.0	239.10456368509404	0.11668670467406628
291.0	145.52281269026207	word	0.0		46.0	character	word-43.jpg	1.0	239.2212503897681	0.38330107028014027
291.0	145.59791492032127	pulse	0.0	t		character	word-43.jpg	1.0	239.2963526198273	
291.0	145.9061137605422	ISI	1.0		6.0	character	word-43.jpg	1.0	239.60455146004824	0.11671598441353126
292.0	146.02282974495574	word	0.0		46.0	character	word-72.jpg	0.0	239.72126744446177	0.3832687720114336
292.0	146.20622082779664	response	0.0	b		character	word-72.jpg	0.0	239.90465852730267	
292.0	146.29786520513517	pulse	0.0	t		character	word-72.jpg	0.0	239.9963029046412	
292.0	146.40609851696718	ISI	1.0		7.0	character	word-72.jpg	0.0	240.1045362164732	0.11668640282005072
293.0	146.52278491978723	word	0.0		46.0	character	word-86.jpg	0.0	240.22122261929326	0.3833300481674087
293.0	146.90611496795464	ISI	1.0		7.0	character	word-86.jpg	0.0	240.60455266746067	0.12502509152909624
293.0	146.99804520007092	pulse	1.0	t		character	word-86.jpg	0.0	240.69648289957695	
294.0	147.03114005948373	word	0.0		45.0	character	word-8.jpg	0.0	240.72957775898976	0.3749626834251103
294.0	147.40610274290884	ISI	1.0		7.0	character	word-8.jpg	0.0	241.10454044241487	0.11668851579088368
295.0	147.52279125869973	word	0.0		46.0	character	word-46.jpg	0.0	241.22122895820576	0.383297749898702
295.0	147.6978771585127	pulse	0.0	t		character	word-46.jpg	0.0	241.39631485801874	
295.0	147.90608900859843	ISI	1.0		7.0	character	word-46.jpg	0.0	241.60452670810446	0.11668942134929239
296.0	148.02277842994772	word	0.0		46.0	character	word-124.jpg	0.0	241.72121612945375	0.38329925916332286
296.0	148.39785642121387	pulse	0.0	t		character	word-124.jpg	0.0	242.0962941207199	
296.0	148.40607768911104	ISI	1.0		7.0	character	word-124.jpg	0.0	242.10451538861707	0.11666708423035743
297.0	148.5227447733414	word	0.0		46.0	character	word-119.jpg	0.0	242.22118247284743	0.38328688318870263
297.0	148.9060316565301	ISI	1.0		7.0	character	word-119.jpg	0.0	242.60446935603613	0.1166836861448246
298.0	149.02271534267493	word	0.0		46.0	character	word-29.jpg	0.0	242.72115304218096	0.38328869430733903
298.0	149.09781666717572	pulse	0.0	t		character	word-29.jpg	0.0	242.79625436668175	
298.0	149.40600403698227	ISI	1.0		5.0	character	word-29.jpg	0.0	243.1044417364883	0.11670602326557855
299.0	149.52271006024785	word	0.0		46.0	character	word-112.jpg	0.0	243.22114775975388	0.38328869430733903
299.0	149.79778898725635	pulse	0.0	t		character	word-112.jpg	0.0	243.49622668676238	
299.0	149.90599875455518	ISI	1.0		7.0	character	word-112.jpg	0.0	243.60443645406122	0.11669243988035305
300.0	150.02269119443554	adult	0.0		46.0	face	adult-58.jpg	0.0	243.72112889394157	0.3832980517508986
300.0	150.40598924618644	ISI	1.0		7.0	face	adult-58.jpg	0.0	244.10442694569247	0.11667312128884078
300.0	150.49787570961962	pulse	1.0	t		face	adult-58.jpg	0.0	244.19631340912565	
301.0	150.52266236747528	adult	0.0		46.0	face	adult-60.jpg	0.0	244.2211000669813	0.38331555922377447
301.0	150.90597792669905	ISI	1.0		7.0	face	adult-60.jpg	0.0	244.60441562620508	0.11668549726164201
302.0	151.0226634239607	adult	0.0		46.0	face	adult-60.jpg	1.0	244.72110112346672	0.38329925916332286
302.0	151.1977505311861	pulse	0.0	t		face	adult-60.jpg	1.0	244.89618823069213	
302.0	151.40596268312402	ISI	1.0		7.0	face	adult-60.jpg	1.0	245.10440038263005	0.11668610096785414
303.0	151.52264878409187	adult	0.0		45.0	face	adult-72.jpg	0.0	245.2210864835979	0.38328839245514246
303.0	151.5272097826928	response	0.0	b		face	adult-72.jpg	0.0	245.22564748219884	
303.0	151.89771470123742	pulse	0.0	t		face	adult-72.jpg	0.0	245.59615240074345	
303.0	151.905937176547	ISI	1.0		7.0	face	adult-72.jpg	0.0	245.60437487605304	0.11675039565307088
304.0	152.02268757220008	adult	0.0		46.0	face	adult-38.jpg	0.0	245.72112527170611	0.3832479441553005
304.0	152.40593551635538	ISI	1.0		7.0	face	adult-38.jpg	0.0	246.10437321586141	0.11668640282005072
305.0	152.52262191917544	adult	0.0		46.0	face	adult-41.jpg	0.0	246.22105961868147	0.383299862869535
305.0	152.59771328252828	pulse	0.0	t		face	adult-41.jpg	0.0	246.2961509820343	
305.0	152.90592178204497	ISI	1.0		7.0	face	adult-41.jpg	0.0	246.604359481551	0.11667764908270328
306.0	153.02259943112767	adult	0.0		46.0	face	adult-93.jpg	0.0	246.7210371306337	0.38330771104665473
306.0	153.2976901304046	pulse	0.0	t		face	adult-93.jpg	0.0	246.99612782991062	
306.0	153.40590714217433	ISI	1.0		7.0	face	adult-93.jpg	0.0	247.10434484168036	0.11668761023247498
307.0	153.5225947524068	adult	0.0		46.0	face	adult-6.jpg	0.0	247.22103245191283	0.38330046657392813
307.0	153.90589521898073	ISI	1.0		7.0	face	adult-6.jpg	0.0	247.60433291848676	0.11668519540944544
307.0	153.99770320063908	pulse	1.0	t		face	adult-6.jpg	0.0	247.6961409001451	
308.0	154.02258041439018	adult	0.0		46.0	face	adult-19.jpg	0.0	247.7210181138962	0.3833016739863524
308.0	154.40588208837653	ISI	1.0		7.0	face	adult-19.jpg	0.0	248.10431978788256	0.11668489355542988
309.0	154.52256698193196	adult	0.0		46.0	face	adult-28.jpg	0.0	248.221004681438	0.3833327648444538
309.0	154.69769091522176	pulse	0.0	t		face	adult-28.jpg	0.0	248.3961286147278	
309.0	154.9058997467764	ISI	1.0		7.0	face	adult-28.jpg	0.0	248.60433744628244	0.11668791208649054
310.0	155.0225876588629	adult	0.0		46.0	face	adult-16.jpg	0.0	248.72102535836893	0.38329292024900496
310.0	155.3976629334502	pulse	0.0	t		face	adult-16.jpg	0.0	249.09610063295622	
310.0	155.4058805791119	ISI	1.0		7.0	face	adult-16.jpg	0.0	249.10431827861794	0.11670481585315429
311.0	155.52258539496506	adult	0.0		46.0	face	adult-49.jpg	0.0	249.2210230944711	0.38328748689491476
311.0	155.90587288185998	ISI	1.0		7.0	face	adult-49.jpg	0.0	249.604310581366	0.11668851579270267
312.0	156.02256139765268	house	0.0		46.0	place	house-2.jpg	0.0	249.7209990971587	0.38330107028014027
312.0	156.09765034618067	pulse	0.0	t		place	house-2.jpg	0.0	249.7960880456867	
312.0	156.40586246793282	ISI	1.0		7.0	place	house-2.jpg	0.0	250.10430016743885	0.11668851579088368
313.0	156.5225509837237	house	0.0		46.0	place	house-136.jpg	0.0	250.22098868322973	0.3832618293927226
313.0	156.7975964050529	pulse	0.0	t		place	house-136.jpg	0.0	250.49603410455893	
313.0	156.90581281311643	ISI	1.0		4.0	place	house-136.jpg	0.0	250.60425051262246	0.11668881764489925
314.0	157.02250163076133	house	0.0		46.0	place	house-49.jpg	0.0	250.72093933026736	0.38329684433847433
314.0	157.4057984750998	ISI	1.0		6.0	place	house-49.jpg	0.0	251.10423617460583	0.11668881764489925
314.0	157.49759468448974	pulse	1.0	t		place	house-49.jpg	0.0	251.19603238399577	
315.0	157.5224872927447	house	0.0		46.0	place	house-99.jpg	0.0	251.22092499225073	0.38329925916150387
315.0	157.9057865519062	ISI	1.0		7.0	place	house-99.jpg	0.0	251.60422425141223	0.11667885649694654
316.0	158.02246540840315	house	0.0		46.0	place	house-127.jpg	0.0	251.72090310790918	0.38330740919263917
316.0	158.1975609675119	pulse	0.0	t		place	house-127.jpg	0.0	251.89599866701792	
316.0	158.4057728175958	ISI	1.0		7.0	place	house-127.jpg	0.0	252.10421051710182	0.11668700652808184
317.0	158.52245982412387	house	0.0		46.0	place	house-70.jpg	0.0	252.2208975236299	0.38330408880938194
317.0	158.8975689062463	pulse	0.0	t		place	house-70.jpg	0.0	252.59600660575234	
317.0	158.90576391293325	ISI	1.0		7.0	place	house-70.jpg	0.0	252.60420161243928	0.11668700652626285
318.0	159.02245091945952	house	0.0		46.0	place	house-3.jpg	0.0	252.72088861896555	0.38329654248627776
318.0	159.4057474619458	ISI	1.0		7.0	place	house-3.jpg	0.0	253.10418516145182	0.11668670467406628
319.0	159.52243416661986	house	0.0		46.0	place	house-110.jpg	0.0	253.2208718661259	0.38329925916150387
319.0	159.59752552997088	pulse	0.0	t		place	house-110.jpg	0.0	253.2959632294769	
319.0	159.90573342578136	ISI	1.0		7.0	place	house-110.jpg	0.0	253.6041711252874	0.1166701027595991
320.0	160.02240352854096	house	0.0		46.0	place	house-10.jpg	0.0	253.720841228047	0.3833143518113502
320.0	160.29748909631599	pulse	0.0	t		place	house-10.jpg	0.0	253.99592679582202	
320.0	160.4057178803523	ISI	1.0		7.0	place	house-10.jpg	0.0	254.10415557985834	0.11668579911565757
321.0	160.52240367946797	house	0.0		46.0	place	house-116.jpg	0.0	254.220841378974	0.3833016739863524
321.0	160.90570535345432	ISI	1.0		7.0	place	house-116.jpg	0.0	254.60414305296035	0.11668006390755181
321.0	160.99755016117524	pulse	1.0	t		place	house-116.jpg	0.0	254.69598786068127	
322.0	161.02238541736187	house	0.0		46.0	place	house-116.jpg	1.0	254.7208231168679	0.3832923165446118
322.0	161.4056777339065	ISI	1.0		7.0	place	house-116.jpg	1.0	255.10411543341252	0.11673801968026964
323.0	161.52241575358676	house	0.0		46.0	place	house-17.jpg	0.0	255.2208534530928	0.3832645460697677
323.0	161.68913398680525	response	0.0	b		place	house-17.jpg	0.0	255.38757168631128	
323.0	161.6974485272749	pulse	0.0	t		place	house-17.jpg	0.0	255.39588622678093	
323.0	161.90568029965652	ISI	1.0		7.0	place	house-17.jpg	0.0	255.60411799916255	0.11668489355542988
324.0	162.02236519321195	adult	0.0		46.0	face	adult-132.jpg	0.0	255.72080289271798	0.38330227769256453
324.0	162.3974443918887	pulse	0.0	t		face	adult-132.jpg	0.0	256.09588209139474	
324.0	162.40566747090452	ISI	1.0		7.0	face	adult-132.jpg	0.0	256.10410517041055	0.11668428984921775
325.0	162.52235176075374	adult	0.0		46.0	face	adult-15.jpg	0.0	256.22078946025977	0.3833333685506659
325.0	162.9056851293044	ISI	1.0		7.0	face	adult-15.jpg	0.0	256.60412282881043	0.11668579911383858
326.0	163.02237092841824	adult	0.0		46.0	face	adult-61.jpg	0.0	256.72080862792427	0.38326756459900935
326.0	163.09743482315025	pulse	0.0	t		face	adult-61.jpg	0.0	256.7958725226563	
326.0	163.40563849301725	ISI	1.0		7.0	face	adult-61.jpg	0.0	257.1040761925233	0.11668579911565757
327.0	163.5223242921329	adult	0.0		46.0	face	adult-11.jpg	0.0	257.22076199163894	0.38330107028014027
327.0	163.79741136917255	pulse	0.0	t		face	adult-11.jpg	0.0	257.4958490686786	
327.0	163.90562536241305	ISI	1.0		7.0	face	adult-11.jpg	0.0	257.6040630619191	0.11668398799702118
328.0	164.02230935041007	adult	0.0		46.0	face	adult-68.jpg	0.0	257.7207470499161	0.38330107028014027
328.0	164.4056104206902	ISI	1.0		7.0	face	adult-68.jpg	0.0	258.10404812019624	0.11668791208649054
328.0	164.49739304669674	pulse	1.0	t		face	adult-68.jpg	0.0	258.1958307462028	
329.0	164.5222983327767	adult	0.0		46.0	face	adult-128.jpg	0.0	258.22073603228273	0.383299862867716
329.0	164.90559819564442	ISI	1.0		7.0	face	adult-128.jpg	0.0	258.60403589515045	0.11671779553034867
330.0	165.02231599117476	adult	0.0		46.0	face	adult-95.jpg	0.0	258.7207536906808	0.3832736016593117
330.0	165.1973732149545	pulse	0.0	t		face	adult-95.jpg	0.0	258.8958109144605	
330.0	165.40558959283408	ISI	1.0		7.0	face	adult-95.jpg	0.0	259.1040272923401	0.11668247873240034
331.0	165.52227207156648	adult	0.0		46.0	face	adult-65.jpg	0.0	259.2207097710725	0.38329684433847433
331.0	165.89735368506626	pulse	0.0	t		face	adult-65.jpg	0.0	259.5957913845723	
331.0	165.90556891590495	ISI	1.0		7.0	face	adult-65.jpg	0.0	259.604006615411	0.11669032690952008
332.0	166.02225924281447	adult	0.0		46.0	face	adult-134.jpg	0.0	259.7206969423205	0.3832814498364314
332.0	166.4055406926509	ISI	1.0		7.0	face	adult-134.jpg	0.0	260.10397839215693	0.11670270288232132
333.0	166.52224339553322	adult	0.0		46.0	face	adult-36.jpg	0.0	260.22068109503925	0.38329835360309517
333.0	166.59733294776743	pulse	0.0	t		face	adult-36.jpg	0.0	260.29577064727346	
333.0	166.90554174913632	ISI	1.0		7.0	face	adult-36.jpg	0.0	260.60397944864235	0.11668911949709582
334.0	167.02223086863341	adult	0.0		46.0	face	adult-137.jpg	0.0	260.72066856813944	0.3832980517508986
334.0	167.2973266994104	pulse	0.0	t		face	adult-137.jpg	0.0	260.99576439891644	
334.0	167.4055289203843	ISI	1.0		7.0	face	adult-137.jpg	0.0	261.10396661989034	0.11666678237634187
335.0	167.52219570276065	adult	0.0		46.0	face	adult-47.jpg	0.0	261.2206334022667	0.3833228036946821
335.0	167.90551850645534	ISI	1.0		7.0	face	adult-47.jpg	0.0	261.60395620596137	0.116685497263461
335.0	167.99728573795983	pulse	1.0	t		face	adult-47.jpg	0.0	261.69572343746586	
336.0	168.0222040037188	word	0.0		46.0	character	word-51.jpg	0.0	261.7206417032248	0.3833001647199126
336.0	168.4055041684387	ISI	1.0		7.0	character	word-51.jpg	0.0	262.10394186794474	0.11670300473633688
337.0	168.52220717317505	word	0.0		46.0	character	word-28.jpg	0.0	262.2206448726811	0.3832805442762037
337.0	168.6972794896028	pulse	0.0	t		character	word-28.jpg	0.0	262.39571718910884	
337.0	168.90548771745125	ISI	1.0		7.0	character	word-28.jpg	0.0	262.6039254169573	0.11668821393868711
338.0	169.02217593138994	word	0.0		46.0	character	word-126.jpg	0.0	262.72061363089597	0.38333397225687804
338.0	169.3972801838645	pulse	0.0	t		character	word-126.jpg	0.0	263.0957178833705	
338.0	169.40550990364682	ISI	1.0		7.0	character	word-126.jpg	0.0	263.10394760315285	0.11668640282005072
339.0	169.52219630646687	word	0.0		46.0	character	word-40.jpg	0.0	263.2206340059729	0.3832971461924899
339.0	169.90549345265936	ISI	1.0		7.0	character	word-40.jpg	0.0	263.6039311521654	0.11668730837845942
340.0	170.02218076103782	word	0.0		46.0	character	word-74.jpg	0.0	263.72061846054385	0.3832696775698423
340.0	170.09724103353255	pulse	0.0	t		character	word-74.jpg	0.0	263.7956787330386	
340.0	170.40545043860766	ISI	1.0		7.0	character	word-74.jpg	0.0	264.1038881381137	0.11668610096785414
341.0	170.5221365395755	word	0.0		46.0	character	word-99.jpg	0.0	264.22057423908154	0.38328477021968865
341.0	170.79722029623372	pulse	0.0	t		character	word-99.jpg	0.0	264.49565799573975	
341.0	170.9054213097952	ISI	1.0		7.0	character	word-99.jpg	0.0	264.60385900930123	0.11675130121329858
342.0	171.0221726110085	word	0.0		46.0	character	word-53.jpg	0.0	264.72061031051453	0.38324764230128494
342.0	171.40542025330979	ISI	1.0		7.0	character	word-53.jpg	0.0	265.1038579528158	0.11668851579088368
342.0	171.4971889940789	pulse	1.0	t		character	word-53.jpg	0.0	265.1956266935849	
343.0	171.52210876910067	word	0.0		46.0	character	word-53.jpg	1.0	265.2205464686067	0.38329835360491415
343.0	171.90540712270558	ISI	1.0		7.0	character	word-53.jpg	1.0	265.6038448222116	0.11667946020133968
344.0	172.02208658290692	word	0.0		46.0	character	word-11.jpg	0.0	265.72052428241295	0.38330771104665473
344.0	172.072183915403	response	0.0	b		character	word-11.jpg	0.0	265.77062161490903	
344.0	172.19718244386968	pulse	0.0	t		character	word-11.jpg	0.0	265.8956201433757	
344.0	172.40539429395358	ISI	1.0		7.0	character	word-11.jpg	0.0	266.1038319934596	0.11668761023247498
345.0	172.52208190418605	word	0.0		46.0	character	word-94.jpg	0.0	266.2205196036921	0.38330107028014027
345.0	172.89716321583364	pulse	0.0	t		character	word-94.jpg	0.0	266.5956009153397	
345.0	172.9053829744662	ISI	1.0		7.0	character	word-94.jpg	0.0	266.6038206739722	0.11666980090740253
346.0	173.0220527753736	word	0.0		46.0	character	word-91.jpg	0.0	266.7204904748796	0.3833152573697589
346.0	173.40536803274335	ISI	1.0		7.0	character	word-91.jpg	0.0	267.1038057322494	0.11668610096785414
347.0	173.5220541337112	word	0.0		46.0	character	word-85.jpg	0.0	267.22049183321724	0.38330016472173156
347.0	173.59714519521003	pulse	0.0	t		character	word-85.jpg	0.0	267.29558289471606	
347.0	173.90535429843294	ISI	1.0		11.0	character	word-85.jpg	0.0	267.60379199793897	0.09999695128499297
348.0	174.00535124971793	baseline	0.0		48.0		baseline	0.0	267.70378894922396	0.3999748254609585
348.0	174.29712838199885	pulse	0.0	t			baseline	0.0	267.9955660815049	
348.0	174.4053260751789	ISI	1.0		11.0		baseline	0.0	268.1037637746849	0.10001083652241505
349.0	174.5053369117013	baseline	0.0		48.0		baseline	0.0	268.20377461120734	0.3999917292276223
349.0	174.90532864092893	ISI	1.0		11.0		baseline	0.0	268.60376634043496	0.09998699013522128
349.0	174.99711579472932	pulse	1.0	t			baseline	0.0	268.69555349423536	
350.0	175.00531563106415	baseline	0.0		48.0		baseline	0.0	268.7037533305702	0.3999977662879246
350.0	175.40531339735207	ISI	1.0		11.0		baseline	0.0	269.1037510968581	0.10004736073460663
351.0	175.50536075808668	baseline	0.0		48.0		baseline	0.0	269.2037984575927	0.39994011236740334
351.0	175.69708932222238	pulse	0.0	t			baseline	0.0	269.3955270217284	
351.0	175.90530087045408	ISI	1.0		11.0		baseline	0.0	269.6037385699601	0.09999906425582594
352.0	176.0052999347099	baseline	0.0		48.0		baseline	0.0	269.70373763421594	0.40005662761905114
352.0	176.39713619999202	pulse	0.0	t			baseline	0.0	270.09557389949805	
352.0	176.40535656232896	ISI	1.0		11.0		baseline	0.0	270.103794261835	0.09999785684522067
353.0	176.50535441917418	baseline	0.0		48.0		baseline	0.0	270.2037921186802	0.39998810699216847
353.0	176.90534252616635	ISI	1.0		11.0		baseline	0.0	270.6037802256724	0.09999815869559825
354.0	177.00534068486195	baseline	0.0		48.0		baseline	0.0	270.703778384368	0.3999868995815632
354.0	177.0971175756622	pulse	0.0	t			baseline	0.0	270.7955552751682	
354.0	177.4053275844435	ISI	1.0		11.0		baseline	0.0	271.10376528394954	0.09999876240181038
355.0	177.50532634684532	baseline	0.0		48.0		baseline	0.0	271.20376404635135	0.39998659772754763
355.0	177.7971001587448	pulse	0.0	t			baseline	0.0	271.4955378582508	
355.0	177.90531294457287	ISI	1.0		11.0		baseline	0.0	271.6037506440789	0.09997370860583032
356.0	178.0052866531787	baseline	0.0		48.0		baseline	0.0	271.70372435268473	0.4000143682023918
356.0	178.4053010213811	ISI	1.0		11.0		baseline	0.0	272.1037387208871	0.10000117722665891
356.0	178.49706855473778	pulse	1.0	t			baseline	0.0	272.1955062542438	
357.0	178.50530219860775	baseline	0.0		48.0		baseline	0.0	272.2037398981138	0.39998539031512337
357.0	178.90528758892287	ISI	1.0		11.0		baseline	0.0	272.6037252884289	0.10000147907885548
358.0	179.00528906800173	baseline	0.0		48.0		baseline	0.0	272.70372676750776	0.3999850884629268
358.0	179.19706381564538	pulse	0.0	t			baseline	0.0	272.8955015151514	
358.0	179.40527415646466	ISI	1.0		11.0		baseline	0.0	273.1037118559707	0.09999725313900854
359.0	179.50527140960367	baseline	0.0		48.0		baseline	0.0	273.2037091091097	0.39999021996300144
359.0	179.8970409653739	pulse	0.0	t			baseline	0.0	273.5954786648799	
359.0	179.90526162956667	ISI	1.0		7.0		baseline	0.0	273.6036993290727	0.11665048231589026
360.0	180.02191211188256	house	0.0		46.0	place	house-26.jpg	0.0	273.7203498113886	0.3832654516263574
360.0	180.40517756350891	ISI	1.0		7.0	place	house-26.jpg	0.0	274.10361526301494	0.11668761023429397
361.0	180.5218651737432	house	0.0		46.0	place	house-75.jpg	0.0	274.22030287324924	0.38329774989688303
361.0	180.59695714080044	pulse	0.0	t		place	house-75.jpg	0.0	274.29539484030647	
361.0	180.9051629236401	ISI	1.0		4.0	place	house-75.jpg	0.0	274.6036006231461	0.11668670467406628
362.0	181.02184962831416	house	0.0		46.0	place	house-135.jpg	0.0	274.7202873278202	0.38330046657392813
362.0	181.29693881832463	pulse	0.0	t		place	house-135.jpg	0.0	274.99537651783066	
362.0	181.40515009488809	ISI	1.0		7.0	place	house-135.jpg	0.0	275.1035877943941	0.11668972320330795
363.0	181.5218398180914	house	0.0		46.0	place	house-131.jpg	0.0	275.2202775175974	0.38329835360309517
363.0	181.9051381716945	ISI	1.0		7.0	place	house-131.jpg	0.0	275.6035758712005	0.11668730838027841
363.0	181.99694192741117	pulse	1.0	t		place	house-131.jpg	0.0	275.6953796269172	
364.0	182.02182548007477	house	0.0		46.0	place	house-51.jpg	0.0	275.7202631795808	0.38328658133650606
364.0	182.40511206141127	ISI	1.0		7.0	place	house-51.jpg	0.0	276.1035497609173	0.1166809694677795
365.0	182.52179303087905	house	0.0		46.0	place	house-69.jpg	0.0	276.2202307303851	0.3833170684883953
365.0	182.69691183266696	pulse	0.0	t		place	house-69.jpg	0.0	276.395349532173	
365.0	182.90511009936745	ISI	1.0		7.0	place	house-69.jpg	0.0	276.6035477988735	0.11668398799702118
366.0	183.02179408736447	house	0.0		46.0	place	house-29.jpg	0.0	276.7202317868705	0.3832826572488557
366.0	183.3968775119829	pulse	0.0	t		place	house-29.jpg	0.0	277.0953152114889	
366.0	183.40507674461332	ISI	1.0		7.0	place	house-29.jpg	0.0	277.10351444411936	0.11670572141156299
367.0	183.5217824660249	house	0.0		46.0	place	house-78.jpg	0.0	277.2202201655309	0.3832862794843095
367.0	183.9050687455092	ISI	1.0		7.0	place	house-78.jpg	0.0	277.6035064450152	0.11672836038451351
368.0	184.0217971058937	house	0.0		46.0	place	house-39.jpg	0.0	277.72023480539974	0.38326364051135897
368.0	184.09686190618413	pulse	0.0	t		place	house-39.jpg	0.0	277.79529960569016	
368.0	184.40506074640507	ISI	1.0		7.0	place	house-39.jpg	0.0	278.1034984459111	0.11669485470338259
369.0	184.52175560110845	house	0.0		46.0	place	house-140.jpg	0.0	278.2201933006145	0.38329956101551943
369.0	184.79683905591264	pulse	0.0	t		place	house-140.jpg	0.0	278.4952767554187	
369.0	184.90505516212397	ISI	1.0		7.0	place	house-140.jpg	0.0	278.60349286163	0.11667342314285634
370.0	185.02172858526683	house	0.0		46.0	place	house-44.jpg	0.0	278.72016628477286	0.3833143518113502
370.0	185.40504293707818	ISI	1.0		4.0	place	house-44.jpg	0.0	279.1034806365842	0.1166710083198268
370.0	185.49682194084926	pulse	1.0	t		place	house-44.jpg	0.0	279.1952596403553	
371.0	185.521713945398	house	0.0		46.0	place	house-100.jpg	0.0	279.22015164490404	0.3833152573697589
371.0	185.90502920276776	ISI	1.0		7.0	place	house-100.jpg	0.0	279.6034669022738	0.11666859349497827
372.0	186.02169779626274	body	0.0		46.0	body	body-7.jpg	0.0	279.7201354957688	0.38334876305088983
372.0	186.19681418322762	pulse	0.0	t		body	body-7.jpg	0.0	279.89525188273365	
372.0	186.40504655931363	ISI	1.0		7.0	body	body-7.jpg	0.0	280.10348425881966	0.11665319899293536
373.0	186.52169975830657	body	0.0		46.0	body	body-7.jpg	1.0	280.2201374578126	0.3833034851049888
373.0	186.89677956068954	pulse	0.0	t		body	body-7.jpg	1.0	280.59521726019557	
373.0	186.90500324341156	ISI	1.0		4.0	body	body-7.jpg	1.0	280.6034409429176	0.11668610096785414
373.0	186.96434421986305	response	1.0	b		body	body-7.jpg	1.0	280.6627819193691	
374.0	187.0216893443794	body	0.0		46.0	body	body-14.jpg	0.0	280.72012704388544	0.38330197583854897
374.0	187.40499132021796	ISI	1.0		7.0	body	body-14.jpg	0.0	281.103429019724	0.11673047335716547
375.0	187.52172179357513	body	0.0		46.0	body	body-53.jpg	0.0	281.22015949308116	0.38325217009696644
375.0	187.59676425674297	pulse	0.0	t		body	body-53.jpg	0.0	281.295201956249	
375.0	187.9049739636721	ISI	1.0		7.0	body	body-53.jpg	0.0	281.6034116631781	0.11668911949709582
376.0	188.0216630831692	body	0.0		46.0	body	body-45.jpg	0.0	281.7201007826752	0.3832989573093073
376.0	188.29674593426716	pulse	0.0	t		body	body-45.jpg	0.0	281.9951836337732	
376.0	188.4049620404785	ISI	1.0		7.0	body	body-45.jpg	0.0	282.1033997399845	0.11669002505732351
377.0	188.52165206553582	body	0.0		46.0	body	body-54.jpg	0.0	282.22008976504185	0.3832953350720345
377.0	188.90494740060785	ISI	1.0		7.0	body	body-54.jpg	0.0	282.6033851001139	0.11668881764489925
377.0	188.9967312340268	pulse	1.0	t		body	body-54.jpg	0.0	282.69516893353284	
378.0	189.02163621825275	body	0.0		46.0	body	body-11.jpg	0.0	282.7200739177588	0.383297749898702
378.0	189.40493396815145	ISI	1.0		7.0	body	body-11.jpg	0.0	283.1033716676575	0.11668579911383858
379.0	189.5216197672653	body	0.0		46.0	body	body-17.jpg	0.0	283.2200574667713	0.3833007684279437
379.0	189.69670808190313	pulse	0.0	t		body	body-17.jpg	0.0	283.39514578140916	
379.0	189.90492053569324	ISI	1.0		7.0	body	body-17.jpg	0.0	283.60335823519927	0.11668730838027841
380.0	190.02160784407351	body	0.0		46.0	body	body-98.jpg	0.0	283.72004554357954	0.38330197583854897
380.0	190.3966882501627	pulse	0.0	t		body	body-98.jpg	0.0	284.0951259496687	
380.0	190.40490981991206	ISI	1.0		7.0	body	body-98.jpg	0.0	284.1033475194181	0.1166836861448246
381.0	190.5215935060569	body	0.0		46.0	body	body-132.jpg	0.0	284.2200312055629	0.3833007684261247
381.0	190.904894274483	ISI	1.0		7.0	body	body-132.jpg	0.0	284.60333197398904	0.11668730838027841
382.0	191.0215815828633	body	0.0		46.0	body	body-70.jpg	0.0	284.7200192823693	0.3832989573093073
382.0	191.09667053139128	pulse	0.0	t		body	body-70.jpg	0.0	284.7951082308973	
382.0	191.4048805401726	ISI	1.0		7.0	body	body-70.jpg	0.0	285.10331823967863	0.11668610096785414
383.0	191.52156664114045	body	0.0		46.0	body	body-113.jpg	0.0	285.2200043406465	0.3833016739863524
383.0	191.79665251076767	pulse	0.0	t		body	body-113.jpg	0.0	285.4950902102737	
383.0	191.9048683151268	ISI	1.0		11.0	body	body-113.jpg	0.0	285.60330601463284	0.09999966796203807
384.0	192.00486798308884	baseline	0.0		48.0		baseline	0.0	285.7033056825949	0.39998750328595634
384.0	192.4048554863748	ISI	1.0		11.0		baseline	0.0	286.10329318588083	0.09999604572658427
384.0	192.49663207532103	pulse	1.0	t			baseline	0.0	286.19506977482706	
385.0	192.50485153210138	baseline	0.0		48.0		baseline	0.0	286.2032892316074	0.40005934429609624
385.0	192.90491087639748	ISI	1.0		11.0		baseline	0.0	286.6033485759035	0.09999574387256871
386.0	193.00490662027005	baseline	0.0		48.0		baseline	0.0	286.7033443197761	0.39999082366921357
386.0	193.19668378273855	pulse	0.0	t			baseline	0.0	286.8951214822446	
386.0	193.40489744393926	ISI	1.0		11.0		baseline	0.0	287.1033351434453	0.0999975549912051
387.0	193.50489499893047	baseline	0.0		48.0		baseline	0.0	287.2033326984365	0.39999021996300144
387.0	193.89666425285031	pulse	0.0	t			baseline	0.0	287.59510195235634	
387.0	193.90488521889347	ISI	1.0		11.0		baseline	0.0	287.6033229183995	0.0999930271973426
