trial_nr	onset	event_type	phase	response	nr_frames	face_age	face_sex	face_eth	attractiveness	expression	face_id	sub_id	ses	run	trial_type	catch	rating_type	onset_abs	duration
-1.0	0.05915379697489698	fix	0.0		713													23.041860685542815	5.9579397866828
-1.0	0.70061053687823	pulse	0.0	t														23.68331742544615	
-1.0	1.400646639029219	pulse	0.0	t														24.383353527597137	
-1.0	2.1006335384154227	pulse	0.0	t														25.08334042698334	
-1.0	2.8006020244974934	pulse	0.0	t														25.78330891306541	
-1.0	3.50059496103313	pulse	0.0	t														26.483301849601048	
-1.0	4.20056918240698	pulse	0.0	t														27.183276070974898	
-1.0	4.900568156092049	pulse	0.0	t														27.883275044659968	
-1.0	5.600556866623265	pulse	0.0	t														28.583263755191183	
0.0	6.017093583657697	face	0.0		144	23.0	male	white	2.6275368085953046	smiling	141	sub-17	1.0	4.0	141_smiling	0.0		28.999800472225616	1.2333388271390504
0.0	6.3005618774568575	pulse	0.0	t		23.0	male	white	2.6275368085953046	smiling	141	sub-17	1.0	4.0	141_smiling	0.0		29.283268766024776	
0.0	7.00054455083955	pulse	0.0	t		23.0	male	white	2.6275368085953046	smiling	141	sub-17	1.0	4.0	141_smiling	0.0		29.983251439407468	
0.0	7.250432410796748	fix	1.0		445	23.0	male	white	2.6275368085953046	smiling	141	sub-17	1.0	4.0	141_smiling	0.0		30.233139299364666	3.7582634986119956
0.0	7.700546241240772	pulse	1.0	t		23.0	male	white	2.6275368085953046	smiling	141	sub-17	1.0	4.0	141_smiling	0.0		30.68325312980869	
0.0	8.400534951772897	pulse	1.0	t		23.0	male	white	2.6275368085953046	smiling	141	sub-17	1.0	4.0	141_smiling	0.0		31.383241840340816	
0.0	9.100517927012334	pulse	1.0	t		23.0	male	white	2.6275368085953046	smiling	141	sub-17	1.0	4.0	141_smiling	0.0		32.08322481558025	
0.0	9.80051086354797	pulse	1.0	t		23.0	male	white	2.6275368085953046	smiling	141	sub-17	1.0	4.0	141_smiling	0.0		32.78321775211589	
0.0	10.500530967254235	pulse	1.0	t		23.0	male	white	2.6275368085953046	smiling	141	sub-17	1.0	4.0	141_smiling	0.0		33.48323785582215	
1.0	11.008695909408743	face	0.0		146	40.0	female	west_asian	1.5777954635893354	smiling	038	sub-17	1.0	4.0	038_smiling	0.0		33.99140279797666	1.2416824689044006
1.0	11.200495529189539	pulse	0.0	t		40.0	female	west_asian	1.5777954635893354	smiling	038	sub-17	1.0	4.0	038_smiling	0.0		34.18320241775746	
1.0	11.900484541578408	pulse	0.0	t		40.0	female	west_asian	1.5777954635893354	smiling	038	sub-17	1.0	4.0	038_smiling	0.0		34.883191430146326	
1.0	12.250378378313144	fix	1.0		445	40.0	female	west_asian	1.5777954635893354	smiling	038	sub-17	1.0	4.0	038_smiling	0.0		35.23308526688106	3.758236029584623
1.0	12.60048623197963	pulse	1.0	t		40.0	female	west_asian	1.5777954635893354	smiling	038	sub-17	1.0	4.0	038_smiling	0.0		35.58319312054755	
1.0	13.300498185534707	pulse	1.0	t		40.0	female	west_asian	1.5777954635893354	smiling	038	sub-17	1.0	4.0	038_smiling	0.0		36.283205074102625	
1.0	14.00047934963004	pulse	1.0	t		40.0	female	west_asian	1.5777954635893354	smiling	038	sub-17	1.0	4.0	038_smiling	0.0		36.98318623819796	
1.0	14.70046172115508	pulse	1.0	t		40.0	female	west_asian	1.5777954635893354	smiling	038	sub-17	1.0	4.0	038_smiling	0.0		37.683168609723	
1.0	15.40046733570398	pulse	1.0	t		40.0	female	west_asian	1.5777954635893354	smiling	038	sub-17	1.0	4.0	038_smiling	0.0		38.3831742242719	
2.0	16.008614407897767	face	0.0		146	54.0	female	white	2.286908077994429	smiling	136	sub-17	1.0	4.0	136_smiling	1.0	dominance	38.991321296465685	1.2416966562041125
2.0	16.10044065150487	pulse	0.0	t		54.0	female	white	2.286908077994429	smiling	136	sub-17	1.0	4.0	136_smiling	1.0	dominance	39.08314754007279	
2.0	16.80046709421822	pulse	0.0	t		54.0	female	white	2.286908077994429	smiling	136	sub-17	1.0	4.0	136_smiling	1.0	dominance	39.78317398278614	
2.0	17.25031106410188	fix	1.0		177	54.0	female	white	2.286908077994429	smiling	136	sub-17	1.0	4.0	136_smiling	1.0	dominance	40.2330179526698	1.5083370009015198
2.0	17.50041475213584	pulse	1.0	t		54.0	female	white	2.286908077994429	smiling	136	sub-17	1.0	4.0	136_smiling	1.0	dominance	40.48312164070376	
2.0	18.2004113109615	pulse	1.0	t		54.0	female	white	2.286908077994429	smiling	136	sub-17	1.0	4.0	136_smiling	1.0	dominance	41.18311819952942	
2.0	18.7586480650034	rating	2.0		293	54.0	female	white	2.286908077994429	smiling	136	sub-17	1.0	4.0	136_smiling	1.0	dominance	41.74135495357132	2.491614098192258
2.0	18.90041028464566	pulse	2.0	t		54.0	female	white	2.286908077994429	smiling	136	sub-17	1.0	4.0	136_smiling	1.0	dominance	41.88311717321358	
2.0	19.600424653060145	pulse	2.0	t		54.0	female	white	2.286908077994429	smiling	136	sub-17	1.0	4.0	136_smiling	1.0	dominance	42.58313154162806	
2.0	20.100393863600402	response	2.0	n		54.0	female	white	2.286908077994429	smiling	136	sub-17	1.0	4.0	136_smiling	1.0	dominance	43.08310075216832	
2.0	20.300384083418976	pulse	2.0	t		54.0	female	white	2.286908077994429	smiling	136	sub-17	1.0	4.0	136_smiling	1.0	dominance	43.283090971986894	
2.0	21.000380642244636	pulse	2.0	t		54.0	female	white	2.286908077994429	smiling	136	sub-17	1.0	4.0	136_smiling	1.0	dominance	43.983087530812554	
2.0	21.250262163195657	fix	3.0		444	54.0	female	white	2.286908077994429	smiling	136	sub-17	1.0	4.0	136_smiling	1.0	dominance	44.232969051763575	3.766605932947641
2.0	21.70038655865028	pulse	3.0	t		54.0	female	white	2.286908077994429	smiling	136	sub-17	1.0	4.0	136_smiling	1.0	dominance	44.6830934472182	
2.0	22.400381306330928	pulse	3.0	t		54.0	female	white	2.286908077994429	smiling	136	sub-17	1.0	4.0	136_smiling	1.0	dominance	45.383088194898846	
2.0	23.100368205717132	pulse	3.0	t		54.0	female	white	2.286908077994429	smiling	136	sub-17	1.0	4.0	136_smiling	1.0	dominance	46.08307509428505	
2.0	23.80034816238276	pulse	3.0	t		54.0	female	white	2.286908077994429	smiling	136	sub-17	1.0	4.0	136_smiling	1.0	dominance	46.78305505095068	
2.0	24.500355588075763	pulse	3.0	t		54.0	female	white	2.286908077994429	smiling	136	sub-17	1.0	4.0	136_smiling	1.0	dominance	47.48306247664368	
3.0	25.0168680961433	face	0.0		145	27.0	female	white	4.181058495821727	smiling	039	sub-17	1.0	4.0	039_smiling	1.0	attractiveness	47.99957498471122	1.2333367141363851
3.0	25.20033524288374	pulse	0.0	t		27.0	female	white	4.181058495821727	smiling	039	sub-17	1.0	4.0	039_smiling	1.0	attractiveness	48.18304213145166	
3.0	25.900352328015288	pulse	0.0	t		27.0	female	white	4.181058495821727	smiling	039	sub-17	1.0	4.0	039_smiling	1.0	attractiveness	48.883059216583206	
3.0	26.250204810279683	fix	1.0		177	27.0	female	white	4.181058495821727	smiling	039	sub-17	1.0	4.0	039_smiling	1.0	attractiveness	49.2329116988476	1.499989434989402
3.0	26.600310550944414	pulse	1.0	t		27.0	female	white	4.181058495821727	smiling	039	sub-17	1.0	4.0	039_smiling	1.0	attractiveness	49.58301743951233	
3.0	27.300315561778007	pulse	1.0	t		27.0	female	white	4.181058495821727	smiling	039	sub-17	1.0	4.0	039_smiling	1.0	attractiveness	50.283022450345925	
3.0	27.750194245269086	rating	2.0		294	27.0	female	white	4.181058495821727	smiling	039	sub-17	1.0	4.0	039_smiling	1.0	attractiveness	50.732901133837004	2.499984605269674
3.0	28.000300348162455	pulse	2.0	t		27.0	female	white	4.181058495821727	smiling	039	sub-17	1.0	4.0	039_smiling	1.0	attractiveness	50.98300723673037	
3.0	28.700291775410733	pulse	2.0	t		27.0	female	white	4.181058495821727	smiling	039	sub-17	1.0	4.0	039_smiling	1.0	attractiveness	51.68299866397865	
3.0	29.245127869834505	response	2.0	y		27.0	female	white	4.181058495821727	smiling	039	sub-17	1.0	4.0	039_smiling	1.0	attractiveness	52.22783475840242	
3.0	29.400274448793425	pulse	2.0	t		27.0	female	white	4.181058495821727	smiling	039	sub-17	1.0	4.0	039_smiling	1.0	attractiveness	52.38298133736134	
3.0	30.100293345069986	pulse	2.0	t		27.0	female	white	4.181058495821727	smiling	039	sub-17	1.0	4.0	039_smiling	1.0	attractiveness	53.083000233637904	
3.0	30.25017885053876	fix	3.0		444	27.0	female	white	4.181058495821727	smiling	039	sub-17	1.0	4.0	039_smiling	1.0	attractiveness	53.23288573910668	3.7665820862093824
3.0	30.800274207307666	pulse	3.0	t		27.0	female	white	4.181058495821727	smiling	039	sub-17	1.0	4.0	039_smiling	1.0	attractiveness	53.782981095875584	
3.0	31.500255069545346	pulse	3.0	t		27.0	female	white	4.181058495821727	smiling	039	sub-17	1.0	4.0	039_smiling	1.0	attractiveness	54.482961958113265	
3.0	32.20024710050893	pulse	3.0	t		27.0	female	white	4.181058495821727	smiling	039	sub-17	1.0	4.0	039_smiling	1.0	attractiveness	55.18295398907685	
3.0	32.90026478935488	pulse	3.0	t		27.0	female	white	4.181058495821727	smiling	039	sub-17	1.0	4.0	039_smiling	1.0	attractiveness	55.8829716779228	
3.0	33.60023327543695	pulse	3.0	t		27.0	female	white	4.181058495821727	smiling	039	sub-17	1.0	4.0	039_smiling	1.0	attractiveness	56.58294016400487	
4.0	34.01676093674814	face	0.0		145	28.0	male	east_asian	1.5563072025467568	neutral	005	sub-17	1.0	4.0	005_neutral	0.0		56.99946782531606	1.2333394308543575
4.0	34.30024039927321	pulse	0.0	t		28.0	male	east_asian	1.5563072025467568	neutral	005	sub-17	1.0	4.0	005_neutral	0.0		57.282947287841125	
4.0	35.00021582807676	pulse	0.0	t		28.0	male	east_asian	1.5563072025467568	neutral	005	sub-17	1.0	4.0	005_neutral	0.0		57.98292271664468	
4.0	35.2501003676025	fix	1.0		444	28.0	male	east_asian	1.5563072025467568	neutral	005	sub-17	1.0	4.0	005_neutral	0.0		58.23280725617042	3.76660502737559
4.0	35.700232309493	pulse	1.0	t		28.0	male	east_asian	1.5563072025467568	neutral	005	sub-17	1.0	4.0	005_neutral	0.0		58.68293919806092	
4.0	36.4002261516016	pulse	1.0	t		28.0	male	east_asian	1.5563072025467568	neutral	005	sub-17	1.0	4.0	005_neutral	0.0		59.38293304016952	
4.0	37.10020429712222	pulse	1.0	t		28.0	male	east_asian	1.5563072025467568	neutral	005	sub-17	1.0	4.0	005_neutral	0.0		60.082911185690136	
4.0	37.800198139229906	pulse	1.0	t		28.0	male	east_asian	1.5563072025467568	neutral	005	sub-17	1.0	4.0	005_neutral	0.0		60.782905027797824	
4.0	38.50017869961084	pulse	1.0	t		28.0	male	east_asian	1.5563072025467568	neutral	005	sub-17	1.0	4.0	005_neutral	0.0		61.48288558817876	
5.0	39.01670539497809	face	0.0		145	31.0	male	west_asian	1.9538400318344609	smiling	070	sub-17	1.0	4.0	070_smiling	0.0		61.99941228354601	1.2333557311558252
5.0	39.20017827701031	pulse	0.0	t		31.0	male	west_asian	1.9538400318344609	smiling	070	sub-17	1.0	4.0	070_smiling	0.0		62.18288516557823	
5.0	39.90017151540269	pulse	0.0	t		31.0	male	west_asian	1.9538400318344609	smiling	070	sub-17	1.0	4.0	070_smiling	0.0		62.88287840397061	
5.0	40.250061126133915	fix	1.0		444	31.0	male	west_asian	1.9538400318344609	smiling	070	sub-17	1.0	4.0	070_smiling	0.0		63.23276801470183	3.766588727073213
5.0	40.60016143336452	pulse	1.0	t		31.0	male	west_asian	1.9538400318344609	smiling	070	sub-17	1.0	4.0	070_smiling	0.0		63.58286832193244	
5.0	41.300140182599534	pulse	1.0	t		31.0	male	west_asian	1.9538400318344609	smiling	070	sub-17	1.0	4.0	070_smiling	0.0		64.28284707116745	
5.0	42.0001497212952	pulse	1.0	t		31.0	male	west_asian	1.9538400318344609	smiling	070	sub-17	1.0	4.0	070_smiling	0.0		64.98285660986312	
5.0	42.70013601696701	pulse	1.0	t		31.0	male	west_asian	1.9538400318344609	smiling	070	sub-17	1.0	4.0	070_smiling	0.0		65.68284290553493	
5.0	43.40011446434528	pulse	1.0	t		31.0	male	west_asian	1.9538400318344609	smiling	070	sub-17	1.0	4.0	070_smiling	0.0		66.3828213529132	
6.0	44.01664985320713	face	0.0		145	40.0	male	black	2.408674890569041	smiling	061	sub-17	1.0	4.0	061_smiling	0.0		66.99935674177505	1.233350599579353
6.0	44.100110721312376	pulse	0.0	t		40.0	male	black	2.408674890569041	smiling	061	sub-17	1.0	4.0	061_smiling	0.0		67.0828176098803	
6.0	44.80010426156332	pulse	0.0	t		40.0	male	black	2.408674890569041	smiling	061	sub-17	1.0	4.0	061_smiling	0.0		67.78281115013124	
6.0	45.25000045278648	fix	1.0		444	40.0	male	black	2.408674890569041	smiling	061	sub-17	1.0	4.0	061_smiling	0.0		68.2327073413544	3.7665808787796777
6.0	45.50009780181426	pulse	1.0	t		40.0	male	black	2.408674890569041	smiling	061	sub-17	1.0	4.0	061_smiling	0.0		68.48280469038218	
6.0	46.20008138076901	pulse	1.0	t		40.0	male	black	2.408674890569041	smiling	061	sub-17	1.0	4.0	061_smiling	0.0		69.18278826933692	
6.0	46.900076128448745	pulse	1.0	t		40.0	male	black	2.408674890569041	smiling	061	sub-17	1.0	4.0	061_smiling	0.0		69.88278301701666	
6.0	47.60006393340791	pulse	1.0	t		40.0	male	black	2.408674890569041	smiling	061	sub-17	1.0	4.0	061_smiling	0.0		70.58277082197583	
6.0	48.30005958666061	pulse	1.0	t		40.0	male	black	2.408674890569041	smiling	061	sub-17	1.0	4.0	061_smiling	0.0		71.28276647522853	
7.0	49.01658133156616	face	0.0		146	22.0	male	black	2.767608436132113	neutral	044	sub-17	1.0	4.0	044_neutral	0.0		71.99928822013408	1.233335808564334
7.0	49.002438102620545	pulse	0.0	t		22.0	male	black	2.767608436132113	neutral	044	sub-17	1.0	4.0	044_neutral	0.0		71.98514499118846	
7.0	49.700076249191625	pulse	0.0	t		22.0	male	black	2.767608436132113	neutral	044	sub-17	1.0	4.0	044_neutral	0.0		72.68278313775954	
7.0	50.24991714013049	fix	1.0		443	22.0	male	black	2.767608436132113	neutral	044	sub-17	1.0	4.0	044_neutral	0.0		73.23262402869841	3.7666315908309116
7.0	50.4000441315593	pulse	1.0	t		22.0	male	black	2.767608436132113	neutral	044	sub-17	1.0	4.0	044_neutral	0.0		73.38275102012722	
7.0	51.1000497461082	pulse	1.0	t		22.0	male	black	2.767608436132113	neutral	044	sub-17	1.0	4.0	044_neutral	0.0		74.08275663467612	
7.0	51.80002336376674	pulse	1.0	t		22.0	male	black	2.767608436132113	neutral	044	sub-17	1.0	4.0	044_neutral	0.0		74.78273025233466	
7.0	52.50003290246241	pulse	1.0	t		22.0	male	black	2.767608436132113	neutral	044	sub-17	1.0	4.0	044_neutral	0.0		75.48273979103033	
7.0	53.20000289783184	pulse	1.0	t		22.0	male	black	2.767608436132113	neutral	044	sub-17	1.0	4.0	044_neutral	0.0		76.18270978639976	
7.0	53.90001273838425	pulse	1.0	t		22.0	male	black	2.767608436132113	neutral	044	sub-17	1.0	4.0	044_neutral	0.0		76.88271962695217	
8.0	54.016548730961404	face	0.0		146	25.0	female	west_asian	2.6756864305610826	neutral	064	sub-17	1.0	4.0	064_neutral	1.0	trustworthiness	76.99925561952932	1.2333149803998822
8.0	54.59999480805163	pulse	0.0	t		25.0	female	west_asian	2.6756864305610826	neutral	064	sub-17	1.0	4.0	064_neutral	1.0	trustworthiness	77.58270169661955	
8.0	55.249863711361286	fix	1.0		176	25.0	female	west_asian	2.6756864305610826	neutral	064	sub-17	1.0	4.0	064_neutral	1.0	trustworthiness	78.2325705999292	1.4999846052705834
8.0	55.29998714087287	pulse	1.0	t		25.0	female	west_asian	2.6756864305610826	neutral	064	sub-17	1.0	4.0	064_neutral	1.0	trustworthiness	78.28269402944079	
8.0	55.9999776625491	pulse	1.0	t		25.0	female	west_asian	2.6756864305610826	neutral	064	sub-17	1.0	4.0	064_neutral	1.0	trustworthiness	78.98268455111702	
8.0	56.69998599381415	pulse	1.0	t		25.0	female	west_asian	2.6756864305610826	neutral	064	sub-17	1.0	4.0	064_neutral	1.0	trustworthiness	79.68269288238207	
8.0	56.74984831663187	rating	2.0		295	25.0	female	west_asian	2.6756864305610826	neutral	064	sub-17	1.0	4.0	064_neutral	1.0	trustworthiness	79.73255520519979	2.4999710216843596
8.0	57.39997228948596	pulse	2.0	t		25.0	female	west_asian	2.6756864305610826	neutral	064	sub-17	1.0	4.0	064_neutral	1.0	trustworthiness	80.38267917805388	
8.0	58.099946209003065	pulse	2.0	t		25.0	female	west_asian	2.6756864305610826	neutral	064	sub-17	1.0	4.0	064_neutral	1.0	trustworthiness	81.08265309757098	
8.0	58.28325759729978	response	2.0	y		25.0	female	west_asian	2.6756864305610826	neutral	064	sub-17	1.0	4.0	064_neutral	1.0	trustworthiness	81.2659644858677	
8.0	58.79993673067838	pulse	2.0	t		25.0	female	west_asian	2.6756864305610826	neutral	064	sub-17	1.0	4.0	064_neutral	1.0	trustworthiness	81.7826436192463	
8.0	59.24981933831623	fix	3.0		444	25.0	female	west_asian	2.6756864305610826	neutral	064	sub-17	1.0	4.0	064_neutral	1.0	trustworthiness	82.23252622688415	3.76659929208472
8.0	59.49993087464463	pulse	3.0	t		25.0	female	west_asian	2.6756864305610826	neutral	064	sub-17	1.0	4.0	064_neutral	1.0	trustworthiness	82.48263776321255	
8.0	60.199920188890246	pulse	3.0	t		25.0	female	west_asian	2.6756864305610826	neutral	064	sub-17	1.0	4.0	064_neutral	1.0	trustworthiness	83.18262707745816	
8.0	60.89993546287769	pulse	3.0	t		25.0	female	west_asian	2.6756864305610826	neutral	064	sub-17	1.0	4.0	064_neutral	1.0	trustworthiness	83.88264235144561	
8.0	61.59990998610829	pulse	3.0	t		25.0	female	west_asian	2.6756864305610826	neutral	064	sub-17	1.0	4.0	064_neutral	1.0	trustworthiness	84.5826168746762	
8.0	62.299912280225726	pulse	3.0	t		25.0	female	west_asian	2.6756864305610826	neutral	064	sub-17	1.0	4.0	064_neutral	1.0	trustworthiness	85.28261916879364	
9.0	63.01641863040095	face	0.0		146	28.0	female	white	5.676880222841227	neutral	124	sub-17	1.0	4.0	124_neutral	0.0		85.99912551896887	1.233349995864046
9.0	63.002993520328346	pulse	0.0	t		28.0	female	white	5.676880222841227	neutral	124	sub-17	1.0	4.0	124_neutral	0.0		85.98570040889626	
9.0	63.699885475283736	pulse	0.0	t		28.0	female	white	5.676880222841227	neutral	124	sub-17	1.0	4.0	124_neutral	0.0		86.68259236385165	
9.0	64.249768626265	fix	1.0		443	28.0	female	white	5.676880222841227	neutral	124	sub-17	1.0	4.0	124_neutral	0.0		87.23247551483291	3.766615592386188
9.0	64.39987961924908	pulse	1.0	t		28.0	female	white	5.676880222841227	neutral	124	sub-17	1.0	4.0	124_neutral	0.0		87.382586507817	
9.0	65.09988432822593	pulse	1.0	t		28.0	female	white	5.676880222841227	neutral	124	sub-17	1.0	4.0	124_neutral	0.0		88.08259121679384	
9.0	65.79985371988005	pulse	1.0	t		28.0	female	white	5.676880222841227	neutral	124	sub-17	1.0	4.0	124_neutral	0.0		88.78256060844797	
9.0	66.4998490712751	pulse	1.0	t		28.0	female	white	5.676880222841227	neutral	124	sub-17	1.0	4.0	124_neutral	0.0		89.48255595984301	
9.0	67.19982178336159	pulse	1.0	t		28.0	female	white	5.676880222841227	neutral	124	sub-17	1.0	4.0	124_neutral	0.0		90.1825286719295	
9.0	67.89983403877432	pulse	1.0	t		28.0	female	white	5.676880222841227	neutral	124	sub-17	1.0	4.0	124_neutral	0.0		90.88254092734223	
10.0	68.01638421865118	face	0.0		146	20.0	female	white	3.9502586549940313	neutral	091	sub-17	1.0	4.0	091_neutral	0.0		90.9990911072191	1.233327960270799
10.0	68.59982033444612	pulse	0.0	t		20.0	female	white	3.9502586549940313	neutral	091	sub-17	1.0	4.0	091_neutral	0.0		91.58252722301404	
10.0	69.24971217892198	fix	1.0		443	20.0	female	white	3.9502586549940313	neutral	091	sub-17	1.0	4.0	091_neutral	0.0		92.2324190674899	3.766571219341131
10.0	69.29981085612235	pulse	1.0	t		20.0	female	white	3.9502586549940313	neutral	091	sub-17	1.0	4.0	091_neutral	0.0		92.28251774469027	
10.0	69.99980982980651	pulse	1.0	t		20.0	female	white	3.9502586549940313	neutral	091	sub-17	1.0	4.0	091_neutral	0.0		92.98251671837443	
10.0	70.69983627251986	pulse	1.0	t		20.0	female	white	3.9502586549940313	neutral	091	sub-17	1.0	4.0	091_neutral	0.0		93.68254316108778	
10.0	71.39981954961695	pulse	1.0	t		20.0	female	white	3.9502586549940313	neutral	091	sub-17	1.0	4.0	091_neutral	0.0		94.38252643818487	
10.0	72.09978682826932	pulse	1.0	t		20.0	female	white	3.9502586549940313	neutral	091	sub-17	1.0	4.0	091_neutral	0.0		95.08249371683723	
10.0	72.79977402951317	pulse	1.0	t		20.0	female	white	3.9502586549940313	neutral	091	sub-17	1.0	4.0	091_neutral	0.0		95.78248091808109	
11.0	73.01628339826311	face	0.0		145	22.0	male	black	2.767608436132113	smiling	044	sub-17	1.0	4.0	044_smiling	0.0		95.99899028683103	1.233380181609391
11.0	73.49976998462353	pulse	0.0	t		22.0	male	black	2.767608436132113	smiling	044	sub-17	1.0	4.0	044_smiling	0.0		96.48247687319144	
11.0	74.19975990258445	pulse	0.0	t		22.0	male	black	2.767608436132113	smiling	044	sub-17	1.0	4.0	044_smiling	0.0		97.18246679115236	
11.0	74.2496635798725	fix	1.0		445	22.0	male	black	2.767608436132113	smiling	044	sub-17	1.0	4.0	044_smiling	0.0		97.23237046844042	3.766585104784099
11.0	74.89975132983363	pulse	1.0	t		22.0	male	black	2.767608436132113	smiling	044	sub-17	1.0	4.0	044_smiling	0.0		97.88245821840155	
11.0	75.5997409459369	pulse	1.0	t		22.0	male	black	2.767608436132113	smiling	044	sub-17	1.0	4.0	044_smiling	0.0		98.58244783450482	
11.0	76.29972693975105	pulse	1.0	t		22.0	male	black	2.767608436132113	smiling	044	sub-17	1.0	4.0	044_smiling	0.0		99.28243382831897	
11.0	76.99972259300375	pulse	1.0	t		22.0	male	black	2.767608436132113	smiling	044	sub-17	1.0	4.0	044_smiling	0.0		99.98242948157167	
11.0	77.69971160539262	pulse	1.0	t		22.0	male	black	2.767608436132113	smiling	044	sub-17	1.0	4.0	044_smiling	0.0		100.68241849396054	
12.0	78.0162486846566	face	0.0		145	40.0	male	white	1.868682849184242	smiling	172	sub-17	1.0	4.0	172_smiling	1.0	trustworthiness	100.99895557322452	1.2333367141363851
12.0	78.39971148464974	pulse	0.0	t		40.0	male	white	1.868682849184242	smiling	172	sub-17	1.0	4.0	172_smiling	1.0	trustworthiness	101.38241837321766	
12.0	79.09970200632597	pulse	0.0	t		40.0	male	white	1.868682849184242	smiling	172	sub-17	1.0	4.0	172_smiling	1.0	trustworthiness	102.08240889489389	
12.0	79.24958539879299	fix	1.0		177	40.0	male	white	1.868682849184242	smiling	172	sub-17	1.0	4.0	172_smiling	1.0	trustworthiness	102.2322922873609	1.4999806811238159
12.0	79.79969584843366	pulse	1.0	t		40.0	male	white	1.868682849184242	smiling	172	sub-17	1.0	4.0	172_smiling	1.0	trustworthiness	102.78240273700158	
12.0	80.49969512397638	pulse	1.0	t		40.0	male	white	1.868682849184242	smiling	172	sub-17	1.0	4.0	172_smiling	1.0	trustworthiness	103.4824020125443	
12.0	80.7495660799168	rating	2.0		295	40.0	male	white	1.868682849184242	smiling	172	sub-17	1.0	4.0	172_smiling	1.0	trustworthiness	103.73227296848472	2.499970719826706
12.0	81.19967870293112	pulse	2.0	t		40.0	male	white	1.868682849184242	smiling	172	sub-17	1.0	4.0	172_smiling	1.0	trustworthiness	104.18238559149904	
12.0	81.8996819026197	pulse	2.0	t		40.0	male	white	1.868682849184242	smiling	172	sub-17	1.0	4.0	172_smiling	1.0	trustworthiness	104.88238879118762	
12.0	82.53618033205566	response	2.0	e		40.0	male	white	1.868682849184242	smiling	172	sub-17	1.0	4.0	172_smiling	1.0	trustworthiness	105.51888722062358	
12.0	82.59966819829151	pulse	2.0	t		40.0	male	white	1.868682849184242	smiling	172	sub-17	1.0	4.0	172_smiling	1.0	trustworthiness	105.58237508685943	
12.0	83.24953679974351	fix	3.0		443	40.0	male	white	1.868682849184242	smiling	172	sub-17	1.0	4.0	172_smiling	1.0	trustworthiness	106.23224368831143	3.766607744092653
12.0	83.29965328653361	pulse	3.0	t		40.0	male	white	1.868682849184242	smiling	172	sub-17	1.0	4.0	172_smiling	1.0	trustworthiness	106.28236017510153	
12.0	83.99964048777747	pulse	3.0	t		40.0	male	white	1.868682849184242	smiling	172	sub-17	1.0	4.0	172_smiling	1.0	trustworthiness	106.98234737634539	
12.0	84.69961863329809	pulse	3.0	t		40.0	male	white	1.868682849184242	smiling	172	sub-17	1.0	4.0	172_smiling	1.0	trustworthiness	107.682325521866	
12.0	85.39965684845174	pulse	3.0	t		40.0	male	white	1.868682849184242	smiling	172	sub-17	1.0	4.0	172_smiling	1.0	trustworthiness	108.38236373701966	
12.0	86.09963257911295	pulse	3.0	t		40.0	male	white	1.868682849184242	smiling	172	sub-17	1.0	4.0	172_smiling	1.0	trustworthiness	109.08233946768087	
12.0	86.7996074042012	pulse	3.0	t		40.0	male	white	1.868682849184242	smiling	172	sub-17	1.0	4.0	172_smiling	1.0	trustworthiness	109.78231429276912	
13.0	87.01614454383616	face	0.0		145	25.0	female	west_asian	2.6756864305610826	smiling	064	sub-17	1.0	4.0	064_smiling	0.0		109.99885143240408	1.233335808564334
13.0	87.49960335931155	pulse	0.0	t		25.0	female	west_asian	2.6756864305610826	smiling	064	sub-17	1.0	4.0	064_smiling	0.0		110.48231024787947	
13.0	88.19963614103017	pulse	0.0	t		25.0	female	west_asian	2.6756864305610826	smiling	064	sub-17	1.0	4.0	064_smiling	0.0		111.18234302959809	
13.0	88.2494803524005	fix	1.0		445	25.0	female	west_asian	2.6756864305610826	smiling	064	sub-17	1.0	4.0	064_smiling	0.0		111.23218724096841	3.7666038199458853
13.0	88.89959134538458	pulse	1.0	t		25.0	female	west_asian	2.6756864305610826	smiling	064	sub-17	1.0	4.0	064_smiling	0.0		111.8822982339525	
13.0	89.59958518749318	pulse	1.0	t		25.0	female	west_asian	2.6756864305610826	smiling	064	sub-17	1.0	4.0	064_smiling	0.0		112.5822920760611	
13.0	90.29957118130733	pulse	1.0	t		25.0	female	west_asian	2.6756864305610826	smiling	064	sub-17	1.0	4.0	064_smiling	0.0		113.28227806987525	
13.0	90.99955989183854	pulse	1.0	t		25.0	female	west_asian	2.6756864305610826	smiling	064	sub-17	1.0	4.0	064_smiling	0.0		113.98226678040646	
13.0	91.69955162094448	pulse	1.0	t		25.0	female	west_asian	2.6756864305610826	smiling	064	sub-17	1.0	4.0	064_smiling	0.0		114.6822585095124	
14.0	92.01608417234638	face	0.0		145	19.0	female	white	4.298846000795861	neutral	100	sub-17	1.0	4.0	100_neutral	0.0		114.9987910609143	1.2333373178516922
14.0	92.39955965035278	pulse	0.0	t		19.0	female	white	4.298846000795861	neutral	100	sub-17	1.0	4.0	100_neutral	0.0		115.3822665389207	
14.0	93.09953960701841	pulse	0.0	t		19.0	female	white	4.298846000795861	neutral	100	sub-17	1.0	4.0	100_neutral	0.0		116.08224649558633	
14.0	93.24942149019807	fix	1.0		444	19.0	female	white	4.298846000795861	neutral	100	sub-17	1.0	4.0	100_neutral	0.0		116.23212837876599	3.76660502737559
14.0	93.79952952497933	pulse	1.0	t		19.0	female	white	4.298846000795861	neutral	100	sub-17	1.0	4.0	100_neutral	0.0		116.78223641354725	
14.0	94.49952065036996	pulse	1.0	t		19.0	female	white	4.298846000795861	neutral	100	sub-17	1.0	4.0	100_neutral	0.0		117.48222753893788	
14.0	95.19952988720797	pulse	1.0	t		19.0	female	white	4.298846000795861	neutral	100	sub-17	1.0	4.0	100_neutral	0.0		118.18223677577589	
14.0	95.89950018443506	pulse	1.0	t		19.0	female	white	4.298846000795861	neutral	100	sub-17	1.0	4.0	100_neutral	0.0		118.88220707300297	
14.0	96.59949402654274	pulse	1.0	t		19.0	female	white	4.298846000795861	neutral	100	sub-17	1.0	4.0	100_neutral	0.0		119.58220091511066	
15.0	97.01602651757366	face	0.0		145	27.0	male	black	3.5523278949462798	smiling	042	sub-17	1.0	4.0	042_smiling	0.0		119.99873340614158	1.2333339974193223
15.0	97.29949300022781	pulse	0.0	t		27.0	male	black	3.5523278949462798	smiling	042	sub-17	1.0	4.0	042_smiling	0.0		120.28219988879573	
15.0	97.99947265503579	pulse	0.0	t		27.0	male	black	3.5523278949462798	smiling	042	sub-17	1.0	4.0	042_smiling	0.0		120.9821795436037	
15.0	98.24936051499299	fix	1.0		444	27.0	male	black	3.5523278949462798	smiling	042	sub-17	1.0	4.0	042_smiling	0.0		121.2320674035609	3.7666098570944087
15.0	98.69947676029733	pulse	1.0	t		27.0	male	black	3.5523278949462798	smiling	042	sub-17	1.0	4.0	042_smiling	0.0		121.68218364886525	
15.0	99.39946003739442	pulse	1.0	t		27.0	male	black	3.5523278949462798	smiling	042	sub-17	1.0	4.0	042_smiling	0.0		122.38216692596234	
15.0	100.09945478507507	pulse	1.0	t		27.0	male	black	3.5523278949462798	smiling	042	sub-17	1.0	4.0	042_smiling	0.0		123.08216167364299	
15.0	100.79944681603774	pulse	1.0	t		27.0	male	black	3.5523278949462798	smiling	042	sub-17	1.0	4.0	042_smiling	0.0		123.78215370460566	
15.0	101.49941832069453	pulse	1.0	t		27.0	male	black	3.5523278949462798	smiling	042	sub-17	1.0	4.0	042_smiling	0.0		124.48212520926245	
16.0	102.0159703720874	face	0.0		145	24.0	male	white	3.1153999204138483	smiling	012	sub-17	1.0	4.0	012_smiling	0.0		124.99867726065531	1.2333342992778853
16.0	102.19944597083759	pulse	0.0	t		24.0	male	white	3.1153999204138483	smiling	012	sub-17	1.0	4.0	012_smiling	0.0		125.1821528594055	
16.0	102.89941898478082	pulse	0.0	t		24.0	male	white	3.1153999204138483	smiling	012	sub-17	1.0	4.0	012_smiling	0.0		125.88212587334874	
16.0	103.24930467136528	fix	1.0		444	24.0	male	white	3.1153999204138483	smiling	012	sub-17	1.0	4.0	012_smiling	0.0		126.2320115599332	3.766600801371169
16.0	103.59943999406005	pulse	1.0	t		24.0	male	white	3.1153999204138483	smiling	012	sub-17	1.0	4.0	012_smiling	0.0		126.58214688262797	
16.0	104.29940666899711	pulse	1.0	t		24.0	male	white	3.1153999204138483	smiling	012	sub-17	1.0	4.0	012_smiling	0.0		127.28211355756503	
16.0	104.99943522471222	pulse	1.0	t		24.0	male	white	3.1153999204138483	smiling	012	sub-17	1.0	4.0	012_smiling	0.0		127.98214211328013	
16.0	105.69939284392603	pulse	1.0	t		24.0	male	white	3.1153999204138483	smiling	012	sub-17	1.0	4.0	012_smiling	0.0		128.68209973249395	
16.0	106.39938759160668	pulse	1.0	t		24.0	male	white	3.1153999204138483	smiling	012	sub-17	1.0	4.0	012_smiling	0.0		129.3820944801746	
17.0	107.01590547273645	face	0.0		145	27.0	female	white	3.504576203740549	smiling	144	sub-17	1.0	4.0	144_smiling	0.0		129.99861236130437	1.2333415438561133
17.0	107.09940437488058	pulse	0.0	t		27.0	female	white	3.504576203740549	smiling	144	sub-17	1.0	4.0	144_smiling	0.0		130.0821112634485	
17.0	107.79936833310148	pulse	0.0	t		27.0	female	white	3.504576203740549	smiling	144	sub-17	1.0	4.0	144_smiling	0.0		130.7820752216694	
17.0	108.24924701659256	fix	1.0		444	27.0	female	white	3.504576203740549	smiling	144	sub-17	1.0	4.0	144_smiling	0.0		131.23195390516048	3.7665995939405548
17.0	108.49935100648327	pulse	1.0	t		27.0	female	white	3.504576203740549	smiling	144	sub-17	1.0	4.0	144_smiling	0.0		131.48205789505118	
17.0	109.19934635787922	pulse	1.0	t		27.0	female	white	3.504576203740549	smiling	144	sub-17	1.0	4.0	144_smiling	0.0		132.18205324644714	
17.0	109.89934231298867	pulse	1.0	t		27.0	female	white	3.504576203740549	smiling	144	sub-17	1.0	4.0	144_smiling	0.0		132.88204920155658	
17.0	110.59934219224579	pulse	1.0	t		27.0	female	white	3.504576203740549	smiling	144	sub-17	1.0	4.0	144_smiling	0.0		133.5820490808137	
17.0	111.29932063962406	pulse	1.0	t		27.0	female	white	3.504576203740549	smiling	144	sub-17	1.0	4.0	144_smiling	0.0		134.28202752819197	
18.0	112.01584661053312	face	0.0		146	28.0	male	white	3.9076800636689217	neutral	033	sub-17	1.0	4.0	033_neutral	0.0		134.99855349910104	1.2333412419984597
18.0	112.00232550979217	pulse	0.0	t		28.0	male	white	3.9076800636689217	neutral	033	sub-17	1.0	4.0	033_neutral	0.0		134.9850323983601	
18.0	112.69930922941239	pulse	0.0	t		28.0	male	white	3.9076800636689217	neutral	033	sub-17	1.0	4.0	033_neutral	0.0		135.6820161179803	
18.0	113.24918785253158	fix	1.0		443	28.0	male	white	3.9076800636689217	neutral	033	sub-17	1.0	4.0	033_neutral	0.0		136.2318947410995	3.766604121803539
18.0	113.39930186409038	pulse	1.0	t		28.0	male	white	3.9076800636689217	neutral	033	sub-17	1.0	4.0	033_neutral	0.0		136.3820087526583	
18.0	114.09928876347749	pulse	1.0	t		28.0	male	white	3.9076800636689217	neutral	033	sub-17	1.0	4.0	033_neutral	0.0		137.0819956520454	
18.0	114.79929377431108	pulse	1.0	t		28.0	male	white	3.9076800636689217	neutral	033	sub-17	1.0	4.0	033_neutral	0.0		137.782000662879	
18.0	115.49927705140817	pulse	1.0	t		28.0	male	white	3.9076800636689217	neutral	033	sub-17	1.0	4.0	033_neutral	0.0		138.4819839399761	
18.0	116.19926666751235	pulse	1.0	t		28.0	male	white	3.9076800636689217	neutral	033	sub-17	1.0	4.0	033_neutral	0.0		139.18197355608027	
18.0	116.89925688733092	pulse	1.0	t		28.0	male	white	3.9076800636689217	neutral	033	sub-17	1.0	4.0	033_neutral	0.0		139.88196377589884	
19.0	117.01579197433512	face	0.0		146	19.0	male	white	2.243931555909272	neutral	130	sub-17	1.0	4.0	130_neutral	0.0		139.99849886290303	1.2333370159940387
19.0	117.59925103129626	pulse	0.0	t		19.0	male	white	2.243931555909272	neutral	130	sub-17	1.0	4.0	130_neutral	0.0		140.58195791986418	
19.0	118.24912899032915	fix	1.0		444	19.0	male	white	2.243931555909272	neutral	130	sub-17	1.0	4.0	130_neutral	0.0		141.23183587889707	3.7749423301347633
19.0	118.2992669089981	pulse	1.0	t		19.0	male	white	2.243931555909272	neutral	130	sub-17	1.0	4.0	130_neutral	0.0		141.28197379756602	
19.0	118.99922633935694	pulse	1.0	t		19.0	male	white	2.243931555909272	neutral	130	sub-17	1.0	4.0	130_neutral	0.0		141.98193322792486	
19.0	119.69922259632403	pulse	1.0	t		19.0	male	white	2.243931555909272	neutral	130	sub-17	1.0	4.0	130_neutral	0.0		142.68192948489195	
19.0	120.39921885329204	pulse	1.0	t		19.0	male	white	2.243931555909272	neutral	130	sub-17	1.0	4.0	130_neutral	0.0		143.38192574185996	
19.0	121.09921148797002	pulse	1.0	t		19.0	male	white	2.243931555909272	neutral	130	sub-17	1.0	4.0	130_neutral	0.0		144.08191837653794	
19.0	121.79923189353394	pulse	1.0	t		19.0	male	white	2.243931555909272	neutral	130	sub-17	1.0	4.0	130_neutral	0.0		144.78193878210186	
20.0	122.02407132046392	face	0.0		145	32.0	male	white	2.389176283326701	neutral	092	sub-17	1.0	4.0	092_neutral	0.0		145.00677820903184	1.2333309788446059
20.0	122.49924173408635	pulse	0.0	t		32.0	male	white	2.389176283326701	neutral	092	sub-17	1.0	4.0	092_neutral	0.0		145.48194862265427	
20.0	123.19918999572019	pulse	0.0	t		32.0	male	white	2.389176283326701	neutral	092	sub-17	1.0	4.0	092_neutral	0.0		146.1818968842881	
20.0	123.25740229930852	fix	1.0		1185	32.0	male	white	2.389176283326701	neutral	092	sub-17	1.0	4.0	092_neutral	0.0		146.24010918787644	10.016534845518436
20.0	123.89918112111081	pulse	1.0	t		32.0	male	white	2.389176283326701	neutral	092	sub-17	1.0	4.0	092_neutral	0.0		146.88188800967873	
20.0	124.59917103907173	pulse	1.0	t		32.0	male	white	2.389176283326701	neutral	092	sub-17	1.0	4.0	092_neutral	0.0		147.58187792763965	
20.0	125.29916216446327	pulse	1.0	t		32.0	male	white	2.389176283326701	neutral	092	sub-17	1.0	4.0	092_neutral	0.0		148.2818690530312	
20.0	125.99915811957362	pulse	1.0	t		32.0	male	white	2.389176283326701	neutral	092	sub-17	1.0	4.0	092_neutral	0.0		148.98186500814154	
20.0	126.69914501895983	pulse	1.0	t		32.0	male	white	2.389176283326701	neutral	092	sub-17	1.0	4.0	092_neutral	0.0		149.68185190752774	
20.0	127.39914127592783	pulse	1.0	t		32.0	male	white	2.389176283326701	neutral	092	sub-17	1.0	4.0	092_neutral	0.0		150.38184816449575	
20.0	128.09912998645905	pulse	1.0	t		32.0	male	white	2.389176283326701	neutral	092	sub-17	1.0	4.0	092_neutral	0.0		151.08183687502697	
20.0	128.79914103444116	pulse	1.0	t		32.0	male	white	2.389176283326701	neutral	092	sub-17	1.0	4.0	092_neutral	0.0		151.78184792300908	
20.0	129.49910650194943	pulse	1.0	t		32.0	male	white	2.389176283326701	neutral	092	sub-17	1.0	4.0	092_neutral	0.0		152.48181339051735	
20.0	130.19910698492095	pulse	1.0	t		32.0	male	white	2.389176283326701	neutral	092	sub-17	1.0	4.0	092_neutral	0.0		153.18181387348886	
20.0	130.8990941861657	pulse	1.0	t		32.0	male	white	2.389176283326701	neutral	092	sub-17	1.0	4.0	092_neutral	0.0		153.88180107473363	
20.0	131.59915836105938	pulse	1.0	t		32.0	male	white	2.389176283326701	neutral	092	sub-17	1.0	4.0	092_neutral	0.0		154.5818652496273	
20.0	132.299093039107	pulse	1.0	t		32.0	male	white	2.389176283326701	neutral	092	sub-17	1.0	4.0	092_neutral	0.0		155.2817999276749	
20.0	132.99906726048084	pulse	1.0	t		32.0	male	white	2.389176283326701	neutral	092	sub-17	1.0	4.0	092_neutral	0.0		155.98177414904876	
21.0	133.27393714482696	face	0.0		145	27.0	male	black	3.5523278949462798	neutral	042	sub-17	1.0	4.0	042_neutral	0.0		156.25664403339488	1.2333288658437596
21.0	133.69908072332328	pulse	0.0	t		27.0	male	black	3.5523278949462798	neutral	042	sub-17	1.0	4.0	042_neutral	0.0		156.6817876118912	
21.0	134.39905675584123	pulse	0.0	t		27.0	male	black	3.5523278949462798	neutral	042	sub-17	1.0	4.0	042_neutral	0.0		157.38176364440915	
21.0	134.50726601067072	fix	1.0		444	27.0	male	black	3.5523278949462798	neutral	042	sub-17	1.0	4.0	042_neutral	0.0		157.48997289923864	3.766612271953818
21.0	135.09904939052012	pulse	1.0	t		27.0	male	black	3.5523278949462798	neutral	042	sub-17	1.0	4.0	042_neutral	0.0		158.08175627908804	
21.0	135.7990214988913	pulse	1.0	t		27.0	male	black	3.5523278949462798	neutral	042	sub-17	1.0	4.0	042_neutral	0.0		158.78172838745922	
21.0	136.49904311188493	pulse	1.0	t		27.0	male	black	3.5523278949462798	neutral	042	sub-17	1.0	4.0	042_neutral	0.0		159.48175000045285	
21.0	137.19902246483525	pulse	1.0	t		27.0	male	black	3.5523278949462798	neutral	042	sub-17	1.0	4.0	042_neutral	0.0		160.18172935340317	
21.0	137.89901087350881	pulse	1.0	t		27.0	male	black	3.5523278949462798	neutral	042	sub-17	1.0	4.0	042_neutral	0.0		160.88171776207673	
22.0	138.27387828262454	face	0.0		145	24.0	female	east_asian	2.9076800636689217	neutral	034	sub-17	1.0	4.0	034_neutral	0.0		161.25658517119246	1.2333303751302083
22.0	138.59901135648124	pulse	0.0	t		24.0	female	east_asian	2.9076800636689217	neutral	034	sub-17	1.0	4.0	034_neutral	0.0		161.58171824504916	
22.0	139.29903659176398	pulse	0.0	t		24.0	female	east_asian	2.9076800636689217	neutral	034	sub-17	1.0	4.0	034_neutral	0.0		162.2817434803319	
22.0	139.50720865775475	fix	1.0		444	24.0	female	east_asian	2.9076800636689217	neutral	034	sub-17	1.0	4.0	034_neutral	0.0		162.48991554632266	3.766618912818558
22.0	139.9989930035481	pulse	1.0	t		24.0	female	east_asian	2.9076800636689217	neutral	034	sub-17	1.0	4.0	034_neutral	0.0		162.981699892116	
22.0	140.6989892605161	pulse	1.0	t		24.0	female	east_asian	2.9076800636689217	neutral	034	sub-17	1.0	4.0	034_neutral	0.0		163.68169614908402	
22.0	141.39898008404907	pulse	1.0	t		24.0	female	east_asian	2.9076800636689217	neutral	034	sub-17	1.0	4.0	034_neutral	0.0		164.381686972617	
22.0	142.0989612481444	pulse	1.0	t		24.0	female	east_asian	2.9076800636689217	neutral	034	sub-17	1.0	4.0	034_neutral	0.0		165.08166813671232	
22.0	142.79895418468004	pulse	1.0	t		24.0	female	east_asian	2.9076800636689217	neutral	034	sub-17	1.0	4.0	034_neutral	0.0		165.78166107324796	
23.0	143.2738275705733	face	0.0		145	25.0	female	black	3.858336649423	neutral	126	sub-17	1.0	4.0	126_neutral	0.0		166.25653445914122	1.233331582559913
23.0	143.4989631196604	pulse	0.0	t		25.0	female	black	3.858336649423	neutral	126	sub-17	1.0	4.0	126_neutral	0.0		166.48167000822832	
23.0	144.19894971718986	pulse	0.0	t		25.0	female	black	3.858336649423	neutral	126	sub-17	1.0	4.0	126_neutral	0.0		167.18165660575778	
23.0	144.50715915313322	fix	1.0		444	25.0	female	black	3.858336649423	neutral	126	sub-17	1.0	4.0	126_neutral	0.0		167.48986604170113	3.7666011032288225
23.0	144.89893510728962	pulse	1.0	t		25.0	female	black	3.858336649423	neutral	126	sub-17	1.0	4.0	126_neutral	0.0		167.88164199585754	
23.0	145.59892623268024	pulse	1.0	t		25.0	female	black	3.858336649423	neutral	126	sub-17	1.0	4.0	126_neutral	0.0		168.58163312124816	
23.0	146.29893818623532	pulse	1.0	t		25.0	female	black	3.858336649423	neutral	126	sub-17	1.0	4.0	126_neutral	0.0		169.28164507480324	
23.0	146.9989078797471	pulse	1.0	t		25.0	female	black	3.858336649423	neutral	126	sub-17	1.0	4.0	126_neutral	0.0		169.981614768315	
23.0	147.69891500358335	pulse	1.0	t		25.0	female	black	3.858336649423	neutral	126	sub-17	1.0	4.0	126_neutral	0.0		170.68162189215127	
24.0	148.27376025636204	face	0.0		145	25.0	female	black	3.858336649423	smiling	126	sub-17	1.0	4.0	126_smiling	0.0		171.25646714492996	1.233321319406059
24.0	148.39890884569104	pulse	0.0	t		25.0	female	black	3.858336649423	smiling	126	sub-17	1.0	4.0	126_smiling	0.0		171.38161573425896	
24.0	149.09888699121166	pulse	0.0	t		25.0	female	black	3.858336649423	smiling	126	sub-17	1.0	4.0	126_smiling	0.0		172.08159387977958	
24.0	149.5070815757681	fix	1.0		444	25.0	female	black	3.858336649423	smiling	126	sub-17	1.0	4.0	126_smiling	0.0		172.48978846433602	3.766624648110337
24.0	149.798881135177	pulse	1.0	t		25.0	female	black	3.858336649423	smiling	126	sub-17	1.0	4.0	126_smiling	0.0		172.78158802374492	
24.0	150.49889399430504	pulse	1.0	t		25.0	female	black	3.858336649423	smiling	126	sub-17	1.0	4.0	126_smiling	0.0		173.48160088287295	
24.0	151.19887576211477	pulse	1.0	t		25.0	female	black	3.858336649423	smiling	126	sub-17	1.0	4.0	126_smiling	0.0		174.18158265068269	
24.0	151.89885722806775	pulse	1.0	t		25.0	female	black	3.858336649423	smiling	126	sub-17	1.0	4.0	126_smiling	0.0		174.88156411663567	
24.0	152.5988519757475	pulse	1.0	t		25.0	female	black	3.858336649423	smiling	126	sub-17	1.0	4.0	126_smiling	0.0		175.5815588643154	
25.0	153.27370622387843	face	0.0		145	31.0	male	west_asian	1.9538400318344609	neutral	070	sub-17	1.0	4.0	070_neutral	1.0	dominance	176.25641311244635	1.2333276584131454
25.0	153.2988382714193	pulse	0.0	t		31.0	male	west_asian	1.9538400318344609	neutral	070	sub-17	1.0	4.0	070_neutral	1.0	dominance	176.28154515998722	
25.0	153.99882637823612	pulse	0.0	t		31.0	male	west_asian	1.9538400318344609	neutral	070	sub-17	1.0	4.0	070_neutral	1.0	dominance	176.98153326680404	
25.0	154.50703388229158	fix	1.0		177	31.0	male	west_asian	1.9538400318344609	neutral	070	sub-17	1.0	4.0	070_neutral	1.0	dominance	177.4897407708595	1.499999396284693
25.0	154.6988214277735	pulse	1.0	t		31.0	male	west_asian	1.9538400318344609	neutral	070	sub-17	1.0	4.0	070_neutral	1.0	dominance	177.68152831634143	
25.0	155.39881194944974	pulse	1.0	t		31.0	male	west_asian	1.9538400318344609	neutral	070	sub-17	1.0	4.0	070_neutral	1.0	dominance	178.38151883801766	
25.0	156.00703327857627	rating	2.0		294	31.0	male	west_asian	1.9538400318344609	neutral	070	sub-17	1.0	4.0	070_neutral	1.0	dominance	178.9897401671442	2.4999444582299475
25.0	156.09880760270244	pulse	2.0	t		31.0	male	west_asian	1.9538400318344609	neutral	070	sub-17	1.0	4.0	070_neutral	1.0	dominance	179.08151449127035	
25.0	156.7988071801019	pulse	2.0	t		31.0	male	west_asian	1.9538400318344609	neutral	070	sub-17	1.0	4.0	070_neutral	1.0	dominance	179.78151406866982	
25.0	157.49879075905665	pulse	2.0	t		31.0	male	west_asian	1.9538400318344609	neutral	070	sub-17	1.0	4.0	070_neutral	1.0	dominance	180.48149764762456	
25.0	157.6685034692482	response	2.0	y		31.0	male	west_asian	1.9538400318344609	neutral	070	sub-17	1.0	4.0	070_neutral	1.0	dominance	180.65121035781613	
25.0	158.19877886587346	pulse	2.0	t		31.0	male	west_asian	1.9538400318344609	neutral	070	sub-17	1.0	4.0	070_neutral	1.0	dominance	181.18148575444138	
25.0	158.50697773680622	fix	3.0		444	31.0	male	west_asian	1.9538400318344609	neutral	070	sub-17	1.0	4.0	070_neutral	1.0	dominance	181.48968462537414	3.766637627979435
25.0	158.89875670953643	pulse	3.0	t		31.0	male	west_asian	1.9538400318344609	neutral	070	sub-17	1.0	4.0	070_neutral	1.0	dominance	181.88146359810435	
25.0	159.59875900365296	pulse	3.0	t		31.0	male	west_asian	1.9538400318344609	neutral	070	sub-17	1.0	4.0	070_neutral	1.0	dominance	182.58146589222088	
25.0	160.2987543550489	pulse	3.0	t		31.0	male	west_asian	1.9538400318344609	neutral	070	sub-17	1.0	4.0	070_neutral	1.0	dominance	183.28146124361683	
25.0	160.99874125443512	pulse	3.0	t		31.0	male	west_asian	1.9538400318344609	neutral	070	sub-17	1.0	4.0	070_neutral	1.0	dominance	183.98144814300304	
25.0	161.69873177611134	pulse	3.0	t		31.0	male	west_asian	1.9538400318344609	neutral	070	sub-17	1.0	4.0	070_neutral	1.0	dominance	184.68143866467926	
26.0	162.27361536478566	face	0.0		145	28.0	female	white	5.676880222841227	smiling	124	sub-17	1.0	4.0	124_smiling	0.0		185.25632225335357	1.2333192064052128
26.0	162.39875338910497	pulse	0.0	t		28.0	female	white	5.676880222841227	smiling	124	sub-17	1.0	4.0	124_smiling	0.0		185.3814602776729	
26.0	163.09872942162292	pulse	0.0	t		28.0	female	white	5.676880222841227	smiling	124	sub-17	1.0	4.0	124_smiling	0.0		186.08143631019084	
26.0	163.50693457119087	fix	1.0		444	28.0	female	white	5.676880222841227	smiling	124	sub-17	1.0	4.0	124_smiling	0.0		186.4896414597588	3.766607744092653
26.0	163.798741375178	pulse	1.0	t		28.0	female	white	5.676880222841227	smiling	124	sub-17	1.0	4.0	124_smiling	0.0		186.78144826374592	
26.0	164.4987041259692	pulse	1.0	t		28.0	female	white	5.676880222841227	smiling	124	sub-17	1.0	4.0	124_smiling	0.0		187.48141101453712	
26.0	165.19869555321748	pulse	1.0	t		28.0	female	white	5.676880222841227	smiling	124	sub-17	1.0	4.0	124_smiling	0.0		188.1814024417854	
26.0	165.89869362132958	pulse	1.0	t		28.0	female	white	5.676880222841227	smiling	124	sub-17	1.0	4.0	124_smiling	0.0		188.8814005098975	
26.0	166.59868625600757	pulse	1.0	t		28.0	female	white	5.676880222841227	smiling	124	sub-17	1.0	4.0	124_smiling	0.0		189.5813931445755	
27.0	167.27354231528352	face	0.0		145	20.0	male	black	3.1070433744528456	smiling	082	sub-17	1.0	4.0	082_smiling	0.0		190.25624920385144	1.2333385252813969
27.0	167.29869941699235	pulse	0.0	t		20.0	male	black	3.1070433744528456	smiling	082	sub-17	1.0	4.0	082_smiling	0.0		190.28140630556027	
27.0	167.99866880864738	pulse	0.0	t		20.0	male	black	3.1070433744528456	smiling	082	sub-17	1.0	4.0	082_smiling	0.0		190.9813756972153	
27.0	168.50688084056492	fix	1.0		443	20.0	male	black	3.1070433744528456	smiling	082	sub-17	1.0	4.0	082_smiling	0.0		191.48958772913284	3.766598990226157
27.0	168.69865842475065	pulse	1.0	t		20.0	male	black	3.1070433744528456	smiling	082	sub-17	1.0	4.0	082_smiling	0.0		191.68136531331857	
27.0	169.39864653156746	pulse	1.0	t		20.0	male	black	3.1070433744528456	smiling	082	sub-17	1.0	4.0	082_smiling	0.0		192.38135342013538	
27.0	170.09862377151603	pulse	1.0	t		20.0	male	black	3.1070433744528456	smiling	082	sub-17	1.0	4.0	082_smiling	0.0		193.08133066008395	
27.0	170.7986468937961	pulse	1.0	t		20.0	male	black	3.1070433744528456	smiling	082	sub-17	1.0	4.0	082_smiling	0.0		193.78135378236402	
27.0	171.49862292631497	pulse	1.0	t		20.0	male	black	3.1070433744528456	smiling	082	sub-17	1.0	4.0	082_smiling	0.0		194.48132981488288	
27.0	172.19861073127413	pulse	1.0	t		20.0	male	black	3.1070433744528456	smiling	082	sub-17	1.0	4.0	082_smiling	0.0		195.18131761984205	
28.0	172.27347983079108	face	0.0		146	31.0	female	east_asian	3.395941106247513	neutral	087	sub-17	1.0	4.0	087_neutral	0.0		195.256186719359	1.233335808564334
28.0	172.89860819567184	pulse	0.0	t		31.0	female	east_asian	3.395941106247513	neutral	087	sub-17	1.0	4.0	087_neutral	0.0		195.88131508423976	
28.0	173.5068156393554	fix	1.0		443	31.0	female	east_asian	3.395941106247513	neutral	087	sub-17	1.0	4.0	087_neutral	0.0		196.48952252792333	3.766627666684144
28.0	173.59861109350277	pulse	1.0	t		31.0	female	east_asian	3.395941106247513	neutral	087	sub-17	1.0	4.0	087_neutral	0.0		196.5813179820707	
28.0	174.29860765232843	pulse	1.0	t		31.0	female	east_asian	3.395941106247513	neutral	087	sub-17	1.0	4.0	087_neutral	0.0		197.28131454089635	
28.0	174.99858579784905	pulse	1.0	t		31.0	female	east_asian	3.395941106247513	neutral	087	sub-17	1.0	4.0	087_neutral	0.0		197.98129268641696	
28.0	175.69859020496733	pulse	1.0	t		31.0	female	east_asian	3.395941106247513	neutral	087	sub-17	1.0	4.0	087_neutral	0.0		198.68129709353525	
28.0	176.39857951921385	pulse	1.0	t		31.0	female	east_asian	3.395941106247513	neutral	087	sub-17	1.0	4.0	087_neutral	0.0		199.38128640778177	
28.0	177.0985730594639	pulse	1.0	t		31.0	female	east_asian	3.395941106247513	neutral	087	sub-17	1.0	4.0	087_neutral	0.0		200.0812799480318	
29.0	177.27344330603955	face	0.0		146	30.0	female	black	2.7345801830481498	neutral	062	sub-17	1.0	4.0	062_neutral	0.0		200.25615019460747	1.2416513775870044
29.0	177.79855120498542	pulse	0.0	t		30.0	female	black	2.7345801830481498	neutral	062	sub-17	1.0	4.0	062_neutral	0.0		200.78125809355333	
29.0	178.49854353780574	pulse	0.0	t		30.0	female	black	2.7345801830481498	neutral	062	sub-17	1.0	4.0	062_neutral	0.0		201.48125042637366	
29.0	178.51509468362656	fix	1.0		443	30.0	female	black	2.7345801830481498	neutral	062	sub-17	1.0	4.0	062_neutral	0.0		201.49780157219448	3.7582731580505424
29.0	179.19853345576666	pulse	1.0	t		30.0	female	black	2.7345801830481498	neutral	062	sub-17	1.0	4.0	062_neutral	0.0		202.18124034433458	
29.0	179.89851763843672	pulse	1.0	t		30.0	female	black	2.7345801830481498	neutral	062	sub-17	1.0	4.0	062_neutral	0.0		202.88122452700463	
29.0	180.59852778084678	pulse	1.0	t		30.0	female	black	2.7345801830481498	neutral	062	sub-17	1.0	4.0	062_neutral	0.0		203.5812346694147	
29.0	181.29851377466093	pulse	1.0	t		30.0	female	black	2.7345801830481498	neutral	062	sub-17	1.0	4.0	062_neutral	0.0		204.28122066322885	
29.0	181.99849554247157	pulse	1.0	t		30.0	female	black	2.7345801830481498	neutral	062	sub-17	1.0	4.0	062_neutral	0.0		204.9812024310395	
30.0	182.2733678416771	face	0.0		145	36.0	female	white	2.7548746518105847	smiling	011	sub-17	1.0	4.0	011_smiling	0.0		205.25607473024502	1.233346977290239
30.0	182.6985047793096	pulse	0.0	t		36.0	female	white	2.7548746518105847	smiling	011	sub-17	1.0	4.0	011_smiling	0.0		205.6812116678775	
30.0	183.39850948828553	pulse	0.0	t		36.0	female	white	2.7548746518105847	smiling	011	sub-17	1.0	4.0	011_smiling	0.0		206.38121637685344	
30.0	183.50671481896734	fix	1.0		444	36.0	female	white	2.7548746518105847	smiling	011	sub-17	1.0	4.0	011_smiling	0.0		206.48942170753526	3.766581784351729
30.0	184.09849336909792	pulse	1.0	t		36.0	female	white	2.7548746518105847	smiling	011	sub-17	1.0	4.0	011_smiling	0.0		207.08120025766584	
30.0	184.79848268334354	pulse	1.0	t		36.0	female	white	2.7548746518105847	smiling	011	sub-17	1.0	4.0	011_smiling	0.0		207.78118957191145	
30.0	185.49848135517095	pulse	1.0	t		36.0	female	white	2.7548746518105847	smiling	011	sub-17	1.0	4.0	011_smiling	0.0		208.48118824373887	
30.0	186.1984667452707	pulse	1.0	t		36.0	female	white	2.7548746518105847	smiling	011	sub-17	1.0	4.0	011_smiling	0.0		209.18117363383863	
30.0	186.8984382499275	pulse	1.0	t		36.0	female	white	2.7548746518105847	smiling	011	sub-17	1.0	4.0	011_smiling	0.0		209.8811451384954	
31.0	187.27329660331907	face	0.0		145	28.0	male	east_asian	1.5563072025467568	smiling	005	sub-17	1.0	4.0	005_smiling	0.0		210.256003491887	1.2333599571602463
31.0	187.59845352391403	pulse	0.0	t		28.0	male	east_asian	1.5563072025467568	smiling	005	sub-17	1.0	4.0	005_smiling	0.0		210.58116041248195	
31.0	188.29842653785818	pulse	0.0	t		28.0	male	east_asian	1.5563072025467568	smiling	005	sub-17	1.0	4.0	005_smiling	0.0		211.2811334264261	
31.0	188.5066565604793	fix	1.0		444	28.0	male	east_asian	1.5563072025467568	smiling	005	sub-17	1.0	4.0	005_smiling	0.0		211.48936344904723	3.75835647070744
31.0	188.99843124683412	pulse	1.0	t		28.0	male	east_asian	1.5563072025467568	smiling	005	sub-17	1.0	4.0	005_smiling	0.0		211.98113813540203	
31.0	189.69842810751743	pulse	1.0	t		28.0	male	east_asian	1.5563072025467568	smiling	005	sub-17	1.0	4.0	005_smiling	0.0		212.68113499608535	
31.0	190.3984177236207	pulse	1.0	t		28.0	male	east_asian	1.5563072025467568	smiling	005	sub-17	1.0	4.0	005_smiling	0.0		213.38112461218861	
31.0	191.09841428244545	pulse	1.0	t		28.0	male	east_asian	1.5563072025467568	smiling	005	sub-17	1.0	4.0	005_smiling	0.0		214.08112117101336	
31.0	191.79841325613052	pulse	1.0	t		28.0	male	east_asian	1.5563072025467568	smiling	005	sub-17	1.0	4.0	005_smiling	0.0		214.78112014469843	
32.0	192.26501303118675	face	0.0		146	31.0	female	white	2.1822522881018704	neutral	102	sub-17	1.0	4.0	102_neutral	0.0		215.24771991975467	1.2415831578027792
32.0	192.49837962921083	pulse	0.0	t		31.0	female	white	2.1822522881018704	neutral	102	sub-17	1.0	4.0	102_neutral	0.0		215.48108651777875	
32.0	193.19836833974205	pulse	0.0	t		31.0	female	white	2.1822522881018704	neutral	102	sub-17	1.0	4.0	102_neutral	0.0		216.18107522830996	
32.0	193.50659618898953	fix	1.0		444	31.0	female	white	2.1822522881018704	neutral	102	sub-17	1.0	4.0	102_neutral	0.0		216.48930307755745	3.766591141932622
32.0	193.89839085830772	pulse	1.0	t		31.0	female	white	2.1822522881018704	neutral	102	sub-17	1.0	4.0	102_neutral	0.0		216.88109774687564	
32.0	194.59835572210068	pulse	1.0	t		31.0	female	white	2.1822522881018704	neutral	102	sub-17	1.0	4.0	102_neutral	0.0		217.5810626106686	
32.0	195.29834533820394	pulse	1.0	t		31.0	female	white	2.1822522881018704	neutral	102	sub-17	1.0	4.0	102_neutral	0.0		218.28105222677186	
32.0	195.9983437081737	pulse	1.0	t		31.0	female	white	2.1822522881018704	neutral	102	sub-17	1.0	4.0	102_neutral	0.0		218.98105059674162	
32.0	196.6983363428526	pulse	1.0	t		31.0	female	white	2.1822522881018704	neutral	102	sub-17	1.0	4.0	102_neutral	0.0		219.68104323142052	
33.0	197.27318733092216	face	0.0		145	37.0	male	white	3.898925586947871	neutral	101	sub-17	1.0	4.0	101_neutral	0.0		220.25589421949007	1.2333346011346293
33.0	197.3983319961053	pulse	0.0	t		37.0	male	white	3.898925586947871	neutral	101	sub-17	1.0	4.0	101_neutral	0.0		220.38103888467322	
33.0	198.09831134905562	pulse	0.0	t		37.0	male	white	3.898925586947871	neutral	101	sub-17	1.0	4.0	101_neutral	0.0		221.08101823762354	
33.0	198.50652193205678	fix	1.0		444	37.0	male	white	3.898925586947871	neutral	101	sub-17	1.0	4.0	101_neutral	0.0		221.4892288206247	3.766611366381767
33.0	198.79830307816155	pulse	1.0	t		37.0	male	white	3.898925586947871	neutral	101	sub-17	1.0	4.0	101_neutral	0.0		221.78100996672947	
33.0	199.49829450540983	pulse	1.0	t		37.0	male	white	3.898925586947871	neutral	101	sub-17	1.0	4.0	101_neutral	0.0		222.48100139397775	
33.0	200.19828985680488	pulse	1.0	t		37.0	male	white	3.898925586947871	neutral	101	sub-17	1.0	4.0	101_neutral	0.0		223.1809967453728	
33.0	200.89827886919375	pulse	1.0	t		37.0	male	white	3.898925586947871	neutral	101	sub-17	1.0	4.0	101_neutral	0.0		223.88098575776166	
33.0	201.59828055959588	pulse	1.0	t		37.0	male	white	3.898925586947871	neutral	101	sub-17	1.0	4.0	101_neutral	0.0		224.5809874481638	
34.0	202.27313329843855	face	0.0		145	24.0	female	east_asian	4.409868682849185	smiling	030	sub-17	1.0	4.0	030_smiling	0.0		225.25584018700647	1.2333342992778853
34.0	202.29829372058066	pulse	0.0	t		24.0	female	east_asian	4.409868682849185	smiling	030	sub-17	1.0	4.0	030_smiling	0.0		225.28100060914858	
34.0	202.9982573769439	pulse	0.0	t		24.0	female	east_asian	4.409868682849185	smiling	030	sub-17	1.0	4.0	030_smiling	0.0		225.98096426551183	
34.0	203.50646759771644	fix	1.0		443	24.0	female	east_asian	4.409868682849185	smiling	030	sub-17	1.0	4.0	030_smiling	0.0		226.48917448628436	3.766608649664704
34.0	203.69826782121163	pulse	1.0	t		24.0	female	east_asian	4.409868682849185	smiling	030	sub-17	1.0	4.0	030_smiling	0.0		226.68097470977955	
34.0	204.39822332742278	pulse	1.0	t		24.0	female	east_asian	4.409868682849185	smiling	030	sub-17	1.0	4.0	030_smiling	0.0		227.3809302159907	
34.0	205.0982307531167	pulse	1.0	t		24.0	female	east_asian	4.409868682849185	smiling	030	sub-17	1.0	4.0	030_smiling	0.0		228.0809376416846	
34.0	205.79822248222263	pulse	1.0	t		24.0	female	east_asian	4.409868682849185	smiling	030	sub-17	1.0	4.0	030_smiling	0.0		228.78092937079055	
34.0	206.498215720615	pulse	1.0	t		24.0	female	east_asian	4.409868682849185	smiling	030	sub-17	1.0	4.0	030_smiling	0.0		229.48092260918293	
34.0	207.19821741101714	pulse	1.0	t		24.0	female	east_asian	4.409868682849185	smiling	030	sub-17	1.0	4.0	030_smiling	0.0		230.18092429958506	
35.0	207.27307624738114	face	0.0		146	47.0	male	east_asian	2.171110226820533	smiling	024	sub-17	1.0	4.0	024_smiling	0.0		230.25578313594906	1.233331582559913
35.0	207.89823147757397	pulse	0.0	t		47.0	male	east_asian	2.171110226820533	smiling	024	sub-17	1.0	4.0	024_smiling	0.0		230.8809383661419	
35.0	208.50640782994105	fix	1.0		443	47.0	male	east_asian	2.171110226820533	smiling	024	sub-17	1.0	4.0	024_smiling	0.0		231.48911471850897	3.7665872177858546
35.0	208.59820117108666	pulse	1.0	t		47.0	male	east_asian	2.171110226820533	smiling	024	sub-17	1.0	4.0	024_smiling	0.0		231.58090805965458	
35.0	209.2981829388964	pulse	1.0	t		47.0	male	east_asian	2.171110226820533	smiling	024	sub-17	1.0	4.0	024_smiling	0.0		232.2808898274643	
35.0	209.99817134756995	pulse	1.0	t		47.0	male	east_asian	2.171110226820533	smiling	024	sub-17	1.0	4.0	024_smiling	0.0		232.98087823613787	
35.0	210.69816247296149	pulse	1.0	t		47.0	male	east_asian	2.171110226820533	smiling	024	sub-17	1.0	4.0	024_smiling	0.0		233.6808693615294	
35.0	211.39815540949712	pulse	1.0	t		47.0	male	east_asian	2.171110226820533	smiling	024	sub-17	1.0	4.0	024_smiling	0.0		234.38086229806504	
35.0	212.0981580054713	pulse	1.0	t		47.0	male	east_asian	2.171110226820533	smiling	024	sub-17	1.0	4.0	024_smiling	0.0		235.08086489403922	
36.0	212.2729950477269	face	0.0		146	22.0	female	west_asian	3.8205332272184642	neutral	066	sub-17	1.0	4.0	066_neutral	0.0		235.25570193629483	1.2416948450600103
36.0	212.7981436974278	pulse	0.0	t		22.0	female	west_asian	3.8205332272184642	neutral	066	sub-17	1.0	4.0	066_neutral	0.0		235.78085058599572	
36.0	213.49813663396344	pulse	0.0	t		22.0	female	west_asian	3.8205332272184642	neutral	066	sub-17	1.0	4.0	066_neutral	0.0		236.48084352253136	
36.0	213.51468989278692	fix	1.0		443	22.0	female	west_asian	3.8205332272184642	neutral	066	sub-17	1.0	4.0	066_neutral	0.0		236.49739678135484	3.7582671209011096
36.0	214.1981344002188	pulse	1.0	t		22.0	female	west_asian	3.8205332272184642	neutral	066	sub-17	1.0	4.0	066_neutral	0.0		237.18084128878672	
36.0	214.89814424077122	pulse	1.0	t		22.0	female	west_asian	3.8205332272184642	neutral	066	sub-17	1.0	4.0	066_neutral	0.0		237.88085112933913	
36.0	215.59810729341916	pulse	1.0	t		22.0	female	west_asian	3.8205332272184642	neutral	066	sub-17	1.0	4.0	066_neutral	0.0		238.58081418198708	
36.0	216.29809298537657	pulse	1.0	t		22.0	female	west_asian	3.8205332272184642	neutral	066	sub-17	1.0	4.0	066_neutral	0.0		239.2807998739445	
36.0	216.99809105348868	pulse	1.0	t		22.0	female	west_asian	3.8205332272184642	neutral	066	sub-17	1.0	4.0	066_neutral	0.0		239.9807979420566	
37.0	217.27295701368803	face	0.0		145	21.0	male	east_asian/white	3.501790688420215	neutral	036	sub-17	1.0	4.0	036_neutral	0.0		240.25566390225595	1.2333339974202318
37.0	217.69808459373962	pulse	0.0	t		21.0	male	east_asian/white	3.501790688420215	neutral	036	sub-17	1.0	4.0	036_neutral	0.0		240.68079148230754	
37.0	218.3980977547244	pulse	0.0	t		21.0	male	east_asian/white	3.501790688420215	neutral	036	sub-17	1.0	4.0	036_neutral	0.0		241.38080464329232	
37.0	218.50629101110826	fix	1.0		444	21.0	male	east_asian/white	3.501790688420215	neutral	036	sub-17	1.0	4.0	036_neutral	0.0		241.48899789967618	3.766608045949397
37.0	219.09809672840856	pulse	1.0	t		21.0	male	east_asian/white	3.501790688420215	neutral	036	sub-17	1.0	4.0	036_neutral	0.0		242.08080361697648	
37.0	219.79806038477182	pulse	1.0	t		21.0	male	east_asian/white	3.501790688420215	neutral	036	sub-17	1.0	4.0	036_neutral	0.0		242.78076727333973	
37.0	220.49805966031363	pulse	1.0	t		21.0	male	east_asian/white	3.501790688420215	neutral	036	sub-17	1.0	4.0	036_neutral	0.0		243.48076654888155	
37.0	221.1980580302834	pulse	1.0	t		21.0	male	east_asian/white	3.501790688420215	neutral	036	sub-17	1.0	4.0	036_neutral	0.0		244.1807649188513	
37.0	221.89803859066433	pulse	1.0	t		21.0	male	east_asian/white	3.501790688420215	neutral	036	sub-17	1.0	4.0	036_neutral	0.0		244.88074547923225	
38.0	222.27289905705766	face	0.0		145	20.0	female	white	3.9502586549940313	smiling	091	sub-17	1.0	4.0	091_smiling	0.0		245.25560594562558	1.2333333937049247
38.0	222.5980300179126	pulse	0.0	t		20.0	female	white	3.9502586549940313	smiling	091	sub-17	1.0	4.0	091_smiling	0.0		245.58073690648052	
38.0	223.2980163135844	pulse	0.0	t		20.0	female	white	3.9502586549940313	smiling	091	sub-17	1.0	4.0	091_smiling	0.0		246.28072320215233	
38.0	223.50623245076258	fix	1.0		444	20.0	female	white	3.9502586549940313	smiling	091	sub-17	1.0	4.0	091_smiling	0.0		246.4889393393305	3.76660834780796
38.0	223.99803370057361	pulse	1.0	t		20.0	female	white	3.9502586549940313	smiling	091	sub-17	1.0	4.0	091_smiling	0.0		246.98074058914153	
38.0	224.69800218665569	pulse	1.0	t		20.0	female	white	3.9502586549940313	smiling	091	sub-17	1.0	4.0	091_smiling	0.0		247.6807090752236	
38.0	225.39802742193842	pulse	1.0	t		20.0	female	white	3.9502586549940313	smiling	091	sub-17	1.0	4.0	091_smiling	0.0		248.38073431050634	
38.0	226.0979871541549	pulse	1.0	t		20.0	female	white	3.9502586549940313	smiling	091	sub-17	1.0	4.0	091_smiling	0.0		249.08069404272283	
38.0	226.79797827954553	pulse	1.0	t		20.0	female	white	3.9502586549940313	smiling	091	sub-17	1.0	4.0	091_smiling	0.0		249.78068516811345	
39.0	227.27284079857054	face	0.0		145	24.0	male	white	3.1153999204138483	neutral	012	sub-17	1.0	4.0	012_neutral	0.0		250.25554768713846	1.2333346011346293
39.0	227.4979772532306	pulse	0.0	t		24.0	male	white	3.1153999204138483	neutral	012	sub-17	1.0	4.0	012_neutral	0.0		250.48068414179852	
39.0	228.19796083218534	pulse	0.0	t		24.0	male	white	3.1153999204138483	neutral	012	sub-17	1.0	4.0	012_neutral	0.0		251.18066772075326	
39.0	228.50617539970517	fix	1.0		444	24.0	male	white	3.1153999204138483	neutral	012	sub-17	1.0	4.0	012_neutral	0.0		251.4888822882731	3.7499817376237843
39.0	228.89794833528686	pulse	1.0	t		24.0	male	white	3.1153999204138483	neutral	012	sub-17	1.0	4.0	012_neutral	0.0		251.88065522385477	
39.0	229.59795877955457	pulse	1.0	t		24.0	male	white	3.1153999204138483	neutral	012	sub-17	1.0	4.0	012_neutral	0.0		252.5806656681225	
39.0	230.2979598662414	pulse	1.0	t		24.0	male	white	3.1153999204138483	neutral	012	sub-17	1.0	4.0	012_neutral	0.0		253.28066675480932	
39.0	230.9979262393208	pulse	1.0	t		24.0	male	white	3.1153999204138483	neutral	012	sub-17	1.0	4.0	012_neutral	0.0		253.98063312788872	
39.0	231.6979164591403	pulse	1.0	t		24.0	male	white	3.1153999204138483	neutral	012	sub-17	1.0	4.0	012_neutral	0.0		254.6806233477082	
40.0	232.25615713732896	fix	0.0		720													255.23886402589687	5.999904914903709
40.0	232.39791845139916	pulse	0.0	t														255.38062533996708	
40.0	233.09790504892862	pulse	0.0	t														256.08061193749654	
40.0	233.79788440187895	pulse	0.0	t														256.78059129044686	
40.0	234.49788518670812	pulse	0.0	t														257.48059207527604	
40.0	235.19787933067346	pulse	0.0	t														258.1805862192414	
40.0	235.89788645450972	pulse	0.0	t														258.88059334307763	
40.0	236.59786248702767	pulse	0.0	t														259.5805693755956	
40.0	237.29787081829363	pulse	0.0	t														260.28057770686155	
40.0	237.99785439724837	pulse	0.0	t														260.9805612858163	
