trial_nr	onset	event_type	phase	response	nr_frames	trial_type	stim_name	task_probe	onset_abs	duration
0.0	0.05548540827612669	baseline	0.0		41.0		baseline	0.0	22.9966207558341	0.349786333364591
0.0	0.40527174164071766	ISI	1.0		11.0		baseline	0.0	23.346407089198692	0.09999725313764429
1.0	0.505268994778362	baseline	0.0		48.0		baseline	0.0	23.446404342336336	0.3999887106983806
1.0	0.7053718662755273	pulse	0.0	t			baseline	0.0	23.6465072138335	
1.0	0.9052577054767426	ISI	1.0		11.0		baseline	0.0	23.846393053034717	0.10001264764014195
2.0	1.0052703531168845	baseline	0.0		48.0		baseline	0.0	23.94640570067486	0.39995279019331065
2.0	1.4052231433101952	ISI	1.0		11.0		baseline	0.0	24.34635849086817	0.09999906425582594
2.0	1.4097461084361385	pulse	1.0	t			baseline	0.0	24.350881455994113	
3.0	1.505222207566021	baseline	0.0		48.0		baseline	0.0	24.446357555123996	0.3999875032864111
3.0	1.9052097108524322	ISI	1.0		11.0		baseline	0.0	24.846345058410407	0.09999151793090277
4.0	2.005201228783335	baseline	0.0		48.0		baseline	0.0	24.94633657634131	0.39999565331709164
4.0	2.1053391454120174	pulse	0.0	t			baseline	0.0	25.046474492969992	
4.0	2.4051968821004266	ISI	1.0		11.0		baseline	0.0	25.3463322296584	0.09999785684385643
5.0	2.505194738944283	baseline	0.0		48.0		baseline	0.0	25.446330086502257	0.3999890125510319
5.0	2.805312069199317	pulse	0.0	t			baseline	0.0	25.74644741675729	
5.0	2.905183751495315	ISI	1.0		11.0		baseline	0.0	25.84631909905329	0.09999785684385643
6.0	3.0051816083391714	baseline	0.0		48.0		baseline	0.0	25.946316955897146	0.39998931440459273
6.0	3.405170922743764	ISI	1.0		11.0		baseline	0.0	26.34630627030174	0.09999695128453823
7.0	3.5051678740283023	baseline	0.0		47.0		baseline	0.0	26.446303221586277	0.39998720143375976
7.0	3.509353065664527	pulse	0.0	t			baseline	0.0	26.4504884132225	
7.0	3.905155075462062	ISI	1.0		11.0		baseline	0.0	26.846290423020037	0.09999755499075036
8.0	4.0051526304528124	baseline	0.0		48.0		baseline	0.0	26.946287978010787	0.39999082366921357
8.0	4.205261840862931	pulse	0.0	t			baseline	0.0	27.146397188420906	
8.0	4.405143454122026	ISI	1.0		11.0		baseline	0.0	27.34627880168	0.10002170322968595
9.0	4.505165157351712	baseline	0.0		48.0		baseline	0.0	27.446300504909686	0.39996486431255107
9.0	4.905130021664263	ISI	1.0		11.0		baseline	0.0	27.846265369222237	0.09999815869696249
9.0	4.909628234845513	pulse	1.0	t			baseline	0.0	27.850763582403488	
10.0	5.0051281803612255	baseline	0.0		48.0		baseline	0.0	27.9462635279192	0.39998810699216847
10.0	5.405116287353394	ISI	1.0		11.0		baseline	0.0	28.34625163491137	0.09999815869696249
11.0	5.5051144460503565	baseline	0.0		48.0		baseline	0.0	28.44624979360833	0.3999878051390624
11.0	5.605223686645331	pulse	0.0	t			baseline	0.0	28.546359034203306	
11.0	5.905102251189419	ISI	1.0		2.0		baseline	0.0	28.846237598747393	0.1250262989415205
12.0	6.030128550130939	adult	0.0		45.0	face	adult-55.jpg	0.0	28.971263897688914	0.37495302412935416
12.0	6.305192384490965	pulse	0.0	t		face	adult-55.jpg	0.0	29.24632773204894	
12.0	6.405081574260294	ISI	1.0		6.0	face	adult-55.jpg	0.0	29.346216921818268	0.11669394914542863
13.0	6.521775523405722	adult	0.0		46.0	face	adult-136.jpg	0.0	29.462910870963697	0.3832995610150647
13.0	6.905075084420787	ISI	1.0		3.0	face	adult-136.jpg	0.0	29.84621043197876	0.11668338429126379
14.0	7.021758468712051	adult	0.0		45.0	face	adult-5.jpg	0.0	29.962893816270025	0.3832911091317328
14.0	7.011976319030055	pulse	0.0	t		face	adult-5.jpg	0.0	29.95311166658803	
14.0	7.4050495778437835	ISI	1.0		6.0	face	adult-5.jpg	0.0	30.346184925401758	0.1166969676755798
15.0	7.521746545519363	adult	0.0		46.0	face	adult-29.jpg	0.0	30.462881893077338	0.3832533775084812
15.0	7.705127667210945	pulse	0.0	t		face	adult-29.jpg	0.0	30.64626301476892	
15.0	7.9049999230278445	ISI	1.0		8.0	face	adult-29.jpg	0.0	30.84613527058582	0.11669998620527622
16.0	8.02169990923312	adult	0.0		46.0	face	adult-53.jpg	0.0	30.962835256791095	0.3832899017197633
16.0	8.404989810952884	ISI	1.0		8.0	face	adult-53.jpg	0.0	31.34612515851086	0.11667976205535524
16.0	8.436935516052472	pulse	1.0	t		face	adult-53.jpg	0.0	31.378070863610446	
17.0	8.52166957300824	adult	0.0		46.0	face	adult-53.jpg	1.0	31.462804920566214	0.38330439066294275
17.0	8.904973963671182	ISI	1.0		5.0	face	adult-53.jpg	1.0	31.846109311229156	0.10841321621001043
17.0	8.9884257491467	response	1.0	b		face	adult-53.jpg	1.0	31.929561096704674	
18.0	9.013387179881192	adult	0.0		47.0	face	adult-112.jpg	0.0	31.954522527439167	0.39157606800881695
18.0	9.105268511813847	pulse	0.0	t		face	adult-112.jpg	0.0	32.04640385937182	
18.0	9.40496324789001	ISI	1.0		7.0	face	adult-112.jpg	0.0	32.346098595447984	0.11669787323444325
19.0	9.521661121124453	adult	0.0		46.0	face	adult-110.jpg	0.0	32.46279646868243	0.38328235539529487
19.0	9.805064247898827	pulse	0.0	t		face	adult-110.jpg	0.0	32.7461995954568	
19.0	9.904943476519747	ISI	1.0		4.0	face	adult-110.jpg	0.0	32.84607882407772	0.11670119361724574
20.0	10.021644670136993	adult	0.0		46.0	face	adult-97.jpg	0.0	32.96278001769497	0.3833007684270342
20.0	10.404945438564027	ISI	1.0		6.0	face	adult-97.jpg	0.0	33.346080786122	0.11668489355588463
21.0	10.521630332119912	adult	0.0		45.0	face	adult-93.jpg	0.0	33.46276567967789	0.3832914109848389
21.0	10.514557916683316	pulse	0.0	t		face	adult-93.jpg	0.0	33.45569326424129	
21.0	10.904921743104751	ISI	1.0		7.0	face	adult-93.jpg	0.0	33.846057090662725	0.11669787323444325
22.0	11.021619616339194	adult	0.0		46.0	face	adult-70.jpg	0.0	33.96275496389717	0.38328929801355116
22.0	11.205029112211378	pulse	0.0	t		face	adult-70.jpg	0.0	34.14616445976935	
22.0	11.404908914352745	ISI	1.0		5.0	face	adult-70.jpg	0.0	34.34604426191072	0.1166987787933067
23.0	11.521607693146052	adult	0.0		46.0	face	adult-37.jpg	0.0	34.46274304070403	0.38329020357286936
23.0	11.904897896718921	ISI	1.0		5.0	face	adult-37.jpg	0.0	34.846033244276896	0.11669545841050422
23.0	11.961370062402239	pulse	1.0	t		face	adult-37.jpg	0.0	34.90250540996021	
24.0	12.021593355129426	word	0.0		46.0	character	word-39.jpg	0.0	34.9627287026874	0.3832871850427182
24.0	12.404880540172144	ISI	1.0		6.0	character	word-39.jpg	0.0	35.34601588773012	0.11669968435217015
25.0	12.521580224524314	word	0.0		46.0	character	word-94.jpg	0.0	35.46271557208229	0.3832802424244619
25.0	12.604990656141126	pulse	0.0	t		character	word-94.jpg	0.0	35.5461260036991	
25.0	12.904860466948776	ISI	1.0		3.0	character	word-94.jpg	0.0	35.84599581450675	0.11671900294322768
26.0	13.021579469892004	word	0.0		46.0	character	word-100.jpg	0.0	35.96271481744998	0.3832748090703717
26.0	13.30497263551797	pulse	0.0	t		character	word-100.jpg	0.0	36.246107983075945	
26.0	13.404854278962375	ISI	1.0		6.0	character	word-100.jpg	0.0	36.34598962652035	0.11670089176459442
27.0	13.52155517072697	word	0.0		46.0	character	word-114.jpg	0.0	36.462690518284944	0.3833176721941527
27.0	13.904872842921122	ISI	1.0		6.0	character	word-114.jpg	0.0	36.8460081904791	0.11669666582247373
28.0	14.021569508743596	word	0.0		45.0	character	word-55.jpg	0.0	36.96270485630157	0.38329382580832316
28.0	14.013818829649608	pulse	0.0	t		character	word-55.jpg	0.0	36.95495417720758	
28.0	14.40486333455192	ISI	1.0		7.0	character	word-55.jpg	0.0	37.345998682109894	0.11669576026361028
29.0	14.52155909481553	word	0.0		46.0	character	word-4.jpg	0.0	37.462694442373504	0.38325699974438976
29.0	14.704938405389385	pulse	0.0	t		character	word-4.jpg	0.0	37.64607375294736	
29.0	14.90481609455992	ISI	1.0		6.0	character	word-4.jpg	0.0	37.845951442117894	0.11667644167255276
30.0	15.021492536232472	word	0.0		46.0	character	word-142.jpg	0.0	37.96262788379045	0.38330952216347214
30.0	15.404802058395944	ISI	1.0		6.0	character	word-142.jpg	0.0	38.34593740595392	0.11669757138179193
30.0	15.447767812269376	pulse	1.0	t		character	word-142.jpg	0.0	38.38890315982735	
31.0	15.521499629777736	word	0.0		46.0	character	word-22.jpg	0.0	38.46263497733571	0.38332189813581863
31.0	15.904821527913555	ISI	1.0		7.0	character	word-22.jpg	0.0	38.84595687547153	0.1166637638471002
32.0	16.021485291760655	word	0.0		46.0	character	word-22.jpg	1.0	38.96262063931863	0.3832847702192339
32.0	16.104898138201406	pulse	0.0	t		character	word-22.jpg	1.0	39.04603348575938	
32.0	16.40477006197989	ISI	1.0		6.0	character	word-22.jpg	1.0	39.34590540953786	0.11668640282096021
33.0	16.52145646480085	word	0.0		46.0	character	word-73.jpg	0.0	39.46259181235882	0.38330469251559407
33.0	16.588216987622218	response	0.0	b		character	word-73.jpg	0.0	39.52935233518019	
33.0	16.804848724867497	pulse	0.0	t		character	word-73.jpg	0.0	39.74598407242547	
33.0	16.904761157316443	ISI	1.0		6.0	character	word-73.jpg	0.0	39.84589650487442	0.11669847694065538
34.0	17.0214596342571	word	0.0		46.0	character	word-49.jpg	0.0	39.96259498181507	0.38328809060158164
34.0	17.40474772485868	ISI	1.0		7.0	character	word-49.jpg	0.0	40.345883072416655	0.1166897232037627
35.0	17.521437448062443	word	0.0		45.0	character	word-35.jpg	0.0	40.46257279562042	0.38329684433847433
35.0	17.51311264459173	pulse	0.0	t		character	word-35.jpg	0.0	40.4542479921497	
35.0	17.904734292400917	ISI	1.0		3.0	character	word-35.jpg	0.0	40.84586963995889	0.11667915834959786
36.0	18.021413450750515	house	0.0		46.0	place	house-90.jpg	0.0	40.96254879830849	0.3833086166046087
36.0	18.20483954853671	pulse	0.0	t		place	house-90.jpg	0.0	41.145974896094685	
36.0	18.404722067355124	ISI	1.0		7.0	place	house-90.jpg	0.0	41.3458574149131	0.11668881764489925
37.0	18.521410885000023	house	0.0		46.0	place	house-26.jpg	0.0	41.462546232558	0.38330439066294275
37.0	18.904715275662966	ISI	1.0		6.0	place	house-26.jpg	0.0	41.84585062322094	0.1166942509985347
37.0	18.948918928627336	pulse	1.0	t		place	house-26.jpg	0.0	41.89005427618531	
38.0	19.0214095266615	house	0.0		46.0	place	house-81.jpg	0.0	41.962544874219475	0.3832853739249913
38.0	19.40469490058649	ISI	1.0		6.0	place	house-81.jpg	0.0	42.345830248144466	0.11669757138133718
39.0	19.52139247196783	house	0.0		46.0	place	house-49.jpg	0.0	42.4625278195258	0.3832883924546877
39.0	19.604803809143505	pulse	0.0	t		place	house-49.jpg	0.0	42.54593915670148	
39.0	19.904680864422517	ISI	1.0		6.0	place	house-49.jpg	0.0	42.84581621198049	0.11668096946732476
40.0	20.02136183388984	house	0.0		46.0	place	house-103.jpg	0.0	42.962497181447816	0.38330589992801833
40.0	20.30478337369641	pulse	0.0	t		place	house-103.jpg	0.0	43.245918721254384	
40.0	20.40466773381786	ISI	1.0		7.0	place	house-103.jpg	0.0	43.345803081375834	0.1166969676755798
41.0	20.52136470149344	house	0.0		46.0	place	house-31.jpg	0.0	43.462500049051414	0.3833318592842261
41.0	20.904696560777666	ISI	1.0		7.0	place	house-31.jpg	0.0	43.84583190833564	0.11668730838027841
42.0	21.021383869157944	house	0.0		45.0	place	house-52.jpg	0.0	43.96251921671592	0.38328809060158164
42.0	21.013318659253855	pulse	0.0	t		place	house-52.jpg	0.0	43.95445400681183	
42.0	21.404671959759526	ISI	1.0		6.0	place	house-52.jpg	0.0	44.3458073073175	0.11668610096830889
43.0	21.521358060727835	house	0.0		46.0	place	house-123.jpg	0.0	44.46249340828581	0.383266055333479
43.0	21.70475095468555	pulse	0.0	t		place	house-123.jpg	0.0	44.645886302243525	
43.0	21.904624116061314	ISI	1.0		6.0	place	house-123.jpg	0.0	44.84575946361929	0.11670119361724574
44.0	22.02132530967856	house	0.0		46.0	place	house-99.jpg	0.0	44.962460657236534	0.38329201469059626
44.0	22.404617324369156	ISI	1.0		6.0	place	house-99.jpg	0.0	45.34575267192713	0.1166951565578529
44.0	22.447390194185118	pulse	1.0	t		place	house-99.jpg	0.0	45.38852554174309	
45.0	22.52131248092701	house	0.0		46.0	place	house-137.jpg	0.0	45.46244782848498	0.3832877887484756
45.0	22.904600269675484	ISI	1.0		6.0	place	house-137.jpg	0.0	45.84573561723346	0.11669877879376145
46.0	23.021299048469245	house	0.0		46.0	place	house-112.jpg	0.0	45.96243439602722	0.3832736016584022
46.0	23.10470736711477	pulse	0.0	t		place	house-112.jpg	0.0	46.045842714672744	
46.0	23.404572650127648	ISI	1.0		7.0	place	house-112.jpg	0.0	46.34570799768562	0.11671266403072877
47.0	23.521285314158376	house	0.0		46.0	place	house-128.jpg	0.0	46.46242066171635	0.38329654248536826
47.0	23.804697496522294	pulse	0.0	t		place	house-128.jpg	0.0	46.74583284408027	
47.0	23.904581856643745	ISI	1.0		5.0	place	house-128.jpg	0.0	46.84571720420172	0.11668881764489925
48.0	24.021270674288644	car	0.0		46.0	object	car-77.jpg	0.0	46.96240602184662	0.3832902035724146
48.0	24.40456087786106	ISI	1.0		7.0	object	car-77.jpg	0.0	47.34569622541903	0.11669394914588338
49.0	24.521254827006942	car	0.0		45.0	object	car-120.jpg	0.0	47.462390174564916	0.38329080727862674
49.0	24.51309966491317	pulse	0.0	t		object	car-120.jpg	0.0	47.454235012471145	
49.0	24.90454563428557	ISI	1.0		2.0	object	car-120.jpg	0.0	47.84568098184354	0.11669847694020063
50.0	25.02124411122577	car	0.0		46.0	object	car-51.jpg	0.0	47.962379458783744	0.3832911091317328
50.0	25.204653607097953	pulse	0.0	t		object	car-51.jpg	0.0	48.14578895465593	
50.0	25.404535220357502	ISI	1.0		6.0	object	car-51.jpg	0.0	48.34567056791548	0.1166960621162616
51.0	25.521231282473764	car	0.0		46.0	object	car-11.jpg	0.0	48.46236663003174	0.38329925916241336
51.0	25.904530541636177	ISI	1.0		5.0	object	car-11.jpg	0.0	48.84566588919415	0.1166897232037627
51.0	25.955349000912065	pulse	1.0	t		object	car-11.jpg	0.0	48.89648434847004	
52.0	26.02122026483994	car	0.0		46.0	object	car-41.jpg	0.0	48.962355612397914	0.3832865813369608
52.0	26.4045068461769	ISI	1.0		6.0	object	car-41.jpg	0.0	49.345642193734875	0.11669938249951883
53.0	26.52120622867642	car	0.0		46.0	object	car-134.jpg	0.0	49.462341576234394	0.38328627948385474
53.0	26.604629941823987	pulse	0.0	t		object	car-134.jpg	0.0	49.54576528938196	
53.0	26.904492508160274	ISI	1.0		4.0	object	car-134.jpg	0.0	49.84562785571825	0.10836944752736599
54.0	27.01286195568764	car	0.0		47.0	object	car-32.jpg	0.0	49.953997303245615	0.39161681816176497
54.0	27.304598941522727	pulse	0.0	t		object	car-32.jpg	0.0	50.2457342890807	
54.0	27.404478773849405	ISI	1.0		5.0	object	car-32.jpg	0.0	50.34561412140738	0.10834711040661205
55.0	27.512825884256017	car	0.0		47.0	object	car-75.jpg	0.0	50.45396123181399	0.39167266096364983
55.0	27.904498545219667	ISI	1.0		6.0	object	car-75.jpg	0.0	50.84563389277764	0.11669334543967125
56.0	28.02119189065934	car	0.0		45.0	object	car-15.jpg	0.0	50.96232723821731	0.3832929202494597
56.0	28.00789104073192	pulse	0.0	t		object	car-15.jpg	0.0	50.949026388289894	
56.0	28.404484810908798	ISI	1.0		6.0	object	car-15.jpg	0.0	51.34562015846677	0.11670240102921525
57.0	28.521187211938013	car	0.0		46.0	object	car-135.jpg	0.0	51.46232255949599	0.3832880906020364
57.0	28.704592783721637	pulse	0.0	t		object	car-135.jpg	0.0	51.64572813127961	
57.0	28.90447530254005	ISI	1.0		6.0	object	car-135.jpg	0.0	51.845610650098024	0.1166942509985347
58.0	29.021169553538584	car	0.0		46.0	object	car-43.jpg	0.0	51.96230490109656	0.3832989573093073
58.0	29.40446851084789	ISI	1.0		6.0	object	car-43.jpg	0.0	52.345603858405866	0.11669394914542863
58.0	29.446592094893276	pulse	1.0	t		object	car-43.jpg	0.0	52.38772744245125	
59.0	29.52116245999332	car	0.0		46.0	object	car-3.jpg	0.0	52.462297807551295	0.38328446836612784
59.0	29.904446928359448	ISI	1.0		2.0	object	car-3.jpg	0.0	52.84558227591742	0.11669636396936767
60.0	30.021143292328816	adult	0.0		46.0	face	adult-131.jpg	0.0	52.96227863988679	0.38329080727862674
60.0	30.1045679110357	pulse	0.0	t		face	adult-131.jpg	0.0	53.045703258593676	
60.0	30.404434099607442	ISI	1.0		7.0	face	adult-131.jpg	0.0	53.34556944716542	0.11669787323444325
61.0	30.521131972841886	adult	0.0		46.0	face	adult-131.jpg	1.0	53.46226732039986	0.38325428306734466
61.0	30.804497367993008	pulse	0.0	t		face	adult-131.jpg	1.0	53.74563271555098	
61.0	30.90438625590923	ISI	1.0		6.0	face	adult-131.jpg	1.0	53.845521603467205	0.11669726952868587
61.0	30.950268211469847	response	1.0	b		face	adult-131.jpg	1.0	53.89140355902782	
62.0	31.021083525437916	adult	0.0		46.0	face	adult-56.jpg	0.0	53.96221887299589	0.3832841665130218
62.0	31.404367691950938	ISI	1.0		7.0	face	adult-56.jpg	0.0	54.34550303950891	0.11669817508709457
63.0	31.521065867038033	adult	0.0		45.0	face	adult-74.jpg	0.0	54.46220121459601	0.3832938258087779
63.0	31.512923080917062	pulse	0.0	t		face	adult-74.jpg	0.0	54.45405842847504	
63.0	31.90435969284681	ISI	1.0		7.0	face	adult-74.jpg	0.0	54.845495040404785	0.11669787323444325
64.0	32.021057566081254	adult	0.0		46.0	face	adult-66.jpg	0.0	54.96219291363923	0.3832883924546877
64.0	32.204482758308586	pulse	0.0	t		face	adult-66.jpg	0.0	55.14561810586656	
64.0	32.40434595853594	ISI	1.0		6.0	face	adult-66.jpg	0.0	55.345481306093916	0.11667976205535524
65.0	32.5210257205913	adult	0.0		46.0	face	adult-35.jpg	0.0	55.46216106814927	0.3833071073395331
65.0	32.90433282793083	ISI	1.0		7.0	face	adult-35.jpg	0.0	55.845468175488804	0.11669817508754932
65.0	32.93737305195418	pulse	1.0	t		face	adult-35.jpg	0.0	55.87850839951216	
66.0	33.02103100301838	adult	0.0		46.0	face	adult-78.jpg	0.0	55.962166350576354	0.3832871850427182
66.0	33.4043181880611	ISI	1.0		7.0	face	adult-78.jpg	0.0	56.34545353561907	0.11669787323444325
67.0	33.52101606129554	adult	0.0		46.0	face	adult-16.jpg	0.0	56.462151408853515	0.3832971461915804
67.0	33.604428605883186	pulse	0.0	t		face	adult-16.jpg	0.0	56.54556395344116	
67.0	33.90431320748712	ISI	1.0		6.0	face	adult-16.jpg	0.0	56.845448555045095	0.11668942135065663
68.0	34.02100262883778	adult	0.0		46.0	face	adult-10.jpg	0.0	56.96213797639575	0.3832971461915804
68.0	34.30445103355987	pulse	0.0	t		face	adult-10.jpg	0.0	57.245586381117846	
68.0	34.40429977502936	ISI	1.0		7.0	face	adult-10.jpg	0.0	57.34543512258733	0.1166915343214896
69.0	34.52099130935085	adult	0.0		46.0	face	adult-18.jpg	0.0	57.46212665690882	0.38329412766142923
69.0	34.90428543701228	ISI	1.0		7.0	face	adult-18.jpg	0.0	57.84542078457025	0.11666406570020627
70.0	35.02094950271248	adult	0.0		45.0	face	adult-104.jpg	0.0	57.96208485027046	0.38332461481286373
70.0	35.01103695254096	pulse	0.0	t		face	adult-104.jpg	0.0	57.95217230009894	
70.0	35.40427411752535	ISI	1.0		7.0	face	adult-104.jpg	0.0	58.34540946508332	0.11669334543967125
71.0	35.52096746296502	adult	0.0		46.0	face	adult-133.jpg	0.0	58.46210281052299	0.3832944295145353
71.0	35.704382090338186	pulse	0.0	t		face	adult-133.jpg	0.0	58.64551743789616	
71.0	35.90426189247955	ISI	1.0		11.0	face	adult-133.jpg	0.0	58.84539724003753	0.0999875938423429
72.0	36.004249486321896	baseline	0.0		48.0		baseline	0.0	58.94538483387987	0.39998629587444157
72.0	36.40423578219634	ISI	1.0		11.0		baseline	0.0	59.34537112975431	0.09999544201991739
72.0	36.40883843651045	pulse	1.0	t			baseline	0.0	59.349973784068425	
73.0	36.504231224216255	baseline	0.0		48.0		baseline	0.0	59.44536657177423	0.40005330723715815
73.0	36.90428453145341	ISI	1.0		11.0		baseline	0.0	59.84541987901139	0.10000600687453698
74.0	37.00429053832795	baseline	0.0		48.0		baseline	0.0	59.945425885885925	0.40000138852383316
74.0	37.10441487157232	pulse	0.0	t			baseline	0.0	60.04555021913029	
74.0	37.40429192685178	ISI	1.0		11.0		baseline	0.0	60.34542727440976	0.09998397160643435
75.0	37.50427589845822	baseline	0.0		48.0		baseline	0.0	60.44541124601619	0.39998659772754763
75.0	37.80439715280227	pulse	0.0	t			baseline	0.0	60.74553250036024	
75.0	37.904262496185765	ISI	1.0		11.0		baseline	0.0	60.84539784374374	0.10000872355112733
76.0	38.00427121973689	baseline	0.0		48.0		baseline	0.0	60.94540656729487	0.39998901255148667
76.0	38.40426023228838	ISI	1.0		11.0		baseline	0.0	61.345395579846354	0.09999000866582719
77.0	38.50425024095421	baseline	0.0		47.0		baseline	0.0	61.44538558851218	0.3999841829036086
77.0	38.50847044753664	pulse	0.0	t			baseline	0.0	61.44960579509461	
77.0	38.904234423857815	ISI	1.0		11.0		baseline	0.0	61.84536977141579	0.10000932725733946
78.0	39.004243751115155	baseline	0.0		48.0		baseline	0.0	61.94537909867313	0.3999823717858817
78.0	39.204349339289365	pulse	0.0	t			baseline	0.0	62.14548468684734	
78.0	39.404226122901036	ISI	1.0		11.0		baseline	0.0	62.34536147045901	0.09999604572567478
79.0	39.50422216862671	baseline	0.0		48.0		baseline	0.0	62.445357516184686	0.39999112552231963
79.0	39.90421329414903	ISI	1.0		11.0		baseline	0.0	62.845348641707005	0.099990310519388
79.0	39.90881715587511	pulse	1.0	t			baseline	0.0	62.84995250343309	
80.0	40.00420360466842	baseline	0.0		48.0		baseline	0.0	62.94533895222639	0.4000044070535296
80.0	40.40420801172195	ISI	1.0		11.0		baseline	0.0	63.34534335927992	0.09998819754810029
81.0	40.50419620927005	baseline	0.0		48.0		baseline	0.0	63.44533155682802	0.3999835791978512
81.0	40.60431450545502	pulse	0.0	t			baseline	0.0	63.545449853013	
81.0	40.9041797884679	ISI	1.0		11.0		baseline	0.0	63.845315136025874	0.10000540316832485
82.0	41.004185191636225	baseline	0.0		48.0		baseline	0.0	63.9453205391942	0.399984786609366
82.0	41.30429708853762	pulse	0.0	t			baseline	0.0	64.2454324360956	
82.0	41.40416997824559	ISI	1.0		11.0		baseline	0.0	64.34530532580357	0.09999242349022097
83.0	41.50416240173581	baseline	0.0		48.0		baseline	0.0	64.44529774929379	0.3999992755530002
83.0	41.90416167728881	ISI	1.0		3.0		baseline	0.0	64.84529702484679	0.11665621752217703
84.0	42.02081789481099	word	0.0		45.0	character	word-25.jpg	0.0	64.96195324236896	0.3832917128374902
84.0	42.01088844087235	pulse	0.0	t		character	word-25.jpg	0.0	64.95202378843032	
84.0	42.40410960764848	ISI	1.0		6.0	character	word-25.jpg	0.0	65.34524495520645	0.11670300473542738
85.0	42.52081261238391	word	0.0		46.0	character	word-44.jpg	0.0	65.46194795994188	0.38328295910105226
85.0	42.70421576934359	pulse	0.0	t		character	word-44.jpg	0.0	65.64535111690157	
85.0	42.90409557148496	ISI	1.0		6.0	character	word-44.jpg	0.0	65.84523091904293	0.11670209917610919
86.0	43.02079767066107	word	0.0		46.0	character	word-6.jpg	0.0	65.96193301821904	0.38328567577809736
86.0	43.404083346439165	ISI	1.0		6.0	character	word-6.jpg	0.0	66.34521869399714	0.11668730837982366
86.0	43.445733926856974	pulse	1.0	t		character	word-6.jpg	0.0	66.38686927441495	
87.0	43.52077065481899	word	0.0		46.0	character	word-54.jpg	0.0	66.46190600237696	0.38329865545620123
87.0	43.90406931027519	ISI	1.0		6.0	character	word-54.jpg	0.0	66.84520465783316	0.11669968435217015
88.0	44.02076899462736	word	0.0		46.0	character	word-11.jpg	0.0	66.96190434218533	0.3832895998666572
88.0	44.1041845577447	pulse	0.0	t		character	word-11.jpg	0.0	67.04531990530268	
88.0	44.40405859449402	ISI	1.0		7.0	character	word-11.jpg	0.0	67.34519394205199	0.11669847694065538
89.0	44.52075707143467	word	0.0		46.0	character	word-57.jpg	0.0	67.46189241899265	0.3832856757776426
89.0	44.80416050006215	pulse	0.0	t		character	word-57.jpg	0.0	67.74529584762013	
89.0	44.904042747212316	ISI	1.0		7.0	character	word-57.jpg	0.0	67.84517809477029	0.11670813623595677
90.0	45.02075088344827	word	0.0		46.0	character	word-64.jpg	0.0	67.96188623100625	0.38327963871824977
90.0	45.40403052216652	ISI	1.0		6.0	character	word-64.jpg	0.0	68.3451658697245	0.1166969676755798
91.0	45.5207274898421	word	0.0		45.0	character	word-42.jpg	0.0	68.46186283740008	0.38329805175044385
91.0	45.51048773103457	pulse	0.0	t		character	word-42.jpg	0.0	68.45162307859255	
91.0	45.904025541592546	ISI	1.0		6.0	character	word-42.jpg	0.0	68.84516088915052	0.11669032690952008
92.0	46.020715868502066	word	0.0		46.0	character	word-76.jpg	0.0	68.96185121606004	0.3832877887489303
92.0	46.2041347218169	pulse	0.0	t		character	word-76.jpg	0.0	69.14527006937487	
92.0	46.404003657250996	ISI	1.0		6.0	character	word-76.jpg	0.0	69.34513900480897	0.11669908064641277
93.0	46.52070273789741	word	0.0		46.0	character	word-7.jpg	0.0	69.46183808545538	0.3832865813369608
93.0	46.90398931923437	ISI	1.0		7.0	character	word-7.jpg	0.0	69.84512466679234	0.11670421214694215
93.0	46.940056826843374	pulse	1.0	t		character	word-7.jpg	0.0	69.88119217440135	
94.0	47.02069353138131	word	0.0		46.0	character	word-7.jpg	1.0	69.96182887893929	0.3832820535421888
94.0	47.4039755849235	ISI	1.0		4.0	character	word-7.jpg	1.0	70.34511093248148	0.12504773050295626
94.0	47.495792924023135	response	1.0	b		character	word-7.jpg	1.0	70.43692827158111	
95.0	47.52902331542646	word	0.0		45.0	character	word-68.jpg	0.0	70.47015866298443	0.3749463833637492
95.0	47.60409234165809	pulse	0.0	t		character	word-68.jpg	0.0	70.54522768921606	
95.0	47.903969698790206	ISI	1.0		2.0	character	word-68.jpg	0.0	70.84510504634818	0.11669153432194435
96.0	48.02066123311215	body	0.0		46.0	body	body-11.jpg	0.0	70.96179658067012	0.38328929801355116
96.0	48.304067076563115	pulse	0.0	t		body	body-11.jpg	0.0	71.24520242412109	
96.0	48.4039505311257	ISI	1.0		6.0	body	body-11.jpg	0.0	71.34508587868368	0.11669998620527622
97.0	48.52065051733098	body	0.0		46.0	body	body-48.jpg	0.0	71.46178586488895	0.3832853739249913
97.0	48.90393589125597	ISI	1.0		6.0	body	body-48.jpg	0.0	71.84507123881394	0.11669545841050422
98.0	49.02063134966647	body	0.0		45.0	body	body-105.jpg	0.0	71.96176669722445	0.3832905054255207
98.0	49.010526217290135	pulse	0.0	t		body	body-105.jpg	0.0	71.95166156484811	
98.0	49.403921855091994	ISI	1.0		7.0	body	body-105.jpg	0.0	72.34505720264997	0.11669787323444325
99.0	49.52061972832644	body	0.0		46.0	body	body-105.jpg	1.0	72.46175507588441	0.3832886943077938
99.0	49.704041298318316	pulse	0.0	t		body	body-105.jpg	1.0	72.64517664587629	
99.0	49.90390842263423	ISI	1.0		6.0	body	body-105.jpg	1.0	72.8450437701922	0.11669998620527622
100.0	50.02060840883951	body	0.0		46.0	body	body-40.jpg	0.0	72.96174375639748	0.3832871850427182
100.0	50.403895593882226	ISI	1.0		6.0	body	body-40.jpg	0.0	73.3450309414402	0.11670119361724574
100.0	50.44908238201879	pulse	1.0	t		body	body-40.jpg	0.0	73.39021772957676	
101.0	50.52059678749947	body	0.0		46.0	body	body-16.jpg	0.0	73.46173213505745	0.38327541277658383
101.0	50.903872200276055	ISI	1.0		6.0	body	body-16.jpg	0.0	73.84500754783403	0.11672443629731788
102.0	51.02059663657337	body	0.0		46.0	body	body-133.jpg	0.0	73.96173198413135	0.3832720923933266
102.0	51.103997408893974	pulse	0.0	t		body	body-133.jpg	0.0	74.04513275645195	
102.0	51.4038687289667	ISI	1.0		6.0	body	body-133.jpg	0.0	74.34500407652467	0.11670421214694215
103.0	51.52057294111364	body	0.0		46.0	body	body-72.jpg	0.0	74.46170828867162	0.38329352395567184
103.0	51.80397365306408	pulse	0.0	t		body	body-72.jpg	0.0	74.74510900062205	
103.0	51.903866465069314	ISI	1.0		7.0	body	body-72.jpg	0.0	74.84500181262729	0.11666859349497827
104.0	52.02053505856429	body	0.0		46.0	body	body-99.jpg	0.0	74.96167040612227	0.38331344625248676
104.0	52.40384850481678	ISI	1.0		4.0	body	body-99.jpg	0.0	75.34498385237475	0.11669183617459566
105.0	52.520540340991374	body	0.0		45.0	body	body-60.jpg	0.0	75.46167568854935	0.3832914109848389
105.0	52.510513690391235	pulse	0.0	t		body	body-60.jpg	0.0	75.45164903794921	
105.0	52.90383175197621	ISI	1.0		7.0	body	body-60.jpg	0.0	75.84496709953419	0.11668127131997608
106.0	53.02051302329619	body	0.0		46.0	body	body-23.jpg	0.0	75.96164837085416	0.3833022776921098
106.0	53.203942139612536	pulse	0.0	t		body	body-23.jpg	0.0	76.14507748717051	
106.0	53.4038153009883	ISI	1.0		7.0	body	body-23.jpg	0.0	76.34495064854627	0.1166987787933067
107.0	53.520514079781606	body	0.0		46.0	body	body-6.jpg	0.0	76.46164942733958	0.38328839245514246
107.0	53.90380247223675	ISI	1.0		6.0	body	body-6.jpg	0.0	76.84493781979472	0.1166987787933067
107.0	53.94817425731344	pulse	1.0	t		body	body-6.jpg	0.0	76.88930960487141	
108.0	54.020501251030055	car	0.0		46.0	object	car-115.jpg	0.0	76.96163659858803	0.3832899017197633
108.0	54.40379115274982	ISI	1.0		6.0	object	car-115.jpg	0.0	77.34492650030779	0.11670692882353251
109.0	54.52049808157335	car	0.0		46.0	object	car-66.jpg	0.0	77.46163342913133	0.38327843130628025
109.0	54.60389794833554	pulse	0.0	t		object	car-66.jpg	0.0	77.54503329589352	
109.0	54.90377651287963	ISI	1.0		6.0	object	car-66.jpg	0.0	77.8449118604376	0.11669757138179193
110.0	55.02047408426142	car	0.0		46.0	object	car-138.jpg	0.0	77.9616094318194	0.3832871850427182
110.0	55.30387811659466	pulse	0.0	t		object	car-138.jpg	0.0	78.24501346415263	
110.0	55.40376126930414	ISI	1.0		6.0	object	car-138.jpg	0.0	78.34489661686212	0.11669968435217015
111.0	55.52046095365631	car	0.0		46.0	object	car-25.jpg	0.0	78.46159630121429	0.3832871850427182
111.0	55.90374813869903	ISI	1.0		6.0	object	car-25.jpg	0.0	78.844883486257	0.11668459170323331
112.0	56.02043273040226	car	0.0		45.0	object	car-125.jpg	0.0	78.96156807796024	0.3833022776921098
112.0	56.01035989629554	pulse	0.0	t		object	car-125.jpg	0.0	78.95149524385351	
112.0	56.40373500809437	ISI	1.0		6.0	object	car-125.jpg	0.0	79.34487035565235	0.11669968435217015
113.0	56.52043469244654	car	0.0		46.0	object	car-53.jpg	0.0	79.46157004000452	0.3832769220416594
113.0	56.70384750870198	pulse	0.0	t		object	car-53.jpg	0.0	79.64498285625996	
113.0	56.9037116144882	ISI	1.0		7.0	object	car-53.jpg	0.0	79.84484696204618	0.11669093061573221
114.0	57.020402545103934	car	0.0		46.0	object	car-58.jpg	0.0	79.96153789266191	0.3833119369874112
114.0	57.403714482091345	ISI	1.0		7.0	object	car-58.jpg	0.0	80.34484982964932	0.11667432870171979
114.0	57.44088345124237	pulse	1.0	t		object	car-58.jpg	0.0	80.38201879880035	
115.0	57.520388810793065	car	0.0		46.0	object	car-29.jpg	0.0	80.46152415835104	0.3833200870180917
115.0	57.90370889781116	ISI	1.0		6.0	object	car-29.jpg	0.0	80.84484424536913	0.11668700652717234
116.0	58.02039590433833	car	0.0		46.0	object	car-110.jpg	0.0	80.9615312518963	0.38329714619112565
116.0	58.10379033774643	pulse	0.0	t		object	car-110.jpg	0.0	81.0449256853044	
116.0	58.403693050529455	ISI	1.0		7.0	object	car-110.jpg	0.0	81.34482839808743	0.11668821393914186
117.0	58.5203812644686	car	0.0		46.0	object	car-110.jpg	1.0	81.46151661202657	0.38328477021877916
117.0	58.80378590050759	pulse	0.0	t		object	car-110.jpg	1.0	81.74492124806557	
117.0	58.903666034687376	ISI	1.0		5.0	object	car-110.jpg	1.0	81.84480138224535	0.11670300473497264
117.0	58.95355086268091	response	1.0	b		object	car-110.jpg	1.0	81.89468621023889	
118.0	59.02036903942235	car	0.0		46.0	object	car-85.jpg	0.0	81.96150438698032	0.38328175168908274
118.0	59.40365079111143	ISI	1.0		6.0	object	car-85.jpg	0.0	82.3447861386694	0.11670119361724574
119.0	59.52035198472868	car	0.0		45.0	object	car-82.jpg	0.0	82.46148733228665	0.3832877887489303
119.0	59.51018376507909	pulse	0.0	t		object	car-82.jpg	0.0	82.45131911263707	
119.0	59.90363977347761	ISI	1.0		6.0	object	car-82.jpg	0.0	82.84477512103558	0.11670179732345787
120.0	60.020341570801065	house	0.0		46.0	place	house-30.jpg	0.0	82.96147691835904	0.3832905054255207
120.0	60.20375619817378	pulse	0.0	t		place	house-30.jpg	0.0	83.14489154573175	
120.0	60.403632076226586	ISI	1.0		7.0	place	house-30.jpg	0.0	83.34476742378456	0.1166942509985347
121.0	60.52032632722512	house	0.0		46.0	place	house-30.jpg	1.0	83.4614616747831	0.38328748689582426
121.0	60.903613814120945	ISI	1.0		5.0	place	house-30.jpg	1.0	83.84474916167892	0.11669968435217015
121.0	60.95592463455432	pulse	1.0	t		place	house-30.jpg	1.0	83.8970599821123	
122.0	61.020313498473115	house	0.0		46.0	place	house-98.jpg	0.0	83.96144884603109	0.38328718504317294
122.0	61.20372088137492	response	0.0	b		place	house-98.jpg	0.0	84.1448562289329	
122.0	61.40360068351629	ISI	1.0		7.0	place	house-98.jpg	0.0	84.34473603107426	0.11670209917610919
123.0	61.5203027826924	house	0.0		46.0	place	house-143.jpg	0.0	84.46143813025037	0.3832826572479462
123.0	61.603723779163374	pulse	0.0	t		place	house-143.jpg	0.0	84.54485912672135	
123.0	61.90358543994034	ISI	1.0		7.0	place	house-143.jpg	0.0	84.84472078749832	0.11668368614436986
124.0	62.02026912608471	house	0.0		46.0	place	house-110.jpg	0.0	84.96140447364269	0.38330107028014027
124.0	62.30369458997984	pulse	0.0	t		place	house-110.jpg	0.0	85.24482993753782	
124.0	62.40357019636485	ISI	1.0		6.0	place	house-110.jpg	0.0	85.34470554392283	0.11670300473497264
125.0	62.520273201099826	house	0.0		46.0	place	house-65.jpg	0.0	85.4614085486578	0.38328175168908274
125.0	62.90355495278891	ISI	1.0		6.0	place	house-65.jpg	0.0	85.84469030034688	0.11667493240747717
126.0	63.020229885196386	house	0.0		45.0	place	house-63.jpg	0.0	85.96136523275436	0.38332521851907586
126.0	63.01013139358611	pulse	0.0	t		place	house-63.jpg	0.0	85.95126674114408	
126.0	63.40355510371546	ISI	1.0		6.0	place	house-63.jpg	0.0	86.34469045127344	0.11669274173345912
127.0	63.52024784544892	house	0.0		46.0	place	house-4.jpg	0.0	86.4613831930069	0.3832989573093073
127.0	63.70365311537944	pulse	0.0	t		place	house-4.jpg	0.0	86.64478846293741	
127.0	63.90354680275823	ISI	1.0		7.0	place	house-4.jpg	0.0	86.8446821503162	0.11666859349497827
128.0	64.0202153962532	house	0.0		46.0	place	house-45.jpg	0.0	86.96135074381118	0.38330589992801833
128.0	64.40352129618122	ISI	1.0		6.0	place	house-45.jpg	0.0	87.3446566437392	0.11669998620527622
128.0	64.44872528993756	pulse	1.0	t		place	house-45.jpg	0.0	87.38986063749553	
129.0	64.5202212823865	house	0.0		46.0	place	house-24.jpg	0.0	87.46135662994448	0.3832844683656731
129.0	64.90350575075217	ISI	1.0		6.0	place	house-24.jpg	0.0	87.84464109831015	0.11670089176459442
130.0	65.02020664251677	house	0.0		46.0	place	house-70.jpg	0.0	87.96134199007474	0.38326152753916176
130.0	65.10367382249433	pulse	0.0	t		place	house-70.jpg	0.0	88.0448091700523	
130.0	65.40346817005593	ISI	1.0		7.0	place	house-70.jpg	0.0	88.3446035176139	0.1166897232037627
131.0	65.5201578932597	house	0.0		46.0	place	house-120.jpg	0.0	88.46129324081767	0.3832895998666572
131.0	65.8036044868636	pulse	0.0	t		place	house-120.jpg	0.0	88.74473983442158	
131.0	65.90344749312635	ISI	1.0		2.0	place	house-120.jpg	0.0	88.84458284068432	0.11669545841050422
132.0	66.02014295153685	word	0.0		46.0	character	word-105.jpg	0.0	88.96127829909483	0.3832992591619586
132.0	66.40344221069881	ISI	1.0		7.0	character	word-105.jpg	0.0	89.34457755825679	0.1166737249959624
133.0	66.52011593569478	word	0.0		45.0	character	word-109.jpg	0.0	89.46125128325275	0.38331072957544166
133.0	66.51027281170946	pulse	0.0	t		character	word-109.jpg	0.0	89.45140815926743	
133.0	66.90342666527022	ISI	1.0		6.0	character	word-109.jpg	0.0	89.84456201282819	0.11667432870171979
134.0	67.02010099397194	word	0.0		46.0	character	word-60.jpg	0.0	89.96123634152991	0.3833182759003648
134.0	67.20352618619927	pulse	0.0	t		character	word-60.jpg	0.0	90.14466153375724	
134.0	67.4034192698723	ISI	1.0		5.0	character	word-60.jpg	0.0	90.34455461743028	0.11668640282096021
135.0	67.52010567269326	word	0.0		46.0	character	word-128.jpg	0.0	90.46124102025124	0.38328929801355116
135.0	67.90339497070681	ISI	1.0		7.0	character	word-128.jpg	0.0	90.84453031826479	0.1166969676755798
135.0	67.94280459456468	pulse	1.0	t		character	word-128.jpg	0.0	90.88393994212265	
136.0	68.0200919383824	word	0.0		46.0	character	word-102.jpg	0.0	90.96122728594037	0.38328809060158164
136.0	68.40338002898397	ISI	1.0		7.0	character	word-102.jpg	0.0	91.34451537654195	0.11669938249951883
137.0	68.5200794114835	word	0.0		46.0	character	word-66.jpg	0.0	91.46121475904147	0.38328114798332535
137.0	68.6035493081381	pulse	0.0	t		character	word-66.jpg	0.0	91.54468465569607	
137.0	68.90336055946682	ISI	1.0		6.0	character	word-66.jpg	0.0	91.8444959070248	0.11667764908406753
138.0	69.02003820855089	word	0.0		46.0	character	word-87.jpg	0.0	91.96117355610886	0.38331042772279034
138.0	69.30346669097617	pulse	0.0	t		character	word-87.jpg	0.0	92.24460203853414	
138.0	69.40334863627368	ISI	1.0		4.0	character	word-87.jpg	0.0	92.34448398383165	0.11669606211671635
139.0	69.5200446983904	word	0.0		46.0	character	word-20.jpg	0.0	92.46118004594837	0.38329412766142923
139.0	69.90333882605182	ISI	1.0		6.0	character	word-20.jpg	0.0	92.8444741736098	0.11669666582247373
140.0	70.0200354918743	word	0.0		45.0	character	word-65.jpg	0.0	92.96117083943227	0.3832905054255207
140.0	70.01028594231411	pulse	0.0	t		character	word-65.jpg	0.0	92.95142128987209	
140.0	70.40332599729982	ISI	1.0		3.0	character	word-65.jpg	0.0	93.34446134485779	0.1166969676755798
141.0	70.5200229649754	word	0.0		46.0	character	word-30.jpg	0.0	93.46115831253337	0.3832977498973378
141.0	70.70342551822887	pulse	0.0	t		character	word-30.jpg	0.0	93.64456086578684	
141.0	70.90332071487273	ISI	1.0		6.0	character	word-30.jpg	0.0	93.84445606243071	0.11669183617459566
142.0	71.02001255104733	word	0.0		46.0	character	word-40.jpg	0.0	93.9611478986053	0.3833191814592283
142.0	71.40333173250656	ISI	1.0		6.0	character	word-40.jpg	0.0	94.34446708006453	0.11669968435217015
142.0	71.44715957850485	pulse	1.0	t		character	word-40.jpg	0.0	94.38829492606283	
143.0	71.52003141685873	word	0.0		46.0	character	word-84.jpg	0.0	94.4611667644167	0.3832554904797689
143.0	71.9032869073385	ISI	1.0		11.0	character	word-84.jpg	0.0	94.84442225489647	0.09999695128453823
144.0	72.00328385862304	baseline	0.0		48.0		baseline	0.0	94.94441920618101	0.3999971625821672
144.0	72.10340698445589	pulse	0.0	t			baseline	0.0	95.04454233201386	
144.0	72.4032810212052	ISI	1.0		11.0		baseline	0.0	95.34441636876318	0.09998910310696374
145.0	72.50327012431217	baseline	0.0		48.0		baseline	0.0	95.44440547187014	0.3999971625821672
145.0	72.80337628600728	pulse	0.0	t			baseline	0.0	95.74451163356525	
145.0	72.90326728689433	ISI	1.0		11.0		baseline	0.0	95.84440263445231	0.09999846054961381
146.0	73.00326574744395	baseline	0.0		48.0		baseline	0.0	95.94440109500192	0.3999739199020951
146.0	73.40323966734604	ISI	1.0		11.0		baseline	0.0	96.34437501490402	0.10000298834484056
147.0	73.50324265569088	baseline	0.0		47.0		baseline	0.0	96.44437800324886	0.399996257022849
147.0	73.5073867953206	pulse	0.0	t			baseline	0.0	96.44852214287857	
147.0	73.90323891271373	ISI	1.0		11.0		baseline	0.0	96.8443742602717	0.09999604572567478
148.0	74.0032349584394	baseline	0.0		48.0		baseline	0.0	96.94437030599738	0.39999565331709164
148.0	74.20333450955422	pulse	0.0	t			baseline	0.0	97.1444698571122	
148.0	74.4032306117565	ISI	1.0		11.0		baseline	0.0	97.34436595931447	0.09999785684385643
149.0	74.50322846860035	baseline	0.0		48.0		baseline	0.0	97.44436381615833	0.3999881069926232
149.0	74.90321657559298	ISI	1.0		11.0		baseline	0.0	97.84435192315095	0.09999725313764429
149.0	74.90786269673663	pulse	1.0	t			baseline	0.0	97.8489980442946	
150.0	75.00321382873062	baseline	0.0		48.0		baseline	0.0	97.9443491762886	0.39997935325573053
150.0	75.40319318198635	ISI	1.0		11.0		baseline	0.0	98.34432852954433	0.09999725313809904
151.0	75.50319043512445	baseline	0.0		48.0		baseline	0.0	98.44432578268243	0.3999878051390624
151.0	75.60330027942564	pulse	0.0	t			baseline	0.0	98.54443562698361	
151.0	75.90317824026351	ISI	1.0		11.0		baseline	0.0	98.84431358782149	0.09999876240317462
152.0	76.00317700266669	baseline	0.0		48.0		baseline	0.0	98.94431235022466	0.39999535146398557
152.0	76.30328165509627	pulse	0.0	t			baseline	0.0	99.24441700265425	
152.0	76.40317235413067	ISI	1.0		11.0		baseline	0.0	99.34430770168865	0.09999031051893326
153.0	76.50316266464961	baseline	0.0		48.0		baseline	0.0	99.44429801220758	0.39998961625724405
153.0	76.90315228090685	ISI	1.0		11.0		baseline	0.0	99.84428762846483	0.10001234578703588
154.0	77.00316462669389	baseline	0.0		47.0		baseline	0.0	99.94429997425186	0.3999739199025498
154.0	77.00767672511256	pulse	0.0	t			baseline	0.0	99.94881207267053	
154.0	77.40313854659644	ISI	1.0		11.0		baseline	0.0	100.34427389415441	0.1000108365219603
155.0	77.5031493831184	baseline	0.0		48.0		baseline	0.0	100.44428473067637	0.40004545905958366
155.0	77.70331322891843	pulse	0.0	t			baseline	0.0	100.6444485764764	
155.0	77.90319484217798	ISI	1.0		11.0		baseline	0.0	100.84433018973596	0.10000389390324926
156.0	78.00319873608123	baseline	0.0		48.0		baseline	0.0	100.9443340836392	0.3999914273754257
156.0	78.40319016345666	ISI	1.0		11.0		baseline	0.0	101.34432551101463	0.0999875938423429
156.0	78.4078513772497	pulse	1.0	t			baseline	0.0	101.34898672480767	
157.0	78.503177757299	baseline	0.0		48.0		baseline	0.0	101.44431310485697	0.39999595516974296
157.0	78.90317371246874	ISI	1.0		11.0		baseline	0.0	101.84430906002672	0.09999846055006856
158.0	79.00317217301881	baseline	0.0		48.0		baseline	0.0	101.94430752057679	0.399980258814594
158.0	79.10328473399659	pulse	0.0	t			baseline	0.0	102.04442008155456	
158.0	79.4031524318334	ISI	1.0		11.0		baseline	0.0	102.34428777939138	0.09999815869696249
159.0	79.50315059053037	baseline	0.0		48.0		baseline	0.0	102.44428593808834	0.399989314404138
159.0	79.803257959637	pulse	0.0	t			baseline	0.0	102.74439330719497	
159.0	79.9031399049345	ISI	1.0		11.0		baseline	0.0	102.84427525249248	0.09999785684385643
160.0	80.00313776177836	baseline	0.0		48.0		baseline	0.0	102.94427310933634	0.39998780513951715
160.0	80.40312556691788	ISI	1.0		11.0		baseline	0.0	103.34426091447585	0.10002351434741286
161.0	80.50314908126529	baseline	0.0		47.0		baseline	0.0	103.44428442882327	0.39997150507815604
161.0	80.50757152934739	pulse	0.0	t			baseline	0.0	103.44870687690536	
161.0	80.90312058634345	ISI	1.0		11.0		baseline	0.0	103.84425593390142	0.09999815869696249
162.0	81.00311874504041	baseline	0.0		48.0		baseline	0.0	103.94425409259838	0.39997935325573053
162.0	81.20322644618545	pulse	0.0	t			baseline	0.0	104.14436179374343	
162.0	81.40309809829614	ISI	1.0		11.0		baseline	0.0	104.34423344585412	0.09998910310741849
163.0	81.50308720140356	baseline	0.0		48.0		baseline	0.0	104.44422254896153	0.40000772743633206
163.0	81.90309492883989	ISI	1.0		11.0		baseline	0.0	104.84423027639787	0.09999695128499297
163.0	81.9077821019896	pulse	1.0	t			baseline	0.0	104.84891744954757	
164.0	82.00309188012488	baseline	0.0		48.0		baseline	0.0	104.94422722768286	0.39997754213800363
164.0	82.40306942226289	ISI	1.0		11.0		baseline	0.0	105.34420476982086	0.0999999698146894
165.0	82.50306939207758	baseline	0.0		48.0		baseline	0.0	105.44420473963555	0.39998116437345743
165.0	82.60318859382096	pulse	0.0	t			baseline	0.0	105.54432394137893	
165.0	82.90305055645103	ISI	1.0		11.0		baseline	0.0	105.84418590400901	0.10000691243340043
166.0	83.00305746888444	baseline	0.0		48.0		baseline	0.0	105.94419281644241	0.3999959551701977
166.0	83.30316785652121	pulse	0.0	t			baseline	0.0	106.24430320407919	
166.0	83.40305342405463	ISI	1.0		11.0		baseline	0.0	106.34418877161261	0.09999725313764429
167.0	83.50305067719228	baseline	0.0		48.0		baseline	0.0	106.44418602475025	0.39998056066770005
167.0	83.90303123785998	ISI	1.0		5.0		baseline	0.0	106.84416658541795	0.11666316014134281
168.0	84.01969439800132	car	0.0		45.0	object	car-68.jpg	0.0	106.9608297455593	0.3832844683656731
168.0	84.01081297762585	pulse	0.0	t		object	car-68.jpg	0.0	106.95194832518382	
168.0	84.402978866367	ISI	1.0		7.0	object	car-68.jpg	0.0	107.34411421392497	0.11669364729277731
169.0	84.51967251365977	car	0.0		46.0	object	car-137.jpg	0.0	107.46080786121775	0.38330378695718537
169.0	84.70308925400377	pulse	0.0	t		object	car-137.jpg	0.0	107.64422460156175	
169.0	84.90297630061696	ISI	1.0		6.0	object	car-137.jpg	0.0	107.84411164817493	0.11667764908452227
170.0	85.01965394970148	car	0.0		46.0	object	car-105.jpg	0.0	107.96078929725945	0.38331344625248676
170.0	85.40296739595397	ISI	1.0		6.0	object	car-105.jpg	0.0	108.34410274351194	0.11668942135065663
170.0	85.44387028652818	pulse	1.0	t		object	car-105.jpg	0.0	108.38500563408616	
171.0	85.51965681730462	car	0.0		46.0	object	car-52.jpg	0.0	108.4607921648626	0.3832950332202927
171.0	85.90295185052491	ISI	1.0		6.0	object	car-52.jpg	0.0	108.84408719808289	0.11666134902316116
172.0	86.01961319954808	car	0.0		46.0	object	car-21.jpg	0.0	108.96074854710605	0.38329171283794494
172.0	86.10301819781125	pulse	0.0	t		object	car-21.jpg	0.0	109.04415354536923	
172.0	86.40290491238602	ISI	1.0		7.0	object	car-21.jpg	0.0	109.344040259944	0.11668187502618821
173.0	86.51958678741221	car	0.0		46.0	object	car-128.jpg	0.0	109.46072213497018	0.3833046925160488
173.0	86.80301376057241	pulse	0.0	t		object	car-128.jpg	0.0	109.74414910813039	
173.0	86.90289147992826	ISI	1.0		5.0	object	car-128.jpg	0.0	109.84402682748623	0.1166897232037627
174.0	87.01958120313202	car	0.0		46.0	object	car-87.jpg	0.0	109.96071655069	0.3832886943077938
174.0	87.40286989743981	ISI	1.0		6.0	object	car-87.jpg	0.0	110.34400524499779	0.11667825279027966
175.0	87.5195481502301	car	0.0		45.0	object	car-133.jpg	0.0	110.46068349778807	0.38331495551756234
175.0	87.51161364266864	pulse	0.0	t		object	car-133.jpg	0.0	110.45274899022661	
175.0	87.90286310574766	ISI	1.0		7.0	object	car-133.jpg	0.0	110.84399845330563	0.11669183617459566
176.0	88.01955494192225	car	0.0		46.0	object	car-101.jpg	0.0	110.96069028948023	0.38329986286817075
176.0	88.20300367868276	pulse	0.0	t		object	car-101.jpg	0.0	111.14413902624074	
176.0	88.40285480479042	ISI	1.0		7.0	object	car-101.jpg	0.0	111.3439901523484	0.11668911949800531
177.0	88.51954392428843	car	0.0		46.0	object	car-12.jpg	0.0	111.4606792718464	0.3832950332202927
177.0	88.90283895750872	ISI	1.0		5.0	object	car-12.jpg	0.0	111.8439743050667	0.1166897232037627
177.0	88.95535715094275	pulse	1.0	t		object	car-12.jpg	0.0	111.89649249850072	
178.0	89.01952868071248	car	0.0		46.0	object	car-122.jpg	0.0	111.96066402827046	0.3832883924546877
178.0	89.40281707316717	ISI	1.0		7.0	object	car-122.jpg	0.0	112.34395242072515	0.11669666582247373
179.0	89.51951373898964	car	0.0		46.0	object	car-23.jpg	0.0	112.46064908654762	0.38330589992801833
179.0	89.60293896140274	pulse	0.0	t		object	car-23.jpg	0.0	112.54407430896072	
179.0	89.90281963891766	ISI	1.0		7.0	object	car-23.jpg	0.0	112.84395498647564	0.11668610096785414
180.0	90.01950573988552	body	0.0		46.0	body	body-52.jpg	0.0	112.96064108744349	0.3832905054259754
180.0	90.3029058481302	pulse	0.0	t		body	body-52.jpg	0.0	113.24404119568817	
180.0	90.40279624531149	ISI	1.0		6.0	body	body-52.jpg	0.0	113.34393159286947	0.11669062876262615
181.0	90.51948687407412	body	0.0		46.0	body	body-112.jpg	0.0	113.4606222216321	0.3832923165437023
181.0	90.90277919061782	ISI	1.0		6.0	body	body-112.jpg	0.0	113.8439145381758	0.11669183617459566
182.0	91.01947102679242	body	0.0		45.0	body	body-97.jpg	0.0	113.96060637435039	0.38330107028014027
182.0	91.01116674932427	pulse	0.0	t		body	body-97.jpg	0.0	113.95230209688225	
182.0	91.40277209707256	ISI	1.0		7.0	body	body-97.jpg	0.0	114.34390744463053	0.11668911949800531
183.0	91.51946121657056	body	0.0		46.0	body	body-91.jpg	0.0	114.46059656412854	0.3832950332202927
183.0	91.70286859947191	pulse	0.0	t		body	body-91.jpg	0.0	114.64400394702989	
183.0	91.90275624979085	ISI	1.0		7.0	body	body-91.jpg	0.0	114.84389159734883	0.11667161202467469
184.0	92.01942786181553	body	0.0		46.0	body	body-54.jpg	0.0	114.9605632093735	0.38336204458300926
184.0	92.40278990639854	ISI	1.0		6.0	body	body-54.jpg	0.0	115.34392525395651	0.11669002505686876
184.0	92.44746565743162	pulse	1.0	t		body	body-54.jpg	0.0	115.3886010049896	
185.0	92.51947993145541	body	0.0		46.0	body	body-144.jpg	0.0	115.46061527901338	0.38324975527257266
185.0	92.90272968672798	ISI	1.0		8.0	body	body-144.jpg	0.0	115.84386503428595	0.11669213802770173
186.0	93.01942182475568	body	0.0		46.0	body	body-144.jpg	1.0	115.96055717231366	0.38328748689582426
186.0	93.10284101010893	pulse	0.0	t		body	body-144.jpg	1.0	116.0439763576669	
186.0	93.4027093116515	ISI	1.0		6.0	body	body-144.jpg	1.0	116.34384465920948	0.11669847694065538
187.0	93.51940778859216	body	0.0		46.0	body	body-86.jpg	0.0	116.46054313615014	0.3832871850427182
187.0	93.53616576075592	response	0.0	b		body	body-86.jpg	0.0	116.4773011083139	
187.0	93.80289422679016	pulse	0.0	t		body	body-86.jpg	0.0	116.74402957434813	
187.0	93.90269497363488	ISI	1.0		6.0	body	body-86.jpg	0.0	116.84383032119285	0.11669968435217015
188.0	94.01939465798705	body	0.0		46.0	body	body-130.jpg	0.0	116.96053000554502	0.38329624063271694
188.0	94.40269089861977	ISI	1.0		7.0	body	body-130.jpg	0.0	117.34382624617774	0.11673530300458879
189.0	94.51942620162436	body	0.0		45.0	body	body-119.jpg	0.0	117.46056154918233	0.3832376811528775
189.0	94.51093719012943	pulse	0.0	t		body	body-119.jpg	0.0	117.4520725376874	
189.0	94.90266388277723	ISI	1.0		7.0	body	body-119.jpg	0.0	117.84379923033521	0.1167042121473969
190.0	95.01936809492463	body	0.0		46.0	body	body-98.jpg	0.0	117.9605034424826	0.3832868831896121
190.0	95.20277638338484	pulse	0.0	t		body	body-98.jpg	0.0	118.14391173094282	
190.0	95.40265497811424	ISI	1.0		7.0	body	body-98.jpg	0.0	118.34379032567222	0.10835948637895854
191.0	95.5110144644932	body	0.0		47.0	body	body-132.jpg	0.0	118.45214981205118	0.3916222515154004
191.0	95.9026367160086	ISI	1.0		4.0	body	body-132.jpg	0.0	118.84377206356658	0.10837488088145619
191.0	95.9653252420635	pulse	1.0	t		body	body-132.jpg	0.0	118.90646058962147	
192.0	96.01101159689006	adult	0.0		47.0	face	adult-81.jpg	0.0	118.95214694444803	0.3916180255737345
192.0	96.40262962246379	ISI	1.0		5.0	face	adult-81.jpg	0.0	119.34376497002177	0.1083552604372926
193.0	96.51098488290108	adult	0.0		47.0	face	adult-65.jpg	0.0	119.45212023045906	0.39164036269448843
193.0	96.60275634034679	pulse	0.0	t		face	adult-65.jpg	0.0	119.54389168790476	
193.0	96.90262524559557	ISI	1.0		6.0	face	adult-65.jpg	0.0	119.84376059315355	0.10835646784880737
194.0	97.01098171344438	adult	0.0		47.0	face	adult-65.jpg	1.0	119.95211706100235	0.3916128940732051
194.0	97.30273801787052	pulse	0.0	t		face	adult-65.jpg	1.0	120.2438733654285	
194.0	97.40259460751759	ISI	1.0		6.0	face	adult-65.jpg	1.0	120.34372995507556	0.10835616599615605
195.0	97.51095077351374	adult	0.0		47.0	face	adult-51.jpg	0.0	120.45208612107172	0.39164639975388127
195.0	97.63606823205646	response	0.0	b		face	adult-51.jpg	0.0	120.57720357961443	
195.0	97.90259717326762	ISI	1.0		4.0	face	adult-51.jpg	0.0	120.8437325208256	0.10834801596593024
196.0	98.01094518923355	adult	0.0		46.0	face	adult-141.jpg	0.0	120.95208053679153	0.3916300996929749
196.0	98.00641286666496	pulse	0.0	t		face	adult-141.jpg	0.0	120.94754821422293	
196.0	98.40257528892653	ISI	1.0		6.0	face	adult-141.jpg	0.0	121.3437106364845	0.10836673085032089
197.0	98.51094201977685	adult	0.0		47.0	face	adult-142.jpg	0.0	121.45207736733482	0.39165183310797147
197.0	98.70272401189186	pulse	0.0	t		face	adult-142.jpg	0.0	121.64385935944983	
197.0	98.90259385288482	ISI	1.0		6.0	face	adult-142.jpg	0.0	121.8437292004428	0.11668278058550641
198.0	99.01927663347033	adult	0.0		46.0	face	adult-12.jpg	0.0	121.9604119810283	0.38330318325097323
198.0	99.4025798167213	ISI	1.0		5.0	face	adult-12.jpg	0.0	122.34371516427927	0.11670360844118477
198.0	99.45425402920955	pulse	1.0	t		face	adult-12.jpg	0.0	122.39538937676753	
199.0	99.51928342516248	adult	0.0		46.0	face	adult-118.jpg	0.0	122.46041877272046	0.3832467367424215
199.0	99.9025301619049	ISI	1.0		5.0	face	adult-118.jpg	0.0	122.84366550946288	0.11670028805838228
200.0	100.01923044996329	adult	0.0		46.0	face	adult-14.jpg	0.0	122.96036579752126	0.3832989573093073
200.0	100.10266835020138	pulse	0.0	t		face	adult-14.jpg	0.0	123.04380369775936	
200.0	100.4025294072726	ISI	1.0		7.0	face	adult-14.jpg	0.0	123.34366475483057	0.11668942135111138
201.0	100.5192188286237	adult	0.0		46.0	face	adult-87.jpg	0.0	123.46035417618168	0.3832968443380196
201.0	100.80262527578088	pulse	0.0	t		face	adult-87.jpg	0.0	123.74376062333886	
201.0	100.90251567296173	ISI	1.0		7.0	face	adult-87.jpg	0.0	123.8436510205197	0.1166897232037627
202.0	101.01920539616549	adult	0.0		46.0	face	adult-117.jpg	0.0	123.96034074372346	0.38328567577809736
202.0	101.40249107194359	ISI	1.0		7.0	face	adult-117.jpg	0.0	124.34362641950156	0.11667825279027966
203.0	101.51916932473387	adult	0.0		45.0	face	adult-106.jpg	0.0	124.46030467229184	0.3833007684270342
203.0	101.51150557929986	pulse	0.0	t		face	adult-106.jpg	0.0	124.45264092685784	
203.0	101.9024700931609	ISI	1.0		5.0	face	adult-106.jpg	0.0	124.84360544071887	0.1167183992374703
204.0	102.01918849239837	body	0.0		46.0	body	body-93.jpg	0.0	124.96032383995635	0.38328627948385474
204.0	102.2025877252695	pulse	0.0	t		body	body-93.jpg	0.0	125.14372307282747	
204.0	102.40247477188223	ISI	1.0		7.0	body	body-93.jpg	0.0	125.3436101194402	0.11669153432194435
205.0	102.51916630620417	body	0.0		46.0	body	body-78.jpg	0.0	125.46030165376214	0.38329654248536826
205.0	102.90246284868954	ISI	1.0		6.0	body	body-78.jpg	0.0	125.84359819624751	0.11667795093717359
205.0	102.94457677343917	pulse	1.0	t		body	body-78.jpg	0.0	125.88571212099714	
206.0	103.01914079962671	body	0.0		46.0	body	body-104.jpg	0.0	125.96027614718469	0.38330650363423047
206.0	103.40244730326094	ISI	1.0		6.0	body	body-104.jpg	0.0	126.34358265081892	0.11668670467361153
207.0	103.51913400793455	body	0.0		46.0	body	body-41.jpg	0.0	126.46026935549253	0.38329956101551943
207.0	103.60256405999553	pulse	0.0	t		body	body-41.jpg	0.0	126.5436994075535	
207.0	103.90243356895007	ISI	1.0		7.0	body	body-41.jpg	0.0	126.84356891650805	0.11669213802770173
208.0	104.01912570697777	body	0.0		46.0	body	body-41.jpg	1.0	126.96026105453575	0.3832962406322622
208.0	104.30255962275623	pulse	0.0	t		body	body-41.jpg	1.0	127.24369497031421	
208.0	104.40242194761004	ISI	1.0		2.0	body	body-41.jpg	1.0	127.34355729516801	0.11668881764489925
209.0	104.51911076525494	body	0.0		46.0	body	body-139.jpg	0.0	127.46024611281291	0.38328929801355116
209.0	104.82751516735789	response	0.0	b		body	body-139.jpg	0.0	127.76865051491586	
209.0	104.90240006326849	ISI	1.0		7.0	body	body-139.jpg	0.0	127.84353541082646	0.11669364729277731
210.0	105.01909371056126	body	0.0		45.0	body	body-79.jpg	0.0	127.96022905811924	0.38329141098438413
210.0	105.00922402351353	pulse	0.0	t		body	body-79.jpg	0.0	127.9503593710715	
210.0	105.40238512154565	ISI	1.0		7.0	body	body-79.jpg	0.0	128.34352046910362	0.11670209917656393
211.0	105.51908722072221	body	0.0		46.0	body	body-138.jpg	0.0	128.4602225682802	0.3833188796061222
211.0	105.70256523722173	pulse	0.0	t		body	body-138.jpg	0.0	128.6437005847797	
211.0	105.90240610032834	ISI	1.0		7.0	body	body-138.jpg	0.0	128.8435414478863	0.11670240102921525
212.0	106.01910850135755	body	0.0		46.0	body	body-109.jpg	0.0	128.96024384891552	0.38328446836612784
212.0	106.40239296972368	ISI	1.0		4.0	body	body-109.jpg	0.0	129.34352831728165	0.11669938249906409
212.0	106.46358521053207	pulse	1.0	t		body	body-109.jpg	0.0	129.40472055809005	
213.0	106.51909235222274	body	0.0		46.0	body	body-113.jpg	0.0	129.46022769978072	0.38329352395567184
213.0	106.90238587617841	ISI	1.0		3.0	body	body-113.jpg	0.0	129.8435212237364	0.11669545841050422
214.0	107.01908133458892	body	0.0		46.0	body	body-103.jpg	0.0	129.9602166821469	0.3832826572479462
214.0	107.10250384032497	pulse	0.0	t		body	body-103.jpg	0.0	130.04363918788295	
214.0	107.40236399183686	ISI	1.0		2.0	body	body-103.jpg	0.0	130.34349933939484	0.11670058991148835
215.0	107.51906458174835	body	0.0		46.0	body	body-127.jpg	0.0	130.46019992930633	0.3832832609537036
215.0	107.80248249931901	pulse	0.0	t		body	body-127.jpg	0.0	130.743617846877	
215.0	107.90234784270206	ISI	1.0		2.0	body	body-127.jpg	0.0	130.84348319026003	0.1166728194366442
216.0	108.0190206621387	word	0.0		46.0	character	word-111.jpg	0.0	130.96015600969668	0.3833261240779393
216.0	108.40234678621664	ISI	1.0		7.0	character	word-111.jpg	0.0	131.34348213377461	0.11668881764489925
217.0	108.51903560386154	word	0.0		45.0	character	word-2.jpg	0.0	131.4601709514195	0.3832883924546877
217.0	108.50918855578766	pulse	0.0	t		character	word-2.jpg	0.0	131.45032390334563	
217.0	108.90232399631623	ISI	1.0		6.0	character	word-2.jpg	0.0	131.8434593438742	0.11670391029429084
218.0	109.01902790661052	word	0.0		46.0	character	word-127.jpg	0.0	131.9601632541685	0.38328114798332535
218.0	109.20244887289618	pulse	0.0	t		character	word-127.jpg	0.0	132.14358422045416	
218.0	109.40230905459384	ISI	1.0		7.0	character	word-127.jpg	0.0	132.34344440215182	0.11670481585269954
219.0	109.51901387044654	word	0.0		46.0	character	word-117.jpg	0.0	132.46014921800452	0.38329292024991446
219.0	109.90230679069646	ISI	1.0		6.0	character	word-117.jpg	0.0	132.84344213825443	0.11669213802770173
219.0	109.94859624778655	pulse	1.0	t		character	word-117.jpg	0.0	132.88973159534453	
220.0	110.01899892872416	word	0.0		46.0	character	word-90.jpg	0.0	132.96013427628213	0.38328175168908274
220.0	110.40228068041324	ISI	1.0		6.0	character	word-90.jpg	0.0	133.34341602797122	0.11668730837982366
221.0	110.51896798879307	word	0.0		46.0	character	word-86.jpg	0.0	133.46010333635104	0.38331072957544166
221.0	110.60239924826556	pulse	0.0	t		character	word-86.jpg	0.0	133.54353459582353	
221.0	110.9022787183685	ISI	1.0		7.0	character	word-86.jpg	0.0	133.84341406592648	0.11669334543967125
222.0	111.01897206380818	word	0.0		46.0	character	word-96.jpg	0.0	133.96010741136615	0.38329533507339875
222.0	111.30238726470225	pulse	0.0	t		character	word-96.jpg	0.0	134.24352261226022	
222.0	111.40226739888158	ISI	1.0		5.0	character	word-96.jpg	0.0	134.34340274643955	0.11670451400004822
223.0	111.51897191288163	word	0.0		46.0	character	word-137.jpg	0.0	134.4601072604396	0.3832814498364314
223.0	111.90225336271806	ISI	1.0		7.0	character	word-137.jpg	0.0	134.84338871027603	0.11668670467406628
224.0	112.01894006739212	word	0.0		45.0	character	word-99.jpg	0.0	134.9600754149501	0.38329835360309517
224.0	112.00918206594861	pulse	0.0	t		character	word-99.jpg	0.0	134.95031741350658	
224.0	112.40223842099522	ISI	1.0		4.0	character	word-99.jpg	0.0	135.3433737685532	0.1166942509985347
225.0	112.51893267199375	word	0.0		46.0	character	word-18.jpg	0.0	135.46006801955173	0.38326032012719224
225.0	112.70234971419086	pulse	0.0	t		character	word-18.jpg	0.0	135.64348506174883	
225.0	112.90219299212094	ISI	1.0		7.0	character	word-18.jpg	0.0	135.84332833967892	0.11667251758353814
226.0	113.01886550970448	word	0.0		46.0	character	word-9.jpg	0.0	135.96000085726246	0.3833080128988513
226.0	113.40217352260333	ISI	1.0		6.0	character	word-9.jpg	0.0	136.3433088701613	0.11669787323444325
226.0	113.44320258772541	pulse	1.0	t		character	word-9.jpg	0.0	136.38433793528338	
227.0	113.51887139583778	word	0.0		46.0	character	word-115.jpg	0.0	136.46000674339575	0.38329412766142923
227.0	113.9021655234992	ISI	1.0		6.0	character	word-115.jpg	0.0	136.84330087105718	0.11667523426058324
228.0	114.01884075775979	word	0.0		46.0	character	word-134.jpg	0.0	136.95997610531776	0.38329956101551943
228.0	114.10227805429213	pulse	0.0	t		character	word-134.jpg	0.0	137.0434134018501	
228.0	114.40214031877531	ISI	1.0		7.0	character	word-134.jpg	0.0	137.34327566633328	0.11670723067663857
229.0	114.51884754945195	word	0.0		46.0	character	word-24.jpg	0.0	137.45998289700992	0.38329352395567184
229.0	114.80228870970268	pulse	0.0	t		character	word-24.jpg	0.0	137.74342405726065	
229.0	114.90214107340762	ISI	1.0		7.0	character	word-24.jpg	0.0	137.8432764209656	0.1167005899110336
230.0	115.01884166331865	word	0.0		46.0	character	word-24.jpg	1.0	137.95997701087663	0.38327541277658383
230.0	115.40211707609524	ISI	1.0		6.0	character	word-24.jpg	1.0	138.3432524236532	0.11669576026361028
231.0	115.51881283635885	word	0.0		45.0	character	word-53.jpg	0.0	138.45994818391682	0.3832929202494597
231.0	115.50908532206677	pulse	0.0	t		character	word-53.jpg	0.0	138.45022066962474	
231.0	115.61890426762784	response	0.0	b		character	word-53.jpg	0.0	138.56003961518581	
231.0	115.90210575660831	ISI	1.0		4.0	character	word-53.jpg	0.0	138.84324110416628	0.11669817508754932
232.0	116.01880393169586	word	0.0		46.0	character	word-72.jpg	0.0	138.95993927925383	0.38328929801355116
232.0	116.20222097389251	pulse	0.0	t		character	word-72.jpg	0.0	139.14335632145048	
232.0	116.40209322970941	ISI	1.0		4.0	character	word-72.jpg	0.0	139.34322857726738	0.1166969676755798
233.0	116.51879019738499	word	0.0		46.0	character	word-29.jpg	0.0	139.45992554494296	0.38329593877915613
233.0	116.90208613616414	ISI	1.0		6.0	character	word-29.jpg	0.0	139.84322148372212	0.11669032690997483
233.0	116.9505256920661	pulse	1.0	t		character	word-29.jpg	0.0	139.89166103962407	
234.0	117.01877646307412	word	0.0		46.0	character	word-122.jpg	0.0	139.9599118106321	0.3832865813369608
234.0	117.40206304441108	ISI	1.0		6.0	character	word-122.jpg	0.0	140.34319839196905	0.1167005899110336
235.0	117.51876363432211	word	0.0		46.0	character	word-93.jpg	0.0	140.4598989818801	0.38328899616089984
235.0	117.60217285852696	pulse	0.0	t		character	word-93.jpg	0.0	140.54330820608493	
235.0	117.90205263048301	ISI	1.0		7.0	character	word-93.jpg	0.0	140.843187978041	0.11669726952823112
236.0	118.01874990001124	word	0.0		46.0	character	word-78.jpg	0.0	140.95988524756922	0.38329533507339875
236.0	118.30215664902153	pulse	0.0	t		character	word-78.jpg	0.0	141.2432919965795	
236.0	118.40204523508464	ISI	1.0		6.0	character	word-78.jpg	0.0	141.34318058264262	0.1166800639084613
237.0	118.5187252989931	word	0.0		46.0	character	word-36.jpg	0.0	141.45986064655108	0.3833312555784687
237.0	118.90205655457157	ISI	1.0		5.0	character	word-36.jpg	0.0	141.84319190212955	0.11669425099898945
238.0	119.01875080557056	word	0.0		45.0	character	word-62.jpg	0.0	141.95988615312854	0.3833025795447611
238.0	119.00959771750877	pulse	0.0	t		character	word-62.jpg	0.0	141.95073306506674	
238.0	119.40205338511532	ISI	1.0		5.0	character	word-62.jpg	0.0	142.3431887326733	0.11668851579179318
239.0	119.51874190090712	word	0.0		46.0	character	word-46.jpg	0.0	142.4598772484651	0.38329654248536826
239.0	119.70216437645786	pulse	0.0	t		character	word-46.jpg	0.0	142.64329972401583	
239.0	119.90203844339248	ISI	1.0		3.0	character	word-46.jpg	0.0	142.84317379095046	0.11667191387778075
240.0	120.01871035727027	car	0.0		46.0	object	car-35.jpg	0.0	142.95984570482824	0.38330891845771475
240.0	120.40201927572798	ISI	1.0		6.0	object	car-35.jpg	0.0	143.34315462328595	0.1166987787933067
240.0	120.442891075445	pulse	1.0	t		object	car-35.jpg	0.0	143.38402642300298	
241.0	120.51871805452129	car	0.0		46.0	object	car-117.jpg	0.0	143.45985340207926	0.38328507207233997
241.0	120.90200312659363	ISI	1.0		6.0	object	car-117.jpg	0.0	143.8431384741516	0.11668187502618821
242.0	121.01868500161982	car	0.0		46.0	object	car-61.jpg	0.0	143.9598203491778	0.3833058999275636
242.0	121.10212712779958	pulse	0.0	t		object	car-61.jpg	0.0	144.04326247535755	
242.0	121.40199090154738	ISI	1.0		6.0	object	car-61.jpg	0.0	144.34312624910535	0.1166996843526249
243.0	121.5186905859	car	0.0		46.0	object	car-14.jpg	0.0	144.45982593345798	0.38329382580832316
243.0	121.8020988441749	pulse	0.0	t		object	car-14.jpg	0.0	144.74323419173288	
243.0	121.90198441170833	ISI	1.0		6.0	object	car-14.jpg	0.0	144.8431197592663	0.11669062876262615
244.0	122.01867504047095	car	0.0		46.0	object	car-129.jpg	0.0	144.95981038802893	0.3832545849204507
244.0	122.4019296253914	ISI	1.0		5.0	object	car-129.jpg	0.0	145.34306497294938	0.11668247873240034
245.0	122.5186121041238	car	0.0		45.0	object	car-78.jpg	0.0	145.45974745168178	0.3833131443993807
245.0	122.50894797895853	pulse	0.0	t		object	car-78.jpg	0.0	145.4500833265165	
245.0	122.90192524852318	ISI	1.0		7.0	object	car-78.jpg	0.0	145.84306059608116	0.11669032690997483
246.0	123.01861557543316	car	0.0		46.0	object	car-1.jpg	0.0	145.95975092299113	0.38329593877915613
246.0	123.20203503245375	pulse	0.0	t		object	car-1.jpg	0.0	146.14317038001172	
246.0	123.40191151421232	ISI	1.0		7.0	object	car-1.jpg	0.0	146.3430468617703	0.11668972320421744
247.0	123.51860123741653	car	0.0		46.0	object	car-49.jpg	0.0	146.4597365849745	0.38329382580832316
247.0	123.90189506322486	ISI	1.0		7.0	object	car-49.jpg	0.0	146.84303041078283	0.11669515655739815
247.0	123.93851526364915	pulse	1.0	t		object	car-49.jpg	0.0	146.87965061120713	
248.0	124.01859021978225	car	0.0		46.0	object	car-17.jpg	0.0	146.95972556734023	0.38329080727862674
248.0	124.40188102706088	ISI	1.0		5.0	object	car-17.jpg	0.0	147.34301637461886	0.11669455285164076
249.0	124.51857557991252	car	0.0		46.0	object	car-89.jpg	0.0	147.4597109274705	0.3832989573093073
249.0	124.6019872189413	pulse	0.0	t		object	car-89.jpg	0.0	147.54312256649928	
249.0	124.90187453722183	ISI	1.0		7.0	object	car-89.jpg	0.0	147.8430098847798	0.11668881764489925
250.0	125.01856335486673	car	0.0		46.0	object	car-81.jpg	0.0	147.9596987024247	0.38328809060158164
250.0	125.30196104828747	pulse	0.0	t		object	car-81.jpg	0.0	148.24309639584544	
250.0	125.40185144546831	ISI	1.0		6.0	object	car-81.jpg	0.0	148.34298679302628	0.11669726952868587
251.0	125.518548714997	car	0.0		46.0	object	car-70.jpg	0.0	148.45968406255497	0.38329412766142923
251.0	125.90184284265843	ISI	1.0		11.0	object	car-70.jpg	0.0	148.8429781902164	0.10000147907976498
252.0	126.00184432173819	baseline	0.0		47.0		baseline	0.0	148.94297966929616	0.39997120322505
252.0	126.00621092701795	pulse	0.0	t			baseline	0.0	148.94734627457592	
252.0	126.40181552496324	ISI	1.0		11.0		baseline	0.0	149.34295087252121	0.10000479946256746
253.0	126.50182032442581	baseline	0.0		48.0		baseline	0.0	149.44295567198378	0.3999899181103501
253.0	126.70193044039479	pulse	0.0	t			baseline	0.0	149.64306578795276	
253.0	126.90181024253616	ISI	1.0		11.0		baseline	0.0	149.84294559009413	0.09999031051893326
254.0	127.00180055305509	baseline	0.0		48.0		baseline	0.0	149.94293590061307	0.39999686072906115
254.0	127.40179741378415	ISI	1.0		11.0		baseline	0.0	150.34293276134213	0.09999725313809904
254.0	127.4065340908237	pulse	1.0	t			baseline	0.0	150.34766943838167	
255.0	127.50179466692225	baseline	0.0		48.0		baseline	0.0	150.44293001448023	0.399989314404138
255.0	127.90178398132639	ISI	1.0		11.0		baseline	0.0	150.84291932888436	0.09999966796158333
256.0	128.00178364928797	baseline	0.0		48.0		baseline	0.0	150.94291899684595	0.40006206097405084
256.0	128.1020272144615	pulse	0.0	t			baseline	0.0	151.04316256201946	
256.0	128.40184571026202	ISI	1.0		11.0		baseline	0.0	151.34298105782	0.09999695128453823
257.0	128.50184266154656	baseline	0.0		48.0		baseline	0.0	151.44297800910454	0.39998206993277563
257.0	128.80194157876986	pulse	0.0	t			baseline	0.0	151.74307692632783	
257.0	128.90182473147934	ISI	1.0		11.0		baseline	0.0	151.8429600790373	0.09999815869696249
258.0	129.0018228901763	baseline	0.0		48.0		baseline	0.0	151.94295823773427	0.399996257022849
258.0	129.40181914719915	ISI	1.0		11.0		baseline	0.0	152.34295449475712	0.09999815869696249
259.0	129.5018173058961	baseline	0.0		47.0		baseline	0.0	152.44295265345409	0.39998810699216847
259.0	129.50621590759238	pulse	0.0	t			baseline	0.0	152.44735125515035	
259.0	129.90180541288828	ISI	1.0		11.0		baseline	0.0	152.84294076044625	0.09999785684385643
260.0	130.00180326973214	baseline	0.0		48.0		baseline	0.0	152.9429386172901	0.39997422175520114
260.0	130.2019127819949	pulse	0.0	t			baseline	0.0	153.14304812955288	
260.0	130.40177749148734	ISI	1.0		11.0		baseline	0.0	153.3429128390453	0.10000570502143091
261.0	130.50178319650877	baseline	0.0		48.0		baseline	0.0	153.44291854406674	0.39998810699216847
261.0	130.90177130350094	ISI	1.0		11.0		baseline	0.0	153.8429066510589	0.10000359205059794
261.0	130.90652005465972	pulse	1.0	t			baseline	0.0	153.8476554022177	
262.0	131.00177489555153	baseline	0.0		48.0		baseline	0.0	153.9429102431095	0.3999811643739122
262.0	131.40175605992545	ISI	1.0		11.0		baseline	0.0	154.34289140748342	0.10002291064120072
263.0	131.50177897056665	baseline	0.0		48.0		baseline	0.0	154.44291431812462	0.39997241063747424
263.0	131.6019153779307	pulse	0.0	t			baseline	0.0	154.54305072548868	
263.0	131.90175138120412	ISI	1.0		5.0		baseline	0.0	154.8428867287621	0.11664474710914874
264.0	132.01839612831327	body	0.0		46.0	body	body-35.jpg	0.0	154.95953147587124	0.38329714619112565
264.0	132.3018215922084	pulse	0.0	t		body	body-35.jpg	0.0	155.24295693976637	
264.0	132.4016932745044	ISI	1.0		6.0	body	body-35.jpg	0.0	155.34282862206237	0.11670240102921525
265.0	132.5183956755336	body	0.0		46.0	body	body-53.jpg	0.0	155.45953102309159	0.3832932221025658
265.0	132.90168889763618	ISI	1.0		6.0	body	body-53.jpg	0.0	155.84282424519415	0.11669002505686876
266.0	133.01837892269305	body	0.0		45.0	body	body-137.jpg	0.0	155.95951427025102	0.38329593877915613
266.0	133.00887236478593	pulse	0.0	t		body	body-137.jpg	0.0	155.9500077123439	
266.0	133.4016748614722	ISI	1.0		2.0	body	body-137.jpg	0.0	156.34281020903018	0.1166755361136893
267.0	133.5183503975859	body	0.0		46.0	body	body-20.jpg	0.0	156.45948574514387	0.3833191814592283
267.0	133.70177226943042	pulse	0.0	t		body	body-20.jpg	0.0	156.6429076169884	
267.0	133.90166957904512	ISI	1.0		6.0	body	body-20.jpg	0.0	156.8428049266031	0.11667342314285634
268.0	134.01834300218798	body	0.0		46.0	body	body-122.jpg	0.0	156.95947834974595	0.38330952216347214
268.0	134.40165252435145	ISI	1.0		6.0	body	body-122.jpg	0.0	157.34278787190942	0.11668851579179318
268.0	134.44255360380794	pulse	1.0	t		body	body-122.jpg	0.0	157.3836889513659	
269.0	134.51834104014324	body	0.0		46.0	body	body-84.jpg	0.0	157.45947638770122	0.38329352395567184
269.0	134.9016345640989	ISI	1.0		7.0	body	body-84.jpg	0.0	157.8427699116569	0.11669334543967125
270.0	135.01832790953858	body	0.0		46.0	body	body-81.jpg	0.0	157.95946325709656	0.3832536793615873
270.0	135.10177245054228	pulse	0.0	t		body	body-81.jpg	0.0	158.04290779810026	
270.0	135.40158158890017	ISI	1.0		6.0	body	body-81.jpg	0.0	158.34271693645815	0.11667915834914311
271.0	135.51826074724931	body	0.0		46.0	body	body-73.jpg	0.0	158.4593960948073	0.38330771104574524
271.0	135.80169647414596	pulse	0.0	t		body	body-73.jpg	0.0	158.74283182170393	
271.0	135.90156845829506	ISI	1.0		5.0	body	body-73.jpg	0.0	158.84270380585303	0.11669847694065538
272.0	136.01826693523572	body	0.0		46.0	body	body-30.jpg	0.0	158.9594022827937	0.38328658133650606
272.0	136.40155351657222	ISI	1.0		6.0	body	body-30.jpg	0.0	159.3426888641302	0.11669002505686876
273.0	136.5182435416291	body	0.0		45.0	body	body-106.jpg	0.0	159.45937888918706	0.38330589992801833
273.0	136.50867540571335	pulse	0.0	t		body	body-106.jpg	0.0	159.44981075327132	
273.0	136.9015494415571	ISI	1.0		7.0	body	body-106.jpg	0.0	159.84268478911508	0.11666285828823675
274.0	137.01821229984535	body	0.0		46.0	body	body-128.jpg	0.0	159.95934764740332	0.38331495551756234
274.0	137.20164654766222	pulse	0.0	t		body	body-128.jpg	0.0	160.1427818952202	
274.0	137.4015272553629	ISI	1.0		6.0	body	body-128.jpg	0.0	160.34266260292088	0.11668911949755056
275.0	137.51821637486046	body	0.0		46.0	body	body-94.jpg	0.0	160.45935172241843	0.38329805175044385
275.0	137.9015144266109	ISI	1.0		6.0	body	body-94.jpg	0.0	160.84264977416888	0.11669726952823112
275.0	137.9485084085677	pulse	1.0	t		body	body-94.jpg	0.0	160.88964375612568	
276.0	138.01821169613913	house	0.0		46.0	place	house-41.jpg	0.0	160.9593470436971	0.3832895998666572
276.0	138.4015012960058	ISI	1.0		6.0	place	house-41.jpg	0.0	161.34263664356376	0.11668489355633938
277.0	138.51818618956213	house	0.0		46.0	place	house-92.jpg	0.0	161.4593215371201	0.3833098240165782
277.0	138.60166242512923	pulse	0.0	t		place	house-92.jpg	0.0	161.5427977726872	
277.0	138.9014960135787	ISI	1.0		6.0	place	house-92.jpg	0.0	161.84263136113668	0.11668942135111138
278.0	139.01818543492982	house	0.0		46.0	place	house-21.jpg	0.0	161.9593207824878	0.383284166512567
278.0	139.3015945987636	pulse	0.0	t		place	house-21.jpg	0.0	162.24272994632156	
278.0	139.4014696014424	ISI	1.0		6.0	place	house-21.jpg	0.0	162.34260494900036	0.11670240102921525
279.0	139.5181720024716	house	0.0		46.0	place	house-14.jpg	0.0	162.45930735002958	0.38329684433847433
279.0	139.90146884681008	ISI	1.0		6.0	place	house-14.jpg	0.0	162.84260419436805	0.11668670467406628
280.0	140.01815555148414	house	0.0		45.0	place	house-53.jpg	0.0	162.95929089904212	0.3832859776307487
280.0	140.00841475566085	pulse	0.0	t		place	house-53.jpg	0.0	162.94955010321883	
280.0	140.4014415291149	ISI	1.0		6.0	place	house-53.jpg	0.0	163.34257687667287	0.11669304358656518
281.0	140.51813457270146	house	0.0		46.0	place	house-117.jpg	0.0	163.45926992025943	0.38329533507339875
281.0	140.70157334831356	pulse	0.0	t		place	house-117.jpg	0.0	163.64270869587153	
281.0	140.90142990777485	ISI	1.0		6.0	place	house-117.jpg	0.0	163.84256525533283	0.11670360844118477
282.0	141.01813351621604	house	0.0		46.0	place	house-107.jpg	0.0	163.959268863774	0.3833282370487723
282.0	141.4014617532648	ISI	1.0		7.0	place	house-107.jpg	0.0	164.3425971008228	0.11669334543967125
282.0	141.44024986182694	pulse	1.0	t		place	house-107.jpg	0.0	164.38138520938492	
283.0	141.51815509870448	house	0.0		46.0	place	house-25.jpg	0.0	164.45929044626246	0.3832853739249913
283.0	141.90144047262947	ISI	1.0		7.0	place	house-25.jpg	0.0	164.84257582018745	0.11670028805838228
284.0	142.01814076068786	house	0.0		46.0	place	house-25.jpg	1.0	164.95927610824583	0.3832877887489303
284.0	142.10154243856778	pulse	0.0	t		place	house-25.jpg	1.0	165.04267778612575	
284.0	142.4014285494368	ISI	1.0		5.0	place	house-25.jpg	1.0	165.34256389699476	0.11669666582247373
285.0	142.51812521525926	house	0.0		46.0	place	house-60.jpg	0.0	165.45926056281724	0.3832600182740862
285.0	142.6098673929655	response	0.0	b		place	house-60.jpg	0.0	165.55100274052347	
285.0	142.80149000670417	pulse	0.0	t		place	house-60.jpg	0.0	165.74262535426215	
285.0	142.90138523353335	ISI	1.0		7.0	place	house-60.jpg	0.0	165.84252058109132	0.11670994735368367
286.0	143.01809518088703	house	0.0		46.0	place	house-62.jpg	0.0	165.959230528445	0.38329986286817075
286.0	143.4013950437552	ISI	1.0		6.0	place	house-62.jpg	0.0	166.34253039131318	0.11671507885466781
287.0	143.51811012260987	house	0.0		45.0	place	house-38.jpg	0.0	166.45924547016784	0.38328175168908274
287.0	143.5082829968328	pulse	0.0	t		place	house-38.jpg	0.0	166.44941834439078	
287.0	143.90139187429895	ISI	1.0		11.0	place	house-38.jpg	0.0	166.84252722185693	0.10002592917135189
288.0	144.0014178034703	baseline	0.0		48.0		baseline	0.0	166.94255315102828	0.399987201433305
288.0	144.20153667317572	pulse	0.0	t			baseline	0.0	167.1426720207337	
288.0	144.4014050049036	ISI	1.0		11.0		baseline	0.0	167.34254035246158	0.09999815869696249
289.0	144.50140316360057	baseline	0.0		48.0		baseline	0.0	167.44253851115855	0.3999902199634562
289.0	144.90139338356403	ISI	1.0		11.0		baseline	0.0	167.842528731122	0.09999846054961381
289.0	144.90613428654524	pulse	1.0	t			baseline	0.0	167.8472696341032	
290.0	145.00139184411364	baseline	0.0		48.0		baseline	0.0	167.94252719167162	0.3999853903155781
290.0	145.40137723442922	ISI	1.0		11.0		baseline	0.0	168.3425125819872	0.10001144022817243
291.0	145.5013886746574	baseline	0.0		48.0		baseline	0.0	168.44252402221537	0.3999784476968671
291.0	145.6014903689279	pulse	0.0	t			baseline	0.0	168.54262571648587	
291.0	145.90136712235426	ISI	1.0		11.0		baseline	0.0	168.84250246991223	0.09999966796158333
292.0	146.00136679031584	baseline	0.0		48.0		baseline	0.0	168.94250213787382	0.3999947477582282
292.0	146.30148291315936	pulse	0.0	t			baseline	0.0	169.24261826071734	
292.0	146.40136153807407	ISI	1.0		11.0		baseline	0.0	169.34249688563204	0.10001476061097492
293.0	146.50137629868505	baseline	0.0		48.0		baseline	0.0	169.44251164624302	0.39997452360785246
293.0	146.9013508222929	ISI	1.0		11.0		baseline	0.0	169.84248616985087	0.09998789569544897
294.0	147.00133871798835	baseline	0.0		47.0		baseline	0.0	169.94247406554632	0.3999959551701977
294.0	147.0057617697762	pulse	0.0	t			baseline	0.0	169.94689711733417	
294.0	147.40133467315854	ISI	1.0		11.0		baseline	0.0	170.34247002071652	0.0999894049600698
295.0	147.5013240781186	baseline	0.0		48.0		baseline	0.0	170.4424594256766	0.40000018111186364
295.0	147.70143540149957	pulse	0.0	t			baseline	0.0	170.64257074905754	
295.0	147.90132425923048	ISI	1.0		11.0		baseline	0.0	170.84245960678845	0.09998608457726732
296.0	148.00131034380775	baseline	0.0		48.0		baseline	0.0	170.94244569136572	0.399998369993682
296.0	148.40130871380143	ISI	1.0		11.0		baseline	0.0	171.3424440613594	0.09999695128499297
296.0	148.4060508241946	pulse	1.0	t			baseline	0.0	171.34718617175258	
297.0	148.50130566508642	baseline	0.0		48.0		baseline	0.0	171.4424410126444	0.39998931440459273
297.0	148.901294979491	ISI	1.0		11.0		baseline	0.0	171.842430327049	0.09998970681317587
298.0	149.0012846863042	baseline	0.0		48.0		baseline	0.0	171.94242003386216	0.3999832773442904
298.0	149.10141384919643	pulse	0.0	t			baseline	0.0	172.0425491967544	
298.0	149.40126796364848	ISI	1.0		11.0		baseline	0.0	172.34240331120645	0.10001023281620292
299.0	149.50127819646468	baseline	0.0		48.0		baseline	0.0	172.44241354402266	0.39999233293428915
299.0	149.80138284889472	pulse	0.0	t			baseline	0.0	172.7425181964527	
299.0	149.90127052939897	ISI	1.0		4.0		baseline	0.0	172.84240587695695	0.11665380269869274
300.0	150.01792433209766	house	0.0		46.0	place	house-80.jpg	0.0	172.95905967965564	0.38328114798332535
300.0	150.401205480081	ISI	1.0		3.0	place	house-80.jpg	0.0	173.34234082763896	0.1167033065880787
301.0	150.51790878666907	house	0.0		45.0	place	house-114.jpg	0.0	173.45904413422704	0.3832956369265048
301.0	150.5093678564608	pulse	0.0	t		place	house-114.jpg	0.0	173.4505032040188	
301.0	150.90120442359557	ISI	1.0		6.0	place	house-114.jpg	0.0	173.84233977115355	0.11669274173345912
302.0	151.01789716532903	house	0.0		46.0	place	house-6.jpg	0.0	173.959032512887	0.3832868831896121
302.0	151.20131330196682	pulse	0.0	t		place	house-6.jpg	0.0	174.1424486495248	
302.0	151.40118404851864	ISI	1.0		6.0	place	house-6.jpg	0.0	174.34231939607662	0.1167042121473969
303.0	151.51788826066604	house	0.0		46.0	place	house-34.jpg	0.0	174.45902360822402	0.3832823553948401
303.0	151.90117061606088	ISI	1.0		7.0	place	house-34.jpg	0.0	174.84230596361886	0.11670058991148835
303.0	151.93684662034866	pulse	1.0	t		place	house-34.jpg	0.0	174.87798196790663	
304.0	152.01787120597237	house	0.0		46.0	place	house-27.jpg	0.0	174.95900655353034	0.3832820535421888
304.0	152.40115325951456	ISI	1.0		5.0	place	house-27.jpg	0.0	175.34228860707253	0.11670481585269954
305.0	152.51785807536726	house	0.0		46.0	place	house-100.jpg	0.0	175.45899342292523	0.3832847702192339
305.0	152.60126790327786	pulse	0.0	t		place	house-100.jpg	0.0	175.54240325083583	
305.0	152.9011428455865	ISI	1.0		6.0	place	house-100.jpg	0.0	175.84227819314447	0.11670481585315429
306.0	153.01784766143965	house	0.0		46.0	place	house-113.jpg	0.0	175.95898300899762	0.38328205354173406
306.0	153.30124958080205	pulse	0.0	t		place	house-113.jpg	0.0	176.24238492836002	
306.0	153.40112971498138	ISI	1.0		7.0	place	house-113.jpg	0.0	176.34226506253935	0.11670089176459442
307.0	153.51783060674597	house	0.0		46.0	place	house-66.jpg	0.0	176.45896595430395	0.3832856757776426
307.0	153.90111628252362	ISI	1.0		7.0	place	house-66.jpg	0.0	176.8422516300816	0.11666889534808433
308.0	154.0177851778717	house	0.0		45.0	place	house-111.jpg	0.0	176.95892052542968	0.38331676663528924
308.0	154.0098361813666	pulse	0.0	t		place	house-111.jpg	0.0	176.95097152892458	
308.0	154.401101944507	ISI	1.0		6.0	place	house-111.jpg	0.0	177.34223729206497	0.11669183617459566
309.0	154.5177937806816	house	0.0		46.0	place	house-61.jpg	0.0	177.45892912823956	0.38329473136764136
309.0	154.70122531182187	pulse	0.0	t		place	house-61.jpg	0.0	177.64236065937985	
309.0	154.90108851204923	ISI	1.0		7.0	place	house-61.jpg	0.0	177.8422238596072	0.1167033065880787
310.0	155.0177918186373	house	0.0		46.0	place	house-79.jpg	0.0	177.95892716619528	0.3832932221025658
310.0	155.40108504073987	ISI	1.0		7.0	place	house-79.jpg	0.0	178.34222038829785	0.11669364729277731
310.0	155.43768712998508	pulse	1.0	t		place	house-79.jpg	0.0	178.37882247754305	
311.0	155.51777868803265	house	0.0		46.0	place	house-40.jpg	0.0	178.45891403559062	0.3832826572479462
311.0	155.9010613452806	ISI	1.0		5.0	place	house-40.jpg	0.0	178.84219669283857	0.11670270288186657
312.0	156.01776404816246	body	0.0		46.0	body	body-120.jpg	0.0	178.95889939572044	0.38328567577809736
312.0	156.10117719645632	pulse	0.0	t		body	body-120.jpg	0.0	179.0423125440143	
312.0	156.40104972394056	ISI	1.0		6.0	body	body-120.jpg	0.0	179.34218507149853	0.11670391029429084
313.0	156.51775363423485	body	0.0		46.0	body	body-49.jpg	0.0	179.45888898179282	0.3832787331589316
313.0	156.80118875742528	pulse	0.0	t		body	body-49.jpg	0.0	179.74232410498325	
313.0	156.90103236739378	ISI	1.0		5.0	body	body-49.jpg	0.0	179.84216771495176	0.11670511770626035
314.0	157.01773748510004	body	0.0		46.0	body	body-8.jpg	0.0	179.95887283265802	0.38328809060158164
314.0	157.40102557570162	ISI	1.0		5.0	body	body-8.jpg	0.0	180.3421609232596	0.11669636396982241
315.0	157.51772193967145	body	0.0		45.0	body	body-7.jpg	0.0	180.45885728722942	0.3832856757776426
315.0	157.50782387844265	pulse	0.0	t		body	body-7.jpg	0.0	180.44895922600062	
315.0	157.9010076154491	ISI	1.0		2.0	body	body-7.jpg	0.0	180.84214296300706	0.11670119361724574
316.0	158.01770880906633	body	0.0		46.0	body	body-117.jpg	0.0	180.9588441566243	0.38329412766142923
316.0	158.2011164938208	pulse	0.0	t		body	body-117.jpg	0.0	181.14225184137877	
316.0	158.40100293672776	ISI	1.0		7.0	body	body-117.jpg	0.0	181.34213828428574	0.11669334543967125
317.0	158.51769628216744	body	0.0		46.0	body	body-67.jpg	0.0	181.4588316297254	0.3832950332207474
317.0	158.90099131538818	ISI	1.0		7.0	body	body-67.jpg	0.0	181.84212666294616	0.11669576026315553
317.0	158.93779685354502	pulse	1.0	t		body	body-67.jpg	0.0	181.878932201103	
318.0	159.01768707565134	body	0.0		46.0	body	body-67.jpg	1.0	181.9588224232093	0.38328235539529487
318.0	159.40096943104663	ISI	1.0		6.0	body	body-67.jpg	1.0	182.3421047786046	0.11669938249951883
319.0	159.51766881354615	body	0.0		46.0	body	body-3.jpg	0.0	182.45880416110413	0.3832732998052961
319.0	159.60109343225258	pulse	0.0	t		body	body-3.jpg	0.0	182.54222877981056	
319.0	159.68443172100615	response	0.0	b		body	body-3.jpg	0.0	182.62556706856412	
319.0	159.90094211335145	ISI	1.0		4.0	body	body-3.jpg	0.0	182.84207746090942	0.11671809738436423
320.0	160.0176602107358	body	0.0		46.0	body	body-136.jpg	0.0	182.9587955582938	0.3832690738636302
320.0	160.30103647259466	pulse	0.0	t		body	body-136.jpg	0.0	183.24217182015263	
320.0	160.40092928459944	ISI	1.0		7.0	body	body-136.jpg	0.0	183.34206463215742	0.1166782527907344
321.0	160.51760753739018	body	0.0		46.0	body	body-34.jpg	0.0	183.45874288494815	0.3832895998666572
321.0	160.90089713725683	ISI	1.0		7.0	body	body-34.jpg	0.0	183.8420324848148	0.11669455285164076
322.0	161.01759169010847	body	0.0		45.0	body	body-69.jpg	0.0	183.95872703766645	0.38330167398589765
322.0	161.0075725858328	pulse	0.0	t		body	body-69.jpg	0.0	183.94870793339078	
322.0	161.40089336409437	ISI	1.0		6.0	body	body-69.jpg	0.0	184.34202871165235	0.11669093061573221
323.0	161.5175842947101	body	0.0		46.0	body	body-90.jpg	0.0	184.45871964226808	0.3832859776307487
323.0	161.70098926278752	pulse	0.0	t		body	body-90.jpg	0.0	184.6421246103455	
323.0	161.90087027234085	ISI	1.0		7.0	body	body-90.jpg	0.0	184.84200561989883	0.11669877879376145
324.0	162.01756905113461	body	0.0		46.0	body	body-121.jpg	0.0	184.9587043986926	0.38328929801355116
324.0	162.40085834914817	ISI	1.0		7.0	body	body-121.jpg	0.0	185.34199369670614	0.1166755361136893
324.0	162.43838984373406	pulse	1.0	t		body	body-121.jpg	0.0	185.37952519129203	
325.0	162.51753388526186	body	0.0		46.0	body	body-37.jpg	0.0	185.45866923281983	0.38330771104574524
325.0	162.9008415963076	ISI	1.0		7.0	body	body-37.jpg	0.0	185.84197694386557	0.11669908064641277
326.0	163.017540676954	body	0.0		46.0	body	body-37.jpg	1.0	185.958676024512	0.38328748689582426
326.0	163.10095412710007	pulse	0.0	t		body	body-37.jpg	1.0	186.04208947465804	
326.0	163.40082816384984	ISI	1.0		5.0	body	body-37.jpg	1.0	186.3419635114078	0.11669938249906409
327.0	163.5175275463489	body	0.0		46.0	body	body-111.jpg	0.0	186.45866289390688	0.3832956369265048
327.0	163.6426033491798	response	0.0	b		body	body-111.jpg	0.0	186.58373869673778	
327.0	163.80090411006086	pulse	0.0	t		body	body-111.jpg	0.0	186.74203945761883	
327.0	163.9008231832754	ISI	1.0		7.0	body	body-111.jpg	0.0	186.84195853083338	0.11668881764489925
328.0	164.0175120009203	body	0.0		46.0	body	body-134.jpg	0.0	186.95864734847828	0.3832905054255207
328.0	164.40080250634583	ISI	1.0		7.0	body	body-134.jpg	0.0	187.3419378539038	0.11669304358656518
329.0	164.5174955499324	body	0.0		45.0	body	body-126.jpg	0.0	187.45863089749037	0.3832926183968084
329.0	164.5074553159484	pulse	0.0	t		body	body-126.jpg	0.0	187.44859066350637	
329.0	164.9007881683292	ISI	1.0		7.0	body	body-126.jpg	0.0	187.84192351588717	0.1166987787933067
330.0	165.0174869471225	body	0.0		46.0	body	body-85.jpg	0.0	187.95862229468048	0.3832974480442317
330.0	165.20089493373007	pulse	0.0	t		body	body-85.jpg	0.0	188.14203028128804	
330.0	165.40078439516674	ISI	1.0		7.0	body	body-85.jpg	0.0	188.3419197427247	0.11669002505686876
331.0	165.5174744202236	body	0.0		46.0	body	body-76.jpg	0.0	188.45860976778158	0.3833092203108208
331.0	165.90078364053443	ISI	1.0		4.0	body	body-76.jpg	0.0	188.8419189880924	0.11667764908452227
331.0	165.96303900755584	pulse	1.0	t		body	body-76.jpg	0.0	188.9041743551138	
332.0	166.01746128961895	body	0.0		46.0	body	body-65.jpg	0.0	188.95859663717692	0.3833191814592283
332.0	166.40078047107818	ISI	1.0		6.0	body	body-65.jpg	0.0	189.34191581863615	0.11670451400004822
333.0	166.51748498507823	body	0.0		46.0	body	body-31.jpg	0.0	189.4586203326362	0.3832929202494597
333.0	166.6008893796352	pulse	0.0	t		body	body-31.jpg	0.0	189.54202472719317	
333.0	166.9007779053277	ISI	1.0		7.0	body	body-31.jpg	0.0	189.84191325288566	0.11669062876262615
334.0	167.0174685340903	body	0.0		46.0	body	body-74.jpg	0.0	189.9586038816483	0.3832527738027238
334.0	167.30085173856787	pulse	0.0	t		body	body-74.jpg	0.0	190.24198708612585	
334.0	167.40072130789304	ISI	1.0		7.0	body	body-74.jpg	0.0	190.341856655451	0.11669817508754932
335.0	167.51741948298059	body	0.0		46.0	body	body-38.jpg	0.0	190.45855483053856	0.3833116351343051
335.0	167.9007311181149	ISI	1.0		11.0	body	body-38.jpg	0.0	190.84186646567287	0.09999453646105394
336.0	168.00072565457594	baseline	0.0		47.0		baseline	0.0	190.94186100213392	0.400005312612393
336.0	168.00537147386694	pulse	0.0	t			baseline	0.0	190.94650682142492	
336.0	168.40073096718834	ISI	1.0		11.0		baseline	0.0	191.3418663147463	0.09999151793135752
337.0	168.5007224851197	baseline	0.0		48.0		baseline	0.0	191.44185783267767	0.39998961625724405
337.0	168.7008878401848	pulse	0.0	t			baseline	0.0	191.64202318774278	
337.0	168.90071210137694	ISI	1.0		11.0		baseline	0.0	191.8418474489349	0.09998336790067697
338.0	169.00069546927762	baseline	0.0		48.0		baseline	0.0	191.9418308168356	0.3999742217547464
338.0	169.40066969103236	ISI	1.0		11.0		baseline	0.0	192.34180503859034	0.10002200508279202
338.0	169.4054842461419	pulse	1.0	t			baseline	0.0	192.34661959369987	
339.0	169.50069169611515	baseline	0.0		48.0		baseline	0.0	192.44182704367313	0.39996244948861204
339.0	169.90065414560377	ISI	1.0		11.0		baseline	0.0	192.84178949316174	0.09999815869696249
340.0	170.00065230430073	baseline	0.0		48.0		baseline	0.0	192.9417876518587	0.39999595516974296
340.0	170.10076637454358	pulse	0.0	t			baseline	0.0	193.04190172210156	
340.0	170.40064825947047	ISI	1.0		11.0		baseline	0.0	193.34178360702845	0.09999121607825145
341.0	170.50063947554872	baseline	0.0		48.0		baseline	0.0	193.4417748231067	0.3999868995806537
341.0	170.80078548183747	pulse	0.0	t			baseline	0.0	193.74192082939544	
341.0	170.90062637512938	ISI	1.0		11.0		baseline	0.0	193.84176172268735	0.10000238463862843
342.0	171.000628759768	baseline	0.0		48.0		baseline	0.0	193.94176410732598	0.3999977662879246
342.0	171.40062652605593	ISI	1.0		11.0		baseline	0.0	194.3417618736139	0.09998970681317587
343.0	171.5006162328691	baseline	0.0		47.0		baseline	0.0	194.44175158042708	0.39999293664004654
343.0	171.50508999595831	pulse	0.0	t			baseline	0.0	194.4462253435163	
343.0	171.90060916950915	ISI	1.0		11.0		baseline	0.0	194.84174451706713	0.09999785684385643
344.0	172.000607026353	baseline	0.0		48.0		baseline	0.0	194.94174237391098	0.39997874954997314
344.0	172.20077268327123	pulse	0.0	t			baseline	0.0	195.1419080308292	
344.0	172.40058577590298	ISI	1.0		11.0		baseline	0.0	195.34172112346096	0.09999574387256871
345.0	172.50058151977555	baseline	0.0		48.0		baseline	0.0	195.44171686733353	0.4000004829649697
345.0	172.90058200274052	ISI	1.0		11.0		baseline	0.0	195.8417173502985	0.0999848771652978
345.0	172.90537965408294	pulse	1.0	t			baseline	0.0	195.8465150016409	
346.0	173.00056687990582	baseline	0.0		48.0		baseline	0.0	195.9417022274638	0.40005783503193015
346.0	173.40062471493775	ISI	1.0		11.0		baseline	0.0	196.34176006249572	0.09999695128499297
347.0	173.50062166622274	baseline	0.0		48.0		baseline	0.0	196.44175701378072	0.39999384219891
347.0	173.60073422720052	pulse	0.0	t			baseline	0.0	196.5418695747585	
347.0	173.90061550842165	ISI	1.0		5.0		baseline	0.0	196.84175085597963	0.11666497125906972
348.0	174.01728047968072	adult	0.0		46.0	face	adult-83.jpg	0.0	196.9584158272387	0.3832926183968084
348.0	174.30070171763418	pulse	0.0	t		face	adult-83.jpg	0.0	197.24183706519216	
348.0	174.40057309807753	ISI	1.0		6.0	face	adult-83.jpg	0.0	197.3417084456355	0.11669334543967125
349.0	174.5172664435172	adult	0.0		46.0	face	adult-77.jpg	0.0	197.45840179107518	0.3832844683656731
349.0	174.90055091188287	ISI	1.0		7.0	face	adult-77.jpg	0.0	197.84168625944085	0.11669726952868587
350.0	175.01724818141156	adult	0.0		45.0	face	adult-90.jpg	0.0	197.95838352896953	0.3832923165432476
350.0	175.00723119010672	pulse	0.0	t		face	adult-90.jpg	0.0	197.9483665376647	
350.0	175.4005404979548	ISI	1.0		3.0	face	adult-90.jpg	0.0	198.34167584551278	0.1167014954703518
351.0	175.51724199342516	adult	0.0		46.0	face	adult-124.jpg	0.0	198.45837734098313	0.3832835628072644
351.0	175.7006478670619	pulse	0.0	t		face	adult-124.jpg	0.0	198.64178321461986	
351.0	175.90052555623242	ISI	1.0		4.0	face	adult-124.jpg	0.0	198.8416609037904	0.1167005899110336
352.0	176.01722614614346	adult	0.0		46.0	face	adult-105.jpg	0.0	198.95836149370143	0.3832859776312034
352.0	176.40051212377466	ISI	1.0		4.0	face	adult-105.jpg	0.0	199.34164747133264	0.11668761023292973
352.0	176.46068319593496	pulse	1.0	t		face	adult-105.jpg	0.0	199.40181854349294	
353.0	176.5171997340076	adult	0.0		46.0	face	adult-73.jpg	0.0	199.45833508156556	0.38329080727862674
353.0	176.90049054128622	ISI	1.0		7.0	face	adult-73.jpg	0.0	199.8416258888442	0.1166960621162616
354.0	177.01718660340248	adult	0.0		46.0	face	adult-111.jpg	0.0	199.95832195096045	0.3833092203108208
354.0	177.1006130332271	pulse	0.0	t		face	adult-111.jpg	0.0	200.04174838078507	
354.0	177.4004958237133	ISI	1.0		7.0	face	adult-111.jpg	0.0	200.34163117127127	0.11669455285164076
355.0	177.51719037656494	adult	0.0		46.0	face	adult-138.jpg	0.0	200.45832572412291	0.3832883924546877
355.0	177.80059440889818	pulse	0.0	t		face	adult-138.jpg	0.0	200.74172975645615	
355.0	177.90047876901963	ISI	1.0		6.0	face	adult-138.jpg	0.0	200.8416141165776	0.11669455285164076
356.0	178.01717332187127	adult	0.0		46.0	face	adult-28.jpg	0.0	200.95830866942924	0.3832841665130218
356.0	178.4004574883843	ISI	1.0		6.0	face	adult-28.jpg	0.0	201.34159283594227	0.11669968435217015
357.0	178.51715717273646	adult	0.0		45.0	face	adult-4.jpg	0.0	201.45829252029444	0.38328748689582426
357.0	178.5071917982923	pulse	0.0	t		face	adult-4.jpg	0.0	201.44832714585027	
357.0	178.90044465963229	ISI	1.0		6.0	face	adult-4.jpg	0.0	201.84158000719026	0.11670209917610919
358.0	179.0171467588084	adult	0.0		46.0	face	adult-23.jpg	0.0	201.95828210636637	0.38328114798332535
358.0	179.2006208512198	pulse	0.0	t		face	adult-23.jpg	0.0	202.14175619877778	
358.0	179.40042790679172	ISI	1.0		7.0	face	adult-23.jpg	0.0	202.3415632543497	0.11670391029383609
359.0	179.51713181708556	adult	0.0		46.0	face	adult-132.jpg	0.0	202.45826716464353	0.3832989573093073
359.0	179.90043077439486	ISI	1.0		5.0	face	adult-132.jpg	0.0	202.84156612195284	0.11669002505686876
359.0	179.9493982711674	pulse	1.0	t		face	adult-132.jpg	0.0	202.89053361872539	
360.0	180.01712079945173	house	0.0		46.0	place	house-37.jpg	0.0	202.9582561470097	0.38328627948385474
360.0	180.4004070789356	ISI	1.0		7.0	place	house-37.jpg	0.0	203.34154242649356	0.11667946020224917
361.0	180.51708653913784	house	0.0		46.0	place	house-44.jpg	0.0	203.4582218866958	0.3833137481055928
361.0	180.6005446635263	pulse	0.0	t		place	house-44.jpg	0.0	203.54168001108428	
361.0	180.90040028724343	ISI	1.0		4.0	place	house-44.jpg	0.0	203.8415356348014	0.11669213802770173
362.0	181.01709242527113	house	0.0		46.0	place	house-73.jpg	0.0	203.9582277728291	0.38327994057135584
362.0	181.300510946548	pulse	0.0	t		place	house-73.jpg	0.0	204.24164629410598	
362.0	181.4003723658425	ISI	1.0		6.0	place	house-73.jpg	0.0	204.34150771340046	0.11671960664943981
363.0	181.51709197249193	house	0.0		46.0	place	house-106.jpg	0.0	204.4582273200499	0.3832811479828706
363.0	181.9003731204748	ISI	1.0		5.0	place	house-106.jpg	0.0	204.84150846803277	0.11668911949800531
364.0	182.0170622399728	house	0.0		45.0	place	house-75.jpg	0.0	204.95819758753078	0.38329593877915613
364.0	182.00693929827048	pulse	0.0	t		place	house-75.jpg	0.0	204.94807464582846	
364.0	182.40035817875196	ISI	1.0		7.0	place	house-75.jpg	0.0	205.34149352630993	0.11669334543967125
365.0	182.51705152419163	house	0.0		46.0	place	house-78.jpg	0.0	205.4581868717496	0.3832527738027238
365.0	182.7004226847348	pulse	0.0	t		place	house-78.jpg	0.0	205.64155803229278	
365.0	182.90030429799435	ISI	1.0		6.0	place	house-78.jpg	0.0	205.84143964555233	0.11669998620527622
366.0	183.01700428419963	house	0.0		46.0	place	house-42.jpg	0.0	205.9581396317576	0.3832959387796109
366.0	183.40030022297924	ISI	1.0		7.0	place	house-42.jpg	0.0	206.34143557053721	0.11668942135065663
366.0	183.43641451780059	pulse	1.0	t		place	house-42.jpg	0.0	206.37754986535856	
367.0	183.5169896443299	house	0.0		46.0	place	house-141.jpg	0.0	206.45812499188787	0.38329684433847433
367.0	183.90028648866837	ISI	1.0		6.0	place	house-141.jpg	0.0	206.84142183622635	0.1166897232037627
368.0	184.01697621187213	house	0.0		46.0	place	house-57.jpg	0.0	206.9581115594301	0.3832977498973378
368.0	184.10045818264598	pulse	0.0	t		place	house-57.jpg	0.0	207.04159353020395	
368.0	184.40027396176947	ISI	1.0		7.0	place	house-57.jpg	0.0	207.34140930932745	0.11669062876262615
369.0	184.5169645905321	house	0.0		46.0	place	house-72.jpg	0.0	207.45809993809007	0.38329020357286936
369.0	184.80043442681608	pulse	0.0	t		place	house-72.jpg	0.0	207.74156977437406	
369.0	184.90025479410497	ISI	1.0		7.0	place	house-72.jpg	0.0	207.84139014166294	0.11669696767512505
370.0	185.0169517617801	house	0.0		46.0	place	house-28.jpg	0.0	207.95808710933807	0.3833004665743829
370.0	185.40025222835447	ISI	1.0		5.0	place	house-28.jpg	0.0	208.34138757591245	0.11667976205535524
371.0	185.51693199040983	house	0.0		45.0	place	house-19.jpg	0.0	208.4580673379678	0.3832992591619586
371.0	185.50693914734393	pulse	0.0	t		place	house-19.jpg	0.0	208.4480744949019	
371.0	185.9002312495718	ISI	1.0		4.0	place	house-19.jpg	0.0	208.84136659712976	0.11669334543967125
372.0	186.01692459501146	house	0.0		46.0	place	house-64.jpg	0.0	208.95805994256943	0.3832944295145353
372.0	186.20037393547773	pulse	0.0	t		place	house-64.jpg	0.0	209.1415092830357	
372.0	186.400219024526	ISI	1.0		6.0	place	house-64.jpg	0.0	209.34135437208397	0.11667221573088682
373.0	186.51689124025688	house	0.0		46.0	place	house-139.jpg	0.0	209.45802658781486	0.3833071073395331
373.0	186.90019834759642	ISI	1.0		7.0	place	house-139.jpg	0.0	209.8413336951544	0.11669757138179193
373.0	186.93755959709915	pulse	1.0	t		place	house-139.jpg	0.0	209.87869494465713	
374.0	187.0168959189782	house	0.0		46.0	place	house-85.jpg	0.0	209.95803126653618	0.38330107028014027
374.0	187.40019698925835	ISI	1.0		7.0	place	house-85.jpg	0.0	210.34133233681632	0.11670541955891167
375.0	187.51690240881726	house	0.0		46.0	place	house-85.jpg	1.0	210.45803775637523	0.3832760164823412
375.0	187.60029774778468	pulse	0.0	t		place	house-85.jpg	1.0	210.54143309534265	
375.0	187.9001784252996	ISI	1.0		5.0	place	house-85.jpg	1.0	210.84131377285757	0.1166619527293733
375.0	187.95474046529444	response	1.0	b		place	house-85.jpg	1.0	210.8958758128524	
376.0	188.01684037802897	house	0.0		46.0	place	house-88.jpg	0.0	210.95797572558695	0.38332431295975766
376.0	188.30026403080592	pulse	0.0	t		place	house-88.jpg	0.0	211.2413993783639	
376.0	188.40016469098873	ISI	1.0		6.0	place	house-88.jpg	0.0	211.3413000385467	0.11668338429126379
377.0	188.51684807528	house	0.0		46.0	place	house-130.jpg	0.0	211.45798342283797	0.38333548152013464
377.0	188.90018355680013	ISI	1.0		6.0	place	house-130.jpg	0.0	211.8413189043581	0.11667915834959786
378.0	189.01686271514973	house	0.0		45.0	place	house-136.jpg	0.0	211.9579980627077	0.3832911091317328
378.0	189.00698548177706	pulse	0.0	t		place	house-136.jpg	0.0	211.94812082933504	
378.0	189.40015382428146	ISI	1.0		5.0	place	house-136.jpg	0.0	212.34128917183943	0.11670964550057761
379.0	189.51686346978204	house	0.0		46.0	place	house-109.jpg	0.0	212.45799881734	0.3832923165437023
379.0	189.70026994712453	pulse	0.0	t		place	house-109.jpg	0.0	212.6414052946825	
379.0	189.90015578632574	ISI	1.0		7.0	place	house-109.jpg	0.0	212.84129113388371	0.11669485470474683
380.0	190.0168506410305	house	0.0		46.0	place	house-121.jpg	0.0	212.95798598858846	0.38329382580832316
380.0	190.4001444668388	ISI	1.0		7.0	place	house-121.jpg	0.0	213.34127981439678	0.11669304358656518
380.0	190.44054447034023	pulse	1.0	t		place	house-121.jpg	0.0	213.3816798178982	
381.0	190.51683751042538	house	0.0		46.0	place	house-122.jpg	0.0	213.45797285798335	0.3832932221025658
381.0	190.90013073252794	ISI	1.0		6.0	place	house-122.jpg	0.0	213.84126608008592	0.11671085291300187
382.0	191.01684158544094	house	0.0		46.0	place	house-127.jpg	0.0	213.95797693299892	0.38327420536415957
382.0	191.10024084849692	pulse	0.0	t		place	house-127.jpg	0.0	214.0413761960549	
382.0	191.4001157908051	ISI	1.0		7.0	place	house-127.jpg	0.0	214.34125113836308	0.11669636396982241
383.0	191.51681215477493	house	0.0		46.0	place	house-93.jpg	0.0	214.4579475023329	0.38330348510362455
383.0	191.8002279593743	pulse	0.0	t		place	house-93.jpg	0.0	214.74136330693227	
383.0	191.90011563987855	ISI	1.0		6.0	place	house-93.jpg	0.0	214.84125098743652	0.11665983975854033
384.0	192.0167754796371	adult	0.0		46.0	face	adult-140.jpg	0.0	214.95791082719506	0.38328024242400716
384.0	192.4000557220611	ISI	1.0		3.0	face	adult-140.jpg	0.0	215.34119106961907	0.11668821393914186
385.0	192.51674393600024	adult	0.0		45.0	face	adult-126.jpg	0.0	215.4578792835582	0.38329412766142923
385.0	192.50675139478744	pulse	0.0	t		face	adult-126.jpg	0.0	215.44788674234542	
385.0	192.90003806366167	ISI	1.0		6.0	face	adult-126.jpg	0.0	215.84117341121964	0.1166969676755798
386.0	193.01673503133725	adult	0.0		46.0	face	adult-114.jpg	0.0	215.95787037889522	0.3832889961604451
386.0	193.20014965870996	pulse	0.0	t		face	adult-114.jpg	0.0	216.14128500626794	
386.0	193.4000240274977	ISI	1.0		7.0	face	adult-114.jpg	0.0	216.34115937505567	0.11669817508754932
387.0	193.51672220258524	adult	0.0		46.0	face	adult-120.jpg	0.0	216.45785755014322	0.38328295910105226
387.0	193.9000051616863	ISI	1.0		6.0	face	adult-120.jpg	0.0	216.84114050924427	0.11670360844118477
387.0	193.94705377903347	pulse	1.0	t		face	adult-120.jpg	0.0	216.88818912659144	
388.0	194.01670877012748	adult	0.0		46.0	face	adult-123.jpg	0.0	216.95784411768545	0.38329593877915613
388.0	194.40000470890664	ISI	1.0		6.0	face	adult-123.jpg	0.0	217.3411400564646	0.11669364729277731
389.0	194.5166983561994	adult	0.0		46.0	face	adult-116.jpg	0.0	217.4578337037574	0.3832805442771132
389.0	194.6001223712001	pulse	0.0	t		face	adult-116.jpg	0.0	217.54125771875806	
389.0	194.89997890047653	ISI	1.0		6.0	face	adult-116.jpg	0.0	217.8411142480345	0.11670270288232132
390.0	195.01668160335885	adult	0.0		46.0	face	adult-69.jpg	0.0	217.95781695091682	0.38330589992801833
390.0	195.3000986153702	pulse	0.0	t		face	adult-69.jpg	0.0	218.24123396292816	
390.0	195.39998750328687	ISI	1.0		3.0	face	adult-69.jpg	0.0	218.34112285084484	0.11668066761421869
391.0	195.51666817090108	adult	0.0		46.0	face	adult-62.jpg	0.0	218.45780351845906	0.3832868831896121
391.0	195.8999550540907	ISI	1.0		4.0	face	adult-62.jpg	0.0	218.84109040164867	0.11669576026361028
392.0	196.0166508143543	adult	0.0		45.0	face	adult-101.jpg	0.0	218.95778616191228	0.38329141098438413
392.0	196.00660243033917	pulse	0.0	t		face	adult-101.jpg	0.0	218.94773777789715	
