trial_nr	onset	event_type	phase	response	nr_frames	rating_type	face_id	repetition	session	rating	onset_abs	duration
0.0	0.011212430660179962	cue	0.0		479						1914.4880164789076	3.992136356680021
0.0	4.003348787340201	fix	1.0		120						1918.4801528355877	1.0251370349496938
0.0	5.028485822289895	face	0.0		146	attractiveness	027	1.0	1		1919.5052898705374	1.2753811607622083
0.0	6.303866983052103	rating	1.0		838	attractiveness	027	1.0	1		1920.7806710312996	6.992246534016886
0.0	13.296113517068989	fix	2.0		59	attractiveness	027	1.0	1	0.5999999999999996	1927.7729175653164	0.5167458987621103
1.0	13.812859415831099	face	0.0		147	attractiveness	070	1.0	1		1928.2896634640786	1.2334567218890697
1.0	15.046316137720169	rating	1.0		183	attractiveness	070	1.0	1		1929.5231201859676	1.5335589604210327
1.0	16.5798750981412	fix	2.0		60	attractiveness	070	1.0	1	-1.63	1931.0566791463887	0.516710279786821
2.0	17.096585377928022	face	0.0		147	attractiveness	064	1.0	1		1931.5733894261755	1.2334573256007388
2.0	18.33004270352876	rating	1.0		176	attractiveness	064	1.0	1		1932.8068467517762	1.4751661791192419
2.0	19.805208882648003	fix	2.0		60	attractiveness	064	1.0	1	-1.88	1934.2820129308955	0.516750124741975
3.0	20.321959007389978	face	0.0		147	attractiveness	030	1.0	1		1934.7987630556374	1.2334576274561186
3.0	21.555416634846097	rating	1.0		194	attractiveness	030	1.0	1		1936.0322206830936	1.616863290450965
3.0	23.17227992529706	fix	2.0		60	attractiveness	030	1.0	1	-0.20000000000000018	1937.6490839735445	0.5167531432989563
4.0	23.689033068596018	face	0.0		147	attractiveness	121	1.0	1		1938.1658371168435	1.2334579293119532
4.0	24.92249099790797	rating	1.0		167	attractiveness	121	1.0	1		1939.3992950461554	1.400161372067032
4.0	26.322652369975003	fix	2.0		60	attractiveness	121	1.0	1	-2.4	1940.7994564182225	0.5167489173190916
5.0	26.839401287294095	face	0.0		147	attractiveness	061	1.0	1		1941.3162053355416	1.2334543070433028
5.0	28.072855594337398	rating	1.0		107	attractiveness	061	1.0	1		1942.5496596425849	0.9001319411345321
5.0	28.97298753547193	fix	2.0		60	attractiveness	061	1.0	1	-0.9900000000000002	1943.4497915837194	0.5167673305177232
6.0	29.489754865989653	face	0.0		147	attractiveness	034	1.0	1		1943.966558914237	1.2334198954918065
6.0	30.72317476148146	rating	1.0		61	attractiveness	034	1.0	1		1945.199978809729	0.5167244670055879
6.0	31.239899228487047	fix	2.0		60	attractiveness	034	1.0	1	-0.41999999999999993	1945.7167032767345	0.5167480117520427
7.0	31.75664724023909	face	0.0		147	attractiveness	087	1.0	1		1946.2334512884865	1.2334546088991374
7.0	32.99010184913823	rating	1.0		89	attractiveness	087	1.0	1		1947.4669058973857	0.7500861043436089
7.0	33.740187953481836	fix	2.0		60	attractiveness	087	1.0	1	-0.1499999999999999	1948.2169920017293	0.5167543507218397
8.0	34.256942304203676	face	0.0		147	attractiveness	091	1.0	1		1948.7337463524511	1.2334645701380396
8.0	35.490406874341716	rating	1.0		72	attractiveness	091	1.0	1		1949.9672109225892	0.6084031802311074
8.0	36.09881005457282	fix	2.0		60	attractiveness	091	1.0	1	0.08000000000000007	1950.5756141028203	0.5167492191744714
9.0	36.615559273747294	face	0.0		147	attractiveness	005	1.0	1		1951.0923633219948	1.2334497792076036
9.0	37.8490090529549	rating	1.0		128	attractiveness	005	1.0	1		1952.3258131012024	1.066792218522096
9.0	38.915801271476994	fix	2.0		60	attractiveness	005	1.0	1	-3.38	1953.3926053197245	0.5167495210303059
10.0	39.4325507925073	face	0.0		147	attractiveness	039	1.0	1		1953.9093548407548	1.2334576274561186
10.0	40.66600841996342	rating	1.0		162	attractiveness	039	1.0	1		1955.1428124682109	1.3501677261301666
10.0	42.016176146093585	fix	2.0		60	attractiveness	039	1.0	1	1.2800000000000002	1956.492980194341	0.5167474080403736
11.0	42.53292355413396	face	0.0		147	attractiveness	024	1.0	1		1957.0097276023814	1.2334591367348366
11.0	43.766382690868795	rating	1.0		115	attractiveness	024	1.0	1		1958.2431867391163	0.966780174478572
11.0	44.73316286534737	fix	2.0		60	attractiveness	024	1.0	1	-3.2800000000000002	1959.2099669135948	0.5167507284536441
12.0	45.24991359380101	face	0.0		147	attractiveness	124	1.0	1		1959.7267176420485	1.2334512884858668
12.0	46.48336488228688	rating	1.0		139	attractiveness	124	1.0	1		1960.9601689305343	1.1668000365848457
12.0	47.650164918871724	fix	2.0		60	attractiveness	124	1.0	1	3.6900000000000004	1962.1269689671192	0.5167525395877419
13.0	48.166917458459466	face	0.0		147	attractiveness	117	1.0	1		1962.643721506707	1.2334645701380396
13.0	49.400382028597505	rating	1.0		160	attractiveness	117	1.0	1		1963.877186076845	1.3334838587179547
13.0	50.73386588731546	fix	2.0		60	attractiveness	117	1.0	1	0.08999999999999986	1965.210669935563	0.5167471061849938
14.0	51.250612993500454	face	0.0		147	attractiveness	043	1.0	1		1965.727417041748	1.2334684942620697
14.0	52.48408148776252	rating	1.0		99	attractiveness	043	1.0	1		1966.96088553601	0.8250884965500518
14.0	53.309169984312575	fix	2.0		60	attractiveness	043	1.0	1	0.019999999999999574	1967.78597403256	0.516808081039926
15.0	53.8259780653525	face	0.0		147	attractiveness	006	1.0	1		1968.3027821136	1.2334017841485547
15.0	55.059379849501056	rating	1.0		95	attractiveness	006	1.0	1		1969.5361838977485	0.80009091894226
15.0	55.859470768443316	fix	2.0		60	attractiveness	006	1.0	1	-1.5499999999999998	1970.3362748166908	0.5167513321648585
16.0	56.376222100608175	face	0.0		147	attractiveness	101	1.0	1		1970.8530261488556	1.233464268282205
16.0	57.60968636889038	rating	1.0		59	attractiveness	101	1.0	1		1972.0864904171378	0.5000508626885676
16.0	58.10973723157895	fix	2.0		60	attractiveness	101	1.0	1	1.08	1972.5865412798264	0.5167606896916368
17.0	58.626497921270584	face	0.0		147	attractiveness	141	1.0	1		1973.103301969518	1.233455514466641
17.0	59.859953435737225	rating	1.0		55	attractiveness	141	1.0	1		1974.3367574839847	0.4667115023025872
17.0	60.32666493803981	fix	2.0		60	attractiveness	141	1.0	1	-0.18999999999999995	1974.8034689862873	0.5167597841250426
18.0	60.843424722164855	face	0.0		147	attractiveness	099	1.0	1		1975.3202287704123	1.2334570237444495
18.0	62.076881745909304	rating	1.0		94	attractiveness	099	1.0	1		1976.5536857941568	0.7917509472990787
18.0	62.86863269320838	fix	2.0		60	attractiveness	099	1.0	1	0.9400000000000004	1977.3454367414558	0.5167522377319074
19.0	63.38538493094029	face	0.0		147	attractiveness	144	1.0	1		1977.8621889791877	1.2334633627147014
19.0	64.61884829365499	rating	1.0		137	attractiveness	144	1.0	1		1979.0956523419025	1.1501279415465433
19.0	65.76897623520154	fix	2.0		60	attractiveness	144	1.0	1	0.08000000000000007	1980.245780283449	0.5167534451547908
20.0	66.28572968035633	face	0.0		147	attractiveness	042	1.0	1		1980.7625337286038	1.2334917371522351
20.0	67.51922141750856	rating	1.0		75	attractiveness	042	1.0	1		1981.996025465756	0.6333772130928992
20.0	68.15259863060146	fix	2.0		60	attractiveness	042	1.0	1	0.1900000000000004	1982.629402678849	0.5167631045378585
21.0	68.66936173513932	face	0.0		147	attractiveness	009	1.0	1		1983.1461657833868	1.2334461569389532
21.0	69.90280789207827	rating	1.0		135	attractiveness	009	1.0	1		1984.3796119403257	1.1334627891892524
21.0	71.03627068126752	fix	2.0		60	attractiveness	009	1.0	1	3.1900000000000004	1985.513074729515	0.5167489173190916
22.0	71.55301959858662	face	0.0		147	attractiveness	172	1.0	1		1986.029823646834	1.2334549107545172
22.0	72.78647450934113	rating	1.0		160	attractiveness	172	1.0	1		1987.2632785575886	1.3418292637647937
22.0	74.12830377310593	fix	2.0		60	attractiveness	172	1.0	1	-4.0	1988.6051078213534	0.5167537470106254
23.0	74.64505752011655	face	0.0		147	attractiveness	036	1.0	1		1989.121861568364	1.2334488736405547
23.0	75.8785063937571	rating	1.0		151	attractiveness	036	1.0	1		1990.3553104420046	1.2668147973295163
23.0	77.14532119108662	fix	2.0		60	attractiveness	036	1.0	1	1.2000000000000002	1991.622125239334	0.5167455969062758
24.0	77.6620667879929	face	0.0		147	attractiveness	126	1.0	1		1992.1388708362404	1.2334703053961675
24.0	78.89553709338907	rating	1.0		61	attractiveness	126	1.0	1		1993.3723411416365	0.5167247688618772
24.0	79.41226186225094	fix	2.0		60	attractiveness	126	1.0	1	0.7199999999999998	1993.8890659104984	0.5167501247415203
25.0	79.92901198699246	face	0.0		147	attractiveness	038	1.0	1		1994.40581603524	1.2334615515806036
25.0	81.16247353857307	rating	1.0		86	attractiveness	038	1.0	1		1995.6392775868205	0.7250710191042344
25.0	81.8875445576773	fix	2.0		60	attractiveness	038	1.0	1	-3.73	1996.3643486059248	0.5167588785579937
26.0	82.4043034362353	face	0.0		147	attractiveness	137	1.0	1		1996.8811074844828	1.2334594385906712
26.0	83.63776287482597	rating	1.0		58	attractiveness	137	1.0	1		1998.1145669230734	0.49171723001472856
26.0	84.1294801048407	fix	2.0		60	attractiveness	137	1.0	1	0.75	1998.6062841530882	0.5167522377319074
27.0	84.6462323425726	face	0.0		147	attractiveness	100	1.0	1		1999.12303639082	1.2334624571476525
27.0	85.87969479972026	rating	1.0		86	attractiveness	100	1.0	1		2000.3564988479677	0.7250779617857006
27.0	86.60477276150596	fix	2.0		60	attractiveness	100	1.0	1	1.8600000000000003	2001.0815768097534	0.5167555581451779
28.0	87.12152831965113	face	0.0		147	attractiveness	044	1.0	1		2001.5983323678986	1.2334540051874683
28.0	88.3549823248386	rating	1.0		182	attractiveness	044	1.0	1		2002.831786373086	1.5251752196982125
28.0	89.88015754453681	fix	2.0		61	attractiveness	044	1.0	1	-0.10999999999999988	2004.3569615927843	0.525092511231378
29.0	90.40525005576819	face	0.0		146	attractiveness	102	1.0	1		2004.8820541040157	1.2251230892152307
29.0	91.63037314498342	rating	1.0		118	attractiveness	102	1.0	1		2006.1071771932309	0.9917834873454012
29.0	92.62215663232882	fix	2.0		60	attractiveness	102	1.0	1	-2.15	2007.0989606805763	0.5167519358760728
30.0	93.1389085682049	face	0.0		147	attractiveness	033	1.0	1		2007.6157126164524	1.2334567218890697
30.0	94.37236529009397	rating	1.0		50	attractiveness	033	1.0	1		2008.8491693383414	0.4250502816162225
30.0	94.79741557171019	fix	2.0		60	attractiveness	033	1.0	1	0.9199999999999999	2009.2742196199576	0.5167525395877419
31.0	95.31416811129793	face	0.0		147	attractiveness	012	1.0	1		2009.7909721595454	1.2334485717847201
31.0	96.54761668308265	rating	1.0		72	attractiveness	012	1.0	1		2011.02442073133	0.6084101229125736
31.0	97.15602680599523	fix	2.0		60	attractiveness	012	1.0	1	1.25	2011.6328308542427	0.5167498228861405
32.0	97.67277662888137	face	0.0		147	attractiveness	018	1.0	1		2012.1495806771288	1.2334582311677877
32.0	98.90623486004915	rating	1.0		112	attractiveness	018	1.0	1		2013.3830389082966	0.941779578313799
32.0	99.84801443836295	fix	2.0		60	attractiveness	018	1.0	1	-2.34	2014.3248184866104	0.5167419746376254
33.0	100.36475641300058	face	0.0		147	attractiveness	011	1.0	1		2014.841560461248	1.2334805684909043
33.0	101.59823698149148	rating	1.0		86	attractiveness	011	1.0	1		2016.075041029739	0.7250692079696819
33.0	102.32330618946116	fix	2.0		60	attractiveness	011	1.0	1	0.20000000000000018	2016.8001102377086	0.5167419746376254
34.0	102.84004816409879	face	0.0		147	attractiveness	062	1.0	1		2017.3168522123462	1.2334576274561186
34.0	104.07350579155491	rating	1.0		87	attractiveness	062	1.0	1		2018.5503098398024	0.7334260835336863
34.0	104.8069318750886	fix	2.0		60	attractiveness	062	1.0	1	0.34999999999999964	2019.283735923336	0.5167489173190916
35.0	105.32368079240769	face	0.0		147	attractiveness	066	1.0	1		2019.8004848406551	1.233458834879002
35.0	106.55713962728669	rating	1.0		88	attractiveness	066	1.0	1		2021.0339436755341	0.7417482456903599
35.0	107.29888787297705	fix	2.0		60	attractiveness	066	1.0	1	0.75	2021.7756919212245	0.5167483136074225
36.0	107.81563618658447	face	0.0		147	attractiveness	082	1.0	1		2022.292440234832	1.233461853436438
36.0	109.04909804002091	rating	1.0		129	attractiveness	082	1.0	1		2023.5259020882684	1.0834640117045637
36.0	110.13256205172547	fix	2.0		60	attractiveness	082	1.0	1	0.40000000000000036	2024.609366099973	0.5167428802046743
37.0	110.64930493193015	face	0.0		147	attractiveness	092	1.0	1		2025.1261089801776	1.233463664570536
37.0	111.88276859650068	rating	1.0		233	attractiveness	092	1.0	1		2026.3595726447481	1.9502215771904048
37.0	113.83299017369109	fix	2.0		60	attractiveness	092	1.0	1	-1.92	2028.3097942219385	0.5167540488660052
38.0	114.34974422255709	face	0.0		147	attractiveness	130	1.0	1		2028.8265482708046	1.23345642003369
38.0	115.58320064259078	rating	1.0		103	attractiveness	130	1.0	1		2030.0600046908382	0.866775073116969
38.0	116.44997571570775	fix	2.0		60	attractiveness	130	1.0	1	-3.35	2030.9267797639552	0.5167422764930052
39.0	116.96671799220076	face	0.0		147	attractiveness	136	1.0	1		2031.4435220404482	1.2334591367348366
39.0	118.2001771289356	rating	1.0		54	attractiveness	136	1.0	1		2032.676981177183	0.4583896420022029
39.0	118.6585667709378	fix	2.0		60	attractiveness	136	1.0	1	-1.1400000000000001	2033.1353708191853	0.5000556923801014
40.0	119.1586224633179	cue	0.0		480						2033.6354265115654	4.000499269358443
40.0	123.15912173267634	fix	1.0		120						2037.6359257809238	1.016785894644272
40.0	124.17590762732061	face	0.0		147	dominance	126	1.0	1		2038.652711675568	1.233461853436438
40.0	125.40936948075705	rating	1.0		71	dominance	126	1.0	1		2039.8861735290045	0.600068943846054
40.0	126.0094384246031	fix	2.0		60	dominance	126	1.0	1	1.0199999999999996	2040.4862424728506	0.5167495210303059
41.0	126.52618794563341	face	0.0		147	dominance	036	1.0	1		2041.0029919938809	1.2334515903421561
41.0	127.75963953597557	rating	1.0		79	dominance	036	1.0	1		2042.236443584223	0.6667503813191615
41.0	128.42638991729473	fix	2.0		60	dominance	036	1.0	1	0.16000000000000014	2042.9031939655422	0.5167492191749261
42.0	128.94313913646965	face	0.0		147	dominance	012	1.0	1		2043.419943184717	1.2334521940533705
42.0	130.17659133052302	rating	1.0		85	dominance	012	1.0	1		2044.6533953787705	0.71674946065923
42.0	130.89334079118225	fix	2.0		60	dominance	012	1.0	1	2.08	2045.3701448394297	0.5168083828953058
43.0	131.41014917407756	face	0.0		147	dominance	100	1.0	1		2045.886953222325	1.2334029915714382
43.0	132.643552165649	rating	1.0		120	dominance	100	1.0	1		2047.1203562138965	1.0084555823837036
43.0	133.6520077480327	fix	2.0		60	dominance	100	1.0	1	1.1900000000000004	2048.1288117962804	0.5167425783488397
44.0	134.16875032638154	face	0.0		147	dominance	018	1.0	1		2048.645554374629	1.23346819240669
44.0	135.40221851878823	rating	1.0		80	dominance	018	1.0	1		2049.8790225670355	0.675070430485448
44.0	136.07728894927368	fix	2.0		60	dominance	018	1.0	1	-2.41	2050.5540929975214	0.5167489173190916
45.0	136.59403786659277	face	0.0		147	dominance	101	1.0	1		2051.0708419148405	1.2334594385906712
45.0	137.82749730518344	rating	1.0		102	dominance	101	1.0	1		2052.3043013534307	0.8584323847717314
45.0	138.68592968995517	fix	2.0		60	dominance	101	1.0	1	2.42	2053.1627337382024	0.5167549544335088
46.0	139.20268464438868	face	0.0		147	dominance	061	1.0	1		2053.6794886926364	1.2334546088991374
46.0	140.43613925328782	rating	1.0		83	dominance	061	1.0	1		2054.912943301535	0.7000788748991909
46.0	141.136218128187	fix	2.0		60	dominance	061	1.0	1	1.96	2055.6130221764342	0.5167483136074225
47.0	141.65296644179443	face	0.0		147	dominance	043	1.0	1		2056.1297704900417	1.2334621552922727
47.0	142.8864285970867	rating	1.0		49	dominance	043	1.0	1		2057.3632326453344	0.4167130266737331
47.0	143.30314162376044	fix	2.0		60	dominance	043	1.0	1	0.5300000000000002	2057.7799456720077	0.5167552562893434
48.0	143.81989688004978	face	0.0		147	dominance	044	1.0	1		2058.2967009282975	1.2334567218890697
48.0	145.05335360193885	rating	1.0		132	dominance	044	1.0	1		2059.530157650186	1.1084637023027426
48.0	146.1618173042416	fix	2.0		60	dominance	044	1.0	1	0.21999999999999975	2060.6386213524893	0.5167434839158886
49.0	146.67856078815748	face	0.0		147	dominance	033	1.0	1		2061.155364836405	1.23346819240669
49.0	147.91202898056417	rating	1.0		81	dominance	033	1.0	1		2062.388833028812	0.6834058742933848
49.0	148.59543485485756	fix	2.0		60	dominance	033	1.0	1	2.51	2063.0722389031052	0.5167507284531894
50.0	149.11218558331075	face	0.0		147	dominance	064	1.0	1		2063.5889896315584	1.233463664570536
50.0	150.34564924788128	rating	1.0		87	dominance	064	1.0	1		2064.8224532961285	0.7334191408522202
50.0	151.0790683887335	fix	2.0		60	dominance	064	1.0	1	2.0700000000000003	2065.555872436981	0.5167504265978096
51.0	151.5958188153313	face	0.0		147	dominance	136	1.0	1		2066.0726228635785	1.2334576274561186
51.0	152.82927644278743	rating	1.0		163	dominance	136	1.0	1		2067.3060804910347	1.36682714322842
51.0	154.19610358601585	fix	2.0		60	dominance	136	1.0	1	0.9299999999999997	2068.6729076342635	0.5167522377319074
52.0	154.71285582374776	face	0.0		147	dominance	102	1.0	1		2069.189659871995	1.2334558163220208
52.0	155.94631164006978	rating	1.0		81	dominance	102	1.0	1		2070.423115688317	0.683404063159287
52.0	156.62971570322907	fix	2.0		60	dominance	102	1.0	1	-0.3999999999999999	2071.1065197514763	0.5167634063932383
53.0	157.1464791096223	face	0.0		147	dominance	024	1.0	1		2071.62328315787	1.2334558163220208
53.0	158.37993492594433	rating	1.0		78	dominance	024	1.0	1		2072.856738974192	0.6584073911185442
53.0	159.03834231706287	fix	2.0		60	dominance	024	1.0	1	-1.67	2073.51514636531	0.5167507284531894
54.0	159.55509304551606	face	0.0		147	dominance	011	1.0	1		2074.0318970937633	1.2334920390080697
54.0	160.78858508452413	rating	1.0		85	dominance	011	1.0	1		2075.265389132772	0.7167135398290156
54.0	161.50529862435314	fix	2.0		60	dominance	011	1.0	1	1.75	2075.9821026726004	0.5167510303090239
55.0	162.02204965466217	face	0.0		147	dominance	121	1.0	1		2076.4988537029094	1.2334606460135547
55.0	163.25551030067572	rating	1.0		82	dominance	121	1.0	1		2077.732314348923	0.6917392051113893
55.0	163.9472495057871	fix	2.0		60	dominance	121	1.0	1	1.0	2078.424053554035	0.5167513321644037
56.0	164.46400083795152	face	0.0		147	dominance	034	1.0	1		2078.9408048861987	1.2334585330236223
56.0	165.69745937097514	rating	1.0		66	dominance	034	1.0	1		2080.1742634192224	0.5584194955326893
56.0	166.25587886650783	fix	2.0		60	dominance	034	1.0	1	0.11000000000000032	2080.732682914755	0.5167308059758398
57.0	166.77260967248367	face	0.0		147	dominance	130	1.0	1		2081.2494137207314	1.233461853436438
57.0	168.0060715259201	rating	1.0		144	dominance	130	1.0	1		2082.4828755741673	1.2084730296442103
57.0	169.21454455556432	fix	2.0		60	dominance	130	1.0	1	-0.5800000000000001	2083.691348603812	0.5167552562893434
58.0	169.73129981185366	face	0.0		147	dominance	006	1.0	1		2084.208103860101	1.2334500810634381
58.0	170.9647498929171	rating	1.0		72	dominance	006	1.0	1		2085.441553941165	0.6084086136338556
58.0	171.57315850655095	fix	2.0		60	dominance	006	1.0	1	-1.19	2086.049962554798	0.5167498228861405
59.0	172.0899083294371	face	0.0		147	dominance	091	1.0	1		2086.566712377685	1.233451892197536
59.0	173.32336022163463	rating	1.0		113	dominance	091	1.0	1		2087.800164269882	0.9501083812956495
59.0	174.27346860293028	fix	2.0		60	dominance	091	1.0	1	-0.5899999999999999	2088.7502726511775	0.5167594822692081
60.0	174.7902280851995	face	0.0		147	dominance	137	1.0	1		2089.267032133447	1.2334576274565734
60.0	176.02368571265606	rating	1.0		128	dominance	137	1.0	1		2090.5004897609033	1.075125247483811
60.0	177.09881096013987	fix	2.0		60	dominance	137	1.0	1	-0.31000000000000005	2091.575615008387	0.5167431820605088
61.0	177.61555414220038	face	0.0		147	dominance	117	1.0	1		2092.092358190448	1.2334642682817503
61.0	178.84901841048213	rating	1.0		57	dominance	117	1.0	1		2093.32582245873	0.48338933260038175
61.0	179.3324077430825	fix	2.0		60	dominance	117	1.0	1	1.2599999999999998	2093.80921179133	0.5167510303090239
62.0	179.84915877339154	face	0.0		147	dominance	082	1.0	1		2094.325962821639	1.2334506847746525
62.0	181.0826094581662	rating	1.0		76	dominance	082	1.0	1		2095.559413506414	0.6417425406170878
62.0	181.72435199878328	fix	2.0		60	dominance	082	1.0	1	-1.9	2096.201156047031	0.5167489173186368
63.0	182.2411009161019	face	0.0		147	dominance	141	1.0	1		2096.717904964349	1.2334645701380396
63.0	183.47456548623995	rating	1.0		207	dominance	141	1.0	1		2097.9513695344876	1.7335320348906862
63.0	185.20809752113064	fix	2.0		60	dominance	141	1.0	1	-2.35	2099.684901569378	0.5167492191749261
64.0	185.72484674030557	face	0.0		147	dominance	087	1.0	1		2100.201650788553	1.2334609478693892
64.0	186.95830768817495	rating	1.0		39	dominance	087	1.0	1		2101.435111736422	0.3333694554007707
64.0	187.29167714357573	fix	2.0		60	dominance	087	1.0	1	-0.009999999999999787	2101.7684811918234	0.5167576711346555
65.0	187.80843481471038	face	0.0		147	dominance	030	1.0	1		2102.285238862958	1.2334561181778554
65.0	189.04189093288824	rating	1.0		115	dominance	030	1.0	1		2103.518694981136	0.9667789670556886
65.0	190.00866989994392	fix	2.0		60	dominance	030	1.0	1	-0.18999999999999995	2104.4854739481916	0.516750124741975
66.0	190.5254200246859	face	0.0		147	dominance	038	1.0	1		2105.002224072933	1.2334609478693892
66.0	191.7588809725553	rating	1.0		252	dominance	038	1.0	1		2106.2356850208025	2.10857931304281
66.0	193.8674602855981	fix	2.0		60	dominance	038	1.0	1	0.21999999999999975	2108.344264333846	0.5167492191744714
67.0	194.38420950477257	face	0.0		147	dominance	172	1.0	1		2108.86101355302	1.2334585330236223
67.0	195.6176680377962	rating	1.0		73	dominance	172	1.0	1		2110.0944720860434	0.6167319832129579
67.0	196.23440002100915	fix	2.0		60	dominance	172	1.0	1	-2.81	2110.7112040692564	0.5167480117520427
68.0	196.7511480327612	face	0.0		147	dominance	062	1.0	1		2111.227952081009	1.233462759003487
68.0	197.98461079176468	rating	1.0		208	dominance	062	1.0	1		2112.4614148400124	1.7418680824102921
68.0	199.72647887417497	fix	2.0		60	dominance	062	1.0	1	2.3099999999999996	2114.2032829224227	0.5167594822692081
69.0	200.24323835644418	face	0.0		147	dominance	070	1.0	1		2114.7200424046914	1.2334491754959345
69.0	201.47668753194012	rating	1.0		89	dominance	070	1.0	1		2115.953491580188	0.7500903303239284
69.0	202.22677786226404	fix	2.0		60	dominance	070	1.0	1	1.1100000000000003	2116.7035819105113	0.5167555581447232
70.0	202.74353342040877	face	0.0		147	dominance	042	1.0	1		2117.220337468656	1.2334552126108065
70.0	203.97698863301957	rating	1.0		47	dominance	042	1.0	1		2118.4537926812673	0.4000472706052278
70.0	204.3770359036248	fix	2.0		60	dominance	042	1.0	1	0.6699999999999999	2118.853839951872	0.5167434839163434
71.0	204.89377938754114	face	0.0		147	dominance	099	1.0	1		2119.370583435789	1.2334576274561186
71.0	206.12723701499726	rating	1.0		80	dominance	099	1.0	1		2120.604041063245	0.6750788824456322
71.0	206.8023158974429	fix	2.0		60	dominance	099	1.0	1	1.2800000000000002	2121.2791199456906	0.5167513321648585
72.0	207.31906722960775	face	0.0		147	dominance	027	1.0	1		2121.7958712778554	1.2334582311677877
72.0	208.55252546077554	rating	1.0		58	dominance	027	1.0	1		2123.0293295090232	0.4917277949648451
72.0	209.0442532557404	fix	2.0		60	dominance	027	1.0	1	0.8799999999999999	2123.5210573039876	0.5167522377319074
73.0	209.5610054934723	face	0.0		147	dominance	144	1.0	1		2124.03780954172	1.2334503829192727
73.0	210.79445587639157	rating	1.0		66	dominance	144	1.0	1		2125.271259924639	0.5584019879011066
73.0	211.35285786429267	fix	2.0		60	dominance	144	1.0	1	-2.06	2125.8296619125404	0.5167513321644037
74.0	211.86960919645708	face	0.0		147	dominance	005	1.0	1		2126.3464132447043	1.2334561181778554
74.0	213.10306531463493	rating	1.0		79	dominance	005	1.0	1		2127.579869362882	0.6667410237919285
74.0	213.76980633842686	fix	2.0		60	dominance	005	1.0	1	-1.63	2128.2466103866745	0.5167492191749261
75.0	214.2865555576018	face	0.0		147	dominance	092	1.0	1		2128.7633596058495	1.2334669849833517
75.0	215.52002254258514	rating	1.0		63	dominance	092	1.0	1		2129.996826590833	0.5333866008058976
75.0	216.05340914339104	fix	2.0		60	dominance	092	1.0	1	-2.87	2130.5302131916387	0.516750124741975
76.0	216.570159268133	face	0.0		147	dominance	124	1.0	1		2131.0469633163802	1.2334606460135547
76.0	217.80361991414657	rating	1.0		54	dominance	124	1.0	1		2132.280423962394	0.458384208599
76.0	218.26200412274557	fix	2.0		60	dominance	124	1.0	1	0.9699999999999998	2132.7388081709933	0.5167724620650915
77.0	218.77877658481066	face	0.0		147	dominance	009	1.0	1		2133.2555806330583	1.2334434402373518
77.0	220.012220025048	rating	1.0		59	dominance	009	1.0	1		2134.4890240732957	0.5000593146487518
77.0	220.51227933969676	fix	2.0		60	dominance	009	1.0	1	0.2400000000000002	2134.9890833879444	0.5167437857717232
78.0	221.02902312546848	face	0.0		147	dominance	066	1.0	1		2135.505827173716	1.2334612497252238
78.0	222.2624843751937	rating	1.0		64	dominance	066	1.0	1		2136.7392884234414	0.5417217427579999
78.0	222.8042061179517	fix	2.0		60	dominance	066	1.0	1	1.8499999999999996	2137.281010166199	0.5167597841245879
79.0	223.3209659020763	face	0.0		147	dominance	039	1.0	1		2137.7977699503235	1.2334506847751072
79.0	224.5544165868514	rating	1.0		44	dominance	039	1.0	1		2139.031220635099	0.3750502967086504
79.0	224.92946688356005	fix	2.0		60	dominance	039	1.0	1	-0.7400000000000002	2139.4062709318077	0.5000526738231201
80.0	225.42951955738317	cue	0.0		480						2139.906323605631	4.000472102343338
80.0	229.4299916597265	fix	1.0		120						2143.906795707974	1.0168082319678433
80.0	230.44679989169435	face	0.0		147	trustworthiness	099	1.0	1		2144.923603939942	1.2334693998291186
80.0	231.68026929152347	rating	1.0		151	trustworthiness	099	1.0	1		2146.157073339771	1.2668178158869523
80.0	232.94708710741043	fix	2.0		60	trustworthiness	099	1.0	1	0.6900000000000004	2147.4238911556577	0.5167428802046743
81.0	233.4638299876151	face	0.0		147	trustworthiness	070	1.0	1		2147.940634035863	1.2334591367348366
81.0	234.69728912434994	rating	1.0		54	trustworthiness	070	1.0	1		2149.174093172597	0.4583817937536878
81.0	235.15567091810362	fix	2.0		60	trustworthiness	070	1.0	1	-1.0099999999999998	2149.632474966351	0.5167498228861405
82.0	235.67242074098976	face	0.0		147	trustworthiness	005	1.0	1		2150.1492247892375	1.2334567218890697
82.0	236.90587746287883	rating	1.0		107	trustworthiness	005	1.0	1		2151.382681511126	0.9001050759752616
82.0	237.8059825388541	fix	2.0		60	trustworthiness	005	1.0	1	-0.6299999999999999	2152.2827865871013	0.5167489173190916
83.0	238.3227314561732	face	0.0		147	trustworthiness	011	1.0	1		2152.7995355044204	1.2334648719938741
83.0	239.55619632816706	rating	1.0		160	trustworthiness	011	1.0	1		2154.0330003764147	1.3418177932471735
83.0	240.89801412141423	fix	2.0		60	trustworthiness	011	1.0	1	0.7800000000000002	2155.374818169662	0.516748615463257
84.0	241.4147627368775	face	0.0		147	trustworthiness	117	1.0	1		2155.891566785125	1.2334612497252238
84.0	242.64822398660272	rating	1.0		60	trustworthiness	117	1.0	1		2157.1250280348504	0.5083920417550871
84.0	243.1566160283578	fix	2.0		60	trustworthiness	117	1.0	1	-1.69	2157.633420076605	0.516748615463257
85.0	243.67336464382106	face	0.0		147	trustworthiness	018	1.0	1		2158.1501686920683	1.2334579293119532
85.0	244.906822573133	rating	1.0		44	trustworthiness	018	1.0	1		2159.3836266213802	0.37504305217180445
85.0	245.28186562530482	fix	2.0		60	trustworthiness	018	1.0	1	0.16000000000000014	2159.7586696735525	0.5167507284531894
86.0	245.798616353758	face	0.0		147	trustworthiness	144	1.0	1		2160.2754204020057	1.2335098484959417
86.0	247.03212620225395	rating	1.0		63	trustworthiness	144	1.0	1		2161.508930250501	0.5333443410049767
86.0	247.56547054325893	fix	2.0		60	trustworthiness	144	1.0	1	0.3200000000000003	2162.0422745915066	0.516750124741975
87.0	248.0822206680009	face	0.0		147	trustworthiness	039	1.0	1		2162.559024716248	1.2334567218890697
87.0	249.31567738988997	rating	1.0		64	trustworthiness	039	1.0	1		2163.7924814381377	0.5417292891511352
87.0	249.8574066790411	fix	2.0		60	trustworthiness	039	1.0	1	1.6900000000000004	2164.3342107272883	0.5167480117515879
88.0	250.3741546907927	face	0.0		147	trustworthiness	036	1.0	1		2164.85095873904	1.2334594385906712
88.0	251.60761412938336	rating	1.0		149	trustworthiness	036	1.0	1		2166.084418177631	1.250163228479778
88.0	252.85777735786314	fix	2.0		60	trustworthiness	036	1.0	1	0.41000000000000014	2167.3345814061104	0.5167317115428887
89.0	253.37450906940603	face	0.0		147	trustworthiness	087	1.0	1		2167.8513131176533	1.233466683127972
89.0	254.607975752534	rating	1.0		85	trustworthiness	087	1.0	1		2169.0847798007817	0.7167512717937825
89.0	255.32472702432779	fix	2.0		60	trustworthiness	087	1.0	1	0.009999999999999787	2169.801531072575	0.5167407672142872
90.0	255.84146779154207	face	0.0		147	trustworthiness	043	1.0	1		2170.3182718397893	1.2334588348794568
90.0	257.07492662642153	rating	1.0		164	trustworthiness	043	1.0	1		2171.5517306746688	1.3751686241507741
90.0	258.4500952505723	fix	2.0		60	trustworthiness	043	1.0	1	-0.18999999999999995	2172.92689929882	0.5167525395872872
91.0	258.9668477901596	face	0.0		147	trustworthiness	061	1.0	1		2173.4436518384073	1.2334567218895245
91.0	260.2003045120491	rating	1.0		102	trustworthiness	061	1.0	1		2174.677108560297	0.8584254420902653
91.0	261.0587299541394	fix	2.0		60	trustworthiness	061	1.0	1	0.4500000000000002	2175.535534002387	0.5167585767017044
92.0	261.5754885308411	face	0.0		147	trustworthiness	033	1.0	1		2176.0522925790883	1.2334494773522238
92.0	262.8089380081933	rating	1.0		249	trustworthiness	033	1.0	1		2177.2857420564405	2.0835871688377665
92.0	264.8925251770311	fix	2.0		60	trustworthiness	033	1.0	1	-1.0499999999999998	2179.3693292252783	0.5167507284531894
93.0	265.40927590548426	face	0.0		147	trustworthiness	121	1.0	1		2179.8860799537315	1.2334506847746525
93.0	266.6427265902589	rating	1.0		74	trustworthiness	121	1.0	1		2181.119530638506	0.625074067846981
93.0	267.2678006581059	fix	2.0		60	trustworthiness	121	1.0	1	-1.9	2181.744604706353	0.5167489173190916
94.0	267.784549575425	face	0.0		147	trustworthiness	024	1.0	1		2182.261353623672	1.2334648719934194
94.0	269.0180144474184	rating	1.0		63	trustworthiness	024	1.0	1		2183.4948184956656	0.5333935434873638
94.0	269.5514079909058	fix	2.0		60	trustworthiness	024	1.0	1	0.15000000000000036	2184.028212039153	0.516751634020693
95.0	270.06815962492647	face	0.0		147	trustworthiness	172	1.0	1		2184.5449636731737	1.233490227873972
95.0	271.30164985280044	rating	1.0		243	trustworthiness	172	1.0	1		2185.778453901048	2.0335328499013485
95.0	273.3351827027018	fix	2.0		60	trustworthiness	172	1.0	1	-0.6600000000000001	2187.8119867509495	0.5167564637117721
96.0	273.85193916641356	face	0.0		147	trustworthiness	102	1.0	1		2188.328743214661	1.2334503829192727
96.0	275.08538954933283	rating	1.0		46	trustworthiness	102	1.0	1		2189.5621935975805	0.39171212865312555
96.0	275.47710167798596	fix	2.0		60	trustworthiness	102	1.0	1	0.0	2189.9539057262336	0.5167573692792757
97.0	275.99385904726523	face	0.0		147	trustworthiness	034	1.0	1		2190.4706630955125	1.233459740446051
97.0	277.2273187877113	rating	1.0		63	trustworthiness	034	1.0	1		2191.7041228359585	0.533391732353266
97.0	277.76071052006455	fix	2.0		60	trustworthiness	034	1.0	1	0.0	2192.237514568312	0.5167507284531894
98.0	278.27746124851774	face	0.0		147	trustworthiness	062	1.0	1		2192.754265296765	1.2334555144661863
98.0	279.5109167629839	rating	1.0		50	trustworthiness	062	1.0	1		2193.987720811231	0.4250922395613088
98.0	279.93600900254523	fix	2.0		60	trustworthiness	062	1.0	1	0.0	2194.4128130507925	0.5167087705085578
99.0	280.4527177730538	face	0.0		147	trustworthiness	042	1.0	1		2194.929521821301	1.2334552126103517
99.0	281.68617298566414	rating	1.0		66	trustworthiness	042	1.0	1		2196.1629770339114	0.5583977619207872
99.0	282.24457074758493	fix	2.0		60	trustworthiness	042	1.0	1	-0.6099999999999999	2196.721374795832	0.516748615463257
100.0	282.7613193630482	face	0.0		147	trustworthiness	038	1.0	1		2197.2381234112954	1.2334600423023403
100.0	283.9947794053505	rating	1.0		101	trustworthiness	038	1.0	1		2198.471583453598	0.8501011669441141
100.0	284.84488057229464	fix	2.0		60	trustworthiness	038	1.0	1	0.2400000000000002	2199.3216846205423	0.5167537470101706
101.0	285.3616343193048	face	0.0		147	trustworthiness	136	1.0	1		2199.838438367552	1.2334473643622914
101.0	286.5950816836671	rating	1.0		54	trustworthiness	136	1.0	1		2201.0718857319143	0.4583956791161654
101.0	287.05347736278327	fix	2.0		60	trustworthiness	136	1.0	1	-0.2200000000000002	2201.530281411031	0.5167498228861405
102.0	287.5702271856694	face	0.0		147	trustworthiness	030	1.0	1		2202.0470312339166	1.2334585330236223
102.0	288.80368571869303	rating	1.0		73	trustworthiness	030	1.0	1		2203.2804897669403	0.6167371147603262
102.0	289.42042283345336	fix	2.0		60	trustworthiness	030	1.0	1	-0.2599999999999998	2203.8972268817006	0.5167522377319074
103.0	289.93717507118527	face	0.0		147	trustworthiness	100	1.0	1		2204.413979119433	1.2334576274565734
103.0	291.17063269864184	rating	1.0		51	trustworthiness	100	1.0	1		2205.647436746889	0.43337636789692624
103.0	291.60400906653877	fix	2.0		60	trustworthiness	100	1.0	1	0.41999999999999993	2206.080813114786	0.5167501247415203
104.0	292.1207591912803	face	0.0		147	trustworthiness	006	1.0	1		2206.5975632395275	1.2334570237449043
104.0	293.3542162150252	rating	1.0		74	trustworthiness	006	1.0	1		2207.831020263273	0.6250804068172329
104.0	293.9792966218424	fix	2.0		60	trustworthiness	006	1.0	1	0.0	2208.4561006700897	0.5167468043287045
105.0	294.4960434261711	face	0.0		147	trustworthiness	091	1.0	1		2208.972847474419	1.2334624571481072
105.0	295.72950588331923	rating	1.0		121	trustworthiness	091	1.0	1		2210.2063099315665	1.058454661723772
105.0	296.787960545043	fix	2.0		60	trustworthiness	091	1.0	1	0.16000000000000014	2211.2647645932902	0.516747106184539
106.0	297.30470765122755	face	0.0		147	trustworthiness	027	1.0	1		2211.7815116994752	1.2334615515806036
106.0	298.53816920280815	rating	1.0		47	trustworthiness	027	1.0	1		2213.0149732510554	0.400046968749848
106.0	298.938216171558	fix	2.0		60	trustworthiness	027	1.0	1	1.2199999999999998	2213.4150202198052	0.5167410690705765
107.0	299.4549572406286	face	0.0		147	trustworthiness	082	1.0	1		2213.9317612888763	1.2334609478689345
107.0	300.6884181884975	rating	1.0		128	trustworthiness	082	1.0	1		2215.1652222367447	1.075131586454063
107.0	301.76354977495157	fix	2.0		60	trustworthiness	082	1.0	1	1.0300000000000002	2216.2403538231993	0.5167519358760728
108.0	302.28030171082764	face	0.0		147	trustworthiness	066	1.0	1		2216.757105759075	1.2334485717851749
108.0	303.5137502826128	rating	1.0		103	trustworthiness	066	1.0	1		2217.9905543308605	0.8667777898181157
108.0	304.38052807243093	fix	2.0		60	trustworthiness	066	1.0	1	-2.76	2218.8573321206786	0.5167407672147419
109.0	304.8972688396457	face	0.0		147	trustworthiness	130	1.0	1		2219.374072887893	1.2334600423018856
109.0	306.13072888194756	rating	1.0		92	trustworthiness	130	1.0	1		2220.607532930195	0.7750885116433892
109.0	306.90581739359095	fix	2.0		60	trustworthiness	130	1.0	1	-3.24	2221.3826214418386	0.5167507284531894
110.0	307.42256812204414	face	0.0		147	trustworthiness	141	1.0	1		2221.899372170292	1.2334654757050885
110.0	308.65603359774923	rating	1.0		63	trustworthiness	141	1.0	1		2223.132837645997	0.5333935434873638
110.0	309.1894271412366	fix	2.0		60	trustworthiness	141	1.0	1	-0.7999999999999998	2223.6662311894843	0.5167504265973548
111.0	309.70617756783395	face	0.0		147	trustworthiness	126	1.0	1		2224.1829816160816	1.2334503829192727
111.0	310.9396279507532	rating	1.0		37	trustworthiness	126	1.0	1		2225.4164319990005	0.3167242255212841
111.0	311.2563521762745	fix	2.0		60	trustworthiness	126	1.0	1	0.41999999999999993	2225.7331562245217	0.5167308059758398
112.0	311.77308298225034	face	0.0		147	trustworthiness	012	1.0	1		2226.249887030498	1.2334567218890697
112.0	313.0065397041394	rating	1.0		111	trustworthiness	012	1.0	1		2227.4833437523866	0.9334510771873283
112.0	313.93999078132674	fix	2.0		60	trustworthiness	012	1.0	1	-0.27	2228.4167948295744	0.5167489173186368
113.0	314.4567396986454	face	0.0		147	trustworthiness	137	1.0	1		2228.9335437468926	1.2334506847751072
113.0	315.6901903834205	rating	1.0		40	trustworthiness	137	1.0	1		2230.166994431668	0.34170459735287295
113.0	316.03189498077336	fix	2.0		60	trustworthiness	137	1.0	1	0.33000000000000007	2230.508699029021	0.5167519358765276
114.0	316.5486469166499	face	0.0		147	trustworthiness	092	1.0	1		2231.0254509648976	1.2334654757046337
114.0	317.7821123923545	rating	1.0		60	trustworthiness	092	1.0	1		2232.2589164406018	0.5083929473225908
114.0	318.2905053396771	fix	2.0		60	trustworthiness	092	1.0	1	0.41999999999999993	2232.767309387925	0.5167474080403736
115.0	318.8072527477175	face	0.0		147	trustworthiness	044	1.0	1		2233.2840567959647	1.2334624571476525
115.0	320.04071520486514	rating	1.0		73	trustworthiness	044	1.0	1		2234.5175192531124	0.6167443592976269
115.0	320.65745956416276	fix	2.0		60	trustworthiness	044	1.0	1	0.1900000000000004	2235.13426361241	0.5167413709259563
116.0	321.1742009350887	face	0.0		147	trustworthiness	064	1.0	1		2235.651004983336	1.2334527977650396
116.0	322.40765373285376	rating	1.0		41	trustworthiness	064	1.0	1		2236.8844577811014	0.3500370226038285
116.0	322.7576907554576	fix	2.0		60	trustworthiness	064	1.0	1	-0.9900000000000002	2237.2344948037053	0.5167528414431217
117.0	323.2744435969007	face	0.0		147	trustworthiness	124	1.0	1		2237.7512476451484	1.233455514466641
117.0	324.50789911136735	rating	1.0		66	trustworthiness	124	1.0	1		2238.9847031596146	0.5584065157368059
117.0	325.06630562710416	fix	2.0		60	trustworthiness	124	1.0	1	0.3099999999999996	2239.543109675352	0.5167501247415203
118.0	325.5830557518457	face	0.0		147	trustworthiness	009	1.0	1		2240.0598598000934	1.2334494773522238
118.0	326.8165052291979	rating	1.0		74	trustworthiness	009	1.0	1		2241.2933092774456	0.6250807086726127
118.0	327.4415859378705	fix	2.0		60	trustworthiness	009	1.0	1	2.01	2241.918389986118	0.5167443894829375
119.0	327.95833032735345	face	0.0		147	trustworthiness	101	1.0	1		2242.4351343756007	1.2334576274565734
119.0	329.19178795481	rating	1.0		125	trustworthiness	101	1.0	1		2243.6685920030577	1.0501297828659517
119.0	330.241917737676	fix	2.0		60	trustworthiness	101	1.0	1	0.09999999999999964	2244.7187217859237	0.5000611257833043
120.0	330.7419788634593	cue	0.0		3600						2245.2187829117065	30.003538352731084
120.0	360.74551721619036	fix	1.0		120						2275.2223212644376	1.0001195348640977
120.0	361.74563675105446	cue	0.0		480						2276.2224407993017	4.000496552656841
120.0	365.7461333037113	fix	1.0		120						2280.2229373519585	1.0167922336145239
120.0	366.7629255373258	face	0.0		147	trustworthiness	092	2.0	1		2281.2397295855735	1.2334615515810583
120.0	367.9963870889069	rating	1.0		56	trustworthiness	092	2.0	1		2282.4731911371546	0.47505087023455417
120.0	368.47143795914144	fix	2.0		60	trustworthiness	092	2.0	1	0.2699999999999996	2282.948242007389	0.5167498228861405
121.0	368.9881877820276	face	0.0		147	trustworthiness	121	2.0	1		2283.464991830275	1.233457929312408
121.0	370.22164571134	rating	1.0		43	trustworthiness	121	2.0	1		2284.6984497595877	0.36670157124945035
121.0	370.58834728258944	fix	2.0		60	trustworthiness	121	2.0	1	-1.88	2285.0651513308367	0.516748615463257
122.0	371.1050958980527	face	0.0		147	trustworthiness	137	2.0	1		2285.5818999463	1.2334669849833517
122.0	372.33856288303605	rating	1.0		117	trustworthiness	137	2.0	1		2286.8153669312833	0.9834417045672126
122.0	373.32200458760326	fix	2.0		60	trustworthiness	137	2.0	1	0.16000000000000014	2287.798808635851	0.5167573692792757
123.0	373.83876195688254	face	0.0		147	trustworthiness	042	2.0	1		2288.3155660051298	1.233458834879002
123.0	375.07222079176154	rating	1.0		44	trustworthiness	042	2.0	1		2289.549024840009	0.3750415428935412
123.0	375.4472623346551	fix	2.0		60	trustworthiness	042	2.0	1	-0.8799999999999999	2289.9240663829023	0.5167929882536555
124.0	375.96405532290873	face	0.0		147	trustworthiness	124	2.0	1		2290.440859371156	1.2334135565215547
124.0	377.1974688794303	rating	1.0		50	trustworthiness	124	2.0	1		2291.6742729276775	0.42504997976038794
124.0	377.6225188591907	fix	2.0		60	trustworthiness	124	2.0	1	1.0099999999999998	2292.0993229074384	0.5167507284536441
125.0	378.1392695876443	face	0.0		147	trustworthiness	061	2.0	1		2292.6160736358916	1.2334582311677877
125.0	379.3727278188121	rating	1.0		105	trustworthiness	061	2.0	1		2293.8495318670593	0.8834695054788426
125.0	380.25619732429095	fix	2.0		60	trustworthiness	061	2.0	1	-0.33000000000000007	2294.7330013725386	0.5167120909213736
126.0	380.7729094152123	face	0.0		147	trustworthiness	136	2.0	1		2295.2497134634596	1.2334564200332352
126.0	382.00636583524556	rating	1.0		45	trustworthiness	136	2.0	1		2296.4831698834932	0.38338362752710964
126.0	382.38974946277267	fix	2.0		60	trustworthiness	136	2.0	1	-0.4700000000000002	2296.8665535110204	0.5167425783488397
127.0	382.9064920411215	face	0.0		147	trustworthiness	126	2.0	1		2297.3832960893687	1.233458834879002
127.0	384.1399508760005	rating	1.0		42	trustworthiness	126	2.0	1		2298.616754924248	0.35837820167034806
127.0	384.49832907767086	fix	2.0		60	trustworthiness	126	2.0	1	0.05999999999999961	2298.9751331259185	0.5167495210307607
128.0	385.0150785987016	face	0.0		147	trustworthiness	117	2.0	1		2299.4918826469493	1.2334615515806036
128.0	386.2485401502822	rating	1.0		62	trustworthiness	117	2.0	1		2300.7253441985295	0.5250608163805737
128.0	386.7736009666628	fix	2.0		60	trustworthiness	117	2.0	1	-2.2800000000000002	2301.25040501491	0.516751634020693
129.0	387.2903526006835	face	0.0		147	trustworthiness	130	2.0	1		2301.7671566489307	1.2334561181778554
129.0	388.52380871886135	rating	1.0		70	trustworthiness	130	2.0	1		2303.0006127671086	0.5917307833365157
129.0	389.11553950219786	fix	2.0		60	trustworthiness	130	2.0	1	-3.38	2303.5923435504455	0.5167567655676066
130.0	389.63229626776547	face	0.0		147	trustworthiness	070	2.0	1		2304.1091003160127	1.2334506847746525
130.0	390.8657469525401	rating	1.0		57	trustworthiness	070	2.0	1		2305.3425510007874	0.4833914455903141
130.0	391.34913839813044	fix	2.0		60	trustworthiness	070	2.0	1	-0.56	2305.8259424463777	0.5167477098962081
131.0	391.86588610802664	face	0.0		147	trustworthiness	100	2.0	1		2306.3426901562743	1.2334654757050885
131.0	393.09935158373173	rating	1.0		44	trustworthiness	100	2.0	1		2307.5761556319794	0.375040335470203
131.0	393.47439191920193	fix	2.0		60	trustworthiness	100	2.0	1	0.41000000000000014	2307.951195967449	0.5167507284531894
132.0	393.9911426476551	face	0.0		147	trustworthiness	011	2.0	1		2308.4679466959024	1.2334527977650396
132.0	395.22459544542016	rating	1.0		47	trustworthiness	011	2.0	1		2309.701399493668	0.4000463650381789
132.0	395.62464181045834	fix	2.0		60	trustworthiness	011	2.0	1	0.5999999999999996	2310.101445858706	0.5167576711346555
133.0	396.141399481593	face	0.0		147	trustworthiness	036	2.0	1		2310.6182035298407	1.2334530996208741
133.0	397.3748525812139	rating	1.0		45	trustworthiness	036	2.0	1		2311.851656629461	0.38337306257653836
133.0	397.7582256437904	fix	2.0		60	trustworthiness	036	2.0	1	0.4400000000000004	2312.2350296920376	0.5167534451547908
134.0	398.2749790889452	face	0.0		147	trustworthiness	172	2.0	1		2312.7517831371924	1.2334570237449043
134.0	399.5084361126901	rating	1.0		135	trustworthiness	172	2.0	1		2313.985240160938	1.1335107842483012
134.0	400.6419468969384	fix	2.0		60	trustworthiness	172	2.0	1	-1.0899999999999999	2315.1187509451856	0.5167036389611894
135.0	401.1586505358996	face	0.0		147	trustworthiness	038	2.0	1		2315.635454584147	1.233465173849254
135.0	402.39211570974885	rating	1.0		36	trustworthiness	038	2.0	1		2316.868919757996	0.30836070913164804
135.0	402.7004764188805	fix	2.0		60	trustworthiness	038	2.0	1	0.0	2317.177280467128	0.5167540488664599
136.0	403.21723046774696	face	0.0		147	trustworthiness	062	2.0	1		2317.6940345159946	1.233462155291818
136.0	404.4506926230388	rating	1.0		105	trustworthiness	062	2.0	1		2318.9274966712865	0.883436301349775
136.0	405.33412892438855	fix	2.0		60	trustworthiness	062	2.0	1	0.0	2319.810932972636	0.5167431820605088
137.0	405.85087210644906	face	0.0		147	trustworthiness	034	2.0	1		2320.3276761546967	1.233465173849254
137.0	407.0843372802983	rating	1.0		96	trustworthiness	034	2.0	1		2321.561141328546	0.8084305887305163
137.0	407.89276786902883	fix	2.0		60	trustworthiness	034	2.0	1	0.0	2322.3695719172765	0.5167474080403736
138.0	408.4095152770692	face	0.0		147	trustworthiness	027	2.0	1		2322.8863193253164	1.233457325600284
138.0	409.6429726026695	rating	1.0		101	trustworthiness	027	2.0	1		2324.1197766509167	0.8500960353967457
138.0	410.49306863806623	fix	2.0		60	trustworthiness	027	2.0	1	0.28000000000000025	2324.9698726863135	0.516753143299411
139.0	411.00982178136564	face	0.0		147	trustworthiness	006	2.0	1		2325.4866258296133	1.233459740446051
139.0	412.2432815218117	rating	1.0		90	trustworthiness	006	2.0	1		2326.7200855700594	0.7584121906243126
139.0	413.001693712436	fix	2.0		60	trustworthiness	006	2.0	1	0.16999999999999993	2327.4784977606832	0.5167612934037606
140.0	413.51845500583977	face	0.0		147	trustworthiness	033	2.0	1		2327.995259054087	1.2334500810629834
140.0	414.75190508690275	rating	1.0		86	trustworthiness	033	2.0	1		2329.22870913515	0.7250915452932531
140.0	415.476996632196	fix	2.0		60	trustworthiness	033	2.0	1	-1.5899999999999999	2329.9538006804432	0.516747106184539
141.0	415.99374373838054	face	0.0		147	trustworthiness	030	2.0	1		2330.4705477866282	1.2334530996204194
141.0	417.22719683800096	rating	1.0		96	trustworthiness	030	2.0	1		2331.7040008862487	0.8084272683177005
141.0	418.03562410631866	fix	2.0		60	trustworthiness	030	2.0	1	0.09999999999999964	2332.512428154566	0.5167540488660052
142.0	418.55237815518467	face	0.0		147	trustworthiness	005	2.0	1		2333.0291822034324	1.2334612497252238
142.0	419.7858394049099	rating	1.0		76	trustworthiness	005	2.0	1		2334.2626434531576	0.6417328812340202
142.0	420.4275722861439	fix	2.0		60	trustworthiness	005	2.0	1	-0.5899999999999999	2334.9043763343916	0.5167507284531894
143.0	420.9443230145971	face	0.0		147	trustworthiness	012	2.0	1		2335.421127062845	1.2334908315851862
143.0	422.1778138461823	rating	1.0		70	trustworthiness	012	2.0	1		2336.65461789443	0.5917123701378841
143.0	422.7695262163202	fix	2.0		60	trustworthiness	012	2.0	1	-0.5800000000000001	2337.2463302645674	0.5167504265978096
144.0	423.286276642918	face	0.0		147	trustworthiness	101	2.0	1		2337.7630806911657	1.2334564200332352
144.0	424.5197330629512	rating	1.0		52	trustworthiness	101	2.0	1		2338.9965371111984	0.44171724510761123
144.0	424.96145030805883	fix	2.0		60	trustworthiness	101	2.0	1	0.4500000000000002	2339.438254356306	0.5167477098962081
145.0	425.47819801795504	face	0.0		147	trustworthiness	009	2.0	1		2339.9550020662027	1.233454005187923
145.0	426.71165202314296	rating	1.0		64	trustworthiness	009	2.0	1		2341.1884560713906	0.5417292891506804
145.0	427.25338131229364	fix	2.0		60	trustworthiness	009	2.0	1	2.4299999999999997	2341.7301853605413	0.5167510303090239
146.0	427.77013234260266	face	0.0		147	trustworthiness	024	2.0	1		2342.2469363908504	1.2334609478693892
146.0	429.00359329047205	rating	1.0		77	trustworthiness	024	2.0	1		2343.4803973387197	0.6500764751463066
146.0	429.65366976561836	fix	2.0		60	trustworthiness	024	2.0	1	-2.1	2344.130473813866	0.5167468043287045
147.0	430.17041656994706	face	0.0		147	trustworthiness	044	2.0	1		2344.6472206181943	1.233454910754972
147.0	431.40387148070204	rating	1.0		60	trustworthiness	044	2.0	1		2345.8806755289497	0.5083941547450195
147.0	431.91226563544706	fix	2.0		60	trustworthiness	044	2.0	1	0.08999999999999986	2346.3890696836943	0.5167567655680614
148.0	432.4290224010151	face	0.0		147	trustworthiness	091	2.0	1		2346.9058264492623	1.2334576274561186
148.0	433.66248002847124	rating	1.0		124	trustworthiness	091	2.0	1		2348.1392840767185	1.041782264829635
148.0	434.70426229330087	fix	2.0		60	trustworthiness	091	2.0	1	0.13999999999999968	2349.181066341548	0.5167477098962081
149.0	435.2210100031971	face	0.0		147	trustworthiness	066	2.0	1		2349.6978140514448	1.2334666831275172
149.0	436.4544766863246	rating	1.0		60	trustworthiness	066	2.0	1		2350.9312807345723	0.5083938528896397
149.0	436.96287053921424	fix	2.0		60	trustworthiness	066	2.0	1	-1.46	2351.439674587462	0.5167978179451893
150.0	437.4796683571594	face	0.0		147	trustworthiness	082	2.0	1		2351.956472405407	1.233403897138487
150.0	438.7130722542979	rating	1.0		119	trustworthiness	082	2.0	1		2353.1898763025456	1.00011742187462
150.0	439.71318967617253	fix	2.0		60	trustworthiness	082	2.0	1	0.9400000000000004	2354.1899937244198	0.5167465024733247
151.0	440.22993617864586	face	0.0		147	trustworthiness	064	2.0	1		2354.706740226893	1.2334669849833517
151.0	441.4634031636292	rating	1.0		112	trustworthiness	064	2.0	1		2355.9402072118764	0.941767805940799
151.0	442.40517096957	fix	2.0		60	trustworthiness	064	2.0	1	0.6900000000000004	2356.8819750178172	0.5167446913387721
152.0	442.9219156609088	face	0.0		147	trustworthiness	099	2.0	1		2357.3987197091565	1.2334733239536035
152.0	444.1553889848624	rating	1.0		165	trustworthiness	099	2.0	1		2358.6321930331096	1.3834935030085944
152.0	445.538882487871	fix	2.0		60	trustworthiness	099	2.0	1	1.0300000000000002	2360.0156865361187	0.5167513321648585
153.0	446.05563382003584	face	0.0		147	trustworthiness	144	2.0	1		2360.5324378682835	1.2335053206597877
153.0	447.2891391406956	rating	1.0		49	trustworthiness	144	2.0	1		2361.7659431889433	0.41666110749019936
153.0	447.7058002481858	fix	2.0		60	trustworthiness	144	2.0	1	0.3200000000000003	2362.182604296433	0.5167471061849938
154.0	448.2225473543708	face	0.0		147	trustworthiness	043	2.0	1		2362.699351402618	1.2334654757046337
154.0	449.45601283007545	rating	1.0		64	trustworthiness	043	2.0	1		2363.932816878323	0.5417486079172704
154.0	449.9977614379927	fix	2.0		60	trustworthiness	043	2.0	1	-0.08000000000000007	2364.47456548624	0.5167335226769865
155.0	450.5144949606697	face	0.0		147	trustworthiness	087	2.0	1		2364.991299008917	1.2334552126103517
155.0	451.74795017328006	rating	1.0		44	trustworthiness	087	2.0	1		2366.2247542215273	0.3750376187690563
155.0	452.1229877920491	fix	2.0		60	trustworthiness	087	2.0	1	-0.3599999999999999	2366.5997918402963	0.5167573692797305
156.0	452.63974516132885	face	0.0		147	trustworthiness	141	2.0	1		2367.116549209576	1.2334594385902165
156.0	453.87320459991906	rating	1.0		168	trustworthiness	141	2.0	1		2368.3500086481663	1.4084937973175329
156.0	455.2816983972366	fix	2.0		60	trustworthiness	141	2.0	1	0.0	2369.758502445484	0.5167504265982643
157.0	455.79844882383486	face	0.0		147	trustworthiness	102	2.0	1		2370.275252872082	1.2334618534359834
157.0	457.03191067727084	rating	1.0		71	trustworthiness	102	2.0	1		2371.508714725518	0.6000680382785504
157.0	457.6319787155494	fix	2.0		60	trustworthiness	102	2.0	1	0.0	2372.1087827637966	0.5167443894833923
158.0	458.1487231050328	face	0.0		147	trustworthiness	039	2.0	1		2372.62552715328	1.2334582311677877
158.0	459.3821813362006	rating	1.0		145	trustworthiness	039	2.0	1		2373.858985384448	1.2168525443876206
158.0	460.5990338805882	fix	2.0		60	trustworthiness	039	2.0	1	2.4400000000000004	2375.0758379288354	0.5167142039108512
159.0	461.11574808449905	face	0.0		147	trustworthiness	018	2.0	1		2375.5925521327463	1.2334530996204194
159.0	462.34920118411947	rating	1.0		58	trustworthiness	018	2.0	1		2376.8260052323667	0.49172719125363074
159.0	462.8409283753731	fix	2.0		60	trustworthiness	018	2.0	1	0.7699999999999996	2377.3177324236203	0.5000532775347892
160.0	463.3409816529079	cue	0.0		480						2377.817785701155	4.000481761726405
160.0	467.3414634146343	fix	1.0		120						2381.8182674628815	1.0168055152662419
160.0	468.35826892990053	face	0.0		147	attractiveness	038	2.0	1		2382.8350729781478	1.2334763425105848
160.0	469.5917452724111	rating	1.0		80	attractiveness	038	2.0	1		2384.0685493206583	0.6750550358437977
160.0	470.2668003082549	fix	2.0		60	attractiveness	038	2.0	1	-3.61	2384.743604356502	0.5167513321648585
161.0	470.7835516404198	face	0.0		147	attractiveness	018	2.0	1		2385.260355688667	1.2334561181778554
161.0	472.01700775859763	rating	1.0		64	attractiveness	018	2.0	1		2386.493811806845	0.5417320058522819
161.0	472.5587397644499	fix	2.0		60	attractiveness	018	2.0	1	-2.35	2387.035543812697	0.5167543507222945
162.0	473.0754941151722	face	0.0		147	attractiveness	024	2.0	1		2387.5522981634194	1.233456721888615
162.0	474.3089508370608	rating	1.0		90	attractiveness	024	2.0	1		2388.785754885308	0.758415511038038
162.0	475.06736634809886	fix	2.0		60	attractiveness	024	2.0	1	-3.0	2389.544170396346	0.5167501247415203
163.0	475.5841164728404	face	0.0		147	attractiveness	066	2.0	1		2390.0609205210876	1.233459136734382
163.0	476.81757560957476	rating	1.0		60	attractiveness	066	2.0	1		2391.294379657822	0.5083929473230455
163.0	477.3259685568978	fix	2.0		60	attractiveness	066	2.0	1	0.5099999999999998	2391.802772605145	0.5167833288705879
164.0	477.8427518857684	face	0.0		147	attractiveness	064	2.0	1		2392.3195559340156	1.233429856730254
164.0	479.07618174249865	rating	1.0		44	attractiveness	064	2.0	1		2393.552985790746	0.3750442595946879
164.0	479.45122600209334	fix	2.0		60	attractiveness	064	2.0	1	0.2400000000000002	2393.9280300503406	0.5167468043291592
165.0	479.9679728064225	face	0.0		147	attractiveness	117	2.0	1		2394.4447768546697	1.2334624571476525
165.0	481.20143526357015	rating	1.0		95	attractiveness	117	2.0	1		2395.6782393118174	0.8000924282205233
165.0	482.00152769179067	fix	2.0		60	attractiveness	117	2.0	1	0.28000000000000025	2396.478331740038	0.516763406393693
166.0	482.51829109818436	face	0.0		147	attractiveness	082	2.0	1		2396.9950951464316	1.2334464587947878
166.0	483.75173755697915	rating	1.0		58	attractiveness	082	2.0	1		2398.2285416052264	0.49171360774653294
166.0	484.2434511647257	fix	2.0		60	attractiveness	082	2.0	1	0.8799999999999999	2398.720255212973	0.5167492191749261
167.0	484.7602003839006	face	0.0		147	attractiveness	070	2.0	1		2399.237004432148	1.2334606460135547
167.0	485.99366102991416	rating	1.0		41	attractiveness	070	2.0	1		2400.4704650781614	0.3500463801310616
167.0	486.3437074100452	fix	2.0		60	attractiveness	070	2.0	1	-1.2799999999999998	2400.8205114582925	0.5167827251589188
168.0	486.86049013520415	face	0.0		147	attractiveness	172	2.0	1		2401.3372941834514	1.2334238196162914
168.0	488.09391395482044	rating	1.0		70	attractiveness	172	2.0	1		2402.5707180030677	0.5917371223067676
168.0	488.6856510771272	fix	2.0		60	attractiveness	172	2.0	1	-3.49	2403.1624551253744	0.5167462006174901
169.0	489.2023972777447	face	0.0		147	attractiveness	042	2.0	1		2403.679201325992	1.2334561181778554
169.0	490.43585339592255	rating	1.0		125	attractiveness	042	2.0	1		2404.91265744417	1.050122538328651
169.0	491.4859759342512	fix	2.0		60	attractiveness	042	2.0	1	-0.18999999999999995	2405.9627799824984	0.5167492191749261
170.0	492.0027251534261	face	0.0		147	attractiveness	141	2.0	1		2406.4795292016734	1.233459740446051
170.0	493.2361848938722	rating	1.0		61	attractiveness	141	2.0	1		2407.7129889421194	0.5167253725730916
170.0	493.75291026644527	fix	2.0		60	attractiveness	141	2.0	1	-0.54	2408.2297143146925	0.5167612934037606
171.0	494.26967155984903	face	0.0		147	attractiveness	130	2.0	1		2408.7464756080963	1.2334470625055474
171.0	495.5031186223546	rating	1.0		88	attractiveness	130	2.0	1		2409.979922670602	0.7417603199191944
171.0	496.2448789422738	fix	2.0		60	attractiveness	130	2.0	1	-1.42	2410.721682990521	0.5167431820600541
172.0	496.7616221243338	face	0.0		147	attractiveness	044	2.0	1		2411.238426172581	1.2334579293119532
172.0	497.9950800536458	rating	1.0		87	attractiveness	044	2.0	1		2412.471884101893	0.7334188389968403
172.0	498.7284988926426	fix	2.0		60	attractiveness	044	2.0	1	-0.22999999999999998	2413.20530294089	0.5167567655671519
173.0	499.24525565820977	face	0.0		147	attractiveness	091	2.0	1		2413.722059706457	1.2334515903421561
173.0	500.4787072485519	rating	1.0		49	attractiveness	091	2.0	1		2414.955511296799	0.4167181582215562
173.0	500.8954254067735	fix	2.0		60	attractiveness	091	2.0	1	0.7599999999999998	2415.3722294550207	0.516745596905821
174.0	501.4121710036793	face	0.0		147	attractiveness	005	2.0	1		2415.8889750519265	1.2334648719934194
174.0	502.6456358756727	rating	1.0		65	attractiveness	005	2.0	1		2417.12243992392	0.5500592995558691
174.0	503.1956951752286	fix	2.0		60	attractiveness	005	2.0	1	-3.61	2417.672499223476	0.516748313608332
175.0	503.7124434888369	face	0.0		147	attractiveness	012	2.0	1		2418.189247537084	1.2334666831275172
175.0	504.94591017196444	rating	1.0		146	attractiveness	012	2.0	1		2419.4227142202117	1.2251448228271329
175.0	506.1710549947916	fix	2.0		60	attractiveness	012	2.0	1	1.9400000000000004	2420.647859043039	0.5167471061849938
176.0	506.68780210097657	face	0.0		147	attractiveness	034	2.0	1		2421.164606149224	1.2334512884863216
176.0	507.9212533894629	rating	1.0		115	attractiveness	034	2.0	1		2422.39805743771	0.9667789670556886
176.0	508.8880323565186	fix	2.0		60	attractiveness	034	2.0	1	-0.06000000000000005	2423.364836404766	0.5167576711346555
177.0	509.40479002765323	face	0.0		147	attractiveness	101	2.0	1		2423.8815940759005	1.2334524959087503
177.0	510.638242523562	rating	1.0		61	attractiveness	101	2.0	1		2425.115046571809	0.5167609915479261
177.0	511.1550035151099	fix	2.0		60	attractiveness	101	2.0	1	1.0099999999999998	2425.631807563357	0.5167208447373923
178.0	511.6717243598473	face	0.0		147	attractiveness	039	2.0	1		2426.1485284080945	1.2334588348794568
178.0	512.9051831947268	rating	1.0		164	attractiveness	039	2.0	1		2427.381987242974	1.3751613796130187
178.0	514.2803445743398	fix	2.0		60	attractiveness	039	2.0	1	2.6399999999999997	2428.757148622587	0.5167422764934599
179.0	514.7970868508332	face	0.0		147	attractiveness	092	2.0	1		2429.2738908990805	1.23346034415772
179.0	516.030547194991	rating	1.0		165	attractiveness	092	2.0	1		2430.507351243238	1.3835209718790793
179.0	517.41406816687	fix	2.0		60	attractiveness	092	2.0	1	-2.51	2431.8908722151173	0.516727787417949
180.0	517.930795954288	face	0.0		147	attractiveness	102	2.0	1		2432.407600002535	1.2334606460135547
180.0	519.1642566003015	rating	1.0		70	attractiveness	102	2.0	1		2433.641060648549	0.5917350093168352
180.0	519.7559916096184	fix	2.0		60	attractiveness	102	2.0	1	-2.33	2434.2327956578656	0.5167525395881967
181.0	520.2727441492066	face	0.0		147	attractiveness	136	2.0	1		2434.749548197454	1.233450382918818
181.0	521.5061945321254	rating	1.0		117	attractiveness	136	2.0	1		2435.9829985803726	0.9834456286916975
181.0	522.4896401608171	fix	2.0		60	attractiveness	136	2.0	1	-3.0300000000000002	2436.9664442090643	0.5167582748463246
182.0	523.0063984356634	face	0.0		147	attractiveness	027	2.0	1		2437.4832024839106	1.2334588348785473
182.0	524.239857270542	rating	1.0		56	attractiveness	027	2.0	1		2438.716661318789	0.47505268136956147
182.0	524.7149099519115	fix	2.0		60	attractiveness	027	2.0	1	1.37	2439.1917140001588	0.5167597841245879
183.0	525.2316697360361	face	0.0		147	attractiveness	137	2.0	1		2439.7084737842833	1.2334512884863216
183.0	526.4651210245224	rating	1.0		262	attractiveness	137	2.0	1		2440.9419250727697	2.191922280604558
183.0	528.657043305127	fix	2.0		60	attractiveness	137	2.0	1	1.0999999999999996	2443.133847353374	0.5167425783492945
184.0	529.1737858834763	face	0.0		147	attractiveness	033	2.0	1		2443.6505899317235	1.233465777560923
184.0	530.4072516610372	rating	1.0		62	attractiveness	033	2.0	1		2444.8840557092844	0.5250538736991075
184.0	530.9323055347363	fix	2.0		60	attractiveness	033	2.0	1	1.4699999999999998	2445.4091095829835	0.5167561618563923
185.0	531.4490616965927	face	0.0		147	attractiveness	087	2.0	1		2445.92586574484	1.233454307042848
185.0	532.6825160036356	rating	1.0		36	attractiveness	087	2.0	1		2447.159320051883	0.3083748963508697
185.0	532.9908908999864	fix	2.0		60	attractiveness	087	2.0	1	0.0	2447.4676949482337	0.5167972142335202
186.0	533.50768811422	face	0.0		147	attractiveness	099	2.0	1		2447.984492162467	1.2334111416757878
186.0	534.7410992558957	rating	1.0		50	attractiveness	099	2.0	1		2449.217903304143	0.4250400185219405
186.0	535.1661392744177	fix	2.0		60	attractiveness	099	2.0	1	0.8200000000000003	2449.642943322665	0.5167570674229864
187.0	535.6828963418407	face	0.0		147	attractiveness	144	2.0	1		2450.159700390088	1.2334582311677877
187.0	536.9163545730084	rating	1.0		80	attractiveness	144	2.0	1		2451.3931586212557	0.6750725434758351
187.0	537.5914271164843	fix	2.0		60	attractiveness	144	2.0	1	0.5499999999999998	2452.0682311647315	0.5167522377314526
188.0	538.1081793542157	face	0.0		147	attractiveness	036	2.0	1		2452.584983402463	1.233459438591126
188.0	539.3416387928069	rating	1.0		70	attractiveness	036	2.0	1		2453.818442841054	0.5917380278742712
188.0	539.9333768206811	fix	2.0		60	attractiveness	036	2.0	1	1.4000000000000004	2454.4101808689284	0.5167501247415203
189.0	540.4501269454227	face	0.0		147	attractiveness	006	2.0	1		2454.92693099367	1.2334521940529157
189.0	541.6835791394756	rating	1.0		50	attractiveness	006	2.0	1		2456.160383187723	0.4250548094523765
189.0	542.108633948928	fix	2.0		60	attractiveness	006	2.0	1	-1.69	2456.585437997175	0.5167522377323621
190.0	542.6253861866603	face	0.0		147	attractiveness	121	2.0	1		2457.1021902349075	1.233456721888615
190.0	543.8588429085489	rating	1.0		89	attractiveness	121	2.0	1		2458.335646956796	0.7500870099111125
190.0	544.60892991846	fix	2.0		60	attractiveness	121	2.0	1	-2.31	2459.0857339667073	0.5167504265973548
191.0	545.1256803450574	face	0.0		147	attractiveness	011	2.0	1		2459.6024843933046	1.2334567218895245
191.0	546.3591370669469	rating	1.0		41	attractiveness	011	2.0	1		2460.835941115194	0.3500370226038285
191.0	546.7091740895507	fix	2.0		60	attractiveness	011	2.0	1	0.7000000000000002	2461.185978137798	0.5167969123776857
192.0	547.2259710019284	face	0.0		147	attractiveness	100	2.0	1		2461.7027750501757	1.2334177825014194
192.0	548.4593887844298	rating	1.0		60	attractiveness	100	2.0	1		2462.936192832677	0.5083820805166397
192.0	548.9677708649465	fix	2.0		60	attractiveness	100	2.0	1	1.12	2463.4445749131937	0.5167510303090239
193.0	549.4845218952555	face	0.0		147	attractiveness	062	2.0	1		2463.9613259435027	1.2334645701375848
193.0	550.7179864653931	rating	1.0		40	attractiveness	062	2.0	1		2465.1947905136403	0.3417061066320457
193.0	551.0596925720251	fix	2.0		60	attractiveness	062	2.0	1	-0.06999999999999984	2465.5364966202724	0.5167446913392268
194.0	551.5764372633644	face	0.0		147	attractiveness	043	2.0	1		2466.0532413116116	1.2334642682817503
194.0	552.8099015316461	rating	1.0		54	attractiveness	043	2.0	1		2467.2867055798934	0.45837726591798855
194.0	553.2682787975641	fix	2.0		60	attractiveness	043	2.0	1	-0.18999999999999995	2467.7450828458113	0.5167522377314526
195.0	553.7850310352956	face	0.0		147	attractiveness	061	2.0	1		2468.261835083543	1.2334760406556597
195.0	555.0185070759512	rating	1.0		52	attractiveness	061	2.0	1		2469.4953111241985	0.4416985300531451
195.0	555.4602056060044	fix	2.0		60	attractiveness	061	2.0	1	-0.9500000000000002	2469.9370096542516	0.5167582748463246
196.0	555.9769638808507	face	0.0		147	attractiveness	009	2.0	1		2470.453767929098	1.233459136734382
196.0	557.2104230175851	rating	1.0		70	attractiveness	009	2.0	1		2471.6872270658323	0.5917748542715344
196.0	557.8021978718566	fix	2.0		60	attractiveness	009	2.0	1	2.67	2472.279001920104	0.5167078649419636
197.0	558.3189057367986	face	0.0		147	attractiveness	030	2.0	1		2472.795709785046	1.233454307042848
197.0	559.5523600438414	rating	1.0		58	attractiveness	030	2.0	1		2474.0291640920886	0.4917217578513373
197.0	560.0440818016928	fix	2.0		60	attractiveness	030	2.0	1	0.6600000000000001	2474.52088584994	0.5167513321648585
198.0	560.5608331338576	face	0.0		147	attractiveness	124	2.0	1		2475.037637182105	1.233456118176946
198.0	561.7942892520346	rating	1.0		85	attractiveness	124	2.0	1		2476.271093300282	0.716750064370899
198.0	562.5110393164055	fix	2.0		60	attractiveness	124	2.0	1	3.24	2476.9878433646527	0.5167531432989563
199.0	563.0277924597044	face	0.0		147	attractiveness	126	2.0	1		2477.5045965079516	1.2334639664268252
199.0	564.2612564261312	rating	1.0		53	attractiveness	126	2.0	1		2478.7380604743785	0.4500430295329352
199.0	564.7112994556642	fix	2.0		60	attractiveness	126	2.0	1	0.9299999999999997	2479.1881035039114	0.5000810482597444
200.0	565.2113805039239	cue	0.0		480						2479.688184552171	4.000451878010608
200.0	569.2118323819345	fix	1.0		120						2483.6886364301818	1.0168109486694448
200.0	570.228643330604	face	0.0		147	dominance	006	2.0	1		2484.705447378851	1.2334579293119532
200.0	571.4621012599159	rating	1.0		99	dominance	006	2.0	1		2485.938905308163	0.833427562626639
200.0	572.2955288225426	fix	2.0		60	dominance	006	2.0	1	-2.24	2486.77233287079	0.5167621989703548
201.0	572.8122910215129	face	0.0		147	dominance	033	2.0	1		2487.28909506976	1.2334494773522238
201.0	574.0457404988651	rating	1.0		130	dominance	033	2.0	1		2488.5225445471124	1.0918039833486546
201.0	575.1375444822138	fix	2.0		60	dominance	033	2.0	1	2.51	2489.614348530461	0.5167365412344225
202.0	575.6542810234482	face	0.0		147	dominance	043	2.0	1		2490.1310850716955	1.233459136734382
202.0	576.8877401601826	rating	1.0		51	dominance	043	2.0	1		2491.36454420843	0.43339115882736223
202.0	577.32113131901	fix	2.0		60	dominance	043	2.0	1	-0.3500000000000001	2491.797935367257	0.5167492191749261
203.0	577.8378805381849	face	0.0		147	dominance	062	2.0	1		2492.314684586432	1.233459740446051
203.0	579.0713402786309	rating	1.0		61	dominance	062	2.0	1		2493.548144326878	0.5167262781405952
203.0	579.5880665567715	fix	2.0		60	dominance	062	2.0	1	1.63	2494.0648706050188	0.5167594822687533
204.0	580.1048260390403	face	0.0		147	dominance	039	2.0	1		2494.5816300872875	1.2334413272474194
204.0	581.3382673662877	rating	1.0		58	dominance	039	2.0	1		2495.815071414535	0.49172538011953293
204.0	581.8299927464072	fix	2.0		60	dominance	039	2.0	1	-2.62	2496.3067967946545	0.5167483136074225
205.0	582.3467410600147	face	0.0		147	dominance	130	2.0	1		2496.823545108262	1.2334663812725921
205.0	583.5802074412873	rating	1.0		161	dominance	130	2.0	1		2498.0570114895345	1.3501562556120916
205.0	584.9303636968993	fix	2.0		60	dominance	130	2.0	1	-3.46	2499.4071677451466	0.5167413709259563
206.0	585.4471050678253	face	0.0		147	dominance	101	2.0	1		2499.9239091160725	1.2334663812725921
206.0	586.6805714490979	rating	1.0		62	dominance	101	2.0	1		2501.157375497345	0.5251091132959118
206.0	587.2056805623938	fix	2.0		60	dominance	101	2.0	1	2.3499999999999996	2501.682484610641	0.5166960925680542
207.0	587.7223766549619	face	0.0		147	dominance	136	2.0	1		2502.199180703209	1.2334636645709907
207.0	588.9558403195329	rating	1.0		53	dominance	136	2.0	1		2503.43264436778	0.4500454443777926
207.0	589.4058857639106	fix	2.0		60	dominance	136	2.0	1	1.3099999999999996	2503.882689812158	0.5167504265982643
208.0	589.9226361905089	face	0.0		147	dominance	141	2.0	1		2504.399440238756	1.2334564200327804
208.0	591.1560926105417	rating	1.0		64	dominance	141	2.0	1		2505.632896658789	0.5417311002856877
208.0	591.6978237108274	fix	2.0		60	dominance	141	2.0	1	-1.4100000000000001	2506.1746277590746	0.5167504265973548
209.0	592.2145741374247	face	0.0		147	dominance	034	2.0	1		2506.691378185672	1.2334588348794568
209.0	593.4480329723042	rating	1.0		39	dominance	034	2.0	1		2507.9248370205514	0.3333733795252556
209.0	593.7814063518294	fix	2.0		60	dominance	034	2.0	1	0.3799999999999999	2508.2582104000767	0.5167552562888886
210.0	594.2981616081183	face	0.0		147	dominance	011	2.0	1		2508.7749656563656	1.2334494773522238
210.0	595.5316110854706	rating	1.0		51	dominance	011	2.0	1		2510.008415133718	0.4333857254241593
210.0	595.9649968108947	fix	2.0		60	dominance	011	2.0	1	1.17	2510.441800859142	0.5167570674229864
211.0	596.4817538783177	face	0.0		147	dominance	121	2.0	1		2510.958557926565	1.2334546088995921
211.0	597.7152084872173	rating	1.0		50	dominance	121	2.0	1		2512.1920125354645	0.4250659781137074
211.0	598.140274465331	fix	2.0		60	dominance	121	2.0	1	1.79	2512.6170785135782	0.5167283911296181
212.0	598.6570028564606	face	0.0		147	dominance	030	2.0	1		2513.133806904708	1.2334639664268252
212.0	599.8904668228874	rating	1.0		59	dominance	030	2.0	1		2514.3672708711347	0.5000581072254136
212.0	600.3905249301129	fix	2.0		60	dominance	030	2.0	1	0.3600000000000003	2514.86732897836	0.5167413709259563
213.0	600.9072663010388	face	0.0		147	dominance	091	2.0	1		2515.384070349286	1.2334663812725921
213.0	602.1407326823114	rating	1.0		36	dominance	091	2.0	1		2516.6175367305586	0.30837006665842637
213.0	602.4491027489698	fix	2.0		60	dominance	091	2.0	1	0.0	2516.925906797217	0.516745295050896
214.0	602.9658480440207	face	0.0		147	dominance	066	2.0	1		2517.442652092268	1.2334642682817503
214.0	604.1993123123025	rating	1.0		73	dominance	066	2.0	1		2518.6761163605497	0.6167292665113564
214.0	604.8160415788138	fix	2.0		60	dominance	066	2.0	1	1.4699999999999998	2519.292845627061	0.5167561618563923
215.0	605.3327977406702	face	0.0		147	dominance	012	2.0	1		2519.8096017889175	1.2334503829197274
215.0	606.56624812359	rating	1.0		57	dominance	012	2.0	1		2521.043052171837	0.4833974827042766
215.0	607.0496456062942	fix	2.0		60	dominance	012	2.0	1	1.9400000000000004	2521.5264496545415	0.5167999309351217
216.0	607.5664455372294	face	0.0		147	dominance	027	2.0	1		2522.0432495854766	1.2334081231183518
216.0	608.7998536603477	rating	1.0		57	dominance	027	2.0	1		2523.276657708595	0.483390841878645
216.0	609.2832445022264	fix	2.0		60	dominance	027	2.0	1	1.9000000000000004	2523.7600485504736	0.5167483136074225
217.0	609.7999928158338	face	0.0		147	dominance	092	2.0	1		2524.276796864081	1.2334576274570281
217.0	611.0334504432908	rating	1.0		56	dominance	092	2.0	1		2525.510254491538	0.4750487572446218
217.0	611.5084992005354	fix	2.0		61	dominance	092	2.0	1	-1.12	2525.9853032487827	0.5250928130872126
218.0	612.0335920136226	face	0.0		146	dominance	036	2.0	1		2526.51039606187	1.2251179576678624
218.0	613.2587099712905	rating	1.0		43	dominance	036	2.0	1		2527.7355140195377	0.36671304176707054
218.0	613.6254230130576	fix	2.0		60	dominance	036	2.0	1	0.2400000000000002	2528.102227061305	0.5167501247415203
219.0	614.1421731377991	face	0.0		147	dominance	061	2.0	1		2528.6189771860463	1.2334500810638929
219.0	615.375623218863	rating	1.0		37	dominance	061	2.0	1		2529.85242726711	0.3167106420132768
219.0	615.6923338608763	fix	2.0		60	dominance	061	2.0	1	1.4100000000000001	2530.1691379091235	0.5167528414440312
220.0	616.2090867023203	face	0.0		147	dominance	100	2.0	1		2530.6858907505675	1.2334485717847201
220.0	617.442535274105	rating	1.0		75	dominance	100	2.0	1		2531.9193393223522	0.6334137376343278
220.0	618.0759490117393	fix	2.0		60	dominance	100	2.0	1	2.0300000000000002	2532.5527530599866	0.5167437857717232
221.0	618.5926927975111	face	0.0		147	dominance	172	2.0	1		2533.0694968457583	1.233465173849254
221.0	619.8261579713603	rating	1.0		73	dominance	172	2.0	1		2534.3029620196075	0.6167310776463637
221.0	620.4428890490067	fix	2.0		60	dominance	172	2.0	1	-3.09	2534.919693097254	0.516763406393693
222.0	620.9596524554004	face	0.0		147	dominance	024	2.0	1		2535.4364565036476	1.233450382918818
222.0	622.1931028383192	rating	1.0		52	dominance	024	2.0	1		2536.6699068865664	0.44171090613781416
222.0	622.634813744457	fix	2.0		60	dominance	024	2.0	1	-1.15	2537.1116177927042	0.5167582748463246
223.0	623.1515720193033	face	0.0		147	dominance	082	2.0	1		2537.6283760675506	1.2334506847746525
223.0	624.385022704078	rating	1.0		67	dominance	082	2.0	1		2538.861826752325	0.5667401484106449
223.0	624.9517628524886	fix	2.0		60	dominance	082	2.0	1	-0.31000000000000005	2539.428566900736	0.5167492191749261
224.0	625.4685120716636	face	0.0		147	dominance	009	2.0	1		2539.945316119911	1.233453401476254
224.0	626.7019654731398	rating	1.0		206	dominance	009	2.0	1		2541.178769521387	1.7252080615999148
224.0	628.4271735347397	fix	2.0		60	dominance	009	2.0	1	0.28000000000000025	2542.903977582987	0.5167818195923246
225.0	628.943955354332	face	0.0		147	dominance	042	2.0	1		2543.4207594025793	1.2334437420931863
225.0	630.1773990964252	rating	1.0		55	dominance	042	2.0	1		2544.6542031446725	0.46670274848656845
225.0	630.6441018449118	fix	2.0		60	dominance	042	2.0	1	0.9699999999999998	2545.120905893159	0.5167504265982643
226.0	631.1608522715101	face	0.0		147	dominance	005	2.0	1		2545.6376563197573	1.2334579293119532
226.0	632.394310200822	rating	1.0		56	dominance	005	2.0	1		2546.8711142490693	0.4750547943594938
226.0	632.8693649951815	fix	2.0		60	dominance	005	2.0	1	-1.0499999999999998	2547.3461690434287	0.5167519358756181
227.0	633.3861169310571	face	0.0		147	dominance	018	2.0	1		2547.8629209793044	1.233501094679923
227.0	634.619618025737	rating	1.0		82	dominance	018	2.0	1		2549.0964220739843	0.6916951341763706
227.0	635.3113131599134	fix	2.0		60	dominance	018	2.0	1	-3.12	2549.7881172081607	0.5167501247415203
228.0	635.828063284655	face	0.0		147	dominance	099	2.0	1		2550.304867332902	1.2334573256011936
228.0	637.0615206102561	rating	1.0		40	dominance	099	2.0	1		2551.5383246585034	0.34170640848697076
228.0	637.4032270187431	fix	2.0		60	dominance	099	2.0	1	0.7800000000000002	2551.8800310669903	0.5167564637122268
229.0	637.9199834824553	face	0.0		147	dominance	137	2.0	1		2552.3967875307026	1.2334591367352914
229.0	639.1534426191906	rating	1.0		52	dominance	137	2.0	1		2553.630246667438	0.4417187543858745
229.0	639.5951613735765	fix	2.0		60	dominance	137	2.0	1	1.1500000000000004	2554.0719654218237	0.5167935919653246
230.0	640.1119549655418	face	0.0		147	dominance	126	2.0	1		2554.588759013789	1.233408726830021
230.0	641.3453636923718	rating	1.0		63	dominance	126	2.0	1		2555.822167740619	0.5333947509097925
230.0	641.8787584432816	fix	2.0		60	dominance	126	2.0	1	1.5	2556.355562491529	0.5167468043291592
231.0	642.3955052476108	face	0.0		147	dominance	102	2.0	1		2556.872309295858	1.2334663812725921
231.0	643.6289716288834	rating	1.0		119	dominance	102	2.0	1		2558.1057756771306	1.0001086680586013
231.0	644.629080296942	fix	2.0		60	dominance	102	2.0	1	-0.04999999999999982	2559.105884345189	0.5167480117515879
232.0	645.1458283086936	face	0.0		147	dominance	038	2.0	1		2559.622632356941	1.2334684942625245
232.0	646.3792968029561	rating	1.0		86	dominance	038	2.0	1		2560.8561008512033	0.7250776599294113
232.0	647.1043744628855	fix	2.0		60	dominance	038	2.0	1	-0.020000000000000018	2561.5811785111327	0.5167543507222945
233.0	647.6211288136078	face	0.0		147	dominance	044	2.0	1		2562.097932861855	1.2334518921970812
233.0	648.8545807058049	rating	1.0		186	dominance	044	2.0	1		2563.331384754052	1.5585169949299598
233.0	650.4130977007349	fix	2.0		60	dominance	044	2.0	1	0.7300000000000004	2564.889901748982	0.5167531432989563
234.0	650.9298508440338	face	0.0		147	dominance	064	2.0	1		2565.406654892281	1.233463362715156
234.0	652.163314206749	rating	1.0		53	dominance	064	2.0	1		2566.640118254996	0.45005178334849916
234.0	652.6133659900975	fix	2.0		60	dominance	064	2.0	1	1.5300000000000002	2567.0901700383447	0.5167431820600541
235.0	653.1301091721575	face	0.0		147	dominance	070	2.0	1		2567.6069132204047	1.2334645701384943
235.0	654.363573742296	rating	1.0		89	dominance	070	2.0	1		2568.8403777905432	0.7500891229001354
235.0	655.1136628651961	fix	2.0		60	dominance	070	2.0	1	0.3099999999999996	2569.5904669134434	0.5167489173190916
236.0	655.6304117825152	face	0.0		147	dominance	087	2.0	1		2570.1072158307625	1.233459438591126
236.0	656.8638712211064	rating	1.0		70	dominance	087	2.0	1		2571.3406752693536	0.5917319907593992
236.0	657.4556032118658	fix	2.0		60	dominance	087	2.0	1	0.4299999999999997	2571.932407260113	0.5167522377323621
237.0	657.9723554495981	face	0.0		147	dominance	124	2.0	1		2572.4491594978454	1.2334579293119532
237.0	659.2058133789101	rating	1.0		52	dominance	124	2.0	1		2573.6826174271573	0.4417181506742054
237.0	659.6475315295843	fix	2.0		60	dominance	124	2.0	1	1.9800000000000004	2574.1243355778315	0.5167510303090239
238.0	660.1642825598933	face	0.0		147	dominance	144	2.0	1		2574.6410866081405	1.2334567218895245
238.0	661.3977392817828	rating	1.0		39	dominance	144	2.0	1		2575.87454333003	0.3333703609678196
238.0	661.7311096427507	fix	2.0		60	dominance	144	2.0	1	-0.6099999999999999	2576.207913690998	0.5167434839167981
239.0	662.2478531266675	face	0.0		147	dominance	117	2.0	1		2576.7246571749147	1.2334594385902165
239.0	663.4813125652577	rating	1.0		57	dominance	117	2.0	1		2577.958116613505	0.4833944641468406
239.0	663.9647070294045	fix	2.0		60	dominance	117	2.0	1	0.5300000000000002	2578.4415110776517	0.5000593146487518
