trial_nr	onset	event_type	phase	response	nr_frames	face_age	face_sex	face_eth	attractiveness	expression	face_id	sub_id	ses	run	trial_type	catch	rating_type	onset_abs	duration
-1.0	0.0604479344228821	fix	0.0		713													66.0595770833038	5.957963699544507
-1.0	0.7019681838996803	pulse	0.0	t														66.70109733278059	
-1.0	1.401945937200253	pulse	0.0	t														67.40107508608116	
-1.0	2.1019315387261486	pulse	0.0	t														68.10106068760706	
-1.0	2.8019159328327987	pulse	0.0	t														68.80104508171371	
-1.0	3.5019009306488442	pulse	0.0	t														69.50103007952976	
-1.0	4.2019076620108535	pulse	0.0	t														70.20103681089176	
-1.0	4.901890546843333	pulse	0.0	t														70.90101969572424	
-1.0	5.601859546354717	pulse	0.0	t														71.60098869523563	
0.0	6.018411633967389	face	0.0		144	40.0	female	west_asian	1.5777954635893354	neutral	038	sub-11	1.0	2.0	038_neutral	0.0		72.0175407828483	1.2333017693822512
0.0	6.301860240620499	pulse	0.0	t		40.0	female	west_asian	1.5777954635893354	neutral	038	sub-11	1.0	2.0	038_neutral	0.0		72.30098938950141	
0.0	7.001830749406054	pulse	0.0	t		40.0	female	west_asian	1.5777954635893354	neutral	038	sub-11	1.0	2.0	038_neutral	0.0		73.00095989828696	
0.0	7.25171340334964	fix	1.0		445	40.0	female	west_asian	1.5777954635893354	neutral	038	sub-11	1.0	2.0	038_neutral	0.0		73.25084255223055	3.758250220127593
0.0	7.701820878754006	pulse	1.0	t		40.0	female	west_asian	1.5777954635893354	neutral	038	sub-11	1.0	2.0	038_neutral	0.0		73.70095002763492	
0.0	8.40180134874754	pulse	1.0	t		40.0	female	west_asian	1.5777954635893354	neutral	038	sub-11	1.0	2.0	038_neutral	0.0		74.40093049762845	
0.0	9.101787855837756	pulse	1.0	t		40.0	female	west_asian	1.5777954635893354	neutral	038	sub-11	1.0	2.0	038_neutral	0.0		75.10091700471867	
0.0	9.801768929541595	pulse	1.0	t		40.0	female	west_asian	1.5777954635893354	neutral	038	sub-11	1.0	2.0	038_neutral	0.0		75.8008980784225	
0.0	10.501769925662302	pulse	1.0	t		40.0	female	west_asian	1.5777954635893354	neutral	038	sub-11	1.0	2.0	038_neutral	0.0		76.50089907454321	
1.0	11.009963623477233	face	0.0		146	19.0	male	white	3.2522881018702745	smiling	018	sub-11	1.0	2.0	018_smiling	0.0		77.00909277235814	1.2416519789148879
1.0	11.20174707525348	pulse	0.0	t		19.0	male	white	3.2522881018702745	smiling	018	sub-11	1.0	2.0	018_smiling	0.0		77.20087622413439	
1.0	11.9017450528263	pulse	0.0	t		19.0	male	white	3.2522881018702745	smiling	018	sub-11	1.0	2.0	018_smiling	0.0		77.90087420170721	
1.0	12.251615602392121	fix	1.0		445	19.0	male	white	3.2522881018702745	smiling	018	sub-11	1.0	2.0	018_smiling	0.0		78.25074475127303	3.7665832239363226
1.0	12.601721900562552	pulse	1.0	t		19.0	male	white	3.2522881018702745	smiling	018	sub-11	1.0	2.0	018_smiling	0.0		78.60085104944346	
1.0	13.30169905015373	pulse	1.0	t		19.0	male	white	3.2522881018702745	smiling	018	sub-11	1.0	2.0	018_smiling	0.0		79.30082819903464	
1.0	14.001689481356152	pulse	1.0	t		19.0	male	white	3.2522881018702745	smiling	018	sub-11	1.0	2.0	018_smiling	0.0		80.00081863023706	
1.0	14.70166844207597	pulse	1.0	t		19.0	male	white	3.2522881018702745	smiling	018	sub-11	1.0	2.0	018_smiling	0.0		80.70079759095688	
1.0	15.401658269568998	pulse	1.0	t		19.0	male	white	3.2522881018702745	smiling	018	sub-11	1.0	2.0	018_smiling	0.0		81.40078741844991	
2.0	16.018198826328444	face	0.0		145	54.0	female	white	2.286908077994429	smiling	136	sub-11	1.0	2.0	136_smiling	0.0		82.01732797520935	1.2333105231714399
2.0	16.101650511900516	pulse	0.0	t		54.0	female	white	2.286908077994429	smiling	136	sub-11	1.0	2.0	136_smiling	0.0		82.10077966078143	
2.0	16.801624642943807	pulse	0.0	t		54.0	female	white	2.286908077994429	smiling	136	sub-11	1.0	2.0	136_smiling	0.0		82.80075379182472	
2.0	17.251509349499884	fix	1.0		444	54.0	female	white	2.286908077994429	smiling	136	sub-11	1.0	2.0	136_smiling	0.0		83.2506384983808	3.758319948587996
2.0	17.50161899825889	pulse	1.0	t		54.0	female	white	2.286908077994429	smiling	136	sub-11	1.0	2.0	136_smiling	0.0		83.5007481471398	
2.0	18.201623616637335	pulse	1.0	t		54.0	female	white	2.286908077994429	smiling	136	sub-11	1.0	2.0	136_smiling	0.0		84.20075276551825	
2.0	18.901569675183055	pulse	1.0	t		54.0	female	white	2.286908077994429	smiling	136	sub-11	1.0	2.0	136_smiling	0.0		84.90069882406397	
2.0	19.601573689852103	pulse	1.0	t		54.0	female	white	2.286908077994429	smiling	136	sub-11	1.0	2.0	136_smiling	0.0		85.60070283873301	
2.0	20.301563819200055	pulse	1.0	t		54.0	female	white	2.286908077994429	smiling	136	sub-11	1.0	2.0	136_smiling	0.0		86.30069296808097	
3.0	21.00982929808788	face	0.0		147	40.0	male	white	1.868682849184242	smiling	172	sub-11	1.0	2.0	172_smiling	0.0		87.00895844696879	1.2415786281967485
3.0	21.00385287475956	pulse	0.0	t		40.0	male	white	1.868682849184242	smiling	172	sub-11	1.0	2.0	172_smiling	0.0		87.00298202364047	
3.0	21.701531399993655	pulse	0.0	t		40.0	male	white	1.868682849184242	smiling	172	sub-11	1.0	2.0	172_smiling	0.0		87.70066054887457	
3.0	22.251407926284628	fix	1.0		444	40.0	male	white	1.868682849184242	smiling	172	sub-11	1.0	2.0	172_smiling	0.0		88.25053707516554	3.7665835257912477
3.0	22.401518208938796	pulse	1.0	t		40.0	male	white	1.868682849184242	smiling	172	sub-11	1.0	2.0	172_smiling	0.0		88.40064735781971	
3.0	23.10149535852952	pulse	1.0	t		40.0	male	white	1.868682849184242	smiling	172	sub-11	1.0	2.0	172_smiling	0.0		89.10062450741043	
3.0	23.80148307303898	pulse	1.0	t		40.0	male	white	1.868682849184242	smiling	172	sub-11	1.0	2.0	172_smiling	0.0		89.80061222191989	
3.0	24.501471994967687	pulse	1.0	t		40.0	male	white	1.868682849184242	smiling	172	sub-11	1.0	2.0	172_smiling	0.0		90.5006011438486	
3.0	25.201453370525996	pulse	1.0	t		40.0	male	white	1.868682849184242	smiling	172	sub-11	1.0	2.0	172_smiling	0.0		91.20058251940691	
3.0	25.901464026000667	pulse	1.0	t		40.0	male	white	1.868682849184242	smiling	172	sub-11	1.0	2.0	172_smiling	0.0		91.90059317488158	
4.0	26.017991452075876	face	0.0		146	26.0	male	white	2.7966573816155993	neutral	117	sub-11	1.0	2.0	117_neutral	0.0		92.01712060095679	1.2333129380099308
4.0	26.60144389228526	pulse	0.0	t		26.0	male	white	2.7966573816155993	neutral	117	sub-11	1.0	2.0	117_neutral	0.0		92.60057304116617	
4.0	27.251304390085807	fix	1.0		444	26.0	male	white	2.7966573816155993	neutral	117	sub-11	1.0	2.0	117_neutral	0.0		93.25043353896672	3.7665907703062658
4.0	27.301411684376944	pulse	1.0	t		26.0	male	white	2.7966573816155993	neutral	117	sub-11	1.0	2.0	117_neutral	0.0		93.30054083325786	
4.0	28.001403926708463	pulse	1.0	t		26.0	male	white	2.7966573816155993	neutral	117	sub-11	1.0	2.0	117_neutral	0.0		94.00053307558937	
4.0	28.70138198186396	pulse	1.0	t		26.0	male	white	2.7966573816155993	neutral	117	sub-11	1.0	2.0	117_neutral	0.0		94.70051113074487	
4.0	29.401373922340554	pulse	1.0	t		26.0	male	white	2.7966573816155993	neutral	117	sub-11	1.0	2.0	117_neutral	0.0		95.40050307122146	
4.0	30.101353184915297	pulse	1.0	t		26.0	male	white	2.7966573816155993	neutral	117	sub-11	1.0	2.0	117_neutral	0.0		96.10048233379621	
4.0	30.801341201279683	pulse	1.0	t		26.0	male	white	2.7966573816155993	neutral	117	sub-11	1.0	2.0	117_neutral	0.0		96.8004703501606	
5.0	31.017895160392072	face	0.0		145	28.0	male	white	3.9076800636689217	smiling	033	sub-11	1.0	2.0	033_smiling	0.0		97.01702430927298	1.2333062972047628
5.0	31.501331632482106	pulse	0.0	t		28.0	male	white	3.9076800636689217	smiling	033	sub-11	1.0	2.0	033_smiling	0.0		97.50046078136302	
5.0	32.201313008040415	pulse	0.0	t		28.0	male	white	3.9076800636689217	smiling	033	sub-11	1.0	2.0	033_smiling	0.0		98.20044215692133	
5.0	32.251201457596835	fix	1.0		445	28.0	male	white	3.9076800636689217	smiling	033	sub-11	1.0	2.0	033_smiling	0.0		98.25033060647775	3.7665850350649634
5.0	32.90129951513063	pulse	1.0	t		28.0	male	white	3.9076800636689217	smiling	033	sub-11	1.0	2.0	033_smiling	0.0		98.90042866401154	
5.0	33.60128451294668	pulse	1.0	t		28.0	male	white	3.9076800636689217	smiling	033	sub-11	1.0	2.0	033_smiling	0.0		99.60041366182759	
5.0	34.301279170116686	pulse	1.0	t		28.0	male	white	3.9076800636689217	smiling	033	sub-11	1.0	2.0	033_smiling	0.0		100.3004083189976	
5.0	35.00125058446656	pulse	1.0	t		28.0	male	white	3.9076800636689217	smiling	033	sub-11	1.0	2.0	033_smiling	0.0		101.00037973334747	
5.0	35.701244034217325	pulse	1.0	t		28.0	male	white	3.9076800636689217	smiling	033	sub-11	1.0	2.0	033_smiling	0.0		101.70037318309824	
6.0	36.0177864926618	face	0.0		145	24.0	female	east_asian	4.409868682849185	smiling	030	sub-11	1.0	2.0	030_smiling	0.0		102.01691564154271	1.2333114287357603
6.0	36.40123537098407	pulse	0.0	t		24.0	female	east_asian	4.409868682849185	smiling	030	sub-11	1.0	2.0	030_smiling	0.0		102.40036451986498	
6.0	37.10120950202736	pulse	0.0	t		24.0	female	east_asian	4.409868682849185	smiling	030	sub-11	1.0	2.0	030_smiling	0.0		103.10033865090827	
6.0	37.25109792139756	fix	1.0		444	24.0	female	east_asian	4.409868682849185	smiling	030	sub-11	1.0	2.0	030_smiling	0.0		103.25022707027847	3.7665853369198885
6.0	37.80120023508471	pulse	1.0	t		24.0	female	east_asian	4.409868682849185	smiling	030	sub-11	1.0	2.0	030_smiling	0.0		103.80032938396562	
6.0	38.501182214352866	pulse	1.0	t		24.0	female	east_asian	4.409868682849185	smiling	030	sub-11	1.0	2.0	030_smiling	0.0		104.50031136323378	
6.0	39.20116902329755	pulse	1.0	t		24.0	female	east_asian	4.409868682849185	smiling	030	sub-11	1.0	2.0	030_smiling	0.0		105.20029817217846	
6.0	39.90115251183943	pulse	1.0	t		24.0	female	east_asian	4.409868682849185	smiling	030	sub-11	1.0	2.0	030_smiling	0.0		105.90028166072034	
6.0	40.60113600038176	pulse	1.0	t		24.0	female	east_asian	4.409868682849185	smiling	030	sub-11	1.0	2.0	030_smiling	0.0		106.60026514926267	
7.0	41.01768325831745	face	0.0		145	54.0	female	white	2.286908077994429	neutral	136	sub-11	1.0	2.0	136_neutral	0.0		107.01681240719836	1.2333120324456104
7.0	41.30112552601986	pulse	0.0	t		54.0	female	white	2.286908077994429	neutral	136	sub-11	1.0	2.0	136_neutral	0.0		107.30025467490077	
7.0	42.00110690157817	pulse	0.0	t		54.0	female	white	2.286908077994429	neutral	136	sub-11	1.0	2.0	136_neutral	0.0		108.00023605045908	
7.0	42.25099529076306	fix	1.0		445	54.0	female	white	2.286908077994429	neutral	136	sub-11	1.0	2.0	136_neutral	0.0		108.25012443964397	3.7665859406297386
7.0	42.70109944576461	pulse	1.0	t		54.0	female	white	2.286908077994429	neutral	136	sub-11	1.0	2.0	136_neutral	0.0		108.70022859464552	
7.0	43.4010856509999	pulse	1.0	t		54.0	female	white	2.286908077994429	neutral	136	sub-11	1.0	2.0	136_neutral	0.0		109.40021479988081	
7.0	44.10106763026761	pulse	1.0	t		54.0	female	white	2.286908077994429	neutral	136	sub-11	1.0	2.0	136_neutral	0.0		110.10019677914852	
7.0	44.80105081695501	pulse	1.0	t		54.0	female	white	2.286908077994429	neutral	136	sub-11	1.0	2.0	136_neutral	0.0		110.80017996583592	
7.0	45.5010370221903	pulse	1.0	t		54.0	female	white	2.286908077994429	neutral	136	sub-11	1.0	2.0	136_neutral	0.0		111.50016617107121	
8.0	46.017581231392796	face	0.0		145	20.0	female	white	3.9502586549940313	neutral	091	sub-11	1.0	2.0	091_neutral	0.0		112.01671038027371	1.233310825026365
8.0	46.201059450002504	pulse	0.0	t		20.0	female	white	3.9502586549940313	neutral	091	sub-11	1.0	2.0	091_neutral	0.0		112.20018859888341	
8.0	46.901011847499376	pulse	0.0	t		20.0	female	white	3.9502586549940313	neutral	091	sub-11	1.0	2.0	091_neutral	0.0		112.90014099638029	
8.0	47.25089205641916	fix	1.0		445	20.0	female	white	3.9502586549940313	neutral	091	sub-11	1.0	2.0	091_neutral	0.0		113.25002120530007	3.766586242484209
8.0	47.60100046757316	pulse	1.0	t		20.0	female	white	3.9502586549940313	neutral	091	sub-11	1.0	2.0	091_neutral	0.0		113.60012961645407	
8.0	48.30098516353428	pulse	1.0	t		20.0	female	white	3.9502586549940313	neutral	091	sub-11	1.0	2.0	091_neutral	0.0		114.30011431241519	
8.0	49.000974991027306	pulse	1.0	t		20.0	female	white	3.9502586549940313	neutral	091	sub-11	1.0	2.0	091_neutral	0.0		115.00010413990822	
8.0	49.700955159166824	pulse	1.0	t		20.0	female	white	3.9502586549940313	neutral	091	sub-11	1.0	2.0	091_neutral	0.0		115.70008430804774	
8.0	50.40093562916081	pulse	1.0	t		20.0	female	white	3.9502586549940313	neutral	091	sub-11	1.0	2.0	091_neutral	0.0		116.40006477804172	
9.0	51.01747829890337	face	0.0		145	32.0	male	white	2.389176283326701	smiling	092	sub-11	1.0	2.0	092_smiling	0.0		117.01660744778428	1.233311428736215
9.0	51.10092575850831	pulse	0.0	t		32.0	male	white	2.389176283326701	smiling	092	sub-11	1.0	2.0	092_smiling	0.0		117.10005490738922	
9.0	51.80090773777647	pulse	0.0	t		32.0	male	white	2.389176283326701	smiling	092	sub-11	1.0	2.0	092_smiling	0.0		117.80003688665738	
9.0	52.250789727639585	fix	1.0		444	32.0	male	white	2.389176283326701	smiling	092	sub-11	1.0	2.0	092_smiling	0.0		118.2499188765205	3.7665808090978317
9.0	52.50090028196291	pulse	1.0	t		32.0	male	white	2.389176283326701	smiling	092	sub-11	1.0	2.0	092_smiling	0.0		118.50002943084382	
9.0	53.200874111150824	pulse	1.0	t		32.0	male	white	2.389176283326701	smiling	092	sub-11	1.0	2.0	092_smiling	0.0		119.20000326003174	
9.0	53.9008645423537	pulse	1.0	t		32.0	male	white	2.389176283326701	smiling	092	sub-11	1.0	2.0	092_smiling	0.0		119.89999369123461	
9.0	54.600852558717634	pulse	1.0	t		32.0	male	white	2.389176283326701	smiling	092	sub-11	1.0	2.0	092_smiling	0.0		120.59998170759854	
9.0	55.3008327268567	pulse	1.0	t		32.0	male	white	2.389176283326701	smiling	092	sub-11	1.0	2.0	092_smiling	0.0		121.29996187573761	
10.0	56.01737053673742	face	0.0		145	27.0	female	white	4.181058495821727	smiling	039	sub-11	1.0	2.0	039_smiling	1.0	trustworthiness	122.01649968561833	1.2333171639770626
10.0	56.00376775170389	pulse	0.0	t		27.0	female	white	4.181058495821727	smiling	039	sub-11	1.0	2.0	039_smiling	1.0	trustworthiness	122.0028969005848	
10.0	56.70081177813336	pulse	0.0	t		27.0	female	white	4.181058495821727	smiling	039	sub-11	1.0	2.0	039_smiling	1.0	trustworthiness	122.69994092701427	
10.0	57.25068770071448	fix	1.0		177	27.0	female	white	4.181058495821727	smiling	039	sub-11	1.0	2.0	039_smiling	1.0	trustworthiness	123.24981684959539	1.5083231935273034
10.0	57.40080371860995	pulse	1.0	t		27.0	female	white	4.181058495821727	smiling	039	sub-11	1.0	2.0	039_smiling	1.0	trustworthiness	123.39993286749086	
10.0	58.10078449045841	pulse	1.0	t		27.0	female	white	4.181058495821727	smiling	039	sub-11	1.0	2.0	039_smiling	1.0	trustworthiness	124.09991363933932	
10.0	58.75901089424178	rating	2.0		294	27.0	female	white	4.181058495821727	smiling	039	sub-11	1.0	2.0	039_smiling	1.0	trustworthiness	124.7581400431227	2.491593494546123
10.0	58.80078307174108	pulse	2.0	t		27.0	female	white	4.181058495821727	smiling	039	sub-11	1.0	2.0	039_smiling	1.0	trustworthiness	124.79991222062199	
10.0	59.500755391655275	pulse	2.0	t		27.0	female	white	4.181058495821727	smiling	039	sub-11	1.0	2.0	039_smiling	1.0	trustworthiness	125.49988454053619	
10.0	60.20074370987413	pulse	2.0	t		27.0	female	white	4.181058495821727	smiling	039	sub-11	1.0	2.0	039_smiling	1.0	trustworthiness	126.19987285875504	
10.0	60.90072931140003	pulse	2.0	t		27.0	female	white	4.181058495821727	smiling	039	sub-11	1.0	2.0	039_smiling	1.0	trustworthiness	126.89985846028094	
10.0	61.250604388787906	fix	3.0		443	27.0	female	white	4.181058495821727	smiling	039	sub-11	1.0	2.0	039_smiling	1.0	trustworthiness	127.24973353766882	3.7665874499034544
10.0	61.29238441451207	response	3.0	y		27.0	female	white	4.181058495821727	smiling	039	sub-11	1.0	2.0	039_smiling	1.0	trustworthiness	127.29151356339298	
10.0	61.60069197196026	pulse	3.0	t		27.0	female	white	4.181058495821727	smiling	039	sub-11	1.0	2.0	039_smiling	1.0	trustworthiness	127.59982112084117	
10.0	62.30070262743493	pulse	3.0	t		27.0	female	white	4.181058495821727	smiling	039	sub-11	1.0	2.0	039_smiling	1.0	trustworthiness	128.29983177631584	
10.0	63.00067766404254	pulse	3.0	t		27.0	female	white	4.181058495821727	smiling	039	sub-11	1.0	2.0	039_smiling	1.0	trustworthiness	128.99980681292345	
10.0	63.700667189680644	pulse	3.0	t		27.0	female	white	4.181058495821727	smiling	039	sub-11	1.0	2.0	039_smiling	1.0	trustworthiness	129.69979633856155	
10.0	64.40065369677086	pulse	3.0	t		27.0	female	white	4.181058495821727	smiling	039	sub-11	1.0	2.0	039_smiling	1.0	trustworthiness	130.39978284565177	
11.0	65.01719183869136	face	0.0		145	30.0	female	black	2.7345801830481498	smiling	062	sub-11	1.0	2.0	062_smiling	0.0		131.01632098757227	1.2333105231718946
11.0	65.10068095425959	pulse	0.0	t		30.0	female	black	2.7345801830481498	smiling	062	sub-11	1.0	2.0	062_smiling	0.0		131.0998101031405	
11.0	65.80061765530672	pulse	0.0	t		30.0	female	black	2.7345801830481498	smiling	062	sub-11	1.0	2.0	062_smiling	0.0		131.79974680418763	
11.0	66.25050236186325	fix	1.0		444	30.0	female	black	2.7345801830481498	smiling	062	sub-11	1.0	2.0	062_smiling	0.0		132.24963151074417	3.766573866436829
11.0	66.50061412360537	pulse	1.0	t		30.0	female	black	2.7345801830481498	smiling	062	sub-11	1.0	2.0	062_smiling	0.0		132.49974327248628	
11.0	67.2005900657773	pulse	1.0	t		30.0	female	black	2.7345801830481498	smiling	062	sub-11	1.0	2.0	062_smiling	0.0		133.19971921465822	
11.0	67.90057898770601	pulse	1.0	t		30.0	female	black	2.7345801830481498	smiling	062	sub-11	1.0	2.0	062_smiling	0.0		133.89970813658692	
11.0	68.60057183374693	pulse	1.0	t		30.0	female	black	2.7345801830481498	smiling	062	sub-11	1.0	2.0	062_smiling	0.0		134.59970098262784	
11.0	69.30055834083714	pulse	1.0	t		30.0	female	black	2.7345801830481498	smiling	062	sub-11	1.0	2.0	062_smiling	0.0		135.29968748971805	
12.0	70.01707622830008	face	0.0		146	23.0	male	white	2.6275368085953046	neutral	141	sub-11	1.0	2.0	141_neutral	0.0		136.016205377181	1.2333219936544992
12.0	70.00338560351793	pulse	0.0	t		23.0	male	white	2.6275368085953046	neutral	141	sub-11	1.0	2.0	141_neutral	0.0		136.00251475239884	
12.0	70.70053014759787	pulse	0.0	t		23.0	male	white	2.6275368085953046	neutral	141	sub-11	1.0	2.0	141_neutral	0.0		136.69965929647879	
12.0	71.25039822195458	fix	1.0		443	23.0	male	white	2.6275368085953046	neutral	141	sub-11	1.0	2.0	141_neutral	0.0		137.2495273708355	3.766586242484209
12.0	71.40051122130171	pulse	1.0	t		23.0	male	white	2.6275368085953046	neutral	141	sub-11	1.0	2.0	141_neutral	0.0		137.39964037018262	
12.0	72.10049893581117	pulse	1.0	t		23.0	male	white	2.6275368085953046	neutral	141	sub-11	1.0	2.0	141_neutral	0.0		138.09962808469209	
12.0	72.80048785773943	pulse	1.0	t		23.0	male	white	2.6275368085953046	neutral	141	sub-11	1.0	2.0	141_neutral	0.0		138.79961700662034	
12.0	73.50046591289492	pulse	1.0	t		23.0	male	white	2.6275368085953046	neutral	141	sub-11	1.0	2.0	141_neutral	0.0		139.49959506177584	
12.0	74.20045362740439	pulse	1.0	t		23.0	male	white	2.6275368085953046	neutral	141	sub-11	1.0	2.0	141_neutral	0.0		140.1995827762853	
12.0	74.90043590852702	pulse	1.0	t		23.0	male	white	2.6275368085953046	neutral	141	sub-11	1.0	2.0	141_neutral	0.0		140.89956505740793	
13.0	75.01698446443879	face	0.0		146	27.0	male	black	3.5523278949462798	smiling	042	sub-11	1.0	2.0	042_smiling	0.0		141.0161136133197	1.2333102213169695
13.0	75.60042060448859	pulse	0.0	t		27.0	male	black	3.5523278949462798	smiling	042	sub-11	1.0	2.0	042_smiling	0.0		141.5995497533695	
13.0	76.25029468575576	fix	1.0		443	27.0	male	black	3.5523278949462798	smiling	042	sub-11	1.0	2.0	042_smiling	0.0		142.24942383463667	3.76658895917717
13.0	76.30041194125533	pulse	1.0	t		27.0	male	black	3.5523278949462798	smiling	042	sub-11	1.0	2.0	042_smiling	0.0		142.29954109013624	
13.0	77.00039844834555	pulse	1.0	t		27.0	male	black	3.5523278949462798	smiling	042	sub-11	1.0	2.0	042_smiling	0.0		142.99952759722646	
13.0	77.70037771092029	pulse	1.0	t		27.0	male	black	3.5523278949462798	smiling	042	sub-11	1.0	2.0	042_smiling	0.0		143.6995068598012	
13.0	78.40036421801051	pulse	1.0	t		27.0	male	black	3.5523278949462798	smiling	042	sub-11	1.0	2.0	042_smiling	0.0		144.39949336689142	
13.0	79.10035464921293	pulse	1.0	t		27.0	male	black	3.5523278949462798	smiling	042	sub-11	1.0	2.0	042_smiling	0.0		145.09948379809384	
13.0	79.80033964702943	pulse	1.0	t		27.0	male	black	3.5523278949462798	smiling	042	sub-11	1.0	2.0	042_smiling	0.0		145.79946879591034	
14.0	80.01688364493293	face	0.0		145	22.0	female	white	4.614007162753682	smiling	009	sub-11	1.0	2.0	009_smiling	0.0		146.01601279381384	1.2333096176075742
14.0	80.50035211363274	pulse	0.0	t		22.0	female	white	4.614007162753682	smiling	009	sub-11	1.0	2.0	009_smiling	0.0		146.49948126251365	
14.0	81.20030602040379	pulse	0.0	t		22.0	female	white	4.614007162753682	smiling	009	sub-11	1.0	2.0	009_smiling	0.0		147.1994351692847	
14.0	81.2501932625405	fix	1.0		445	22.0	female	white	4.614007162753682	smiling	009	sub-11	1.0	2.0	009_smiling	0.0		147.24932241142142	3.758252634966084
14.0	81.90035772813235	pulse	1.0	t		22.0	female	white	4.614007162753682	smiling	009	sub-11	1.0	2.0	009_smiling	0.0		147.89948687701326	
14.0	82.60027752531005	pulse	1.0	t		22.0	female	white	4.614007162753682	smiling	009	sub-11	1.0	2.0	009_smiling	0.0		148.59940667419096	
14.0	83.30025678788479	pulse	1.0	t		22.0	female	white	4.614007162753682	smiling	009	sub-11	1.0	2.0	009_smiling	0.0		149.2993859367657	
14.0	84.00025235061912	pulse	1.0	t		22.0	female	white	4.614007162753682	smiling	009	sub-11	1.0	2.0	009_smiling	0.0		149.99938149950003	
14.0	84.70023251875818	pulse	1.0	t		22.0	female	white	4.614007162753682	smiling	009	sub-11	1.0	2.0	009_smiling	0.0		150.6993616676391	
15.0	85.00844589750659	face	0.0		146	24.0	male	white	3.1153999204138483	smiling	012	sub-11	1.0	2.0	012_smiling	0.0		151.0075750463875	1.241644734399415
15.0	85.40022023326765	pulse	0.0	t		24.0	male	white	3.1153999204138483	smiling	012	sub-11	1.0	2.0	012_smiling	0.0		151.39934938214856	
15.0	86.10019859027761	pulse	0.0	t		24.0	male	white	3.1153999204138483	smiling	012	sub-11	1.0	2.0	012_smiling	0.0		152.09932773915853	
15.0	86.250090631906	fix	1.0		445	24.0	male	white	3.1153999204138483	smiling	012	sub-11	1.0	2.0	012_smiling	0.0		152.24921978078692	3.7665868461936043
15.0	86.80018268252934	pulse	1.0	t		24.0	male	white	3.1153999204138483	smiling	012	sub-11	1.0	2.0	012_smiling	0.0		152.79931183141025	
15.0	87.50017884897352	pulse	1.0	t		24.0	male	white	3.1153999204138483	smiling	012	sub-11	1.0	2.0	012_smiling	0.0		153.49930799785443	
15.0	88.20015931896751	pulse	1.0	t		24.0	male	white	3.1153999204138483	smiling	012	sub-11	1.0	2.0	012_smiling	0.0		154.19928846784842	
15.0	88.90014884460561	pulse	1.0	t		24.0	male	white	3.1153999204138483	smiling	012	sub-11	1.0	2.0	012_smiling	0.0		154.89927799348652	
15.0	89.60013444613105	pulse	1.0	t		24.0	male	white	3.1153999204138483	smiling	012	sub-11	1.0	2.0	012_smiling	0.0		155.59926359501196	
16.0	90.01667747809961	face	0.0		145	25.0	female	black	3.858336649423	neutral	126	sub-11	1.0	2.0	126_neutral	0.0		156.01580662698052	1.2333105231718946
16.0	90.30013876265502	pulse	0.0	t		25.0	female	black	3.858336649423	neutral	126	sub-11	1.0	2.0	126_neutral	0.0		156.29926791153594	
16.0	91.0001026306345	pulse	0.0	t		25.0	female	black	3.858336649423	neutral	126	sub-11	1.0	2.0	126_neutral	0.0		156.9992317795154	
16.0	91.2499880012715	fix	1.0		444	25.0	female	black	3.858336649423	neutral	126	sub-11	1.0	2.0	126_neutral	0.0		157.24911715015241	3.7665877517583795
16.0	91.70009336369185	pulse	1.0	t		25.0	female	black	3.858336649423	neutral	126	sub-11	1.0	2.0	126_neutral	0.0		157.69922251257276	
16.0	92.40007534296001	pulse	1.0	t		25.0	female	black	3.858336649423	neutral	126	sub-11	1.0	2.0	126_neutral	0.0		158.39920449184092	
16.0	93.10005883150188	pulse	1.0	t		25.0	female	black	3.858336649423	neutral	126	sub-11	1.0	2.0	126_neutral	0.0		159.0991879803828	
16.0	93.80004624415642	pulse	1.0	t		25.0	female	black	3.858336649423	neutral	126	sub-11	1.0	2.0	126_neutral	0.0		159.79917539303733	
16.0	94.50003516608513	pulse	1.0	t		25.0	female	black	3.858336649423	neutral	126	sub-11	1.0	2.0	126_neutral	0.0		160.49916431496604	
17.0	95.01657575302988	face	0.0		145	25.0	female	black	3.858336649423	smiling	126	sub-11	1.0	2.0	126_smiling	0.0		161.0157049019108	1.2333093157521944
17.0	95.20003223809363	pulse	0.0	t		25.0	female	black	3.858336649423	smiling	126	sub-11	1.0	2.0	126_smiling	0.0		161.19916138697454	
17.0	95.90000093575009	pulse	0.0	t		25.0	female	black	3.858336649423	smiling	126	sub-11	1.0	2.0	126_smiling	0.0		161.899130084631	
17.0	96.24988506878208	fix	1.0		444	25.0	female	black	3.858336649423	smiling	126	sub-11	1.0	2.0	126_smiling	0.0		162.249014217663	3.766588959177625
17.0	96.5999955929201	pulse	1.0	t		25.0	female	black	3.858336649423	smiling	126	sub-11	1.0	2.0	126_smiling	0.0		162.599124741801	
17.0	97.29997244065635	pulse	1.0	t		25.0	female	black	3.858336649423	smiling	126	sub-11	1.0	2.0	126_smiling	0.0		163.29910158953726	
17.0	97.99995683476254	pulse	1.0	t		25.0	female	black	3.858336649423	smiling	126	sub-11	1.0	2.0	126_smiling	0.0		163.99908598364345	
17.0	98.69994485112693	pulse	1.0	t		25.0	female	black	3.858336649423	smiling	126	sub-11	1.0	2.0	126_smiling	0.0		164.69907400000784	
17.0	99.39993618789367	pulse	1.0	t		25.0	female	black	3.858336649423	smiling	126	sub-11	1.0	2.0	126_smiling	0.0		165.39906533677458	
18.0	100.0164740279597	face	0.0		145	26.0	female	white	4.854755272582572	neutral	027	sub-11	1.0	2.0	027_neutral	0.0		166.0156031768406	1.233309013897724
18.0	100.09992178941957	pulse	0.0	t		26.0	female	white	4.854755272582572	neutral	027	sub-11	1.0	2.0	027_neutral	0.0		166.09905093830048	
18.0	100.79989984457507	pulse	0.0	t		26.0	female	white	4.854755272582572	neutral	027	sub-11	1.0	2.0	027_neutral	0.0		166.79902899345598	
18.0	101.24978304185743	fix	1.0		444	26.0	female	white	4.854755272582572	neutral	027	sub-11	1.0	2.0	027_neutral	0.0		167.24891219073834	3.7665823183715474
18.0	101.49988906835824	pulse	1.0	t		26.0	female	white	4.854755272582572	neutral	027	sub-11	1.0	2.0	027_neutral	0.0		167.49901821723915	
18.0	102.19986893464284	pulse	1.0	t		26.0	female	white	4.854755272582572	neutral	027	sub-11	1.0	2.0	027_neutral	0.0		168.19899808352375	
18.0	102.89986147882928	pulse	1.0	t		26.0	female	white	4.854755272582572	neutral	027	sub-11	1.0	2.0	027_neutral	0.0		168.8989906277102	
18.0	103.5998467784998	pulse	1.0	t		26.0	female	white	4.854755272582572	neutral	027	sub-11	1.0	2.0	027_neutral	0.0		169.5989759273807	
18.0	104.29982513551022	pulse	1.0	t		26.0	female	white	4.854755272582572	neutral	027	sub-11	1.0	2.0	027_neutral	0.0		170.29895428439113	
19.0	105.01636536022897	face	0.0		146	24.0	female	east_asian	4.409868682849185	neutral	030	sub-11	1.0	2.0	030_neutral	0.0		171.01549450910989	1.233314447284556
19.0	105.002745369472	pulse	0.0	t		24.0	female	east_asian	4.409868682849185	neutral	030	sub-11	1.0	2.0	030_neutral	0.0		171.0018745183529	
19.0	105.6998032812221	pulse	0.0	t		24.0	female	east_asian	4.409868682849185	neutral	030	sub-11	1.0	2.0	030_neutral	0.0		171.698932430103	
19.0	106.24967980751353	fix	1.0		443	24.0	female	east_asian	4.409868682849185	neutral	030	sub-11	1.0	2.0	030_neutral	0.0		172.24880895639444	3.7665868461936043
19.0	106.39979220315081	pulse	1.0	t		24.0	female	east_asian	4.409868682849185	neutral	030	sub-11	1.0	2.0	030_neutral	0.0		172.39892135203172	
19.0	107.09979289741705	pulse	1.0	t		24.0	female	east_asian	4.409868682849185	neutral	030	sub-11	1.0	2.0	030_neutral	0.0		173.09892204629796	
19.0	107.7997621987829	pulse	1.0	t		24.0	female	east_asian	4.409868682849185	neutral	030	sub-11	1.0	2.0	030_neutral	0.0		173.7988913476638	
19.0	108.4997453854703	pulse	1.0	t		24.0	female	east_asian	4.409868682849185	neutral	030	sub-11	1.0	2.0	030_neutral	0.0		174.49887453435122	
19.0	109.19973400554409	pulse	1.0	t		24.0	female	east_asian	4.409868682849185	neutral	030	sub-11	1.0	2.0	030_neutral	0.0		175.198863154425	
19.0	109.8997129662639	pulse	1.0	t		24.0	female	east_asian	4.409868682849185	neutral	030	sub-11	1.0	2.0	030_neutral	0.0		175.89884211514482	
20.0	110.01626665370713	face	0.0		146	37.0	male	white	3.898925586947871	neutral	101	sub-11	1.0	2.0	101_neutral	0.0		176.01539580258805	1.23331173059114
20.0	110.59970309561186	pulse	0.0	t		37.0	male	white	3.898925586947871	neutral	101	sub-11	1.0	2.0	101_neutral	0.0		176.59883224449277	
20.0	111.24957838429827	fix	1.0		1184	37.0	male	white	3.898925586947871	neutral	101	sub-11	1.0	2.0	101_neutral	0.0		177.24870753317919	10.016457124090266
20.0	111.29971375108653	pulse	1.0	t		37.0	male	white	3.898925586947871	neutral	101	sub-11	1.0	2.0	101_neutral	0.0		177.29884289996744	
20.0	111.99967128011485	pulse	1.0	t		37.0	male	white	3.898925586947871	neutral	101	sub-11	1.0	2.0	101_neutral	0.0		177.99880042899576	
20.0	112.69965899462431	pulse	1.0	t		37.0	male	white	3.898925586947871	neutral	101	sub-11	1.0	2.0	101_neutral	0.0		178.69878814350523	
20.0	113.39964248316664	pulse	1.0	t		37.0	male	white	3.898925586947871	neutral	101	sub-11	1.0	2.0	101_neutral	0.0		179.39877163204756	
20.0	114.0996308013855	pulse	1.0	t		37.0	male	white	3.898925586947871	neutral	101	sub-11	1.0	2.0	101_neutral	0.0		180.0987599502664	
20.0	114.79961217694381	pulse	1.0	t		37.0	male	white	3.898925586947871	neutral	101	sub-11	1.0	2.0	101_neutral	0.0		180.79874132582472	
20.0	115.49959566548569	pulse	1.0	t		37.0	male	white	3.898925586947871	neutral	101	sub-11	1.0	2.0	101_neutral	0.0		181.4987248143666	
20.0	116.1995821725759	pulse	1.0	t		37.0	male	white	3.898925586947871	neutral	101	sub-11	1.0	2.0	101_neutral	0.0		182.1987113214568	
20.0	116.8995994688562	pulse	1.0	t		37.0	male	white	3.898925586947871	neutral	101	sub-11	1.0	2.0	101_neutral	0.0		182.8987286177371	
20.0	117.59955699788497	pulse	1.0	t		37.0	male	white	3.898925586947871	neutral	101	sub-11	1.0	2.0	101_neutral	0.0		183.59868614676589	
20.0	118.29953716602404	pulse	1.0	t		37.0	male	white	3.898925586947871	neutral	101	sub-11	1.0	2.0	101_neutral	0.0		184.29866631490495	
20.0	118.99952940835556	pulse	1.0	t		37.0	male	white	3.898925586947871	neutral	101	sub-11	1.0	2.0	101_neutral	0.0		184.99865855723647	
20.0	119.6995086709303	pulse	1.0	t		37.0	male	white	3.898925586947871	neutral	101	sub-11	1.0	2.0	101_neutral	0.0		185.6986378198112	
20.0	120.39950876148669	pulse	1.0	t		37.0	male	white	3.898925586947871	neutral	101	sub-11	1.0	2.0	101_neutral	0.0		186.3986379103676	
20.0	121.09948591107786	pulse	1.0	t		37.0	male	white	3.898925586947871	neutral	101	sub-11	1.0	2.0	101_neutral	0.0		187.09861505995877	
21.0	121.26603550838854	face	0.0		146	40.0	female	west_asian	1.5777954635893354	smiling	038	sub-11	1.0	2.0	038_smiling	0.0		187.26516465726945	1.2333126361554605
21.0	121.79947151260376	pulse	0.0	t		40.0	female	west_asian	1.5777954635893354	smiling	038	sub-11	1.0	2.0	038_smiling	0.0		187.79860066148467	
21.0	122.499348144544	fix	1.0		444	40.0	female	west_asian	1.5777954635893354	smiling	038	sub-11	1.0	2.0	038_smiling	0.0		188.4984772934249	3.7665844313551133
21.0	122.50678795997783	pulse	1.0	t		40.0	female	west_asian	1.5777954635893354	smiling	038	sub-11	1.0	2.0	038_smiling	0.0		188.50591710885874	
21.0	123.19946626033015	pulse	1.0	t		40.0	female	west_asian	1.5777954635893354	smiling	038	sub-11	1.0	2.0	038_smiling	0.0		189.19859540921107	
21.0	123.89944401363073	pulse	1.0	t		40.0	female	west_asian	1.5777954635893354	smiling	038	sub-11	1.0	2.0	038_smiling	0.0		189.89857316251164	
21.0	124.59941482427075	pulse	1.0	t		40.0	female	west_asian	1.5777954635893354	smiling	038	sub-11	1.0	2.0	038_smiling	0.0		190.59854397315166	
21.0	125.29939257757133	pulse	1.0	t		40.0	female	west_asian	1.5777954635893354	smiling	038	sub-11	1.0	2.0	038_smiling	0.0		191.29852172645224	
21.0	125.99938240506435	pulse	1.0	t		40.0	female	west_asian	1.5777954635893354	smiling	038	sub-11	1.0	2.0	038_smiling	0.0		191.99851155394526	
22.0	126.26593257589911	face	0.0		145	37.0	male	white	3.898925586947871	smiling	101	sub-11	1.0	2.0	101_smiling	0.0		192.26506172478003	1.2333129380103856
22.0	126.69937887336346	pulse	0.0	t		37.0	male	white	3.898925586947871	smiling	101	sub-11	1.0	2.0	101_smiling	0.0		192.69850802224437	
22.0	127.3993530044063	pulse	0.0	t		37.0	male	white	3.898925586947871	smiling	101	sub-11	1.0	2.0	101_smiling	0.0		193.3984821532872	
22.0	127.4992455139095	fix	1.0		444	37.0	male	white	3.898925586947871	smiling	101	sub-11	1.0	2.0	101_smiling	0.0		193.4983746627904	3.766583525790793
22.0	128.0993458504472	pulse	1.0	t		37.0	male	white	3.898925586947871	smiling	101	sub-11	1.0	2.0	101_smiling	0.0		194.09847499932812	
22.0	128.7993281315703	pulse	1.0	t		37.0	male	white	3.898925586947871	smiling	101	sub-11	1.0	2.0	101_smiling	0.0		194.7984572804512	
22.0	129.49931101640277	pulse	1.0	t		37.0	male	white	3.898925586947871	smiling	101	sub-11	1.0	2.0	101_smiling	0.0		195.49844016528368	
22.0	130.19929480679957	pulse	1.0	t		37.0	male	white	3.898925586947871	smiling	101	sub-11	1.0	2.0	101_smiling	0.0		196.19842395568048	
22.0	130.89928191759918	pulse	1.0	t		37.0	male	white	3.898925586947871	smiling	101	sub-11	1.0	2.0	101_smiling	0.0		196.8984110664801	
23.0	131.2658290397003	face	0.0		145	31.0	female	white	2.1822522881018704	smiling	102	sub-11	1.0	2.0	102_smiling	0.0		197.2649581885812	1.2333129380103856
23.0	131.59927446178563	pulse	0.0	t		31.0	female	white	2.1822522881018704	smiling	102	sub-11	1.0	2.0	102_smiling	0.0		197.59840361066654	
23.0	132.29925191323127	pulse	0.0	t		31.0	female	white	2.1822522881018704	smiling	102	sub-11	1.0	2.0	102_smiling	0.0		198.29838106211218	
23.0	132.49914197771068	fix	1.0		445	31.0	female	white	2.1822522881018704	smiling	102	sub-11	1.0	2.0	102_smiling	0.0		198.4982711265916	3.774919850002334
23.0	132.99924324999847	pulse	1.0	t		31.0	female	white	2.1822522881018704	smiling	102	sub-11	1.0	2.0	102_smiling	0.0		198.99837239887938	
23.0	133.6992273422502	pulse	1.0	t		31.0	female	white	2.1822522881018704	smiling	102	sub-11	1.0	2.0	102_smiling	0.0		199.6983564911311	
23.0	134.3992168678883	pulse	1.0	t		31.0	female	white	2.1822522881018704	smiling	102	sub-11	1.0	2.0	102_smiling	0.0		200.3983460167692	
23.0	135.09920518610716	pulse	1.0	t		31.0	female	white	2.1822522881018704	smiling	102	sub-11	1.0	2.0	102_smiling	0.0		201.09833433498807	
23.0	135.7991820338434	pulse	1.0	t		31.0	female	white	2.1822522881018704	smiling	102	sub-11	1.0	2.0	102_smiling	0.0		201.79831118272432	
24.0	136.274061827713	face	0.0		145	21.0	male	east_asian/white	3.501790688420215	smiling	036	sub-11	1.0	2.0	036_smiling	0.0		202.27319097659392	1.2333105231714399
24.0	136.49917216319136	pulse	0.0	t		21.0	male	east_asian/white	3.501790688420215	smiling	036	sub-11	1.0	2.0	036_smiling	0.0		202.49830131207227	
24.0	137.1991716500379	pulse	0.0	t		21.0	male	east_asian/white	3.501790688420215	smiling	036	sub-11	1.0	2.0	036_smiling	0.0		203.1983007989188	
24.0	137.50737235088445	fix	1.0		444	21.0	male	east_asian/white	3.501790688420215	smiling	036	sub-11	1.0	2.0	036_smiling	0.0		203.50650149976536	3.766584431355568
24.0	137.89913431059858	pulse	1.0	t		21.0	male	east_asian/white	3.501790688420215	smiling	036	sub-11	1.0	2.0	036_smiling	0.0		203.8982634594795	
24.0	138.5991328918808	pulse	1.0	t		21.0	male	east_asian/white	3.501790688420215	smiling	036	sub-11	1.0	2.0	036_smiling	0.0		204.5982620407617	
24.0	139.29911638042267	pulse	1.0	t		21.0	male	east_asian/white	3.501790688420215	smiling	036	sub-11	1.0	2.0	036_smiling	0.0		205.29824552930359	
24.0	139.99910017081993	pulse	1.0	t		21.0	male	east_asian/white	3.501790688420215	smiling	036	sub-11	1.0	2.0	036_smiling	0.0		205.99822931970084	
24.0	140.69909392242516	pulse	1.0	t		21.0	male	east_asian/white	3.501790688420215	smiling	036	sub-11	1.0	2.0	036_smiling	0.0		206.69822307130607	
25.0	141.27395678224002	face	0.0		145	28.0	male	east_asian	1.5563072025467568	smiling	005	sub-11	1.0	2.0	005_smiling	0.0		207.27308593112093	1.233311428736215
25.0	141.3990774109675	pulse	0.0	t		28.0	male	east_asian	1.5563072025467568	smiling	005	sub-11	1.0	2.0	005_smiling	0.0		207.3982065598484	
25.0	142.09905214571972	pulse	0.0	t		28.0	male	east_asian	1.5563072025467568	smiling	005	sub-11	1.0	2.0	005_smiling	0.0		208.09818129460064	
25.0	142.50726821097624	fix	1.0		444	28.0	male	east_asian	1.5563072025467568	smiling	005	sub-11	1.0	2.0	005_smiling	0.0		208.50639735985715	3.7665850350649634
25.0	142.79904348248692	pulse	1.0	t		28.0	male	east_asian	1.5563072025467568	smiling	005	sub-11	1.0	2.0	005_smiling	0.0		208.79817263136783	
25.0	143.4990230469166	pulse	1.0	t		28.0	male	east_asian	1.5563072025467568	smiling	005	sub-11	1.0	2.0	005_smiling	0.0		209.4981521957975	
25.0	144.1990095540068	pulse	1.0	t		28.0	male	east_asian	1.5563072025467568	smiling	005	sub-11	1.0	2.0	005_smiling	0.0		210.19813870288772	
25.0	144.89899455182285	pulse	1.0	t		28.0	male	east_asian	1.5563072025467568	smiling	005	sub-11	1.0	2.0	005_smiling	0.0		210.89812370070376	
25.0	145.59897924778397	pulse	1.0	t		28.0	male	east_asian	1.5563072025467568	smiling	005	sub-11	1.0	2.0	005_smiling	0.0		211.59810839666488	
26.0	146.2738532460412	face	0.0		145	24.0	male	white	3.1153999204138483	neutral	012	sub-11	1.0	2.0	012_neutral	0.0		212.2729823949221	1.2333150509934967
26.0	146.2989862810009	pulse	0.0	t		24.0	male	white	3.1153999204138483	neutral	012	sub-11	1.0	2.0	012_neutral	0.0		212.29811542988182	
26.0	146.99895678978646	pulse	0.0	t		24.0	male	white	3.1153999204138483	neutral	012	sub-11	1.0	2.0	012_neutral	0.0		212.99808593866737	
26.0	147.5071682970347	fix	1.0		443	24.0	male	white	3.1153999204138483	neutral	012	sub-11	1.0	2.0	012_neutral	0.0		213.5062974459156	3.758268331416275
26.0	147.69893967461894	pulse	1.0	t		24.0	male	white	3.1153999204138483	neutral	012	sub-11	1.0	2.0	012_neutral	0.0		213.69806882349985	
26.0	148.39892406872514	pulse	1.0	t		24.0	male	white	3.1153999204138483	neutral	012	sub-11	1.0	2.0	012_neutral	0.0		214.39805321760605	
26.0	149.09892747968433	pulse	1.0	t		24.0	male	white	3.1153999204138483	neutral	012	sub-11	1.0	2.0	012_neutral	0.0		215.09805662856525	
26.0	149.7988898383901	pulse	1.0	t		24.0	male	white	3.1153999204138483	neutral	012	sub-11	1.0	2.0	012_neutral	0.0		215.798018987271	
26.0	150.49890441797743	pulse	1.0	t		24.0	male	white	3.1153999204138483	neutral	012	sub-11	1.0	2.0	012_neutral	0.0		216.49803356685834	
26.0	151.19886285257053	pulse	1.0	t		24.0	male	white	3.1153999204138483	neutral	012	sub-11	1.0	2.0	012_neutral	0.0		217.19799200145144	
27.0	151.26543662845097	face	0.0		147	40.0	male	black	2.408674890569041	smiling	061	sub-11	1.0	2.0	061_smiling	0.0		217.26456577733188	1.2416260194013375
27.0	151.89888648780152	pulse	0.0	t		40.0	male	black	2.408674890569041	smiling	061	sub-11	1.0	2.0	061_smiling	0.0		217.89801563668243	
27.0	152.5070626478523	fix	1.0		443	40.0	male	black	2.408674890569041	smiling	061	sub-11	1.0	2.0	061_smiling	0.0		218.50619179673322	3.7665877517583795
27.0	152.5988440168303	pulse	1.0	t		40.0	male	black	2.408674890569041	smiling	061	sub-11	1.0	2.0	061_smiling	0.0		218.5979731657112	
27.0	153.29882116642148	pulse	1.0	t		40.0	male	black	2.408674890569041	smiling	061	sub-11	1.0	2.0	061_smiling	0.0		219.2979503153024	
27.0	153.99881854028445	pulse	1.0	t		40.0	male	black	2.408674890569041	smiling	061	sub-11	1.0	2.0	061_smiling	0.0		219.99794768916536	
27.0	154.69879387874698	pulse	1.0	t		40.0	male	black	2.408674890569041	smiling	061	sub-11	1.0	2.0	061_smiling	0.0		220.6979230276279	
27.0	155.3987752543053	pulse	1.0	t		40.0	male	black	2.408674890569041	smiling	061	sub-11	1.0	2.0	061_smiling	0.0		221.3979044031862	
27.0	156.0987599502664	pulse	1.0	t		40.0	male	black	2.408674890569041	smiling	061	sub-11	1.0	2.0	061_smiling	0.0		222.09788909914732	
28.0	156.2736503996107	face	0.0		146	47.0	male	east_asian	2.171110226820533	neutral	024	sub-11	1.0	2.0	024_neutral	1.0	dominance	222.2727795484916	1.241644130689565
28.0	156.79875521114582	pulse	0.0	t		47.0	male	east_asian	2.171110226820533	neutral	024	sub-11	1.0	2.0	024_neutral	1.0	dominance	222.79788436002673	
28.0	157.4987374922689	pulse	0.0	t		47.0	male	east_asian	2.171110226820533	neutral	024	sub-11	1.0	2.0	024_neutral	1.0	dominance	223.4978666411498	
28.0	157.51529453030025	fix	1.0		176	47.0	male	east_asian	2.171110226820533	neutral	024	sub-11	1.0	2.0	024_neutral	1.0	dominance	223.51442367918116	1.4916363579286553
28.0	158.19872762161685	pulse	1.0	t		47.0	male	east_asian	2.171110226820533	neutral	024	sub-11	1.0	2.0	024_neutral	1.0	dominance	224.19785677049776	
28.0	158.89871563798079	pulse	1.0	t		47.0	male	east_asian	2.171110226820533	neutral	024	sub-11	1.0	2.0	024_neutral	1.0	dominance	224.8978447868617	
28.0	159.0069308882289	rating	2.0		295	47.0	male	east_asian	2.171110226820533	neutral	024	sub-11	1.0	2.0	024_neutral	1.0	dominance	225.00606003710982	2.4999452133524755
28.0	159.59870305063532	pulse	2.0	t		47.0	male	east_asian	2.171110226820533	neutral	024	sub-11	1.0	2.0	024_neutral	1.0	dominance	225.59783219951623	
28.0	160.29868291691992	pulse	2.0	t		47.0	male	east_asian	2.171110226820533	neutral	024	sub-11	1.0	2.0	024_neutral	1.0	dominance	226.29781206580083	
28.0	160.99867032957445	pulse	2.0	t		47.0	male	east_asian	2.171110226820533	neutral	024	sub-11	1.0	2.0	024_neutral	1.0	dominance	226.99779947845536	
28.0	161.201758847591	response	2.0	y		47.0	male	east_asian	2.171110226820533	neutral	024	sub-11	1.0	2.0	024_neutral	1.0	dominance	227.20088799647192	
28.0	161.50687610158138	fix	3.0		443	47.0	male	east_asian	2.171110226820533	neutral	024	sub-11	1.0	2.0	024_neutral	1.0	dominance	227.5060052504623	3.7665874499034544
28.0	161.69865230884216	pulse	3.0	t		47.0	male	east_asian	2.171110226820533	neutral	024	sub-11	1.0	2.0	024_neutral	1.0	dominance	227.69778145772307	
28.0	162.39866356802668	pulse	3.0	t		47.0	male	east_asian	2.171110226820533	neutral	024	sub-11	1.0	2.0	024_neutral	1.0	dominance	228.3977927169076	
28.0	163.09862079520053	pulse	3.0	t		47.0	male	east_asian	2.171110226820533	neutral	024	sub-11	1.0	2.0	024_neutral	1.0	dominance	229.09774994408144	
28.0	163.79860639672597	pulse	3.0	t		47.0	male	east_asian	2.171110226820533	neutral	024	sub-11	1.0	2.0	024_neutral	1.0	dominance	229.79773554560688	
28.0	164.49859441309036	pulse	3.0	t		47.0	male	east_asian	2.171110226820533	neutral	024	sub-11	1.0	2.0	024_neutral	1.0	dominance	230.49772356197127	
28.0	165.1985760905036	pulse	3.0	t		47.0	male	east_asian	2.171110226820533	neutral	024	sub-11	1.0	2.0	024_neutral	1.0	dominance	231.1977052393845	
29.0	165.27346355148484	face	0.0		146	19.0	female	white	4.298846000795861	smiling	100	sub-11	1.0	2.0	100_smiling	0.0		231.27259270036575	1.2333126361554605
29.0	165.8985695402539	pulse	0.0	t		19.0	female	white	4.298846000795861	smiling	100	sub-11	1.0	2.0	100_smiling	0.0		231.8976986891348	
29.0	166.5067761876403	fix	1.0		443	19.0	female	white	4.298846000795861	smiling	100	sub-11	1.0	2.0	100_smiling	0.0		232.5059053365212	3.766585940629284
29.0	166.5985551417798	pulse	1.0	t		19.0	female	white	4.298846000795861	smiling	100	sub-11	1.0	2.0	100_smiling	0.0		232.5976842906607	
29.0	167.29853349879022	pulse	1.0	t		19.0	female	white	4.298846000795861	smiling	100	sub-11	1.0	2.0	100_smiling	0.0		233.29766264767113	
29.0	167.99851728918702	pulse	1.0	t		19.0	female	white	4.298846000795861	smiling	100	sub-11	1.0	2.0	100_smiling	0.0		233.99764643806793	
29.0	168.69850772038944	pulse	1.0	t		19.0	female	white	4.298846000795861	smiling	100	sub-11	1.0	2.0	100_smiling	0.0		234.69763686927035	
29.0	169.39849452933458	pulse	1.0	t		19.0	female	white	4.298846000795861	smiling	100	sub-11	1.0	2.0	100_smiling	0.0		235.3976236782155	
29.0	170.09847439561872	pulse	1.0	t		19.0	female	white	4.298846000795861	smiling	100	sub-11	1.0	2.0	100_smiling	0.0		236.09760354449963	
30.0	170.27336212826958	face	0.0		146	21.0	male	black	2.969757262236371	neutral	137	sub-11	1.0	2.0	137_neutral	0.0		236.2724912771505	1.2416441306900197
30.0	170.7984672416601	pulse	0.0	t		21.0	male	black	2.969757262236371	neutral	137	sub-11	1.0	2.0	137_neutral	0.0		236.797596390541	
30.0	171.4984516357663	pulse	0.0	t		21.0	male	black	2.969757262236371	neutral	137	sub-11	1.0	2.0	137_neutral	0.0		237.4975807846472	
30.0	171.5150062589596	fix	1.0		443	21.0	male	black	2.969757262236371	neutral	137	sub-11	1.0	2.0	137_neutral	0.0		237.5141354078405	3.7499908688919277
30.0	172.19847225244985	pulse	1.0	t		21.0	male	black	2.969757262236371	neutral	137	sub-11	1.0	2.0	137_neutral	0.0		238.19760140133076	
30.0	172.89842253696315	pulse	1.0	t		21.0	male	black	2.969757262236371	neutral	137	sub-11	1.0	2.0	137_neutral	0.0		238.89755168584406	
30.0	173.59842081639044	pulse	1.0	t		21.0	male	black	2.969757262236371	neutral	137	sub-11	1.0	2.0	137_neutral	0.0		239.59754996527136	
30.0	174.298410342029	pulse	1.0	t		21.0	male	black	2.969757262236371	neutral	137	sub-11	1.0	2.0	137_neutral	0.0		240.2975394909099	
30.0	174.99837330444416	pulse	1.0	t		21.0	male	black	2.969757262236371	neutral	137	sub-11	1.0	2.0	137_neutral	0.0		240.99750245332507	
31.0	175.26499712785153	face	0.0		146	32.0	male	white	2.389176283326701	neutral	092	sub-11	1.0	2.0	092_neutral	0.0		241.26412627673244	1.241572289245596
31.0	175.69836433935598	pulse	0.0	t		32.0	male	white	2.389176283326701	neutral	092	sub-11	1.0	2.0	092_neutral	0.0		241.6974934882369	
31.0	176.39834994088187	pulse	0.0	t		32.0	male	white	2.389176283326701	neutral	092	sub-11	1.0	2.0	092_neutral	0.0		242.39747908976278	
31.0	176.50656941709713	fix	1.0		444	32.0	male	white	2.389176283326701	neutral	092	sub-11	1.0	2.0	092_neutral	0.0		242.50569856597804	3.766586242484209
31.0	177.09833765539133	pulse	1.0	t		32.0	male	white	2.389176283326701	neutral	092	sub-11	1.0	2.0	092_neutral	0.0		243.09746680427224	
31.0	177.79831903094964	pulse	1.0	t		32.0	male	white	2.389176283326701	neutral	092	sub-11	1.0	2.0	092_neutral	0.0		243.79744817983055	
31.0	178.49830795287835	pulse	1.0	t		32.0	male	white	2.389176283326701	neutral	092	sub-11	1.0	2.0	092_neutral	0.0		244.49743710175926	
31.0	179.1982935544038	pulse	1.0	t		32.0	male	white	2.389176283326701	neutral	092	sub-11	1.0	2.0	092_neutral	0.0		245.1974227032847	
31.0	179.8982743262527	pulse	1.0	t		32.0	male	white	2.389176283326701	neutral	092	sub-11	1.0	2.0	092_neutral	0.0		245.89740347513361	
32.0	180.27315565958133	face	0.0		145	25.0	female	west_asian	2.6756864305610826	smiling	064	sub-11	1.0	2.0	064_smiling	0.0		246.27228480846225	1.2333147491390264
32.0	180.59826566301945	pulse	0.0	t		25.0	female	west_asian	2.6756864305610826	smiling	064	sub-11	1.0	2.0	064_smiling	0.0		246.59739481190036	
32.0	181.29825126454534	pulse	0.0	t		25.0	female	west_asian	2.6756864305610826	smiling	064	sub-11	1.0	2.0	064_smiling	0.0		247.29738041342625	
32.0	181.50647040872036	fix	1.0		444	25.0	female	west_asian	2.6756864305610826	smiling	064	sub-11	1.0	2.0	064_smiling	0.0		247.50559955760127	3.7665814128076818
32.0	181.9982362623614	pulse	1.0	t		25.0	female	west_asian	2.6756864305610826	smiling	064	sub-11	1.0	2.0	064_smiling	0.0		247.9973654112423	
32.0	182.69821914719387	pulse	1.0	t		25.0	female	west_asian	2.6756864305610826	smiling	064	sub-11	1.0	2.0	064_smiling	0.0		248.69734829607478	
32.0	183.3982032394456	pulse	1.0	t		25.0	female	west_asian	2.6756864305610826	smiling	064	sub-11	1.0	2.0	064_smiling	0.0		249.3973323883265	
32.0	184.09819729290575	pulse	1.0	t		25.0	female	west_asian	2.6756864305610826	smiling	064	sub-11	1.0	2.0	064_smiling	0.0		250.09732644178666	
32.0	184.79817474435185	pulse	1.0	t		25.0	female	west_asian	2.6756864305610826	smiling	064	sub-11	1.0	2.0	064_smiling	0.0		250.79730389323277	
33.0	185.27305182152804	face	0.0		145	20.0	male	black	3.1070433744528456	neutral	082	sub-11	1.0	2.0	082_neutral	0.0		251.27218097040895	1.2333114287357603
33.0	185.49816517555428	pulse	0.0	t		20.0	male	black	3.1070433744528456	neutral	082	sub-11	1.0	2.0	082_neutral	0.0		251.4972943244352	
33.0	186.19814081587128	pulse	0.0	t		20.0	male	black	3.1070433744528456	neutral	082	sub-11	1.0	2.0	082_neutral	0.0		252.1972699647522	
33.0	186.5063632502638	fix	1.0		444	20.0	male	black	3.1070433744528456	neutral	082	sub-11	1.0	2.0	082_neutral	0.0		252.5054923991447	3.7665853369198885
33.0	186.89816716779615	pulse	1.0	t		20.0	male	black	3.1070433744528456	neutral	082	sub-11	1.0	2.0	082_neutral	0.0		252.89729631667706	
33.0	187.59812318755075	pulse	1.0	t		20.0	male	black	3.1070433744528456	neutral	082	sub-11	1.0	2.0	082_neutral	0.0		253.59725233643167	
33.0	188.29810426125414	pulse	1.0	t		20.0	male	black	3.1070433744528456	neutral	082	sub-11	1.0	2.0	082_neutral	0.0		254.29723341013505	
33.0	188.9980971072955	pulse	1.0	t		20.0	male	black	3.1070433744528456	neutral	082	sub-11	1.0	2.0	082_neutral	0.0		254.99722625617642	
33.0	189.69808180325663	pulse	1.0	t		20.0	male	black	3.1070433744528456	neutral	082	sub-11	1.0	2.0	082_neutral	0.0		255.69721095213754	
34.0	190.2729485871837	face	0.0		145	24.0	female	east_asian	2.9076800636689217	neutral	034	sub-11	1.0	2.0	034_neutral	0.0		256.2720777360646	1.23331112688129
34.0	190.3980704233304	pulse	0.0	t		24.0	female	east_asian	2.9076800636689217	neutral	034	sub-11	1.0	2.0	034_neutral	0.0		256.3971995722113	
34.0	191.09804304509953	pulse	0.0	t		24.0	female	east_asian	2.9076800636689217	neutral	034	sub-11	1.0	2.0	034_neutral	0.0		257.09717219398044	
34.0	191.50625971406498	fix	1.0		444	24.0	female	east_asian	2.9076800636689217	neutral	034	sub-11	1.0	2.0	034_neutral	0.0		257.5053888629459	3.758343191408585
34.0	191.79803679670476	pulse	1.0	t		24.0	female	east_asian	2.9076800636689217	neutral	034	sub-11	1.0	2.0	034_neutral	0.0		257.7971659455857	
34.0	192.49802390750438	pulse	1.0	t		24.0	female	east_asian	2.9076800636689217	neutral	034	sub-11	1.0	2.0	034_neutral	0.0		258.4971530563853	
34.0	193.19800347193404	pulse	1.0	t		24.0	female	east_asian	2.9076800636689217	neutral	034	sub-11	1.0	2.0	034_neutral	0.0		259.19713262081495	
34.0	193.89798877160501	pulse	1.0	t		24.0	female	east_asian	2.9076800636689217	neutral	034	sub-11	1.0	2.0	034_neutral	0.0		259.8971179204859	
34.0	194.59797618425955	pulse	1.0	t		24.0	female	east_asian	2.9076800636689217	neutral	034	sub-11	1.0	2.0	034_neutral	0.0		260.59710533314046	
35.0	195.26460290547357	face	0.0		146	25.0	female	west_asian	2.6756864305610826	neutral	064	sub-11	1.0	2.0	064_neutral	0.0		261.2637320543545	1.2415553853761594
35.0	195.29798774529854	pulse	0.0	t		25.0	female	west_asian	2.6756864305610826	neutral	064	sub-11	1.0	2.0	064_neutral	0.0		261.29711689417945	
35.0	195.99794406690808	pulse	0.0	t		25.0	female	west_asian	2.6756864305610826	neutral	064	sub-11	1.0	2.0	064_neutral	0.0		261.997073215789	
35.0	196.50615829084973	fix	1.0		443	25.0	female	west_asian	2.6756864305610826	neutral	064	sub-11	1.0	2.0	064_neutral	0.0		262.50528743973064	3.7665859406297386
35.0	196.6979338944011	pulse	1.0	t		25.0	female	west_asian	2.6756864305610826	neutral	064	sub-11	1.0	2.0	064_neutral	0.0		262.697063043282	
35.0	197.39791889221715	pulse	1.0	t		25.0	female	west_asian	2.6756864305610826	neutral	064	sub-11	1.0	2.0	064_neutral	0.0		263.39704804109806	
35.0	198.0979014751947	pulse	1.0	t		25.0	female	west_asian	2.6756864305610826	neutral	064	sub-11	1.0	2.0	064_neutral	0.0		264.0970306240756	
35.0	198.79788828413984	pulse	1.0	t		25.0	female	west_asian	2.6756864305610826	neutral	064	sub-11	1.0	2.0	064_neutral	0.0		264.79701743302076	
35.0	199.49787599864885	pulse	1.0	t		25.0	female	west_asian	2.6756864305610826	neutral	064	sub-11	1.0	2.0	064_neutral	0.0		265.49700514752976	
35.0	200.1978522426757	pulse	1.0	t		25.0	female	west_asian	2.6756864305610826	neutral	064	sub-11	1.0	2.0	064_neutral	0.0		266.1969813915566	
36.0	200.27274423147946	face	0.0		146	30.0	female	black	2.7345801830481498	neutral	062	sub-11	1.0	2.0	062_neutral	0.0		266.2718733803604	1.23331112688129
36.0	200.8978475035551	pulse	0.0	t		30.0	female	black	2.7345801830481498	neutral	062	sub-11	1.0	2.0	062_neutral	0.0		266.896976652436	
36.0	201.50605535836075	fix	1.0		443	30.0	female	black	2.7345801830481498	neutral	062	sub-11	1.0	2.0	062_neutral	0.0		267.50518450724167	3.7665853369194338
36.0	201.59783159580684	pulse	1.0	t		30.0	female	black	2.7345801830481498	neutral	062	sub-11	1.0	2.0	062_neutral	0.0		267.59696074468775	
36.0	202.2978141787844	pulse	1.0	t		30.0	female	black	2.7345801830481498	neutral	062	sub-11	1.0	2.0	062_neutral	0.0		268.2969433276653	
36.0	202.99780249700325	pulse	1.0	t		30.0	female	black	2.7345801830481498	neutral	062	sub-11	1.0	2.0	062_neutral	0.0		268.99693164588416	
36.0	203.69778779667422	pulse	1.0	t		30.0	female	black	2.7345801830481498	neutral	062	sub-11	1.0	2.0	062_neutral	0.0		269.69691694555513	
36.0	204.39777611489308	pulse	1.0	t		30.0	female	black	2.7345801830481498	neutral	062	sub-11	1.0	2.0	062_neutral	0.0		270.396905263774	
36.0	205.0977765073044	pulse	1.0	t		30.0	female	black	2.7345801830481498	neutral	062	sub-11	1.0	2.0	062_neutral	0.0		271.0969056561853	
37.0	205.2726406952802	face	0.0		146	31.0	female	white	2.1822522881018704	neutral	102	sub-11	1.0	2.0	102_neutral	1.0	dominance	271.2717698441611	1.241647752947756
37.0	205.7977458086707	pulse	0.0	t		31.0	female	white	2.1822522881018704	neutral	102	sub-11	1.0	2.0	102_neutral	1.0	dominance	271.7968749575516	
37.0	206.49773322132523	pulse	0.0	t		31.0	female	white	2.1822522881018704	neutral	102	sub-11	1.0	2.0	102_neutral	1.0	dominance	272.49686237020614	
37.0	206.51428844822794	fix	1.0		176	31.0	female	white	2.1822522881018704	neutral	102	sub-11	1.0	2.0	102_neutral	1.0	dominance	272.51341759710886	1.491632735670919
37.0	207.1977158043028	pulse	1.0	t		31.0	female	white	2.1822522881018704	neutral	102	sub-11	1.0	2.0	102_neutral	1.0	dominance	273.1968449531837	
37.0	207.89770261324793	pulse	1.0	t		31.0	female	white	2.1822522881018704	neutral	102	sub-11	1.0	2.0	102_neutral	1.0	dominance	273.89683176212884	
37.0	208.00592118389886	rating	2.0		295	31.0	female	white	2.1822522881018704	neutral	102	sub-11	1.0	2.0	102_neutral	1.0	dominance	274.0050503327798	2.499949137465137
37.0	208.59770843904562	pulse	2.0	t		31.0	female	white	2.1822522881018704	neutral	102	sub-11	1.0	2.0	102_neutral	1.0	dominance	274.59683758792653	
37.0	209.29767834412132	pulse	2.0	t		31.0	female	white	2.1822522881018704	neutral	102	sub-11	1.0	2.0	102_neutral	1.0	dominance	275.29680749300223	
37.0	209.82579808147148	response	2.0	b		31.0	female	white	2.1822522881018704	neutral	102	sub-11	1.0	2.0	102_neutral	1.0	dominance	275.8249272303524	
37.0	209.99765670113175	pulse	2.0	t		31.0	female	white	2.1822522881018704	neutral	102	sub-11	1.0	2.0	102_neutral	1.0	dominance	275.99678585001266	
37.0	210.505870321364	fix	3.0		443	31.0	female	white	2.1822522881018704	neutral	102	sub-11	1.0	2.0	102_neutral	1.0	dominance	276.5049994702449	3.7665853369194338
37.0	210.69764864160834	pulse	3.0	t		31.0	female	white	2.1822522881018704	neutral	102	sub-11	1.0	2.0	102_neutral	1.0	dominance	276.69677779048925	
37.0	211.39763092273097	pulse	3.0	t		31.0	female	white	2.1822522881018704	neutral	102	sub-11	1.0	2.0	102_neutral	1.0	dominance	277.3967600716119	
37.0	212.09761350570852	pulse	3.0	t		31.0	female	white	2.1822522881018704	neutral	102	sub-11	1.0	2.0	102_neutral	1.0	dominance	278.09674265458943	
37.0	212.79762627416721	pulse	3.0	t		31.0	female	white	2.1822522881018704	neutral	102	sub-11	1.0	2.0	102_neutral	1.0	dominance	278.7967554230481	
37.0	213.49759949964573	pulse	3.0	t		31.0	female	white	2.1822522881018704	neutral	102	sub-11	1.0	2.0	102_neutral	1.0	dominance	279.49672864852664	
37.0	214.1975748381078	pulse	3.0	t		31.0	female	white	2.1822522881018704	neutral	102	sub-11	1.0	2.0	102_neutral	1.0	dominance	280.1967039869887	
38.0	214.27245565828343	face	0.0		146	27.0	male	black	3.5523278949462798	neutral	042	sub-11	1.0	2.0	042_neutral	1.0	attractiveness	280.27158480716434	1.2333126361554605
38.0	214.89756013777878	pulse	0.0	t		27.0	male	black	3.5523278949462798	neutral	042	sub-11	1.0	2.0	042_neutral	1.0	attractiveness	280.8966892866597	
38.0	215.5057682944389	fix	1.0		177	27.0	male	black	3.5523278949462798	neutral	042	sub-11	1.0	2.0	042_neutral	1.0	attractiveness	281.5048974433198	1.5083029692550554
38.0	215.59754694672347	pulse	1.0	t		27.0	male	black	3.5523278949462798	neutral	042	sub-11	1.0	2.0	042_neutral	1.0	attractiveness	281.5966760956044	
38.0	216.29752168147616	pulse	1.0	t		27.0	male	black	3.5523278949462798	neutral	042	sub-11	1.0	2.0	042_neutral	1.0	attractiveness	282.29665083035707	
38.0	216.99752720541937	pulse	1.0	t		27.0	male	black	3.5523278949462798	neutral	042	sub-11	1.0	2.0	042_neutral	1.0	attractiveness	282.9966563543003	
38.0	217.01407126369395	rating	2.0		295	27.0	male	black	3.5523278949462798	neutral	042	sub-11	1.0	2.0	042_neutral	1.0	attractiveness	283.01320041257486	2.4916221707526347
38.0	217.69750827912276	pulse	2.0	t		27.0	male	black	3.5523278949462798	neutral	042	sub-11	1.0	2.0	042_neutral	1.0	attractiveness	283.69663742800367	
38.0	218.39749297508433	pulse	2.0	t		27.0	male	black	3.5523278949462798	neutral	042	sub-11	1.0	2.0	042_neutral	1.0	attractiveness	284.39662212396524	
38.0	219.09750513983272	pulse	2.0	t		27.0	male	black	3.5523278949462798	neutral	042	sub-11	1.0	2.0	042_neutral	1.0	attractiveness	285.09663428871363	
38.0	219.50569343444658	fix	3.0		443	27.0	male	black	3.5523278949462798	neutral	042	sub-11	1.0	2.0	042_neutral	1.0	attractiveness	285.5048225833275	3.7665726590180384
38.0	219.7307989402484	response	3.0	e		27.0	male	black	3.5523278949462798	neutral	042	sub-11	1.0	2.0	042_neutral	1.0	attractiveness	285.7299280891293	
38.0	219.79744274644418	pulse	3.0	t		27.0	male	black	3.5523278949462798	neutral	042	sub-11	1.0	2.0	042_neutral	1.0	attractiveness	285.7965718953251	
38.0	220.4974621557085	pulse	3.0	t		27.0	male	black	3.5523278949462798	neutral	042	sub-11	1.0	2.0	042_neutral	1.0	attractiveness	286.4965913045894	
38.0	221.19742300513963	pulse	3.0	t		27.0	male	black	3.5523278949462798	neutral	042	sub-11	1.0	2.0	042_neutral	1.0	attractiveness	287.19655215402054	
38.0	221.89740981408477	pulse	3.0	t		27.0	male	black	3.5523278949462798	neutral	042	sub-11	1.0	2.0	042_neutral	1.0	attractiveness	287.8965389629657	
38.0	222.59740084899704	pulse	3.0	t		27.0	male	black	3.5523278949462798	neutral	042	sub-11	1.0	2.0	042_neutral	1.0	attractiveness	288.59652999787795	
39.0	223.27226609346462	face	0.0		145	31.0	male	west_asian	1.9538400318344609	neutral	070	sub-11	1.0	2.0	070_neutral	1.0	attractiveness	289.27139524234553	1.2333177676869127
39.0	223.2974000339891	pulse	0.0	t		31.0	male	west_asian	1.9538400318344609	neutral	070	sub-11	1.0	2.0	070_neutral	1.0	attractiveness	289.29652918287	
39.0	223.99736088342024	pulse	0.0	t		31.0	male	west_asian	1.9538400318344609	neutral	070	sub-11	1.0	2.0	070_neutral	1.0	attractiveness	289.99649003230115	
39.0	224.50558386115154	fix	1.0		177	31.0	male	west_asian	1.9538400318344609	neutral	070	sub-11	1.0	2.0	070_neutral	1.0	attractiveness	290.50471301003245	1.4999696635918554
39.0	224.69736097397708	pulse	1.0	t		31.0	male	west_asian	1.9538400318344609	neutral	070	sub-11	1.0	2.0	070_neutral	1.0	attractiveness	290.696490122858	
39.0	225.3973381235678	pulse	1.0	t		31.0	male	west_asian	1.9538400318344609	neutral	070	sub-11	1.0	2.0	070_neutral	1.0	attractiveness	291.3964672724487	
39.0	226.0055535247434	rating	2.0		295	31.0	male	west_asian	1.9538400318344609	neutral	070	sub-11	1.0	2.0	070_neutral	1.0	attractiveness	292.0046826736243	2.499946722626646
39.0	226.09734364751102	pulse	2.0	t		31.0	male	west_asian	1.9538400318344609	neutral	070	sub-11	1.0	2.0	070_neutral	1.0	attractiveness	292.09647279639194	
39.0	226.79731958968296	pulse	2.0	t		31.0	male	west_asian	1.9538400318344609	neutral	070	sub-11	1.0	2.0	070_neutral	1.0	attractiveness	292.79644873856387	
39.0	227.49731726540085	pulse	2.0	t		31.0	male	west_asian	1.9538400318344609	neutral	070	sub-11	1.0	2.0	070_neutral	1.0	attractiveness	293.49644641428176	
39.0	228.19728928346012	pulse	2.0	t		31.0	male	west_asian	1.9538400318344609	neutral	070	sub-11	1.0	2.0	070_neutral	1.0	attractiveness	294.19641843234103	
39.0	228.50550024737004	fix	3.0		444	31.0	male	west_asian	1.9538400318344609	neutral	070	sub-11	1.0	2.0	070_neutral	1.0	attractiveness	294.50462939625095	3.7499220459963
39.0	228.8972772998245	pulse	3.0	t		31.0	male	west_asian	1.9538400318344609	neutral	070	sub-11	1.0	2.0	070_neutral	1.0	attractiveness	294.8964064487054	
39.0	229.59725656239925	pulse	3.0	t		31.0	male	west_asian	1.9538400318344609	neutral	070	sub-11	1.0	2.0	070_neutral	1.0	attractiveness	295.59638571128016	
39.0	230.29724035279605	pulse	3.0	t		31.0	male	west_asian	1.9538400318344609	neutral	070	sub-11	1.0	2.0	070_neutral	1.0	attractiveness	296.29636950167696	
39.0	230.99722625617642	pulse	3.0	t		31.0	male	west_asian	1.9538400318344609	neutral	070	sub-11	1.0	2.0	070_neutral	1.0	attractiveness	296.99635540505733	
39.0	231.69720944286382	pulse	3.0	t		31.0	male	west_asian	1.9538400318344609	neutral	070	sub-11	1.0	2.0	070_neutral	1.0	attractiveness	297.69633859174473	
40.0	232.25542229336634	fix	0.0		720													298.25455144224725	5.999876843238326
40.0	232.39720228890474	pulse	0.0	t														298.39633143778565	
40.0	233.09718275889873	pulse	0.0	t														299.09631190777964	
40.0	233.7971909995349	pulse	0.0	t														299.7963201484158	
40.0	234.4971551693693	pulse	0.0	t														300.4962843182502	
40.0	235.19713654492762	pulse	0.0	t														301.1962656938085	
40.0	235.89712305201783	pulse	0.0	t														301.89625220089874	
40.0	236.5971107665273	pulse	0.0	t														302.5962399154082	
40.0	237.2970972736175	pulse	0.0	t														303.2962264224984	
40.0	237.99708619554576	pulse	0.0	t														303.9962153444267	
