trial_nr	onset	event_type	phase	response	nr_frames	face_age	face_sex	face_eth	attractiveness	expression	face_id	sub_id	ses	run	trial_type	catch	rating_type	onset_abs	duration
-1.0	0.05673507963319935	fix	0.0		714													89.09493759340467	5.966096778292922
-1.0	0.7064256350458891	pulse	0.0	t														89.74462814881736	
-1.0	1.40642814042576	pulse	0.0	t														90.44463065419723	
-1.0	2.1064004605068476	pulse	0.0	t														91.14460297427831	
-1.0	2.806383949148767	pulse	0.0	t														91.84458646292023	
-1.0	3.506363815554323	pulse	0.0	t														92.54456632932579	
-1.0	4.206360283874801	pulse	0.0	t														93.24456279764627	
-1.0	4.906322340954375	pulse	0.0	t														93.94452485472584	
-1.0	5.6063139796265204	pulse	0.0	t														94.64451649339799	
0.0	6.022831857926121	face	0.0		144	40.0	female	west_asian	1.5777954635893354	neutral	038	sub-14	1.0	4.0	038_neutral	0.0		95.06103437169759	1.2333127368979149
0.0	6.306297770121546	pulse	0.0	t		40.0	female	west_asian	1.5777954635893354	neutral	038	sub-14	1.0	4.0	038_neutral	0.0		95.34450028389301	
0.0	7.006274919850512	pulse	0.0	t		40.0	female	west_asian	1.5777954635893354	neutral	038	sub-14	1.0	4.0	038_neutral	0.0		96.04447743362198	
0.0	7.256144594824036	fix	1.0		444	40.0	female	west_asian	1.5777954635893354	neutral	038	sub-14	1.0	4.0	038_neutral	0.0		96.2943471085955	3.766553240376652
0.0	7.706258710345082	pulse	1.0	t		40.0	female	west_asian	1.5777954635893354	neutral	038	sub-14	1.0	4.0	038_neutral	0.0		96.74446122411655	
0.0	8.406235860074048	pulse	1.0	t		40.0	female	west_asian	1.5777954635893354	neutral	038	sub-14	1.0	4.0	038_neutral	0.0		97.44443837384551	
0.0	9.106211802391499	pulse	1.0	t		40.0	female	west_asian	1.5777954635893354	neutral	038	sub-14	1.0	4.0	038_neutral	0.0		98.14441431616297	
0.0	9.806195291032964	pulse	1.0	t		40.0	female	west_asian	1.5777954635893354	neutral	038	sub-14	1.0	4.0	038_neutral	0.0		98.84439780480443	
0.0	10.506167912967157	pulse	1.0	t		40.0	female	west_asian	1.5777954635893354	neutral	038	sub-14	1.0	4.0	038_neutral	0.0		99.54437042673862	
1.0	11.022697835200688	face	0.0		145	34.0	male	white	2.651014723438122	smiling	121	sub-14	1.0	4.0	121_smiling	0.0		100.06090034897215	1.233313642457233
1.0	11.206230487091034	pulse	0.0	t		34.0	male	white	2.651014723438122	smiling	121	sub-14	1.0	4.0	121_smiling	0.0		100.2444330008625	
1.0	11.906141832869253	pulse	0.0	t		34.0	male	white	2.651014723438122	smiling	121	sub-14	1.0	4.0	121_smiling	0.0		100.94434434664072	
1.0	12.256011477657921	fix	1.0		444	34.0	male	white	2.651014723438122	smiling	121	sub-14	1.0	4.0	121_smiling	0.0		101.29421399142939	3.7665493162876373
1.0	12.606118982598218	pulse	1.0	t		34.0	male	white	2.651014723438122	smiling	121	sub-14	1.0	4.0	121_smiling	0.0		101.64432149636968	
1.0	13.306110621270818	pulse	1.0	t		34.0	male	white	2.651014723438122	smiling	121	sub-14	1.0	4.0	121_smiling	0.0		102.34431313504228	
1.0	14.00607992282221	pulse	1.0	t		34.0	male	white	2.651014723438122	smiling	121	sub-14	1.0	4.0	121_smiling	0.0		103.04428243659368	
1.0	14.70606492072875	pulse	1.0	t		34.0	male	white	2.651014723438122	smiling	121	sub-14	1.0	4.0	121_smiling	0.0		103.74426743450022	
1.0	15.406027581514536	pulse	1.0	t		34.0	male	white	2.651014723438122	smiling	121	sub-14	1.0	4.0	121_smiling	0.0		104.444230095286	
2.0	16.02256079394556	face	0.0		145	25.0	female	black	3.858336649423	neutral	126	sub-14	1.0	4.0	126_neutral	0.0		105.06076330771702	1.233322094340565
2.0	16.106029483188195	pulse	0.0	t		25.0	female	black	3.858336649423	neutral	126	sub-14	1.0	4.0	126_neutral	0.0		105.14423199695966	
2.0	16.806021121860795	pulse	0.0	t		25.0	female	black	3.858336649423	neutral	126	sub-14	1.0	4.0	126_neutral	0.0		105.84422363563226	
2.0	17.255882888286123	fix	1.0		444	25.0	female	black	3.858336649423	neutral	126	sub-14	1.0	4.0	126_neutral	0.0		106.29408540205759	3.758252585144419
2.0	17.505963256643554	pulse	1.0	t		25.0	female	black	3.858336649423	neutral	126	sub-14	1.0	4.0	126_neutral	0.0		106.54416577041502	
2.0	18.205967271288046	pulse	1.0	t		25.0	female	black	3.858336649423	neutral	126	sub-14	1.0	4.0	126_neutral	0.0		107.24416978505951	
2.0	18.905951363635722	pulse	1.0	t		25.0	female	black	3.858336649423	neutral	126	sub-14	1.0	4.0	126_neutral	0.0		107.94415387740719	
2.0	19.60593726710158	pulse	1.0	t		25.0	female	black	3.858336649423	neutral	126	sub-14	1.0	4.0	126_neutral	0.0		108.64413978087305	
2.0	20.305916831654486	pulse	1.0	t		25.0	female	black	3.858336649423	neutral	126	sub-14	1.0	4.0	126_neutral	0.0		109.34411934542595	
3.0	21.014135473430542	face	0.0		147	22.0	male	black	2.767608436132113	smiling	044	sub-14	1.0	4.0	044_smiling	0.0		110.05233798720201	1.241613693983254
3.0	21.00822881422164	pulse	0.0	t		22.0	male	black	2.767608436132113	smiling	044	sub-14	1.0	4.0	044_smiling	0.0		110.0464313279931	
3.0	21.705885921908703	pulse	0.0	t		22.0	male	black	2.767608436132113	smiling	044	sub-14	1.0	4.0	044_smiling	0.0		110.74408843568017	
3.0	22.255749167413796	fix	1.0		443	22.0	male	black	2.767608436132113	smiling	044	sub-14	1.0	4.0	044_smiling	0.0		111.29395168118526	3.7665592774364995
3.0	22.405869712403273	pulse	1.0	t		22.0	male	black	2.767608436132113	smiling	044	sub-14	1.0	4.0	044_smiling	0.0		111.44407222617474	
3.0	23.105842636190573	pulse	1.0	t		22.0	male	black	2.767608436132113	smiling	044	sub-14	1.0	4.0	044_smiling	0.0		112.14404514996204	
3.0	23.805824615567417	pulse	1.0	t		22.0	male	black	2.767608436132113	smiling	044	sub-14	1.0	4.0	044_smiling	0.0		112.84402712933888	
3.0	24.505797539354717	pulse	1.0	t		22.0	male	black	2.767608436132113	smiling	044	sub-14	1.0	4.0	044_smiling	0.0		113.54400005312618	
3.0	25.205784952085196	pulse	1.0	t		22.0	male	black	2.767608436132113	smiling	044	sub-14	1.0	4.0	044_smiling	0.0		114.24398746585666	
3.0	25.9057645166381	pulse	1.0	t		22.0	male	black	2.767608436132113	smiling	044	sub-14	1.0	4.0	044_smiling	0.0		114.94396703040957	
4.0	26.022308444850296	face	0.0		146	22.0	female	white	4.614007162753682	smiling	009	sub-14	1.0	4.0	009_smiling	0.0		115.06051095862176	1.2333205850754894
4.0	26.605748307133126	pulse	0.0	t		22.0	female	white	4.614007162753682	smiling	009	sub-14	1.0	4.0	009_smiling	0.0		115.64395082090459	
4.0	27.255629029925785	fix	1.0		444	22.0	female	white	4.614007162753682	smiling	009	sub-14	1.0	4.0	009_smiling	0.0		116.29383154369725	3.758298164945245
4.0	27.305735719863605	pulse	1.0	t		22.0	female	white	4.614007162753682	smiling	009	sub-14	1.0	4.0	009_smiling	0.0		116.34393823363507	
4.0	28.005718604799313	pulse	1.0	t		22.0	female	white	4.614007162753682	smiling	009	sub-14	1.0	4.0	009_smiling	0.0		117.04392111857078	
4.0	28.705696358234036	pulse	1.0	t		22.0	female	white	4.614007162753682	smiling	009	sub-14	1.0	4.0	009_smiling	0.0		117.7438988720055	
4.0	29.40568497837694	pulse	1.0	t		22.0	female	white	4.614007162753682	smiling	009	sub-14	1.0	4.0	009_smiling	0.0		118.4438874921484	
4.0	30.105645828044544	pulse	1.0	t		22.0	female	white	4.614007162753682	smiling	009	sub-14	1.0	4.0	009_smiling	0.0		119.14384834181601	
4.0	30.805641088952598	pulse	1.0	t		22.0	female	white	4.614007162753682	smiling	009	sub-14	1.0	4.0	009_smiling	0.0		119.84384360272406	
5.0	31.01392719487103	face	0.0		146	20.0	male	black	2.609629924393156	smiling	043	sub-14	1.0	4.0	043_smiling	0.0		120.0521297086425	1.241568416035534
5.0	31.505628803536183	pulse	0.0	t		20.0	male	black	2.609629924393156	smiling	043	sub-14	1.0	4.0	043_smiling	0.0		120.54383131730765	
5.0	32.205599916205756	pulse	0.0	t		20.0	male	black	2.609629924393156	smiling	043	sub-14	1.0	4.0	043_smiling	0.0		121.24380242997722	
5.0	32.255495610906564	fix	1.0		445	20.0	male	black	2.609629924393156	smiling	043	sub-14	1.0	4.0	043_smiling	0.0		121.29369812467803	3.75834615957001
5.0	32.90558944190707	pulse	1.0	t		20.0	male	black	2.609629924393156	smiling	043	sub-14	1.0	4.0	043_smiling	0.0		121.94379195567853	
5.0	33.60556689348914	pulse	1.0	t		20.0	male	black	2.609629924393156	smiling	043	sub-14	1.0	4.0	043_smiling	0.0		122.6437694072606	
5.0	34.305545250630075	pulse	1.0	t		20.0	male	black	2.609629924393156	smiling	043	sub-14	1.0	4.0	043_smiling	0.0		123.34374776440154	
5.0	35.005513948475254	pulse	1.0	t		20.0	male	black	2.609629924393156	smiling	043	sub-14	1.0	4.0	043_smiling	0.0		124.04371646224672	
5.0	35.70551826497331	pulse	1.0	t		20.0	male	black	2.609629924393156	smiling	043	sub-14	1.0	4.0	043_smiling	0.0		124.74372077874477	
6.0	36.013841770476574	face	0.0		146	25.0	female	black	3.858336649423	smiling	126	sub-14	1.0	4.0	126_smiling	1.0	trustworthiness	125.05204428424804	1.241520723263875
6.0	36.40548726467159	pulse	0.0	t		25.0	female	black	3.858336649423	smiling	126	sub-14	1.0	4.0	126_smiling	1.0	trustworthiness	125.44368977844306	
6.0	37.105477997784874	pulse	0.0	t		25.0	female	black	3.858336649423	smiling	126	sub-14	1.0	4.0	126_smiling	1.0	trustworthiness	126.14368051155634	
6.0	37.25536249374045	fix	1.0		177	25.0	female	black	3.858336649423	smiling	126	sub-14	1.0	4.0	126_smiling	1.0	trustworthiness	126.29356500751192	1.5083258599561304
6.0	37.805459071602854	pulse	1.0	t		25.0	female	black	3.858336649423	smiling	126	sub-14	1.0	4.0	126_smiling	1.0	trustworthiness	126.84366158537432	
6.0	38.50542475091834	pulse	1.0	t		25.0	female	black	3.858336649423	smiling	126	sub-14	1.0	4.0	126_smiling	1.0	trustworthiness	127.5436272646898	
6.0	38.76368835369658	rating	2.0		294	25.0	female	black	3.858336649423	smiling	126	sub-14	1.0	4.0	126_smiling	1.0	trustworthiness	127.80189086746805	2.4915696989110074
6.0	39.20013426420746	pulse	2.0	t		25.0	female	black	3.858336649423	smiling	126	sub-14	1.0	4.0	126_smiling	1.0	trustworthiness	128.23833677797893	
6.0	39.900109300965596	pulse	2.0	t		25.0	female	black	3.858336649423	smiling	126	sub-14	1.0	4.0	126_smiling	1.0	trustworthiness	128.93831181473706	
6.0	40.05538579679069	response	2.0	y		25.0	female	black	3.858336649423	smiling	126	sub-14	1.0	4.0	126_smiling	1.0	trustworthiness	129.09358831056215	
6.0	40.60538095205038	pulse	2.0	t		25.0	female	black	3.858336649423	smiling	126	sub-14	1.0	4.0	126_smiling	1.0	trustworthiness	129.64358346582185	
6.0	41.25525805260759	fix	3.0		443	25.0	female	black	3.858336649423	smiling	126	sub-14	1.0	4.0	126_smiling	1.0	trustworthiness	130.29346056637905	3.7665321106678675
6.0	41.305358705485105	pulse	3.0	t		25.0	female	black	3.858336649423	smiling	126	sub-14	1.0	4.0	126_smiling	1.0	trustworthiness	130.34356121925657	
6.0	42.00534068486195	pulse	3.0	t		25.0	female	black	3.858336649423	smiling	126	sub-14	1.0	4.0	126_smiling	1.0	trustworthiness	131.04354319863342	
6.0	42.7053262864747	pulse	3.0	t		25.0	female	black	3.858336649423	smiling	126	sub-14	1.0	4.0	126_smiling	1.0	trustworthiness	131.74352880024617	
6.0	43.40529679543806	pulse	3.0	t		25.0	female	black	3.858336649423	smiling	126	sub-14	1.0	4.0	126_smiling	1.0	trustworthiness	132.44349930920953	
6.0	44.10528300075657	pulse	3.0	t		25.0	female	black	3.858336649423	smiling	126	sub-14	1.0	4.0	126_smiling	1.0	trustworthiness	133.14348551452804	
6.0	44.80527222460523	pulse	3.0	t		25.0	female	black	3.858336649423	smiling	126	sub-14	1.0	4.0	126_smiling	1.0	trustworthiness	133.8434747383767	
7.0	45.021790163275455	face	0.0		145	31.0	female	white	2.1822522881018704	smiling	102	sub-14	1.0	4.0	102_smiling	0.0		134.05999267704692	1.2333214906343528
7.0	45.505244846539426	pulse	0.0	t		31.0	female	white	2.1822522881018704	smiling	102	sub-14	1.0	4.0	102_smiling	0.0		134.5434473603109	
7.0	46.205227731475134	pulse	0.0	t		31.0	female	white	2.1822522881018704	smiling	102	sub-14	1.0	4.0	102_smiling	0.0		135.2434302452466	
7.0	46.25511165390981	fix	1.0		445	31.0	female	white	2.1822522881018704	smiling	102	sub-14	1.0	4.0	102_smiling	0.0		135.29331416768127	3.758245944378814
7.0	46.90521786088266	pulse	1.0	t		31.0	female	white	2.1822522881018704	smiling	102	sub-14	1.0	4.0	102_smiling	0.0		135.94342037465412	
7.0	47.605183238345035	pulse	1.0	t		31.0	female	white	2.1822522881018704	smiling	102	sub-14	1.0	4.0	102_smiling	0.0		136.6433857521165	
7.0	48.30517668813536	pulse	1.0	t		31.0	female	white	2.1822522881018704	smiling	102	sub-14	1.0	4.0	102_smiling	0.0		137.34337920190683	
7.0	49.005153536011676	pulse	1.0	t		31.0	female	white	2.1822522881018704	smiling	102	sub-14	1.0	4.0	102_smiling	0.0		138.04335604978314	
7.0	49.70513310056458	pulse	1.0	t		31.0	female	white	2.1822522881018704	smiling	102	sub-14	1.0	4.0	102_smiling	0.0		138.74333561433605	
8.0	50.01335759828862	face	0.0		146	27.0	male	black	3.5523278949462798	neutral	042	sub-14	1.0	4.0	042_neutral	0.0		139.0515601120601	1.2416366348102201
8.0	50.40512383367786	pulse	0.0	t		27.0	male	black	3.5523278949462798	neutral	042	sub-14	1.0	4.0	042_neutral	0.0		139.44332634744933	
8.0	51.10508890928759	pulse	0.0	t		27.0	male	black	3.5523278949462798	neutral	042	sub-14	1.0	4.0	042_neutral	0.0		140.14329142305905	
8.0	51.25499423309884	fix	1.0		445	27.0	male	black	3.5523278949462798	neutral	042	sub-14	1.0	4.0	042_neutral	0.0		140.2931967468703	3.766545694051729
8.0	51.80505760713277	pulse	1.0	t		27.0	male	black	3.5523278949462798	neutral	042	sub-14	1.0	4.0	042_neutral	0.0		140.84326012090423	
8.0	52.505063734748546	pulse	1.0	t		27.0	male	black	3.5523278949462798	neutral	042	sub-14	1.0	4.0	042_neutral	0.0		141.54326624852	
8.0	53.2050493363613	pulse	1.0	t		27.0	male	black	3.5523278949462798	neutral	042	sub-14	1.0	4.0	042_neutral	0.0		142.24325185013276	
8.0	53.90501199714663	pulse	1.0	t		27.0	male	black	3.5523278949462798	neutral	042	sub-14	1.0	4.0	042_neutral	0.0		142.9432145109181	
8.0	54.60500665434893	pulse	1.0	t		27.0	male	black	3.5523278949462798	neutral	042	sub-14	1.0	4.0	042_neutral	0.0		143.6432091681204	
9.0	55.02153992715057	face	0.0		145	20.0	male	black	2.609629924393156	neutral	043	sub-14	1.0	4.0	043_neutral	0.0		144.05974244092204	1.2333187739577625
9.0	55.304996481903345	pulse	0.0	t		20.0	male	black	2.609629924393156	neutral	043	sub-14	1.0	4.0	043_neutral	0.0		144.3431989956748	
9.0	56.00496487789587	pulse	0.0	t		20.0	male	black	2.609629924393156	neutral	043	sub-14	1.0	4.0	043_neutral	0.0		145.04316739166734	
9.0	56.25485870110833	fix	1.0		445	20.0	male	black	2.609629924393156	neutral	043	sub-14	1.0	4.0	043_neutral	0.0		145.2930612148798	3.7665327143740797
9.0	56.70494776283158	pulse	1.0	t		20.0	male	black	2.609629924393156	neutral	043	sub-14	1.0	4.0	043_neutral	0.0		145.74315027660305	
9.0	57.40493487370941	pulse	1.0	t		20.0	male	black	2.609629924393156	neutral	043	sub-14	1.0	4.0	043_neutral	0.0		146.44313738748087	
9.0	58.10490568452542	pulse	1.0	t		20.0	male	black	2.609629924393156	neutral	043	sub-14	1.0	4.0	043_neutral	0.0		147.1431081982969	
9.0	58.80487860831272	pulse	1.0	t		20.0	male	black	2.609629924393156	neutral	043	sub-14	1.0	4.0	043_neutral	0.0		147.8430811220842	
9.0	59.50486692660252	pulse	1.0	t		20.0	male	black	2.609629924393156	neutral	043	sub-14	1.0	4.0	043_neutral	0.0		148.54306944037398	
10.0	60.02139141548241	face	0.0		145	23.0	male	white	2.6275368085953046	neutral	141	sub-14	1.0	4.0	141_neutral	0.0		149.05959392925388	1.2333353758717749
10.0	60.204853735626784	pulse	0.0	t		23.0	male	white	2.6275368085953046	neutral	141	sub-14	1.0	4.0	141_neutral	0.0		149.24305624939825	
10.0	60.904836016856734	pulse	0.0	t		23.0	male	white	2.6275368085953046	neutral	141	sub-14	1.0	4.0	141_neutral	0.0		149.9430385306282	
10.0	61.25472679135419	fix	1.0		444	23.0	male	white	2.6275368085953046	neutral	141	sub-14	1.0	4.0	141_neutral	0.0		150.29292930512565	3.7582160609331368
10.0	61.6048164869685	pulse	1.0	t		23.0	male	white	2.6275368085953046	neutral	141	sub-14	1.0	4.0	141_neutral	0.0		150.64301900073997	
10.0	62.30480148487504	pulse	1.0	t		23.0	male	white	2.6275368085953046	neutral	141	sub-14	1.0	4.0	141_neutral	0.0		151.3430039986465	
10.0	63.004781954987266	pulse	1.0	t		23.0	male	white	2.6275368085953046	neutral	141	sub-14	1.0	4.0	141_neutral	0.0		152.04298446875873	
10.0	63.704756388039186	pulse	1.0	t		23.0	male	white	2.6275368085953046	neutral	141	sub-14	1.0	4.0	141_neutral	0.0		152.74295890181065	
10.0	64.40474863041754	pulse	1.0	t		23.0	male	white	2.6275368085953046	neutral	141	sub-14	1.0	4.0	141_neutral	0.0		153.442951144189	
11.0	65.01294285228732	face	0.0		146	19.0	male	white	2.243931555909272	smiling	130	sub-14	1.0	4.0	130_smiling	0.0		154.0511453660588	1.2416487089294606
11.0	65.10473211905901	pulse	0.0	t		19.0	male	white	2.243931555909272	smiling	130	sub-14	1.0	4.0	130_smiling	0.0		154.14293463283047	
11.0	65.80470655211138	pulse	0.0	t		19.0	male	white	2.243931555909272	smiling	130	sub-14	1.0	4.0	130_smiling	0.0		154.84290906588285	
11.0	66.25459156121678	fix	1.0		444	19.0	male	white	2.243931555909272	smiling	130	sub-14	1.0	4.0	130_smiling	0.0		155.29279407498825	3.7665251680491565
11.0	66.50469728522467	pulse	1.0	t		19.0	male	white	2.243931555909272	smiling	130	sub-14	1.0	4.0	130_smiling	0.0		155.54289979899613	
11.0	67.20467111457083	pulse	1.0	t		19.0	male	white	2.243931555909272	smiling	130	sub-14	1.0	4.0	130_smiling	0.0		156.2428736283423	
11.0	67.90465671618358	pulse	1.0	t		19.0	male	white	2.243931555909272	smiling	130	sub-14	1.0	4.0	130_smiling	0.0		156.94285922995505	
11.0	68.60461635843967	pulse	1.0	t		19.0	male	white	2.243931555909272	smiling	130	sub-14	1.0	4.0	130_smiling	0.0		157.64281887221114	
11.0	69.30460829896492	pulse	1.0	t		19.0	male	white	2.243931555909272	smiling	130	sub-14	1.0	4.0	130_smiling	0.0		158.3428108127364	
12.0	70.02111672926594	face	0.0		146	21.0	male	east_asian/white	3.501790688420215	smiling	036	sub-14	1.0	4.0	036_smiling	0.0		159.0593192430374	1.2333205850754894
12.0	70.00744460016722	pulse	0.0	t		21.0	male	east_asian/white	3.501790688420215	smiling	036	sub-14	1.0	4.0	036_smiling	0.0		159.04564711393868	
12.0	70.70457044660043	pulse	0.0	t		21.0	male	east_asian/white	3.501790688420215	smiling	036	sub-14	1.0	4.0	036_smiling	0.0		159.7427729603719	
12.0	71.25443731434143	fix	1.0		443	21.0	male	east_asian/white	3.501790688420215	smiling	036	sub-14	1.0	4.0	036_smiling	0.0		160.2926398281129	3.758373024485536
12.0	71.40455725562515	pulse	1.0	t		21.0	male	east_asian/white	3.501790688420215	smiling	036	sub-14	1.0	4.0	036_smiling	0.0		160.44275976939662	
12.0	72.10476290806355	pulse	1.0	t		21.0	male	east_asian/white	3.501790688420215	smiling	036	sub-14	1.0	4.0	036_smiling	0.0		161.14296542183502	
12.0	72.80451819584869	pulse	1.0	t		21.0	male	east_asian/white	3.501790688420215	smiling	036	sub-14	1.0	4.0	036_smiling	0.0		161.84272070962015	
12.0	73.50450379746144	pulse	1.0	t		21.0	male	east_asian/white	3.501790688420215	smiling	036	sub-14	1.0	4.0	036_smiling	0.0		162.5427063112329	
12.0	74.20448275830859	pulse	1.0	t		21.0	male	east_asian/white	3.501790688420215	smiling	036	sub-14	1.0	4.0	036_smiling	0.0		163.24268527208005	
12.0	74.90446171915528	pulse	1.0	t		21.0	male	east_asian/white	3.501790688420215	smiling	036	sub-14	1.0	4.0	036_smiling	0.0		163.94266423292675	
13.0	75.01281033882697	face	0.0		147	20.0	female	white	3.9502586549940313	smiling	091	sub-14	1.0	4.0	091_smiling	0.0		164.05101285259843	1.2415155917628908
13.0	75.60444218926705	pulse	0.0	t		20.0	female	white	3.9502586549940313	smiling	091	sub-14	1.0	4.0	091_smiling	0.0		164.6426447030385	
13.0	76.25432593058986	fix	1.0		444	20.0	female	white	3.9502586549940313	smiling	091	sub-14	1.0	4.0	091_smiling	0.0		165.29252844436132	3.758321407625317
13.0	76.30443352608654	pulse	1.0	t		20.0	female	white	3.9502586549940313	smiling	091	sub-14	1.0	4.0	091_smiling	0.0		165.342636039858	
13.0	77.00441610916914	pulse	1.0	t		20.0	female	white	3.9502586549940313	smiling	091	sub-14	1.0	4.0	091_smiling	0.0		166.0426186229406	
13.0	77.70439657928137	pulse	1.0	t		20.0	female	white	3.9502586549940313	smiling	091	sub-14	1.0	4.0	091_smiling	0.0		166.74259909305283	
13.0	78.4043749364223	pulse	1.0	t		20.0	female	white	3.9502586549940313	smiling	091	sub-14	1.0	4.0	091_smiling	0.0		167.44257745019377	
13.0	79.10435057688619	pulse	1.0	t		20.0	female	white	3.9502586549940313	smiling	091	sub-14	1.0	4.0	091_smiling	0.0		168.14255309065766	
13.0	79.80433557479273	pulse	1.0	t		20.0	female	white	3.9502586549940313	smiling	091	sub-14	1.0	4.0	091_smiling	0.0		168.8425380885642	
14.0	80.01264733821517	face	0.0		146	28.0	female	white	5.676880222841227	neutral	124	sub-14	1.0	4.0	124_neutral	1.0	attractiveness	169.05084985198664	1.241531891824252
14.0	80.50431785602268	pulse	0.0	t		28.0	female	white	5.676880222841227	neutral	124	sub-14	1.0	4.0	124_neutral	1.0	attractiveness	169.54252036979415	
14.0	81.20429832613445	pulse	0.0	t		28.0	female	white	5.676880222841227	neutral	124	sub-14	1.0	4.0	124_neutral	1.0	attractiveness	170.24250083990592	
14.0	81.25417923003943	fix	1.0		177	28.0	female	white	5.676880222841227	neutral	124	sub-14	1.0	4.0	124_neutral	1.0	attractiveness	170.2923817438109	1.4999741915698905
14.0	81.90428724813	pulse	1.0	t		28.0	female	white	5.676880222841227	neutral	124	sub-14	1.0	4.0	124_neutral	1.0	attractiveness	170.94248976190147	
14.0	82.60426560527094	pulse	1.0	t		28.0	female	white	5.676880222841227	neutral	124	sub-14	1.0	4.0	124_neutral	1.0	attractiveness	171.6424681190424	
14.0	82.75415342160932	rating	2.0		295	28.0	female	white	5.676880222841227	neutral	124	sub-14	1.0	4.0	124_neutral	1.0	attractiveness	171.79235593538078	2.4999237821211864
14.0	83.29896304444082	pulse	2.0	t		28.0	female	white	5.676880222841227	neutral	124	sub-14	1.0	4.0	124_neutral	1.0	attractiveness	172.3371655582123	
14.0	83.92089399194856	response	2.0	y		28.0	female	white	5.676880222841227	neutral	124	sub-14	1.0	4.0	124_neutral	1.0	attractiveness	172.95909650572003	
14.0	83.99893868490517	pulse	2.0	t		28.0	female	white	5.676880222841227	neutral	124	sub-14	1.0	4.0	124_neutral	1.0	attractiveness	173.03714119867664	
14.0	84.70420460078276	pulse	2.0	t		28.0	female	white	5.676880222841227	neutral	124	sub-14	1.0	4.0	124_neutral	1.0	attractiveness	173.74240711455423	
14.0	85.2540772037305	fix	3.0		443	28.0	female	white	5.676880222841227	neutral	124	sub-14	1.0	4.0	124_neutral	1.0	attractiveness	174.29227971750197	3.76654478849332
14.0	85.40417360048104	pulse	3.0	t		28.0	female	white	5.676880222841227	neutral	124	sub-14	1.0	4.0	124_neutral	1.0	attractiveness	174.4423761142525	
14.0	86.10416040950577	pulse	3.0	t		28.0	female	white	5.676880222841227	neutral	124	sub-14	1.0	4.0	124_neutral	1.0	attractiveness	175.14236292327723	
14.0	86.80415567041382	pulse	3.0	t		28.0	female	white	5.676880222841227	neutral	124	sub-14	1.0	4.0	124_neutral	1.0	attractiveness	175.8423581841853	
14.0	87.50413070717195	pulse	3.0	t		28.0	female	white	5.676880222841227	neutral	124	sub-14	1.0	4.0	124_neutral	1.0	attractiveness	176.54233322094342	
14.0	88.20410514022433	pulse	3.0	t		28.0	female	white	5.676880222841227	neutral	124	sub-14	1.0	4.0	124_neutral	1.0	attractiveness	177.2423076539958	
14.0	88.90408108254132	pulse	3.0	t		28.0	female	white	5.676880222841227	neutral	124	sub-14	1.0	4.0	124_neutral	1.0	attractiveness	177.9422835963128	
15.0	89.02062199222382	face	0.0		146	28.0	male	east_asian	1.5563072025467568	neutral	005	sub-14	1.0	4.0	005_neutral	0.0		178.0588245059953	1.2333338666066993
15.0	89.6040872101571	pulse	0.0	t		28.0	male	east_asian	1.5563072025467568	neutral	005	sub-14	1.0	4.0	005_neutral	0.0		178.64228972392857	
15.0	90.25395585883052	fix	1.0		443	28.0	male	east_asian	1.5563072025467568	neutral	005	sub-14	1.0	4.0	005_neutral	0.0		179.292158372602	3.7582610370282055
15.0	90.30406164320902	pulse	1.0	t		28.0	male	east_asian	1.5563072025467568	neutral	005	sub-14	1.0	4.0	005_neutral	0.0		179.3422641569805	
15.0	91.00404422629208	pulse	1.0	t		28.0	male	east_asian	1.5563072025467568	neutral	005	sub-14	1.0	4.0	005_neutral	0.0		180.04224674006355	
15.0	91.70402650752158	pulse	1.0	t		28.0	male	east_asian	1.5563072025467568	neutral	005	sub-14	1.0	4.0	005_neutral	0.0		180.74222902129304	
15.0	92.40400275169168	pulse	1.0	t		28.0	male	east_asian	1.5563072025467568	neutral	005	sub-14	1.0	4.0	005_neutral	0.0		181.44220526546314	
15.0	93.10398473106852	pulse	1.0	t		28.0	male	east_asian	1.5563072025467568	neutral	005	sub-14	1.0	4.0	005_neutral	0.0		182.14218724484	
15.0	93.8039624845037	pulse	1.0	t		28.0	male	east_asian	1.5563072025467568	neutral	005	sub-14	1.0	4.0	005_neutral	0.0		182.84216499827517	
16.0	94.01221689585873	face	0.0		146	54.0	female	white	2.286908077994429	neutral	136	sub-14	1.0	4.0	136_neutral	1.0	dominance	183.0504194096302	1.241604034687498
16.0	94.50394355832123	pulse	0.0	t		54.0	female	white	2.286908077994429	neutral	136	sub-14	1.0	4.0	136_neutral	1.0	dominance	183.5421460720927	
16.0	95.20393066919905	pulse	0.0	t		54.0	female	white	2.286908077994429	neutral	136	sub-14	1.0	4.0	136_neutral	1.0	dominance	184.24213318297052	
16.0	95.25382093054623	fix	1.0		177	54.0	female	white	2.286908077994429	neutral	136	sub-14	1.0	4.0	136_neutral	1.0	dominance	184.2920234443177	1.499947628507016
16.0	95.90393589125551	pulse	1.0	t		54.0	female	white	2.286908077994429	neutral	136	sub-14	1.0	4.0	136_neutral	1.0	dominance	184.94213840502698	
16.0	96.60388617606895	pulse	1.0	t		54.0	female	white	2.286908077994429	neutral	136	sub-14	1.0	4.0	136_neutral	1.0	dominance	185.64208868984042	
16.0	96.75376855905324	rating	2.0		295	54.0	female	white	2.286908077994429	neutral	136	sub-14	1.0	4.0	136_neutral	1.0	dominance	185.7919710728247	2.4999313284461095
16.0	97.29877680114896	pulse	2.0	t		54.0	female	white	2.286908077994429	neutral	136	sub-14	1.0	4.0	136_neutral	1.0	dominance	186.33697931492043	
16.0	97.99878473988247	pulse	2.0	t		54.0	female	white	2.286908077994429	neutral	136	sub-14	1.0	4.0	136_neutral	1.0	dominance	187.03698725365393	
16.0	98.49550012662712	response	2.0	w		54.0	female	white	2.286908077994429	neutral	136	sub-14	1.0	4.0	136_neutral	1.0	dominance	187.5337026403986	
16.0	98.69861367979593	pulse	2.0	t		54.0	female	white	2.286908077994429	neutral	136	sub-14	1.0	4.0	136_neutral	1.0	dominance	187.7368161935674	
16.0	99.25369988749935	fix	3.0		443	54.0	female	white	2.286908077994429	neutral	136	sub-14	1.0	4.0	136_neutral	1.0	dominance	188.29190240127082	3.7665656163489984
16.0	99.40382646954868	pulse	3.0	t		54.0	female	white	2.286908077994429	neutral	136	sub-14	1.0	4.0	136_neutral	1.0	dominance	188.44202898332014	
16.0	100.10378339512772	pulse	3.0	t		54.0	female	white	2.286908077994429	neutral	136	sub-14	1.0	4.0	136_neutral	1.0	dominance	189.1419859088992	
16.0	100.80377895788888	pulse	3.0	t		54.0	female	white	2.286908077994429	neutral	136	sub-14	1.0	4.0	136_neutral	1.0	dominance	189.84198147166035	
16.0	101.50375308908815	pulse	3.0	t		54.0	female	white	2.286908077994429	neutral	136	sub-14	1.0	4.0	136_neutral	1.0	dominance	190.54195560285962	
16.0	102.20374231293636	pulse	3.0	t		54.0	female	white	2.286908077994429	neutral	136	sub-14	1.0	4.0	136_neutral	1.0	dominance	191.24194482670782	
16.0	102.90368806995502	pulse	3.0	t		54.0	female	white	2.286908077994429	neutral	136	sub-14	1.0	4.0	136_neutral	1.0	dominance	191.9418905837265	
17.0	103.02026550384835	face	0.0		146	28.0	male	white	3.9076800636689217	neutral	033	sub-14	1.0	4.0	033_neutral	0.0		192.05846801761982	1.233301568337538
17.0	103.60370264945414	pulse	0.0	t		28.0	male	white	3.9076800636689217	neutral	033	sub-14	1.0	4.0	033_neutral	0.0		192.6419051632256	
17.0	104.25356707218589	fix	1.0		443	28.0	male	white	3.9076800636689217	neutral	033	sub-14	1.0	4.0	033_neutral	0.0		193.29176958595735	3.758309937211834
17.0	104.30367889362424	pulse	1.0	t		28.0	male	white	3.9076800636689217	neutral	033	sub-14	1.0	4.0	033_neutral	0.0		193.3418814073957	
17.0	105.00366358967813	pulse	1.0	t		28.0	male	white	3.9076800636689217	neutral	033	sub-14	1.0	4.0	033_neutral	0.0		194.0418661034496	
17.0	105.70363711717118	pulse	1.0	t		28.0	male	white	3.9076800636689217	neutral	033	sub-14	1.0	4.0	033_neutral	0.0		194.74183963094265	
17.0	106.40362634101939	pulse	1.0	t		28.0	male	white	3.9076800636689217	neutral	033	sub-14	1.0	4.0	033_neutral	0.0		195.44182885479086	
17.0	107.10360982966131	pulse	1.0	t		28.0	male	white	3.9076800636689217	neutral	033	sub-14	1.0	4.0	033_neutral	0.0		196.14181234343278	
17.0	107.80358848865535	pulse	1.0	t		28.0	male	white	3.9076800636689217	neutral	033	sub-14	1.0	4.0	033_neutral	0.0		196.84179100242682	
18.0	108.01187700939772	face	0.0		146	19.0	male	white	3.2522881018702745	neutral	018	sub-14	1.0	4.0	018_neutral	1.0	attractiveness	197.0500795231692	1.2415720382709878
18.0	108.50358556068113	pulse	0.0	t		19.0	male	white	3.2522881018702745	neutral	018	sub-14	1.0	4.0	018_neutral	1.0	attractiveness	197.5417880744526	
18.0	109.20354942887889	pulse	0.0	t		19.0	male	white	3.2522881018702745	neutral	018	sub-14	1.0	4.0	018_neutral	1.0	attractiveness	198.24175194265035	
18.0	109.25344904766871	fix	1.0		177	19.0	male	white	3.2522881018702745	neutral	018	sub-14	1.0	4.0	018_neutral	1.0	attractiveness	198.29165156144018	1.499950647037167
18.0	109.90354076569838	pulse	1.0	t		19.0	male	white	3.2522881018702745	neutral	018	sub-14	1.0	4.0	018_neutral	1.0	attractiveness	198.94174327946985	
18.0	110.6035058413081	pulse	1.0	t		19.0	male	white	3.2522881018702745	neutral	018	sub-14	1.0	4.0	018_neutral	1.0	attractiveness	199.64170835507957	
18.0	110.75339969470588	rating	2.0		295	19.0	male	white	3.2522881018702745	neutral	018	sub-14	1.0	4.0	018_neutral	1.0	attractiveness	199.79160220847734	2.4999310265930035
18.0	111.29834062358577	pulse	2.0	t		19.0	male	white	3.2522881018702745	neutral	018	sub-14	1.0	4.0	018_neutral	1.0	attractiveness	200.33654313735724	
18.0	111.99820337103392	pulse	2.0	t		19.0	male	white	3.2522881018702745	neutral	018	sub-14	1.0	4.0	018_neutral	1.0	attractiveness	201.0364058848054	
18.0	112.09513742008039	response	2.0	e		19.0	male	white	3.2522881018702745	neutral	018	sub-14	1.0	4.0	018_neutral	1.0	attractiveness	201.13333993385186	
18.0	112.70346475911674	pulse	2.0	t		19.0	male	white	3.2522881018702745	neutral	018	sub-14	1.0	4.0	018_neutral	1.0	attractiveness	201.7416672728882	
18.0	113.25333072129888	fix	3.0		443	19.0	male	white	3.2522881018702745	neutral	018	sub-14	1.0	4.0	018_neutral	1.0	attractiveness	202.29153323507035	3.758209722020638
18.0	113.40345096443525	pulse	3.0	t		19.0	male	white	3.2522881018702745	neutral	018	sub-14	1.0	4.0	018_neutral	1.0	attractiveness	202.44165347820672	
18.0	114.10341996413399	pulse	3.0	t		19.0	male	white	3.2522881018702745	neutral	018	sub-14	1.0	4.0	018_neutral	1.0	attractiveness	203.14162247790546	
18.0	114.8034061694525	pulse	3.0	t		19.0	male	white	3.2522881018702745	neutral	018	sub-14	1.0	4.0	018_neutral	1.0	attractiveness	203.84160868322397	
18.0	115.50339116735904	pulse	3.0	t		19.0	male	white	3.2522881018702745	neutral	018	sub-14	1.0	4.0	018_neutral	1.0	attractiveness	204.5415936811305	
18.0	116.20336560041142	pulse	3.0	t		19.0	male	white	3.2522881018702745	neutral	018	sub-14	1.0	4.0	018_neutral	1.0	attractiveness	205.24156811418288	
18.0	116.90334456125811	pulse	3.0	t		19.0	male	white	3.2522881018702745	neutral	018	sub-14	1.0	4.0	018_neutral	1.0	attractiveness	205.94154707502958	
19.0	117.01154044331952	face	0.0		147	36.0	female	white	2.7548746518105847	smiling	011	sub-14	1.0	4.0	011_smiling	0.0		206.04974295709098	1.241674366433017
19.0	117.60332804990003	pulse	0.0	t		36.0	female	white	2.7548746518105847	smiling	011	sub-14	1.0	4.0	011_smiling	0.0		206.6415305636715	
19.0	118.25321480975254	fix	1.0		443	36.0	female	white	2.7548746518105847	smiling	011	sub-14	1.0	4.0	011_smiling	0.0		207.291417323524	3.758323218743044
19.0	118.30332904601482	pulse	1.0	t		36.0	female	white	2.7548746518105847	smiling	011	sub-14	1.0	4.0	011_smiling	0.0		207.3415315597863	
19.0	119.00328084009288	pulse	1.0	t		36.0	female	white	2.7548746518105847	smiling	011	sub-14	1.0	4.0	011_smiling	0.0		208.04148335386435	
19.0	119.70327821397223	pulse	1.0	t		36.0	female	white	2.7548746518105847	smiling	011	sub-14	1.0	4.0	011_smiling	0.0		208.7414807277437	
19.0	120.4032435914346	pulse	1.0	t		36.0	female	white	2.7548746518105847	smiling	011	sub-14	1.0	4.0	011_smiling	0.0		209.44144610520607	
19.0	121.10322828748849	pulse	1.0	t		36.0	female	white	2.7548746518105847	smiling	011	sub-14	1.0	4.0	011_smiling	0.0		210.14143080125996	
19.0	121.80322566136738	pulse	1.0	t		36.0	female	white	2.7548746518105847	smiling	011	sub-14	1.0	4.0	011_smiling	0.0		210.84142817513884	
20.0	122.01153802849558	face	0.0		146	24.0	male	white	3.1153999204138483	smiling	012	sub-14	1.0	4.0	012_smiling	0.0		211.04974054226705	1.2415270621763739
20.0	122.50320854630309	pulse	0.0	t		24.0	male	white	3.1153999204138483	smiling	012	sub-14	1.0	4.0	012_smiling	0.0		211.54141106007455	
20.0	123.20318720529713	pulse	0.0	t		24.0	male	white	3.1153999204138483	smiling	012	sub-14	1.0	4.0	012_smiling	0.0		212.2413897190686	
20.0	123.25306509067195	fix	1.0		1185	24.0	male	white	3.1153999204138483	smiling	012	sub-14	1.0	4.0	012_smiling	0.0		212.29126760444342	10.008171160302027
20.0	123.90316948652708	pulse	1.0	t		24.0	male	white	3.1153999204138483	smiling	012	sub-14	1.0	4.0	012_smiling	0.0		212.94137200029854	
20.0	124.60314784366801	pulse	1.0	t		24.0	male	white	3.1153999204138483	smiling	012	sub-14	1.0	4.0	012_smiling	0.0		213.64135035743948	
20.0	125.30312710636781	pulse	1.0	t		24.0	male	white	3.1153999204138483	smiling	012	sub-14	1.0	4.0	012_smiling	0.0		214.34132962013928	
20.0	126.00310727462693	pulse	1.0	t		24.0	male	white	3.1153999204138483	smiling	012	sub-14	1.0	4.0	012_smiling	0.0		215.0413097883984	
20.0	126.70309619662203	pulse	1.0	t		24.0	male	white	3.1153999204138483	smiling	012	sub-14	1.0	4.0	012_smiling	0.0		215.7412987103935	
20.0	127.40307244079213	pulse	1.0	t		24.0	male	white	3.1153999204138483	smiling	012	sub-14	1.0	4.0	012_smiling	0.0		216.4412749545636	
20.0	128.10305562758094	pulse	1.0	t		24.0	male	white	3.1153999204138483	smiling	012	sub-14	1.0	4.0	012_smiling	0.0		217.1412581413524	
20.0	128.8030312680453	pulse	1.0	t		24.0	male	white	3.1153999204138483	smiling	012	sub-14	1.0	4.0	012_smiling	0.0		217.84123378181675	
20.0	129.5030174733638	pulse	1.0	t		24.0	male	white	3.1153999204138483	smiling	012	sub-14	1.0	4.0	012_smiling	0.0		218.54121998713526	
20.0	130.20299190641572	pulse	1.0	t		24.0	male	white	3.1153999204138483	smiling	012	sub-14	1.0	4.0	012_smiling	0.0		219.24119442018718	
20.0	130.90297147096862	pulse	1.0	t		24.0	male	white	3.1153999204138483	smiling	012	sub-14	1.0	4.0	012_smiling	0.0		219.9411739847401	
20.0	131.60295526146365	pulse	1.0	t		24.0	male	white	3.1153999204138483	smiling	012	sub-14	1.0	4.0	012_smiling	0.0		220.64115777523511	
20.0	132.30294418345875	pulse	1.0	t		24.0	male	white	3.1153999204138483	smiling	012	sub-14	1.0	4.0	012_smiling	0.0		221.34114669723022	
20.0	133.00292555912984	pulse	1.0	t		24.0	male	white	3.1153999204138483	smiling	012	sub-14	1.0	4.0	012_smiling	0.0		222.0411280729013	
21.0	133.26123625097398	face	0.0		146	31.0	female	east_asian	3.395941106247513	smiling	087	sub-14	1.0	4.0	087_smiling	0.0		222.29943876474545	1.2415442677965984
21.0	133.70290995333062	pulse	0.0	t		31.0	female	east_asian	3.395941106247513	smiling	087	sub-14	1.0	4.0	087_smiling	0.0		222.74111246710208	
21.0	134.4028656714977	pulse	0.0	t		31.0	female	east_asian	3.395941106247513	smiling	087	sub-14	1.0	4.0	087_smiling	0.0		223.44106818526916	
21.0	134.50278051877058	fix	1.0		444	31.0	female	east_asian	3.395941106247513	smiling	087	sub-14	1.0	4.0	087_smiling	0.0		223.54098303254204	3.758295750121306
21.0	135.10287179911302	pulse	1.0	t		31.0	female	east_asian	3.395941106247513	smiling	087	sub-14	1.0	4.0	087_smiling	0.0		224.14107431288448	
21.0	135.80284713772426	pulse	1.0	t		31.0	female	east_asian	3.395941106247513	smiling	087	sub-14	1.0	4.0	087_smiling	0.0		224.84104965149572	
21.0	136.50284179492655	pulse	1.0	t		31.0	female	east_asian	3.395941106247513	smiling	087	sub-14	1.0	4.0	087_smiling	0.0		225.54104430869802	
21.0	137.20277819450257	pulse	1.0	t		31.0	female	east_asian	3.395941106247513	smiling	087	sub-14	1.0	4.0	087_smiling	0.0		226.24098070827404	
21.0	137.9027819072944	pulse	1.0	t		31.0	female	east_asian	3.395941106247513	smiling	087	sub-14	1.0	4.0	087_smiling	0.0		226.94098442106588	
22.0	138.26107626889188	face	0.0		146	22.0	female	west_asian	3.8205332272184642	neutral	066	sub-14	1.0	4.0	066_neutral	0.0		227.29927878266335	1.2415530215330364
22.0	138.60278109229102	pulse	0.0	t		22.0	female	west_asian	3.8205332272184642	neutral	066	sub-14	1.0	4.0	066_neutral	0.0		227.6409836060625	
22.0	139.30274646975386	pulse	0.0	t		22.0	female	west_asian	3.8205332272184642	neutral	066	sub-14	1.0	4.0	066_neutral	0.0		228.34094898352532	
22.0	139.50262929042492	fix	1.0		444	22.0	female	west_asian	3.8205332272184642	neutral	066	sub-14	1.0	4.0	066_neutral	0.0		228.5408318041964	3.758295750121306
22.0	140.00273026024843	pulse	1.0	t		22.0	female	west_asian	3.8205332272184642	neutral	066	sub-14	1.0	4.0	066_neutral	0.0		229.0409327740199	
22.0	140.70272250262678	pulse	1.0	t		22.0	female	west_asian	3.8205332272184642	neutral	066	sub-14	1.0	4.0	066_neutral	0.0		229.74092501639825	
22.0	141.4027026708859	pulse	1.0	t		22.0	female	west_asian	3.8205332272184642	neutral	066	sub-14	1.0	4.0	066_neutral	0.0		230.44090518465737	
22.0	142.10268344285078	pulse	1.0	t		22.0	female	west_asian	3.8205332272184642	neutral	066	sub-14	1.0	4.0	066_neutral	0.0		231.14088595662224	
22.0	142.80266844075732	pulse	1.0	t		22.0	female	west_asian	3.8205332272184642	neutral	066	sub-14	1.0	4.0	066_neutral	0.0		231.84087095452878	
23.0	143.26092504054623	face	0.0		146	19.0	female	white	4.298846000795861	neutral	100	sub-14	1.0	4.0	100_neutral	0.0		232.2991275543177	1.2415898475974245
23.0	143.50264770345711	pulse	0.0	t		19.0	female	white	4.298846000795861	neutral	100	sub-14	1.0	4.0	100_neutral	0.0		232.54085021722858	
23.0	144.20262485318608	pulse	0.0	t		19.0	female	white	4.298846000795861	neutral	100	sub-14	1.0	4.0	100_neutral	0.0		233.24082736695755	
23.0	144.50251488814365	fix	1.0		444	19.0	female	white	4.298846000795861	neutral	100	sub-14	1.0	4.0	100_neutral	0.0		233.54071740191512	3.766555655200591
23.0	144.90260079550353	pulse	1.0	t		19.0	female	white	4.298846000795861	neutral	100	sub-14	1.0	4.0	100_neutral	0.0		233.940803309275	
23.0	145.6025743229966	pulse	1.0	t		19.0	female	white	4.298846000795861	neutral	100	sub-14	1.0	4.0	100_neutral	0.0		234.64077683676805	
23.0	146.30257260243434	pulse	1.0	t		19.0	female	white	4.298846000795861	neutral	100	sub-14	1.0	4.0	100_neutral	0.0		235.3407751162058	
23.0	147.00255095957573	pulse	1.0	t		19.0	female	white	4.298846000795861	neutral	100	sub-14	1.0	4.0	100_neutral	0.0		236.0407534733472	
23.0	147.70253535377606	pulse	1.0	t		19.0	female	white	4.298846000795861	neutral	100	sub-14	1.0	4.0	100_neutral	0.0		236.74073786754752	
24.0	148.26907054334424	face	0.0		145	22.0	female	white	4.614007162753682	neutral	009	sub-14	1.0	4.0	009_neutral	1.0	trustworthiness	237.3072730571157	1.2332988516609475
24.0	148.40252246465388	pulse	0.0	t		22.0	female	white	4.614007162753682	neutral	009	sub-14	1.0	4.0	009_neutral	1.0	trustworthiness	237.44072497842535	
24.0	149.10248814396937	pulse	0.0	t		22.0	female	white	4.614007162753682	neutral	009	sub-14	1.0	4.0	009_neutral	1.0	trustworthiness	238.14069065774083	
24.0	149.5023693950052	fix	1.0		177	22.0	female	white	4.614007162753682	neutral	009	sub-14	1.0	4.0	009_neutral	1.0	trustworthiness	238.54057190877666	1.4999587970673929
24.0	149.80248219746545	pulse	1.0	t		22.0	female	white	4.614007162753682	neutral	009	sub-14	1.0	4.0	009_neutral	1.0	trustworthiness	238.84068471123692	
24.0	150.50245874348866	pulse	1.0	t		22.0	female	white	4.614007162753682	neutral	009	sub-14	1.0	4.0	009_neutral	1.0	trustworthiness	239.54066125726013	
24.0	151.00232819207258	rating	2.0		294	22.0	female	white	4.614007162753682	neutral	009	sub-14	1.0	4.0	009_neutral	1.0	trustworthiness	240.04053070584405	2.499931932151867
24.0	151.19719481984066	pulse	2.0	t		22.0	female	white	4.614007162753682	neutral	009	sub-14	1.0	4.0	009_neutral	1.0	trustworthiness	240.23539733361213	
24.0	151.89724713096302	pulse	2.0	t		22.0	female	white	4.614007162753682	neutral	009	sub-14	1.0	4.0	009_neutral	1.0	trustworthiness	240.9354496447345	
24.0	152.5971527415345	pulse	2.0	t		22.0	female	white	4.614007162753682	neutral	009	sub-14	1.0	4.0	009_neutral	1.0	trustworthiness	241.63535525530597	
24.0	152.68876572616318	response	2.0	b		22.0	female	white	4.614007162753682	neutral	009	sub-14	1.0	4.0	009_neutral	1.0	trustworthiness	241.72696823993465	
24.0	153.3023902832315	pulse	2.0	t		22.0	female	white	4.614007162753682	neutral	009	sub-14	1.0	4.0	009_neutral	1.0	trustworthiness	242.34059279700296	
24.0	153.50226012422445	fix	3.0		444	22.0	female	white	4.614007162753682	neutral	009	sub-14	1.0	4.0	009_neutral	1.0	trustworthiness	242.54046263799592	3.758305107563956
24.0	154.00238282746295	pulse	3.0	t		22.0	female	white	4.614007162753682	neutral	009	sub-14	1.0	4.0	009_neutral	1.0	trustworthiness	243.04058534123442	
24.0	154.7023364326592	pulse	3.0	t		22.0	female	white	4.614007162753682	neutral	009	sub-14	1.0	4.0	009_neutral	1.0	trustworthiness	243.74053894643066	
24.0	155.40233471209694	pulse	3.0	t		22.0	female	white	4.614007162753682	neutral	009	sub-14	1.0	4.0	009_neutral	1.0	trustworthiness	244.4405372258684	
24.0	156.10229073211713	pulse	3.0	t		22.0	female	white	4.614007162753682	neutral	009	sub-14	1.0	4.0	009_neutral	1.0	trustworthiness	245.1404932458886	
24.0	156.80228599302563	pulse	3.0	t		22.0	female	white	4.614007162753682	neutral	009	sub-14	1.0	4.0	009_neutral	1.0	trustworthiness	245.8404885067971	
25.0	157.2605652317884	face	0.0		146	47.0	male	east_asian	2.171110226820533	smiling	024	sub-14	1.0	4.0	024_smiling	0.0		246.29876774555987	1.2415681141828827
25.0	157.50228125393323	pulse	0.0	t		47.0	male	east_asian	2.171110226820533	smiling	024	sub-14	1.0	4.0	024_smiling	0.0		246.5404837677047	
25.0	158.20225719625023	pulse	0.0	t		47.0	male	east_asian	2.171110226820533	smiling	024	sub-14	1.0	4.0	024_smiling	0.0		247.2404597100217	
25.0	158.5021333459713	fix	1.0		444	47.0	male	east_asian	2.171110226820533	smiling	024	sub-14	1.0	4.0	024_smiling	0.0		247.54033585974275	3.7582242109638173
25.0	158.90223977933374	pulse	1.0	t		47.0	male	east_asian	2.171110226820533	smiling	024	sub-14	1.0	4.0	024_smiling	0.0		247.9404422931052	
25.0	159.60221843832687	pulse	1.0	t		47.0	male	east_asian	2.171110226820533	smiling	024	sub-14	1.0	4.0	024_smiling	0.0		248.64042095209834	
25.0	160.30219800288023	pulse	1.0	t		47.0	male	east_asian	2.171110226820533	smiling	024	sub-14	1.0	4.0	024_smiling	0.0		249.3404005166517	
25.0	161.00217575631495	pulse	1.0	t		47.0	male	east_asian	2.171110226820533	smiling	024	sub-14	1.0	4.0	024_smiling	0.0		250.04037827008642	
25.0	161.70216377275165	pulse	1.0	t		47.0	male	east_asian	2.171110226820533	smiling	024	sub-14	1.0	4.0	024_smiling	0.0		250.7403662865231	
26.0	162.2603575569351	face	0.0		146	54.0	female	white	2.286908077994429	smiling	136	sub-14	1.0	4.0	136_smiling	0.0		251.29856007070657	1.2416305977503725
26.0	162.4021496762175	pulse	0.0	t		54.0	female	white	2.286908077994429	smiling	136	sub-14	1.0	4.0	136_smiling	0.0		251.44035218998897	
26.0	163.10212773150533	pulse	0.0	t		54.0	female	white	2.286908077994429	smiling	136	sub-14	1.0	4.0	136_smiling	0.0		252.1403302452768	
26.0	163.50198815468548	fix	1.0		444	54.0	female	white	2.286908077994429	smiling	136	sub-14	1.0	4.0	136_smiling	0.0		252.54019066845694	3.758205496078517
26.0	163.80211846461907	pulse	1.0	t		54.0	female	white	2.286908077994429	smiling	136	sub-14	1.0	4.0	136_smiling	0.0		252.84032097839054	
26.0	164.5020775031685	pulse	1.0	t		54.0	female	white	2.286908077994429	smiling	136	sub-14	1.0	4.0	136_smiling	0.0		253.54028001693996	
26.0	165.2020670288698	pulse	1.0	t		54.0	female	white	2.286908077994429	smiling	136	sub-14	1.0	4.0	136_smiling	0.0		254.24026954264127	
26.0	165.90204448045233	pulse	1.0	t		54.0	female	white	2.286908077994429	smiling	136	sub-14	1.0	4.0	136_smiling	0.0		254.9402469942238	
26.0	166.60203611912448	pulse	1.0	t		54.0	female	white	2.286908077994429	smiling	136	sub-14	1.0	4.0	136_smiling	0.0		255.64023863289594	
27.0	167.260193650764	face	0.0		146	28.0	male	east_asian	1.5563072025467568	smiling	005	sub-14	1.0	4.0	005_smiling	0.0		256.29839616453546	1.2416822146105915
27.0	167.3020265503851	pulse	0.0	t		28.0	male	east_asian	1.5563072025467568	smiling	005	sub-14	1.0	4.0	005_smiling	0.0		256.3402290641566	
27.0	168.00200128528968	pulse	0.0	t		28.0	male	east_asian	1.5563072025467568	smiling	005	sub-14	1.0	4.0	005_smiling	0.0		257.04020379906115	
27.0	168.5018758653746	fix	1.0		443	28.0	male	east_asian	1.5563072025467568	smiling	005	sub-14	1.0	4.0	005_smiling	0.0		257.54007837914605	3.7665517311115764
27.0	168.70198024613683	pulse	1.0	t		28.0	male	east_asian	1.5563072025467568	smiling	005	sub-14	1.0	4.0	005_smiling	0.0		257.7401827599083	
27.0	169.40195950883708	pulse	1.0	t		28.0	male	east_asian	1.5563072025467568	smiling	005	sub-14	1.0	4.0	005_smiling	0.0		258.44016202260855	
27.0	170.10193846968423	pulse	1.0	t		28.0	male	east_asian	1.5563072025467568	smiling	005	sub-14	1.0	4.0	005_smiling	0.0		259.1401409834557	
27.0	170.80190988420645	pulse	1.0	t		28.0	male	east_asian	1.5563072025467568	smiling	005	sub-14	1.0	4.0	005_smiling	0.0		259.8401123979779	
27.0	171.50187918575784	pulse	1.0	t		28.0	male	east_asian	1.5563072025467568	smiling	005	sub-14	1.0	4.0	005_smiling	0.0		260.5400816995293	
27.0	172.20188199299037	pulse	1.0	t		28.0	male	east_asian	1.5563072025467568	smiling	005	sub-14	1.0	4.0	005_smiling	0.0		261.24008450676183	
28.0	172.26842759648616	face	0.0		146	19.0	male	white	2.243931555909272	neutral	130	sub-14	1.0	4.0	130_neutral	0.0		261.30663011025763	1.2333151517223087
28.0	172.9018796687219	pulse	0.0	t		19.0	male	white	2.243931555909272	neutral	130	sub-14	1.0	4.0	130_neutral	0.0		261.94008218249337	
28.0	173.50174274820847	fix	1.0		443	19.0	male	white	2.243931555909272	neutral	130	sub-14	1.0	4.0	130_neutral	0.0		262.53994526197994	3.7665505237000616
28.0	173.6018734203658	pulse	1.0	t		19.0	male	white	2.243931555909272	neutral	130	sub-14	1.0	4.0	130_neutral	0.0		262.64007593413726	
28.0	174.3018185736778	pulse	1.0	t		19.0	male	white	2.243931555909272	neutral	130	sub-14	1.0	4.0	130_neutral	0.0		263.34002108744926	
28.0	175.00180809938	pulse	1.0	t		19.0	male	white	2.243931555909272	neutral	130	sub-14	1.0	4.0	130_neutral	0.0		264.0400106131515	
28.0	175.7017888713449	pulse	1.0	t		19.0	male	white	2.243931555909272	neutral	130	sub-14	1.0	4.0	130_neutral	0.0		264.73999138511635	
28.0	176.40178896190037	pulse	1.0	t		19.0	male	white	2.243931555909272	neutral	130	sub-14	1.0	4.0	130_neutral	0.0		265.43999147567183	
28.0	177.10175222639236	pulse	1.0	t		19.0	male	white	2.243931555909272	neutral	130	sub-14	1.0	4.0	130_neutral	0.0		266.13995474016383	
29.0	177.26829327190853	face	0.0		146	40.0	male	black	2.408674890569041	neutral	061	sub-14	1.0	4.0	061_neutral	0.0		266.30649578568	1.2333245091640492
29.0	177.8017438650645	pulse	0.0	t		40.0	male	black	2.408674890569041	neutral	061	sub-14	1.0	4.0	061_neutral	0.0		266.839946378836	
29.0	178.50161778107258	fix	1.0		444	40.0	male	black	2.408674890569041	neutral	061	sub-14	1.0	4.0	061_neutral	0.0		267.53982029484405	3.758236888788815
29.0	178.50921059105485	pulse	1.0	t		40.0	male	black	2.408674890569041	neutral	061	sub-14	1.0	4.0	061_neutral	0.0		267.5474131048263	
29.0	179.20169756081623	pulse	1.0	t		40.0	male	black	2.408674890569041	neutral	061	sub-14	1.0	4.0	061_neutral	0.0		268.2399000745877	
29.0	179.9016774272227	pulse	1.0	t		40.0	male	black	2.408674890569041	neutral	061	sub-14	1.0	4.0	061_neutral	0.0		268.93987994099416	
29.0	180.60166393439386	pulse	1.0	t		40.0	male	black	2.408674890569041	neutral	061	sub-14	1.0	4.0	061_neutral	0.0		269.6398664481653	
29.0	181.30164349894721	pulse	1.0	t		40.0	male	black	2.408674890569041	neutral	061	sub-14	1.0	4.0	061_neutral	0.0		270.3398460127187	
29.0	182.00161763014648	pulse	1.0	t		40.0	male	black	2.408674890569041	neutral	061	sub-14	1.0	4.0	061_neutral	0.0		271.03982014391795	
30.0	182.2598546698614	face	0.0		146	32.0	male	white	2.389176283326701	neutral	092	sub-14	1.0	4.0	092_neutral	0.0		271.29805718363286	1.241625466250298
30.0	182.70161228734787	pulse	0.0	t		32.0	male	white	2.389176283326701	neutral	092	sub-14	1.0	4.0	092_neutral	0.0		271.73981480111934	
30.0	183.40158551298873	pulse	0.0	t		32.0	male	white	2.389176283326701	neutral	092	sub-14	1.0	4.0	092_neutral	0.0		272.4397880267602	
30.0	183.5014801361117	fix	1.0		444	32.0	male	white	2.389176283326701	neutral	092	sub-14	1.0	4.0	092_neutral	0.0		272.53968264988316	3.758286996384413
30.0	184.10157020904217	pulse	1.0	t		32.0	male	white	2.389176283326701	neutral	092	sub-14	1.0	4.0	092_neutral	0.0		273.13977272281363	
30.0	184.80154977359553	pulse	1.0	t		32.0	male	white	2.389176283326701	neutral	092	sub-14	1.0	4.0	092_neutral	0.0		273.839752287367	
30.0	185.50153235667813	pulse	1.0	t		32.0	male	white	2.389176283326701	neutral	092	sub-14	1.0	4.0	092_neutral	0.0		274.5397348704496	
30.0	186.20150286564103	pulse	1.0	t		32.0	male	white	2.389176283326701	neutral	092	sub-14	1.0	4.0	092_neutral	0.0		275.2397053794125	
30.0	186.90149390060787	pulse	1.0	t		32.0	male	white	2.389176283326701	neutral	092	sub-14	1.0	4.0	092_neutral	0.0		275.93969641437934	
31.0	187.2597671324961	face	0.0		146	37.0	male	white	3.898925586947871	smiling	101	sub-14	1.0	4.0	101_smiling	0.0		276.2979696462676	1.2415566437693997
31.0	187.60148070963214	pulse	0.0	t		37.0	male	white	3.898925586947871	smiling	101	sub-14	1.0	4.0	101_smiling	0.0		276.6396832234036	
31.0	188.30145152044815	pulse	0.0	t		37.0	male	white	3.898925586947871	smiling	101	sub-14	1.0	4.0	101_smiling	0.0		277.3396540342196	
31.0	188.5013237762655	fix	1.0		444	37.0	male	white	3.898925586947871	smiling	101	sub-14	1.0	4.0	101_smiling	0.0		277.539526290037	3.758300277915623
31.0	189.00144134800257	pulse	1.0	t		37.0	male	white	3.898925586947871	smiling	101	sub-14	1.0	4.0	101_smiling	0.0		278.03964386177404	
31.0	189.7014507960016	pulse	1.0	t		37.0	male	white	3.898925586947871	smiling	101	sub-14	1.0	4.0	101_smiling	0.0		278.7396533097731	
31.0	190.40139685487293	pulse	1.0	t		37.0	male	white	3.898925586947871	smiling	101	sub-14	1.0	4.0	101_smiling	0.0		279.4395993686444	
31.0	191.10137521201386	pulse	1.0	t		37.0	male	white	3.898925586947871	smiling	101	sub-14	1.0	4.0	101_smiling	0.0		280.13957772578533	
31.0	191.80136353030366	pulse	1.0	t		37.0	male	white	3.898925586947871	smiling	101	sub-14	1.0	4.0	101_smiling	0.0		280.8395660440751	
32.0	192.25962405418113	face	0.0		146	36.0	female	white	2.7548746518105847	neutral	011	sub-14	1.0	4.0	011_neutral	0.0		281.2978265679526	1.2415880364796976
32.0	192.50135033932793	pulse	0.0	t		36.0	female	white	2.7548746518105847	neutral	011	sub-14	1.0	4.0	011_neutral	0.0		281.5395528530994	
32.0	193.20134560023644	pulse	0.0	t		36.0	female	white	2.7548746518105847	neutral	011	sub-14	1.0	4.0	011_neutral	0.0		282.2395481140079	
32.0	193.50121209066083	fix	1.0		444	36.0	female	white	2.7548746518105847	neutral	011	sub-14	1.0	4.0	011_neutral	0.0		282.5394146044323	3.7583126538884244
32.0	193.90130946843374	pulse	1.0	t		36.0	female	white	2.7548746518105847	neutral	011	sub-14	1.0	4.0	011_neutral	0.0		282.9395119822052	
32.0	194.60128842928088	pulse	1.0	t		36.0	female	white	2.7548746518105847	neutral	011	sub-14	1.0	4.0	011_neutral	0.0		283.63949094305235	
32.0	195.30126769198114	pulse	1.0	t		36.0	female	white	2.7548746518105847	neutral	011	sub-14	1.0	4.0	011_neutral	0.0		284.3394702057526	
32.0	196.00124574726897	pulse	1.0	t		36.0	female	white	2.7548746518105847	neutral	011	sub-14	1.0	4.0	011_neutral	0.0		285.03944826104043	
32.0	196.70125036561922	pulse	1.0	t		36.0	female	white	2.7548746518105847	neutral	011	sub-14	1.0	4.0	011_neutral	0.0		285.7394528793907	
33.0	197.25952474454925	face	0.0		146	40.0	male	white	1.868682849184242	smiling	172	sub-14	1.0	4.0	172_smiling	0.0		286.2977272583207	1.2415572474747023
33.0	197.40122389311227	pulse	0.0	t		40.0	male	white	1.868682849184242	smiling	172	sub-14	1.0	4.0	172_smiling	0.0		286.43942640688374	
33.0	198.1011956094876	pulse	0.0	t		40.0	male	white	1.868682849184242	smiling	172	sub-14	1.0	4.0	172_smiling	0.0		287.13939812325907	
33.0	198.50108199202396	fix	1.0		444	40.0	male	white	1.868682849184242	smiling	172	sub-14	1.0	4.0	172_smiling	0.0		287.5392845057954	3.7583452540111466
33.0	198.80118302221808	pulse	1.0	t		40.0	male	white	1.868682849184242	smiling	172	sub-14	1.0	4.0	172_smiling	0.0		287.83938553598955	
33.0	199.5011595682413	pulse	1.0	t		40.0	male	white	1.868682849184242	smiling	172	sub-14	1.0	4.0	172_smiling	0.0		288.53936208201276	
33.0	200.20113822723533	pulse	1.0	t		40.0	male	white	1.868682849184242	smiling	172	sub-14	1.0	4.0	172_smiling	0.0		289.2393407410068	
33.0	200.90111447140544	pulse	1.0	t		40.0	male	white	1.868682849184242	smiling	172	sub-14	1.0	4.0	172_smiling	0.0		289.9393169851769	
33.0	201.60110399710675	pulse	1.0	t		40.0	male	white	1.868682849184242	smiling	172	sub-14	1.0	4.0	172_smiling	0.0		290.6393065108782	
34.0	202.2594272460351	face	0.0		146	24.0	female	black	3.0955033824114606	smiling	099	sub-14	1.0	4.0	099_smiling	0.0		291.29762975980657	1.2415198177050115
34.0	202.3010956357789	pulse	0.0	t		24.0	female	black	3.0955033824114606	smiling	099	sub-14	1.0	4.0	099_smiling	0.0		291.33929814955036	
34.0	203.00106191880104	pulse	0.0	t		24.0	female	black	3.0955033824114606	smiling	099	sub-14	1.0	4.0	099_smiling	0.0		292.0392644325725	
34.0	203.5009470637401	fix	1.0		443	24.0	female	black	3.0955033824114606	smiling	099	sub-14	1.0	4.0	099_smiling	0.0		292.5391495775116	3.7583657800141737
34.0	203.7010550667378	pulse	1.0	t		24.0	female	black	3.0955033824114606	smiling	099	sub-14	1.0	4.0	099_smiling	0.0		292.7392575805093	
34.0	204.40102587755473	pulse	1.0	t		24.0	female	black	3.0955033824114606	smiling	099	sub-14	1.0	4.0	099_smiling	0.0		293.4392283913262	
34.0	205.10100966804885	pulse	1.0	t		24.0	female	black	3.0955033824114606	smiling	099	sub-14	1.0	4.0	099_smiling	0.0		294.1392121818203	
34.0	205.8009696121585	pulse	1.0	t		24.0	female	black	3.0955033824114606	smiling	099	sub-14	1.0	4.0	099_smiling	0.0		294.83917212592996	
34.0	206.50097332494943	pulse	1.0	t		24.0	female	black	3.0955033824114606	smiling	099	sub-14	1.0	4.0	099_smiling	0.0		295.5391758387209	
34.0	207.200953493209	pulse	1.0	t		24.0	female	black	3.0955033824114606	smiling	099	sub-14	1.0	4.0	099_smiling	0.0		296.23915600698047	
35.0	207.2593128437543	face	0.0		147	27.0	female	white	3.504576203740549	neutral	144	sub-14	1.0	4.0	144_neutral	0.0		296.29751535752575	1.2414811805228965
35.0	207.90093154849683	pulse	0.0	t		27.0	female	white	3.504576203740549	neutral	144	sub-14	1.0	4.0	144_neutral	0.0		296.9391340622683	
35.0	208.50079402427718	fix	1.0		443	27.0	female	white	3.504576203740549	neutral	144	sub-14	1.0	4.0	144_neutral	0.0		297.53899653804865	3.7665701441437704
35.0	208.60094280761268	pulse	1.0	t		27.0	female	white	3.504576203740549	neutral	144	sub-14	1.0	4.0	144_neutral	0.0		297.63914532138415	
35.0	209.30089943133908	pulse	1.0	t		27.0	female	white	3.504576203740549	neutral	144	sub-14	1.0	4.0	144_neutral	0.0		298.33910194511054	
35.0	210.0008768829216	pulse	1.0	t		27.0	female	white	3.504576203740549	neutral	144	sub-14	1.0	4.0	144_neutral	0.0		299.03907939669307	
35.0	210.70085856044489	pulse	1.0	t		27.0	female	white	3.504576203740549	neutral	144	sub-14	1.0	4.0	144_neutral	0.0		299.73906107421635	
35.0	211.40084748243999	pulse	1.0	t		27.0	female	white	3.504576203740549	neutral	144	sub-14	1.0	4.0	144_neutral	0.0		300.43904999621145	
35.0	212.10085723229213	pulse	1.0	t		27.0	female	white	3.504576203740549	neutral	144	sub-14	1.0	4.0	144_neutral	0.0		301.1390597460636	
36.0	212.26736416842095	face	0.0		146	37.0	male	white	3.898925586947871	neutral	101	sub-14	1.0	4.0	101_neutral	0.0		301.3055666821924	1.2333042850141283
36.0	212.80081083748837	pulse	0.0	t		37.0	male	white	3.898925586947871	neutral	101	sub-14	1.0	4.0	101_neutral	0.0		301.83901335125984	
36.0	213.50066845343508	fix	1.0		444	37.0	male	white	3.898925586947871	neutral	101	sub-14	1.0	4.0	101_neutral	0.0		302.53887096720655	3.7665490144345313
36.0	213.50827937459644	pulse	1.0	t		37.0	male	white	3.898925586947871	neutral	101	sub-14	1.0	4.0	101_neutral	0.0		302.5464818883679	
36.0	214.2007660425047	pulse	1.0	t		37.0	male	white	3.898925586947871	neutral	101	sub-14	1.0	4.0	101_neutral	0.0		303.2389685562762	
36.0	214.90074500335186	pulse	1.0	t		37.0	male	white	3.898925586947871	neutral	101	sub-14	1.0	4.0	101_neutral	0.0		303.9389475171233	
36.0	215.6007306049646	pulse	1.0	t		37.0	male	white	3.898925586947871	neutral	101	sub-14	1.0	4.0	101_neutral	0.0		304.6389331187361	
36.0	216.3006990009576	pulse	1.0	t		37.0	male	white	3.898925586947871	neutral	101	sub-14	1.0	4.0	101_neutral	0.0		305.33890151472906	
36.0	217.00070241189542	pulse	1.0	t		37.0	male	white	3.898925586947871	neutral	101	sub-14	1.0	4.0	101_neutral	0.0		306.0389049256669	
37.0	217.2672174678696	face	0.0		145	24.0	female	black	3.0955033824114606	neutral	099	sub-14	1.0	4.0	099_neutral	0.0		306.3054199816411	1.2333172646931416
37.0	217.70067292085923	pulse	0.0	t		24.0	female	black	3.0955033824114606	neutral	099	sub-14	1.0	4.0	099_neutral	0.0		306.7388754346307	
37.0	218.40064493908767	pulse	0.0	t		24.0	female	black	3.0955033824114606	neutral	099	sub-14	1.0	4.0	099_neutral	0.0		307.43884745285914	
37.0	218.50053473256276	fix	1.0		444	24.0	female	black	3.0955033824114606	neutral	099	sub-14	1.0	4.0	099_neutral	0.0		307.5387372463342	3.7583419336278894
37.0	219.10064472779004	pulse	1.0	t		24.0	female	black	3.0955033824114606	neutral	099	sub-14	1.0	4.0	099_neutral	0.0		308.1388472415615	
37.0	219.8006176515778	pulse	1.0	t		24.0	female	black	3.0955033824114606	neutral	099	sub-14	1.0	4.0	099_neutral	0.0		308.83882016534926	
37.0	220.50060234763123	pulse	1.0	t		24.0	female	black	3.0955033824114606	neutral	099	sub-14	1.0	4.0	099_neutral	0.0		309.5388048614027	
37.0	221.2005638010055	pulse	1.0	t		24.0	female	black	3.0955033824114606	neutral	099	sub-14	1.0	4.0	099_neutral	0.0		310.23876631477697	
37.0	221.90056298600257	pulse	1.0	t		24.0	female	black	3.0955033824114606	neutral	099	sub-14	1.0	4.0	099_neutral	0.0		310.93876549977404	
38.0	222.25887666619064	face	0.0		146	25.0	female	west_asian	2.6756864305610826	smiling	064	sub-14	1.0	4.0	064_smiling	0.0		311.2970791799621	1.2415334010893275
38.0	222.60054285240813	pulse	0.0	t		25.0	female	west_asian	2.6756864305610826	smiling	064	sub-14	1.0	4.0	064_smiling	0.0		311.6387453661796	
38.0	223.3005175873136	pulse	0.0	t		25.0	female	west_asian	2.6756864305610826	smiling	064	sub-14	1.0	4.0	064_smiling	0.0		312.3387201010851	
38.0	223.50041006727997	fix	1.0		444	25.0	female	west_asian	2.6756864305610826	smiling	064	sub-14	1.0	4.0	064_smiling	0.0		312.53861258105144	3.7665520329646824
38.0	224.0005128482212	pulse	1.0	t		25.0	female	west_asian	2.6756864305610826	smiling	064	sub-14	1.0	4.0	064_smiling	0.0		313.0387153619927	
38.0	224.70049029980373	pulse	1.0	t		25.0	female	west_asian	2.6756864305610826	smiling	064	sub-14	1.0	4.0	064_smiling	0.0		313.7386928135752	
38.0	225.4004704680624	pulse	1.0	t		25.0	female	west_asian	2.6756864305610826	smiling	064	sub-14	1.0	4.0	064_smiling	0.0		314.43867298183386	
38.0	226.10045033446795	pulse	1.0	t		25.0	female	west_asian	2.6756864305610826	smiling	064	sub-14	1.0	4.0	064_smiling	0.0		315.1386528482394	
38.0	226.80042537122654	pulse	1.0	t		25.0	female	west_asian	2.6756864305610826	smiling	064	sub-14	1.0	4.0	064_smiling	0.0		315.838627884998	
39.0	227.26696210024465	face	0.0		145	24.0	female	east_asian	4.409868682849185	smiling	030	sub-14	1.0	4.0	030_smiling	0.0		316.3051646140161	1.2333217924879136
39.0	227.5004550433746	pulse	0.0	t		24.0	female	east_asian	4.409868682849185	smiling	030	sub-14	1.0	4.0	030_smiling	0.0		316.53865755714605	
39.0	228.2004004985406	pulse	0.0	t		24.0	female	east_asian	4.409868682849185	smiling	030	sub-14	1.0	4.0	030_smiling	0.0		317.23860301231207	
39.0	228.50028389273257	fix	1.0		444	24.0	female	east_asian	4.409868682849185	smiling	030	sub-14	1.0	4.0	030_smiling	0.0		317.53848640650403	3.749879183342273
39.0	228.900382477917	pulse	1.0	t		24.0	female	east_asian	4.409868682849185	smiling	030	sub-14	1.0	4.0	030_smiling	0.0		317.93858499168846	
39.0	229.60035992949952	pulse	1.0	t		24.0	female	east_asian	4.409868682849185	smiling	030	sub-14	1.0	4.0	030_smiling	0.0		318.638562443271	
39.0	230.3003407014644	pulse	1.0	t		24.0	female	east_asian	4.409868682849185	smiling	030	sub-14	1.0	4.0	030_smiling	0.0		319.33854321523586	
39.0	231.0003175493398	pulse	1.0	t		24.0	female	east_asian	4.409868682849185	smiling	030	sub-14	1.0	4.0	030_smiling	0.0		320.03852006311126	
39.0	231.70028836015672	pulse	1.0	t		24.0	female	east_asian	4.409868682849185	smiling	030	sub-14	1.0	4.0	030_smiling	0.0		320.7384908739282	
40.0	232.25016307607484	fix	0.0		720													321.2883655898463	5.999848469801691
40.0	232.40027064138621	pulse	0.0	t														321.4384731551577	
40.0	233.10026861897086	pulse	0.0	t														322.1384711327423	
40.0	233.80024818352422	pulse	0.0	t														322.8384506972957	
40.0	234.50022080545887	pulse	0.0	t														323.53842331923033	
40.0	235.20021063301328	pulse	0.0	t														324.23841314678475	
40.0	235.9001823493877	pulse	0.0	t														324.9383848631592	
40.0	236.60017821400243	pulse	0.0	t														325.6383807277739	
40.0	237.30015476002563	pulse	0.0	t														326.3383572737971	
40.0	238.00014307831452	pulse	0.0	t														327.038345592086	
