trial_nr	onset	event_type	phase	response	nr_frames	trial_type	stim_name	task_probe	onset_abs	duration
0.0	0.06017294469347689	baseline	0.0		40.0		baseline	0.0	116.41601418234677	0.3413676015006786
0.0	0.40154054619415547	ISI	1.0		11.0		baseline	0.0	116.75738178384745	0.09999695126634833
1.0	0.5015374974605038	baseline	0.0		48.0		baseline	0.0	116.8573787351138	0.3999887106301685
1.0	0.7016448974009108	pulse	0.0	t			baseline	0.0	117.0574861350542	
1.0	0.9015262080906723	ISI	1.0		11.0		baseline	0.0	117.25736744574397	0.0999978568311235
2.0	1.0015240649217958	baseline	0.0		48.0		baseline	0.0	117.35736530257509	0.3999681845034502
2.0	1.401492249425246	ISI	1.0		11.0		baseline	0.0	117.75733348707854	0.10000208279780054
2.0	1.40615530248715	pulse	1.0	t			baseline	0.0	117.76199654014044	
3.0	1.5014943322230465	baseline	0.0		48.0		baseline	0.0	117.85733556987634	0.39999112546865945
3.0	1.901485457691706	ISI	1.0		11.0		baseline	0.0	118.257326695345	0.0999999698146894
4.0	2.0014854275063954	baseline	0.0		48.0		baseline	0.0	118.35732666515969	0.39999172917850956
4.0	2.101610365210945	pulse	0.0	t			baseline	0.0	118.45745160286424	
4.0	2.401477156684905	ISI	1.0		11.0		baseline	0.0	118.7573183943382	0.09999634755649822
5.0	2.501473504241403	baseline	0.0		48.0		baseline	0.0	118.8573147418947	0.3999935403071504
5.0	2.801579364722329	pulse	0.0	t			baseline	0.0	119.15742060237562	
5.0	2.9014670445485535	ISI	1.0		11.0		baseline	0.0	119.25730828220185	0.09999544199263255
6.0	3.001462486541186	baseline	0.0		48.0		baseline	0.0	119.35730372419448	0.3999923328879049
6.0	3.401454819429091	ISI	1.0		11.0		baseline	0.0	119.75729605708239	0.09999846054051886
7.0	3.50145327996961	baseline	0.0		47.0		baseline	0.0	119.8572945176229	0.3999908236137344
7.0	3.505665060094998	pulse	0.0	t			baseline	0.0	119.86150629774829	
7.0	3.9014441035833443	ISI	1.0		11.0		baseline	0.0	120.25728534123664	0.09999846054051886
8.0	4.001442564123863	baseline	0.0		48.0		baseline	0.0	120.35728380177716	0.39999323845222534
8.0	4.201551775192911	pulse	0.0	t			baseline	0.0	120.5573930128462	
8.0	4.4014358025760885	ISI	1.0		11.0		baseline	0.0	120.75727704022938	0.09999936610483928
9.0	4.501435168680928	baseline	0.0		48.0		baseline	0.0	120.85727640633422	0.3999893143400186
9.0	4.901424483020946	ISI	1.0		11.0		baseline	0.0	121.25726572067424	0.09999725312127339
9.0	4.906016298348277	pulse	1.0	t			baseline	0.0	121.26185753600157	
10.0	5.00142173614222	baseline	0.0		48.0		baseline	0.0	121.35726297379551	0.3999944458714708
10.0	5.401416182013691	ISI	1.0		11.0		baseline	0.0	121.75725741966698	0.09999785683066875
11.0	5.501414038844359	baseline	0.0		48.0		baseline	0.0	121.85725527649765	0.3999893143400186
11.0	5.601521770825002	pulse	0.0	t			baseline	0.0	121.9573630084783	
11.0	5.901403353184378	ISI	1.0		3.0		baseline	0.0	122.25724459083767	0.12539441103763238
12.0	6.02679776422201	adult	0.0		45.0	face	adult-33.jpg	0.0	122.3826390018753	0.37454778376695685
12.0	6.301458471872138	pulse	0.0	t		face	adult-33.jpg	0.0	122.65729970952543	
12.0	6.401345547988967	ISI	1.0		5.0	face	adult-33.jpg	0.0	122.75718678564226	0.11666507186691888
13.0	6.518010619855886	adult	0.0		46.0	face	adult-26.jpg	0.0	122.87385185750918	0.3833224011582388
13.0	6.901333021014125	ISI	1.0		7.0	face	adult-26.jpg	0.0	123.25717425866742	0.11668076831711005
14.0	7.018013789331235	adult	0.0		45.0	face	adult-86.jpg	0.0	123.37385502698453	0.38331062882116385
14.0	7.010151679022329	pulse	0.0	t		face	adult-86.jpg	0.0	123.36599291667562	
14.0	7.401324418152399	ISI	1.0		6.0	face	adult-86.jpg	0.0	123.7571656558057	0.11668650355841237
15.0	7.518010921710811	adult	0.0		46.0	face	adult-118.jpg	0.0	123.8738521593641	0.3833054972892569
15.0	7.7014296749234745	pulse	0.0	t		face	adult-118.jpg	0.0	124.05727091257677	
15.0	7.901316419000068	ISI	1.0		7.0	face	adult-118.jpg	0.0	124.25715765665336	0.11667986275233488
16.0	8.017996281752403	adult	0.0		46.0	face	adult-9.jpg	0.0	124.3738375194057	0.38330579914418195
16.0	8.401302080896585	ISI	1.0		8.0	face	adult-9.jpg	0.0	124.75714331854988	0.11667201452746667
16.0	8.432950953725594	pulse	1.0	t		face	adult-9.jpg	0.0	124.78879219137889	
17.0	8.517974095424051	adult	0.0		46.0	face	adult-9.jpg	1.0	124.87381533307735	0.38331908075588217
17.0	8.901293176179934	ISI	1.0		7.0	face	adult-9.jpg	1.0	125.25713441383323	0.11667201452746667
17.0	8.934463095382398	response	1.0	b		face	adult-9.jpg	1.0	125.29030433303569	
18.0	9.0179651907074	adult	0.0		46.0	face	adult-3.jpg	0.0	125.3738064283607	0.38331576035261605
18.0	9.10139816128185	pulse	0.0	t		face	adult-3.jpg	0.0	125.45723939893514	
18.0	9.401280951060016	ISI	1.0		5.0	face	adult-3.jpg	0.0	125.75712218871331	0.11668620170348731
19.0	9.517967152763504	adult	0.0		46.0	face	adult-22.jpg	0.0	125.8738083904168	0.3833054972892569
19.0	9.801384970226536	pulse	0.0	t		face	adult-22.jpg	0.0	126.15722620787983	
19.0	9.90127265005276	ISI	1.0		8.0	face	adult-22.jpg	0.0	126.25711388770605	0.1166810701720351
20.0	10.017953720224796	adult	0.0		46.0	face	adult-37.jpg	0.0	126.37379495787809	0.3833076102728228
20.0	10.401261330497618	ISI	1.0		7.0	face	adult-37.jpg	0.0	126.75710256815091	0.11667986275278963
21.0	10.517941193250408	adult	0.0		45.0	face	adult-45.jpg	0.0	126.8737824309037	0.3833097232563887
21.0	10.510100514632086	pulse	0.0	t		face	adult-45.jpg	0.0	126.86594175228538	
21.0	10.901250916506797	ISI	1.0		5.0	face	adult-45.jpg	0.0	127.25709215416009	0.11668710726780773
22.0	11.017938023774605	adult	0.0		46.0	face	adult-73.jpg	0.0	127.3737792614279	0.383303384305691
22.0	11.201357682552043	pulse	0.0	t		face	adult-73.jpg	0.0	127.55719892020534	
22.0	11.401241408080296	ISI	1.0		8.0	face	adult-73.jpg	0.0	127.75708264573359	0.116683183155601
23.0	11.517924591235897	adult	0.0		46.0	face	adult-61.jpg	0.0	127.87376582888919	0.38330730841789773
23.0	11.901231899653794	ISI	1.0		5.0	face	adult-61.jpg	0.0	128.2570731373071	0.11668137202696016
23.0	11.956892718688778	pulse	1.0	t		face	adult-61.jpg	0.0	128.31273395634207	
24.0	12.017913271680754	body	0.0		46.0	body	body-112.jpg	0.0	128.37375450933405	0.3833377957535049
24.0	12.40125106743426	ISI	1.0		7.0	body	body-112.jpg	0.0	128.75709230508755	0.11668378686499636
25.0	12.517934854299256	body	0.0		46.0	body	body-4.jpg	0.0	128.87377609195255	0.3832756136634998
25.0	12.60132798003906	pulse	0.0	t		body	body-4.jpg	0.0	128.95716921769235	
25.0	12.901210467962756	ISI	1.0		5.0	body	body-4.jpg	0.0	129.25705170561605	0.11668288130067594
26.0	13.017893349263431	body	0.0		46.0	body	body-50.jpg	0.0	129.37373458691673	0.3832925175324817
26.0	13.30131177043586	pulse	0.0	t		body	body-50.jpg	0.0	129.65715300808915	
26.0	13.401185866795913	ISI	1.0		4.0	body	body-50.jpg	0.0	129.7570271044492	0.11670521855648985
27.0	13.517891085352403	body	0.0		46.0	body	body-103.jpg	0.0	129.8737323230057	0.38330036575734994
27.0	13.901191451109753	ISI	1.0		3.0	body	body-103.jpg	0.0	130.25703268876305	0.1166756367852031
28.0	14.017867087894956	body	0.0		45.0	body	body-126.jpg	0.0	130.37370832554825	0.38329312124233184
28.0	14.009875783728148	pulse	0.0	t		body	body-126.jpg	0.0	130.36571702138144	
28.0	14.401160209137288	ISI	1.0		7.0	body	body-126.jpg	0.0	130.75700144679058	0.11670521855648985
29.0	14.517865427693778	body	0.0		46.0	body	body-140.jpg	0.0	130.87370666534707	0.3833064028535773
29.0	14.70127995493931	pulse	0.0	t		body	body-140.jpg	0.0	131.0571211925926	
29.0	14.901171830547355	ISI	1.0		5.0	body	body-140.jpg	0.0	131.25701306820065	0.11667684420444857
30.0	15.017848674751804	body	0.0		46.0	body	body-92.jpg	0.0	131.3736899124051	0.3833097232563887
30.0	15.401158398008192	ISI	1.0		5.0	body	body-92.jpg	0.0	131.7569996356615	0.11668288130067594
30.0	15.455566217738124	pulse	1.0	t		body	body-92.jpg	0.0	131.81140745539142	
31.0	15.517841279308868	body	0.0		46.0	body	body-121.jpg	0.0	131.87368251696216	0.3833064028535773
31.0	15.901147682162446	ISI	1.0		8.0	body	body-121.jpg	0.0	132.25698891981574	0.11668227759128058
32.0	16.017829959753726	body	0.0		46.0	body	body-121.jpg	1.0	132.37367119740702	0.38330791212774784
32.0	16.101257496941344	pulse	0.0	t		body	body-121.jpg	1.0	132.45709873459464	
32.0	16.401137871881474	ISI	1.0		8.0	body	body-121.jpg	1.0	132.75697910953477	0.11668227759082583
33.0	16.5178201494723	body	0.0		46.0	body	body-93.jpg	0.0	132.8736613871256	0.38330791212774784
33.0	16.567953705131913	response	0.0	b		body	body-93.jpg	0.0	132.9237949427852	
33.0	16.801256078224014	pulse	0.0	t		body	body-93.jpg	0.0	133.1570973158773	
33.0	16.901128061600048	ISI	1.0		6.0	body	body-93.jpg	0.0	133.25696929925334	0.11668740912273279
34.0	17.01781547072278	body	0.0		46.0	body	body-43.jpg	0.0	133.37365670837607	0.38330187503152047
34.0	17.4011173457543	ISI	1.0		6.0	body	body-43.jpg	0.0	133.7569585834076	0.11667744791429868
35.0	17.5177947936686	body	0.0		45.0	body	body-68.jpg	0.0	133.8736360313219	0.38331153438548426
35.0	17.50992634440854	pulse	0.0	t		body	body-68.jpg	0.0	133.86576758206184	
35.0	17.901106328054084	ISI	1.0		5.0	body	body-68.jpg	0.0	134.25694756570738	0.11668348501007131
36.0	18.017789813064155	car	0.0		46.0	object	car-19.jpg	0.0	134.37363105071745	0.38330579914418195
36.0	18.201212792244405	pulse	0.0	t		object	car-19.jpg	0.0	134.5570540298977	
36.0	18.401095612208337	ISI	1.0		6.0	object	car-19.jpg	0.0	134.75693684986163	0.11668167388143047
37.0	18.517777286089768	car	0.0		46.0	object	car-27.jpg	0.0	134.87361852374306	0.38333930502767544
37.0	18.901116591117443	ISI	1.0		6.0	object	car-27.jpg	0.0	135.25695782877074	0.11668650355841237
37.0	18.943773203201545	pulse	1.0	t		object	car-27.jpg	0.0	135.29961444085484	
38.0	19.017803094675855	car	0.0		46.0	object	car-115.jpg	0.0	135.37364433232915	0.3832722932602337
38.0	19.40107538793609	ISI	1.0		7.0	object	car-115.jpg	0.0	135.75691662558938	0.11668408872037617
39.0	19.517759476656465	car	0.0		46.0	object	car-84.jpg	0.0	135.87360071430976	0.3833036861601613
39.0	19.60119154166614	pulse	0.0	t		object	car-84.jpg	0.0	135.95703277931943	
39.0	19.901063162816627	ISI	1.0		7.0	object	car-84.jpg	0.0	136.25690440046992	0.1166852961391669
40.0	20.017748458955793	car	0.0		46.0	object	car-39.jpg	0.0	136.3735896966091	0.3833064028535773
40.0	20.301167785692996	pulse	0.0	t		object	car-39.jpg	0.0	136.6570090233463	
40.0	20.40105486180937	ISI	1.0		3.0	object	car-39.jpg	0.0	136.75689609946267	0.11668650355841237
41.0	20.517741365367783	car	0.0		46.0	object	car-143.jpg	0.0	136.87358260302108	0.3833021768864455
41.0	20.90104354225423	ISI	1.0		7.0	object	car-143.jpg	0.0	137.25688477990752	0.11667865533354416
42.0	21.017722197587773	car	0.0		45.0	object	car-47.jpg	0.0	137.37356343524107	0.3833106288207091
42.0	21.009806055267745	pulse	0.0	t		object	car-47.jpg	0.0	137.36564729292104	
42.0	21.401032826408482	ISI	1.0		7.0	object	car-47.jpg	0.0	137.75687406406178	0.116683183155601
43.0	21.517716009564083	car	0.0		46.0	object	car-67.jpg	0.0	137.87355724721738	0.38330670470850237
43.0	21.701138686889408	pulse	0.0	t		object	car-67.jpg	0.0	138.0569799245427	
43.0	21.901022714272585	ISI	1.0		8.0	object	car-67.jpg	0.0	138.25686395192588	0.11668197573635553
44.0	22.01770469000894	car	0.0		46.0	object	car-41.jpg	0.0	138.37354592766224	0.38331032696578404
44.0	22.401015016974725	ISI	1.0		8.0	object	car-41.jpg	0.0	138.75685625462802	0.11668076831711005
44.0	22.432371090640572	pulse	1.0	t		object	car-41.jpg	0.0	138.78821232829387	
45.0	22.517695785291835	car	0.0		46.0	object	car-41.jpg	1.0	138.87353702294513	0.38330942140191837
45.0	22.901005206693753	ISI	1.0		6.0	object	car-41.jpg	1.0	139.25684644434705	0.11667895718801446
46.0	23.017684163881768	car	0.0		45.0	object	car-82.jpg	0.0	139.37352540153506	0.3833082139826729
46.0	23.009831411071445	response	0.0	b		object	car-82.jpg	0.0	139.36567264872474	
46.0	23.101098117603215	pulse	0.0	t		object	car-82.jpg	0.0	139.4569393552565	
46.0	23.40099237786444	ISI	1.0		7.0	object	car-82.jpg	0.0	139.75683361551773	0.11668348501007131
47.0	23.517675862874512	car	0.0		46.0	object	car-92.jpg	0.0	139.8735171005278	0.3833064028535773
47.0	23.801094585901865	pulse	0.0	t		object	car-92.jpg	0.0	140.15693582355516	
47.0	23.90098226572809	ISI	1.0		6.0	object	car-92.jpg	0.0	140.25682350338138	0.116685899849017
48.0	24.017668165577106	body	0.0		46.0	body	body-67.jpg	0.0	140.3735094032304	0.38330398801508636
48.0	24.400972153592193	ISI	1.0		7.0	body	body-67.jpg	0.0	140.7568133912455	0.11667774976922374
49.0	24.517649903361416	body	0.0		45.0	body	body-59.jpg	0.0	140.8734911410147	0.38331243994934994
49.0	24.50970991451186	pulse	0.0	t		body	body-59.jpg	0.0	140.86555115216515	
49.0	24.900962343310766	ISI	1.0		5.0	body	body-59.jpg	0.0	141.25680358096406	0.11668257944620564
50.0	25.017644922756972	body	0.0		46.0	body	body-26.jpg	0.0	141.37348616041027	0.38333719204410954
50.0	25.201098087417904	pulse	0.0	t		body	body-26.jpg	0.0	141.5569393250712	
50.0	25.40098211480108	ISI	1.0		7.0	body	body-26.jpg	0.0	141.75682335245438	0.11665661993220056
51.0	25.517638734733282	body	0.0		46.0	body	body-31.jpg	0.0	141.87347997238658	0.38330187503152047
51.0	25.900940609764803	ISI	1.0		7.0	body	body-31.jpg	0.0	142.2567818474181	0.1166852961391669
51.0	25.93655283621274	pulse	1.0	t		body	body-31.jpg	0.0	142.29239407386603	
52.0	26.01762590590397	body	0.0		46.0	body	body-97.jpg	0.0	142.37346714355726	0.38330519543433184
52.0	26.4009311013383	ISI	1.0		7.0	body	body-97.jpg	0.0	142.7567723389916	0.11668891839690332
53.0	26.517620019735205	body	0.0		46.0	body	body-137.jpg	0.0	142.8734612573885	0.3832991583385592
53.0	26.601040312407804	pulse	0.0	t		body	body-137.jpg	0.0	142.9568815500611	
53.0	26.900919178073764	ISI	1.0		7.0	body	body-137.jpg	0.0	143.25676041572706	0.11668408871992142
54.0	27.017603266793685	body	0.0		46.0	body	body-40.jpg	0.0	143.37344450444698	0.38330549728880214
54.0	27.30102229167551	pulse	0.0	t		body	body-40.jpg	0.0	143.6568635293288	
54.0	27.400908764082487	ISI	1.0		6.0	body	body-40.jpg	0.0	143.75675000173578	0.11668378686545111
55.0	27.51759255094794	body	0.0		46.0	body	body-56.jpg	0.0	143.87343378860123	0.3833057991437272
55.0	27.900898350091666	ISI	1.0		5.0	body	body-56.jpg	0.0	144.25673958774496	0.11668378686545111
56.0	28.017582136957117	body	0.0		45.0	body	body-125.jpg	0.0	144.3734233746104	0.3833048935794068
56.0	28.009226494038103	pulse	0.0	t		body	body-125.jpg	0.0	144.3650677316914	
56.0	28.400887030536524	ISI	1.0		8.0	body	body-125.jpg	0.0	144.75672826818982	0.11668167388143047
57.0	28.517568704417954	body	0.0		46.0	body	body-133.jpg	0.0	144.87340994207125	0.3833097232568434
57.0	28.70099289101745	pulse	0.0	t		body	body-133.jpg	0.0	145.05683412867074	
57.0	28.900878427674797	ISI	1.0		7.0	body	body-133.jpg	0.0	145.2567196653281	0.11668016460725994
58.0	29.017558592282057	body	0.0		46.0	body	body-111.jpg	0.0	145.37339982993535	0.3833091195469933
58.0	29.40086771182905	ISI	1.0		6.0	body	body-111.jpg	0.0	145.75670894948234	0.11668167388143047
58.0	29.441808279334055	pulse	1.0	t		body	body-111.jpg	0.0	145.79764951698735	
59.0	29.51754938571048	body	0.0		46.0	body	body-122.jpg	0.0	145.87339062336378	0.38331002511131373
59.0	29.900859410821795	ISI	1.0		1.0	body	body-122.jpg	0.0	146.2567006484751	0.11668559799409195
60.0	30.017545008815887	word	0.0		46.0	character	word-83.jpg	0.0	146.37338624646918	0.38330187503152047
60.0	30.100967414471597	pulse	0.0	t		character	word-83.jpg	0.0	146.4568086521249	
60.0	30.400846883847407	ISI	1.0		7.0	character	word-83.jpg	0.0	146.7566881215007	0.11668107017158036
61.0	30.517527954018988	word	0.0		46.0	character	word-111.jpg	0.0	146.87336919167228	0.3833082139826729
61.0	30.800950601159002	pulse	0.0	t		character	word-111.jpg	0.0	147.1567918388123	
61.0	30.90083616800166	ISI	1.0		6.0	character	word-111.jpg	0.0	147.25667740565495	0.11668469242931678
62.0	31.017520860430977	word	0.0		46.0	character	word-67.jpg	0.0	147.37336209808427	0.38329131011323625
62.0	31.400812170544214	ISI	1.0		4.0	character	word-67.jpg	0.0	147.7566534081975	0.11669254065463974
63.0	31.517504711198853	word	0.0		45.0	character	word-50.jpg	0.0	147.87334594885215	0.3833447384140527
63.0	31.50949921985648	pulse	0.0	t		character	word-50.jpg	0.0	147.86534045750977	
63.0	31.900849449612906	ISI	1.0		5.0	character	word-50.jpg	0.0	148.2566906872662	0.11668137202696016
64.0	32.017530821639866	word	0.0		46.0	character	word-139.jpg	0.0	148.37337205929316	0.3832735006794792
64.0	32.20092150235541	pulse	0.0	t		character	word-139.jpg	0.0	148.5567627400087	
64.0	32.400804322319345	ISI	1.0		8.0	character	word-139.jpg	0.0	148.75664555997264	0.11669133323539427
65.0	32.51749565555474	word	0.0		46.0	character	word-139.jpg	1.0	148.87333689320803	0.3832994601930295
65.0	32.90079511574777	ISI	1.0		5.0	character	word-139.jpg	1.0	149.25663635340106	0.11667714605937363
65.0	32.94989210199901	pulse	1.0	t		character	word-139.jpg	1.0	149.3057333396523	
66.0	33.01747226180714	word	0.0		45.0	character	word-107.jpg	0.0	149.37331349946044	0.38331213809487963
66.0	33.009533178521906	response	0.0	b		character	word-107.jpg	0.0	149.3653744161752	
66.0	33.40078439990202	ISI	1.0		7.0	character	word-107.jpg	0.0	149.75662563755532	0.1166852961391669
67.0	33.51746969604119	word	0.0		46.0	character	word-87.jpg	0.0	149.87331093369448	0.38330579914418195
67.0	33.600896327664486	pulse	0.0	t		character	word-87.jpg	0.0	149.95673756531778	
67.0	33.90077549518537	ISI	1.0		6.0	character	word-87.jpg	0.0	150.25661673283867	0.11667956089786458
68.0	34.017455056083236	word	0.0		46.0	character	word-71.jpg	0.0	150.37329629373653	0.3833091195469933
68.0	34.3008770995134	pulse	0.0	t		character	word-71.jpg	0.0	150.6567183371667	
68.0	34.40076417563023	ISI	1.0		6.0	character	word-71.jpg	0.0	150.75660541328352	0.11668167388143047
69.0	34.51744584951166	word	0.0		46.0	character	word-7.jpg	0.0	150.87328708716495	0.38330821398221815
69.0	34.90075406349388	ISI	1.0		7.0	character	word-7.jpg	0.0	151.25659530114717	0.11667714605937363
70.0	35.01743120955325	word	0.0		45.0	character	word-84.jpg	0.0	151.37327244720655	0.38331213809487963
70.0	35.00947975022109	pulse	0.0	t		character	word-84.jpg	0.0	151.36532098787438	
70.0	35.40074334764813	ISI	1.0		6.0	character	word-84.jpg	0.0	151.75658458530143	0.11668408872037617
71.0	35.51742743636851	word	0.0		46.0	character	word-132.jpg	0.0	151.8732686740218	0.38330519543433184
71.0	35.70084860441966	pulse	0.0	t		character	word-132.jpg	0.0	152.05668984207296	
71.0	35.90073263180284	ISI	1.0		3.0	character	word-132.jpg	0.0	152.25657386945613	0.11669163508986458
72.0	36.017424266892704	adult	0.0		46.0	face	adult-41.jpg	0.0	152.373265504546	0.3832976490643887
72.0	36.40072191595709	ISI	1.0		4.0	face	adult-41.jpg	0.0	152.7565631536104	0.11668348501007131
72.0	36.4627044802196	pulse	1.0	t		face	adult-41.jpg	0.0	152.8185457178729	
73.0	36.517405400967164	adult	0.0		46.0	face	adult-16.jpg	0.0	152.87324663862046	0.3833042898700114
73.0	36.900709690837175	ISI	1.0		2.0	face	adult-16.jpg	0.0	153.25655092849047	0.11667292009224184
74.0	37.01738261092942	adult	0.0		46.0	face	adult-123.jpg	0.0	153.3732238485827	0.38331877890050237
74.0	37.10086780238544	pulse	0.0	t		face	adult-123.jpg	0.0	153.45670904003873	
74.0	37.40070138982992	ISI	1.0		8.0	face	adult-123.jpg	0.0	153.7565426274832	0.11668197573635553
75.0	37.517383365566275	adult	0.0		46.0	face	adult-98.jpg	0.0	153.87322460321957	0.38330881769206826
75.0	37.800804805287044	pulse	0.0	t		face	adult-98.jpg	0.0	154.15664604294034	
75.0	37.90069218325834	ISI	1.0		6.0	face	adult-98.jpg	0.0	154.25653342091164	0.11668348501052606
76.0	38.01737566826887	adult	0.0		46.0	face	adult-120.jpg	0.0	154.37321690592216	0.38333598462486407
76.0	38.40071165289373	ISI	1.0		8.0	face	adult-120.jpg	0.0	154.75655289054703	0.11668016460725994
77.0	38.51739181750099	adult	0.0		45.0	face	adult-120.jpg	1.0	154.8732330551543	0.38330942140191837
77.0	38.5093449720498	pulse	0.0	t		face	adult-120.jpg	1.0	154.8651862097031	
77.0	38.90070123890291	ISI	1.0		5.0	face	adult-120.jpg	1.0	155.2565424765562	0.11668378686499636
77.0	38.949784943542454	response	1.0	b		face	adult-120.jpg	1.0	155.30562618119575	
78.0	39.01738502576791	adult	0.0		46.0	face	adult-63.jpg	0.0	155.3732262634212	0.3832750099536497
78.0	39.20075970817879	pulse	0.0	t		face	adult-63.jpg	0.0	155.5566009458321	
78.0	39.40066003572156	ISI	1.0		7.0	face	adult-63.jpg	0.0	155.75650127337485	0.11668710726780773
79.0	39.517347142989365	adult	0.0		46.0	face	adult-34.jpg	0.0	155.87318838064266	0.383303384305691
79.0	39.900650527295056	ISI	1.0		8.0	face	adult-34.jpg	0.0	156.25649176494835	0.11667956089786458
79.0	39.93241501051534	pulse	1.0	t		face	adult-34.jpg	0.0	156.28825624816864	
80.0	40.01733008819292	adult	0.0		46.0	face	adult-24.jpg	0.0	156.37317132584622	0.3833082139826729
80.0	40.400638302175594	ISI	1.0		8.0	face	adult-24.jpg	0.0	156.7564795398289	0.11668348501007131
81.0	40.517321787185665	adult	0.0		46.0	face	adult-129.jpg	0.0	156.87316302483896	0.383306100999107
81.0	40.600758983727246	pulse	0.0	t		face	adult-129.jpg	0.0	156.95660022138054	
81.0	40.90062788818477	ISI	1.0		7.0	face	adult-129.jpg	0.0	157.25646912583807	0.11668378686499636
82.0	41.01731167504977	adult	0.0		46.0	face	adult-48.jpg	0.0	157.37315291270306	0.38331093067563415
82.0	41.300730699932046	pulse	0.0	t		face	adult-48.jpg	0.0	157.65657193758534	
82.0	41.4006226057254	ISI	1.0		8.0	face	adult-48.jpg	0.0	157.7564638433787	0.11667805162369405
83.0	41.5173006573491	adult	0.0		46.0	face	adult-20.jpg	0.0	157.8731418950024	0.3833082139826729
83.0	41.90060887133177	ISI	1.0		5.0	face	adult-20.jpg	0.0	158.25645010898506	0.116683183155601
84.0	42.01729205448737	house	0.0		45.0	place	house-22.jpg	0.0	158.37313329214066	0.3833054972892569
84.0	42.009195402992646	pulse	0.0	t		place	house-22.jpg	0.0	158.36503664064594	
84.0	42.40059755177663	ISI	1.0		5.0	place	house-22.jpg	0.0	158.75643878942992	0.11668620170348731
85.0	42.517283753480115	house	0.0		46.0	place	house-63.jpg	0.0	158.8731249911334	0.38330308245076594
85.0	42.700706128950515	pulse	0.0	t		place	house-63.jpg	0.0	159.0565473666038	
85.0	42.90058683593088	ISI	1.0		6.0	place	house-63.jpg	0.0	159.25642807358417	0.11669133323539427
86.0	43.017278169166275	house	0.0		46.0	place	house-74.jpg	0.0	159.37311940681957	0.38329855462825435
86.0	43.40057672379453	ISI	1.0		3.0	place	house-74.jpg	0.0	159.75641796144782	0.11668469242977153
86.0	43.469255635101035	pulse	1.0	t		place	house-74.jpg	0.0	159.82509687275433	
87.0	43.5172614162243	house	0.0		46.0	place	house-41.jpg	0.0	159.8731026538776	0.3833042898700114
87.0	43.90056570609431	ISI	1.0		6.0	place	house-41.jpg	0.0	160.2564069437476	0.11668348501052606
88.0	44.01724919110484	house	0.0		46.0	place	house-101.jpg	0.0	160.37309042875813	0.3833057991437272
88.0	44.100684576517324	pulse	0.0	t		place	house-101.jpg	0.0	160.45652581417062	
88.0	44.400554990248565	ISI	1.0		6.0	place	house-101.jpg	0.0	160.75639622790186	0.11668288130067594
89.0	44.51723787154924	house	0.0		46.0	place	house-5.jpg	0.0	160.87307910920254	0.38330851583759795
89.0	44.800660518689256	pulse	0.0	t		place	house-5.jpg	0.0	161.15650175634255	
89.0	44.90054638738684	ISI	1.0		7.0	place	house-5.jpg	0.0	161.25638762504013	0.11668197573590078
90.0	45.01722836312274	house	0.0		46.0	place	house-25.jpg	0.0	161.37306960077603	0.3833387013182801
90.0	45.40056706444102	ISI	1.0		7.0	place	house-25.jpg	0.0	161.75640830209431	0.11666688299601446
91.0	45.517233947437035	house	0.0		45.0	place	house-54.jpg	0.0	161.87307518509033	0.38332209930331373
91.0	45.50949589945321	pulse	0.0	t		place	house-54.jpg	0.0	161.8653371371065	
91.0	45.90055604674035	ISI	1.0		7.0	place	house-54.jpg	0.0	162.25639728439364	0.11668710726826248
92.0	46.01724315400861	house	0.0		46.0	place	house-54.jpg	1.0	162.3730843916619	0.38327108584098823
92.0	46.20063383472416	pulse	0.0	t		place	house-54.jpg	1.0	162.55647507237745	
92.0	46.4005142398496	ISI	1.0		7.0	place	house-54.jpg	1.0	162.7563554775029	0.11668469242977153
92.0	46.43966812875078	response	1.0	b		place	house-54.jpg	1.0	162.79550936640408	
93.0	46.51719893227937	house	0.0		45.0	place	house-52.jpg	0.0	162.87304016993266	0.3833045917244817
93.0	46.90050352400385	ISI	1.0		7.0	place	house-52.jpg	0.0	163.25634476165715	0.11668378686545111
93.0	46.94100217607138	pulse	1.0	t		place	house-52.jpg	0.0	163.29684341372467	
94.0	47.0171873108693	house	0.0		45.0	place	house-99.jpg	0.0	163.3730285485226	0.3833064028535773
94.0	47.40049371372288	ISI	1.0		3.0	place	house-99.jpg	0.0	163.75633495137618	0.11668378686499636
95.0	47.51717750058788	house	0.0		46.0	place	house-125.jpg	0.0	163.87301873824117	0.3833064028535773
95.0	47.60060775446891	pulse	0.0	t		place	house-125.jpg	0.0	163.9564489921222	
95.0	47.900483903441454	ISI	1.0		7.0	place	house-125.jpg	0.0	164.25632514109475	0.11668378686499636
96.0	48.01716769030645	house	0.0		46.0	place	house-131.jpg	0.0	164.37300892795975	0.38329402680665225
96.0	48.30055803898222	pulse	0.0	t		place	house-131.jpg	0.0	164.6563992766355	
96.0	48.4004617171131	ISI	1.0		6.0	place	house-131.jpg	0.0	164.7563029547664	0.1166928425095648
97.0	48.51715455962267	house	0.0		46.0	place	house-18.jpg	0.0	164.87299579727596	0.38331213809487963
97.0	48.90046669771755	ISI	1.0		7.0	place	house-18.jpg	0.0	165.25630793537084	0.11667865533354416
98.0	49.01714535305109	house	0.0		45.0	place	house-106.jpg	0.0	165.3729865907044	0.3833067047080476
98.0	49.009006743738155	pulse	0.0	t		place	house-106.jpg	0.0	165.36484798139145	
98.0	49.40045205775914	ISI	1.0		6.0	place	house-106.jpg	0.0	165.75629329541243	0.11668469242977153
99.0	49.51713675018891	house	0.0		46.0	place	house-88.jpg	0.0	165.8729779878422	0.383320891884523
99.0	49.7006330800873	pulse	0.0	t		place	house-88.jpg	0.0	166.0564743177406	
99.0	49.900457642073434	ISI	1.0		4.0	place	house-88.jpg	0.0	166.25629887972673	0.1166611477542574
100.0	50.01711878982769	house	0.0		46.0	place	house-1.jpg	0.0	166.37296002748099	0.38331153438548426
100.0	50.400430324213175	ISI	1.0		6.0	place	house-1.jpg	0.0	166.75627156186647	0.11668710726826248
100.0	50.44781639741723	pulse	1.0	t		place	house-1.jpg	0.0	166.80365763507052	
101.0	50.51711743148144	house	0.0		46.0	place	house-122.jpg	0.0	166.87295866913473	0.38330308245076594
101.0	50.900420513932204	ISI	1.0		6.0	place	house-122.jpg	0.0	167.2562617515855	0.1166855979936372
102.0	51.01710611192584	house	0.0		46.0	place	house-42.jpg	0.0	167.37294734957914	0.38330519543433184
102.0	51.100538780645365	pulse	0.0	t		place	house-42.jpg	0.0	167.45638001829866	
102.0	51.40041130736017	ISI	1.0		3.0	place	house-42.jpg	0.0	167.75625254501347	0.11669314436448985
103.0	51.51710445172466	house	0.0		46.0	place	house-72.jpg	0.0	167.87294568937796	0.3832946305160476
103.0	51.800512307978806	pulse	0.0	t		place	house-72.jpg	0.0	168.1563535456321	
103.0	51.90039908224071	ISI	1.0		7.0	place	house-72.jpg	0.0	168.256240319894	0.11668288130067594
104.0	52.017081963541386	house	0.0		46.0	place	house-43.jpg	0.0	168.37292320119468	0.38334081430184597
104.0	52.40042277784323	ISI	1.0		7.0	place	house-43.jpg	0.0	168.75626401549653	0.11667986275233488
105.0	52.51710264059557	house	0.0		45.0	place	house-43.jpg	1.0	168.87294387824886	0.38330881769206826
105.0	52.5097699836183	pulse	0.0	t		place	house-43.jpg	1.0	168.8656112212716	
105.0	52.900411458287635	ISI	1.0		7.0	place	house-43.jpg	1.0	169.25625269594093	0.11668559799409195
106.0	53.01709705628173	house	0.0		46.0	place	house-9.jpg	0.0	169.37293829393502	0.3832731988250089
106.0	53.06715937420677	response	0.0	b		place	house-9.jpg	0.0	169.42300061186006	
106.0	53.20046992756397	pulse	0.0	t		place	house-9.jpg	0.0	169.55631116521727	
106.0	53.400370255106736	ISI	1.0		7.0	place	house-9.jpg	0.0	169.75621149276003	0.11668197573635553
107.0	53.51705223084309	house	0.0		46.0	place	house-68.jpg	0.0	169.8728934684964	0.38330730841789773
107.0	53.90035953926099	ISI	1.0		7.0	place	house-68.jpg	0.0	170.25620077691428	0.11668137202650541
107.0	53.940578070067204	pulse	1.0	t		place	house-68.jpg	0.0	170.2964193077205	
108.0	54.017040911287495	word	0.0		46.0	character	word-68.jpg	0.0	170.3728821489408	0.3833073084183525
108.0	54.40034821970585	ISI	1.0		7.0	character	word-68.jpg	0.0	170.75618945735914	0.11668439057439173
109.0	54.51703261028024	word	0.0		46.0	character	word-45.jpg	0.0	170.87287384793353	0.3833051954347866
109.0	54.600469203112425	pulse	0.0	t		character	word-45.jpg	0.0	170.95631044076572	
109.0	54.900337805715026	ISI	1.0		6.0	character	word-45.jpg	0.0	171.25617904336832	0.11668680541288268
110.0	55.01702461112791	word	0.0		46.0	character	word-135.jpg	0.0	171.3728658487812	0.383303384305691
110.0	55.300441824881545	pulse	0.0	t		character	word-135.jpg	0.0	171.65628306253484	
110.0	55.4003279954336	ISI	1.0		6.0	character	word-135.jpg	0.0	171.7561692330869	0.116683183155601
111.0	55.5170111785892	word	0.0		46.0	character	word-39.jpg	0.0	171.8728524162425	0.38330610099865225
111.0	55.90031727958785	ISI	1.0		6.0	character	word-39.jpg	0.0	172.25615851724115	0.11667986275278963
112.0	56.01699714234064	word	0.0		45.0	character	word-80.jpg	0.0	172.37283837999394	0.3833085158371432
112.0	56.009229210731064	pulse	0.0	t		character	word-80.jpg	0.0	172.36507044838436	
112.0	56.400305658177786	ISI	1.0		7.0	character	word-80.jpg	0.0	172.75614689583108	0.11668378686499636
113.0	56.51698944504278	word	0.0		46.0	character	word-5.jpg	0.0	172.87283068269608	0.383306100999107
113.0	56.7004139334972	pulse	0.0	t		character	word-5.jpg	0.0	173.0562551711505	
113.0	56.90029554604189	ISI	1.0		5.0	character	word-5.jpg	0.0	173.25613678369518	0.11668408871992142
114.0	57.01697963476181	word	0.0		46.0	character	word-55.jpg	0.0	173.3728208724151	0.3833064028535773
114.0	57.40028603761539	ISI	1.0		6.0	character	word-55.jpg	0.0	173.75612727526868	0.11668499428424184
114.0	57.44206032809825	pulse	1.0	t		character	word-55.jpg	0.0	173.79790156575154	
115.0	57.51697103189963	word	0.0		46.0	character	word-99.jpg	0.0	173.87281226955292	0.38330670470850237
115.0	57.90027773660813	ISI	1.0		6.0	character	word-99.jpg	0.0	174.25611897426143	0.11668197573635553
116.0	58.01695971234449	word	0.0		46.0	character	word-110.jpg	0.0	174.37280094999778	0.3833070065634274
116.0	58.10038664582271	pulse	0.0	t		character	word-110.jpg	0.0	174.456227883476	
116.0	58.400266718907915	ISI	1.0		6.0	character	word-110.jpg	0.0	174.7561079565612	0.11668589984856226
117.0	58.51695261875648	word	0.0		46.0	character	word-73.jpg	0.0	174.87279385640977	0.3833036861601613
117.0	58.800368625090414	pulse	0.0	t		character	word-73.jpg	0.0	175.1562098627437	
117.0	58.90025630491664	ISI	1.0		7.0	character	word-73.jpg	0.0	175.25609754256993	0.1166810701720351
118.0	59.01693737508867	word	0.0		46.0	character	word-91.jpg	0.0	175.37277861274197	0.3833390031727504
118.0	59.400276378261424	ISI	1.0		5.0	character	word-91.jpg	0.0	175.75611761591472	0.11668861654197826
119.0	59.5169649948034	word	0.0		45.0	character	word-120.jpg	0.0	175.8728062324567	0.3833012713221251
119.0	59.5089534663648	pulse	0.0	t		character	word-120.jpg	0.0	175.8647947040181	
119.0	59.90026626612553	ISI	1.0		7.0	character	word-120.jpg	0.0	176.25610750377882	0.11668559799409195
120.0	60.01695186411962	body	0.0		46.0	body	body-138.jpg	0.0	176.3727931017729	0.3833045917244817
120.0	60.20037242846138	pulse	0.0	t		body	body-138.jpg	0.0	176.55621366611467	
120.0	60.4002564558441	ISI	1.0		3.0	body	body-138.jpg	0.0	176.7560976934974	0.116683183155601
121.0	60.5169396389997	body	0.0		46.0	body	body-38.jpg	0.0	176.872780876653	0.3833070065634274
121.0	60.90024664556313	ISI	1.0		6.0	body	body-38.jpg	0.0	177.25608788321642	0.11669404992835553
121.0	60.9478856730957	pulse	1.0	t		body	body-38.jpg	0.0	177.303726910749	
122.0	61.016940695491485	body	0.0		46.0	body	body-9.jpg	0.0	177.37278193314478	0.3832934230972569
122.0	61.40023411858874	ISI	1.0		6.0	body	body-9.jpg	0.0	177.75607535624204	0.1166852961391669
123.0	61.51691941472791	body	0.0		46.0	body	body-142.jpg	0.0	177.8727606523812	0.38330519543433184
123.0	61.60034423522211	pulse	0.0	t		body	body-142.jpg	0.0	177.9561854728754	
123.0	61.90022461016224	ISI	1.0		6.0	body	body-142.jpg	0.0	178.25606584781553	0.11669133323539427
124.0	62.016915943397635	body	0.0		46.0	body	body-142.jpg	1.0	178.37275718105093	0.38329704535453857
124.0	62.300328931183685	pulse	0.0	t		body	body-142.jpg	1.0	178.65617016883698	
124.0	62.40021298875217	ISI	1.0		4.0	body	body-142.jpg	1.0	178.75605422640547	0.11668680541288268
124.0	62.458199297221654	response	1.0	b		body	body-142.jpg	1.0	178.81404053487495	
125.0	62.516899794165056	body	0.0		46.0	body	body-25.jpg	0.0	178.87274103181835	0.383303384305691
125.0	62.90020317847075	ISI	1.0		6.0	body	body-25.jpg	0.0	179.25604441612404	0.11668257944575089
126.0	63.0168857579165	body	0.0		45.0	body	body-110.jpg	0.0	179.3727269955698	0.3833073084183525
126.0	63.004774739340974	pulse	0.0	t		body	body-110.jpg	0.0	179.36061597699427	
126.0	63.40019306633485	ISI	1.0		5.0	body	body-110.jpg	0.0	179.75603430398814	0.11668348501007131
127.0	63.51687655134492	body	0.0		46.0	body	body-8.jpg	0.0	179.87271778899822	0.38330851583759795
127.0	63.70030043608949	pulse	0.0	t		body	body-8.jpg	0.0	180.0561416737428	
127.0	63.90018506718252	ISI	1.0		5.0	body	body-8.jpg	0.0	180.2560263048358	0.11668408871992142
128.0	64.01686915590244	body	0.0		46.0	body	body-6.jpg	0.0	180.37271039355574	0.38330338430523625
128.0	64.40017254020768	ISI	1.0		6.0	body	body-6.jpg	0.0	180.75601377786097	0.11667080710867594
128.0	64.44133346172248	pulse	1.0	t		body	body-6.jpg	0.0	180.79717469937577	
129.0	64.51684334731635	body	0.0		46.0	body	body-66.jpg	0.0	180.87268458496965	0.3833175714812569
129.0	64.90016091879761	ISI	1.0		5.0	body	body-66.jpg	0.0	181.2560021564509	0.11668559799409195
130.0	65.0168465167917	body	0.0		46.0	body	body-35.jpg	0.0	181.372687754445	0.38329191382308636
130.0	65.10027012986711	pulse	0.0	t		body	body-35.jpg	0.0	181.4561113675204	
130.0	65.40013843061479	ISI	1.0		7.0	body	body-35.jpg	0.0	181.75597966826808	0.116697974041017
131.0	65.5168364046558	body	0.0		46.0	body	body-65.jpg	0.0	181.8726776423091	0.38327380253440424
131.0	65.80022554591187	pulse	0.0	t		body	body-65.jpg	0.0	182.15606678356517	
131.0	65.90011020719021	ISI	1.0		7.0	body	body-65.jpg	0.0	182.2559514448435	0.11668227759128058
132.0	66.01679248478149	adult	0.0		46.0	face	adult-39.jpg	0.0	182.37263372243478	0.38330730841789773
132.0	66.40009979319939	ISI	1.0		4.0	face	adult-39.jpg	0.0	182.75594103085268	0.11667805162369405
133.0	66.51677784482308	adult	0.0		45.0	face	adult-92.jpg	0.0	182.87261908247638	0.38331062882116385
133.0	66.50893807176953	pulse	0.0	t		face	adult-92.jpg	0.0	182.86477930942283	
133.0	66.90008847364425	ISI	1.0		6.0	face	adult-92.jpg	0.0	183.25592971129754	0.11668137202650541
134.0	67.01676984567075	adult	0.0		46.0	face	adult-38.jpg	0.0	183.37261108332405	0.38330821398221815
134.0	67.2002568180701	pulse	0.0	t		face	adult-38.jpg	0.0	183.5560980557234	
134.0	67.40007805965297	ISI	1.0		5.0	face	adult-38.jpg	0.0	183.75591929730626	0.11668167388188522
135.0	67.51675973353485	adult	0.0		46.0	face	adult-51.jpg	0.0	183.87260097118815	0.3833067047080476
135.0	67.9000664382429	ISI	1.0		7.0	face	adult-51.jpg	0.0	184.2559076758962	0.11668952210675343
135.0	67.93339724605767	pulse	1.0	t		face	adult-51.jpg	0.0	184.28923848371096	
136.0	68.01675596034966	adult	0.0		46.0	face	adult-40.jpg	0.0	184.37259719800295	0.38330187503152047
136.0	68.40005783538118	ISI	1.0		7.0	face	adult-40.jpg	0.0	184.75589907303447	0.11668137202650541
137.0	68.51673920740768	adult	0.0		46.0	face	adult-71.jpg	0.0	184.87258044506098	0.38330791212774784
137.0	68.600167952015	pulse	0.0	t		face	adult-71.jpg	0.0	184.9560091896683	
137.0	68.90004711953543	ISI	1.0		7.0	face	adult-71.jpg	0.0	185.25588835718872	0.11668439057484647
138.0	69.01673151011028	adult	0.0		46.0	face	adult-60.jpg	0.0	185.37257274776357	0.3833045917244817
138.0	69.30015053499255	pulse	0.0	t		face	adult-60.jpg	0.0	185.65599177264585	
138.0	69.40003610183476	ISI	1.0		7.0	face	adult-60.jpg	0.0	185.75587733948805	0.11668257944620564
139.0	69.51671868128096	adult	0.0		46.0	face	adult-1.jpg	0.0	185.87255991893426	0.3833064028535773
139.0	69.90002508413454	ISI	1.0		6.0	face	adult-1.jpg	0.0	186.25586632178783	0.11667865533354416
140.0	70.01670373946808	adult	0.0		45.0	face	adult-83.jpg	0.0	186.37254497712138	0.3833124399498047
140.0	70.00889475560462	pulse	0.0	t		face	adult-83.jpg	0.0	186.3647359932579	
140.0	70.40001617941789	ISI	1.0		8.0	face	adult-83.jpg	0.0	186.75585741707118	0.11669223879971469
141.0	70.5167084182176	adult	0.0		46.0	face	adult-43.jpg	0.0	186.8725496558709	0.3832994601930295
141.0	70.70012385102746	pulse	0.0	t		face	adult-43.jpg	0.0	187.05596508868075	
141.0	70.90000787841063	ISI	1.0		7.0	face	adult-43.jpg	0.0	187.25584911606393	0.11668137202650541
142.0	71.01668925043714	adult	0.0		46.0	face	adult-70.jpg	0.0	187.37253048809043	0.3833076102728228
142.0	71.39999686070996	ISI	1.0		6.0	face	adult-70.jpg	0.0	187.75583809836326	0.116685899849017
142.0	71.44094135232763	pulse	1.0	t		face	adult-70.jpg	0.0	187.79678258998092	
143.0	71.51668276055898	adult	0.0		46.0	face	adult-35.jpg	0.0	187.87252399821227	0.38333326793144806
143.0	71.90001602849043	ISI	1.0		7.0	face	adult-35.jpg	0.0	188.25585726614372	0.11668559799409195
144.0	72.01670162648452	adult	0.0		46.0	face	adult-101.jpg	0.0	188.3725428641378	0.38327199140530865
144.0	72.10009626149804	pulse	0.0	t		face	adult-101.jpg	0.0	188.45593749915133	
144.0	72.39997361788983	ISI	1.0		5.0	face	adult-101.jpg	0.0	188.75581485554312	0.11668257944620564
145.0	72.51665619733603	adult	0.0		46.0	face	adult-140.jpg	0.0	188.87249743498933	0.3833070065629727
145.0	72.80007733520188	pulse	0.0	t		face	adult-140.jpg	0.0	189.15591857285517	
145.0	72.899963203899	ISI	1.0		7.0	face	adult-140.jpg	0.0	189.2558044415523	0.11668620170348731
146.0	73.0166494056025	adult	0.0		46.0	face	adult-87.jpg	0.0	189.3724906432558	0.38330519543433184
146.0	73.39995460103682	ISI	1.0		7.0	face	adult-87.jpg	0.0	189.75579583869012	0.11667774976922374
147.0	73.51663235080605	adult	0.0		45.0	face	adult-4.jpg	0.0	189.87247358845934	0.3833112325305592
147.0	73.50872466042074	pulse	0.0	t		face	adult-4.jpg	0.0	189.86456589807403	
147.0	73.89994358333661	ISI	1.0		3.0	face	adult-4.jpg	0.0	190.2557848209899	0.11666567557676899
148.0	74.01660925891338	adult	0.0		46.0	face	adult-8.jpg	0.0	190.37245049656667	0.38332360857748426
148.0	74.20004763268844	pulse	0.0	t		face	adult-8.jpg	0.0	190.55588887034173	
148.0	74.39993286749086	ISI	1.0		7.0	face	adult-8.jpg	0.0	190.75577410514416	0.11668408871992142
149.0	74.51661695621078	adult	0.0		46.0	face	adult-8.jpg	1.0	190.87245819386408	0.38330398801508636
149.0	74.89992094422587	ISI	1.0		4.0	face	adult-8.jpg	1.0	191.25576218187916	0.11668348501052606
149.0	74.95275911895851	pulse	1.0	t		face	adult-8.jpg	1.0	191.3086003566118	
149.0	74.95292574281211	response	1.0	b		face	adult-8.jpg	1.0	191.3087669804654	
150.0	75.0166044292364	adult	0.0		46.0	face	adult-21.jpg	0.0	191.3724456668897	0.3833070065634274
150.0	75.39991143579982	ISI	1.0		6.0	face	adult-21.jpg	0.0	191.75575267345312	0.1083528960402873
151.0	75.50826433184011	adult	0.0		47.0	face	adult-2.jpg	0.0	191.8641055694934	0.3916369918233613
151.0	75.60002215614304	pulse	0.0	t		face	adult-2.jpg	0.0	191.95586339379634	
151.0	75.89990132366347	ISI	1.0		6.0	face	adult-2.jpg	0.0	192.25574256131677	0.10835017934732605
152.0	76.0082515030108	adult	0.0		47.0	face	adult-75.jpg	0.0	192.3640927406641	0.3916388029524569
152.0	76.30000624839477	pulse	0.0	t		face	adult-75.jpg	0.0	192.65584748604806	
152.0	76.39989030596325	ISI	1.0		6.0	face	adult-75.jpg	0.0	192.75573154361655	0.10835078305626666
153.0	76.50824108901952	adult	0.0		47.0	face	adult-17.jpg	0.0	192.86408232667281	0.39163910480738195
153.0	76.8998801938269	ISI	1.0		6.0	face	adult-17.jpg	0.0	193.2557214314802	0.1083450478154191
154.0	77.00822524164232	adult	0.0		46.0	face	adult-65.jpg	0.0	193.36406647929562	0.39165027343506154
154.0	77.00357154607946	pulse	0.0	t		face	adult-65.jpg	0.0	193.35941278373275	
154.0	77.39987551507738	ISI	1.0		6.0	face	adult-65.jpg	0.0	193.75571675273068	0.10835108491164647
155.0	77.50822659998903	adult	0.0		47.0	face	adult-141.jpg	0.0	193.86406783764232	0.3916318602919091
155.0	77.69997624402686	pulse	0.0	t		face	adult-141.jpg	0.0	194.05581748168015	
155.0	77.89985846028094	ISI	1.0		2.0	face	adult-141.jpg	0.0	194.25569969793423	0.10835138676611678
156.0	78.00820984704706	word	0.0		47.0	character	word-48.jpg	0.0	194.36405108470035	0.3916701958523845
156.0	78.39988004289944	ISI	1.0		5.0	character	word-48.jpg	0.0	194.75572128055273	0.11668650355841237
156.0	78.4508117026694	pulse	1.0	t		character	word-48.jpg	0.0	194.8066529403227	
157.0	78.51656654645785	word	0.0		46.0	character	word-116.jpg	0.0	194.87240778411115	0.383306100999107
157.0	78.89987264745696	ISI	1.0		6.0	character	word-116.jpg	0.0	195.25571388511025	0.116683183155601
158.0	79.01655583061256	word	0.0		46.0	character	word-127.jpg	0.0	195.37239706826585	0.3833036861601613
158.0	79.09997974554244	pulse	0.0	t		character	word-127.jpg	0.0	195.45582098319574	
158.0	79.39985951677272	ISI	1.0		6.0	character	word-127.jpg	0.0	195.75570075442602	0.11668740912273279
159.0	79.51654692589545	word	0.0		46.0	character	word-79.jpg	0.0	195.87238816354875	0.38327048213159287
159.0	79.79993274674916	pulse	0.0	t		character	word-79.jpg	0.0	196.15577398440246	
159.0	79.89981740802705	ISI	1.0		6.0	character	word-79.jpg	0.0	196.25565864568034	0.11668408871992142
160.0	80.01650149674697	word	0.0		46.0	character	word-6.jpg	0.0	196.37234273440026	0.38330791212774784
160.0	80.39980940887472	ISI	1.0		7.0	character	word-6.jpg	0.0	196.755650646528	0.11667805162369405
161.0	80.51648746049841	word	0.0		45.0	character	word-6.jpg	1.0	196.8723286981517	0.3833112325305592
161.0	80.5086645913143	pulse	0.0	t		character	word-6.jpg	1.0	196.8645058289676	
161.0	80.89979869302897	ISI	1.0		5.0	character	word-6.jpg	1.0	197.25563993068226	0.11668740912318754
162.0	81.01648610215216	word	0.0		46.0	character	word-109.jpg	0.0	197.37232733980545	0.3833009694667453
162.0	81.09171405535608	response	0.0	b		character	word-109.jpg	0.0	197.44755529300937	
162.0	81.19989610157518	pulse	0.0	t		character	word-109.jpg	0.0	197.55573733922847	
162.0	81.3997870716189	ISI	1.0		7.0	character	word-109.jpg	0.0	197.7556283092722	0.11668288130067594
163.0	81.51646995291958	word	0.0		46.0	character	word-12.jpg	0.0	197.87231119057287	0.38330791212774784
163.0	81.89977786504733	ISI	1.0		3.0	character	word-12.jpg	0.0	198.25561910270062	0.11668348501052606
163.0	81.97150400063265	pulse	1.0	t		character	word-12.jpg	0.0	198.32734523828594	
164.0	82.01646135005785	word	0.0		46.0	character	word-18.jpg	0.0	198.37230258771115	0.383283160033443
164.0	82.3997445100913	ISI	1.0		5.0	character	word-18.jpg	0.0	198.7555857477446	0.1167022000081488
165.0	82.51644671009944	word	0.0		46.0	character	word-41.jpg	0.0	198.87228794775274	0.38330942140191837
165.0	82.59986609720772	pulse	0.0	t		character	word-41.jpg	0.0	198.95570733486102	
165.0	82.89975613150136	ISI	1.0		6.0	character	word-41.jpg	0.0	199.25559736915466	0.11668257944575089
166.0	83.01643871094711	word	0.0		46.0	character	word-136.jpg	0.0	199.3722799486004	0.3833054972892569
166.0	83.29986407478054	pulse	0.0	t		character	word-136.jpg	0.0	199.65570531243384	
166.0	83.39974420823637	ISI	1.0		6.0	character	word-136.jpg	0.0	199.75558544588966	0.11666778856033488
167.0	83.5164119967967	word	0.0		46.0	character	word-96.jpg	0.0	199.87225323445	0.3833230048680889
167.0	83.8997350016648	ISI	1.0		2.0	character	word-96.jpg	0.0	200.2555762393181	0.11667865533354416
168.0	84.01641365699834	house	0.0		45.0	place	house-30.jpg	0.0	200.37225489465163	0.3833097232563887
168.0	84.00640234046159	pulse	0.0	t		place	house-30.jpg	0.0	200.36224357811489	
168.0	84.39972338025473	ISI	1.0		6.0	place	house-30.jpg	0.0	200.75556461790802	0.1166880128325829
169.0	84.51641139308731	house	0.0		46.0	place	house-2.jpg	0.0	200.8722526307406	0.3833021768859908
169.0	84.69983075000982	pulse	0.0	t		place	house-2.jpg	0.0	201.05567198766312	
169.0	84.8997135699733	ISI	1.0		6.0	place	house-2.jpg	0.0	201.2555548076266	0.1166810701720351
170.0	85.01639464014534	house	0.0		46.0	place	house-64.jpg	0.0	201.37223587779863	0.38331002511131373
170.0	85.39970466525665	ISI	1.0		6.0	place	house-64.jpg	0.0	201.75554590290994	0.11668288130067594
170.0	85.44213216954222	pulse	1.0	t		place	house-64.jpg	0.0	201.7979734071955	
171.0	85.51638754655733	house	0.0		46.0	place	house-15.jpg	0.0	201.87222878421062	0.3833362864797891
171.0	85.89972383303711	ISI	1.0		4.0	place	house-15.jpg	0.0	202.2555650706904	0.11668650355841237
172.0	86.01641033659553	house	0.0		46.0	place	house-97.jpg	0.0	202.37225157424882	0.38330610099865225
172.0	86.09983425152541	pulse	0.0	t		place	house-97.jpg	0.0	202.4556754891787	
172.0	86.39971643759418	ISI	1.0		6.0	place	house-97.jpg	0.0	202.75555767524747	0.116683183155601
173.0	86.51639962074978	house	0.0		46.0	place	house-143.jpg	0.0	202.87224085840307	0.38330398801508636
173.0	86.7998198530513	pulse	0.0	t		place	house-143.jpg	0.0	203.1556610907046	
173.0	86.89970360876487	ISI	1.0		6.0	place	house-143.jpg	0.0	203.25554484641816	0.11669163508986458
174.0	87.01639524385473	house	0.0		46.0	place	house-119.jpg	0.0	203.37223648150803	0.3832976490643887
174.0	87.39969289291912	ISI	1.0		7.0	place	house-119.jpg	0.0	203.7555341305724	0.11668167388143047
175.0	87.51637456680055	house	0.0		45.0	place	house-50.jpg	0.0	203.87221580445384	0.38330851583759795
175.0	87.5066204305599	pulse	0.0	t		place	house-50.jpg	0.0	203.8624616682132	
175.0	87.89968308263815	ISI	1.0		4.0	place	house-50.jpg	0.0	204.25552432029144	0.1166855979936372
176.0	88.01636868063179	house	0.0		46.0	place	house-111.jpg	0.0	204.37220991828508	0.3833042898700114
176.0	88.1997880375543	pulse	0.0	t		place	house-111.jpg	0.0	204.5556292752076	
176.0	88.3996729705018	ISI	1.0		7.0	place	house-111.jpg	0.0	204.7555142081551	0.11668469242977153
177.0	88.51635766293157	house	0.0		46.0	place	house-16.jpg	0.0	204.87219890058486	0.3833036861601613
177.0	88.89966134909173	ISI	1.0		7.0	place	house-16.jpg	0.0	205.25550258674502	0.11668710726826248
177.0	88.93691143972364	pulse	1.0	t		place	house-16.jpg	0.0	205.29275267737694	
178.0	89.01634845635999	house	0.0		46.0	place	house-16.jpg	1.0	205.3721896940133	0.38330338430523625
178.0	89.39965184066523	ISI	1.0		5.0	place	house-16.jpg	1.0	205.75549307831852	0.11670491670201955
179.0	89.51635675736725	house	0.0		46.0	place	house-109.jpg	0.0	205.87219799502054	0.3832517671335154
179.0	89.5415220907912	response	0.0	b		place	house-109.jpg	0.0	205.8973633284445	
179.0	89.59974324230097	pulse	0.0	t		place	house-109.jpg	0.0	205.95558447995427	
179.0	89.89960852450076	ISI	1.0		6.0	place	house-109.jpg	0.0	206.25544976215406	0.11668378686499636
180.0	90.01629231136576	body	0.0		46.0	body	body-28.jpg	0.0	206.37213354901905	0.3833070065629727
180.0	90.299714052941	pulse	0.0	t		body	body-28.jpg	0.0	206.6555552905943	
180.0	90.39959931792873	ISI	1.0		6.0	body	body-28.jpg	0.0	206.75544055558203	0.11668861654243301
181.0	90.51628793447117	body	0.0		45.0	body	body-70.jpg	0.0	206.87212917212446	0.3833000639024249
181.0	90.89958799837359	ISI	1.0		6.0	body	body-70.jpg	0.0	207.25542923602688	0.1166783534786191
182.0	91.01626635185221	body	0.0		45.0	body	body-114.jpg	0.0	207.3721075895055	0.3833133455141251
182.0	91.00633200829134	pulse	0.0	t		body	body-114.jpg	0.0	207.36217324594463	
182.0	91.39957969736633	ISI	1.0		7.0	body	body-114.jpg	0.0	207.75542093501963	0.11668197573635553
183.0	91.51626167310269	body	0.0		46.0	body	body-143.jpg	0.0	207.87210291075598	0.38330610099865225
183.0	91.6996867652665	pulse	0.0	t		body	body-143.jpg	0.0	208.0555280029198	
183.0	91.89956777410134	ISI	1.0		6.0	body	body-143.jpg	0.0	208.25540901175464	0.11668197573635553
184.0	92.0162497498377	body	0.0		46.0	body	body-102.jpg	0.0	208.372090987491	0.3833091195469933
184.0	92.39955886938469	ISI	1.0		6.0	body	body-102.jpg	0.0	208.75540010703799	0.11668257944575089
184.0	92.4417258729718	pulse	1.0	t		body	body-102.jpg	0.0	208.7975671106251	
185.0	92.51624144883044	body	0.0		46.0	body	body-82.jpg	0.0	208.87208268648374	0.38330579914418195
185.0	92.89954724797462	ISI	1.0		7.0	body	body-82.jpg	0.0	209.25538848562792	0.11669374807388522
186.0	93.01624099604851	body	0.0		46.0	body	body-109.jpg	0.0	209.3720822337018	0.3832958379352931
186.0	93.0996567608986	pulse	0.0	t		body	body-109.jpg	0.0	209.4554979985519	
186.0	93.3995368339838	ISI	1.0		0.0	body	body-109.jpg	0.0	209.7553780716371	0.11668710726826248
187.0	93.51622394125206	body	0.0		46.0	body	body-53.jpg	0.0	209.87206517890536	0.3833045917244817
187.0	93.79964175871464	pulse	0.0	t		body	body-53.jpg	0.0	210.15548299636794	
187.0	93.89952853297655	ISI	1.0		4.0	body	body-53.jpg	0.0	210.25536977062984	0.11668680541333742
188.0	94.01621533838988	body	0.0		46.0	body	body-98.jpg	0.0	210.37205657604318	0.38330096946720005
188.0	94.39951630785708	ISI	1.0		7.0	body	body-98.jpg	0.0	210.75535754551038	0.11669344621896016
189.0	94.51620975407604	body	0.0		45.0	body	body-95.jpg	0.0	210.87205099172934	0.38329613979021815
189.0	94.50640098211488	pulse	0.0	t		body	body-95.jpg	0.0	210.86224221976818	
189.0	94.89950589386626	ISI	1.0		6.0	body	body-95.jpg	0.0	211.25534713151956	0.11668469242931678
190.0	95.01619058629558	body	0.0		46.0	body	body-135.jpg	0.0	211.37203182394887	0.38330398801508636
190.0	95.19961416918522	pulse	0.0	t		body	body-135.jpg	0.0	211.55545540683852	
190.0	95.39949457431067	ISI	1.0		6.0	body	body-135.jpg	0.0	211.75533581196396	0.11668167388143047
191.0	95.5161762481921	body	0.0		46.0	body	body-32.jpg	0.0	211.8720174858454	0.3833402105924506
191.0	95.89951645878455	ISI	1.0		5.0	body	body-32.jpg	0.0	212.25535769643784	0.11668589984856226
191.0	95.95432544355299	pulse	1.0	t		body	body-32.jpg	0.0	212.31016668120628	
192.0	96.01620235863311	body	0.0		46.0	body	body-107.jpg	0.0	212.3720435962864	0.3832916119681613
192.0	96.39949397060127	ISI	1.0		7.0	body	body-107.jpg	0.0	212.75533520825456	0.11669948331518754
193.0	96.51619345391646	body	0.0		46.0	body	body-80.jpg	0.0	212.87203469156975	0.38327048213159287
193.0	96.59958446667224	pulse	0.0	t		body	body-80.jpg	0.0	212.95542570432553	
193.0	96.89946393604805	ISI	1.0		7.0	body	body-80.jpg	0.0	213.25530517370134	0.11668318315514625
194.0	97.0161471192032	body	0.0		46.0	body	body-58.jpg	0.0	213.3719883568565	0.38330579914418195
194.0	97.29956614408547	pulse	0.0	t		body	body-58.jpg	0.0	213.65540738173877	
194.0	97.39945291834738	ISI	1.0		7.0	body	body-58.jpg	0.0	213.75529415600067	0.11668620170348731
195.0	97.51613912005087	body	0.0		46.0	body	body-106.jpg	0.0	213.87198035770416	0.383303384305691
195.0	97.89944250435656	ISI	1.0		7.0	body	body-106.jpg	0.0	214.25528374200985	0.11667956089786458
196.0	98.01612206525442	body	0.0		45.0	body	body-51.jpg	0.0	214.37196330290772	0.3833112325305592
196.0	98.00657107729876	pulse	0.0	t		body	body-51.jpg	0.0	214.36241231495205	
196.0	98.39943329778498	ISI	1.0		7.0	body	body-51.jpg	0.0	214.75527453543828	0.11668227759128058
197.0	98.51611557537626	body	0.0		46.0	body	body-134.jpg	0.0	214.87195681302956	0.3832910082583112
197.0	98.69954338423304	pulse	0.0	t		body	body-134.jpg	0.0	215.05538462188633	
197.0	98.89940658363457	ISI	1.0		5.0	body	body-134.jpg	0.0	215.25524782128787	0.11671336863628312
198.0	99.01611995227086	body	0.0		46.0	body	body-20.jpg	0.0	215.37196118992415	0.38327168955083835
198.0	99.3993916418217	ISI	1.0		7.0	body	body-20.jpg	0.0	215.755232879475	0.11670370928231932
198.0	99.43846433177941	pulse	1.0	t		body	body-20.jpg	0.0	215.7943055694327	
199.0	99.51609535110401	body	0.0		46.0	body	body-131.jpg	0.0	215.8719365887573	0.38330670470850237
199.0	99.89940205581252	ISI	1.0		7.0	body	body-131.jpg	0.0	216.2552432934658	0.11668740912273279
200.0	100.01608946493525	body	0.0		46.0	body	body-21.jpg	0.0	216.37193070258854	0.38330308245076594
200.0	100.09951156873649	pulse	0.0	t		body	body-21.jpg	0.0	216.45535280638978	
200.0	100.39939254738601	ISI	1.0		6.0	body	body-21.jpg	0.0	216.7552337850393	0.11666778856033488
201.0	100.51606033594635	body	0.0		46.0	body	body-100.jpg	0.0	216.87190157359964	0.38332149559391837
201.0	100.79949898139103	pulse	0.0	t		body	body-100.jpg	0.0	217.15534021904432	
201.0	100.89938183154027	ISI	1.0		6.0	body	body-100.jpg	0.0	217.25522306919356	0.11668197573635553
202.0	101.01606380727662	body	0.0		46.0	body	body-75.jpg	0.0	217.37190504492992	0.3833076102728228
202.0	101.39937141754945	ISI	1.0		4.0	body	body-75.jpg	0.0	217.75521265520274	0.11667684420444857
203.0	101.5160482617539	body	0.0		45.0	body	body-64.jpg	0.0	217.8718894994072	0.38331153438548426
203.0	101.50615889455958	pulse	0.0	t		body	body-64.jpg	0.0	217.86200013221287	
203.0	101.89935979613938	ISI	1.0		6.0	body	body-64.jpg	0.0	218.25520103379267	0.11668469242977153
204.0	102.01604448856915	house	0.0		46.0	place	house-48.jpg	0.0	218.37188572622244	0.38330519543433184
204.0	102.19946837331372	pulse	0.0	t		place	house-48.jpg	0.0	218.55530961096702	
204.0	102.39934968400348	ISI	1.0		4.0	place	house-48.jpg	0.0	218.75519092165678	0.11669404992835553
205.0	102.51604373393184	house	0.0		46.0	place	house-108.jpg	0.0	218.87188497158513	0.3833272308352207
205.0	102.89937096476706	ISI	1.0		7.0	place	house-108.jpg	0.0	219.25521220242035	0.11668408871992142
205.0	102.93782817277315	pulse	1.0	t		place	house-108.jpg	0.0	219.29366941042645	
206.0	103.01605505348698	house	0.0		46.0	place	house-110.jpg	0.0	219.37189629114027	0.3832741043893293
206.0	103.39932915787631	ISI	1.0		6.0	place	house-110.jpg	0.0	219.7551703955296	0.116685899849017
207.0	103.51601505772533	house	0.0		46.0	place	house-77.jpg	0.0	219.87185629537862	0.3833042898700114
207.0	103.59952711425922	pulse	0.0	t		place	house-77.jpg	0.0	219.9553683519125	
207.0	103.89931934759534	ISI	1.0		7.0	place	house-77.jpg	0.0	220.25516058524863	0.11668227759082583
208.0	104.01600162518616	house	0.0		46.0	place	house-80.jpg	0.0	220.37184286283946	0.38330670470850237
208.0	104.29942125377829	pulse	0.0	t		place	house-80.jpg	0.0	220.65526249143159	
208.0	104.39930832989467	ISI	1.0		7.0	place	house-80.jpg	0.0	220.75514956754796	0.11668257944620564
209.0	104.51599090934087	house	0.0		46.0	place	house-120.jpg	0.0	220.87183214699417	0.3833067047080476
209.0	104.89929761404892	ISI	1.0		6.0	place	house-120.jpg	0.0	221.2551388517022	0.11667805162414879
210.0	105.01597566567307	house	0.0		45.0	place	house-17.jpg	0.0	221.37181690332636	0.3833115343850295
210.0	105.00606456493233	pulse	0.0	t		place	house-17.jpg	0.0	221.36190580258562	
210.0	105.3992872000581	ISI	1.0		2.0	place	house-17.jpg	0.0	221.7551284377114	0.11668076831711005
211.0	105.51596796837521	house	0.0		46.0	place	house-137.jpg	0.0	221.8718092060285	0.38330881769206826
211.0	105.69939426795827	pulse	0.0	t		place	house-137.jpg	0.0	222.05523550561156	
211.0	105.89927678606728	ISI	1.0		7.0	place	house-137.jpg	0.0	222.25511802372057	0.11666869412511005
212.0	106.01594548019239	house	0.0		46.0	place	house-53.jpg	0.0	222.37178671784568	0.3833211937389933
212.0	106.39926667393138	ISI	1.0		6.0	place	house-53.jpg	0.0	222.75510791158467	0.11668227759128058
212.0	106.44745869947064	pulse	1.0	t		place	house-53.jpg	0.0	222.80329993712394	
213.0	106.51594895152266	house	0.0		46.0	place	house-28.jpg	0.0	222.87179018917595	0.3833076102728228
213.0	106.89925656179548	ISI	1.0		6.0	place	house-28.jpg	0.0	223.25509779944878	0.11668439057439173
214.0	107.01594095236987	house	0.0		46.0	place	house-10.jpg	0.0	223.37178219002317	0.3833042898700114
214.0	107.09941769189163	pulse	0.0	t		place	house-10.jpg	0.0	223.45525892954493	
214.0	107.39924524223989	ISI	1.0		6.0	place	house-10.jpg	0.0	223.75508647989318	0.11668167388143047
215.0	107.51592691612132	house	0.0		46.0	place	house-58.jpg	0.0	223.8717681537746	0.38330881769206826
215.0	107.79934986511626	pulse	0.0	t		place	house-58.jpg	0.0	224.15519110276955	
215.0	107.89923573381338	ISI	1.0		11.0	place	house-58.jpg	0.0	224.25507697146668	0.09998638634851886
216.0	107.9992221201619	baseline	0.0		48.0		baseline	0.0	224.3550633578152	0.4000056144991504
216.0	108.39922773466105	ISI	1.0		11.0		baseline	0.0	224.75506897231435	0.09999544199263255
217.0	108.49922317665369	baseline	0.0		47.0		baseline	0.0	224.85506441430698	0.3999935403071504
217.0	108.50359554353645	pulse	0.0	t			baseline	0.0	224.85943678118974	
217.0	108.89921671696084	ISI	1.0		11.0		baseline	0.0	225.25505795461413	0.0999951401377075
218.0	108.99921185709854	baseline	0.0		48.0		baseline	0.0	225.35505309475184	0.40006266505770327
218.0	109.19938807993503	pulse	0.0	t			baseline	0.0	225.55522931758833	
218.0	109.39927452215625	ISI	1.0		11.0		baseline	0.0	225.75511575980954	0.1000051013461416
219.0	109.49927962350239	baseline	0.0		48.0		baseline	0.0	225.85512086115568	0.39998539022735713
219.0	109.89926501372975	ISI	1.0		11.0		baseline	0.0	226.25510625138304	0.09999846054051886
219.0	109.90432470400856	pulse	1.0	t			baseline	0.0	226.26016594166185	
220.0	109.99926347427026	baseline	0.0		48.0		baseline	0.0	226.35510471192356	0.399989918049414
220.0	110.39925339231968	ISI	1.0		11.0		baseline	0.0	226.75509462997297	0.09999936610483928
221.0	110.49925275842452	baseline	0.0		48.0		baseline	0.0	226.8550939960778	0.3999893143400186
221.0	110.5993767905652	pulse	0.0	t			baseline	0.0	226.9552180282185	
221.0	110.89924207276454	ISI	1.0		11.0		baseline	0.0	227.25508331041783	0.09999634755695297
222.0	110.99923842032149	baseline	0.0		48.0		baseline	0.0	227.35507965797478	0.3999938421616207
222.0	111.29934518636674	pulse	0.0	t			baseline	0.0	227.65518642402003	
222.0	111.39923226248311	ISI	1.0		11.0		baseline	0.0	227.7550735001364	0.09999846054051886
223.0	111.49923072302363	baseline	0.0		48.0		baseline	0.0	227.85507196067692	0.3999941440170005
223.0	111.89922486704063	ISI	1.0		11.0		baseline	0.0	228.25506610469392	0.09999634755695297
224.0	111.99922121459758	baseline	0.0		47.0		baseline	0.0	228.35506245225088	0.3999908236137344
224.0	112.00344144665723	pulse	0.0	t			baseline	0.0	228.35928268431053	
224.0	112.39921203821132	ISI	1.0		11.0		baseline	0.0	228.7550532758646	0.09999846054051886
225.0	112.49921049875184	baseline	0.0		48.0		baseline	0.0	228.85505173640513	0.399989918049414
225.0	112.69931578570868	pulse	0.0	t			baseline	0.0	229.05515702336197	
225.0	112.89920041680125	ISI	1.0		11.0		baseline	0.0	229.25504165445454	0.09997883997812096
226.0	112.99917925677937	baseline	0.0		48.0		baseline	0.0	229.35502049443267	0.40001014232120724
226.0	113.39918939910058	ISI	1.0		11.0		baseline	0.0	229.75503063675387	0.09999936610483928
226.0	113.40396896811853	pulse	1.0	t			baseline	0.0	229.75981020577183	
227.0	113.49918876520542	baseline	0.0		48.0		baseline	0.0	229.8550300028587	0.39999172917850956
227.0	113.89918049438393	ISI	1.0		6.0		baseline	0.0	230.25502173203722	0.11664997912657782
228.0	114.0158304735105	car	0.0		46.0	object	car-110.jpg	0.0	230.3716717111638	0.3833003657578047
228.0	114.09927068860043	pulse	0.0	t		object	car-110.jpg	0.0	230.45511192625372	
228.0	114.39913083926831	ISI	1.0		7.0	object	car-110.jpg	0.0	230.7549720769216	0.11668740912273279
229.0	114.51581824839104	car	0.0		47.0	object	car-38.jpg	0.0	230.87165948604434	0.391636689968891
229.0	114.79923727327332	pulse	0.0	t		object	car-38.jpg	0.0	231.15507851092661	
229.0	114.90745493835993	ISI	1.0		5.0	object	car-38.jpg	0.0	231.26329617601323	0.10835138676611678
230.0	115.01580632512605	car	0.0		47.0	object	car-126.jpg	0.0	231.37164756277934	0.3916375955332114
230.0	115.40744392065926	ISI	1.0		5.0	object	car-126.jpg	0.0	231.76328515831256	0.10835259418536225
231.0	115.51579651484462	car	0.0		46.0	object	car-87.jpg	0.0	231.87163775249792	0.39163608625949564
231.0	115.5061344443202	pulse	0.0	t		object	car-87.jpg	0.0	231.8619756819735	
231.0	115.90743260110412	ISI	1.0		3.0	object	car-87.jpg	0.0	232.2632738387574	0.10835108491119172
232.0	116.01578368601531	car	0.0		47.0	object	car-122.jpg	0.0	232.3716249236686	0.3916372936787411
232.0	116.19920998559837	pulse	0.0	t		object	car-122.jpg	0.0	232.55505122325167	
232.0	116.40742097969405	ISI	1.0		6.0	object	car-122.jpg	0.0	232.76326221734735	0.10835561273370331
233.0	116.51577659242776	car	0.0		47.0	object	car-122.jpg	1.0	232.87161783008105	0.39163940666185226
233.0	116.89919468155995	pulse	0.0	t		object	car-122.jpg	1.0	233.25503591921324	
233.0	116.90741599908961	ISI	1.0		5.0	object	car-122.jpg	1.0	233.2632572367429	0.11668167388143047
233.0	116.95829181572026	response	1.0	b		object	car-122.jpg	1.0	233.31413305337355	
234.0	117.02409767297104	car	0.0		46.0	object	car-109.jpg	0.0	233.37993891062433	0.38330459172493647
234.0	117.40740226469597	ISI	1.0		7.0	object	car-109.jpg	0.0	233.76324350234927	0.11668589984856226
235.0	117.52408816454454	car	0.0		46.0	object	car-34.jpg	0.0	233.87992940219783	0.38330278059629563
235.0	117.59918330163373	pulse	0.0	t		object	car-34.jpg	0.0	233.95502453928702	
235.0	117.90739094514083	ISI	1.0		6.0	object	car-34.jpg	0.0	234.26323218279413	0.11669767218609195
236.0	118.02408861732692	car	0.0		46.0	object	car-69.jpg	0.0	234.37992985498022	0.38329040454891583
236.0	118.2991634697728	pulse	0.0	t		object	car-69.jpg	0.0	234.6550047074261	
236.0	118.40737902187584	ISI	1.0		5.0	object	car-69.jpg	0.0	234.76322025952913	0.11668348501007131
237.0	118.52406250688591	car	0.0		46.0	object	car-100.jpg	0.0	234.8799037445392	0.3833076102728228
237.0	118.90737011715873	ISI	1.0		7.0	object	car-100.jpg	0.0	235.26321135481203	0.12502162035070796
237.0	118.99925049451349	pulse	1.0	t		object	car-100.jpg	0.0	235.35509173216678	
238.0	119.03239173750944	car	0.0		45.0	object	car-91.jpg	0.0	235.38823297516274	0.37496796565847035
238.0	119.40735970316791	ISI	1.0		6.0	object	car-91.jpg	0.0	235.7632009408212	0.1166852961391669
239.0	119.52404499930708	car	0.0		46.0	object	car-120.jpg	0.0	235.87988623696037	0.38330579914418195
239.0	119.69913346540488	pulse	0.0	t		object	car-120.jpg	0.0	236.05497470305818	
239.0	119.90735079845126	ISI	1.0		6.0	object	car-120.jpg	0.0	236.26319203610456	0.11668408871992142
240.0	120.02403488717118	word	0.0		46.0	character	word-123.jpg	0.0	236.37987612482448	0.38330610099865225
240.0	120.39911906693078	pulse	0.0	t		character	word-123.jpg	0.0	236.75496030458407	
240.0	120.40734098816984	ISI	1.0		6.0	character	word-123.jpg	0.0	236.76318222582313	0.11668408872037617
241.0	120.52402507689021	word	0.0		46.0	character	word-126.jpg	0.0	236.8798663145435	0.3832931212418771
241.0	120.90731819813209	ISI	1.0		0.0	character	word-126.jpg	0.0	237.26315943578538	0.15836269122883095
242.0	121.06568088936092	word	0.0		41.0	character	word-77.jpg	0.0	237.4215221270142	0.3416250836517065
242.0	121.09911553522943	pulse	0.0	t		character	word-77.jpg	0.0	237.45495677288272	
242.0	121.40730597301263	ISI	1.0		7.0	character	word-77.jpg	0.0	237.76314721066592	0.11670370928231932
243.0	121.52400968229495	word	0.0		46.0	character	word-77.jpg	1.0	237.87985091994824	0.3832713876959133
243.0	121.79905978264651	pulse	0.0	t		character	word-77.jpg	1.0	238.1549010202998	
243.0	121.90728106999086	ISI	1.0		5.0	character	word-77.jpg	1.0	238.26312230764415	0.11667624049505321
244.0	122.02395731048591	word	0.0		46.0	character	word-14.jpg	0.0	238.3797985481392	0.38331032696578404
244.0	122.14071776847186	response	0.0	b		character	word-14.jpg	0.0	238.49655900612515	
244.0	122.4072676374517	ISI	1.0		6.0	character	word-14.jpg	0.0	238.763108875105	0.12500622575544185
244.0	122.49907617336248	pulse	1.0	t		character	word-14.jpg	0.0	238.85491741101578	
245.0	122.53227386320714	word	0.0		45.0	character	word-114.jpg	0.0	238.88811510086043	0.37499634001051163
245.0	122.90727020321765	ISI	1.0		7.0	character	word-114.jpg	0.0	239.26311144087094	0.11667171267299636
246.0	123.02394191589065	word	0.0		46.0	character	word-118.jpg	0.0	239.37978315354394	0.3833042898700114
246.0	123.19902706158518	pulse	0.0	t		character	word-118.jpg	0.0	239.55486829923848	
246.0	123.40724620576066	ISI	1.0		5.0	character	word-118.jpg	0.0	239.76308744341395	0.11668378686499636
247.0	123.52392999262565	word	0.0		46.0	character	word-19.jpg	0.0	239.87977123027895	0.38330670470850237
247.0	123.89901387053033	pulse	0.0	t		character	word-19.jpg	0.0	240.25485510818362	
247.0	123.90723669733416	ISI	1.0		6.0	character	word-19.jpg	0.0	240.26307793498745	0.11668137202650541
248.0	124.02391806936066	word	0.0		46.0	character	word-53.jpg	0.0	240.37975930701396	0.38330670470850237
248.0	124.40722477406916	ISI	1.0		6.0	character	word-53.jpg	0.0	240.76306601172246	0.11668137202696016
249.0	124.52390614609612	word	0.0		46.0	character	word-90.jpg	0.0	240.87974738374942	0.38331093067563415
249.0	124.59901547036088	pulse	0.0	t		character	word-90.jpg	0.0	240.95485670801418	
249.0	124.90721707677176	ISI	1.0		7.0	character	word-90.jpg	0.0	241.26305831442505	0.11668499428424184
250.0	125.023902071056	word	0.0		46.0	character	word-86.jpg	0.0	241.3797433087093	0.383300667612275
250.0	125.29898446987227	pulse	0.0	t		character	word-86.jpg	0.0	241.65482570752556	
250.0	125.40720273866827	ISI	1.0		7.0	character	word-86.jpg	0.0	241.76304397632157	0.11668348501052606
251.0	125.5238862236788	word	0.0		46.0	character	word-33.jpg	0.0	241.8797274613321	0.38330791212774784
251.0	125.90719413580655	ISI	1.0		11.0	character	word-33.jpg	0.0	242.26303537345984	0.09999785683066875
251.0	125.99897067510756	pulse	1.0	t		character	word-33.jpg	0.0	242.35481191276085	
252.0	126.00719199263722	baseline	0.0		48.0		baseline	0.0	242.3630332302905	0.3999923328879049
252.0	126.40718432552512	ISI	1.0		11.0		baseline	0.0	242.76302556317842	0.09999755497619844
253.0	126.50718188050132	baseline	0.0		48.0		baseline	0.0	242.86302311815462	0.39999203103297987
253.0	126.6989556729236	pulse	0.0	t			baseline	0.0	243.0547969105769	
253.0	126.9071739115343	ISI	1.0		11.0		baseline	0.0	243.2630151491876	0.0999951401377075
254.0	127.00716905167201	baseline	0.0		48.0		baseline	0.0	243.3630102893253	0.3999950495808662
254.0	127.3989400670298	pulse	0.0	t			baseline	0.0	243.7547813046831	
254.0	127.40716410125287	ISI	1.0		11.0		baseline	0.0	243.76300533890617	0.10000027166961445
255.0	127.50716437292249	baseline	0.0		48.0		baseline	0.0	243.86300561057578	0.4000581372356464
255.0	127.90722251015814	ISI	1.0		11.0		baseline	0.0	244.26306374781143	0.09999695126634833
256.0	128.00721946142448	baseline	0.0		48.0		baseline	0.0	244.36306069907778	0.3999932384526801
256.0	128.0989978118546	pulse	0.0	t			baseline	0.0	244.45483904950788	
256.0	128.40721269987716	ISI	1.0		11.0		baseline	0.0	244.76305393753046	0.09999966795930959
257.0	128.50721236783647	baseline	0.0		48.0		baseline	0.0	244.86305360548977	0.3999872013564527
257.0	128.79898039483214	pulse	0.0	t			baseline	0.0	245.15482163248544	
257.0	128.90719956919293	ISI	1.0		11.0		baseline	0.0	245.26304080684622	0.09999996981423465
258.0	129.00719953900716	baseline	0.0		48.0		baseline	0.0	245.36304077666045	0.3999914273235845
258.0	129.40719096633075	ISI	1.0		11.0		baseline	0.0	245.76303220398404	0.09999876239544392
258.0	129.49896961861532	pulse	1.0	t			baseline	0.0	245.8548108562686	
259.0	129.5071897287262	baseline	0.0		48.0		baseline	0.0	245.86303096637948	0.39999021990433903
259.0	129.90717994863053	ISI	1.0		11.0		baseline	0.0	246.26302118628382	0.09999815868559381
260.0	130.00717810731612	baseline	0.0		48.0		baseline	0.0	246.36301934496942	0.3999917291780548
260.0	130.19895612570554	pulse	0.0	t			baseline	0.0	246.55479736335883	
260.0	130.40716983649418	ISI	1.0		11.0		baseline	0.0	246.76301107414747	0.09999664941187802
261.0	130.50716648590605	baseline	0.0		48.0		baseline	0.0	246.86300772355935	0.3999935403071504
261.0	130.89893961424787	pulse	0.0	t			baseline	0.0	247.25478085190116	
261.0	130.9071600262132	ISI	1.0		11.0		baseline	0.0	247.2630012638665	0.09999302715368685
262.0	131.0071530533669	baseline	0.0		48.0		baseline	0.0	247.3629942910202	0.39999565329117104
262.0	131.40714870665806	ISI	1.0		11.0		baseline	0.0	247.76298994431136	0.09999815868559381
263.0	131.50714686534366	baseline	0.0		48.0		baseline	0.0	247.86298810299695	0.3999917291780548
263.0	131.59892340464467	pulse	0.0	t			baseline	0.0	247.95476464229796	
263.0	131.9071385945217	ISI	1.0		11.0		baseline	0.0	248.262979832175	0.0999854807837437
264.0	132.00712407530546	baseline	0.0		48.0		baseline	0.0	248.36296531295875	0.4000068219188506
264.0	132.29890991173488	pulse	0.0	t			baseline	0.0	248.65475114938818	
264.0	132.4071308972243	ISI	1.0		11.0		baseline	0.0	248.7629721348776	0.0999954419921778
265.0	132.50712633921648	baseline	0.0		48.0		baseline	0.0	248.86296757686978	0.39999293659775503
265.0	132.90711927581424	ISI	1.0		11.0		baseline	0.0	249.26296051346753	0.0999492582068342
265.0	132.99890366334012	pulse	1.0	t			baseline	0.0	249.3547449009934	
266.0	133.00706853402107	baseline	0.0		48.0		baseline	0.0	249.36290977167437	0.4000376111089281
266.0	133.40710614513	ISI	1.0		11.0		baseline	0.0	249.7629473827833	0.09999906424991423
267.0	133.50710520937992	baseline	0.0		48.0		baseline	0.0	249.8629464470332	0.3999920310334346
267.0	133.69889681123595	pulse	0.0	t			baseline	0.0	250.05473804888925	
267.0	133.90709724041335	ISI	1.0		11.0		baseline	0.0	250.26293847806664	0.09999574384710286
268.0	134.00709298426045	baseline	0.0		48.0		baseline	0.0	250.36293422191375	0.39999384216207545
268.0	134.39886581074734	pulse	0.0	t			baseline	0.0	250.75470704840063	
268.0	134.40708682642253	ISI	1.0		11.0		baseline	0.0	250.76292806407582	0.10001053473251886
269.0	134.50709736115505	baseline	0.0		48.0		baseline	0.0	250.86293859880834	0.3999775420024889
269.0	134.90707490315754	ISI	1.0		11.0		baseline	0.0	251.26291614081083	0.09999906424991423
270.0	135.00707396740745	baseline	0.0		48.0		baseline	0.0	251.36291520506074	0.3999923328879049
270.0	135.09885201598263	pulse	0.0	t			baseline	0.0	251.45469325363592	
270.0	135.40706630029536	ISI	1.0		11.0		baseline	0.0	251.76290753794865	0.09999725312127339
271.0	135.50706355341663	baseline	0.0		48.0		baseline	0.0	251.86290479106992	0.399989918049414
271.0	135.79883580637943	pulse	0.0	t			baseline	0.0	252.15467704403272	
271.0	135.90705347146604	ISI	1.0		11.0		baseline	0.0	252.26289470911934	0.09999966795976434
272.0	136.0070531394258	baseline	0.0		48.0		baseline	0.0	252.3628943770791	0.39999172917850956
272.0	136.40704486860432	ISI	1.0		11.0		baseline	0.0	252.7628861062576	0.09999906424991423
272.0	136.49882804871095	pulse	1.0	t			baseline	0.0	252.85466928636424	
273.0	136.50704393285423	baseline	0.0		48.0		baseline	0.0	252.86288517050752	0.3999905217592641
273.0	136.9070344546135	ISI	1.0		11.0		baseline	0.0	253.2628756922668	0.09999514013725275
274.0	137.00702959475075	baseline	0.0		48.0		baseline	0.0	253.36287083240404	0.39999655885549146
274.0	137.19880912241433	pulse	0.0	t			baseline	0.0	253.55465036006763	
274.0	137.40702615360624	ISI	1.0		11.0		baseline	0.0	253.76286739125953	0.0999954419921778
275.0	137.50702159559842	baseline	0.0		48.0		baseline	0.0	253.8628628332517	0.39999263474283
275.0	137.89879351652098	pulse	0.0	t			baseline	0.0	254.25463475417428	
275.0	137.90701423034125	ISI	1.0		5.0		baseline	0.0	254.26285546799454	0.1249820773709871
276.0	138.03199630771223	house	0.0		45.0	place	house-132.jpg	0.0	254.38783754536553	0.3749706823514316
276.0	138.40696699006367	ISI	1.0		7.0	place	house-132.jpg	0.0	254.76280822771696	0.11668016460771469
277.0	138.52364715467138	house	0.0		46.0	place	house-136.jpg	0.0	254.87948839232467	0.38327953777570656
277.0	138.59871150257004	pulse	0.0	t		place	house-136.jpg	0.0	254.95455274022333	
277.0	138.9069266924471	ISI	1.0		6.0	place	house-136.jpg	0.0	255.26276793010038	0.116680466462185
278.0	139.02360715890927	house	0.0		46.0	place	house-33.jpg	0.0	255.37944839656257	0.3832985546287091
278.0	139.29869197256403	pulse	0.0	t		place	house-33.jpg	0.0	255.65453321021732	
278.0	139.40690571353798	ISI	1.0		5.0	place	house-33.jpg	0.0	255.76274695119128	0.11669103138046921
279.0	139.52359674491845	house	0.0		46.0	place	house-141.jpg	0.0	255.87943798257174	0.38330579914418195
279.0	139.90690254406263	ISI	1.0		5.0	place	house-141.jpg	0.0	256.2627437817159	0.12501799809297154
279.0	139.99866882030028	pulse	1.0	t		place	house-141.jpg	0.0	256.3545100579536	
280.0	140.0319205421556	house	0.0		45.0	place	house-24.jpg	0.0	256.3877617798089	0.37497007864203624
280.0	140.40689062079764	ISI	1.0		6.0	place	house-24.jpg	0.0	256.76273185845093	0.11668861654197826
281.0	140.52357923733962	house	0.0		46.0	place	house-107.jpg	0.0	256.8794204749929	0.3833015731765954
281.0	140.69866528859893	pulse	0.0	t		place	house-107.jpg	0.0	257.0545065262522	
281.0	140.9068808105162	ISI	1.0		8.0	place	house-107.jpg	0.0	257.2627220481695	0.116685899849017
282.0	141.02356671036523	house	0.0		46.0	place	house-107.jpg	1.0	257.3794079480185	0.38330519543433184
282.0	141.39864968270558	pulse	0.0	t		place	house-107.jpg	1.0	257.7544909203589	
282.0	141.40687190579956	ISI	1.0		5.0	place	house-107.jpg	1.0	257.76271314345286	0.11668227759128058
283.0	141.52355418339084	house	0.0		46.0	place	house-96.jpg	0.0	257.87939542104414	0.3833048935794068
283.0	141.55697886805046	response	0.0	b		place	house-96.jpg	0.0	257.91282010570376	
283.0	141.90685907697025	ISI	1.0		7.0	place	house-96.jpg	0.0	258.26270031462354	0.11668167388143047
284.0	142.02354075085168	house	0.0		46.0	place	house-46.jpg	0.0	258.379381988505	0.38330791212774784
284.0	142.0986383027789	pulse	0.0	t		place	house-46.jpg	0.0	258.4544795404322	
284.0	142.40684866297943	ISI	1.0		7.0	place	house-46.jpg	0.0	258.7626899006327	0.11668439057484647
285.0	142.52353305355427	house	0.0		46.0	place	house-39.jpg	0.0	258.87937429120757	0.3833054972892569
285.0	142.79862239503063	pulse	0.0	t		place	house-39.jpg	0.0	259.1544636326839	
285.0	142.90683855084353	ISI	1.0		6.0	place	house-39.jpg	0.0	259.2626797884968	0.11667684420444857
286.0	143.02351539504798	house	0.0		46.0	place	house-45.jpg	0.0	259.3793566327013	0.38331274180472974
286.0	143.4068281368527	ISI	1.0		5.0	place	house-45.jpg	0.0	259.762669374506	0.1166852961391669
286.0	143.49860558171804	pulse	1.0	t		place	house-45.jpg	0.0	259.85444681937133	
287.0	143.52351343299188	house	0.0		46.0	place	house-67.jpg	0.0	259.87935467064517	0.3833054972892569
287.0	143.90681893028113	ISI	1.0		6.0	place	house-67.jpg	0.0	260.2626601679344	0.11668680541288268
288.0	144.02350573569402	adult	0.0		46.0	face	adult-115.jpg	0.0	260.3793469733473	0.38330398801508636
288.0	144.19859420179182	pulse	0.0	t		face	adult-115.jpg	0.0	260.5544354394451	
288.0	144.4068097237091	ISI	1.0		5.0	face	adult-115.jpg	0.0	260.7626509613624	0.10833991628396689
289.0	144.51514963999307	adult	0.0		47.0	face	adult-142.jpg	0.0	260.87099087764636	0.391681062625139
289.0	144.89860727210498	pulse	0.0	t		face	adult-142.jpg	0.0	261.2544485097583	
289.0	144.9068307026182	ISI	1.0		6.0	face	adult-142.jpg	0.0	261.2626719402715	0.11668348501052606
290.0	145.02351418762873	adult	0.0		46.0	face	adult-124.jpg	0.0	261.37935542528203	0.3833042898700114
290.0	145.40681847749875	ISI	1.0		6.0	face	adult-124.jpg	0.0	261.76265971515204	0.11668227759128058
291.0	145.52350075509003	adult	0.0		46.0	face	adult-66.jpg	0.0	261.8793419927433	0.3833067047080476
291.0	145.5985961940337	pulse	0.0	t		face	adult-66.jpg	0.0	261.954437431687	
291.0	145.90680745979807	ISI	1.0		6.0	face	adult-66.jpg	0.0	262.26264869745137	0.11668680541333742
292.0	146.0234942652114	adult	0.0		46.0	face	adult-144.jpg	0.0	262.3793355028647	0.3833048935798615
292.0	146.29857847515632	pulse	0.0	t		face	adult-144.jpg	0.0	262.6544197128096	
292.0	146.40679915879127	ISI	1.0		6.0	face	adult-144.jpg	0.0	262.76264039644457	0.11669586105745111
293.0	146.52349501984872	adult	0.0		46.0	face	adult-119.jpg	0.0	262.879336257502	0.3832919138226316
293.0	146.90678693367136	ISI	1.0		5.0	face	adult-119.jpg	0.0	263.26262817132465	0.12501890365729196
293.0	146.99860301595209	pulse	1.0	t		face	adult-119.jpg	0.0	263.3544442536054	
294.0	147.03180583732865	adult	0.0		45.0	face	adult-62.jpg	0.0	263.38764707498194	0.3749721916260569
294.0	147.4067780289547	ISI	1.0		7.0	face	adult-62.jpg	0.0	263.762619266608	0.11668710726780773
295.0	147.5234651362225	adult	0.0		46.0	face	adult-62.jpg	1.0	263.8793063738758	0.383300667612275
295.0	147.69855058377198	pulse	0.0	t		face	adult-62.jpg	1.0	264.05439182142527	
295.0	147.9067658038348	ISI	1.0		5.0	face	adult-62.jpg	1.0	264.2626070414881	0.11668408871992142
295.0	147.96145797079316	response	1.0	b		face	adult-62.jpg	1.0	264.31729920844646	
296.0	148.0234498925547	adult	0.0		46.0	face	adult-49.jpg	0.0	264.379291130208	0.3832756136634998
296.0	148.39849392562473	pulse	0.0	t		face	adult-49.jpg	0.0	264.75433516327803	
296.0	148.4067255062182	ISI	1.0		6.0	face	adult-49.jpg	0.0	264.7625667438715	0.116683183155601
297.0	148.5234086893738	adult	0.0		46.0	face	adult-27.jpg	0.0	264.8792499270271	0.38330398801508636
297.0	148.9067126773889	ISI	1.0		5.0	face	adult-27.jpg	0.0	265.2625539150422	0.11666627928616435
298.0	149.02337895667506	adult	0.0		46.0	face	adult-132.jpg	0.0	265.37922019432835	0.3833242122873344
298.0	149.09849039392338	pulse	0.0	t		face	adult-132.jpg	0.0	265.4543316315767	
298.0	149.4067031689624	ISI	1.0		5.0	face	adult-132.jpg	0.0	265.7625444066157	0.11668197573635553
299.0	149.52338514469875	adult	0.0		46.0	face	adult-46.jpg	0.0	265.87922638235204	0.3833070065629727
299.0	149.7984744861751	pulse	0.0	t		face	adult-46.jpg	0.0	266.1543157238284	
299.0	149.90669215126172	ISI	1.0		7.0	face	adult-46.jpg	0.0	266.262533388915	0.11669223879971469
300.0	150.02338439006144	car	0.0		46.0	object	car-42.jpg	0.0	266.37922562771473	0.3832970453549933
300.0	150.40668143541643	ISI	1.0		7.0	object	car-42.jpg	0.0	266.7625226730697	0.12502041293100774
300.0	150.49844016528368	pulse	1.0	t		object	car-42.jpg	0.0	266.854281402937	
301.0	150.53170184834744	car	0.0		45.0	object	car-11.jpg	0.0	266.88754308600073	0.3749694749326409
301.0	150.90667132328008	ISI	1.0		7.0	object	car-11.jpg	0.0	267.2625125609334	0.11668891839690332
302.0	151.02336024167698	car	0.0		46.0	object	car-35.jpg	0.0	267.3792014793303	0.38330308245076594
302.0	151.19845172632267	pulse	0.0	t		object	car-35.jpg	0.0	267.55429296397597	
302.0	151.40666332412775	ISI	1.0		7.0	object	car-35.jpg	0.0	267.76250456178104	0.11668288130067594
303.0	151.52334620542842	car	0.0		46.0	object	car-3.jpg	0.0	267.8791874430817	0.3833073084183525
303.0	151.8984334037359	pulse	0.0	t		object	car-3.jpg	0.0	268.2542746413892	
303.0	151.90665351384678	ISI	1.0		6.0	object	car-3.jpg	0.0	268.26249475150007	0.11668197573590078
304.0	152.02333548958268	car	0.0		46.0	object	car-128.jpg	0.0	268.379176727236	0.38330579914418195
304.0	152.40664128872686	ISI	1.0		4.0	object	car-128.jpg	0.0	268.76248252638015	0.116680466462185
305.0	152.52332175518904	car	0.0		46.0	object	car-28.jpg	0.0	268.87916299284234	0.38330791212774784
305.0	152.59841779784256	pulse	0.0	t		object	car-28.jpg	0.0	268.95425903549585	
305.0	152.9066296673168	ISI	1.0		7.0	object	car-28.jpg	0.0	269.2624709049701	0.11668408871992142
306.0	153.0233137560367	car	0.0		46.0	object	car-117.jpg	0.0	269.37915499369	0.3833070065634274
306.0	153.29840309751353	pulse	0.0	t		object	car-117.jpg	0.0	269.6542443351668	
306.0	153.40662076260014	ISI	1.0		7.0	object	car-117.jpg	0.0	269.76246200025344	0.11668589984856226
307.0	153.5233066624487	car	0.0		46.0	object	car-45.jpg	0.0	269.879147900102	0.38330187503152047
307.0	153.90660853748022	ISI	1.0		7.0	object	car-45.jpg	0.0	270.2624497751335	0.12502011107653743
307.0	153.99838356750752	pulse	1.0	t		object	car-45.jpg	0.0	270.3542248051608	
308.0	154.03162864855676	car	0.0		45.0	object	car-46.jpg	0.0	270.38746988621006	0.37500298081613437
308.0	154.4066316293729	ISI	1.0		7.0	object	car-46.jpg	0.0	270.7624728670262	0.11668771097765784
309.0	154.52331934035055	car	0.0		46.0	object	car-79.jpg	0.0	270.87916057800385	0.3832701802766678
309.0	154.6983755079841	pulse	0.0	t		object	car-79.jpg	0.0	271.0542167456374	
309.0	154.90658952062722	ISI	1.0		7.0	object	car-79.jpg	0.0	271.2624307582805	0.11668046646263974
310.0	155.02326998708986	car	0.0		46.0	object	car-20.jpg	0.0	271.37911122474316	0.383312741804275
310.0	155.3983559779781	pulse	0.0	t		object	car-20.jpg	0.0	271.7541972156314	
310.0	155.40658272889414	ISI	1.0		7.0	object	car-20.jpg	0.0	271.76242396654743	0.11668016460771469
311.0	155.52326289350185	car	0.0		46.0	object	car-107.jpg	0.0	271.87910413115515	0.38330730841789773
311.0	155.90657020191975	ISI	1.0		6.0	object	car-107.jpg	0.0	272.26241143957304	0.11667050525375089
312.0	156.0232407071735	car	0.0		46.0	object	car-44.jpg	0.0	272.3790819448268	0.3833070065629727
312.0	156.0983455036162	pulse	0.0	t		object	car-44.jpg	0.0	272.4541867412695	
312.0	156.40654771373647	ISI	1.0		7.0	object	car-44.jpg	0.0	272.76238895138977	0.11669223879971469
313.0	156.5232399525362	car	0.0		46.0	object	car-49.jpg	0.0	272.8790811901895	0.38330791212774784
313.0	156.79832778473883	pulse	0.0	t		object	car-49.jpg	0.0	273.1541690223921	
313.0	156.90654786466393	ISI	1.0		6.0	object	car-49.jpg	0.0	273.26238910231723	0.11668922025182837
314.0	157.02323708491576	car	0.0		46.0	object	car-139.jpg	0.0	273.37907832256906	0.383300667612275
314.0	157.40653775252804	ISI	1.0		7.0	object	car-139.jpg	0.0	273.76237899018133	0.12501980922161238
314.0	157.4983106695713	pulse	1.0	t		object	car-139.jpg	0.0	273.8541519072246	
315.0	157.53155756174965	car	0.0		45.0	object	car-81.jpg	0.0	273.88739879940294	0.37496796565847035
315.0	157.90652552740812	ISI	1.0		6.0	object	car-81.jpg	0.0	274.2623667650614	0.11668559799409195
316.0	158.0232111254022	car	0.0		46.0	object	car-70.jpg	0.0	274.3790523630555	0.3833024787413706
316.0	158.19830321375775	pulse	0.0	t		object	car-70.jpg	0.0	274.55414445141105	
316.0	158.40651360414358	ISI	1.0		7.0	object	car-70.jpg	0.0	274.7623548417969	0.11668288130067594
317.0	158.52319648544426	car	0.0		46.0	object	car-55.jpg	0.0	274.87903772309755	0.3833112325305592
317.0	158.89828217447757	pulse	0.0	t		object	car-55.jpg	0.0	275.25412341213087	
317.0	158.90650771797482	ISI	1.0		6.0	object	car-55.jpg	0.0	275.2623489556281	0.11668197573635553
318.0	159.02318969371117	car	0.0		46.0	object	car-60.jpg	0.0	275.37903093136447	0.3833045917244817
318.0	159.40649428543566	ISI	1.0		6.0	object	car-60.jpg	0.0	275.76233552308895	0.11669555920252606
319.0	159.52318984463818	car	0.0		46.0	object	car-53.jpg	0.0	275.8790310822915	0.3832925175324817
319.0	159.59827471866402	pulse	0.0	t		object	car-53.jpg	0.0	275.9541159563173	
319.0	159.90648236217066	ISI	1.0		6.0	object	car-53.jpg	0.0	276.26232359982396	0.10835319789521236
320.0	160.01483556006588	car	0.0		47.0	object	car-23.jpg	0.0	276.37067679771917	0.3916385010979866
320.0	160.29825699978664	pulse	0.0	t		object	car-23.jpg	0.0	276.65409823743994	
320.0	160.40647406116386	ISI	1.0		4.0	object	car-23.jpg	0.0	276.76231529881716	0.10835349974968267
321.0	160.51482756091355	car	0.0		47.0	object	car-33.jpg	0.0	276.87066879856684	0.3916692902880641
321.0	160.9064968512016	ISI	1.0		5.0	object	car-33.jpg	0.0	277.2623380888549	0.116685899849017
321.0	160.99830810380536	pulse	1.0	t		object	car-33.jpg	0.0	277.35414934145865	
322.0	161.02318275105063	car	0.0		46.0	object	car-29.jpg	0.0	277.3790239887039	0.3832695765668177
322.0	161.40645232761744	ISI	1.0		6.0	object	car-29.jpg	0.0	277.76229356527074	0.10835199047596689
323.0	161.5148043180934	car	0.0		47.0	object	car-138.jpg	0.0	277.8706455557467	0.3916378973881365
323.0	161.6982266935638	pulse	0.0	t		object	car-138.jpg	0.0	278.0540679312171	
323.0	161.90644221548155	ISI	1.0		11.0	object	car-138.jpg	0.0	278.26228345313484	0.09999966795976434
324.0	162.0064418834413	baseline	0.0		48.0		baseline	0.0	278.3622831210946	0.39999414401654576
324.0	162.3982128987991	pulse	0.0	t			baseline	0.0	278.7540541364524	
324.0	162.40643602745786	ISI	1.0		11.0		baseline	0.0	278.76227726511115	0.09999574384710286
325.0	162.50643177130496	baseline	0.0		48.0		baseline	0.0	278.86227300895825	0.39999172917850956
325.0	162.90642350048347	ISI	1.0		11.0		baseline	0.0	279.26226473813676	0.09999604570202791
326.0	163.0064195461855	baseline	0.0		48.0		baseline	0.0	279.3622607838388	0.39999203103297987
326.0	163.09819729290575	pulse	0.0	t			baseline	0.0	279.45403853055905	
326.0	163.40641157721848	ISI	1.0		11.0		baseline	0.0	279.7622528148718	0.0999978568311235
327.0	163.5064094340496	baseline	0.0		48.0		baseline	0.0	279.8622506717029	0.39999263474237523
327.0	163.79818651668893	pulse	0.0	t			baseline	0.0	280.1540277543422	
327.0	163.90640206879198	ISI	1.0		11.0		baseline	0.0	280.26224330644527	0.09999664941187802
328.0	164.00639871820385	baseline	0.0		48.0		baseline	0.0	280.36223995585715	0.39999384216207545
328.0	164.40639256036593	ISI	1.0		11.0		baseline	0.0	280.7622337980192	0.09999785683066875
328.0	164.49817151450543	pulse	1.0	t			baseline	0.0	280.8540127521587	
329.0	164.5063904171966	baseline	0.0		48.0		baseline	0.0	280.8622316548499	0.39999112546865945
329.0	164.90638154266526	ISI	1.0		11.0		baseline	0.0	281.26222278031855	0.09999695126634833
330.0	165.0063784939316	baseline	0.0		48.0		baseline	0.0	281.3622197315849	0.39999293659775503
330.0	165.19815470119238	pulse	0.0	t			baseline	0.0	281.5539959388457	
330.0	165.40637143052936	ISI	1.0		11.0		baseline	0.0	281.76221266818266	0.09999695126634833
331.0	165.5063683817957	baseline	0.0		48.0		baseline	0.0	281.862209619449	0.3999914273235845
331.0	165.8981381897347	pulse	0.0	t			baseline	0.0	282.253979427388	
331.0	165.9063598091193	ISI	1.0		11.0		baseline	0.0	282.2622010467726	0.09999815868559381
332.0	166.0063579678049	baseline	0.0		48.0		baseline	0.0	282.3621992054582	0.39999052175880934
332.0	166.4063484895637	ISI	1.0		11.0		baseline	0.0	282.762189727217	0.10000117723393487
333.0	166.50634966679763	baseline	0.0		48.0		baseline	0.0	282.8621909044509	0.3999896161944889
333.0	166.59812862093713	pulse	0.0	t			baseline	0.0	282.9539698585904	
333.0	166.90633928299212	ISI	1.0		11.0		baseline	0.0	283.2621805206454	0.09999695126634833
334.0	167.00633623425847	baseline	0.0		48.0		baseline	0.0	283.36217747191176	0.400065381751574
334.0	167.29818244164926	pulse	0.0	t			baseline	0.0	283.65402367930255	
334.0	167.40640161601004	ISI	1.0		11.0		baseline	0.0	283.76224285366334	0.09999363086353696
335.0	167.50639524687358	baseline	0.0		48.0		baseline	0.0	283.8622364845269	0.39999323845222534
335.0	167.9063884853258	ISI	1.0		4.0		baseline	0.0	284.2622297229791	0.11664997912657782
335.0	167.99815627083763	pulse	1.0	t			baseline	0.0	284.3539975084909	
336.0	168.02303846445238	body	0.0		46.0	body	body-69.jpg	0.0	284.3788797021057	0.38327018027712256
336.0	168.4063086447295	ISI	1.0		6.0	body	body-69.jpg	0.0	284.7621498823828	0.10834897192762583
337.0	168.51465761665713	body	0.0		47.0	body	body-116.jpg	0.0	284.8704988543104	0.3916261250506068
337.0	168.6980787847083	pulse	0.0	t		body	body-116.jpg	0.0	285.0539200223616	
337.0	168.90628374170774	ISI	1.0		5.0	body	body-116.jpg	0.0	285.26212497936103	0.11670038887950795
338.0	169.02298413058725	body	0.0		46.0	body	body-44.jpg	0.0	285.37882536824054	0.3833027805958409
338.0	169.39809909953692	pulse	0.0	t		body	body-44.jpg	0.0	285.7539403371902	
338.0	169.4062869111831	ISI	1.0		6.0	body	body-44.jpg	0.0	285.7621281488364	0.11668469242977153
339.0	169.52297160361286	body	0.0		46.0	body	body-34.jpg	0.0	285.87881284126615	0.3833048935794068
339.0	169.90627649719227	ISI	1.0		6.0	body	body-34.jpg	0.0	286.26211773484556	0.11668680541333742
340.0	170.0229633026056	body	0.0		46.0	body	body-81.jpg	0.0	286.3788045402589	0.3833027805958409
340.0	170.0980548174366	pulse	0.0	t		body	body-81.jpg	0.0	286.4538960550899	
340.0	170.40626608320144	ISI	1.0		6.0	body	body-81.jpg	0.0	286.76210732085474	0.11668288130067594
341.0	170.52294896450212	body	0.0		46.0	body	body-19.jpg	0.0	286.8787902021554	0.3833064028535773
341.0	170.79804826718737	pulse	0.0	t		body	body-19.jpg	0.0	287.15388950484066	
341.0	170.9062553673557	ISI	1.0		7.0	body	body-19.jpg	0.0	287.262096605009	0.11668288130067594
342.0	171.02293824865637	body	0.0		46.0	body	body-3.jpg	0.0	287.37877948630967	0.3832901026939908
342.0	171.40622835135036	ISI	1.0		7.0	body	body-3.jpg	0.0	287.76206958900366	0.1250475798642583
342.0	171.49802058710156	pulse	1.0	t		body	body-3.jpg	0.0	287.85386182475486	
343.0	171.53127593121462	body	0.0		45.0	body	body-48.jpg	0.0	287.8871171688679	0.3749468358219019
343.0	171.90622276703652	ISI	1.0		7.0	body	body-48.jpg	0.0	288.2620640046898	0.11669344621896016
344.0	172.02291621325548	body	0.0		46.0	body	body-89.jpg	0.0	288.3787574509088	0.38330881769206826
344.0	172.1980079997561	pulse	0.0	t		body	body-89.jpg	0.0	288.5538492374094	
344.0	172.40622503094755	ISI	1.0		7.0	body	body-89.jpg	0.0	288.76206626860085	0.11668559799409195
345.0	172.52291062894164	body	0.0		45.0	body	body-74.jpg	0.0	288.87875186659494	0.38325569124617687
345.0	172.89799028087873	pulse	0.0	t		body	body-74.jpg	0.0	289.253831518532	
345.0	172.90616632018782	ISI	1.0		7.0	body	body-74.jpg	0.0	289.2620075578411	0.11673027250526502
346.0	173.0228965926931	body	0.0		45.0	body	body-18.jpg	0.0	289.3787378303464	0.38330187503152047
346.0	173.4061984677246	ISI	1.0		7.0	body	body-18.jpg	0.0	289.7620397053779	0.11668952210675343
347.0	173.52288798983136	body	0.0		46.0	body	body-108.jpg	0.0	289.87872922748465	0.38332089188406826
347.0	173.59817148431966	pulse	0.0	t		body	body-108.jpg	0.0	289.95401272197296	
347.0	173.90620888171543	ISI	1.0		11.0	body	body-108.jpg	0.0	290.2620501193687	0.09998366965510286
348.0	174.00619255137053	baseline	0.0		48.0		baseline	0.0	290.3620337890238	0.40005874094549654
348.0	174.29803181610032	pulse	0.0	t			baseline	0.0	290.6538730537536	
348.0	174.40625129231603	ISI	1.0		11.0		baseline	0.0	290.7620925299693	0.09999695126634833
349.0	174.50624824358238	baseline	0.0		48.0		baseline	0.0	290.86208948123567	0.3999905217592641
349.0	174.90623876534164	ISI	1.0		11.0		baseline	0.0	291.26208000299494	0.09999876239498917
349.0	174.9980147009328	pulse	1.0	t			baseline	0.0	291.3538559385861	
350.0	175.00623752773663	baseline	0.0		48.0		baseline	0.0	291.3620787653899	0.39999293659775503
350.0	175.40623046433439	ISI	1.0		11.0		baseline	0.0	291.7620717019877	0.09999514013725275
351.0	175.50622560447164	baseline	0.0		48.0		baseline	0.0	291.86206684212493	0.39999444587192556
351.0	175.69800060431317	pulse	0.0	t			baseline	0.0	292.05384184196646	
351.0	175.90622005034356	ISI	1.0		11.0		baseline	0.0	292.26206128799686	0.10000902545834833
352.0	176.0062290758019	baseline	0.0		48.0		baseline	0.0	292.3620703134552	0.39998327724379124
352.0	176.39798711140338	pulse	0.0	t			baseline	0.0	292.7538283490567	
352.0	176.4062123530457	ISI	1.0		11.0		baseline	0.0	292.762053590699	0.09999544199263255
353.0	176.50620779503834	baseline	0.0		48.0		baseline	0.0	292.86204903269163	0.3999917291780548
353.0	176.9061995242164	ISI	1.0		11.0		baseline	0.0	293.2620407618697	0.09999755497619844
354.0	177.0061970791926	baseline	0.0		48.0		baseline	0.0	293.3620383168459	0.39998901248509355
354.0	177.09801165219915	pulse	0.0	t			baseline	0.0	293.45385288985244	
354.0	177.40618609167768	ISI	1.0		11.0		baseline	0.0	293.762027329331	0.09999815868559381
355.0	177.50618425036328	baseline	0.0		48.0		baseline	0.0	293.86202548801657	0.39999384216207545
355.0	177.79795801260025	pulse	0.0	t			baseline	0.0	294.15379925025354	
355.0	177.90617809252535	ISI	1.0		11.0		baseline	0.0	294.26201933017865	0.09999815868559381
356.0	178.00617625121095	baseline	0.0		48.0		baseline	0.0	294.36201748886424	0.3999917291780548
356.0	178.406167980389	ISI	1.0		11.0		baseline	0.0	294.7620092180423	0.09998759376776434
356.0	178.49794180299705	pulse	1.0	t			baseline	0.0	294.85378304065034	
357.0	178.50615557415676	baseline	0.0		48.0		baseline	0.0	294.86199681181006	0.40000018111277313
357.0	178.90615575526954	ISI	1.0		11.0		baseline	0.0	295.26199699292283	0.09999725312127339
358.0	179.0061530083908	baseline	0.0		48.0		baseline	0.0	295.3619942460441	0.3999950495808662
358.0	179.1979283100868	pulse	0.0	t			baseline	0.0	295.5537695477401	
358.0	179.40614805797168	ISI	1.0		11.0		baseline	0.0	295.76198929562497	0.09999664941187802
359.0	179.50614470738356	baseline	0.0		48.0		baseline	0.0	295.86198594503685	0.39999263474283
359.0	179.8979163264512	pulse	0.0	t			baseline	0.0	296.2537575641045	
359.0	179.90613734212639	ISI	1.0		6.0		baseline	0.0	296.2619785797797	0.11664726243316181
360.0	180.02278460455955	adult	0.0		46.0	face	adult-74.jpg	0.0	296.37862584221284	0.38327380253440424
360.0	180.40605840709395	ISI	1.0		6.0	face	adult-74.jpg	0.0	296.76189964474725	0.11668076831711005
361.0	180.52273917541106	adult	0.0		46.0	face	adult-117.jpg	0.0	296.87858041306436	0.383306100999107
361.0	180.59786359241616	pulse	0.0	t		face	adult-117.jpg	0.0	296.95370483006946	
361.0	180.90604527641017	ISI	1.0		6.0	face	adult-117.jpg	0.0	297.26188651406346	0.11668408871992142
362.0	181.0227293651301	adult	0.0		46.0	face	adult-91.jpg	0.0	297.3785706027834	0.38330730841789773
362.0	181.2978168954778	pulse	0.0	t		face	adult-91.jpg	0.0	297.6536581331311	
362.0	181.406036673548	ISI	1.0		7.0	face	adult-91.jpg	0.0	297.7618779112013	0.11668288130067594
363.0	181.52271955484866	adult	0.0		46.0	face	adult-102.jpg	0.0	297.87856079250196	0.38330610099865225
363.0	181.90602565584732	ISI	1.0		7.0	face	adult-102.jpg	0.0	298.2618668935006	0.12501980922206712
363.0	181.997801289584	pulse	1.0	t		face	adult-102.jpg	0.0	298.3536425272373	
364.0	182.03104546506938	adult	0.0		45.0	face	adult-102.jpg	1.0	298.3868867027227	0.37496887122279077
364.0	182.40601433629217	ISI	1.0		7.0	face	adult-102.jpg	1.0	298.76185557394547	0.11668499428424184
365.0	182.52269933057642	adult	0.0		45.0	face	adult-99.jpg	0.0	298.8785405682297	0.38330459172493647
365.0	182.52734427235055	response	0.0	b		face	adult-99.jpg	0.0	298.88318551000384	
365.0	182.69778085401367	pulse	0.0	t		face	adult-99.jpg	0.0	299.05362209166697	
365.0	182.90600392230135	ISI	1.0		7.0	face	adult-99.jpg	0.0	299.26184515995465	0.116683183155601
366.0	183.02268710545695	adult	0.0		46.0	face	adult-12.jpg	0.0	299.37852834311025	0.3833076102728228
366.0	183.39777520932876	pulse	0.0	t		face	adult-12.jpg	0.0	299.75361644698205	
366.0	183.40599471572978	ISI	1.0		6.0	face	adult-12.jpg	0.0	299.76183595338307	0.11668288130067594
367.0	183.52267759703045	adult	0.0		46.0	face	adult-44.jpg	0.0	299.87851883468375	0.38330730841789773
367.0	183.90598490544835	ISI	1.0		6.0	face	adult-44.jpg	0.0	300.26182614310164	0.11667624049505321
368.0	184.0226611459434	adult	0.0		46.0	face	adult-64.jpg	0.0	300.3785023835967	0.3833133455141251
368.0	184.09776564053163	pulse	0.0	t		face	adult-64.jpg	0.0	300.4536068781849	
368.0	184.40597449145753	ISI	1.0		7.0	face	adult-64.jpg	0.0	300.7618157291108	0.11666024219039173
369.0	184.52263473364792	adult	0.0		46.0	face	adult-67.jpg	0.0	300.8784759713012	0.3833290419643163
369.0	184.7977349418975	pulse	0.0	t		face	adult-67.jpg	0.0	301.1535761795508	
369.0	184.90596377561224	ISI	1.0		7.0	face	adult-67.jpg	0.0	301.26180501326553	0.11668227759082583
370.0	185.02264605320306	adult	0.0		46.0	face	adult-36.jpg	0.0	301.37848729085636	0.383306100999107
370.0	185.40595215420217	ISI	1.0		7.0	face	adult-36.jpg	0.0	301.76179339185546	0.11668740912273279
370.0	185.4979001470333	pulse	1.0	t		face	adult-36.jpg	0.0	301.8537413846866	
371.0	185.5226395633249	adult	0.0		46.0	face	adult-7.jpg	0.0	301.8784808009782	0.38330247874091583
371.0	185.90594204206582	ISI	1.0		11.0	face	adult-7.jpg	0.0	302.2617832797191	0.09999725312127339
372.0	186.0059392951871	baseline	0.0		48.0		baseline	0.0	302.3617805328404	0.40005964650981696
372.0	186.19778191050546	pulse	0.0	t			baseline	0.0	302.55362314815875	
372.0	186.4059989416969	ISI	1.0		11.0		baseline	0.0	302.7618401793502	0.10000027166961445
373.0	186.50599921336652	baseline	0.0		48.0		baseline	0.0	302.8618404510198	0.3999923328879049
373.0	186.8977726435628	pulse	0.0	t			baseline	0.0	303.2536138812161	
373.0	186.90599154625443	ISI	1.0		11.0		baseline	0.0	303.2618327839077	0.09999725312127339
374.0	187.0059887993757	baseline	0.0		48.0		baseline	0.0	303.361830037029	0.399989918049414
374.0	187.4059787174251	ISI	1.0		11.0		baseline	0.0	303.7618199550784	0.09999936610483928
375.0	187.50597808352995	baseline	0.0		48.0		baseline	0.0	303.86181932118325	0.39998901248509355
375.0	187.59777756379617	pulse	0.0	t			baseline	0.0	303.95361880144947	
375.0	187.90596709601505	ISI	1.0		11.0		baseline	0.0	304.26180833366834	0.09999996981423465
376.0	188.00596706582928	baseline	0.0		48.0		baseline	0.0	304.3618083034826	0.3999932384526801
376.0	188.29774022435686	pulse	0.0	t			baseline	0.0	304.65358146201015	
376.0	188.40596030428196	ISI	1.0		11.0		baseline	0.0	304.76180154193526	0.09999393271800727
377.0	188.50595423699997	baseline	0.0		48.0		baseline	0.0	304.86179547465326	0.39999263474283
377.0	188.9059468717428	ISI	1.0		11.0		baseline	0.0	305.2617881093961	0.10000359207242582
377.0	188.99777200966764	pulse	1.0	t			baseline	0.0	305.35361324732094	
378.0	189.00595046381522	baseline	0.0		48.0		baseline	0.0	305.3617917014685	0.3999865976466026
378.0	189.40593706146183	ISI	1.0		11.0		baseline	0.0	305.7617782991151	0.09999966795930959
379.0	189.50593672942114	baseline	0.0		48.0		baseline	0.0	305.86177796707443	0.39998961619494366
379.0	189.69770810700493	pulse	0.0	t			baseline	0.0	306.0535493446582	
379.0	189.90592634561608	ISI	1.0		11.0		baseline	0.0	306.2617675832694	0.10000087537900981
380.0	190.0059272209951	baseline	0.0		48.0		baseline	0.0	306.3617684586484	0.39998931433956386
380.0	190.3976967270787	pulse	0.0	t			baseline	0.0	306.753537964732	
380.0	190.40591653533465	ISI	1.0		11.0		baseline	0.0	306.76175777298795	0.09999876239544392
381.0	190.5059152977301	baseline	0.0		48.0		baseline	0.0	306.8617565353834	0.39998901248509355
381.0	190.9059043102152	ISI	1.0		11.0		baseline	0.0	307.2617455478685	0.10000087537855507
382.0	191.00590518559375	baseline	0.0		48.0		baseline	0.0	307.36174642324704	0.39999112546865945
382.0	191.0976871582816	pulse	0.0	t			baseline	0.0	307.4535283959349	
382.0	191.4058963110624	ISI	1.0		11.0		baseline	0.0	307.7617375487157	0.09999272529921654
383.0	191.50588903636162	baseline	0.0		48.0		baseline	0.0	307.8617302740149	0.39999776627473693
383.0	191.7976679301305	pulse	0.0	t			baseline	0.0	308.1535091677838	
383.0	191.90588680263636	ISI	1.0		6.0		baseline	0.0	308.26172804028965	0.1166463568688414
384.0	192.0225331595052	word	0.0		46.0	character	word-57.jpg	0.0	308.3783743971585	0.3833042898700114
384.0	192.4058374493752	ISI	1.0		2.0	character	word-57.jpg	0.0	308.7616786870285	0.1250207147859328
384.0	192.4976966968934	pulse	1.0	t		character	word-57.jpg	0.0	308.8535379345467	
385.0	192.53085816416115	word	0.0		45.0	character	word-35.jpg	0.0	308.88669940181444	0.37496977678756593
385.0	192.9058279409487	ISI	1.0		5.0	character	word-35.jpg	0.0	309.261669178602	0.11668469242977153
386.0	193.02251263337848	word	0.0		46.0	character	word-29.jpg	0.0	309.3783538710318	0.3833054972892569
386.0	193.19760170318568	pulse	0.0	t		character	word-29.jpg	0.0	309.553442940839	
386.0	193.40581813066774	ISI	1.0		7.0	character	word-29.jpg	0.0	309.76165936832103	0.11668499428424184
387.0	193.52250312495198	word	0.0		46.0	character	word-29.jpg	1.0	309.8783443626053	0.3833076102728228
387.0	193.89758670100173	pulse	0.0	t		character	word-29.jpg	1.0	310.253427938655	
387.0	193.9058107352248	ISI	1.0		7.0	character	word-29.jpg	1.0	310.2616519728781	0.11669737033162164
388.0	194.02250810555643	word	0.0		46.0	character	word-32.jpg	0.0	310.3783493432097	0.3832876878554998
388.0	194.06424889015534	response	0.0	b		character	word-32.jpg	0.0	310.42009012780863	
388.0	194.40579579341193	ISI	1.0		4.0	character	word-32.jpg	0.0	310.7616370310652	0.11668680541333742
389.0	194.52248259882526	word	0.0		46.0	character	word-124.jpg	0.0	310.87832383647856	0.38330428986955667
389.0	194.59757683034968	pulse	0.0	t		character	word-124.jpg	0.0	310.953418068003	
389.0	194.90578688869482	ISI	1.0		6.0	character	word-124.jpg	0.0	311.2616281263481	0.11668710726826248
390.0	195.02247399596308	word	0.0		46.0	character	word-131.jpg	0.0	311.3783152336164	0.383303384305691
390.0	195.29755669663382	pulse	0.0	t		character	word-131.jpg	0.0	311.6533979342871	
390.0	195.40577738026877	ISI	1.0		7.0	character	word-131.jpg	0.0	311.76161861792207	0.11668408871992142
391.0	195.5224614689887	word	0.0		46.0	character	word-2.jpg	0.0	311.878302706642	0.38330398801508636
