trial_nr	onset	event_type	phase	response	nr_frames	face_age	face_sex	face_eth	attractiveness	expression	face_id	sub_id	ses	run	trial_type	catch	onset_abs	duration
-1.0	0.05548510642438487	fix	0.0		714												123.56424080503166	5.9656113986929995
-1.0	0.7047397861260833	pulse	0.0	t													124.21349548473336	
-1.0	1.4046894672337658	pulse	0.0	t													124.91344516584104	
-1.0	2.104682615170532	pulse	0.0	t													125.6134383137778	
-1.0	2.804659764899043	pulse	0.0	t													126.31341546350632	
-1.0	3.50463872574619	pulse	0.0	t													127.01339442435346	
-1.0	4.2046149699162925	pulse	0.0	t													127.71337066852357	
-1.0	4.904600269675939	pulse	0.0	t													128.4133559682832	
-1.0	5.604580739787707	pulse	0.0	t													129.11333643839498	
0.0	6.021096505117384	face	0.0		144	40.0	male	black	2.408674890569041	smiling	061	sub-05	1.0	1.0	061_smiling	0.0	129.52985220372466	1.23332994251723
0.0	6.304565133988945	pulse	0.0	t		40.0	male	black	2.408674890569041	smiling	061	sub-05	1.0	1.0	061_smiling	0.0	129.81332083259622	
0.0	7.004543189275864	pulse	0.0	t		40.0	male	black	2.408674890569041	smiling	061	sub-05	1.0	1.0	061_smiling	0.0	130.51329888788314	
0.0	7.254426447634614	fix	1.0		444	40.0	male	black	2.408674890569041	smiling	061	sub-05	1.0	1.0	061_smiling	0.0	130.7631821462419	3.766551731112486
0.0	7.704526677918693	pulse	1.0	t		40.0	male	black	2.408674890569041	smiling	061	sub-05	1.0	1.0	061_smiling	0.0	131.21328237652597	
0.0	8.404509261001294	pulse	1.0	t		40.0	male	black	2.408674890569041	smiling	061	sub-05	1.0	1.0	061_smiling	0.0	131.91326495960857	
0.0	9.104486712583821	pulse	1.0	t		40.0	male	black	2.408674890569041	smiling	061	sub-05	1.0	1.0	061_smiling	0.0	132.6132424111911	
0.0	9.804461145635287	pulse	1.0	t		40.0	male	black	2.408674890569041	smiling	061	sub-05	1.0	1.0	061_smiling	0.0	133.31321684424256	
0.0	10.50444825651357	pulse	1.0	t		40.0	male	black	2.408674890569041	smiling	061	sub-05	1.0	1.0	061_smiling	0.0	134.01320395512084	
1.0	11.0209781787471	face	0.0		145	36.0	female	white	2.7548746518105847	neutral	011	sub-05	1.0	1.0	011_neutral	0.0	134.52973387735437	1.2333163591338234
1.0	11.2044332544192	pulse	0.0	t		36.0	female	white	2.7548746518105847	neutral	011	sub-05	1.0	1.0	011_neutral	0.0	134.71318895302647	
1.0	11.904407687472485	pulse	0.0	t		36.0	female	white	2.7548746518105847	neutral	011	sub-05	1.0	1.0	011_neutral	0.0	135.41316338607976	
1.0	12.254294537880924	fix	1.0		444	36.0	female	white	2.7548746518105847	neutral	011	sub-05	1.0	1.0	011_neutral	0.0	135.7630502364882	3.766550221846046
1.0	12.604398118732206	pulse	1.0	t		36.0	female	white	2.7548746518105847	neutral	011	sub-05	1.0	1.0	011_neutral	0.0	136.11315381733948	
1.0	13.304375570314733	pulse	1.0	t		36.0	female	white	2.7548746518105847	neutral	011	sub-05	1.0	1.0	011_neutral	0.0	136.813131268922	
1.0	14.004353323749456	pulse	1.0	t		36.0	female	white	2.7548746518105847	neutral	011	sub-05	1.0	1.0	011_neutral	0.0	137.51310902235673	
1.0	14.704337717950693	pulse	1.0	t		36.0	female	white	2.7548746518105847	neutral	011	sub-05	1.0	1.0	011_neutral	0.0	138.21309341655797	
1.0	15.404311547295947	pulse	1.0	t		36.0	female	white	2.7548746518105847	neutral	011	sub-05	1.0	1.0	011_neutral	0.0	138.91306724590322	
2.0	16.02084475972697	face	0.0		145	32.0	male	white	2.389176283326701	smiling	092	sub-05	1.0	1.0	092_smiling	0.0	139.52960045833424	1.233314548017006
2.0	16.104317071205514	pulse	0.0	t		32.0	male	white	2.389176283326701	smiling	092	sub-05	1.0	1.0	092_smiling	0.0	139.6130727698128	
2.0	16.804287882021526	pulse	0.0	t		32.0	male	white	2.389176283326701	smiling	092	sub-05	1.0	1.0	092_smiling	0.0	140.3130435806288	
2.0	17.254159307743976	fix	1.0		444	32.0	male	white	2.389176283326701	smiling	092	sub-05	1.0	1.0	092_smiling	0.0	140.76291500635125	3.758207005343138
2.0	17.504267446574886	pulse	1.0	t		32.0	male	white	2.389176283326701	smiling	092	sub-05	1.0	1.0	092_smiling	0.0	141.01302314518216	
2.0	18.204247916686654	pulse	1.0	t		32.0	male	white	2.389176283326701	smiling	092	sub-05	1.0	1.0	092_smiling	0.0	141.71300361529393	
2.0	18.904228084946226	pulse	1.0	t		32.0	male	white	2.389176283326701	smiling	092	sub-05	1.0	1.0	092_smiling	0.0	142.4129837835535	
2.0	19.604216101382917	pulse	1.0	t		32.0	male	white	2.389176283326701	smiling	092	sub-05	1.0	1.0	092_smiling	0.0	143.1129717999902	
2.0	20.304182686257263	pulse	1.0	t		32.0	male	white	2.389176283326701	smiling	092	sub-05	1.0	1.0	092_smiling	0.0	143.81293838486454	
3.0	21.012366313087114	face	0.0		147	31.0	female	east_asian	3.395941106247513	smiling	087	sub-05	1.0	1.0	087_smiling	0.0	144.5211220116944	1.2416583682243072
3.0	21.006311142209597	pulse	0.0	t		31.0	female	east_asian	3.395941106247513	smiling	087	sub-05	1.0	1.0	087_smiling	0.0	144.51506684081687	
3.0	21.704153285776556	pulse	0.0	t		31.0	female	east_asian	3.395941106247513	smiling	087	sub-05	1.0	1.0	087_smiling	0.0	145.21290898438383	
3.0	22.25402468131142	fix	1.0		443	31.0	female	east_asian	3.395941106247513	smiling	087	sub-05	1.0	1.0	087_smiling	0.0	145.7627803799187	3.7665520329646824
3.0	22.40413556700514	pulse	1.0	t		31.0	female	east_asian	3.395941106247513	smiling	087	sub-05	1.0	1.0	087_smiling	0.0	145.91289126561242	
3.0	23.104111509323047	pulse	1.0	t		31.0	female	east_asian	3.395941106247513	smiling	087	sub-05	1.0	1.0	087_smiling	0.0	146.61286720793032	
3.0	23.804089866463983	pulse	1.0	t		31.0	female	east_asian	3.395941106247513	smiling	087	sub-05	1.0	1.0	087_smiling	0.0	147.31284556507126	
3.0	24.504073053252796	pulse	1.0	t		31.0	female	east_asian	3.395941106247513	smiling	087	sub-05	1.0	1.0	087_smiling	0.0	148.01282875186007	
3.0	25.204055636335397	pulse	1.0	t		31.0	female	east_asian	3.395941106247513	smiling	087	sub-05	1.0	1.0	087_smiling	0.0	148.71281133494267	
3.0	25.904029767534666	pulse	1.0	t		31.0	female	east_asian	3.395941106247513	smiling	087	sub-05	1.0	1.0	087_smiling	0.0	149.41278546614194	
4.0	26.020576714276103	face	0.0		146	40.0	female	west_asian	1.5777954635893354	neutral	038	sub-05	1.0	1.0	038_neutral	0.0	149.52933241288338	1.233312435046173
4.0	26.604020198794387	pulse	0.0	t		40.0	female	west_asian	1.5777954635893354	neutral	038	sub-05	1.0	1.0	038_neutral	0.0	150.11277589740166	
4.0	27.253889149322276	fix	1.0		443	40.0	female	west_asian	1.5777954635893354	neutral	038	sub-05	1.0	1.0	038_neutral	0.0	150.76264484792955	3.766552334816879
4.0	27.303998857789338	pulse	1.0	t		40.0	female	west_asian	1.5777954635893354	neutral	038	sub-05	1.0	1.0	038_neutral	0.0	150.8127545563966	
4.0	28.00398385569497	pulse	1.0	t		40.0	female	west_asian	1.5777954635893354	neutral	038	sub-05	1.0	1.0	038_neutral	0.0	151.51273955430224	
4.0	28.703968551750222	pulse	1.0	t		40.0	female	west_asian	1.5777954635893354	neutral	038	sub-05	1.0	1.0	038_neutral	0.0	152.2127242503575	
4.0	29.40394600333093	pulse	1.0	t		40.0	female	west_asian	1.5777954635893354	neutral	038	sub-05	1.0	1.0	038_neutral	0.0	152.9127017019382	
4.0	30.10392315306126	pulse	1.0	t		40.0	female	west_asian	1.5777954635893354	neutral	038	sub-05	1.0	1.0	038_neutral	0.0	153.61267885166853	
4.0	30.803902113906588	pulse	1.0	t		40.0	female	west_asian	1.5777954635893354	neutral	038	sub-05	1.0	1.0	038_neutral	0.0	154.31265781251386	
5.0	31.020441484139155	face	0.0		145	37.0	male	white	3.898925586947871	smiling	101	sub-05	1.0	1.0	101_smiling	0.0	154.52919718274643	1.2333003609255684
5.0	31.5038853006954	pulse	0.0	t		37.0	male	white	3.898925586947871	smiling	101	sub-05	1.0	1.0	101_smiling	0.0	155.01264099930268	
5.0	32.203851281865354	pulse	0.0	t		37.0	male	white	3.898925586947871	smiling	101	sub-05	1.0	1.0	101_smiling	0.0	155.71260698047263	
5.0	32.253741845064724	fix	1.0		445	37.0	male	white	3.898925586947871	smiling	101	sub-05	1.0	1.0	101_smiling	0.0	155.762497543672	3.7665659182021045
5.0	32.90386344653962	pulse	1.0	t		37.0	male	white	3.898925586947871	smiling	101	sub-05	1.0	1.0	101_smiling	0.0	156.4126191451469	
5.0	33.60383486106184	pulse	1.0	t		37.0	male	white	3.898925586947871	smiling	101	sub-05	1.0	1.0	101_smiling	0.0	157.11259055966912	
5.0	34.30380355890702	pulse	1.0	t		37.0	male	white	3.898925586947871	smiling	101	sub-05	1.0	1.0	101_smiling	0.0	157.8125592575143	
5.0	35.00378916052068	pulse	1.0	t		37.0	male	white	3.898925586947871	smiling	101	sub-05	1.0	1.0	101_smiling	0.0	158.51254485912796	
5.0	35.703770838044875	pulse	1.0	t		37.0	male	white	3.898925586947871	smiling	101	sub-05	1.0	1.0	101_smiling	0.0	159.21252653665215	
6.0	36.02030776326683	face	0.0		145	21.0	male	black	2.969757262236371	neutral	137	sub-05	1.0	1.0	137_neutral	0.0	159.5290634618741	1.2333136424567783
6.0	36.403744969244144	pulse	0.0	t		21.0	male	black	2.969757262236371	neutral	137	sub-05	1.0	1.0	137_neutral	0.0	159.91250066785142	
6.0	37.103736306062274	pulse	0.0	t		21.0	male	black	2.969757262236371	neutral	137	sub-05	1.0	1.0	137_neutral	0.0	160.61249200466955	
6.0	37.25362140572361	fix	1.0		444	21.0	male	black	2.969757262236371	neutral	137	sub-05	1.0	1.0	137_neutral	0.0	160.76237710433088	3.766550825554077
6.0	37.803720398411315	pulse	1.0	t		21.0	male	black	2.969757262236371	neutral	137	sub-05	1.0	1.0	137_neutral	0.0	161.3124760970186	
6.0	38.50369935925664	pulse	1.0	t		21.0	male	black	2.969757262236371	neutral	137	sub-05	1.0	1.0	137_neutral	0.0	162.01245505786392	
6.0	39.203680433074624	pulse	1.0	t		21.0	male	black	2.969757262236371	neutral	137	sub-05	1.0	1.0	137_neutral	0.0	162.7124361316819	
6.0	39.90365335686329	pulse	1.0	t		21.0	male	black	2.969757262236371	neutral	137	sub-05	1.0	1.0	137_neutral	0.0	163.41240905547056	
6.0	40.603642580710584	pulse	1.0	t		21.0	male	black	2.969757262236371	neutral	137	sub-05	1.0	1.0	137_neutral	0.0	164.11239827931786	
7.0	41.020172231277684	face	0.0		145	31.0	male	west_asian	1.9538400318344609	smiling	070	sub-05	1.0	1.0	070_smiling	0.0	164.52892792988496	1.23331666098602
7.0	41.30362848417644	pulse	0.0	t		31.0	male	west_asian	1.9538400318344609	smiling	070	sub-05	1.0	1.0	070_smiling	0.0	164.81238418278372	
7.0	42.003597785727834	pulse	0.0	t		31.0	male	west_asian	1.9538400318344609	smiling	070	sub-05	1.0	1.0	070_smiling	0.0	165.5123534843351	
7.0	42.253488892263704	fix	1.0		444	31.0	male	west_asian	1.9538400318344609	smiling	070	sub-05	1.0	1.0	070_smiling	0.0	165.76224459087098	3.7665484107292286
7.0	42.70358851884157	pulse	1.0	t		31.0	male	west_asian	1.9538400318344609	smiling	070	sub-05	1.0	1.0	070_smiling	0.0	166.21234421744884	
7.0	43.40356989451175	pulse	1.0	t		31.0	male	west_asian	1.9538400318344609	smiling	070	sub-05	1.0	1.0	070_smiling	0.0	166.91232559311902	
7.0	44.10354161088799	pulse	1.0	t		31.0	male	west_asian	1.9538400318344609	smiling	070	sub-05	1.0	1.0	070_smiling	0.0	167.61229730949526	
7.0	44.80352721249983	pulse	1.0	t		31.0	male	west_asian	1.9538400318344609	smiling	070	sub-05	1.0	1.0	070_smiling	0.0	168.3122829111071	
7.0	45.503521869703036	pulse	1.0	t		31.0	male	west_asian	1.9538400318344609	smiling	070	sub-05	1.0	1.0	070_smiling	0.0	169.0122775683103	
8.0	46.02003730299293	face	0.0		145	27.0	female	white	3.504576203740549	smiling	144	sub-05	1.0	1.0	144_smiling	1.0	169.5287930016002	1.2333196795170807
8.0	46.203498415725335	pulse	0.0	t		27.0	female	white	3.504576203740549	smiling	144	sub-05	1.0	1.0	144_smiling	1.0	169.7122541143326	
8.0	46.903470132099756	pulse	0.0	t		27.0	female	white	3.504576203740549	smiling	144	sub-05	1.0	1.0	144_smiling	1.0	170.41222583070703	
8.0	47.25335698251001	fix	1.0		236	27.0	female	white	3.504576203740549	smiling	144	sub-05	1.0	1.0	144_smiling	1.0	170.7621126811173	2.0083057867323078
8.0	47.60345845039046	pulse	1.0	t		27.0	female	white	3.504576203740549	smiling	144	sub-05	1.0	1.0	144_smiling	1.0	171.11221414899774	
8.0	48.30344042976685	pulse	1.0	t		27.0	female	white	3.504576203740549	smiling	144	sub-05	1.0	1.0	144_smiling	1.0	171.81219612837413	
8.0	49.00338890346211	pulse	1.0	t		27.0	female	white	3.504576203740549	smiling	144	sub-05	1.0	1.0	144_smiling	1.0	172.51214460206938	
8.0	49.26166276924232	rating	2.0		234	27.0	female	white	3.504576203740549	smiling	144	sub-05	1.0	1.0	144_smiling	1.0	172.7704184678496	1.9915834332223312
8.0	49.69813071502176	pulse	2.0	t		27.0	female	white	3.504576203740549	smiling	144	sub-05	1.0	1.0	144_smiling	1.0	173.20688641362904	
8.0	50.40338365122079	pulse	2.0	t		27.0	female	white	3.504576203740549	smiling	144	sub-05	1.0	1.0	144_smiling	1.0	173.91213934982807	
8.0	50.52838580192292	response	2.0	y		27.0	female	white	3.504576203740549	smiling	144	sub-05	1.0	1.0	144_smiling	1.0	174.0371415005302	
8.0	51.10335265091817	pulse	2.0	t		27.0	female	white	3.504576203740549	smiling	144	sub-05	1.0	1.0	144_smiling	1.0	174.61210834952544	
8.0	51.25324620246465	fix	3.0		444	27.0	female	white	3.504576203740549	smiling	144	sub-05	1.0	1.0	144_smiling	1.0	174.76200190107193	3.7665532403752877
8.0	51.80334217661948	pulse	3.0	t		27.0	female	white	3.504576203740549	smiling	144	sub-05	1.0	1.0	144_smiling	1.0	175.31209787522675	
8.0	52.503329891203975	pulse	3.0	t		27.0	female	white	3.504576203740549	smiling	144	sub-05	1.0	1.0	144_smiling	1.0	176.01208558981125	
8.0	53.20330673908029	pulse	3.0	t		27.0	female	white	3.504576203740549	smiling	144	sub-05	1.0	1.0	144_smiling	1.0	176.71206243768756	
8.0	53.90327664433789	pulse	3.0	t		27.0	female	white	3.504576203740549	smiling	144	sub-05	1.0	1.0	144_smiling	1.0	177.41203234294517	
8.0	54.60327220709769	pulse	3.0	t		27.0	female	white	3.504576203740549	smiling	144	sub-05	1.0	1.0	144_smiling	1.0	178.11202790570496	
9.0	55.01979944283994	face	0.0		145	40.0	male	white	1.868682849184242	neutral	172	sub-05	1.0	1.0	172_neutral	0.0	178.5285551414472	1.2333136424567783
9.0	55.30324875312181	pulse	0.0	t		40.0	male	white	1.868682849184242	neutral	172	sub-05	1.0	1.0	172_neutral	0.0	178.81200445172908	
9.0	56.00323103435039	pulse	0.0	t		40.0	male	white	1.868682849184242	neutral	172	sub-05	1.0	1.0	172_neutral	0.0	179.51198673295767	
9.0	56.25311308529672	fix	1.0		444	40.0	male	white	1.868682849184242	neutral	172	sub-05	1.0	1.0	172_neutral	0.0	179.761868783904	3.7665414681105176
9.0	56.703225087847386	pulse	1.0	t		40.0	male	white	1.868682849184242	neutral	172	sub-05	1.0	1.0	172_neutral	0.0	180.21198078645466	
9.0	57.40319076716332	pulse	1.0	t		40.0	male	white	1.868682849184242	neutral	172	sub-05	1.0	1.0	172_neutral	0.0	180.9119464657706	
9.0	58.10316670947941	pulse	1.0	t		40.0	male	white	1.868682849184242	neutral	172	sub-05	1.0	1.0	172_neutral	0.0	181.61192240808668	
9.0	58.80315110368065	pulse	1.0	t		40.0	male	white	1.868682849184242	neutral	172	sub-05	1.0	1.0	172_neutral	0.0	182.31190680228792	
9.0	59.50313127194022	pulse	1.0	t		40.0	male	white	1.868682849184242	neutral	172	sub-05	1.0	1.0	172_neutral	0.0	183.0118869705475	
10.0	60.019654553407236	face	0.0		145	22.0	male	black	2.767608436132113	neutral	044	sub-05	1.0	1.0	044_neutral	1.0	183.5284102520145	1.2333226980463223
10.0	60.203118986522895	pulse	0.0	t		22.0	male	black	2.767608436132113	neutral	044	sub-05	1.0	1.0	044_neutral	1.0	183.71187468513017	
10.0	60.90309130660535	pulse	0.0	t		22.0	male	black	2.767608436132113	neutral	044	sub-05	1.0	1.0	044_neutral	1.0	184.41184700521262	
10.0	61.25297725145356	fix	1.0		236	22.0	male	black	2.767608436132113	neutral	044	sub-05	1.0	1.0	044_neutral	1.0	184.76173295006083	1.9999486849937966
10.0	61.603080530452644	pulse	1.0	t		22.0	male	black	2.767608436132113	neutral	044	sub-05	1.0	1.0	044_neutral	1.0	185.11183622905992	
10.0	62.30305979315381	pulse	1.0	t		22.0	male	black	2.767608436132113	neutral	044	sub-05	1.0	1.0	044_neutral	1.0	185.81181549176108	
10.0	63.003041168823984	pulse	1.0	t		22.0	male	black	2.767608436132113	neutral	044	sub-05	1.0	1.0	044_neutral	1.0	186.51179686743126	
10.0	63.252925936447355	rating	2.0		235	22.0	male	black	2.767608436132113	neutral	044	sub-05	1.0	1.0	044_neutral	1.0	186.76168163505463	1.999946270168948
10.0	63.70302827970045	pulse	2.0	t		22.0	male	black	2.767608436132113	neutral	044	sub-05	1.0	1.0	044_neutral	1.0	187.21178397830772	
10.0	64.18110816871558	response	2.0	g		22.0	male	black	2.767608436132113	neutral	044	sub-05	1.0	1.0	044_neutral	1.0	187.68986386732286	
10.0	64.40300029792888	pulse	2.0	t		22.0	male	black	2.767608436132113	neutral	044	sub-05	1.0	1.0	044_neutral	1.0	187.91175599653616	
10.0	65.10303449787352	pulse	2.0	t		22.0	male	black	2.767608436132113	neutral	044	sub-05	1.0	1.0	044_neutral	1.0	188.6117901964808	
10.0	65.2528722066163	fix	3.0		444	22.0	male	black	2.767608436132113	neutral	044	sub-05	1.0	1.0	044_neutral	1.0	188.76162790522358	3.7665465996105922
10.0	65.80296636965431	pulse	3.0	t		22.0	male	black	2.767608436132113	neutral	044	sub-05	1.0	1.0	044_neutral	1.0	189.3117220682616	
10.0	66.5029293322932	pulse	3.0	t		22.0	male	black	2.767608436132113	neutral	044	sub-05	1.0	1.0	044_neutral	1.0	190.01168503090048	
10.0	67.20293123396732	pulse	3.0	t		22.0	male	black	2.767608436132113	neutral	044	sub-05	1.0	1.0	044_neutral	1.0	190.7116869325746	
10.0	67.90290777998962	pulse	3.0	t		22.0	male	black	2.767608436132113	neutral	044	sub-05	1.0	1.0	044_neutral	1.0	191.4116634785969	
10.0	68.60289157048464	pulse	3.0	t		22.0	male	black	2.767608436132113	neutral	044	sub-05	1.0	1.0	044_neutral	1.0	192.11164726909192	
11.0	69.0194188062269	face	0.0		145	24.0	female	east_asian	2.9076800636689217	smiling	034	sub-05	1.0	1.0	034_smiling	0.0	192.52817450483417	1.2333178683984443
11.0	69.30287687024429	pulse	0.0	t		24.0	female	east_asian	2.9076800636689217	smiling	034	sub-05	1.0	1.0	034_smiling	0.0	192.81163256885156	
11.0	70.00284707735409	pulse	0.0	t		24.0	female	east_asian	2.9076800636689217	smiling	034	sub-05	1.0	1.0	034_smiling	0.0	193.51160277596136	
11.0	70.25273667462534	fix	1.0		444	24.0	female	east_asian	2.9076800636689217	smiling	034	sub-05	1.0	1.0	034_smiling	0.0	193.7614923732326	3.7582172683451063
11.0	70.70283901788025	pulse	1.0	t		24.0	female	east_asian	2.9076800636689217	smiling	034	sub-05	1.0	1.0	034_smiling	0.0	194.21159471648753	
11.0	71.40281405463793	pulse	1.0	t		24.0	female	east_asian	2.9076800636689217	smiling	034	sub-05	1.0	1.0	034_smiling	0.0	194.9115697532452	
11.0	72.10279090251424	pulse	1.0	t		24.0	female	east_asian	2.9076800636689217	smiling	034	sub-05	1.0	1.0	034_smiling	0.0	195.61154660112152	
11.0	72.80277831524472	pulse	1.0	t		24.0	female	east_asian	2.9076800636689217	smiling	034	sub-05	1.0	1.0	034_smiling	0.0	196.311534013852	
11.0	73.50275908720869	pulse	1.0	t		24.0	female	east_asian	2.9076800636689217	smiling	034	sub-05	1.0	1.0	034_smiling	0.0	197.01151478581596	
12.0	74.01095394297045	face	0.0		146	21.0	male	east_asian/white	3.501790688420215	smiling	036	sub-05	1.0	1.0	036_smiling	0.0	197.51970964157772	1.241655651547262
12.0	74.20274378326394	pulse	0.0	t		21.0	male	east_asian/white	3.501790688420215	smiling	036	sub-05	1.0	1.0	036_smiling	0.0	197.71149948187121	
12.0	74.9027176126092	pulse	0.0	t		21.0	male	east_asian/white	3.501790688420215	smiling	036	sub-05	1.0	1.0	036_smiling	0.0	198.41147331121647	
12.0	75.25260959451771	fix	1.0		444	21.0	male	east_asian/white	3.501790688420215	smiling	036	sub-05	1.0	1.0	036_smiling	0.0	198.76136529312498	3.7665441847875627
12.0	75.60270562904589	pulse	1.0	t		21.0	male	east_asian/white	3.501790688420215	smiling	036	sub-05	1.0	1.0	036_smiling	0.0	199.11146132765316	
12.0	76.30278601249483	pulse	1.0	t		21.0	male	east_asian/white	3.501790688420215	smiling	036	sub-05	1.0	1.0	036_smiling	0.0	199.8115417111021	
12.0	77.00272301577752	pulse	1.0	t		21.0	male	east_asian/white	3.501790688420215	smiling	036	sub-05	1.0	1.0	036_smiling	0.0	200.5114787143848	
12.0	77.7026479449396	pulse	1.0	t		21.0	male	east_asian/white	3.501790688420215	smiling	036	sub-05	1.0	1.0	036_smiling	0.0	201.21140364354687	
12.0	78.40262871690538	pulse	1.0	t		21.0	male	east_asian/white	3.501790688420215	smiling	036	sub-05	1.0	1.0	036_smiling	0.0	201.91138441551266	
13.0	79.01915377930527	face	0.0		145	25.0	female	black	3.858336649423	neutral	126	sub-05	1.0	1.0	126_neutral	0.0	202.52790947791254	1.2333130387505662
13.0	79.10262095928374	pulse	0.0	t		25.0	female	black	3.858336649423	neutral	126	sub-05	1.0	1.0	126_neutral	0.0	202.61137665789101	
13.0	79.80258633674566	pulse	0.0	t		25.0	female	black	3.858336649423	neutral	126	sub-05	1.0	1.0	126_neutral	0.0	203.31134203535294	
13.0	80.25246681805584	fix	1.0		444	25.0	female	black	3.858336649423	neutral	126	sub-05	1.0	1.0	126_neutral	0.0	203.7612225166631	3.76654750517082
13.0	80.50256559944683	pulse	1.0	t		25.0	female	black	3.858336649423	neutral	126	sub-05	1.0	1.0	126_neutral	0.0	204.0113212980541	
13.0	81.20255814367738	pulse	1.0	t		25.0	female	black	3.858336649423	neutral	126	sub-05	1.0	1.0	126_neutral	0.0	204.71131384228465	
13.0	81.90253136931824	pulse	1.0	t		25.0	female	black	3.858336649423	neutral	126	sub-05	1.0	1.0	126_neutral	0.0	205.4112870679255	
13.0	82.60250067086963	pulse	1.0	t		25.0	female	black	3.858336649423	neutral	126	sub-05	1.0	1.0	126_neutral	0.0	206.1112563694769	
13.0	83.30247782059814	pulse	1.0	t		25.0	female	black	3.858336649423	neutral	126	sub-05	1.0	1.0	126_neutral	0.0	206.81123351920542	
14.0	84.01901432322666	face	0.0		146	21.0	male	east_asian/white	3.501790688420215	neutral	036	sub-05	1.0	1.0	036_neutral	0.0	207.52777002183393	1.2333196795170807
14.0	84.00524952526212	pulse	0.0	t		21.0	male	east_asian/white	3.501790688420215	neutral	036	sub-05	1.0	1.0	036_neutral	0.0	207.5140052238694	
14.0	84.70246049423622	pulse	0.0	t		21.0	male	east_asian/white	3.501790688420215	neutral	036	sub-05	1.0	1.0	036_neutral	0.0	208.2112161928435	
14.0	85.25233400274374	fix	1.0		443	21.0	male	east_asian/white	3.501790688420215	neutral	036	sub-05	1.0	1.0	036_neutral	0.0	208.761089701351	3.7665330162271857
14.0	85.40244579399587	pulse	1.0	t		21.0	male	east_asian/white	3.501790688420215	neutral	036	sub-05	1.0	1.0	036_neutral	0.0	208.91120149260314	
14.0	86.10241388813665	pulse	1.0	t		21.0	male	east_asian/white	3.501790688420215	neutral	036	sub-05	1.0	1.0	036_neutral	0.0	209.61116958674393	
14.0	86.80240069716092	pulse	1.0	t		21.0	male	east_asian/white	3.501790688420215	neutral	036	sub-05	1.0	1.0	036_neutral	0.0	210.3111563957682	
14.0	87.50238478950814	pulse	1.0	t		21.0	male	east_asian/white	3.501790688420215	neutral	036	sub-05	1.0	1.0	036_neutral	0.0	211.01114048811542	
14.0	88.2023655614721	pulse	1.0	t		21.0	male	east_asian/white	3.501790688420215	neutral	036	sub-05	1.0	1.0	036_neutral	0.0	211.71112126007938	
14.0	88.90234210749622	pulse	1.0	t		21.0	male	east_asian/white	3.501790688420215	neutral	036	sub-05	1.0	1.0	036_neutral	0.0	212.4110978061035	
15.0	89.01886701897092	face	0.0		146	20.0	male	black	3.1070433744528456	neutral	082	sub-05	1.0	1.0	082_neutral	0.0	212.5276227175782	1.233332055488063
15.0	89.60234431102253	pulse	0.0	t		20.0	male	black	3.1070433744528456	neutral	082	sub-05	1.0	1.0	082_neutral	0.0	213.1111000096298	
15.0	90.25219907445899	fix	1.0		443	20.0	male	black	3.1070433744528456	neutral	082	sub-05	1.0	1.0	082_neutral	0.0	213.76095477306626	3.7665574663187726
15.0	90.30230727366143	pulse	1.0	t		20.0	male	black	3.1070433744528456	neutral	082	sub-05	1.0	1.0	082_neutral	0.0	213.8110629722687	
15.0	91.00229227156888	pulse	1.0	t		20.0	male	black	3.1070433744528456	neutral	082	sub-05	1.0	1.0	082_neutral	0.0	214.51104797017615	
15.0	91.70226911944337	pulse	1.0	t		20.0	male	black	3.1070433744528456	neutral	082	sub-05	1.0	1.0	082_neutral	0.0	215.21102481805065	
15.0	92.40223872284878	pulse	1.0	t		20.0	male	black	3.1070433744528456	neutral	082	sub-05	1.0	1.0	082_neutral	0.0	215.91099442145605	
15.0	93.10223277634577	pulse	1.0	t		20.0	male	black	3.1070433744528456	neutral	082	sub-05	1.0	1.0	082_neutral	0.0	216.61098847495305	
15.0	93.80221264275133	pulse	1.0	t		20.0	male	black	3.1070433744528456	neutral	082	sub-05	1.0	1.0	082_neutral	0.0	217.3109683413586	
16.0	94.01875654077776	face	0.0		145	25.0	female	west_asian	2.6756864305610826	smiling	064	sub-05	1.0	1.0	064_smiling	1.0	217.52751223938503	1.2333085109567037
16.0	94.50219703695075	pulse	0.0	t		25.0	female	west_asian	2.6756864305610826	smiling	064	sub-05	1.0	1.0	064_smiling	1.0	218.01095273555802	
16.0	95.20219078859554	pulse	0.0	t		25.0	female	west_asian	2.6756864305610826	smiling	064	sub-05	1.0	1.0	064_smiling	1.0	218.71094648720282	
16.0	95.25206505173446	fix	1.0		237	25.0	female	west_asian	2.6756864305610826	smiling	064	sub-05	1.0	1.0	064_smiling	1.0	218.76082075034174	1.9999459683149325
16.0	95.9021585808805	pulse	1.0	t		25.0	female	west_asian	2.6756864305610826	smiling	064	sub-05	1.0	1.0	064_smiling	1.0	219.41091427948777	
16.0	96.60214538990658	pulse	1.0	t		25.0	female	west_asian	2.6756864305610826	smiling	064	sub-05	1.0	1.0	064_smiling	1.0	220.11090108851386	
16.0	97.2520110200494	rating	2.0		235	25.0	female	west_asian	2.6756864305610826	smiling	064	sub-05	1.0	1.0	064_smiling	1.0	220.76076671865667	1.9999556276106887
16.0	97.30212374704752	pulse	2.0	t		25.0	female	west_asian	2.6756864305610826	smiling	064	sub-05	1.0	1.0	064_smiling	1.0	220.8108794456548	
16.0	98.00210753754072	pulse	2.0	t		25.0	female	west_asian	2.6756864305610826	smiling	064	sub-05	1.0	1.0	064_smiling	1.0	221.510863236148	
16.0	98.54377396524069	response	2.0	y		25.0	female	west_asian	2.6756864305610826	smiling	064	sub-05	1.0	1.0	064_smiling	1.0	222.05252966384796	
16.0	98.70206657609197	pulse	2.0	t		25.0	female	west_asian	2.6756864305610826	smiling	064	sub-05	1.0	1.0	064_smiling	1.0	222.21082227469924	
16.0	99.25196664766008	fix	3.0		443	25.0	female	west_asian	2.6756864305610826	smiling	064	sub-05	1.0	1.0	064_smiling	1.0	222.76072234626736	3.7665420718167297
16.0	99.40206576108903	pulse	3.0	t		25.0	female	west_asian	2.6756864305610826	smiling	064	sub-05	1.0	1.0	064_smiling	1.0	222.9108214596963	
16.0	100.10201876257815	pulse	3.0	t		25.0	female	west_asian	2.6756864305610826	smiling	064	sub-05	1.0	1.0	064_smiling	1.0	223.61077446118543	
16.0	100.80202006054606	pulse	3.0	t		25.0	female	west_asian	2.6756864305610826	smiling	064	sub-05	1.0	1.0	064_smiling	1.0	224.31077575915333	
16.0	101.50200566215972	pulse	3.0	t		25.0	female	west_asian	2.6756864305610826	smiling	064	sub-05	1.0	1.0	064_smiling	1.0	225.010761360767	
16.0	102.20198643412368	pulse	3.0	t		25.0	female	west_asian	2.6756864305610826	smiling	064	sub-05	1.0	1.0	064_smiling	1.0	225.71074213273096	
16.0	102.90197233758954	pulse	3.0	t		25.0	female	west_asian	2.6756864305610826	smiling	064	sub-05	1.0	1.0	064_smiling	1.0	226.41072803619682	
17.0	103.01850871947681	face	0.0		146	27.0	female	white	4.181058495821727	smiling	039	sub-05	1.0	1.0	039_smiling	0.0	226.5272644180841	1.2333148498692026
17.0	103.60195039287828	pulse	0.0	t		27.0	female	white	4.181058495821727	smiling	039	sub-05	1.0	1.0	039_smiling	0.0	227.11070609148555	
17.0	104.25182356934602	fix	1.0		443	27.0	female	white	4.181058495821727	smiling	039	sub-05	1.0	1.0	039_smiling	0.0	227.7605792679533	3.7665484107292286
17.0	104.30192965557762	pulse	1.0	t		27.0	female	white	4.181058495821727	smiling	039	sub-05	1.0	1.0	039_smiling	0.0	227.8106853541849	
17.0	105.00191284236644	pulse	1.0	t		27.0	female	white	4.181058495821727	smiling	039	sub-05	1.0	1.0	039_smiling	0.0	228.5106685409737	
17.0	105.70189301062419	pulse	1.0	t		27.0	female	white	4.181058495821727	smiling	039	sub-05	1.0	1.0	039_smiling	0.0	229.21064870923146	
17.0	106.40187046220672	pulse	1.0	t		27.0	female	white	4.181058495821727	smiling	039	sub-05	1.0	1.0	039_smiling	0.0	229.910626160814	
17.0	107.10184761193523	pulse	1.0	t		27.0	female	white	4.181058495821727	smiling	039	sub-05	1.0	1.0	039_smiling	0.0	230.6106033105425	
17.0	107.8018338172551	pulse	1.0	t		27.0	female	white	4.181058495821727	smiling	039	sub-05	1.0	1.0	039_smiling	0.0	231.31058951586238	
18.0	108.01837198007524	face	0.0		145	31.0	female	east_asian	3.395941106247513	neutral	087	sub-05	1.0	1.0	087_neutral	0.0	231.52712767868252	1.2333154535735957
18.0	108.50181972072096	pulse	0.0	t		31.0	female	east_asian	3.395941106247513	neutral	087	sub-05	1.0	1.0	087_neutral	0.0	232.01057541932823	
18.0	109.20180049268492	pulse	0.0	t		31.0	female	east_asian	3.395941106247513	neutral	087	sub-05	1.0	1.0	087_neutral	0.0	232.7105561912922	
18.0	109.25168743364884	fix	1.0		444	31.0	female	east_asian	3.395941106247513	neutral	087	sub-05	1.0	1.0	087_neutral	0.0	232.7604431322561	3.7665511274062737
18.0	109.90178126465071	pulse	1.0	t		31.0	female	east_asian	3.395941106247513	neutral	087	sub-05	1.0	1.0	087_neutral	0.0	233.41053696325798	
18.0	110.60176143290846	pulse	1.0	t		31.0	female	east_asian	3.395941106247513	neutral	087	sub-05	1.0	1.0	087_neutral	0.0	234.11051713151573	
18.0	111.30174009190341	pulse	1.0	t		31.0	female	east_asian	3.395941106247513	neutral	087	sub-05	1.0	1.0	087_neutral	0.0	234.81049579051069	
18.0	112.0017148268089	pulse	1.0	t		31.0	female	east_asian	3.395941106247513	neutral	087	sub-05	1.0	1.0	087_neutral	0.0	235.51047052541617	
18.0	112.70170948401028	pulse	1.0	t		31.0	female	east_asian	3.395941106247513	neutral	087	sub-05	1.0	1.0	087_neutral	0.0	236.21046518261755	
19.0	113.01823856105511	face	0.0		145	28.0	female	white	5.676880222841227	neutral	124	sub-05	1.0	1.0	124_neutral	0.0	236.5269942596624	1.2333169628400356
19.0	113.40168753929902	pulse	0.0	t		28.0	female	white	5.676880222841227	neutral	124	sub-05	1.0	1.0	124_neutral	0.0	236.9104432379063	
19.0	114.10166106679208	pulse	0.0	t		28.0	female	white	5.676880222841227	neutral	124	sub-05	1.0	1.0	124_neutral	0.0	237.61041676539935	
19.0	114.25155552389515	fix	1.0		444	28.0	female	white	5.676880222841227	neutral	124	sub-05	1.0	1.0	124_neutral	0.0	237.76031122250242	3.7665472033168044
19.0	114.80165210175801	pulse	1.0	t		28.0	female	white	5.676880222841227	neutral	124	sub-05	1.0	1.0	124_neutral	0.0	238.31040780036528	
19.0	115.50162110145538	pulse	1.0	t		28.0	female	white	5.676880222841227	neutral	124	sub-05	1.0	1.0	124_neutral	0.0	239.01037680006266	
19.0	116.20160791048147	pulse	1.0	t		28.0	female	white	5.676880222841227	neutral	124	sub-05	1.0	1.0	124_neutral	0.0	239.71036360908874	
19.0	116.9015862676224	pulse	1.0	t		28.0	female	white	5.676880222841227	neutral	124	sub-05	1.0	1.0	124_neutral	0.0	240.41034196622968	
19.0	117.60155979511546	pulse	1.0	t		28.0	female	white	5.676880222841227	neutral	124	sub-05	1.0	1.0	124_neutral	0.0	241.11031549372274	
20.0	118.01810272721195	face	0.0		145	30.0	female	black	2.7345801830481498	smiling	062	sub-05	1.0	1.0	062_smiling	0.0	241.52685842581923	1.233318773958672
20.0	118.30156109308336	pulse	0.0	t		30.0	female	black	2.7345801830481498	smiling	062	sub-05	1.0	1.0	062_smiling	0.0	241.81031679169064	
20.0	119.00152888537013	pulse	0.0	t		30.0	female	black	2.7345801830481498	smiling	062	sub-05	1.0	1.0	062_smiling	0.0	242.5102845839774	
20.0	119.25142150117063	fix	1.0		444	30.0	female	black	2.7345801830481498	smiling	062	sub-05	1.0	1.0	062_smiling	0.0	242.7601771997779	3.7665511274044547
20.0	119.70152776851319	pulse	1.0	t		30.0	female	black	2.7345801830481498	smiling	062	sub-05	1.0	1.0	062_smiling	0.0	243.21028346712046	
20.0	120.40149948488943	pulse	1.0	t		30.0	female	black	2.7345801830481498	smiling	062	sub-05	1.0	1.0	062_smiling	0.0	243.9102551834967	
20.0	121.10147844573476	pulse	1.0	t		30.0	female	black	2.7345801830481498	smiling	062	sub-05	1.0	1.0	062_smiling	0.0	244.61023414434203	
20.0	121.80146042511296	pulse	1.0	t		30.0	female	black	2.7345801830481498	smiling	062	sub-05	1.0	1.0	062_smiling	0.0	245.31021612372024	
20.0	122.50144089522473	pulse	1.0	t		30.0	female	black	2.7345801830481498	smiling	062	sub-05	1.0	1.0	062_smiling	0.0	246.010196593832	
21.0	123.01797262857508	face	0.0		145	24.0	female	black	3.0955033824114606	neutral	099	sub-05	1.0	1.0	099_neutral	1.0	246.52672832718235	1.2333136424567783
21.0	123.20139540598029	pulse	0.0	t		24.0	female	black	3.0955033824114606	neutral	099	sub-05	1.0	1.0	099_neutral	1.0	246.71015110458757	
21.0	123.90139670394638	pulse	0.0	t		24.0	female	black	3.0955033824114606	neutral	099	sub-05	1.0	1.0	099_neutral	1.0	247.41015240255365	
21.0	124.25128627103186	fix	1.0		236	24.0	female	black	3.0955033824114606	neutral	099	sub-05	1.0	1.0	099_neutral	1.0	247.76004196963913	1.9999465720229637
21.0	124.60142064088905	pulse	1.0	t		24.0	female	black	3.0955033824114606	neutral	099	sub-05	1.0	1.0	099_neutral	1.0	248.11017633949632	
21.0	125.30137002014271	pulse	1.0	t		24.0	female	black	3.0955033824114606	neutral	099	sub-05	1.0	1.0	099_neutral	1.0	248.81012571875	
21.0	126.0013447550482	pulse	1.0	t		24.0	female	black	3.0955033824114606	neutral	099	sub-05	1.0	1.0	099_neutral	1.0	249.51010045365547	
21.0	126.25123284305482	rating	2.0		235	24.0	female	black	3.0955033824114606	neutral	099	sub-05	1.0	1.0	099_neutral	1.0	249.7599885416621	1.9999450627565238
21.0	126.70133669557435	pulse	2.0	t		24.0	female	black	3.0955033824114606	neutral	099	sub-05	1.0	1.0	099_neutral	1.0	250.21009239418163	
21.0	127.29298394051693	response	2.0	e		24.0	female	black	3.0955033824114606	neutral	099	sub-05	1.0	1.0	099_neutral	1.0	250.8017396391242	
21.0	127.40131324159665	pulse	2.0	t		24.0	female	black	3.0955033824114606	neutral	099	sub-05	1.0	1.0	099_neutral	1.0	250.91006894020393	
21.0	128.1012861653835	pulse	2.0	t		24.0	female	black	3.0955033824114606	neutral	099	sub-05	1.0	1.0	099_neutral	1.0	251.61004186399077	
21.0	128.25117790581135	fix	3.0		444	24.0	female	black	3.0955033824114606	neutral	099	sub-05	1.0	1.0	099_neutral	1.0	251.75993360441862	3.7665520329646824
21.0	128.80127297440959	pulse	3.0	t		24.0	female	black	3.0955033824114606	neutral	099	sub-05	1.0	1.0	099_neutral	1.0	252.31002867301686	
21.0	129.50124861487348	pulse	3.0	t		24.0	female	black	3.0955033824114606	neutral	099	sub-05	1.0	1.0	099_neutral	1.0	253.01000431348075	
21.0	130.20124991284138	pulse	3.0	t		24.0	female	black	3.0955033824114606	neutral	099	sub-05	1.0	1.0	099_neutral	1.0	253.71000561144865	
21.0	130.90121740327413	pulse	3.0	t		24.0	female	black	3.0955033824114606	neutral	099	sub-05	1.0	1.0	099_neutral	1.0	254.4099731018814	
21.0	131.6011924400318	pulse	3.0	t		24.0	female	black	3.0955033824114606	neutral	099	sub-05	1.0	1.0	099_neutral	1.0	255.10994813863908	
22.0	132.01772993877603	face	0.0		145	24.0	female	east_asian	4.409868682849185	neutral	030	sub-05	1.0	1.0	030_neutral	0.0	255.5264856373833	1.233325716575564
22.0	132.30118226758714	pulse	0.0	t		24.0	female	east_asian	4.409868682849185	neutral	030	sub-05	1.0	1.0	030_neutral	0.0	255.8099379661944	
22.0	133.00117722664254	pulse	0.0	t		24.0	female	east_asian	4.409868682849185	neutral	030	sub-05	1.0	1.0	030_neutral	0.0	256.5099329252498	
22.0	133.2510556553516	fix	1.0		444	24.0	female	east_asian	4.409868682849185	neutral	030	sub-05	1.0	1.0	030_neutral	0.0	256.75981135395887	3.766539053287488
22.0	133.70114954672317	pulse	1.0	t		24.0	female	east_asian	4.409868682849185	neutral	030	sub-05	1.0	1.0	030_neutral	0.0	257.20990524533045	
22.0	134.40111130194964	pulse	1.0	t		24.0	female	east_asian	4.409868682849185	neutral	030	sub-05	1.0	1.0	030_neutral	0.0	257.9098670005569	
22.0	135.10111954253625	pulse	1.0	t		24.0	female	east_asian	4.409868682849185	neutral	030	sub-05	1.0	1.0	030_neutral	0.0	258.6098752411435	
22.0	135.80108099591052	pulse	1.0	t		24.0	female	east_asian	4.409868682849185	neutral	030	sub-05	1.0	1.0	030_neutral	0.0	259.3098366945178	
22.0	136.50106388084532	pulse	1.0	t		24.0	female	east_asian	4.409868682849185	neutral	030	sub-05	1.0	1.0	030_neutral	0.0	260.0098195794526	
23.0	137.01759470863908	face	0.0		145	24.0	male	white	3.1153999204138483	smiling	012	sub-05	1.0	1.0	012_smiling	0.0	260.52635040724635	1.2333148498692026
23.0	137.20105280284224	pulse	0.0	t		24.0	male	white	3.1153999204138483	smiling	012	sub-05	1.0	1.0	012_smiling	0.0	260.7098085014495	
23.0	137.90104263039575	pulse	0.0	t		24.0	male	white	3.1153999204138483	smiling	012	sub-05	1.0	1.0	012_smiling	0.0	261.409798329003	
23.0	138.25090955850828	fix	1.0		1185	24.0	male	white	3.1153999204138483	smiling	012	sub-05	1.0	1.0	012_smiling	0.0	261.75966525711556	10.01638246704897
23.0	138.6010161578888	pulse	1.0	t		24.0	male	white	3.1153999204138483	smiling	012	sub-05	1.0	1.0	012_smiling	0.0	262.1097718564961	
23.0	139.3009857612942	pulse	1.0	t		24.0	male	white	3.1153999204138483	smiling	012	sub-05	1.0	1.0	012_smiling	0.0	262.8097414599015	
23.0	140.00096985364144	pulse	1.0	t		24.0	male	white	3.1153999204138483	smiling	012	sub-05	1.0	1.0	012_smiling	0.0	263.5097255522487	
23.0	140.70095153116563	pulse	1.0	t		24.0	male	white	3.1153999204138483	smiling	012	sub-05	1.0	1.0	012_smiling	0.0	264.2097072297729	
23.0	141.40093109571717	pulse	1.0	t		24.0	male	white	3.1153999204138483	smiling	012	sub-05	1.0	1.0	012_smiling	0.0	264.90968679432444	
23.0	142.10091428250598	pulse	1.0	t		24.0	male	white	3.1153999204138483	smiling	012	sub-05	1.0	1.0	012_smiling	0.0	265.60966998111326	
23.0	142.80089958226563	pulse	1.0	t		24.0	male	white	3.1153999204138483	smiling	012	sub-05	1.0	1.0	012_smiling	0.0	266.3096552808729	
23.0	143.5008800523774	pulse	1.0	t		24.0	male	white	3.1153999204138483	smiling	012	sub-05	1.0	1.0	012_smiling	0.0	267.00963575098467	
23.0	144.2008562965475	pulse	1.0	t		24.0	male	white	3.1153999204138483	smiling	012	sub-05	1.0	1.0	012_smiling	0.0	267.7096119951548	
23.0	144.90084129445495	pulse	1.0	t		24.0	male	white	3.1153999204138483	smiling	012	sub-05	1.0	1.0	012_smiling	0.0	268.4095969930622	
23.0	145.60082448124376	pulse	1.0	t		24.0	male	white	3.1153999204138483	smiling	012	sub-05	1.0	1.0	012_smiling	0.0	269.10958017985104	
23.0	146.30079831059084	pulse	1.0	t		24.0	male	white	3.1153999204138483	smiling	012	sub-05	1.0	1.0	012_smiling	0.0	269.8095540091981	
23.0	147.00078361034866	pulse	1.0	t		24.0	male	white	3.1153999204138483	smiling	012	sub-05	1.0	1.0	012_smiling	0.0	270.50953930895594	
23.0	147.7007616656374	pulse	1.0	t		24.0	male	white	3.1153999204138483	smiling	012	sub-05	1.0	1.0	012_smiling	0.0	271.2095173642447	
24.0	148.26729202555725	face	0.0		145	28.0	male	white	3.9076800636689217	neutral	033	sub-05	1.0	1.0	033_neutral	0.0	271.7760477241645	1.2333136424585973
24.0	148.40075481357417	pulse	0.0	t		28.0	male	white	3.9076800636689217	neutral	033	sub-05	1.0	1.0	033_neutral	0.0	271.90951051218144	
24.0	149.10072954847965	pulse	0.0	t		28.0	male	white	3.9076800636689217	neutral	033	sub-05	1.0	1.0	033_neutral	0.0	272.6094852470869	
24.0	149.50060566801585	fix	1.0		444	28.0	male	white	3.9076800636689217	neutral	033	sub-05	1.0	1.0	033_neutral	0.0	273.0093613666231	3.766552334816879
24.0	149.8007154519455	pulse	1.0	t		28.0	male	white	3.9076800636689217	neutral	033	sub-05	1.0	1.0	033_neutral	0.0	273.3094711505528	
24.0	150.50069531835106	pulse	1.0	t		28.0	male	white	3.9076800636689217	neutral	033	sub-05	1.0	1.0	033_neutral	0.0	274.00945101695834	
24.0	151.20065314948988	pulse	1.0	t		28.0	male	white	3.9076800636689217	neutral	033	sub-05	1.0	1.0	033_neutral	0.0	274.70940884809715	
24.0	151.9006493159559	pulse	1.0	t		28.0	male	white	3.9076800636689217	neutral	033	sub-05	1.0	1.0	033_neutral	0.0	275.40940501456316	
24.0	152.6006315971863	pulse	1.0	t		28.0	male	white	3.9076800636689217	neutral	033	sub-05	1.0	1.0	033_neutral	0.0	276.10938729579357	
25.0	153.26715800283273	face	0.0		145	27.0	male	black	3.5523278949462798	smiling	042	sub-05	1.0	1.0	042_smiling	0.0	276.77591370144	1.2333151517213992
25.0	153.30061900991677	pulse	0.0	t		27.0	male	black	3.5523278949462798	smiling	042	sub-05	1.0	1.0	042_smiling	0.0	276.80937470852405	
25.0	154.0006091393243	pulse	0.0	t		27.0	male	black	3.5523278949462798	smiling	042	sub-05	1.0	1.0	042_smiling	0.0	277.50936483793157	
25.0	154.50047315455413	fix	1.0		443	27.0	male	black	3.5523278949462798	smiling	042	sub-05	1.0	1.0	042_smiling	0.0	278.0092288531614	3.7665493162876373
25.0	154.70058145940493	pulse	1.0	t		27.0	male	black	3.5523278949462798	smiling	042	sub-05	1.0	1.0	042_smiling	0.0	278.2093371580122	
25.0	155.40056585360617	pulse	1.0	t		27.0	male	black	3.5523278949462798	smiling	042	sub-05	1.0	1.0	042_smiling	0.0	278.90932155221344	
25.0	156.10060820358012	pulse	1.0	t		27.0	male	black	3.5523278949462798	smiling	042	sub-05	1.0	1.0	042_smiling	0.0	279.6093639021874	
25.0	156.8005204549172	pulse	1.0	t		27.0	male	black	3.5523278949462798	smiling	042	sub-05	1.0	1.0	042_smiling	0.0	280.3092761535245	
25.0	157.50050062317678	pulse	1.0	t		27.0	male	black	3.5523278949462798	smiling	042	sub-05	1.0	1.0	042_smiling	0.0	281.00925632178405	
25.0	158.20048652664263	pulse	1.0	t		27.0	male	black	3.5523278949462798	smiling	042	sub-05	1.0	1.0	042_smiling	0.0	281.7092422252499	
26.0	158.26702247084177	face	0.0		146	31.0	male	west_asian	1.9538400318344609	neutral	070	sub-05	1.0	1.0	070_neutral	0.0	281.77577816944904	1.2333172646940511
26.0	158.9004663930482	pulse	0.0	t		31.0	male	west_asian	1.9538400318344609	neutral	070	sub-05	1.0	1.0	070_neutral	0.0	282.40922209165547	
26.0	159.50033973553582	fix	1.0		443	31.0	male	west_asian	1.9538400318344609	neutral	070	sub-05	1.0	1.0	070_neutral	0.0	283.0090954341431	3.7582848834135802
26.0	159.60047825587026	pulse	1.0	t		31.0	male	west_asian	1.9538400318344609	neutral	070	sub-05	1.0	1.0	070_neutral	0.0	283.10923395447753	
26.0	160.3004243147425	pulse	1.0	t		31.0	male	west_asian	1.9538400318344609	neutral	070	sub-05	1.0	1.0	070_neutral	0.0	283.80918001334976	
26.0	161.00040991635433	pulse	1.0	t		31.0	male	west_asian	1.9538400318344609	neutral	070	sub-05	1.0	1.0	070_neutral	0.0	284.5091656149616	
26.0	161.70038585867223	pulse	1.0	t		31.0	male	west_asian	1.9538400318344609	neutral	070	sub-05	1.0	1.0	070_neutral	0.0	285.2091415572795	
26.0	162.40036995101946	pulse	1.0	t		31.0	male	west_asian	1.9538400318344609	neutral	070	sub-05	1.0	1.0	070_neutral	0.0	285.90912564962673	
26.0	163.10035434521888	pulse	1.0	t		31.0	male	west_asian	1.9538400318344609	neutral	070	sub-05	1.0	1.0	070_neutral	0.0	286.60911004382615	
27.0	163.2586246189494	face	0.0		147	54.0	female	white	2.286908077994429	smiling	136	sub-05	1.0	1.0	136_smiling	0.0	286.7673803175567	1.2415798864494718
27.0	163.8003381357139	pulse	0.0	t		54.0	female	white	2.286908077994429	smiling	136	sub-05	1.0	1.0	136_smiling	0.0	287.3090938343212	
27.0	164.50020450539887	fix	1.0		444	54.0	female	white	2.286908077994429	smiling	136	sub-05	1.0	1.0	136_smiling	0.0	288.00896020400614	3.766549014433622
27.0	164.50776592266993	pulse	1.0	t		54.0	female	white	2.286908077994429	smiling	136	sub-05	1.0	1.0	136_smiling	0.0	288.0165216212772	
27.0	165.20030149076229	pulse	1.0	t		54.0	female	white	2.286908077994429	smiling	136	sub-05	1.0	1.0	136_smiling	0.0	288.70905718936956	
27.0	165.90027169787209	pulse	1.0	t		54.0	female	white	2.286908077994429	smiling	136	sub-05	1.0	1.0	136_smiling	0.0	289.40902739647936	
27.0	166.60025790319014	pulse	1.0	t		54.0	female	white	2.286908077994429	smiling	136	sub-05	1.0	1.0	136_smiling	0.0	290.1090136017974	
27.0	167.30024229739138	pulse	1.0	t		54.0	female	white	2.286908077994429	smiling	136	sub-05	1.0	1.0	136_smiling	0.0	290.80899799599865	
27.0	168.0002191452677	pulse	1.0	t		54.0	female	white	2.286908077994429	smiling	136	sub-05	1.0	1.0	136_smiling	0.0	291.50897484387497	
28.0	168.2667535198325	face	0.0		145	36.0	female	white	2.7548746518105847	smiling	011	sub-05	1.0	1.0	011_smiling	0.0	291.77550921843977	1.2333181702524598
28.0	168.70020716170438	pulse	0.0	t		36.0	female	white	2.7548746518105847	smiling	011	sub-05	1.0	1.0	011_smiling	0.0	292.20896286031166	
28.0	169.40018310402047	pulse	0.0	t		36.0	female	white	2.7548746518105847	smiling	011	sub-05	1.0	1.0	011_smiling	0.0	292.90893880262774	
28.0	169.50007169008495	fix	1.0		444	36.0	female	white	2.7548746518105847	smiling	011	sub-05	1.0	1.0	011_smiling	0.0	293.0088273886922	3.766549618139834
28.0	170.10017655381125	pulse	1.0	t		36.0	female	white	2.7548746518105847	smiling	011	sub-05	1.0	1.0	011_smiling	0.0	293.6089322524185	
28.0	170.8001431386856	pulse	1.0	t		36.0	female	white	2.7548746518105847	smiling	011	sub-05	1.0	1.0	011_smiling	0.0	294.3088988372929	
28.0	171.50012209953275	pulse	1.0	t		36.0	female	white	2.7548746518105847	smiling	011	sub-05	1.0	1.0	011_smiling	0.0	295.00887779814	
28.0	172.200108908557	pulse	1.0	t		36.0	female	white	2.7548746518105847	smiling	011	sub-05	1.0	1.0	011_smiling	0.0	295.7088646071643	
28.0	172.90009118978742	pulse	1.0	t		36.0	female	white	2.7548746518105847	smiling	011	sub-05	1.0	1.0	011_smiling	0.0	296.4088468883947	
29.0	173.26662130822479	face	0.0		145	19.0	female	white	4.298846000795861	smiling	100	sub-05	1.0	1.0	100_smiling	0.0	296.77537700683206	1.2333157554294303
29.0	173.6000719617532	pulse	0.0	t		19.0	female	white	4.298846000795861	smiling	100	sub-05	1.0	1.0	100_smiling	0.0	297.1088276603605	
29.0	174.30004548924626	pulse	0.0	t		19.0	female	white	4.298846000795861	smiling	100	sub-05	1.0	1.0	100_smiling	0.0	297.80880118785353	
29.0	174.49993706365422	fix	1.0		444	19.0	female	white	4.298846000795861	smiling	100	sub-05	1.0	1.0	100_smiling	0.0	298.0086927622615	3.7665456940503645
29.0	175.00003561865378	pulse	1.0	t		19.0	female	white	4.298846000795861	smiling	100	sub-05	1.0	1.0	100_smiling	0.0	298.50879131726106	
29.0	175.70001065541146	pulse	1.0	t		19.0	female	white	4.298846000795861	smiling	100	sub-05	1.0	1.0	100_smiling	0.0	299.20876635401874	
29.0	176.39999927555436	pulse	1.0	t		19.0	female	white	4.298846000795861	smiling	100	sub-05	1.0	1.0	100_smiling	0.0	299.90875497416164	
29.0	177.09994352330796	pulse	1.0	t		19.0	female	white	4.298846000795861	smiling	100	sub-05	1.0	1.0	100_smiling	0.0	300.60869922191523	
29.0	177.79995297130517	pulse	1.0	t		19.0	female	white	4.298846000795861	smiling	100	sub-05	1.0	1.0	100_smiling	0.0	301.30870866991245	
30.0	178.26648275770458	face	0.0		145	27.0	female	white	3.504576203740549	neutral	144	sub-05	1.0	1.0	144_neutral	0.0	301.77523845631185	1.2333184721064754
30.0	178.49993796921262	pulse	0.0	t		27.0	female	white	3.504576203740549	neutral	144	sub-05	1.0	1.0	144_neutral	0.0	302.0086936678199	
30.0	179.19991632635356	pulse	0.0	t		27.0	female	white	3.504576203740549	neutral	144	sub-05	1.0	1.0	144_neutral	0.0	302.70867202496083	
30.0	179.49980122981106	fix	1.0		444	27.0	female	white	3.504576203740549	neutral	144	sub-05	1.0	1.0	144_neutral	0.0	303.00855692841833	3.75834344289251
30.0	179.8999019279654	pulse	1.0	t		27.0	female	white	3.504576203740549	neutral	144	sub-05	1.0	1.0	144_neutral	0.0	303.4086576265727	
30.0	180.59987968140013	pulse	1.0	t		27.0	female	white	3.504576203740549	neutral	144	sub-05	1.0	1.0	144_neutral	0.0	304.1086353800074	
30.0	181.2998604533659	pulse	1.0	t		27.0	female	white	3.504576203740549	neutral	144	sub-05	1.0	1.0	144_neutral	0.0	304.8086161519732	
30.0	181.99984424386093	pulse	1.0	t		27.0	female	white	3.504576203740549	neutral	144	sub-05	1.0	1.0	144_neutral	0.0	305.5085999424682	
30.0	182.69982109173725	pulse	1.0	t		27.0	female	white	3.504576203740549	neutral	144	sub-05	1.0	1.0	144_neutral	0.0	306.2085767903445	
31.0	183.25814467270357	face	0.0		146	19.0	male	white	2.243931555909272	smiling	130	sub-05	1.0	1.0	130_smiling	0.0	306.76690037131084	1.241528873293646
31.0	183.3998145415262	pulse	0.0	t		19.0	male	white	2.243931555909272	smiling	130	sub-05	1.0	1.0	130_smiling	0.0	306.9085702401335	
31.0	184.09976573189851	pulse	0.0	t		19.0	male	white	2.243931555909272	smiling	130	sub-05	1.0	1.0	130_smiling	0.0	307.6085214305058	
31.0	184.4996735459972	fix	1.0		444	19.0	male	white	2.243931555909272	smiling	130	sub-05	1.0	1.0	130_smiling	0.0	308.0084292446045	3.766542675522942
31.0	184.79977276507452	pulse	1.0	t		19.0	male	white	2.243931555909272	smiling	130	sub-05	1.0	1.0	130_smiling	0.0	308.3085284636818	
31.0	185.4997544425969	pulse	1.0	t		19.0	male	white	2.243931555909272	smiling	130	sub-05	1.0	1.0	130_smiling	0.0	309.00851014120417	
31.0	186.19972857379616	pulse	1.0	t		19.0	male	white	2.243931555909272	smiling	130	sub-05	1.0	1.0	130_smiling	0.0	309.70848427240344	
31.0	186.89971176058498	pulse	1.0	t		19.0	male	white	2.243931555909272	smiling	130	sub-05	1.0	1.0	130_smiling	0.0	310.40846745919225	
31.0	187.5996964566384	pulse	1.0	t		19.0	male	white	2.243931555909272	smiling	130	sub-05	1.0	1.0	130_smiling	0.0	311.1084521552457	
32.0	188.26621622152015	face	0.0		145	21.0	male	black	2.969757262236371	smiling	137	sub-05	1.0	1.0	137_smiling	0.0	311.7749719201274	1.2333172646922321
32.0	188.2997282417582	pulse	0.0	t		21.0	male	black	2.969757262236371	smiling	137	sub-05	1.0	1.0	137_smiling	0.0	311.8084839403655	
32.0	188.99965498203892	pulse	0.0	t		21.0	male	black	2.969757262236371	smiling	137	sub-05	1.0	1.0	137_smiling	0.0	312.5084106806462	
32.0	189.49953348621239	fix	1.0		443	21.0	male	black	2.969757262236371	smiling	137	sub-05	1.0	1.0	137_smiling	0.0	313.00828918481966	3.7582157590804854
32.0	189.69964088550478	pulse	1.0	t		21.0	male	black	2.969757262236371	smiling	137	sub-05	1.0	1.0	137_smiling	0.0	313.20839658411205	
32.0	190.39963433529556	pulse	1.0	t		21.0	male	black	2.969757262236371	smiling	137	sub-05	1.0	1.0	137_smiling	0.0	313.90839003390283	
32.0	191.0996003164637	pulse	1.0	t		21.0	male	black	2.969757262236371	smiling	137	sub-05	1.0	1.0	137_smiling	0.0	314.60835601507097	
32.0	191.7995765606338	pulse	1.0	t		21.0	male	black	2.969757262236371	smiling	137	sub-05	1.0	1.0	137_smiling	0.0	315.30833225924107	
32.0	192.4995660863351	pulse	1.0	t		21.0	male	black	2.969757262236371	smiling	137	sub-05	1.0	1.0	137_smiling	0.0	316.0083217849424	
32.0	193.19955742315506	pulse	1.0	t		21.0	male	black	2.969757262236371	smiling	137	sub-05	1.0	1.0	137_smiling	0.0	316.70831312176233	
33.0	193.25774924529287	face	0.0		147	22.0	female	west_asian	3.8205332272184642	neutral	066	sub-05	1.0	1.0	066_neutral	0.0	316.76650494390015	1.2416493126347632
33.0	193.89952823397107	pulse	0.0	t		22.0	female	west_asian	3.8205332272184642	neutral	066	sub-05	1.0	1.0	066_neutral	0.0	317.40828393257834	
33.0	194.49939855792763	fix	1.0		443	22.0	female	west_asian	3.8205332272184642	neutral	066	sub-05	1.0	1.0	066_neutral	0.0	318.0081542565349	3.766548108877032
33.0	194.59952198561405	pulse	1.0	t		22.0	female	west_asian	3.8205332272184642	neutral	066	sub-05	1.0	1.0	066_neutral	0.0	318.1082776842213	
33.0	195.29948706122377	pulse	1.0	t		22.0	female	west_asian	3.8205332272184642	neutral	066	sub-05	1.0	1.0	066_neutral	0.0	318.80824275983105	
33.0	195.99946209798145	pulse	1.0	t		22.0	female	west_asian	3.8205332272184642	neutral	066	sub-05	1.0	1.0	066_neutral	0.0	319.5082177965887	
33.0	196.69944407735784	pulse	1.0	t		22.0	female	west_asian	3.8205332272184642	neutral	066	sub-05	1.0	1.0	066_neutral	0.0	320.2081997759651	
33.0	197.39943118823612	pulse	1.0	t		22.0	female	west_asian	3.8205332272184642	neutral	066	sub-05	1.0	1.0	066_neutral	0.0	320.9081868868434	
33.0	198.09940863981865	pulse	1.0	t		22.0	female	west_asian	3.8205332272184642	neutral	066	sub-05	1.0	1.0	066_neutral	0.0	321.6081643384259	
34.0	198.26594666680467	face	0.0		146	34.0	male	white	2.651014723438122	smiling	121	sub-05	1.0	1.0	121_smiling	1.0	321.77470236541194	1.2333175665444287
34.0	198.7993939395783	pulse	0.0	t		34.0	male	white	2.651014723438122	smiling	121	sub-05	1.0	1.0	121_smiling	1.0	322.30814963818557	
34.0	199.4992642333491	fix	1.0		237	34.0	male	white	2.651014723438122	smiling	121	sub-05	1.0	1.0	121_smiling	1.0	323.00801993195637	1.999934497902359
34.0	199.50685462850925	pulse	1.0	t		34.0	male	white	2.651014723438122	smiling	121	sub-05	1.0	1.0	121_smiling	1.0	323.0156103271165	
34.0	200.19935880388948	pulse	1.0	t		34.0	male	white	2.651014723438122	smiling	121	sub-05	1.0	1.0	121_smiling	1.0	323.70811450249676	
34.0	200.89933323694277	pulse	1.0	t		34.0	male	white	2.651014723438122	smiling	121	sub-05	1.0	1.0	121_smiling	1.0	324.40808893555004	
34.0	201.49919873125145	rating	2.0		235	34.0	male	white	2.651014723438122	smiling	121	sub-05	1.0	1.0	121_smiling	1.0	325.0079544298587	1.9999565331709164
34.0	201.59932155523165	pulse	2.0	t		34.0	male	white	2.651014723438122	smiling	121	sub-05	1.0	1.0	121_smiling	1.0	325.1080772538389	
34.0	202.29930202534342	pulse	2.0	t		34.0	male	white	2.651014723438122	smiling	121	sub-05	1.0	1.0	121_smiling	1.0	325.8080577239507	
34.0	202.89095379808168	response	2.0	b		34.0	male	white	2.651014723438122	smiling	121	sub-05	1.0	1.0	121_smiling	1.0	326.39970949668896	
34.0	202.9992954751342	pulse	2.0	t		34.0	male	white	2.651014723438122	smiling	121	sub-05	1.0	1.0	121_smiling	1.0	326.5080511737415	
34.0	203.49915526442237	fix	3.0		444	34.0	male	white	2.651014723438122	smiling	121	sub-05	1.0	1.0	121_smiling	1.0	327.00791096302964	3.766692998307917
34.0	203.6992647766856	pulse	3.0	t		34.0	male	white	2.651014723438122	smiling	121	sub-05	1.0	1.0	121_smiling	1.0	327.20802047529287	
34.0	204.39924222826812	pulse	3.0	t		34.0	male	white	2.651014723438122	smiling	121	sub-05	1.0	1.0	121_smiling	1.0	327.9079979268754	
34.0	205.09923899844034	pulse	3.0	t		34.0	male	white	2.651014723438122	smiling	121	sub-05	1.0	1.0	121_smiling	1.0	328.6079946970476	
34.0	205.79920226293143	pulse	3.0	t		34.0	male	white	2.651014723438122	smiling	121	sub-05	1.0	1.0	121_smiling	1.0	329.3079579615387	
34.0	206.4991821293388	pulse	3.0	t		34.0	male	white	2.651014723438122	smiling	121	sub-05	1.0	1.0	121_smiling	1.0	330.0079378279461	
34.0	207.1991834273067	pulse	3.0	t		34.0	male	white	2.651014723438122	smiling	121	sub-05	1.0	1.0	121_smiling	1.0	330.707939125914	
35.0	207.2658482627303	face	0.0		147	22.0	female	west_asian	3.8205332272184642	smiling	066	sub-05	1.0	1.0	066_smiling	0.0	330.77460396133756	1.2415008009684243
35.0	207.89914940847484	pulse	0.0	t		22.0	female	west_asian	3.8205332272184642	smiling	066	sub-05	1.0	1.0	066_smiling	0.0	331.4079051070821	
35.0	208.5073490636987	fix	1.0		443	22.0	female	west_asian	3.8205332272184642	smiling	066	sub-05	1.0	1.0	066_smiling	0.0	332.016104762306	3.7665568626125605
35.0	208.5992488086631	pulse	1.0	t		22.0	female	west_asian	3.8205332272184642	smiling	066	sub-05	1.0	1.0	066_smiling	0.0	332.1080045072704	
35.0	209.29910793387353	pulse	1.0	t		22.0	female	west_asian	3.8205332272184642	smiling	066	sub-05	1.0	1.0	066_smiling	0.0	332.8078636324808	
35.0	209.9990878002809	pulse	1.0	t		22.0	female	west_asian	3.8205332272184642	smiling	066	sub-05	1.0	1.0	066_smiling	0.0	333.5078434988882	
35.0	210.6990700815095	pulse	1.0	t		22.0	female	west_asian	3.8205332272184642	smiling	066	sub-05	1.0	1.0	066_smiling	0.0	334.20782578011676	
35.0	211.39905145718149	pulse	1.0	t		22.0	female	west_asian	3.8205332272184642	smiling	066	sub-05	1.0	1.0	066_smiling	0.0	334.90780715578876	
35.0	212.09903132358704	pulse	1.0	t		22.0	female	west_asian	3.8205332272184642	smiling	066	sub-05	1.0	1.0	066_smiling	0.0	335.6077870221943	
36.0	212.27390592631127	face	0.0		146	20.0	female	white	3.9502586549940313	neutral	091	sub-05	1.0	1.0	091_neutral	0.0	335.78266162491855	1.2416399551930226
36.0	212.79902054743616	pulse	0.0	t		20.0	female	white	3.9502586549940313	neutral	091	sub-05	1.0	1.0	091_neutral	0.0	336.30777624604343	
36.0	213.49900101754793	pulse	0.0	t		20.0	female	white	3.9502586549940313	neutral	091	sub-05	1.0	1.0	091_neutral	0.0	337.0077567161552	
36.0	213.5155458815043	fix	1.0		443	20.0	female	white	3.9502586549940313	neutral	091	sub-05	1.0	1.0	091_neutral	0.0	337.02430158011157	3.7582290406116954
36.0	214.1989832987765	pulse	1.0	t		20.0	female	white	3.9502586549940313	neutral	091	sub-05	1.0	1.0	091_neutral	0.0	337.7077389973838	
36.0	214.89895682626957	pulse	1.0	t		20.0	female	white	3.9502586549940313	neutral	091	sub-05	1.0	1.0	091_neutral	0.0	338.40771252487684	
36.0	215.59894242788323	pulse	1.0	t		20.0	female	white	3.9502586549940313	neutral	091	sub-05	1.0	1.0	091_neutral	0.0	339.1076981264905	
36.0	216.29892078502417	pulse	1.0	t		20.0	female	white	3.9502586549940313	neutral	091	sub-05	1.0	1.0	091_neutral	0.0	339.80767648363144	
36.0	216.99890910331305	pulse	1.0	t		20.0	female	white	3.9502586549940313	neutral	091	sub-05	1.0	1.0	091_neutral	0.0	340.5076648019203	
37.0	217.273774922116	face	0.0		145	47.0	male	east_asian	2.171110226820533	neutral	024	sub-05	1.0	1.0	024_neutral	0.0	340.78253062072326	1.233312435044354
37.0	217.6988883660124	pulse	0.0	t		47.0	male	east_asian	2.171110226820533	neutral	024	sub-05	1.0	1.0	024_neutral	0.0	341.20764406461967	
37.0	218.39887940098015	pulse	0.0	t		47.0	male	east_asian	2.171110226820533	neutral	024	sub-05	1.0	1.0	024_neutral	0.0	341.9076350995874	
37.0	218.50708735716034	fix	1.0		444	47.0	male	east_asian	2.171110226820533	neutral	024	sub-05	1.0	1.0	024_neutral	0.0	342.0158430557676	3.7665526366708946
37.0	219.09883481729412	pulse	1.0	t		47.0	male	east_asian	2.171110226820533	neutral	024	sub-05	1.0	1.0	024_neutral	0.0	342.6075905159014	
37.0	219.7988403412037	pulse	1.0	t		47.0	male	east_asian	2.171110226820533	neutral	024	sub-05	1.0	1.0	024_neutral	0.0	343.30759603981096	
37.0	220.4988117557259	pulse	1.0	t		47.0	male	east_asian	2.171110226820533	neutral	024	sub-05	1.0	1.0	024_neutral	0.0	344.0075674543332	
37.0	221.19879645177934	pulse	1.0	t		47.0	male	east_asian	2.171110226820533	neutral	024	sub-05	1.0	1.0	024_neutral	0.0	344.7075521503866	
37.0	221.8987702811246	pulse	1.0	t		47.0	male	east_asian	2.171110226820533	neutral	024	sub-05	1.0	1.0	024_neutral	0.0	345.4075259797319	
38.0	222.27363999383124	face	0.0		145	20.0	male	black	2.609629924393156	neutral	043	sub-05	1.0	1.0	043_neutral	0.0	345.7823956924385	1.2333133406027628
38.0	222.5987963310381	pulse	0.0	t		20.0	male	black	2.609629924393156	neutral	043	sub-05	1.0	1.0	043_neutral	0.0	346.1075520296454	
38.0	223.2987348435854	pulse	0.0	t		20.0	male	black	2.609629924393156	neutral	043	sub-05	1.0	1.0	043_neutral	0.0	346.8074905421927	
38.0	223.506953334434	fix	1.0		444	20.0	male	black	2.609629924393156	neutral	043	sub-05	1.0	1.0	043_neutral	0.0	347.0157090330413	3.766548712583244
38.0	223.99871863408043	pulse	1.0	t		20.0	male	black	2.609629924393156	neutral	043	sub-05	1.0	1.0	043_neutral	0.0	347.5074743326877	
38.0	224.6986936708381	pulse	1.0	t		20.0	male	black	2.609629924393156	neutral	043	sub-05	1.0	1.0	043_neutral	0.0	348.2074493694454	
38.0	225.39868319653942	pulse	1.0	t		20.0	male	black	2.609629924393156	neutral	043	sub-05	1.0	1.0	043_neutral	0.0	348.9074388951467	
38.0	226.0986515925324	pulse	1.0	t		20.0	male	black	2.609629924393156	neutral	043	sub-05	1.0	1.0	043_neutral	0.0	349.6074072911397	
38.0	226.79863809970266	pulse	1.0	t		20.0	male	black	2.609629924393156	neutral	043	sub-05	1.0	1.0	043_neutral	0.0	350.30739379830993	
39.0	227.27350204701725	face	0.0		145	37.0	male	white	3.898925586947871	neutral	101	sub-05	1.0	1.0	101_neutral	0.0	350.7822577456245	1.2333154535735957
39.0	227.49862460687473	pulse	0.0	t		37.0	male	white	3.898925586947871	neutral	101	sub-05	1.0	1.0	101_neutral	0.0	351.007380305482	
39.0	228.1986105103406	pulse	0.0	t		37.0	male	white	3.898925586947871	neutral	101	sub-05	1.0	1.0	101_neutral	0.0	351.70736620894786	
39.0	228.50681750059084	fix	1.0		444	37.0	male	white	3.898925586947871	neutral	101	sub-05	1.0	1.0	101_neutral	0.0	352.0155731991981	3.749899407494013
39.0	228.89858615080448	pulse	1.0	t		37.0	male	white	3.898925586947871	neutral	101	sub-05	1.0	1.0	101_neutral	0.0	352.40734184941175	
39.0	229.59859891918677	pulse	1.0	t		37.0	male	white	3.898925586947871	neutral	101	sub-05	1.0	1.0	101_neutral	0.0	353.10735461779404	
39.0	230.29854829844044	pulse	1.0	t		37.0	male	white	3.898925586947871	neutral	101	sub-05	1.0	1.0	101_neutral	0.0	353.8073039970477	
39.0	230.99852635372918	pulse	1.0	t		37.0	male	white	3.898925586947871	neutral	101	sub-05	1.0	1.0	101_neutral	0.0	354.50728205233645	
39.0	231.6985035034577	pulse	1.0	t		37.0	male	white	3.898925586947871	neutral	101	sub-05	1.0	1.0	101_neutral	0.0	355.20725920206496	
40.0	232.25671690808485	fix	0.0		720												355.76547260669213	5.99983760309442
40.0	232.39849121804036	pulse	0.0	t													355.90724691664764	
40.0	233.09847289556456	pulse	0.0	t													356.60722859417183	
40.0	233.79844883788246	pulse	0.0	t													357.30720453648973	
40.0	234.498428402434	pulse	0.0	t													358.0071841010413	
40.0	235.19840585401653	pulse	0.0	t													358.7071615526238	
40.0	235.8984113779261	pulse	0.0	t													359.40716707653337	
40.0	236.5983758498296	pulse	0.0	t													360.1071315484369	
40.0	237.29836416812032	pulse	0.0	t													360.8071198667276	
40.0	237.99835761790928	pulse	0.0	t													361.50711331651655	
