trial_nr	onset	event_type	phase	response	nr_frames	trial_type	stim_name	task_probe	onset_abs	duration
0.0	0.05908832550358056	baseline	0.0		700		baseline	0.0	29.739926184870455	5.841234989228269
0.0	-0.0030559596193597827	response	0.0	y			baseline	0.0	29.677781899747515	
0.0	0.7006240206756047	pulse	0.0	t			baseline	0.0	30.38146188004248	
0.0	1.4005362720126868	pulse	0.0	t			baseline	0.0	31.08137413137956	
0.0	2.1005369662748308	pulse	0.0	t			baseline	0.0	31.781374825641706	
0.0	2.8005367549776565	pulse	0.0	t			baseline	0.0	32.48137461434453	
0.0	3.5004936805567013	pulse	0.0	t			baseline	0.0	33.181331539923576	
0.0	4.200500713731344	pulse	0.0	t			baseline	0.0	33.88133857309822	
0.0	4.900464280075994	pulse	0.0	t			baseline	0.0	34.58130213944287	
0.0	5.600454107630412	pulse	0.0	t			baseline	0.0	35.28129196699729	
0.0	5.90032331473185	ISI	1.0		5		baseline	0.0	35.581161174098725	0.1250172433519765
1.0	6.025340558083826	number	0.0		45	character	number-7.jpg	0.0	35.7061784174507	0.3749300833023881
1.0	6.3003853757059005	pulse	0.0	t		character	number-7.jpg	0.0	35.981223235072775	
1.0	6.400270641386214	ISI	1.0		232	character	number-7.jpg	0.0	36.08110850075309	2.0166317976159007
1.0	7.000369769906229	pulse	1.0	t		character	number-7.jpg	0.0	36.6812076292731	
1.0	7.700343599252392	pulse	1.0	t		character	number-7.jpg	0.0	37.38118145861927	
2.0	8.416902439002115	limb	0.0		45	body	limb-47.jpg	0.0	38.09774029836899	0.3833049943691549
2.0	8.40872916572971	pulse	0.0	t		body	limb-47.jpg	0.0	38.089567025096585	
2.0	8.80020743337127	ISI	1.0		234	body	limb-47.jpg	0.0	38.481045292738145	2.0166239494383262
2.0	9.100329593274182	pulse	1.0	t		body	limb-47.jpg	0.0	38.78116745264106	
2.0	9.80028983923603	pulse	1.0	t		body	limb-47.jpg	0.0	39.481127698602904	
2.0	10.500305928000216	pulse	1.0	t		body	limb-47.jpg	0.0	40.18114378736709	
3.0	10.816831382809596	number	0.0		46	character	number-28.jpg	0.0	40.49766924217647	0.3833058999275636
3.0	11.20013728273716	ISI	1.0		233	character	number-28.jpg	0.0	40.880975142104035	2.0166728496224096
3.0	11.249268081974606	pulse	1.0	t		character	number-28.jpg	0.0	40.93010594134148	
3.0	11.900224608805729	pulse	1.0	t		character	number-28.jpg	0.0	41.581062468172604	
3.0	12.600284466253015	pulse	1.0	t		character	number-28.jpg	0.0	42.28112232561989	
4.0	13.21681013235957	house	0.0		46	place	house-97.jpg	0.0	42.897647991726444	0.3832754127761291
4.0	13.300210904680625	pulse	0.0	t		place	house-97.jpg	0.0	42.9810487640475	
4.0	13.600085545135698	ISI	1.0		232	place	house-97.jpg	0.0	43.28092340450257	2.0166173086727213
4.0	14.000184734026789	pulse	1.0	t		place	house-97.jpg	0.0	43.681022593393664	
4.0	14.700173957874995	pulse	1.0	t		place	house-97.jpg	0.0	44.38101181724187	
4.0	15.400135713101918	pulse	1.0	t		place	house-97.jpg	0.0	45.08097357246879	
5.0	15.61670285380842	car	0.0		46	object	car-11.jpg	0.0	45.297540713175295	0.3833228036951368
5.0	16.000025657503556	ISI	1.0		353	object	car-11.jpg	0.0	45.68086351687043	3.016589236345226
5.0	16.10014214257035	pulse	1.0	t		object	car-11.jpg	0.0	45.78098000193722	
5.0	16.800096351472803	pulse	1.0	t		object	car-11.jpg	0.0	46.48093421083968	
5.0	17.500078934555404	pulse	1.0	t		object	car-11.jpg	0.0	47.18091679392228	
5.0	18.200056386137476	pulse	1.0	t		object	car-11.jpg	0.0	47.88089424550435	
5.0	18.900037761808107	pulse	1.0	t		object	car-11.jpg	0.0	48.58087562117498	
6.0	19.016614893848782	limb	0.0		46	body	limb-91.jpg	0.0	48.69745275321566	0.3833234074008942
6.0	19.399938301249676	ISI	1.0		234	body	limb-91.jpg	0.0	49.08077616061655	2.024991917886382
6.0	19.60012569158289	pulse	1.0	t		body	limb-91.jpg	0.0	49.280963550949764	
6.0	20.30007808936716	pulse	1.0	t		body	limb-91.jpg	0.0	49.98091594873404	
6.0	21.00006218171484	pulse	1.0	t		body	limb-91.jpg	0.0	50.68090004108171	
7.0	21.42493021913606	limb	0.0		45	body	limb-38.jpg	0.0	51.10576807850293	0.3749632871308677
7.0	21.69999827943775	pulse	0.0	t		body	limb-38.jpg	0.0	51.380836138804625	
7.0	21.799893506266926	ISI	1.0		232	body	limb-38.jpg	0.0	51.4807313656338	2.01662364758522
7.0	22.40001889599671	pulse	1.0	t		body	limb-38.jpg	0.0	52.080856755363584	
7.0	23.099998158696508	pulse	1.0	t		body	limb-38.jpg	0.0	52.78083601806338	
8.0	23.816517153852146	car	0.0		45	object	car-64.jpg	0.0	53.49735501321902	0.38331495551756234
8.0	23.808677126274688	pulse	0.0	t		object	car-64.jpg	0.0	53.48951498564156	
8.0	24.19983210936971	ISI	1.0		354	object	car-64.jpg	0.0	53.88066996873658	3.01660100861136
8.0	24.499963324862165	pulse	1.0	t		object	car-64.jpg	0.0	54.18080118422904	
8.0	25.199941078297343	pulse	1.0	t		object	car-64.jpg	0.0	54.88077893766422	
8.0	25.900223703246866	pulse	1.0	t		object	car-64.jpg	0.0	55.58106156261374	
8.0	26.599909564845348	pulse	1.0	t		object	car-64.jpg	0.0	56.28074742421222	
9.0	27.21643311798107	adult	0.0		46	face	adult-28.jpg	0.0	56.897270977347944	0.3832760164823412
9.0	27.299857132982197	pulse	0.0	t		face	adult-28.jpg	0.0	56.98069499234907	
9.0	27.59970913446341	ISI	1.0		352	face	adult-28.jpg	0.0	57.280546993830285	3.01659829193477
9.0	28.00813433423764	pulse	1.0	t		face	adult-28.jpg	0.0	57.68897219360451	
9.0	28.708137443323267	pulse	1.0	t		face	adult-28.jpg	0.0	58.38897530269014	
9.0	29.39979582664091	pulse	1.0	t		face	adult-28.jpg	0.0	59.080633686007786	
9.0	30.09974852627829	pulse	1.0	t		face	adult-28.jpg	0.0	59.780586385645165	
10.0	30.61630742639818	number	0.0		46	character	number-101.jpg	0.0	60.297145285765055	0.3833143518113502
10.0	30.80807734439395	pulse	0.0	t		character	number-101.jpg	0.0	60.488915203760826	
10.0	30.99962177820953	ISI	1.0		233	character	number-101.jpg	0.0	60.680459637576405	2.0166339105871884
10.0	31.49992197100346	pulse	1.0	t		character	number-101.jpg	0.0	61.180759830370334	
10.0	32.19969748293852	pulse	1.0	t		character	number-101.jpg	0.0	61.88053534230539	
10.0	32.899950828148576	pulse	1.0	t		character	number-101.jpg	0.0	62.58078868751545	
11.0	33.01625568879672	adult	0.0		46	face	adult-114.jpg	0.0	62.69709354816359	0.3833357833732407
11.0	33.39959147216996	ISI	1.0		234	face	adult-114.jpg	0.0	63.080429331536834	2.0166363254106727
11.0	33.59993673161398	pulse	1.0	t		face	adult-114.jpg	0.0	63.280774590980855	
11.0	34.29989818498825	pulse	1.0	t		face	adult-114.jpg	0.0	63.980736044355126	
11.0	34.9998680902454	pulse	1.0	t		face	adult-114.jpg	0.0	64.68070594961227	
12.0	35.41622779758063	car	0.0		46	object	car-95.jpg	0.0	65.0970656569475	0.3832600182745409
12.0	35.707931881440345	pulse	0.0	t		object	car-95.jpg	0.0	65.38876974080722	
12.0	35.79948781585517	ISI	1.0		236	object	car-95.jpg	0.0	65.48032567522205	2.01662093090863
12.0	36.39982842676318	pulse	1.0	t		object	car-95.jpg	0.0	66.08066628613005	
12.0	37.0997648263392	pulse	1.0	t		object	car-95.jpg	0.0	66.78060268570607	
13.0	37.8161087467638	adult	0.0		45	face	adult-44.jpg	0.0	67.49694660613068	0.38332582222483325
13.0	37.80836350102345	pulse	0.0	t		face	adult-44.jpg	0.0	67.48920136039033	
13.0	38.199434568988636	ISI	1.0		595	face	adult-44.jpg	0.0	67.88027242835551	5.024903173108669
13.0	38.49977768527651	pulse	1.0	t		face	adult-44.jpg	0.0	68.18061554464339	
13.0	39.199751514622676	pulse	1.0	t		face	adult-44.jpg	0.0	68.88058937398955	
13.0	39.899683990110134	pulse	1.0	t		face	adult-44.jpg	0.0	69.58052184947701	
13.0	40.59967925101819	pulse	1.0	t		face	adult-44.jpg	0.0	70.28051711038506	
13.0	41.299645835892534	pulse	1.0	t		face	adult-44.jpg	0.0	70.98048369525941	
13.0	41.99974916016936	pulse	1.0	t		face	adult-44.jpg	0.0	71.68058701953623	
13.0	42.69967680600894	pulse	1.0	t		face	adult-44.jpg	0.0	72.38051466537581	
14.0	43.224337742097305	car	0.0		45	object	car-93.jpg	0.0	72.90517560146418	0.3749820020157131
14.0	43.39965908723889	pulse	0.0	t		object	car-93.jpg	0.0	73.08049694660576	
14.0	43.59931974411302	ISI	1.0		234	object	car-93.jpg	0.0	73.28015760347989	2.0166402494996873
14.0	44.09964619811626	pulse	1.0	t		object	car-93.jpg	0.0	73.78048405748314	
14.0	44.79950139923949	pulse	1.0	t		object	car-93.jpg	0.0	74.48033925860636	
14.0	45.49948639714603	pulse	1.0	t		object	car-93.jpg	0.0	75.1803242565129	
15.0	45.615959993612705	car	0.0		46	object	car-107.jpg	0.0	75.29679785297958	0.3832624330980252
15.0	45.99922242671073	ISI	1.0		234	object	car-107.jpg	0.0	75.6800602860776	2.016637230969536
15.0	46.19957100653755	pulse	1.0	t		object	car-107.jpg	0.0	75.88040886590443	
15.0	46.89949714311206	pulse	1.0	t		object	car-107.jpg	0.0	76.58033500247893	
15.0	47.59947308542951	pulse	1.0	t		object	car-107.jpg	0.0	77.28031094479638	
16.0	48.01585965768027	adult	0.0		46	face	adult-110.jpg	0.0	77.69669751704714	0.3832905054259754
16.0	48.299475590808925	pulse	0.0	t		face	adult-110.jpg	0.0	77.9803134501758	
16.0	48.39915016310624	ISI	1.0		234	face	adult-110.jpg	0.0	78.07998802247312	2.0249635437057805
16.0	48.99932747154935	pulse	1.0	t		face	adult-110.jpg	0.0	78.68016533091622	
16.0	49.699428381002235	pulse	1.0	t		face	adult-110.jpg	0.0	79.38026624036911	
17.0	50.42411370681202	limb	0.0		45	body	limb-34.jpg	0.0	80.1049515661789	0.3833131443993807
17.0	50.418762758948105	pulse	0.0	t		body	limb-34.jpg	0.0	80.09960061831498	
17.0	50.8074268512114	ISI	1.0		354	body	limb-34.jpg	0.0	80.48826471057828	3.0249795419140355
17.0	51.09937603969456	pulse	1.0	t		body	limb-34.jpg	0.0	80.78021389906144	
17.0	51.79942865267003	pulse	1.0	t		body	limb-34.jpg	0.0	81.4802665120369	
17.0	52.499263025937125	pulse	1.0	t		body	limb-34.jpg	0.0	82.180100885304	
17.0	53.19939140401175	pulse	1.0	t		body	limb-34.jpg	0.0	82.88022926337862	
18.0	53.83240639312544	limb	0.0		45	body	limb-18.jpg	0.0	83.51324425249231	0.37496117415957997
18.0	53.89971779764437	pulse	0.0	t		body	limb-18.jpg	0.0	83.58055565701125	
18.0	54.20736756728502	ISI	1.0		954	body	limb-18.jpg	0.0	83.8882054266519	8.016466684033276
18.0	54.59919990847811	pulse	1.0	t		body	limb-18.jpg	0.0	84.28003776784499	
18.0	55.29916649335246	pulse	1.0	t		body	limb-18.jpg	0.0	84.98000435271933	
18.0	55.999150585700136	pulse	1.0	t		body	limb-18.jpg	0.0	85.67998844506701	
18.0	56.699131659518116	pulse	1.0	t		body	limb-18.jpg	0.0	86.37996951888499	
18.0	57.39911363889496	pulse	1.0	t		body	limb-18.jpg	0.0	87.07995149826183	
18.0	58.099090788623926	pulse	1.0	t		body	limb-18.jpg	0.0	87.7799286479908	
18.0	58.79911774409538	pulse	1.0	t		body	limb-18.jpg	0.0	88.47995560346226	
18.0	59.49904659734693	pulse	1.0	t		body	limb-18.jpg	0.0	89.17988445671381	
18.0	60.19902676560605	pulse	1.0	t		body	limb-18.jpg	0.0	89.87986462497292	
18.0	60.89901176351259	pulse	1.0	t		body	limb-18.jpg	0.0	90.57984962287946	
18.0	61.59900853368572	pulse	1.0	t		body	limb-18.jpg	0.0	91.2798463930526	
19.0	62.223834251318294	house	0.0		46	place	house-45.jpg	0.0	91.90467211068517	0.38327209239378135
19.0	62.29904092251081	pulse	0.0	t		place	house-45.jpg	0.0	91.97987878187769	
19.0	62.607106343712076	ISI	1.0		473	place	house-45.jpg	0.0	92.28794420307895	4.01659285858068
19.0	62.99907361318901	pulse	1.0	t		place	house-45.jpg	0.0	92.67991147255589	
19.0	63.69889319565982	pulse	1.0	t		place	house-45.jpg	0.0	93.3797310550267	
19.0	64.39904360900255	pulse	1.0	t		place	house-45.jpg	0.0	94.07988146836942	
19.0	65.0990171364956	pulse	1.0	t		place	house-45.jpg	0.0	94.77985499586248	
19.0	65.79883309673096	pulse	1.0	t		place	house-45.jpg	0.0	95.47967095609783	
19.0	66.49888480414711	pulse	1.0	t		place	house-45.jpg	0.0	96.17972266351399	
20.0	66.62369920229276	adult	0.0		46	face	adult-80.jpg	0.0	96.30453706165963	0.38331103142900247
20.0	67.00701023372176	ISI	1.0		355	face	adult-80.jpg	0.0	96.68784809308863	3.02496867520631
20.0	67.19877652948117	pulse	1.0	t		face	adult-80.jpg	0.0	96.87961438884804	
20.0	67.89881887945512	pulse	1.0	t		face	adult-80.jpg	0.0	97.579656738822	
20.0	68.59882349780582	pulse	1.0	t		face	adult-80.jpg	0.0	98.2796613571727	
20.0	69.29877831041404	pulse	1.0	t		face	adult-80.jpg	0.0	98.97961616978091	
20.0	69.99874157490558	pulse	1.0	t		face	adult-80.jpg	0.0	99.67957943427245	
21.0	70.03197890892807	limb	0.0		45	body	limb-3.jpg	0.0	99.71281676829494	0.3749738519850325
21.0	70.4069527609131	ISI	1.0		233	body	limb-3.jpg	0.0	100.08779062027997	2.0166342124398398
21.0	70.6987664174062	pulse	1.0	t		body	limb-3.jpg	0.0	100.37960427677308	
21.0	71.39872485225033	pulse	1.0	t		body	limb-3.jpg	0.0	101.0795627116172	
21.0	72.09870411495012	pulse	1.0	t		body	limb-3.jpg	0.0	101.779541974317	
22.0	72.42358697335294	car	0.0		46	object	car-97.jpg	0.0	102.10442483271981	0.38325971642143486
22.0	72.79865892755834	pulse	0.0	t		object	car-97.jpg	0.0	102.47949678692521	
22.0	72.80684668977437	ISI	1.0		236	object	car-97.jpg	0.0	102.48768454914125	2.016616704966964
22.0	73.49866173479131	pulse	1.0	t		object	car-97.jpg	0.0	103.17949959415819	
22.0	74.19861443442869	pulse	1.0	t		object	car-97.jpg	0.0	103.87945229379557	
23.0	74.82346339474134	car	0.0		46	object	car-97.jpg	1.0	104.50430125410821	0.38331525737021366
23.0	74.89865346401939	pulse	0.0	t		object	car-97.jpg	1.0	104.57949132338626	
23.0	75.20677865211155	ISI	1.0		234	object	car-97.jpg	1.0	104.88761651147843	2.016641456911657
23.0	75.40687820322592	response	1.0	b		object	car-97.jpg	1.0	105.08771606259279	
23.0	75.59852526705663	pulse	1.0	t		object	car-97.jpg	1.0	105.2793631264235	
23.0	76.29853622432029	pulse	1.0	t		object	car-97.jpg	1.0	105.97937408368716	
23.0	76.99849103692804	pulse	1.0	t		object	car-97.jpg	1.0	106.67932889629492	
24.0	77.22342010902321	house	0.0		46	place	house-17.jpg	0.0	106.90425796839008	0.3832962406322622
24.0	77.60671634965547	ISI	1.0		355	place	house-17.jpg	0.0	107.28755420902235	3.0166272698211287
24.0	77.69848901451314	pulse	1.0	t		place	house-17.jpg	0.0	107.37932687388002	
24.0	78.39846103274158	pulse	1.0	t		place	house-17.jpg	0.0	108.07929889210845	
24.0	79.09854383101538	pulse	1.0	t		place	house-17.jpg	0.0	108.77938169038225	
24.0	79.79852037703859	pulse	1.0	t		place	house-17.jpg	0.0	109.47935823640546	
24.0	80.49851593979929	pulse	1.0	t		place	house-17.jpg	0.0	110.17935379916617	
25.0	80.6233436194766	limb	0.0		46	body	limb-32.jpg	0.0	110.30418147884347	0.3832865813369608
25.0	81.00663020081356	ISI	1.0		233	body	limb-32.jpg	0.0	110.68746806018044	2.0166387402346118
25.0	81.19848614691	pulse	1.0	t		body	limb-32.jpg	0.0	110.87932400627687	
25.0	81.89839749268822	pulse	1.0	t		body	limb-32.jpg	0.0	111.5792353520551	
25.0	82.59838460356559	pulse	1.0	t		body	limb-32.jpg	0.0	112.27922246293247	
26.0	83.02326894104817	car	0.0		46	object	car-124.jpg	0.0	112.70410680041505	0.38329533507339875
26.0	83.2983548106763	pulse	0.0	t		object	car-124.jpg	0.0	112.97919267004318	
26.0	83.40656427612157	ISI	1.0		354	object	car-124.jpg	0.0	113.08740213548845	3.0165753511078037
26.0	83.99833558264118	pulse	1.0	t		object	car-124.jpg	0.0	113.67917344200805	
26.0	84.6983356731971	pulse	1.0	t		object	car-124.jpg	0.0	114.37917353256398	
26.0	85.39828444874547	pulse	1.0	t		object	car-124.jpg	0.0	115.07912230811235	
26.0	86.09825676882656	pulse	1.0	t		object	car-124.jpg	0.0	115.77909462819343	
27.0	86.42313962722938	limb	0.0		46	body	limb-101.jpg	0.0	116.10397748659625	0.38335751678823726
27.0	86.79828281873915	pulse	0.0	t		body	limb-101.jpg	0.0	116.47912067810603	
27.0	86.80649714401761	ISI	1.0		354	body	limb-101.jpg	0.0	116.48733500338449	3.016623345732569
27.0	87.49828713523675	pulse	1.0	t		body	limb-101.jpg	0.0	117.17912499460363	
27.0	88.19830231844207	pulse	1.0	t		body	limb-101.jpg	0.0	117.87914017780895	
27.0	88.89825954587423	pulse	1.0	t		body	limb-101.jpg	0.0	118.5790974052411	
27.0	89.5982499771344	pulse	1.0	t		body	limb-101.jpg	0.0	119.27908783650128	
28.0	89.82312048975018	number	0.0		46	character	number-127.jpg	0.0	119.50395834911706	0.38326364050999473
28.0	90.20638413026018	ISI	1.0		353	character	number-127.jpg	0.0	119.88722198962705	3.0166082530831773
28.0	90.29817943409171	pulse	1.0	t		character	number-127.jpg	0.0	119.97901729345858	
28.0	90.99814360414257	pulse	1.0	t		character	number-127.jpg	0.0	120.67898146350944	
28.0	91.69812799834335	pulse	1.0	t		character	number-127.jpg	0.0	121.37896585771023	
28.0	92.39811148698482	pulse	1.0	t		character	number-127.jpg	0.0	122.07894934635169	
28.0	93.09806871441697	pulse	1.0	t		character	number-127.jpg	0.0	122.77890657378384	
29.0	93.22299238334335	car	0.0		46	object	car-73.jpg	0.0	122.90383024271023	0.3832974480442317
29.0	93.60628983138758	ISI	1.0		233	object	car-73.jpg	0.0	123.28712769075446	2.016642060617869
29.0	93.79805974938336	pulse	1.0	t		object	car-73.jpg	0.0	123.47889760875023	
29.0	94.498066782558	pulse	1.0	t		object	car-73.jpg	0.0	124.17890464192487	
29.0	95.19800378583977	pulse	1.0	t		object	car-73.jpg	0.0	124.87884164520665	
30.0	95.62293189200545	number	0.0		46	character	number-117.jpg	0.0	125.30376975137233	0.3833200870180917
30.0	95.89813005094356	pulse	0.0	t		character	number-117.jpg	0.0	125.57896791031044	
30.0	96.00625197902355	ISI	1.0		714	character	number-117.jpg	0.0	125.68708983839042	6.016541543573567
30.0	96.59804743378163	pulse	1.0	t		character	number-117.jpg	0.0	126.2788852931485	
30.0	97.29805386325006	pulse	1.0	t		character	number-117.jpg	0.0	126.97889172261694	
30.0	97.99800988327024	pulse	1.0	t		character	number-117.jpg	0.0	127.67884774263712	
30.0	98.69798612744034	pulse	1.0	t		character	number-117.jpg	0.0	128.37882398680722	
30.0	99.3979780679656	pulse	1.0	t		character	number-117.jpg	0.0	129.07881592733247	
30.0	100.09796397143145	pulse	1.0	t		character	number-117.jpg	0.0	129.77880183079833	
30.0	100.79794383783701	pulse	1.0	t		character	number-117.jpg	0.0	130.47878169720389	
30.0	101.4979131393884	pulse	1.0	t		character	number-117.jpg	0.0	131.17875099875528	
31.0	102.02279352259711	house	0.0		46	place	house-33.jpg	0.0	131.703631381964	0.3832663571865851
31.0	102.1978262962848	pulse	0.0	t		place	house-33.jpg	0.0	131.87866415565168	
31.0	102.4060598797837	ISI	1.0		234	place	house-33.jpg	0.0	132.08689773915057	2.0166290809393104
31.0	102.89782910351778	pulse	1.0	t		place	house-33.jpg	0.0	132.57866696288465	
31.0	103.59780414027591	pulse	1.0	t		place	house-33.jpg	0.0	133.2786419996428	
31.0	104.29779094930018	pulse	1.0	t		place	house-33.jpg	0.0	133.97862880866705	
32.0	104.42268896072301	number	0.0		46	character	number-125.jpg	0.0	134.10352682008988	0.3833098240165782
32.0	104.80599878473959	ISI	1.0		233	character	number-125.jpg	0.0	134.48683664410646	2.0166354198518093
32.0	104.99785865492504	pulse	1.0	t		character	number-125.jpg	0.0	134.67869651429191	
32.0	105.69774494690546	pulse	1.0	t		character	number-125.jpg	0.0	135.37858280627233	
32.0	106.39772420960526	pulse	1.0	t		character	number-125.jpg	0.0	136.07856206897213	
33.0	106.8226342045914	car	0.0		46	object	car-6.jpg	0.0	136.50347206395827	0.38328839245514246
33.0	107.09772641313202	pulse	0.0	t		object	car-6.jpg	0.0	136.7785642724989	
33.0	107.20592259704654	ISI	1.0		594	object	car-6.jpg	0.0	136.8867604564134	5.024924604670559
33.0	107.79769903506622	pulse	1.0	t		object	car-6.jpg	0.0	137.4785368944331	
33.0	108.49839278378158	pulse	1.0	t		object	car-6.jpg	0.0	138.17923064314846	
33.0	109.19772517553474	pulse	1.0	t		object	car-6.jpg	0.0	138.87856303490162	
33.0	109.89772677535575	pulse	1.0	t		object	car-6.jpg	0.0	139.57856463472262	
33.0	110.59770241581964	pulse	1.0	t		object	car-6.jpg	0.0	140.27854027518651	
33.0	111.29766205807573	pulse	1.0	t		object	car-6.jpg	0.0	140.9784999174426	
33.0	111.99765279118901	pulse	1.0	t		object	car-6.jpg	0.0	141.6784906505559	
34.0	112.2308472017171	adult	0.0		45	face	adult-27.jpg	0.0	141.91168506108397	0.374963588983519
34.0	112.60581079070062	ISI	1.0		355	face	adult-27.jpg	0.0	142.2866486500675	3.0166203272028724
34.0	112.69763688353669	pulse	1.0	t		face	adult-27.jpg	0.0	142.37847474290356	
34.0	113.39760195914641	pulse	1.0	t		face	adult-27.jpg	0.0	143.0784398185133	
34.0	114.09758061814046	pulse	1.0	t		face	adult-27.jpg	0.0	143.77841847750733	
34.0	114.79757497348965	pulse	1.0	t		face	adult-27.jpg	0.0	144.47841283285652	
34.0	115.49754608615876	pulse	1.0	t		face	adult-27.jpg	0.0	145.17838394552564	
35.0	115.62243111790349	house	0.0		46	place	house-20.jpg	0.0	145.30326897727036	0.3832591127152227
35.0	116.00569023061871	ISI	1.0		234	place	house-20.jpg	0.0	145.6865280899856	2.0166444754413533
35.0	116.19750150247319	pulse	1.0	t		place	house-20.jpg	0.0	145.87833936184006	
35.0	116.8974475613445	pulse	1.0	t		place	house-20.jpg	0.0	146.57828542071138	
35.0	117.59742199439688	pulse	1.0	t		place	house-20.jpg	0.0	147.27825985376376	
36.0	118.02233470606006	adult	0.0		46	face	adult-106.jpg	0.0	147.70317256542694	0.38329986286817075
36.0	118.29747219254841	pulse	0.0	t		face	adult-106.jpg	0.0	147.9783100519153	
36.0	118.40563456892824	ISI	1.0		594	face	adult-106.jpg	0.0	148.0864724282951	5.016589236345226
36.0	118.99741372362496	pulse	1.0	t		face	adult-106.jpg	0.0	148.67825158299183	
36.0	119.69743645315475	pulse	1.0	t		face	adult-106.jpg	0.0	149.37827431252163	
36.0	120.39734176187358	pulse	1.0	t		face	adult-106.jpg	0.0	150.07817962124045	
36.0	121.09731559121974	pulse	1.0	t		face	adult-106.jpg	0.0	150.77815345058661	
36.0	121.79737665607854	pulse	1.0	t		face	adult-106.jpg	0.0	151.47821451544542	
36.0	122.49737674663447	pulse	1.0	t		face	adult-106.jpg	0.0	152.17821460600135	
36.0	123.19734876486291	pulse	1.0	t		face	adult-106.jpg	0.0	152.87818662422978	
37.0	123.42222380527346	number	0.0		46	character	number-84.jpg	0.0	153.10306166464034	0.38326786645166067
37.0	123.80549167172512	ISI	1.0		354	character	number-84.jpg	0.0	153.486329531092	3.0166136864368127
37.0	123.89725679025833	pulse	1.0	t		character	number-84.jpg	0.0	153.5780946496252	
37.0	124.59723967519403	pulse	1.0	t		character	number-84.jpg	0.0	154.2780775345609	
37.0	125.29721773048186	pulse	1.0	t		character	number-84.jpg	0.0	154.97805558984874	
37.0	125.99724046001165	pulse	1.0	t		character	number-84.jpg	0.0	155.67807831937853	
37.0	126.69718410405949	pulse	1.0	t		character	number-84.jpg	0.0	156.37802196342636	
38.0	126.82210535816193	adult	0.0		46	face	adult-5.jpg	0.0	156.5029432175288	0.3832886943077938
38.0	127.20539405246973	ISI	1.0		713	face	adult-5.jpg	0.0	156.8862319118366	6.016569917754168
38.0	127.39718721314512	pulse	1.0	t		face	adult-5.jpg	0.0	157.078025072512	
38.0	128.097206320439	pulse	1.0	t		face	adult-5.jpg	0.0	157.77804417980587	
38.0	128.7971481533691	pulse	1.0	t		face	adult-5.jpg	0.0	158.47798601273598	
38.0	129.49720801081594	pulse	1.0	t		face	adult-5.jpg	0.0	159.1780458701828	
38.0	130.19715527709923	pulse	1.0	t		face	adult-5.jpg	0.0	159.8779931364661	
38.0	130.89713695462297	pulse	1.0	t		face	adult-5.jpg	0.0	160.57797481398984	
38.0	131.59711621732322	pulse	1.0	t		face	adult-5.jpg	0.0	161.2779540766901	
38.0	132.29712687273332	pulse	1.0	t		face	adult-5.jpg	0.0	161.9779647321002	
38.0	132.99711730399395	pulse	1.0	t		face	adult-5.jpg	0.0	162.67795516336082	
39.0	133.2219639702239	number	0.0		46	character	number-4.jpg	0.0	162.90280182959077	0.3832675645985546
39.0	133.60523153482245	ISI	1.0		474	character	number-4.jpg	0.0	163.28606939418933	4.016586821521287
39.0	133.69704012018565	pulse	1.0	t		character	number-4.jpg	0.0	163.37787797955252	
39.0	134.39698316052727	pulse	1.0	t		character	number-4.jpg	0.0	164.07782101989415	
39.0	135.0969584991385	pulse	1.0	t		character	number-4.jpg	0.0	164.77779635850538	
39.0	135.79695043966376	pulse	1.0	t		character	number-4.jpg	0.0	165.47778829903064	
39.0	136.49691943936205	pulse	1.0	t		character	number-4.jpg	0.0	166.17775729872892	
39.0	137.196945187422	pulse	1.0	t		character	number-4.jpg	0.0	166.87778304678886	
40.0	137.62181835634374	limb	0.0		46	body	limb-40.jpg	0.0	167.3026562157106	0.38328627948385474
40.0	137.89690090558906	pulse	0.0	t		body	limb-40.jpg	0.0	167.57773876495594	
40.0	138.0051046358276	ISI	1.0		354	body	limb-40.jpg	0.0	167.68594249519447	3.016654738442867
40.0	138.5968693015816	pulse	1.0	t		body	limb-40.jpg	0.0	168.27770716094847	
40.0	139.29693881832372	pulse	1.0	t		body	limb-40.jpg	0.0	168.9777766776906	
40.0	139.9968878957252	pulse	1.0	t		body	limb-40.jpg	0.0	169.67772575509207	
40.0	140.69687530845567	pulse	1.0	t		body	limb-40.jpg	0.0	170.37771316782255	
41.0	141.02175937427046	house	0.0		46	place	house-29.jpg	0.0	170.70259723363733	0.38326575348128245
41.0	141.39680084132442	pulse	0.0	t		place	house-29.jpg	0.0	171.0776387006913	
41.0	141.40502512775174	ISI	1.0		354	place	house-29.jpg	0.0	171.08586298711862	3.0166112716128737
41.0	142.09679338555588	pulse	1.0	t		place	house-29.jpg	0.0	171.77763124492276	
41.0	142.7967961927884	pulse	1.0	t		place	house-29.jpg	0.0	172.47763405215528	
41.0	143.49674647760185	pulse	1.0	t		place	house-29.jpg	0.0	173.17758433696872	
41.0	144.19672724956672	pulse	1.0	t		place	house-29.jpg	0.0	173.8775651089336	
42.0	144.42163639936462	car	0.0		46	object	car-69.jpg	0.0	174.1024742587315	0.3832868831900669
42.0	144.80492328255468	ISI	1.0		233	object	car-69.jpg	0.0	174.48576114192156	2.0166287790857496
42.0	144.89671707712114	pulse	1.0	t		object	car-69.jpg	0.0	174.577554936488	
42.0	145.59668336014283	pulse	1.0	t		object	car-69.jpg	0.0	175.2775212195097	
42.0	146.29666865990248	pulse	1.0	t		object	car-69.jpg	0.0	175.97750651926935	
43.0	146.82155206164043	adult	0.0		46	face	adult-50.jpg	0.0	176.5023899210073	0.38334815934604194
43.0	146.99668897460833	pulse	0.0	t		face	adult-50.jpg	0.0	176.6775268339752	
43.0	147.20490022098647	ISI	1.0		474	face	adult-50.jpg	0.0	176.88573808035335	4.024904682373744
43.0	147.69670264854858	pulse	1.0	t		face	adult-50.jpg	0.0	177.37754050791546	
43.0	148.3966804019833	pulse	1.0	t		face	adult-50.jpg	0.0	178.07751826135018	
43.0	149.09666389062522	pulse	1.0	t		face	adult-50.jpg	0.0	178.7775017499921	
43.0	149.79663953108957	pulse	1.0	t		face	adult-50.jpg	0.0	179.47747739045644	
43.0	150.4966375086742	pulse	1.0	t		face	adult-50.jpg	0.0	180.1774753680411	
43.0	151.1966089231969	pulse	1.0	t		face	adult-50.jpg	0.0	180.87744678256377	
44.0	151.22980490336022	number	0.0		45	character	number-119.jpg	0.0	180.9106427627271	0.37498260572147046
44.0	151.6047875090817	ISI	1.0		474	character	number-119.jpg	0.0	181.28562536844856	4.016576558519773
44.0	151.89658426180767	pulse	1.0	t		character	number-119.jpg	0.0	181.57742212117455	
44.0	152.59656171338975	pulse	1.0	t		character	number-119.jpg	0.0	182.27739957275662	
44.0	153.29655305020924	pulse	1.0	t		character	number-119.jpg	0.0	182.97739090957612	
44.0	153.99652114434866	pulse	1.0	t		character	number-119.jpg	0.0	183.67735900371554	
44.0	154.69651368858013	pulse	1.0	t		character	number-119.jpg	0.0	184.377351547947	
44.0	155.39648993275023	pulse	1.0	t		character	number-119.jpg	0.0	185.0773277921171	
45.0	155.62136406760146	house	0.0		46	place	house-60.jpg	0.0	185.30220192696834	0.38327541277658383
45.0	156.00463948037805	ISI	1.0		234	place	house-60.jpg	0.0	185.68547733974492	2.016636929116885
45.0	156.09640490076436	pulse	1.0	t		place	house-60.jpg	0.0	185.77724276013123	
45.0	156.79638778570006	pulse	1.0	t		place	house-60.jpg	0.0	186.47722564506694	
45.0	157.4963625206051	pulse	1.0	t		place	house-60.jpg	0.0	187.17720037997196	
46.0	158.02127640949493	number	0.0		46	character	number-10.jpg	0.0	187.7021142688618	0.3833040888098367
46.0	158.19634993333557	pulse	0.0	t		character	number-10.jpg	0.0	187.87718779270244	
46.0	158.40458049830477	ISI	1.0		234	character	number-10.jpg	0.0	188.08541835767164	2.0166133845841614
46.0	158.896356362804	pulse	1.0	t		character	number-10.jpg	0.0	188.57719422217087	
46.0	159.59632053285486	pulse	1.0	t		character	number-10.jpg	0.0	189.27715839222174	
46.0	160.29631609561602	pulse	1.0	t		character	number-10.jpg	0.0	189.9771539549829	
47.0	160.42119388288893	number	0.0		46	character	number-80.jpg	0.0	190.1020317422558	0.38330891845771475
47.0	160.80450280134664	ISI	1.0		473	character	number-80.jpg	0.0	190.48534066071352	4.016627269821129
47.0	160.9963038101996	pulse	1.0	t		character	number-80.jpg	0.0	190.67714166956648	
47.0	161.69634857499705	pulse	1.0	t		character	number-80.jpg	0.0	191.37718643436392	
47.0	162.3963175746958	pulse	1.0	t		character	number-80.jpg	0.0	192.07715543406266	
47.0	163.09628778180604	pulse	1.0	t		character	number-80.jpg	0.0	192.77712564117292	
47.0	163.7962933057156	pulse	1.0	t		character	number-80.jpg	0.0	193.47713116508248	
47.0	164.4962562683545	pulse	1.0	t		character	number-80.jpg	0.0	194.17709412772138	
48.0	164.82113007116777	adult	0.0		46	face	adult-142.jpg	0.0	194.50196793053465	0.3832736016584022
48.0	165.19619840313726	pulse	0.0	t		face	adult-142.jpg	0.0	194.87703626250413	
48.0	165.20440367282617	ISI	1.0		234	face	adult-142.jpg	0.0	194.88524153219305	2.016621232761736
48.0	165.89617766583706	pulse	1.0	t		face	adult-142.jpg	0.0	195.57701552520393	
48.0	166.5961530044483	pulse	1.0	t		face	adult-142.jpg	0.0	196.27699086381517	
49.0	167.2210249055879	house	0.0		46	place	house-22.jpg	0.0	196.90186276495479	0.3833131443993807
49.0	167.2961389079137	pulse	0.0	t		place	house-22.jpg	0.0	196.97697676728058	
49.0	167.6043380499873	ISI	1.0		235	place	house-22.jpg	0.0	197.28517590935417	2.016612177172192
49.0	167.9961184724666	pulse	1.0	t		place	house-22.jpg	0.0	197.67695633183348	
49.0	168.6960717758102	pulse	1.0	t		place	house-22.jpg	0.0	198.37690963517707	
49.0	169.39607850713173	pulse	1.0	t		place	house-22.jpg	0.0	199.0769163664986	
50.0	169.62095022715948	limb	0.0		46	body	limb-99.jpg	0.0	199.30178808652636	0.3833237092540003
50.0	170.00427393641348	ISI	1.0		472	body	limb-99.jpg	0.0	199.68511179578036	4.016595575257725
50.0	170.09603784753472	pulse	1.0	t		body	limb-99.jpg	0.0	199.7768757069016	
50.0	170.79601167688088	pulse	1.0	t		body	limb-99.jpg	0.0	200.47684953624776	
50.0	171.4960926640365	pulse	1.0	t		body	limb-99.jpg	0.0	201.17693052340337	
50.0	172.19605834335198	pulse	1.0	t		body	limb-99.jpg	0.0	201.87689620271885	
50.0	172.89604092643503	pulse	1.0	t		body	limb-99.jpg	0.0	202.5768787858019	
50.0	173.59603165954832	pulse	1.0	t		body	limb-99.jpg	0.0	203.2768695189152	
51.0	174.0208695116712	number	0.0		46	character	number-17.jpg	0.0	203.70170737103808	0.3832883924546877
51.0	174.29592157376464	pulse	0.0	t		character	number-17.jpg	0.0	203.97675943313152	
51.0	174.4041579041259	ISI	1.0		354	character	number-17.jpg	0.0	204.08499576349277	3.016582595579621
51.0	174.99594007735277	pulse	1.0	t		character	number-17.jpg	0.0	204.67677793671965	
51.0	175.69591964190568	pulse	1.0	t		character	number-17.jpg	0.0	205.37675750127255	
51.0	176.39587324710192	pulse	1.0	t		character	number-17.jpg	0.0	206.0767111064688	
51.0	177.09584949127202	pulse	1.0	t		character	number-17.jpg	0.0	206.7766873506389	
52.0	177.42074049970552	house	0.0		46	place	house-115.jpg	0.0	207.1015783590724	0.38329865545620123
52.0	177.79586678744818	pulse	0.0	t		place	house-115.jpg	0.0	207.47670464681505	
52.0	177.80403915516172	ISI	1.0		233	place	house-115.jpg	0.0	207.4848770145286	2.0166405513523387
52.0	178.495828240822	pulse	1.0	t		place	house-115.jpg	0.0	208.17666610018887	
52.0	179.1958204831999	pulse	1.0	t		place	house-115.jpg	0.0	208.87665834256677	
53.0	179.82067970651406	limb	0.0		46	body	limb-45.jpg	0.0	209.50151756588093	0.3833496686106628
53.0	179.89579521810538	pulse	0.0	t		body	limb-45.jpg	0.0	209.57663307747225	
53.0	180.20402937512472	ISI	1.0		232	body	limb-45.jpg	0.0	209.8848672344916	2.01664356988249
53.0	180.59584873663925	pulse	1.0	t		body	limb-45.jpg	0.0	210.27668659600613	
53.0	181.2957957010699	pulse	1.0	t		body	limb-45.jpg	0.0	210.97663356043677	
53.0	181.99578100082954	pulse	1.0	t		body	limb-45.jpg	0.0	211.6766188601964	
54.0	182.2206729450072	car	0.0		46	object	car-32.jpg	0.0	211.90151080437408	0.3832497552730274
54.0	182.60392270028024	ISI	1.0		234	object	car-32.jpg	0.0	212.2847605596471	2.016643569882035
54.0	182.69572102264146	pulse	1.0	t		object	car-32.jpg	0.0	212.37655888200834	
54.0	183.39569515384073	pulse	1.0	t		object	car-32.jpg	0.0	213.0765330132076	
54.0	184.09565449424372	pulse	1.0	t		object	car-32.jpg	0.0	213.7764923536106	
55.0	184.62056627016227	car	0.0		46	object	car-36.jpg	0.0	214.30140412952915	0.3833016739863524
55.0	184.7956416051211	pulse	0.0	t		object	car-36.jpg	0.0	214.47647946448797	
55.0	185.00386794414862	ISI	1.0		833	object	car-36.jpg	0.0	214.6847058035155	7.01651981015857
55.0	185.49563445120566	pulse	1.0	t		object	car-36.jpg	0.0	215.17647231057254	
55.0	186.1956109972284	pulse	1.0	t		object	car-36.jpg	0.0	215.8764488565953	
55.0	186.89560082478283	pulse	1.0	t		object	car-36.jpg	0.0	216.5764386841497	
55.0	187.59556107074468	pulse	1.0	t		object	car-36.jpg	0.0	217.27639893011155	
55.0	188.29560945777848	pulse	1.0	t		object	car-36.jpg	0.0	217.97644731714536	
55.0	188.99562162245365	pulse	1.0	t		object	car-36.jpg	0.0	218.67645948182053	
55.0	189.6955634553833	pulse	1.0	t		object	car-36.jpg	0.0	219.37640131475018	
55.0	190.3955729033819	pulse	1.0	t		object	car-36.jpg	0.0	220.07641076274876	
55.0	191.09555065681707	pulse	1.0	t		object	car-36.jpg	0.0	220.77638851618394	
55.0	191.7955235806039	pulse	1.0	t		object	car-36.jpg	0.0	221.4763614399708	
56.0	192.0203877543072	house	0.0		46	place	house-40.jpg	0.0	221.70122561367407	0.3832729979526448
56.0	192.40366075225984	ISI	1.0		236	place	house-40.jpg	0.0	222.0844986116267	2.0166426643231716
56.0	192.4954415671482	pulse	1.0	t		place	house-40.jpg	0.0	222.17627942651507	
56.0	193.1954564485004	pulse	1.0	t		place	house-40.jpg	0.0	222.87629430786728	
56.0	193.89542182596279	pulse	1.0	t		place	house-40.jpg	0.0	223.57625968532966	
57.0	194.420303416583	house	0.0		46	place	house-40.jpg	1.0	224.10114127594989	0.38331284254672937
57.0	194.59539112751418	pulse	0.0	t		place	house-40.jpg	1.0	224.27622898688105	
57.0	194.80361625912974	ISI	1.0		594	place	house-40.jpg	1.0	224.48445411849661	5.016580482608788
57.0	194.89538681101658	response	1.0	b		place	house-40.jpg	1.0	224.57622467038345	
57.0	195.29537914395087	pulse	1.0	t		place	house-40.jpg	1.0	224.97621700331774	
57.0	195.99535961406264	pulse	1.0	t		place	house-40.jpg	1.0	225.6761974734295	
57.0	196.69534068788062	pulse	1.0	t		place	house-40.jpg	1.0	226.3761785472475	
57.0	197.39530817831428	pulse	1.0	t		place	house-40.jpg	1.0	227.07614603768116	
57.0	198.09535233940596	pulse	1.0	t		place	house-40.jpg	1.0	227.77619019877284	
57.0	198.795343676225	pulse	1.0	t		place	house-40.jpg	1.0	228.47618153559188	
57.0	199.49535433163555	pulse	1.0	t		place	house-40.jpg	1.0	229.17619219100243	
58.0	199.82019674173853	house	0.0		46	place	house-127.jpg	0.0	229.5010346011054	0.383266055333479
58.0	200.19527412929756	pulse	0.0	t		place	house-127.jpg	0.0	229.87611198866443	
58.0	200.203462797072	ISI	1.0		233	place	house-127.jpg	0.0	229.88430065643888	2.0166245531445384
58.0	200.8952241122579	pulse	1.0	t		place	house-127.jpg	0.0	230.57606197162477	
58.0	201.59519009342648	pulse	1.0	t		place	house-127.jpg	0.0	231.27602795279336	
59.0	202.22008735021655	number	0.0		46	character	number-118.jpg	0.0	231.90092520958342	0.3833107295758964
59.0	202.29520225810165	pulse	0.0	t		character	number-118.jpg	0.0	231.97604011746853	
59.0	202.60339807979244	ISI	1.0		474	character	number-118.jpg	0.0	232.28423593915932	4.016589840050983
59.0	202.99517457818274	pulse	1.0	t		character	number-118.jpg	0.0	232.67601243754962	
59.0	203.6951438797346	pulse	1.0	t		character	number-118.jpg	0.0	233.37598173910146	
59.0	204.3951183127865	pulse	1.0	t		character	number-118.jpg	0.0	234.07595617215338	
59.0	205.0951407404632	pulse	1.0	t		character	number-118.jpg	0.0	234.77597859983007	
59.0	205.7951076271911	pulse	1.0	t		character	number-118.jpg	0.0	235.47594548655798	
59.0	206.49514243084013	pulse	1.0	t		character	number-118.jpg	0.0	236.175980290207	
60.0	206.61998791984342	house	0.0		46	place	house-82.jpg	0.0	236.3008257792103	0.38328477021877916
60.0	207.0032726900622	ISI	1.0		234	place	house-82.jpg	0.0	236.68411054942908	2.016648399530368
60.0	207.1950625303548	pulse	1.0	t		place	house-82.jpg	0.0	236.87590038972166	
60.0	207.89503998193686	pulse	1.0	t		place	house-82.jpg	0.0	237.57587784130374	
60.0	208.59501441498924	pulse	1.0	t		place	house-82.jpg	0.0	238.2758522743561	
61.0	209.01992108959257	adult	0.0		46	face	adult-126.jpg	0.0	238.70075894895945	0.38329201469059626
61.0	209.2949979036307	pulse	0.0	t		face	adult-126.jpg	0.0	238.97583576299758	
61.0	209.40321310428317	ISI	1.0		236	face	adult-126.jpg	0.0	239.08405096365004	2.024978334502066
61.0	209.99498742933247	pulse	1.0	t		face	adult-126.jpg	0.0	239.67582528869934	
61.0	210.69499657547794	pulse	1.0	t		face	adult-126.jpg	0.0	240.37583443484482	
61.0	211.3949568214398	pulse	1.0	t		face	adult-126.jpg	0.0	241.07579468080667	
62.0	211.42819143878523	adult	0.0		45	face	adult-126.jpg	1.0	241.1090292981521	0.37495694821791403
62.0	211.80314838700315	ISI	1.0		473	face	adult-126.jpg	1.0	241.48398624637002	4.024955091821994
62.0	211.9699266889652	response	1.0	b		face	adult-126.jpg	1.0	241.65076454833206	
62.0	212.0949209914902	pulse	1.0	t		face	adult-126.jpg	1.0	241.77575885085707	
62.0	212.79496696370006	pulse	1.0	t		face	adult-126.jpg	1.0	242.47580482306694	
62.0	213.49495256531236	pulse	1.0	t		face	adult-126.jpg	1.0	243.17579042467924	
62.0	214.19493424283655	pulse	1.0	t		face	adult-126.jpg	1.0	243.87577210220343	
62.0	214.89492829633264	pulse	1.0	t		face	adult-126.jpg	1.0	244.5757661556995	
62.0	215.59490122011994	pulse	1.0	t		face	adult-126.jpg	1.0	245.2757390794868	
63.0	215.82810347882514	adult	0.0		45	face	adult-71.jpg	0.0	245.50894133819202	0.37495755192412616
63.0	216.20306103074927	ISI	1.0		234	face	adult-71.jpg	0.0	245.88389889011614	2.0166496069423374
63.0	216.29490040511655	pulse	1.0	t		face	adult-71.jpg	0.0	245.97573826448343	
63.0	216.99485672698984	pulse	1.0	t		face	adult-71.jpg	0.0	246.6756945863567	
63.0	217.6948335748657	pulse	1.0	t		face	adult-71.jpg	0.0	247.37567143423257	
64.0	218.2197106376916	limb	0.0		46	body	limb-11.jpg	0.0	247.90054849705848	0.3832536793611325
64.0	218.39474763732096	pulse	0.0	t		body	limb-11.jpg	0.0	248.07558549668784	
64.0	218.60296431705274	ISI	1.0		354	body	limb-11.jpg	0.0	248.2838021764196	3.016600706758709
64.0	219.09474048340553	pulse	1.0	t		body	limb-11.jpg	0.0	248.7755783427724	
64.0	219.79473031095995	pulse	1.0	t		body	limb-11.jpg	0.0	249.47556817032682	
64.0	220.494703838453	pulse	1.0	t		body	limb-11.jpg	0.0	250.17554169781988	
64.0	221.19468159188818	pulse	1.0	t		body	limb-11.jpg	0.0	250.87551945125506	
65.0	221.61956502381145	limb	0.0		46	body	limb-39.jpg	0.0	251.30040288317832	0.3833049943691549
65.0	221.8947278659507	pulse	0.0	t		body	limb-39.jpg	0.0	251.57556572531757	
65.0	222.0028700181806	ISI	1.0		359	body	limb-39.jpg	0.0	251.68370787754748	3.0000006037057574
65.0	222.59468056558762	pulse	1.0	t		body	limb-39.jpg	0.0	252.2755184249545	
65.0	223.29462481334167	pulse	1.0	t		body	limb-39.jpg	0.0	252.97546267270855	
65.0	223.99458747412746	pulse	1.0	t		body	limb-39.jpg	0.0	253.67542533349433	
65.0	224.6946506519571	pulse	1.0	t		body	limb-39.jpg	0.0	254.37548851132397	
66.0	225.00287062188636	baseline	0.0		708		baseline	0.0	254.68370848125323	5.8998481981338955
66.0	225.39464078136461	pulse	0.0	t			baseline	0.0	255.0754786407315	
66.0	226.09462185518214	pulse	0.0	t			baseline	0.0	255.77545971454902	
66.0	226.79459085488088	pulse	0.0	t			baseline	0.0	256.47542871424776	
66.0	227.49458611578893	pulse	0.0	t			baseline	0.0	257.1754239751558	
66.0	228.19456417107676	pulse	0.0	t			baseline	0.0	257.87540203044364	
66.0	228.89453105780422	pulse	0.0	t			baseline	0.0	258.5753689171711	
66.0	229.5945190742409	pulse	0.0	t			baseline	0.0	259.2753569336078	
66.0	230.29449712952874	pulse	0.0	t			baseline	0.0	259.9753349888956	
66.0	230.90271882002025	ISI	1.0		12		baseline	0.0	260.58355667938713	0.09998638643037339
66.0	230.99450023861482	pulse	1.0	t			baseline	0.0	260.6753380979817	
