trial_nr	onset	event_type	phase	response	nr_frames	face_age	face_sex	face_eth	attractiveness	expression	face_id	sub_id	ses	run	trial_type	catch	rating_type	onset_abs	duration
-1.0	0.06254497597183217	fix	0.0		713													23.884478157975536	5.9578937359656265
-1.0	0.7040553838342021	pulse	0.0	t														24.525988565837906	
-1.0	1.4040321412176127	pulse	0.0	t														25.225965323221317	
-1.0	2.1040052763746644	pulse	0.0	t														25.92593845837837	
-1.0	2.8039829393164837	pulse	0.0	t														26.625916121320188	
-1.0	3.503973280046921	pulse	0.0	t														27.325906462050625	
-1.0	4.203947018908366	pulse	0.0	t														28.02588020091207	
-1.0	4.903918946656631	pulse	0.0	t														28.725852128660335	
-1.0	5.6039002318248095	pulse	0.0	t														29.425833413828514	
0.0	6.020438711937459	face	0.0		144	24.0	female	east_asian	2.9076800636689217	neutral	034	sub-11	2.0	6.0	034_neutral	0.0		29.842371893941163	1.2333066697246977
0.0	6.303886950328888	pulse	0.0	t		24.0	female	east_asian	2.9076800636689217	neutral	034	sub-11	2.0	6.0	034_neutral	0.0		30.125820132332592	
0.0	7.003835937310214	pulse	0.0	t		24.0	female	east_asian	2.9076800636689217	neutral	034	sub-11	2.0	6.0	034_neutral	0.0		30.825769119313918	
0.0	7.253745381662156	fix	1.0		445	24.0	female	east_asian	2.9076800636689217	neutral	034	sub-11	2.0	6.0	034_neutral	0.0		31.07567856366586	3.7582070585121983
0.0	7.7038465021360025	pulse	1.0	t		24.0	female	east_asian	2.9076800636689217	neutral	034	sub-11	2.0	6.0	034_neutral	0.0		31.525779684139707	
0.0	8.403804242832848	pulse	1.0	t		24.0	female	east_asian	2.9076800636689217	neutral	034	sub-11	2.0	6.0	034_neutral	0.0		32.22573742483655	
0.0	9.103808770618343	pulse	1.0	t		24.0	female	east_asian	2.9076800636689217	neutral	034	sub-11	2.0	6.0	034_neutral	0.0		32.92574195262205	
0.0	9.80377526502707	pulse	1.0	t		24.0	female	east_asian	2.9076800636689217	neutral	034	sub-11	2.0	6.0	034_neutral	0.0		33.625708447030775	
0.0	10.503771039097046	pulse	1.0	t		24.0	female	east_asian	2.9076800636689217	neutral	034	sub-11	2.0	6.0	034_neutral	0.0		34.32570422110075	
1.0	11.011952440174355	face	0.0		146	32.0	male	white	2.389176283326701	smiling	092	sub-11	2.0	6.0	092_smiling	0.0		34.83388562217806	1.2416465431888355
1.0	11.203730590907071	pulse	0.0	t		32.0	male	white	2.389176283326701	smiling	092	sub-11	2.0	6.0	092_smiling	0.0		35.025663772910775	
1.0	11.903705537177302	pulse	0.0	t		32.0	male	white	2.389176283326701	smiling	092	sub-11	2.0	6.0	092_smiling	0.0		35.725638719181006	
1.0	12.25359898336319	fix	1.0		445	32.0	male	white	2.389176283326701	smiling	092	sub-11	2.0	6.0	092_smiling	0.0		36.075532165366894	3.7582061529537896
1.0	12.603705839028407	pulse	1.0	t		32.0	male	white	2.389176283326701	smiling	092	sub-11	2.0	6.0	092_smiling	0.0		36.42563902103211	
1.0	13.303678672335082	pulse	1.0	t		32.0	male	white	2.389176283326701	smiling	092	sub-11	2.0	6.0	092_smiling	0.0		37.125611854338786	
1.0	14.003658146386442	pulse	1.0	t		32.0	male	white	2.389176283326701	smiling	092	sub-11	2.0	6.0	092_smiling	0.0		37.825591328390146	
1.0	14.703630979693116	pulse	1.0	t		32.0	male	white	2.389176283326701	smiling	092	sub-11	2.0	6.0	092_smiling	0.0		38.52556416169682	
1.0	15.40361558523	pulse	1.0	t		32.0	male	white	2.389176283326701	smiling	092	sub-11	2.0	6.0	092_smiling	0.0		39.225548767233704	
2.0	16.01180513631698	face	0.0		146	20.0	male	black	3.1070433744528456	smiling	082	sub-11	2.0	6.0	082_smiling	0.0		39.833738318320684	1.2416471468932286
2.0	16.10360019077052	pulse	0.0	t		20.0	male	black	3.1070433744528456	smiling	082	sub-11	2.0	6.0	082_smiling	0.0		39.925533372774225	
2.0	16.803568798146443	pulse	0.0	t		20.0	male	black	3.1070433744528456	smiling	082	sub-11	2.0	6.0	082_smiling	0.0		40.62550198015015	
2.0	17.25345228321021	fix	1.0		444	20.0	male	black	3.1070433744528456	smiling	082	sub-11	2.0	6.0	082_smiling	0.0		41.07538546521391	3.7582028325814463
2.0	17.503555516650522	pulse	1.0	t		20.0	male	black	3.1070433744528456	smiling	082	sub-11	2.0	6.0	082_smiling	0.0		41.325488698654226	
2.0	18.20352382217243	pulse	1.0	t		20.0	male	black	3.1070433744528456	smiling	082	sub-11	2.0	6.0	082_smiling	0.0		42.02545700417613	
2.0	18.903512351789686	pulse	1.0	t		20.0	male	black	3.1070433744528456	smiling	082	sub-11	2.0	6.0	082_smiling	0.0		42.72544553379339	
2.0	19.603483072132803	pulse	1.0	t		20.0	male	black	3.1070433744528456	smiling	082	sub-11	2.0	6.0	082_smiling	0.0		43.42541625413651	
2.0	20.303473111009225	pulse	1.0	t		20.0	male	black	3.1070433744528456	smiling	082	sub-11	2.0	6.0	082_smiling	0.0		44.12540629301293	
3.0	21.011655115791655	face	0.0		147	31.0	female	white	2.1822522881018704	neutral	102	sub-11	2.0	6.0	102_neutral	0.0		44.83358829779536	1.2416492598567856
3.0	21.00462558257641	pulse	0.0	t		31.0	female	white	2.1822522881018704	neutral	102	sub-11	2.0	6.0	102_neutral	0.0		44.82655876458011	
3.0	21.703429342447635	pulse	0.0	t		31.0	female	white	2.1822522881018704	neutral	102	sub-11	2.0	6.0	102_neutral	0.0		45.52536252445134	
3.0	22.25330437564844	fix	1.0		443	31.0	female	white	2.1822522881018704	neutral	102	sub-11	2.0	6.0	102_neutral	0.0		46.075237557652144	3.7582034362858394
3.0	22.403410627612175	pulse	1.0	t		31.0	female	white	2.1822522881018704	neutral	102	sub-11	2.0	6.0	102_neutral	0.0		46.22534380961588	
3.0	23.10338527202839	pulse	1.0	t		31.0	female	white	2.1822522881018704	neutral	102	sub-11	2.0	6.0	102_neutral	0.0		46.925318454032094	
3.0	23.80336384052498	pulse	1.0	t		31.0	female	white	2.1822522881018704	neutral	102	sub-11	2.0	6.0	102_neutral	0.0		47.625297022528684	
3.0	24.50333184419651	pulse	1.0	t		31.0	female	white	2.1822522881018704	neutral	102	sub-11	2.0	6.0	102_neutral	0.0		48.32526502620021	
3.0	25.203321279372176	pulse	1.0	t		31.0	female	white	2.1822522881018704	neutral	102	sub-11	2.0	6.0	102_neutral	0.0		49.02525446137588	
3.0	25.903288377485296	pulse	1.0	t		31.0	female	white	2.1822522881018704	neutral	102	sub-11	2.0	6.0	102_neutral	0.0		49.725221559489	
4.0	26.01150781193428	face	0.0		147	28.0	female	white	5.676880222841227	smiling	124	sub-11	2.0	6.0	124_smiling	0.0		49.833440993937984	1.2416323561374156
4.0	26.603283245996863	pulse	0.0	t		28.0	female	white	5.676880222841227	smiling	124	sub-11	2.0	6.0	124_smiling	0.0		50.42521642800057	
4.0	27.253140168071695	fix	1.0		444	28.0	female	white	5.676880222841227	smiling	124	sub-11	2.0	6.0	124_smiling	0.0		51.0750733500754	3.758201021468267
4.0	27.303266040424205	pulse	1.0	t		28.0	female	white	5.676880222841227	smiling	124	sub-11	2.0	6.0	124_smiling	0.0		51.12519922242791	
4.0	28.003236458913307	pulse	1.0	t		28.0	female	white	5.676880222841227	smiling	124	sub-11	2.0	6.0	124_smiling	0.0		51.82516964091701	
4.0	28.703224082972156	pulse	1.0	t		28.0	female	white	5.676880222841227	smiling	124	sub-11	2.0	6.0	124_smiling	0.0		52.52515726497586	
4.0	29.403198425537994	pulse	1.0	t		28.0	female	white	5.676880222841227	smiling	124	sub-11	2.0	6.0	124_smiling	0.0		53.2251316075417	
4.0	30.103169749585504	pulse	1.0	t		28.0	female	white	5.676880222841227	smiling	124	sub-11	2.0	6.0	124_smiling	0.0		53.92510293158921	
4.0	30.803151034750044	pulse	1.0	t		28.0	female	white	5.676880222841227	smiling	124	sub-11	2.0	6.0	124_smiling	0.0		54.62508421675375	
5.0	31.011341189539962	face	0.0		146	40.0	female	west_asian	1.5777954635893354	neutral	038	sub-11	2.0	6.0	038_neutral	0.0		54.833274371543666	1.2416682765433507
5.0	31.503141677334497	pulse	0.0	t		40.0	female	west_asian	1.5777954635893354	neutral	038	sub-11	2.0	6.0	038_neutral	0.0		55.3250748593382	
5.0	32.203144394003175	pulse	0.0	t		40.0	female	west_asian	1.5777954635893354	neutral	038	sub-11	2.0	6.0	038_neutral	0.0		56.02507757600688	
5.0	32.25300946608331	fix	1.0		445	40.0	female	west_asian	1.5777954635893354	neutral	038	sub-11	2.0	6.0	038_neutral	0.0		56.07494264808702	3.7665360652972595
5.0	32.90309941802843	pulse	1.0	t		40.0	female	west_asian	1.5777954635893354	neutral	038	sub-11	2.0	6.0	038_neutral	0.0		56.72503260003214	
5.0	33.603074062448286	pulse	1.0	t		40.0	female	west_asian	1.5777954635893354	neutral	038	sub-11	2.0	6.0	038_neutral	0.0		57.42500724445199	
5.0	34.303055347612826	pulse	1.0	t		40.0	female	west_asian	1.5777954635893354	neutral	038	sub-11	2.0	6.0	038_neutral	0.0		58.12498852961653	
5.0	35.00302757721511	pulse	1.0	t		40.0	female	west_asian	1.5777954635893354	neutral	038	sub-11	2.0	6.0	038_neutral	0.0		58.82496075921881	
5.0	35.703006447562075	pulse	1.0	t		40.0	female	west_asian	1.5777954635893354	neutral	038	sub-11	2.0	6.0	038_neutral	0.0		59.52493962956578	
6.0	36.01954553138057	face	0.0		145	23.0	male	white	2.6275368085953046	neutral	141	sub-11	2.0	6.0	141_neutral	1.0	trustworthiness	59.84147871338428	1.233312103064236
6.0	36.40299407162456	pulse	0.0	t		23.0	male	white	2.6275368085953046	neutral	141	sub-11	2.0	6.0	141_neutral	1.0	trustworthiness	60.224927253628266	
6.0	37.10296509381806	pulse	0.0	t		23.0	male	white	2.6275368085953046	neutral	141	sub-11	2.0	6.0	141_neutral	1.0	trustworthiness	60.92489827582176	
6.0	37.25285763444481	fix	1.0		177	23.0	male	white	2.6275368085953046	neutral	141	sub-11	2.0	6.0	141_neutral	1.0	trustworthiness	61.07479081644851	1.5083187438140158
6.0	37.8029548308441	pulse	1.0	t		23.0	male	white	2.6275368085953046	neutral	141	sub-11	2.0	6.0	141_neutral	1.0	trustworthiness	61.624888012847805	
6.0	38.50293098452312	pulse	1.0	t		23.0	male	white	2.6275368085953046	neutral	141	sub-11	2.0	6.0	141_neutral	1.0	trustworthiness	62.32486416652682	
6.0	38.761176378258824	rating	2.0		294	23.0	male	white	2.6275368085953046	neutral	141	sub-11	2.0	6.0	141_neutral	1.0	trustworthiness	62.58310956026253	2.491563835694251
6.0	39.20291649561841	pulse	2.0	t		23.0	male	white	2.6275368085953046	neutral	141	sub-11	2.0	6.0	141_neutral	1.0	trustworthiness	63.024849677622115	
6.0	39.90287665113283	pulse	2.0	t		23.0	male	white	2.6275368085953046	neutral	141	sub-11	2.0	6.0	141_neutral	1.0	trustworthiness	63.72480983313653	
6.0	40.60286940668084	pulse	2.0	t		23.0	male	white	2.6275368085953046	neutral	141	sub-11	2.0	6.0	141_neutral	1.0	trustworthiness	64.42480258868454	
6.0	40.72262532902096	response	2.0	b		23.0	male	white	2.6275368085953046	neutral	141	sub-11	2.0	6.0	141_neutral	1.0	trustworthiness	64.54455851102466	
6.0	41.252740213953075	fix	3.0		443	23.0	male	white	2.6275368085953046	neutral	141	sub-11	2.0	6.0	141_neutral	1.0	trustworthiness	65.07467339595678	3.7665402912280115
6.0	41.30285521962651	pulse	3.0	t		23.0	male	white	2.6275368085953046	neutral	141	sub-11	2.0	6.0	141_neutral	1.0	trustworthiness	65.12478840163021	
6.0	42.002812658472976	pulse	3.0	t		23.0	male	white	2.6275368085953046	neutral	141	sub-11	2.0	6.0	141_neutral	1.0	trustworthiness	65.82474584047668	
6.0	42.7028132621781	pulse	3.0	t		23.0	male	white	2.6275368085953046	neutral	141	sub-11	2.0	6.0	141_neutral	1.0	trustworthiness	66.5247464441818	
6.0	43.40278307695917	pulse	3.0	t		23.0	male	white	2.6275368085953046	neutral	141	sub-11	2.0	6.0	141_neutral	1.0	trustworthiness	67.22471625896287	
6.0	44.10276134360538	pulse	3.0	t		23.0	male	white	2.6275368085953046	neutral	141	sub-11	2.0	6.0	141_neutral	1.0	trustworthiness	67.92469452560908	
6.0	44.80275832508414	pulse	3.0	t		23.0	male	white	2.6275368085953046	neutral	141	sub-11	2.0	6.0	141_neutral	1.0	trustworthiness	68.62469150708785	
7.0	45.01928050518109	face	0.0		145	24.0	female	east_asian	4.409868682849185	neutral	030	sub-11	2.0	6.0	030_neutral	0.0		68.84121368718479	1.2333003308303887
7.0	45.50272663060605	pulse	0.0	t		24.0	female	east_asian	4.409868682849185	neutral	030	sub-11	2.0	6.0	030_neutral	0.0		69.32465981260975	
7.0	46.202700067617116	pulse	0.0	t		24.0	female	east_asian	4.409868682849185	neutral	030	sub-11	2.0	6.0	030_neutral	0.0		70.02463324962082	
7.0	46.252580836011475	fix	1.0		445	24.0	female	east_asian	4.409868682849185	neutral	030	sub-11	2.0	6.0	030_neutral	0.0		70.07451401801518	3.7582964067514695
7.0	46.90267139166099	pulse	1.0	t		24.0	female	east_asian	4.409868682849185	neutral	030	sub-11	2.0	6.0	030_neutral	0.0		70.72460457366469	
7.0	47.602662637946196	pulse	1.0	t		24.0	female	east_asian	4.409868682849185	neutral	030	sub-11	2.0	6.0	030_neutral	0.0		71.4245958199499	
7.0	48.30263728236605	pulse	1.0	t		24.0	female	east_asian	4.409868682849185	neutral	030	sub-11	2.0	6.0	030_neutral	0.0		72.12457046436975	
7.0	49.00261253048666	pulse	1.0	t		24.0	female	east_asian	4.409868682849185	neutral	030	sub-11	2.0	6.0	030_neutral	0.0		72.82454571249036	
7.0	49.702592306392035	pulse	1.0	t		24.0	female	east_asian	4.409868682849185	neutral	030	sub-11	2.0	6.0	030_neutral	0.0		73.52452548839574	
8.0	50.010877242762945	face	0.0		146	23.0	male	white	2.6275368085953046	smiling	141	sub-11	2.0	6.0	141_smiling	0.0		73.83281042476665	1.241566552365839
8.0	50.40258204341808	pulse	0.0	t		23.0	male	white	2.6275368085953046	smiling	141	sub-11	2.0	6.0	141_smiling	0.0		74.22451522542178	
8.0	51.102562724881864	pulse	0.0	t		23.0	male	white	2.6275368085953046	smiling	141	sub-11	2.0	6.0	141_smiling	0.0		74.92449590688557	
8.0	51.252443795128784	fix	1.0		445	23.0	male	white	2.6275368085953046	smiling	141	sub-11	2.0	6.0	141_smiling	0.0		75.07437697713249	3.766539989373996
8.0	51.80253887856088	pulse	1.0	t		23.0	male	white	2.6275368085953046	smiling	141	sub-11	2.0	6.0	141_smiling	0.0		75.62447206056459	
8.0	52.50252016372542	pulse	1.0	t		23.0	male	white	2.6275368085953046	smiling	141	sub-11	2.0	6.0	141_smiling	0.0		76.32445334572913	
8.0	53.202493902586866	pulse	1.0	t		23.0	male	white	2.6275368085953046	smiling	141	sub-11	2.0	6.0	141_smiling	0.0		77.02442708459057	
8.0	53.902464622926345	pulse	1.0	t		23.0	male	white	2.6275368085953046	smiling	141	sub-11	2.0	6.0	141_smiling	0.0		77.72439780493005	
8.0	54.602446813649294	pulse	1.0	t		23.0	male	white	2.6275368085953046	smiling	141	sub-11	2.0	6.0	141_smiling	0.0		78.424379995653	
9.0	55.01898378450278	face	0.0		145	31.0	male	west_asian	1.9538400318344609	neutral	070	sub-11	2.0	6.0	070_neutral	0.0		78.84091696650648	1.2333108956554497
9.0	55.30243836178852	pulse	0.0	t		31.0	male	west_asian	1.9538400318344609	neutral	070	sub-11	2.0	6.0	070_neutral	0.0		79.12437154379222	
9.0	56.00240606360603	pulse	0.0	t		31.0	male	west_asian	1.9538400318344609	neutral	070	sub-11	2.0	6.0	070_neutral	0.0		79.82433924560974	
9.0	56.25229468015823	fix	1.0		445	31.0	male	west_asian	1.9538400318344609	neutral	070	sub-11	2.0	6.0	070_neutral	0.0		80.07422786216193	3.766543309749977
9.0	56.70239791359927	pulse	1.0	t		31.0	male	west_asian	1.9538400318344609	neutral	070	sub-11	2.0	6.0	070_neutral	0.0		80.52433109560297	
9.0	57.40237195431109	pulse	1.0	t		31.0	male	west_asian	1.9538400318344609	neutral	070	sub-11	2.0	6.0	070_neutral	0.0		81.2243051363148	
9.0	58.10235263577488	pulse	1.0	t		31.0	male	west_asian	1.9538400318344609	neutral	070	sub-11	2.0	6.0	070_neutral	0.0		81.92428581777858	
9.0	58.80233120427147	pulse	1.0	t		31.0	male	west_asian	1.9538400318344609	neutral	070	sub-11	2.0	6.0	070_neutral	0.0		82.62426438627517	
9.0	59.5022970949758	pulse	1.0	t		31.0	male	west_asian	1.9538400318344609	neutral	070	sub-11	2.0	6.0	070_neutral	0.0		83.3242302769795	
10.0	60.01883798990821	face	0.0		145	31.0	female	white	2.1822522881018704	smiling	102	sub-11	2.0	6.0	102_smiling	1.0	dominance	83.84077117191191	1.2333108956554497
10.0	60.20229347275017	pulse	0.0	t		31.0	female	white	2.1822522881018704	smiling	102	sub-11	2.0	6.0	102_smiling	1.0	dominance	84.02422665475387	
10.0	60.90225875975011	pulse	0.0	t		31.0	female	white	2.1822522881018704	smiling	102	sub-11	2.0	6.0	102_smiling	1.0	dominance	84.72419194175382	
10.0	61.252148885563656	fix	1.0		177	31.0	female	white	2.1822522881018704	smiling	102	sub-11	2.0	6.0	102_smiling	1.0	dominance	85.07408206756736	1.4999574388421024
10.0	61.60225060974335	pulse	1.0	t		31.0	female	white	2.1822522881018704	smiling	102	sub-11	2.0	6.0	102_smiling	1.0	dominance	85.42418379174705	
10.0	62.302227065272746	pulse	1.0	t		31.0	female	white	2.1822522881018704	smiling	102	sub-11	2.0	6.0	102_smiling	1.0	dominance	86.12416024727645	
10.0	62.75210632440576	rating	2.0		294	31.0	female	white	2.1822522881018704	smiling	102	sub-11	2.0	6.0	102_smiling	1.0	dominance	86.57403950640946	2.4999230276989692
10.0	63.00220804858691	pulse	2.0	t		31.0	female	white	2.1822522881018704	smiling	102	sub-11	2.0	6.0	102_smiling	1.0	dominance	86.82414123059061	
10.0	63.702189635605464	pulse	2.0	t		31.0	female	white	2.1822522881018704	smiling	102	sub-11	2.0	6.0	102_smiling	1.0	dominance	87.52412281760917	
10.0	64.40216790224804	pulse	2.0	t		31.0	female	white	2.1822522881018704	smiling	102	sub-11	2.0	6.0	102_smiling	1.0	dominance	88.22410108425174	
10.0	64.4938108232127	response	2.0	e		31.0	female	white	2.1822522881018704	smiling	102	sub-11	2.0	6.0	102_smiling	1.0	dominance	88.3157440052164	
10.0	65.10212624664928	pulse	2.0	t		31.0	female	white	2.1822522881018704	smiling	102	sub-11	2.0	6.0	102_smiling	1.0	dominance	88.92405942865298	
10.0	65.25202935210473	fix	3.0		444	31.0	female	white	2.1822522881018704	smiling	102	sub-11	2.0	6.0	102_smiling	1.0	dominance	89.07396253410843	3.7582097751801484
10.0	65.80212383183243	pulse	3.0	t		31.0	female	white	2.1822522881018704	smiling	102	sub-11	2.0	6.0	102_smiling	1.0	dominance	89.62405701383614	
10.0	66.50210722996417	pulse	3.0	t		31.0	female	white	2.1822522881018704	smiling	102	sub-11	2.0	6.0	102_smiling	1.0	dominance	90.32404041196787	
10.0	67.20210904107807	pulse	3.0	t		31.0	female	white	2.1822522881018704	smiling	102	sub-11	2.0	6.0	102_smiling	1.0	dominance	91.02404222308178	
10.0	67.9020595373222	pulse	3.0	t		31.0	female	white	2.1822522881018704	smiling	102	sub-11	2.0	6.0	102_smiling	1.0	dominance	91.7239927193259	
10.0	68.60204202989553	pulse	3.0	t		31.0	female	white	2.1822522881018704	smiling	102	sub-11	2.0	6.0	102_smiling	1.0	dominance	92.42397521189923	
11.0	69.01023912728488	face	0.0		146	31.0	female	east_asian	3.395941106247513	neutral	087	sub-11	2.0	6.0	087_neutral	0.0		92.83217230928858	1.2416423172580835
11.0	69.30202331506007	pulse	0.0	t		31.0	female	east_asian	3.395941106247513	neutral	087	sub-11	2.0	6.0	087_neutral	0.0		93.12395649706377	
11.0	70.00198920576804	pulse	0.0	t		31.0	female	east_asian	3.395941106247513	neutral	087	sub-11	2.0	6.0	087_neutral	0.0		93.82392238777174	
11.0	70.25188144454296	fix	1.0		445	31.0	female	east_asian	3.395941106247513	neutral	087	sub-11	2.0	6.0	087_neutral	0.0		94.07381462654666	3.766544215304748
11.0	70.70198015020287	pulse	1.0	t		31.0	female	east_asian	3.395941106247513	neutral	087	sub-11	2.0	6.0	087_neutral	0.0		94.52391333220658	
11.0	71.40195690758628	pulse	1.0	t		31.0	female	east_asian	3.395941106247513	neutral	087	sub-11	2.0	6.0	087_neutral	0.0		95.22389008958999	
11.0	72.10194513534952	pulse	1.0	t		31.0	female	east_asian	3.395941106247513	neutral	087	sub-11	2.0	6.0	087_neutral	0.0		95.92387831735323	
11.0	72.80190800753553	pulse	1.0	t		31.0	female	east_asian	3.395941106247513	neutral	087	sub-11	2.0	6.0	087_neutral	0.0		96.62384118953923	
11.0	73.501911931613	pulse	1.0	t		31.0	female	east_asian	3.395941106247513	neutral	087	sub-11	2.0	6.0	087_neutral	0.0		97.3238451136167	
12.0	74.01842565984771	face	0.0		145	31.0	female	west_asian	2.364902506963788	neutral	006	sub-11	2.0	6.0	006_neutral	0.0		97.84035884185141	1.2333075752831064
12.0	74.20189170751837	pulse	0.0	t		31.0	female	west_asian	2.364902506963788	neutral	006	sub-11	2.0	6.0	006_neutral	0.0		98.02382488952207	
12.0	74.90183767598137	pulse	0.0	t		31.0	female	west_asian	2.364902506963788	neutral	006	sub-11	2.0	6.0	006_neutral	0.0		98.72377085798507	
12.0	75.25173323513081	fix	1.0		444	31.0	female	west_asian	2.364902506963788	neutral	006	sub-11	2.0	6.0	006_neutral	0.0		99.07366641713452	3.766543309749977
12.0	75.60183827968649	pulse	1.0	t		31.0	female	west_asian	2.364902506963788	neutral	006	sub-11	2.0	6.0	006_neutral	0.0		99.4237714616902	
12.0	76.3017899833394	pulse	1.0	t		31.0	female	west_asian	2.364902506963788	neutral	006	sub-11	2.0	6.0	006_neutral	0.0		100.12372316534311	
12.0	77.00178847407733	pulse	1.0	t		31.0	female	west_asian	2.364902506963788	neutral	006	sub-11	2.0	6.0	006_neutral	0.0		100.82372165608103	
12.0	77.70177277776384	pulse	1.0	t		31.0	female	west_asian	2.364902506963788	neutral	006	sub-11	2.0	6.0	006_neutral	0.0		101.52370595976754	
12.0	78.40174893144285	pulse	1.0	t		31.0	female	west_asian	2.364902506963788	neutral	006	sub-11	2.0	6.0	006_neutral	0.0		102.22368211344656	
13.0	79.01827654488079	face	0.0		145	24.0	female	black	3.0955033824114606	neutral	099	sub-11	2.0	6.0	099_neutral	0.0		102.8402097268845	1.2333111975058273
13.0	79.101733235133	pulse	0.0	t		24.0	female	black	3.0955033824114606	neutral	099	sub-11	2.0	6.0	099_neutral	0.0		102.9236664171367	
13.0	79.80170274806369	pulse	0.0	t		24.0	female	black	3.0955033824114606	neutral	099	sub-11	2.0	6.0	099_neutral	0.0		103.6236359300674	
13.0	80.25158774238662	fix	1.0		444	24.0	female	black	3.0955033824114606	neutral	099	sub-11	2.0	6.0	099_neutral	0.0		104.07352092439032	3.7665387819688476
13.0	80.50169037212254	pulse	1.0	t		24.0	female	black	3.0955033824114606	neutral	099	sub-11	2.0	6.0	099_neutral	0.0		104.32362355412624	
13.0	81.20167165729072	pulse	1.0	t		24.0	female	black	3.0955033824114606	neutral	099	sub-11	2.0	6.0	099_neutral	0.0		105.02360483929442	
13.0	81.90163090724673	pulse	1.0	t		24.0	female	black	3.0955033824114606	neutral	099	sub-11	2.0	6.0	099_neutral	0.0		105.72356408925043	
13.0	82.60162788872549	pulse	1.0	t		24.0	female	black	3.0955033824114606	neutral	099	sub-11	2.0	6.0	099_neutral	0.0		106.42356107072919	
13.0	83.30159891091898	pulse	1.0	t		24.0	female	black	3.0955033824114606	neutral	099	sub-11	2.0	6.0	099_neutral	0.0		107.12353209292269	
14.0	84.01812652435547	face	0.0		145	34.0	male	white	2.651014723438122	smiling	121	sub-11	2.0	6.0	121_smiling	0.0		107.84005970635917	1.2333136123233999
14.0	84.00408466349472	pulse	0.0	t		34.0	male	white	2.651014723438122	smiling	121	sub-11	2.0	6.0	121_smiling	0.0		107.82601784549843	
14.0	84.70156661273722	pulse	0.0	t		34.0	male	white	2.651014723438122	smiling	121	sub-11	2.0	6.0	121_smiling	0.0		108.52349979474093	
14.0	85.25144013667887	fix	1.0		443	34.0	male	white	2.651014723438122	smiling	121	sub-11	2.0	6.0	121_smiling	0.0		109.07337331868257	3.7582843326672446
14.0	85.401546992347	pulse	1.0	t		34.0	male	white	2.651014723438122	smiling	121	sub-11	2.0	6.0	121_smiling	0.0		109.2234801743507	
14.0	86.1015237497304	pulse	1.0	t		34.0	male	white	2.651014723438122	smiling	121	sub-11	2.0	6.0	121_smiling	0.0		109.92345693173411	
14.0	86.80149507377428	pulse	1.0	t		34.0	male	white	2.651014723438122	smiling	121	sub-11	2.0	6.0	121_smiling	0.0		110.62342825577798	
14.0	87.50148481080032	pulse	1.0	t		34.0	male	white	2.651014723438122	smiling	121	sub-11	2.0	6.0	121_smiling	0.0		111.32341799280402	
14.0	88.20145824780775	pulse	1.0	t		34.0	male	white	2.651014723438122	smiling	121	sub-11	2.0	6.0	121_smiling	0.0		112.02339142981145	
14.0	88.90143651445396	pulse	1.0	t		34.0	male	white	2.651014723438122	smiling	121	sub-11	2.0	6.0	121_smiling	0.0		112.72336969645767	
15.0	89.00972446934611	face	0.0		147	32.0	male	white	2.389176283326701	neutral	092	sub-11	2.0	6.0	092_neutral	0.0		112.83165765134981	1.2415647412490216
15.0	89.60142172369888	pulse	0.0	t		32.0	male	white	2.389176283326701	neutral	092	sub-11	2.0	6.0	092_neutral	0.0		113.42335490570258	
15.0	90.25128921059513	fix	1.0		443	32.0	male	white	2.389176283326701	neutral	092	sub-11	2.0	6.0	092_neutral	0.0		114.07322239259884	3.7665445171587635
15.0	90.3013972736735	pulse	1.0	t		32.0	male	white	2.389176283326701	neutral	092	sub-11	2.0	6.0	092_neutral	0.0		114.1233304556772	
15.0	91.00136739030859	pulse	1.0	t		32.0	male	white	2.389176283326701	neutral	092	sub-11	2.0	6.0	092_neutral	0.0		114.82330057231229	
15.0	91.70135531622145	pulse	1.0	t		32.0	male	white	2.389176283326701	neutral	092	sub-11	2.0	6.0	092_neutral	0.0		115.52328849822516	
15.0	92.40133871435319	pulse	1.0	t		32.0	male	white	2.389176283326701	neutral	092	sub-11	2.0	6.0	092_neutral	0.0		116.22327189635689	
15.0	93.10130943469267	pulse	1.0	t		32.0	male	white	2.389176283326701	neutral	092	sub-11	2.0	6.0	092_neutral	0.0		116.92324261669637	
15.0	93.80129917171871	pulse	1.0	t		32.0	male	white	2.389176283326701	neutral	092	sub-11	2.0	6.0	092_neutral	0.0		117.62323235372241	
16.0	94.0178337277539	face	0.0		145	20.0	female	white	3.9502586549940313	smiling	091	sub-11	2.0	6.0	091_smiling	0.0		117.8397669097576	1.2332961048996367
16.0	94.50127713651091	pulse	0.0	t		20.0	female	white	3.9502586549940313	smiling	091	sub-11	2.0	6.0	091_smiling	0.0		118.32321031851461	
16.0	95.20123487720775	pulse	0.0	t		20.0	female	white	3.9502586549940313	smiling	091	sub-11	2.0	6.0	091_smiling	0.0		119.02316805921146	
16.0	95.25112983265353	fix	1.0		445	20.0	female	white	3.9502586549940313	smiling	091	sub-11	2.0	6.0	091_smiling	0.0		119.07306301465724	3.766544215304748
16.0	95.90122733090175	pulse	1.0	t		20.0	female	white	3.9502586549940313	smiling	091	sub-11	2.0	6.0	091_smiling	0.0		119.72316051290545	
16.0	96.60121193644227	pulse	1.0	t		20.0	female	white	3.9502586549940313	smiling	091	sub-11	2.0	6.0	091_smiling	0.0		120.42314511844597	
16.0	97.30119473086961	pulse	1.0	t		20.0	female	white	3.9502586549940313	smiling	091	sub-11	2.0	6.0	091_smiling	0.0		121.12312791287331	
16.0	98.00117631788817	pulse	1.0	t		20.0	female	white	3.9502586549940313	smiling	091	sub-11	2.0	6.0	091_smiling	0.0		121.82310949989187	
16.0	98.70115488638476	pulse	1.0	t		20.0	female	white	3.9502586549940313	smiling	091	sub-11	2.0	6.0	091_smiling	0.0		122.52308806838846	
17.0	99.01767404795828	face	0.0		145	27.0	female	white	4.181058495821727	neutral	039	sub-11	2.0	6.0	039_neutral	0.0		122.83960722996198	1.2333187438125606
17.0	99.40113526599453	pulse	0.0	t		27.0	female	white	4.181058495821727	neutral	039	sub-11	2.0	6.0	039_neutral	0.0		123.22306844799823	
17.0	100.10111292893271	pulse	0.0	t		27.0	female	white	4.181058495821727	neutral	039	sub-11	2.0	6.0	039_neutral	0.0		123.92304611093641	
17.0	100.25099279177084	fix	1.0		444	27.0	female	white	4.181058495821727	neutral	039	sub-11	2.0	6.0	039_neutral	0.0		124.07292597377455	3.758176269591786
17.0	100.80109179927967	pulse	1.0	t		27.0	female	white	4.181058495821727	neutral	039	sub-11	2.0	6.0	039_neutral	0.0		124.62302498128338	
17.0	101.50108093260133	pulse	1.0	t		27.0	female	white	4.181058495821727	neutral	039	sub-11	2.0	6.0	039_neutral	0.0		125.32301411460503	
17.0	102.20103656033461	pulse	1.0	t		27.0	female	white	4.181058495821727	neutral	039	sub-11	2.0	6.0	039_neutral	0.0		126.02296974233832	
17.0	102.90102629736066	pulse	1.0	t		27.0	female	white	4.181058495821727	neutral	039	sub-11	2.0	6.0	039_neutral	0.0		126.72295947936436	
17.0	103.60100728067482	pulse	1.0	t		27.0	female	white	4.181058495821727	neutral	039	sub-11	2.0	6.0	039_neutral	0.0		127.42294046267853	
18.0	104.00916906136263	face	0.0		146	40.0	male	black	2.408674890569041	smiling	061	sub-11	2.0	6.0	061_smiling	0.0		127.83110224336633	1.241677935813641
18.0	104.30098947139777	pulse	0.0	t		40.0	male	black	2.408674890569041	smiling	061	sub-11	2.0	6.0	061_smiling	0.0		128.12292265340147	
18.0	105.00095868247809	pulse	0.0	t		40.0	male	black	2.408674890569041	smiling	061	sub-11	2.0	6.0	061_smiling	0.0		128.8228918644818	
18.0	105.25084699717627	fix	1.0		445	40.0	male	black	2.408674890569041	smiling	061	sub-11	2.0	6.0	061_smiling	0.0		129.07278017917997	3.7582429789181333
18.0	105.70094721209534	pulse	1.0	t		40.0	male	black	2.408674890569041	smiling	061	sub-11	2.0	6.0	061_smiling	0.0		129.52288039409905	
18.0	106.40092185651156	pulse	1.0	t		40.0	male	black	2.408674890569041	smiling	061	sub-11	2.0	6.0	061_smiling	0.0		130.22285503851526	
18.0	107.100895595373	pulse	1.0	t		40.0	male	black	2.408674890569041	smiling	061	sub-11	2.0	6.0	061_smiling	0.0		130.9228287773767	
18.0	107.80087929535512	pulse	1.0	t		40.0	male	black	2.408674890569041	smiling	061	sub-11	2.0	6.0	061_smiling	0.0		131.62281247735882	
18.0	108.50085726014731	pulse	1.0	t		40.0	male	black	2.408674890569041	smiling	061	sub-11	2.0	6.0	061_smiling	0.0		132.32279044215102	
19.0	109.0090899760944	face	0.0		146	31.0	female	east_asian	3.395941106247513	smiling	087	sub-11	2.0	6.0	087_smiling	0.0		132.8310231580981	1.2416079061113123
19.0	109.200846997177	pulse	0.0	t		31.0	female	east_asian	3.395941106247513	smiling	087	sub-11	2.0	6.0	087_smiling	0.0		133.0227801791807	
19.0	109.90081741566246	pulse	0.0	t		31.0	female	east_asian	3.395941106247513	smiling	087	sub-11	2.0	6.0	087_smiling	0.0		133.72275059766616	
19.0	110.25069788220571	fix	1.0		444	31.0	female	east_asian	3.395941106247513	smiling	087	sub-11	2.0	6.0	087_smiling	0.0		134.07263106420942	3.766543309749977
19.0	110.60078753229755	pulse	1.0	t		31.0	female	east_asian	3.395941106247513	smiling	087	sub-11	2.0	6.0	087_smiling	0.0		134.42272071430125	
19.0	111.30079085267425	pulse	1.0	t		31.0	female	east_asian	3.395941106247513	smiling	087	sub-11	2.0	6.0	087_smiling	0.0		135.12272403467796	
19.0	112.00075040448428	pulse	1.0	t		31.0	female	east_asian	3.395941106247513	smiling	087	sub-11	2.0	6.0	087_smiling	0.0		135.82268358648798	
19.0	112.7007328970576	pulse	1.0	t		31.0	female	east_asian	3.395941106247513	smiling	087	sub-11	2.0	6.0	087_smiling	0.0		136.5226660790613	
19.0	113.40072414334281	pulse	1.0	t		31.0	female	east_asian	3.395941106247513	smiling	087	sub-11	2.0	6.0	087_smiling	0.0		137.22265732534652	
20.0	114.01724119195569	face	0.0		145	47.0	male	east_asian	2.171110226820533	smiling	024	sub-11	2.0	6.0	024_smiling	0.0		137.8391743739594	1.2333093863926479
20.0	114.1006963729451	pulse	0.0	t		47.0	male	east_asian	2.171110226820533	smiling	024	sub-11	2.0	6.0	024_smiling	0.0		137.9226295549488	
20.0	114.80067554514608	pulse	0.0	t		47.0	male	east_asian	2.171110226820533	smiling	024	sub-11	2.0	6.0	024_smiling	0.0		138.62260872714978	
20.0	115.25055057834834	fix	1.0		1185	47.0	male	east_asian	2.171110226820533	smiling	024	sub-11	2.0	6.0	024_smiling	0.0		139.07248376035204	10.016360085486667
20.0	115.5006595469822	pulse	1.0	t		47.0	male	east_asian	2.171110226820533	smiling	024	sub-11	2.0	6.0	024_smiling	0.0		139.3225927289859	
20.0	116.20063358769403	pulse	1.0	t		47.0	male	east_asian	2.171110226820533	smiling	024	sub-11	2.0	6.0	024_smiling	0.0		140.02256676969773	
20.0	116.90061668397175	pulse	1.0	t		47.0	male	east_asian	2.171110226820533	smiling	024	sub-11	2.0	6.0	024_smiling	0.0		140.72254986597545	
20.0	117.60059555432235	pulse	1.0	t		47.0	male	east_asian	2.171110226820533	smiling	024	sub-11	2.0	6.0	024_smiling	0.0		141.42252873632606	
20.0	118.30058015986288	pulse	1.0	t		47.0	male	east_asian	2.171110226820533	smiling	024	sub-11	2.0	6.0	024_smiling	0.0		142.12251334186658	
20.0	119.00055269131553	pulse	1.0	t		47.0	male	east_asian	2.171110226820533	smiling	024	sub-11	2.0	6.0	024_smiling	0.0		142.82248587331924	
20.0	119.7005246190638	pulse	1.0	t		47.0	male	east_asian	2.171110226820533	smiling	024	sub-11	2.0	6.0	024_smiling	0.0		143.5224578010675	
20.0	120.40052099683817	pulse	1.0	t		47.0	male	east_asian	2.171110226820533	smiling	024	sub-11	2.0	6.0	024_smiling	0.0		144.22245417884187	
20.0	121.10048477457894	pulse	1.0	t		47.0	male	east_asian	2.171110226820533	smiling	024	sub-11	2.0	6.0	024_smiling	0.0		144.92241795658265	
20.0	121.8004642486303	pulse	1.0	t		47.0	male	east_asian	2.171110226820533	smiling	024	sub-11	2.0	6.0	024_smiling	0.0		145.622397430634	
20.0	122.50044794861242	pulse	1.0	t		47.0	male	east_asian	2.171110226820533	smiling	024	sub-11	2.0	6.0	024_smiling	0.0		146.32238113061612	
20.0	123.20042168747386	pulse	1.0	t		47.0	male	east_asian	2.171110226820533	smiling	024	sub-11	2.0	6.0	024_smiling	0.0		147.02235486947757	
20.0	123.90040900968233	pulse	1.0	t		47.0	male	east_asian	2.171110226820533	smiling	024	sub-11	2.0	6.0	024_smiling	0.0		147.72234219168604	
20.0	124.60037791891227	pulse	1.0	t		47.0	male	east_asian	2.171110226820533	smiling	024	sub-11	2.0	6.0	024_smiling	0.0		148.42231110091598	
21.0	125.266910663835	face	0.0		145	24.0	male	white	3.1153999204138483	smiling	012	sub-11	2.0	6.0	012_smiling	0.0		149.0888438458387	1.2333102919510566
21.0	125.30036554297112	pulse	0.0	t		24.0	male	white	3.1153999204138483	smiling	012	sub-11	2.0	6.0	012_smiling	0.0		149.12229872497483	
21.0	126.00034924295687	pulse	0.0	t		24.0	male	white	3.1153999204138483	smiling	012	sub-11	2.0	6.0	012_smiling	0.0		149.82228242496058	
21.0	126.50022095578606	fix	1.0		443	24.0	male	white	3.1153999204138483	smiling	012	sub-11	2.0	6.0	012_smiling	0.0		150.32215413778977	3.758341986427695
21.0	126.70032449107748	pulse	1.0	t		24.0	male	white	3.1153999204138483	smiling	012	sub-11	2.0	6.0	012_smiling	0.0		150.52225767308119	
21.0	127.40027649658441	pulse	1.0	t		24.0	male	white	3.1153999204138483	smiling	012	sub-11	2.0	6.0	012_smiling	0.0		151.22220967858811	
21.0	128.10027528917635	pulse	1.0	t		24.0	male	white	3.1153999204138483	smiling	012	sub-11	2.0	6.0	012_smiling	0.0		151.92220847118006	
21.0	128.80026321508922	pulse	1.0	t		24.0	male	white	3.1153999204138483	smiling	012	sub-11	2.0	6.0	012_smiling	0.0		152.62219639709292	
21.0	129.5002396706186	pulse	1.0	t		24.0	male	white	3.1153999204138483	smiling	012	sub-11	2.0	6.0	012_smiling	0.0		153.32217285262232	
21.0	130.20021854096922	pulse	1.0	t		24.0	male	white	3.1153999204138483	smiling	012	sub-11	2.0	6.0	012_smiling	0.0		154.02215172297292	
22.0	130.25856294221376	face	0.0		147	31.0	female	west_asian	2.364902506963788	smiling	006	sub-11	2.0	6.0	006_smiling	1.0	trustworthiness	154.08049612421746	1.2414971263679035
22.0	130.90020495761928	pulse	0.0	t		31.0	female	west_asian	2.364902506963788	smiling	006	sub-11	2.0	6.0	006_smiling	1.0	trustworthiness	154.72213813962298	
22.0	131.50006006858166	fix	1.0		177	31.0	female	west_asian	2.364902506963788	smiling	006	sub-11	2.0	6.0	006_smiling	1.0	trustworthiness	155.32199325058536	1.4999541184697591
22.0	131.60023484098565	pulse	1.0	t		31.0	female	west_asian	2.364902506963788	smiling	006	sub-11	2.0	6.0	006_smiling	1.0	trustworthiness	155.42216802298935	
22.0	132.30016269831685	pulse	1.0	t		31.0	female	west_asian	2.364902506963788	smiling	006	sub-11	2.0	6.0	006_smiling	1.0	trustworthiness	156.12209588032056	
22.0	133.00001418705142	rating	2.0		294	31.0	female	west_asian	2.364902506963788	smiling	006	sub-11	2.0	6.0	006_smiling	1.0	trustworthiness	156.82194736905512	2.499938724013191
22.0	133.00779291734216	pulse	2.0	t		31.0	female	west_asian	2.364902506963788	smiling	006	sub-11	2.0	6.0	006_smiling	1.0	trustworthiness	156.82972609934586	
22.0	133.70012255197798	pulse	2.0	t		31.0	female	west_asian	2.364902506963788	smiling	006	sub-11	2.0	6.0	006_smiling	1.0	trustworthiness	157.5220557339817	
22.0	134.4000993093614	pulse	2.0	t		31.0	female	west_asian	2.364902506963788	smiling	006	sub-11	2.0	6.0	006_smiling	1.0	trustworthiness	158.2220324913651	
22.0	134.76674102291872	response	2.0	b		31.0	female	west_asian	2.364902506963788	smiling	006	sub-11	2.0	6.0	006_smiling	1.0	trustworthiness	158.58867420492243	
22.0	135.1000525222771	pulse	2.0	t		31.0	female	west_asian	2.364902506963788	smiling	006	sub-11	2.0	6.0	006_smiling	1.0	trustworthiness	158.92198570428081	
22.0	135.4999529110646	fix	3.0		444	31.0	female	west_asian	2.364902506963788	smiling	006	sub-11	2.0	6.0	006_smiling	1.0	trustworthiness	159.32188609306831	3.766534857884835
22.0	135.80005765376336	pulse	3.0	t		31.0	female	west_asian	2.364902506963788	smiling	006	sub-11	2.0	6.0	006_smiling	1.0	trustworthiness	159.62199083576706	
22.0	136.50003441114677	pulse	3.0	t		31.0	female	west_asian	2.364902506963788	smiling	006	sub-11	2.0	6.0	006_smiling	1.0	trustworthiness	160.32196759315048	
22.0	137.20002626114	pulse	3.0	t		31.0	female	west_asian	2.364902506963788	smiling	006	sub-11	2.0	6.0	006_smiling	1.0	trustworthiness	161.02195944314371	
22.0	137.89997796479292	pulse	3.0	t		31.0	female	west_asian	2.364902506963788	smiling	006	sub-11	2.0	6.0	006_smiling	1.0	trustworthiness	161.72191114679663	
22.0	138.59997404071328	pulse	3.0	t		31.0	female	west_asian	2.364902506963788	smiling	006	sub-11	2.0	6.0	006_smiling	1.0	trustworthiness	162.42190722271698	
23.0	139.26648776894945	face	0.0		145	28.0	female	white	5.676880222841227	neutral	124	sub-11	2.0	6.0	124_neutral	0.0		163.08842095095315	1.2333181401081674
23.0	139.29995411847267	pulse	0.0	t		28.0	female	white	5.676880222841227	neutral	124	sub-11	2.0	6.0	124_neutral	0.0		163.12188730047637	
23.0	139.99993389437805	pulse	0.0	t		28.0	female	white	5.676880222841227	neutral	124	sub-11	2.0	6.0	124_neutral	0.0		163.82186707638175	
23.0	140.4998059090576	fix	1.0		443	28.0	female	white	5.676880222841227	neutral	124	sub-11	2.0	6.0	124_neutral	0.0		164.32173909106132	3.7665439134543703
23.0	140.69991487768857	pulse	1.0	t		28.0	female	white	5.676880222841227	neutral	124	sub-11	2.0	6.0	124_neutral	0.0		164.52184805969227	
23.0	141.39988771099524	pulse	1.0	t		28.0	female	white	5.676880222841227	neutral	124	sub-11	2.0	6.0	124_neutral	0.0		165.22182089299895	
23.0	142.09986748690062	pulse	1.0	t		28.0	female	white	5.676880222841227	neutral	124	sub-11	2.0	6.0	124_neutral	0.0		165.92180066890432	
23.0	142.79984484798842	pulse	1.0	t		28.0	female	white	5.676880222841227	neutral	124	sub-11	2.0	6.0	124_neutral	0.0		166.62177802999213	
23.0	143.49983428316045	pulse	1.0	t		28.0	female	white	5.676880222841227	neutral	124	sub-11	2.0	6.0	124_neutral	0.0		167.32176746516416	
23.0	144.19980621091236	pulse	1.0	t		28.0	female	white	5.676880222841227	neutral	124	sub-11	2.0	6.0	124_neutral	0.0		168.02173939291606	
24.0	144.26634982251198	face	0.0		146	27.0	female	white	3.504576203740549	neutral	144	sub-11	2.0	6.0	144_neutral	0.0		168.0882830045157	1.2333084808378771
24.0	144.89977512013866	pulse	0.0	t		27.0	female	white	3.504576203740549	neutral	144	sub-11	2.0	6.0	144_neutral	0.0		168.72170830214236	
24.0	145.49965830334986	fix	1.0		443	27.0	female	white	3.504576203740549	neutral	144	sub-11	2.0	6.0	144_neutral	0.0		169.32159148535357	3.766544215304748
24.0	145.59976938494583	pulse	1.0	t		27.0	female	white	3.504576203740549	neutral	144	sub-11	2.0	6.0	144_neutral	0.0		169.42170256694953	
24.0	146.2997422182525	pulse	1.0	t		27.0	female	white	3.504576203740549	neutral	144	sub-11	2.0	6.0	144_neutral	0.0		170.1216754002562	
24.0	146.99972893675658	pulse	1.0	t		27.0	female	white	3.504576203740549	neutral	144	sub-11	2.0	6.0	144_neutral	0.0		170.8216621187603	
24.0	147.69970086450485	pulse	1.0	t		27.0	female	white	3.504576203740549	neutral	144	sub-11	2.0	6.0	144_neutral	0.0		171.52163404650855	
24.0	148.3996803385562	pulse	1.0	t		27.0	female	white	3.504576203740549	neutral	144	sub-11	2.0	6.0	144_neutral	0.0		172.2216135205599	
24.0	149.09967309410786	pulse	1.0	t		27.0	female	white	3.504576203740549	neutral	144	sub-11	2.0	6.0	144_neutral	0.0		172.92160627611156	
25.0	149.2662025186546	face	0.0		146	26.0	male	white	2.7966573816155993	neutral	117	sub-11	2.0	6.0	117_neutral	1.0	attractiveness	173.0881357006583	1.2333069715787133
25.0	149.79964109777575	pulse	0.0	t		26.0	male	white	2.7966573816155993	neutral	117	sub-11	2.0	6.0	117_neutral	1.0	attractiveness	173.62157427977945	
25.0	150.49950949023332	fix	1.0		177	26.0	male	white	2.7966573816155993	neutral	117	sub-11	2.0	6.0	117_neutral	1.0	attractiveness	174.32144267223703	1.4999474777214346
25.0	150.50731840573644	pulse	1.0	t		26.0	male	white	2.7966573816155993	neutral	117	sub-11	2.0	6.0	117_neutral	1.0	attractiveness	174.32925158774015	
25.0	151.19960095143688	pulse	1.0	t		26.0	male	white	2.7966573816155993	neutral	117	sub-11	2.0	6.0	117_neutral	1.0	attractiveness	175.02153413344058	
25.0	151.89956472917765	pulse	1.0	t		26.0	male	white	2.7966573816155993	neutral	117	sub-11	2.0	6.0	117_neutral	1.0	attractiveness	175.72149791118136	
25.0	151.99945696795476	rating	2.0		295	26.0	male	white	2.7966573816155993	neutral	117	sub-11	2.0	6.0	117_neutral	1.0	attractiveness	175.82139014995846	2.499932385115244
25.0	152.59956110695202	pulse	2.0	t		26.0	male	white	2.7966573816155993	neutral	117	sub-11	2.0	6.0	117_neutral	1.0	attractiveness	176.42149428895573	
25.0	153.29953665692665	pulse	2.0	t		26.0	male	white	2.7966573816155993	neutral	117	sub-11	2.0	6.0	117_neutral	1.0	attractiveness	177.12146983893035	
25.0	153.44951733838752	response	2.0	y		26.0	male	white	2.7966573816155993	neutral	117	sub-11	2.0	6.0	117_neutral	1.0	attractiveness	177.27145052039123	
25.0	153.9995091883793	pulse	2.0	t		26.0	male	white	2.7966573816155993	neutral	117	sub-11	2.0	6.0	117_neutral	1.0	attractiveness	177.821442370383	
25.0	154.49938935307	fix	3.0		443	26.0	male	white	2.7966573816155993	neutral	117	sub-11	2.0	6.0	117_neutral	1.0	attractiveness	178.3213225350737	3.7665430078959616
25.0	154.69950043466815	pulse	3.0	t		26.0	male	white	2.7966573816155993	neutral	117	sub-11	2.0	6.0	117_neutral	1.0	attractiveness	178.52143361667186	
25.0	155.39947236241642	pulse	3.0	t		26.0	male	white	2.7966573816155993	neutral	117	sub-11	2.0	6.0	117_neutral	1.0	attractiveness	179.22140554442012	
25.0	156.09945032720861	pulse	3.0	t		26.0	male	white	2.7966573816155993	neutral	117	sub-11	2.0	6.0	117_neutral	1.0	attractiveness	179.92138350921232	
25.0	156.79942557532922	pulse	3.0	t		26.0	male	white	2.7966573816155993	neutral	117	sub-11	2.0	6.0	117_neutral	1.0	attractiveness	180.62135875733293	
25.0	157.49945093091446	pulse	3.0	t		26.0	male	white	2.7966573816155993	neutral	117	sub-11	2.0	6.0	117_neutral	1.0	attractiveness	181.32138411291817	
25.0	158.1993827123224	pulse	3.0	t		26.0	male	white	2.7966573816155993	neutral	117	sub-11	2.0	6.0	117_neutral	1.0	attractiveness	182.0213158943261	
26.0	158.26593236096596	face	0.0		146	28.0	male	white	3.9076800636689217	smiling	033	sub-11	2.0	6.0	033_smiling	0.0		182.08786554296967	1.233309990100679
26.0	158.89938271232313	pulse	0.0	t		28.0	male	white	3.9076800636689217	smiling	033	sub-11	2.0	6.0	033_smiling	0.0		182.72131589432684	
26.0	159.49924235106664	fix	1.0		443	28.0	male	white	3.9076800636689217	smiling	033	sub-11	2.0	6.0	033_smiling	0.0		183.32117553307035	3.7665457245675498
26.0	159.599354036367	pulse	1.0	t		28.0	male	white	3.9076800636689217	smiling	033	sub-11	2.0	6.0	033_smiling	0.0		183.4212872183707	
26.0	160.29932777522845	pulse	1.0	t		28.0	male	white	3.9076800636689217	smiling	033	sub-11	2.0	6.0	033_smiling	0.0		184.12126095723215	
26.0	160.99931419188215	pulse	1.0	t		28.0	male	white	3.9076800636689217	smiling	033	sub-11	2.0	6.0	033_smiling	0.0		184.82124737388585	
26.0	161.699271932579	pulse	1.0	t		28.0	male	white	3.9076800636689217	smiling	033	sub-11	2.0	6.0	033_smiling	0.0		185.5212051145827	
26.0	162.39926921590813	pulse	1.0	t		28.0	male	white	3.9076800636689217	smiling	033	sub-11	2.0	6.0	033_smiling	0.0		186.22120239791184	
26.0	163.09923903069284	pulse	1.0	t		28.0	male	white	3.9076800636689217	smiling	033	sub-11	2.0	6.0	033_smiling	0.0		186.92117221269655	
27.0	163.2657880756342	face	0.0		147	19.0	female	white	4.298846000795861	smiling	100	sub-11	2.0	6.0	100_smiling	0.0		187.0877212576379	1.2499755499738967
27.0	163.79922635290131	pulse	0.0	t		19.0	female	white	4.298846000795861	smiling	100	sub-11	2.0	6.0	100_smiling	0.0		187.62115953490502	
27.0	164.49920220472995	pulse	0.0	t		19.0	female	white	4.298846000795861	smiling	100	sub-11	2.0	6.0	100_smiling	0.0		188.32113538673366	
27.0	164.5157636256081	fix	1.0		443	19.0	female	white	4.298846000795861	smiling	100	sub-11	2.0	6.0	100_smiling	0.0		188.3376968076118	3.7582088696217397
27.0	165.19918198063533	pulse	1.0	t		19.0	female	white	4.298846000795861	smiling	100	sub-11	2.0	6.0	100_smiling	0.0		189.02111516263903	
27.0	165.89915571949678	pulse	1.0	t		19.0	female	white	4.298846000795861	smiling	100	sub-11	2.0	6.0	100_smiling	0.0		189.72108890150048	
27.0	166.5991373065117	pulse	1.0	t		19.0	female	white	4.298846000795861	smiling	100	sub-11	2.0	6.0	100_smiling	0.0		190.4210704885154	
27.0	167.29912553427857	pulse	1.0	t		19.0	female	white	4.298846000795861	smiling	100	sub-11	2.0	6.0	100_smiling	0.0		191.12105871628228	
27.0	167.99909565091366	pulse	1.0	t		19.0	female	white	4.298846000795861	smiling	100	sub-11	2.0	6.0	100_smiling	0.0		191.82102883291736	
28.0	168.27397249522983	face	0.0		145	40.0	male	black	2.408674890569041	neutral	061	sub-11	2.0	6.0	061_neutral	0.0		192.09590567723353	1.2333084808415151
28.0	168.69908840646167	pulse	0.0	t		40.0	male	black	2.408674890569041	neutral	061	sub-11	2.0	6.0	061_neutral	0.0		192.52102158846537	
28.0	169.39905731568797	pulse	0.0	t		40.0	male	black	2.408674890569041	neutral	061	sub-11	2.0	6.0	061_neutral	0.0		193.22099049769167	
28.0	169.50728097607134	fix	1.0		444	40.0	male	black	2.408674890569041	neutral	061	sub-11	2.0	6.0	061_neutral	0.0		193.32921415807505	3.766542706041946
28.0	170.0990413175241	pulse	1.0	t		40.0	male	black	2.408674890569041	neutral	061	sub-11	2.0	6.0	061_neutral	0.0		193.9209744995278	
28.0	170.79901294342199	pulse	1.0	t		40.0	male	black	2.408674890569041	neutral	061	sub-11	2.0	6.0	061_neutral	0.0		194.6209461254257	
28.0	171.49898728598782	pulse	1.0	t		40.0	male	black	2.408674890569041	neutral	061	sub-11	2.0	6.0	061_neutral	0.0		195.32092046799153	
28.0	172.19897581560508	pulse	1.0	t		40.0	male	black	2.408674890569041	neutral	061	sub-11	2.0	6.0	061_neutral	0.0		196.02090899760879	
28.0	172.89894140445904	pulse	1.0	t		40.0	male	black	2.408674890569041	neutral	061	sub-11	2.0	6.0	061_neutral	0.0		196.72087458646274	
29.0	173.2738236821133	face	0.0		145	26.0	female	white	4.854755272582572	smiling	027	sub-11	2.0	6.0	027_smiling	0.0		197.095756864117	1.2333087826918927
29.0	173.59893929149257	pulse	0.0	t		26.0	female	white	4.854755272582572	smiling	027	sub-11	2.0	6.0	027_smiling	0.0		197.42087247349627	
29.0	174.29891755813878	pulse	0.0	t		26.0	female	white	4.854755272582572	smiling	027	sub-11	2.0	6.0	027_smiling	0.0		198.1208507401425	
29.0	174.50713246480518	fix	1.0		444	26.0	female	white	4.854755272582572	smiling	027	sub-11	2.0	6.0	027_smiling	0.0		198.32906564680889	3.7665119171215338
29.0	174.9988997488581	pulse	1.0	t		26.0	female	white	4.854755272582572	smiling	027	sub-11	2.0	6.0	027_smiling	0.0		198.8208329308618	
29.0	175.69886654512084	pulse	1.0	t		26.0	female	white	4.854755272582572	smiling	027	sub-11	2.0	6.0	027_smiling	0.0		199.52079972712454	
29.0	176.3988544710337	pulse	1.0	t		26.0	female	white	4.854755272582572	smiling	027	sub-11	2.0	6.0	027_smiling	0.0		200.2207876530374	
29.0	177.09882217285485	pulse	1.0	t		26.0	female	white	4.854755272582572	smiling	027	sub-11	2.0	6.0	027_smiling	0.0		200.92075535485856	
29.0	177.79879983579303	pulse	1.0	t		26.0	female	white	4.854755272582572	smiling	027	sub-11	2.0	6.0	027_smiling	0.0		201.62073301779674	
30.0	178.27364438192672	face	0.0		145	34.0	male	white	2.651014723438122	neutral	121	sub-11	2.0	6.0	121_neutral	0.0		202.09557756393042	1.2333676438647672
30.0	178.49878202651598	pulse	0.0	t		34.0	male	white	2.651014723438122	neutral	121	sub-11	2.0	6.0	121_neutral	0.0		202.3207152085197	
30.0	179.19884843399268	pulse	0.0	t		34.0	male	white	2.651014723438122	neutral	121	sub-11	2.0	6.0	121_neutral	0.0		203.02078161599638	
30.0	179.50701202579148	fix	1.0		444	34.0	male	white	2.651014723438122	neutral	121	sub-11	2.0	6.0	121_neutral	0.0		203.3289452077952	3.766518859723874
30.0	179.8988236821133	pulse	1.0	t		34.0	male	white	2.651014723438122	neutral	121	sub-11	2.0	6.0	121_neutral	0.0		203.720756864117	
30.0	180.59873101349876	pulse	1.0	t		34.0	male	white	2.651014723438122	neutral	121	sub-11	2.0	6.0	121_neutral	0.0		204.42066419550247	
30.0	181.29871260051732	pulse	1.0	t		34.0	male	white	2.651014723438122	neutral	121	sub-11	2.0	6.0	121_neutral	0.0		205.12064578252102	
30.0	181.99868633937876	pulse	1.0	t		34.0	male	white	2.651014723438122	neutral	121	sub-11	2.0	6.0	121_neutral	0.0		205.82061952138247	
30.0	182.6986697375105	pulse	1.0	t		34.0	male	white	2.651014723438122	neutral	121	sub-11	2.0	6.0	121_neutral	0.0		206.5206029195142	
31.0	183.27353088551536	face	0.0		145	21.0	male	black	2.969757262236371	neutral	137	sub-11	2.0	6.0	137_neutral	1.0	attractiveness	207.09546406751906	1.2332970104544074
31.0	183.3986534374926	pulse	0.0	t		21.0	male	black	2.969757262236371	neutral	137	sub-11	2.0	6.0	137_neutral	1.0	attractiveness	207.22058661949632	
31.0	184.09862778005845	pulse	0.0	t		21.0	male	black	2.969757262236371	neutral	137	sub-11	2.0	6.0	137_neutral	1.0	attractiveness	207.92056096206215	
31.0	184.50682789596976	fix	1.0		177	21.0	male	black	2.969757262236371	neutral	137	sub-11	2.0	6.0	137_neutral	1.0	attractiveness	208.32876107797347	1.4999568351413473
31.0	184.79860725411345	pulse	1.0	t		21.0	male	black	2.969757262236371	neutral	137	sub-11	2.0	6.0	137_neutral	1.0	attractiveness	208.62054043611715	
31.0	185.49856801332862	pulse	1.0	t		21.0	male	black	2.969757262236371	neutral	137	sub-11	2.0	6.0	137_neutral	1.0	attractiveness	209.32050119533233	
31.0	186.0067847311111	rating	2.0		294	21.0	male	black	2.969757262236371	neutral	137	sub-11	2.0	6.0	137_neutral	1.0	attractiveness	209.82871791311482	2.499936611045996
31.0	186.1985728429645	pulse	2.0	t		21.0	male	black	2.969757262236371	neutral	137	sub-11	2.0	6.0	137_neutral	1.0	attractiveness	210.0205060249682	
31.0	186.8933399338348	pulse	2.0	t		21.0	male	black	2.969757262236371	neutral	137	sub-11	2.0	6.0	137_neutral	1.0	attractiveness	210.7152731158385	
31.0	187.3516426794813	response	2.0	e		21.0	male	black	2.969757262236371	neutral	137	sub-11	2.0	6.0	137_neutral	1.0	attractiveness	211.173575861485	
31.0	187.59329103378332	pulse	2.0	t		21.0	male	black	2.969757262236371	neutral	137	sub-11	2.0	6.0	137_neutral	1.0	attractiveness	211.41522421578702	
31.0	188.29850734104548	pulse	2.0	t		21.0	male	black	2.969757262236371	neutral	137	sub-11	2.0	6.0	137_neutral	1.0	attractiveness	212.12044052304918	
31.0	188.5067213421571	fix	3.0		444	21.0	male	black	2.969757262236371	neutral	137	sub-11	2.0	6.0	137_neutral	1.0	attractiveness	212.3286545241608	3.758337760496943
31.0	188.99848440027927	pulse	3.0	t		21.0	male	black	2.969757262236371	neutral	137	sub-11	2.0	6.0	137_neutral	1.0	attractiveness	212.82041758228297	
31.0	189.6984539132136	pulse	3.0	t		21.0	male	black	2.969757262236371	neutral	137	sub-11	2.0	6.0	137_neutral	1.0	attractiveness	213.5203870952173	
31.0	190.39843550022852	pulse	3.0	t		21.0	male	black	2.969757262236371	neutral	137	sub-11	2.0	6.0	137_neutral	1.0	attractiveness	214.22036868223222	
31.0	191.0984071261264	pulse	3.0	t		21.0	male	black	2.969757262236371	neutral	137	sub-11	2.0	6.0	137_neutral	1.0	attractiveness	214.9203403081301	
31.0	191.79839565574366	pulse	3.0	t		21.0	male	black	2.969757262236371	neutral	137	sub-11	2.0	6.0	137_neutral	1.0	attractiveness	215.62032883774737	
32.0	192.26505910265405	face	0.0		146	40.0	male	white	1.868682849184242	neutral	172	sub-11	2.0	6.0	172_neutral	0.0		216.08699228465775	1.2415140300872736
32.0	192.49838297795213	pulse	0.0	t		40.0	male	white	1.868682849184242	neutral	172	sub-11	2.0	6.0	172_neutral	0.0		216.32031615995584	
32.0	193.19835279273684	pulse	0.0	t		40.0	male	white	1.868682849184242	neutral	172	sub-11	2.0	6.0	172_neutral	0.0		217.02028597474055	
32.0	193.50657313274132	fix	1.0		444	40.0	male	white	1.868682849184242	neutral	172	sub-11	2.0	6.0	172_neutral	0.0		217.32850631474503	3.7665424041952065
32.0	193.89833196493782	pulse	1.0	t		40.0	male	white	1.868682849184242	neutral	172	sub-11	2.0	6.0	172_neutral	0.0		217.72026514694153	
32.0	194.59830872232124	pulse	1.0	t		40.0	male	white	1.868682849184242	neutral	172	sub-11	2.0	6.0	172_neutral	0.0		218.42024190432494	
32.0	195.29829302600774	pulse	1.0	t		40.0	male	white	1.868682849184242	neutral	172	sub-11	2.0	6.0	172_neutral	0.0		219.12022620801145	
32.0	195.99827944266144	pulse	1.0	t		40.0	male	white	1.868682849184242	neutral	172	sub-11	2.0	6.0	172_neutral	0.0		219.82021262466515	
32.0	196.69824714447896	pulse	1.0	t		40.0	male	white	1.868682849184242	neutral	172	sub-11	2.0	6.0	172_neutral	0.0		220.52018032648266	
33.0	197.27311553693653	face	0.0		145	19.0	male	white	3.2522881018702745	neutral	018	sub-11	2.0	6.0	018_neutral	0.0		221.09504871894023	1.2333111975058273
33.0	197.39823657965462	pulse	0.0	t		19.0	male	white	3.2522881018702745	neutral	018	sub-11	2.0	6.0	018_neutral	0.0		221.22016976165833	
33.0	198.09820397961812	pulse	0.0	t		19.0	male	white	3.2522881018702745	neutral	018	sub-11	2.0	6.0	018_neutral	0.0		221.92013716162182	
33.0	198.50642673444236	fix	1.0		444	19.0	male	white	3.2522881018702745	neutral	018	sub-11	2.0	6.0	018_neutral	0.0		222.32835991644606	3.766540593078389
33.0	198.79819794257492	pulse	1.0	t		19.0	male	white	3.2522881018702745	neutral	018	sub-11	2.0	6.0	018_neutral	0.0		222.62013112457862	
33.0	199.49816805921364	pulse	1.0	t		19.0	male	white	3.2522881018702745	neutral	018	sub-11	2.0	6.0	018_neutral	0.0		223.32010124121734	
33.0	200.198147533265	pulse	1.0	t		19.0	male	white	3.2522881018702745	neutral	018	sub-11	2.0	6.0	018_neutral	0.0		224.0200807152687	
33.0	200.89812097027243	pulse	1.0	t		19.0	male	white	3.2522881018702745	neutral	018	sub-11	2.0	6.0	018_neutral	0.0		224.72005415227613	
33.0	201.5981107073021	pulse	1.0	t		19.0	male	white	3.2522881018702745	neutral	018	sub-11	2.0	6.0	018_neutral	0.0		225.42004388930582	
34.0	202.27296732752075	face	0.0		145	27.0	male	black	3.5523278949462798	neutral	042	sub-11	2.0	6.0	042_neutral	0.0		226.09490050952445	1.233307877137122
34.0	202.2980947091346	pulse	0.0	t		27.0	male	black	3.5523278949462798	neutral	042	sub-11	2.0	6.0	042_neutral	0.0		226.1200278911383	
34.0	202.99806784429165	pulse	0.0	t		27.0	male	black	3.5523278949462798	neutral	042	sub-11	2.0	6.0	042_neutral	0.0		226.82000102629536	
34.0	203.50627520465787	fix	1.0		443	27.0	male	black	3.5523278949462798	neutral	042	sub-11	2.0	6.0	042_neutral	0.0		227.32820838666157	3.766544215304748
34.0	203.6980527516862	pulse	1.0	t		27.0	male	black	3.5523278949462798	neutral	042	sub-11	2.0	6.0	042_neutral	0.0		227.5199859336899	
34.0	204.39802498128483	pulse	1.0	t		27.0	male	black	3.5523278949462798	neutral	042	sub-11	2.0	6.0	042_neutral	0.0		228.21995816328854	
34.0	205.0979975127375	pulse	1.0	t		27.0	male	black	3.5523278949462798	neutral	042	sub-11	2.0	6.0	042_neutral	0.0		228.9199306947412	
34.0	205.79797819420128	pulse	1.0	t		27.0	male	black	3.5523278949462798	neutral	042	sub-11	2.0	6.0	042_neutral	0.0		229.61991137620498	
34.0	206.49796461085134	pulse	1.0	t		27.0	male	black	3.5523278949462798	neutral	042	sub-11	2.0	6.0	042_neutral	0.0		230.31989779285504	
34.0	207.19793895341718	pulse	1.0	t		27.0	male	black	3.5523278949462798	neutral	042	sub-11	2.0	6.0	042_neutral	0.0		231.01987213542088	
35.0	207.27281941996262	face	0.0		146	22.0	female	west_asian	3.8205332272184642	smiling	066	sub-11	2.0	6.0	066_smiling	0.0		231.09475260196632	1.2333096882466634
35.0	207.8979262756293	pulse	0.0	t		22.0	female	west_asian	3.8205332272184642	smiling	066	sub-11	2.0	6.0	066_smiling	0.0		231.719859457633	
35.0	208.50612910820928	fix	1.0		443	22.0	female	west_asian	3.8205332272184642	smiling	066	sub-11	2.0	6.0	066_smiling	0.0		232.32806229021298	3.7665523653122364
35.0	208.59789820337755	pulse	1.0	t		22.0	female	west_asian	3.8205332272184642	smiling	066	sub-11	2.0	6.0	066_smiling	0.0		232.41983138538126	
35.0	209.29788492188163	pulse	1.0	t		22.0	female	west_asian	3.8205332272184642	smiling	066	sub-11	2.0	6.0	066_smiling	0.0		233.11981810388534	
35.0	209.99785654777952	pulse	1.0	t		22.0	female	west_asian	3.8205332272184642	smiling	066	sub-11	2.0	6.0	066_smiling	0.0		233.81978972978322	
35.0	210.69783511627247	pulse	1.0	t		22.0	female	west_asian	3.8205332272184642	smiling	066	sub-11	2.0	6.0	066_smiling	0.0		234.51976829827618	
35.0	211.3978191181086	pulse	1.0	t		22.0	female	west_asian	3.8205332272184642	smiling	066	sub-11	2.0	6.0	066_smiling	0.0		235.2197523001123	
35.0	212.09779346067444	pulse	1.0	t		22.0	female	west_asian	3.8205332272184642	smiling	066	sub-11	2.0	6.0	066_smiling	0.0		235.91972664267814	
36.0	212.27268147352152	face	0.0		146	22.0	female	white	4.614007162753682	smiling	009	sub-11	2.0	6.0	009_smiling	0.0		236.09461465552522	1.2416347709549882
36.0	212.79776961435346	pulse	0.0	t		22.0	female	white	4.614007162753682	smiling	009	sub-11	2.0	6.0	009_smiling	0.0		236.61970279635716	
36.0	213.49776659583222	pulse	0.0	t		22.0	female	white	4.614007162753682	smiling	009	sub-11	2.0	6.0	009_smiling	0.0		237.31969977783592	
36.0	213.5143162444765	fix	1.0		443	22.0	female	white	4.614007162753682	smiling	009	sub-11	2.0	6.0	009_smiling	0.0		237.3362494264802	3.7582082659209846
36.0	214.19773912728488	pulse	1.0	t		22.0	female	white	4.614007162753682	smiling	009	sub-11	2.0	6.0	009_smiling	0.0		238.01967230928858	
36.0	214.89771226244193	pulse	1.0	t		22.0	female	white	4.614007162753682	smiling	009	sub-11	2.0	6.0	009_smiling	0.0		238.71964544444563	
36.0	215.59769234020132	pulse	1.0	t		22.0	female	white	4.614007162753682	smiling	009	sub-11	2.0	6.0	009_smiling	0.0		239.41962552220502	
36.0	216.29767483277465	pulse	1.0	t		22.0	female	white	4.614007162753682	smiling	009	sub-11	2.0	6.0	009_smiling	0.0		240.11960801477835	
36.0	216.9976482697857	pulse	1.0	t		22.0	female	white	4.614007162753682	smiling	009	sub-11	2.0	6.0	009_smiling	0.0		240.81958145178942	
37.0	217.2725245103975	face	0.0		145	26.0	male	white	2.7966573816155993	smiling	117	sub-11	2.0	6.0	117_smiling	0.0		241.0944576924012	1.2333133104730223
37.0	217.69763679940297	pulse	0.0	t		26.0	male	white	2.7966573816155993	smiling	117	sub-11	2.0	6.0	117_smiling	0.0		241.51956998140668	
37.0	218.39761446234115	pulse	0.0	t		26.0	male	white	2.7966573816155993	smiling	117	sub-11	2.0	6.0	117_smiling	0.0		242.21954764434486	
37.0	218.5058378208705	fix	1.0		444	26.0	male	white	2.7966573816155993	smiling	117	sub-11	2.0	6.0	117_smiling	0.0		242.32777100287421	3.766537876406801
37.0	219.09759393639615	pulse	1.0	t		26.0	male	white	2.7966573816155993	smiling	117	sub-11	2.0	6.0	117_smiling	0.0		242.91952711839986	
37.0	219.79756375117722	pulse	1.0	t		26.0	male	white	2.7966573816155993	smiling	117	sub-11	2.0	6.0	117_smiling	0.0		243.61949693318093	
37.0	220.4975504696813	pulse	1.0	t		26.0	male	white	2.7966573816155993	smiling	117	sub-11	2.0	6.0	117_smiling	0.0		244.319483651685	
37.0	221.19753416966705	pulse	1.0	t		26.0	male	white	2.7966573816155993	smiling	117	sub-11	2.0	6.0	117_smiling	0.0		245.01946735167076	
37.0	221.89749613629465	pulse	1.0	t		26.0	male	white	2.7966573816155993	smiling	117	sub-11	2.0	6.0	117_smiling	0.0		245.71942931829835	
38.0	222.2723756972773	face	0.0		145	25.0	female	black	3.858336649423	smiling	126	sub-11	2.0	6.0	126_smiling	0.0		246.09430887928102	1.2333084808415151
38.0	222.59749553258735	pulse	0.0	t		25.0	female	black	3.858336649423	smiling	126	sub-11	2.0	6.0	126_smiling	0.0		246.41942871459105	
38.0	223.29746655478084	pulse	0.0	t		25.0	female	black	3.858336649423	smiling	126	sub-11	2.0	6.0	126_smiling	0.0		247.11939973678454	
38.0	223.50568417811883	fix	1.0		444	25.0	female	black	3.858336649423	smiling	126	sub-11	2.0	6.0	126_smiling	0.0		247.32761736012253	3.76653425418408
38.0	223.99745176402575	pulse	1.0	t		25.0	female	black	3.858336649423	smiling	126	sub-11	2.0	6.0	126_smiling	0.0		247.81938494602946	
38.0	224.69742248436523	pulse	1.0	t		25.0	female	black	3.858336649423	smiling	126	sub-11	2.0	6.0	126_smiling	0.0		248.51935566636894	
38.0	225.397402863975	pulse	1.0	t		25.0	female	black	3.858336649423	smiling	126	sub-11	2.0	6.0	126_smiling	0.0		249.2193360459787	
38.0	226.09738414913954	pulse	1.0	t		25.0	female	black	3.858336649423	smiling	126	sub-11	2.0	6.0	126_smiling	0.0		249.91931733114325	
38.0	226.79736060467258	pulse	1.0	t		25.0	female	black	3.858336649423	smiling	126	sub-11	2.0	6.0	126_smiling	0.0		250.61929378667628	
39.0	227.2722184323029	face	0.0		145	21.0	male	east_asian/white	3.501790688420215	smiling	036	sub-11	2.0	6.0	036_smiling	0.0		251.0941516143066	1.2333211586264952
39.0	227.49733645649758	pulse	0.0	t		21.0	male	east_asian/white	3.501790688420215	smiling	036	sub-11	2.0	6.0	036_smiling	0.0		251.31926963850128	
39.0	228.19731653425333	pulse	0.0	t		21.0	male	east_asian/white	3.501790688420215	smiling	036	sub-11	2.0	6.0	036_smiling	0.0		252.01924971625704	
39.0	228.5055395909294	fix	1.0		444	21.0	male	east_asian/white	3.501790688420215	smiling	036	sub-11	2.0	6.0	036_smiling	0.0		252.3274727729331	3.7498877109974273
39.0	228.89730627128301	pulse	1.0	t		21.0	male	east_asian/white	3.501790688420215	smiling	036	sub-11	2.0	6.0	036_smiling	0.0		252.71923945328672	
39.0	229.59725556011836	pulse	1.0	t		21.0	male	east_asian/white	3.501790688420215	smiling	036	sub-11	2.0	6.0	036_smiling	0.0		253.41918874212206	
39.0	230.29725827678703	pulse	1.0	t		21.0	male	east_asian/white	3.501790688420215	smiling	036	sub-11	2.0	6.0	036_smiling	0.0		254.11919145879074	
39.0	230.99726612494487	pulse	1.0	t		21.0	male	east_asian/white	3.501790688420215	smiling	036	sub-11	2.0	6.0	036_smiling	0.0		254.81919930694858	
39.0	231.69722235637892	pulse	1.0	t		21.0	male	east_asian/white	3.501790688420215	smiling	036	sub-11	2.0	6.0	036_smiling	0.0		255.51915553838262	
40.0	232.25542730192683	fix	0.0		720													256.07736048393053	5.999822510926606
40.0	232.39720333969308	pulse	0.0	t														256.2191365216968	
40.0	233.09718160633565	pulse	0.0	t														256.91911478833936	
40.0	233.79716198594542	pulse	0.0	t														257.6190951679491	
40.0	234.49713904518285	pulse	0.0	t														258.31907222718655	
40.0	235.19710976552233	pulse	0.0	t														259.01904294752603	
40.0	235.89709376735846	pulse	0.0	t														259.71902694936216	
40.0	236.59707807104496	pulse	0.0	t														260.41901125304867	
40.0	237.29705845065473	pulse	0.0	t														261.11899163265844	
40.0	237.99702041728233	pulse	0.0	t														261.81895359928603	
