trial_nr	onset	event_type	phase	response	nr_frames	face_age	face_sex	face_eth	attractiveness	expression	face_id	sub_id	ses	run	trial_type	catch	onset_abs	duration
-1.0	0.06021226244229183	fix	0.0		713												67.44957136992616	5.9578768322426185
-1.0	2.001687051749741	pulse	0.0	t													69.39104615923361	
-1.0	4.001609173891211	pulse	0.0	t													71.39096828137508	
0.0	6.01808909468491	face	0.0		145	28.0	female	east_asian	3.5766016713091924	neutral	127	sub-01	1.0	1.0	127_neutral	0.0	73.40744820216878	1.2333078771339387
0.0	6.010362886672738	pulse	0.0	t		28.0	female	east_asian	3.5766016713091924	neutral	127	sub-01	1.0	1.0	127_neutral	0.0	73.39972199415661	
0.0	7.251396971818849	fix	1.0		447	28.0	female	east_asian	3.5766016713091924	neutral	127	sub-01	1.0	1.0	127_neutral	0.0	74.64075607930272	3.758286747482998
0.0	8.00149114969463	pulse	1.0	t		28.0	female	east_asian	3.5766016713091924	neutral	127	sub-01	1.0	1.0	127_neutral	0.0	75.3908502571785	
0.0	10.001421421844498	pulse	1.0	t		28.0	female	east_asian	3.5766016713091924	neutral	127	sub-01	1.0	1.0	127_neutral	0.0	77.39078052932837	
1.0	11.009683719301847	face	0.0		147	23.0	male	east_asian	2.9733386390768017	neutral	045	sub-01	1.0	1.0	045_neutral	0.0	78.39904282678572	1.2415405930787529
1.0	12.001378558837132	pulse	0.0	t		23.0	male	east_asian	2.9733386390768017	neutral	045	sub-01	1.0	1.0	045_neutral	0.0	79.390737666321	
1.0	12.2512243123806	fix	1.0		448	23.0	male	east_asian	2.9733386390768017	neutral	045	sub-01	1.0	1.0	045_neutral	0.0	79.64058341986447	3.7665632319917677
1.0	14.001301888386934	pulse	1.0	t		23.0	male	east_asian	2.9733386390768017	neutral	045	sub-01	1.0	1.0	045_neutral	0.0	81.3906609958708	
2.0	16.017787544372368	face	0.0		147	19.0	male	white	2.894548348587346	smiling	063	sub-01	1.0	1.0	063_smiling	0.0	83.40714665185624	1.233305462316821
2.0	16.00418397285739	pulse	0.0	t		19.0	male	white	2.894548348587346	smiling	063	sub-01	1.0	1.0	063_smiling	0.0	83.39354308034126	
2.0	17.25109300668919	fix	1.0		447	19.0	male	white	2.894548348587346	smiling	063	sub-01	1.0	1.0	063_smiling	0.0	84.64045211417306	3.758217925189001
2.0	18.001187788268908	pulse	1.0	t		19.0	male	white	2.894548348587346	smiling	063	sub-01	1.0	1.0	063_smiling	0.0	85.39054689575278	
2.0	20.001131643766257	pulse	1.0	t		19.0	male	white	2.894548348587346	smiling	063	sub-01	1.0	1.0	063_smiling	0.0	87.39049075125013	
3.0	21.00931093187819	face	0.0		147	24.0	female	east_asian	4.409868682849185	neutral	030	sub-01	1.0	1.0	030_neutral	0.0	88.39867003936206	1.241632959841354
3.0	22.001066745550816	pulse	0.0	t		24.0	female	east_asian	4.409868682849185	neutral	030	sub-01	1.0	1.0	030_neutral	0.0	89.39042585303469	
3.0	22.250943891719544	fix	1.0		448	24.0	female	east_asian	4.409868682849185	neutral	030	sub-01	1.0	1.0	030_neutral	0.0	89.64030299920341	3.7665466301223205
3.0	24.00102026031709	pulse	1.0	t		24.0	female	east_asian	4.409868682849185	neutral	030	sub-01	1.0	1.0	030_neutral	0.0	91.39037936780096	
4.0	26.017490521841864	face	0.0		147	22.0	male	black	2.767608436132113	neutral	044	sub-01	1.0	1.0	044_neutral	0.0	93.40684962932573	1.2333154234383983
4.0	26.00388936514446	pulse	0.0	t		22.0	male	black	2.767608436132113	neutral	044	sub-01	1.0	1.0	044_neutral	0.0	93.39324847262833	
4.0	27.250805945280263	fix	1.0		447	22.0	male	black	2.767608436132113	neutral	044	sub-01	1.0	1.0	044_neutral	0.0	94.64016505276413	3.758210680737193
4.0	28.000887747216893	pulse	1.0	t		22.0	male	black	2.767608436132113	neutral	044	sub-01	1.0	1.0	044_neutral	0.0	95.39024685470076	
4.0	30.00083975272264	pulse	1.0	t		22.0	male	black	2.767608436132113	neutral	044	sub-01	1.0	1.0	044_neutral	0.0	97.39019886020651	
5.0	31.009016626017456	face	0.0		147	21.0	female	white	3.9920413847990446	smiling	007	sub-01	1.0	1.0	007_smiling	0.0	98.39837573350133	1.2416320542847643
5.0	32.00077153413349	pulse	0.0	t		21.0	female	white	3.9920413847990446	smiling	007	sub-01	1.0	1.0	007_smiling	0.0	99.39013064161736	
5.0	32.25064868030222	fix	1.0		448	21.0	female	white	3.9920413847990446	smiling	007	sub-01	1.0	1.0	007_smiling	0.0	99.64000778778609	3.7665493467920896
5.0	34.000715993335234	pulse	1.0	t		21.0	female	white	3.9920413847990446	smiling	007	sub-01	1.0	1.0	007_smiling	0.0	101.3900751008191	
6.0	36.01719802709431	face	0.0		147	20.0	male	black	2.609629924393156	neutral	043	sub-01	1.0	1.0	043_neutral	0.0	103.40655713457818	1.2333154234379435
6.0	36.003461942479134	pulse	0.0	t		20.0	male	black	2.609629924393156	neutral	043	sub-01	1.0	1.0	043_neutral	0.0	103.392821049963	
6.0	37.25051345053225	fix	1.0		447	20.0	male	black	2.609629924393156	neutral	043	sub-01	1.0	1.0	043_neutral	0.0	104.63987255801612	3.76653425418408
6.0	38.00060551544266	pulse	1.0	t		20.0	male	black	2.609629924393156	neutral	043	sub-01	1.0	1.0	043_neutral	0.0	105.38996462292653	
6.0	40.00053518388813	pulse	1.0	t		20.0	male	black	2.609629924393156	neutral	043	sub-01	1.0	1.0	043_neutral	0.0	107.389894291372	
7.0	41.01704770471633	face	0.0		146	29.0	male	east_asian	2.899323517707918	smiling	067	sub-01	1.0	1.0	067_smiling	0.0	108.4064068122002	1.2333057641685627
7.0	42.000487189394335	pulse	0.0	t		29.0	male	east_asian	2.899323517707918	smiling	067	sub-01	1.0	1.0	067_smiling	0.0	109.3898462968782	
7.0	42.250353468884896	fix	1.0		448	29.0	male	east_asian	2.899323517707918	smiling	067	sub-01	1.0	1.0	067_smiling	0.0	109.63971257636877	3.7665303301055246
7.0	44.0004174615442	pulse	1.0	t		29.0	male	east_asian	2.899323517707918	smiling	067	sub-01	1.0	1.0	067_smiling	0.0	111.38977656902807	
8.0	46.01688379899042	face	0.0		147	35.0	male	white	2.104257859132511	smiling	105	sub-01	1.0	1.0	105_smiling	0.0	113.40624290647429	1.233347117915855
8.0	46.00302003090974	pulse	0.0	t		35.0	male	white	2.104257859132511	smiling	105	sub-01	1.0	1.0	105_smiling	0.0	113.39237913839361	
8.0	47.250230916906276	fix	1.0		447	35.0	male	white	2.104257859132511	smiling	105	sub-01	1.0	1.0	105_smiling	0.0	114.63959002439015	3.7665122189755493
8.0	48.00029702253005	pulse	1.0	t		35.0	male	white	2.104257859132511	smiling	105	sub-01	1.0	1.0	105_smiling	0.0	115.38965613001392	
8.0	50.00026713916577	pulse	1.0	t		35.0	male	white	2.104257859132511	smiling	105	sub-01	1.0	1.0	105_smiling	0.0	117.38962624664964	
9.0	51.016743135881825	face	0.0		146	21.0	female	black	2.4994031038599283	neutral	129	sub-01	1.0	1.0	129_neutral	0.0	118.4061022433657	1.2333163289945333
9.0	52.00018141315104	pulse	0.0	t		21.0	female	black	2.4994031038599283	neutral	129	sub-01	1.0	1.0	129_neutral	0.0	119.38954052063491	
9.0	52.25005946487636	fix	1.0		448	21.0	female	black	2.4994031038599283	neutral	129	sub-01	1.0	1.0	129_neutral	0.0	119.63941857236023	3.758342288280801
9.0	54.00012315568347	pulse	1.0	t		21.0	female	black	2.4994031038599283	neutral	129	sub-01	1.0	1.0	129_neutral	0.0	121.38948226316734	
10.0	56.00840175315716	face	0.0		148	22.0	female	west_asian	3.8205332272184642	smiling	066	sub-01	1.0	1.0	066_smiling	0.0	123.39776086064103	1.2415170486106035
10.0	56.00261041752174	pulse	0.0	t		22.0	female	west_asian	3.8205332272184642	smiling	066	sub-01	1.0	1.0	066_smiling	0.0	123.3919695250056	
10.0	57.24991880176776	fix	1.0		447	22.0	female	west_asian	3.8205332272184642	smiling	066	sub-01	1.0	1.0	066_smiling	0.0	124.63927790925163	3.758209775180603
10.0	58.000013281495285	pulse	1.0	t		22.0	female	west_asian	3.8205332272184642	smiling	066	sub-01	1.0	1.0	066_smiling	0.0	125.38937238897915	
10.0	59.999953212914534	pulse	1.0	t		22.0	female	west_asian	3.8205332272184642	smiling	066	sub-01	1.0	1.0	066_smiling	0.0	127.3893123203984	
11.0	61.008128576948366	face	0.0		147	22.0	female	white	4.614007162753682	smiling	009	sub-01	1.0	1.0	009_smiling	1.0	128.39748768443224	1.24163507280673
11.0	61.999881372099026	pulse	0.0	t		22.0	female	white	4.614007162753682	smiling	009	sub-01	1.0	1.0	009_smiling	1.0	129.3892404795829	
11.0	62.249763649755096	fix	1.0		238	22.0	female	white	4.614007162753682	smiling	009	sub-01	1.0	1.0	009_smiling	1.0	129.63912275723897	2.0083021419427496
11.0	63.99984847021324	pulse	1.0	t		22.0	female	white	4.614007162753682	smiling	009	sub-01	1.0	1.0	009_smiling	1.0	131.3892075776971	
11.0	64.25806579169785	rating	2.0		236	22.0	female	white	4.614007162753682	smiling	009	sub-01	1.0	1.0	009_smiling	1.0	131.64742489918171	1.9915900968339884
11.0	65.0081300862089	response	2.0	g		22.0	female	white	4.614007162753682	smiling	009	sub-01	1.0	1.0	009_smiling	1.0	132.39748919369276	
11.0	65.9997714979113	pulse	2.0	t		22.0	female	white	4.614007162753682	smiling	009	sub-01	1.0	1.0	009_smiling	1.0	133.38913060539517	
11.0	66.24965588853183	fix	3.0		449	22.0	female	white	4.614007162753682	smiling	009	sub-01	1.0	1.0	009_smiling	1.0	133.6390149960157	3.7665363671490013
11.0	67.99970810895638	pulse	3.0	t		22.0	female	white	4.614007162753682	smiling	009	sub-01	1.0	1.0	009_smiling	1.0	135.38906721644025	
12.0	70.01619225568083	face	0.0		147	37.0	male	white	3.898925586947871	smiling	101	sub-01	1.0	1.0	101_smiling	0.0	137.4055513631647	1.2333045567602312
12.0	70.00240666731042	pulse	0.0	t		37.0	male	white	3.898925586947871	smiling	101	sub-01	1.0	1.0	101_smiling	0.0	137.3917657747943	
12.0	71.24949681244107	fix	1.0		447	37.0	male	white	3.898925586947871	smiling	101	sub-01	1.0	1.0	101_smiling	0.0	138.63885591992494	3.7665445171573992
12.0	71.99959189587298	pulse	1.0	t		37.0	male	white	3.898925586947871	smiling	101	sub-01	1.0	1.0	101_smiling	0.0	139.38895100335685	
12.0	73.99954299582214	pulse	1.0	t		37.0	male	white	3.898925586947871	smiling	101	sub-01	1.0	1.0	101_smiling	0.0	141.388902103306	
13.0	75.01604132959847	face	0.0		146	25.0	male	west_asian	2.054118583366494	smiling	115	sub-01	1.0	1.0	115_smiling	0.0	142.40540043708233	1.233306971577349
13.0	75.99948051242427	pulse	0.0	t		25.0	male	west_asian	2.054118583366494	smiling	115	sub-01	1.0	1.0	115_smiling	0.0	143.38883961990814	
13.0	76.24934830117581	fix	1.0		448	25.0	male	west_asian	2.054118583366494	smiling	115	sub-01	1.0	1.0	115_smiling	0.0	143.63870740865968	3.7582152085196867
13.0	77.99940625679164	pulse	1.0	t		25.0	male	west_asian	2.054118583366494	smiling	115	sub-01	1.0	1.0	115_smiling	0.0	145.3887653642755	
14.0	80.0075635096955	face	0.0		148	34.0	male	white	2.329486669319538	neutral	131	sub-01	1.0	1.0	131_neutral	0.0	147.39692261717937	1.241638091328241
14.0	80.00140059404521	pulse	0.0	t		34.0	male	white	2.329486669319538	neutral	131	sub-01	1.0	1.0	131_neutral	0.0	147.39075970152908	
14.0	81.24920160102374	fix	1.0		448	34.0	male	white	2.329486669319538	neutral	131	sub-01	1.0	1.0	131_neutral	0.0	148.6385607085076	3.7748858998816104
14.0	81.99929487334293	pulse	1.0	t		34.0	male	white	2.329486669319538	neutral	131	sub-01	1.0	1.0	131_neutral	0.0	149.3886539808268	
14.0	83.99925231218776	pulse	1.0	t		34.0	male	white	2.329486669319538	neutral	131	sub-01	1.0	1.0	131_neutral	0.0	151.38861141967163	
15.0	85.02408750090535	face	0.0		146	39.0	male	east_asian	2.2037405491444493	neutral	119	sub-01	1.0	1.0	119_neutral	0.0	152.41344660838922	1.233286143778514
15.0	85.99918198063324	pulse	0.0	t		39.0	male	east_asian	2.2037405491444493	neutral	119	sub-01	1.0	1.0	119_neutral	0.0	153.3885410881171	
15.0	86.25737364468387	fix	1.0		449	39.0	male	east_asian	2.2037405491444493	neutral	119	sub-01	1.0	1.0	119_neutral	0.0	153.64673275216774	3.7665671560694136
15.0	87.99912583613059	pulse	1.0	t		39.0	male	east_asian	2.2037405491444493	neutral	119	sub-01	1.0	1.0	119_neutral	0.0	155.38848494361446	
15.0	89.99906606940203	pulse	1.0	t		39.0	male	east_asian	2.2037405491444493	neutral	119	sub-01	1.0	1.0	119_neutral	0.0	157.3884251768859	
16.0	90.02394080075328	face	0.0		147	31.0	female	white	2.1822522881018704	smiling	102	sub-01	1.0	1.0	102_smiling	0.0	157.41329990823715	1.2332967086040298
16.0	91.25723750935731	fix	1.0		447	31.0	female	white	2.1822522881018704	smiling	102	sub-01	1.0	1.0	102_smiling	0.0	158.64659661684118	3.758294595638745
16.0	91.99899453043872	pulse	1.0	t		31.0	female	white	2.1822522881018704	smiling	102	sub-01	1.0	1.0	102_smiling	0.0	159.3883536379226	
16.0	93.99893868778827	pulse	1.0	t		31.0	female	white	2.1822522881018704	smiling	102	sub-01	1.0	1.0	102_smiling	0.0	161.38829779527214	
17.0	95.01553210499605	face	0.0		147	29.0	male	white	1.883406287306009	smiling	143	sub-01	1.0	1.0	143_smiling	0.0	162.40489121247992	1.241559307913576
17.0	95.99887741179873	pulse	0.0	t		29.0	male	white	1.883406287306009	smiling	143	sub-01	1.0	1.0	143_smiling	0.0	163.3882365192826	
17.0	96.25709141290963	fix	1.0		449	29.0	male	white	1.883406287306009	smiling	143	sub-01	1.0	1.0	143_smiling	0.0	163.6464505203935	3.7665481393833034
17.0	97.99883062471326	pulse	1.0	t		29.0	male	white	1.883406287306009	smiling	143	sub-01	1.0	1.0	143_smiling	0.0	165.38818973219713	
17.0	99.99877206539304	pulse	1.0	t		29.0	male	white	1.883406287306009	smiling	143	sub-01	1.0	1.0	143_smiling	0.0	167.3881311728769	
18.0	100.02363955229293	face	0.0		147	20.0	male	black	3.1070433744528456	smiling	082	sub-01	1.0	1.0	082_smiling	0.0	167.4129986597768	1.2332933882303223
18.0	101.25693294052326	fix	1.0		447	20.0	male	black	3.1070433744528456	smiling	082	sub-01	1.0	1.0	082_smiling	0.0	168.64629204800713	3.766560213469802
18.0	101.99870203569117	pulse	1.0	t		20.0	male	black	3.1070433744528456	smiling	082	sub-01	1.0	1.0	082_smiling	0.0	169.38806114317504	
18.0	103.99865041897101	pulse	1.0	t		20.0	male	black	3.1070433744528456	smiling	082	sub-01	1.0	1.0	082_smiling	0.0	171.38800952645488	
19.0	105.02349315399306	face	0.0		146	26.0	female	white	4.854755272582572	neutral	027	sub-01	1.0	1.0	027_neutral	0.0	172.41285226147693	1.2333006326821305
19.0	105.99858582260731	pulse	0.0	t		26.0	female	white	4.854755272582572	neutral	027	sub-01	1.0	1.0	027_neutral	0.0	173.38794493009118	
19.0	106.25679378667519	fix	1.0		449	26.0	female	white	4.854755272582572	neutral	027	sub-01	1.0	1.0	027_neutral	0.0	173.64615289415906	3.7665511579048143
19.0	107.99853118736564	pulse	1.0	t		26.0	female	white	4.854755272582572	neutral	027	sub-01	1.0	1.0	027_neutral	0.0	175.3878902948495	
19.0	109.9984741373064	pulse	1.0	t		26.0	female	white	4.854755272582572	neutral	027	sub-01	1.0	1.0	027_neutral	0.0	177.38783324479027	
20.0	110.02334494458	face	0.0		147	22.0	male	black	2.767608436132113	smiling	044	sub-01	1.0	1.0	044_smiling	0.0	177.41270405206387	1.2333066697251525
20.0	111.25665161430516	fix	1.0		447	22.0	male	black	2.767608436132113	smiling	044	sub-01	1.0	1.0	044_smiling	0.0	178.64601072178903	3.7665487430876965
20.0	111.99841708724716	pulse	1.0	t		22.0	male	black	2.767608436132113	smiling	044	sub-01	1.0	1.0	044_smiling	0.0	179.38777619473103	
20.0	113.9983494723624	pulse	1.0	t		22.0	male	black	2.767608436132113	smiling	044	sub-01	1.0	1.0	044_smiling	0.0	181.38770857984628	
21.0	115.02320035739285	face	0.0		146	28.0	female	east_asian	3.5766016713091924	smiling	127	sub-01	1.0	1.0	127_smiling	0.0	182.41255946487672	1.2333012363865237
21.0	115.99828638526014	pulse	0.0	t		28.0	female	east_asian	3.5766016713091924	smiling	127	sub-01	1.0	1.0	127_smiling	0.0	183.387645492744	
21.0	116.25650159377938	fix	1.0		448	28.0	female	east_asian	3.5766016713091924	smiling	127	sub-01	1.0	1.0	127_smiling	0.0	183.64586070126325	3.766547837531107
21.0	117.9982414092874	pulse	1.0	t		28.0	female	east_asian	3.5766016713091924	smiling	127	sub-01	1.0	1.0	127_smiling	0.0	185.38760051677127	
21.0	119.99816805921137	pulse	1.0	t		28.0	female	east_asian	3.5766016713091924	smiling	127	sub-01	1.0	1.0	127_smiling	0.0	187.38752716669524	
22.0	120.02304943131048	face	0.0		147	48.0	male	white	1.8929566255471548	neutral	021	sub-01	1.0	1.0	021_neutral	0.0	187.41240853879435	1.2333036512036415
22.0	121.25635308251412	fix	1.0		447	48.0	male	white	1.8929566255471548	neutral	021	sub-01	1.0	1.0	021_neutral	0.0	188.645712189998	3.7581817029295053
22.0	121.99811040544773	pulse	1.0	t		48.0	male	white	1.8929566255471548	neutral	021	sub-01	1.0	1.0	021_neutral	0.0	189.3874695129316	
22.0	123.99804822390206	pulse	1.0	t		48.0	male	white	1.8929566255471548	neutral	021	sub-01	1.0	1.0	021_neutral	0.0	191.38740733138593	
23.0	125.01453478544363	face	0.0		147	31.0	female	east_asian	3.395941106247513	neutral	087	sub-01	1.0	1.0	087_neutral	0.0	192.4038938929275	1.2416673709881252
23.0	125.99799238125115	pulse	0.0	t		31.0	female	east_asian	3.395941106247513	neutral	087	sub-01	1.0	1.0	087_neutral	0.0	193.38735148873502	
23.0	126.25620215643175	fix	1.0		1194	31.0	female	east_asian	3.395941106247513	neutral	087	sub-01	1.0	1.0	087_neutral	0.0	193.64556126391562	10.016366424380067
23.0	127.99794317934857	pulse	1.0	t		31.0	female	east_asian	3.395941106247513	neutral	087	sub-01	1.0	1.0	087_neutral	0.0	195.38730228683244	
23.0	129.9978837144722	pulse	1.0	t		31.0	female	east_asian	3.395941106247513	neutral	087	sub-01	1.0	1.0	087_neutral	0.0	197.38724282195608	
23.0	131.99782274033487	pulse	1.0	t		31.0	female	east_asian	3.395941106247513	neutral	087	sub-01	1.0	1.0	087_neutral	0.0	199.38718184781874	
23.0	133.99775421989307	pulse	1.0	t		31.0	female	east_asian	3.395941106247513	neutral	087	sub-01	1.0	1.0	087_neutral	0.0	201.38711332737694	
23.0	135.9976947550167	pulse	1.0	t		31.0	female	east_asian	3.395941106247513	neutral	087	sub-01	1.0	1.0	087_neutral	0.0	203.38705386250058	
24.0	136.27256858081182	face	0.0		147	24.0	female	black	3.0955033824114606	neutral	099	sub-01	1.0	1.0	099_neutral	0.0	203.6619276882957	1.2333042549080346
24.0	137.50587283571986	fix	1.0		447	24.0	female	black	3.0955033824114606	neutral	099	sub-01	1.0	1.0	099_neutral	0.0	204.89523194320373	3.7665487430876965
24.0	137.99764313829655	pulse	1.0	t		24.0	female	black	3.0955033824114606	neutral	099	sub-01	1.0	1.0	099_neutral	0.0	205.38700224578042	
24.0	139.9975866919417	pulse	1.0	t		24.0	female	black	3.0955033824114606	neutral	099	sub-01	1.0	1.0	099_neutral	0.0	207.38694579942558	
25.0	141.27242157880755	face	0.0		146	20.0	female	white	3.9502586549940313	smiling	091	sub-01	1.0	1.0	091_smiling	0.0	208.66178068629142	1.2333087826905285
25.0	141.99751877520475	pulse	0.0	t		20.0	female	white	3.9502586549940313	smiling	091	sub-01	1.0	1.0	091_smiling	0.0	209.38687788268862	
25.0	142.50573036149808	fix	1.0		447	20.0	female	white	3.9502586549940313	smiling	091	sub-01	1.0	1.0	091_smiling	0.0	209.89508946898195	3.7665445171573992
25.0	143.99746051773673	pulse	1.0	t		20.0	female	white	3.9502586549940313	smiling	091	sub-01	1.0	1.0	091_smiling	0.0	211.3868196252206	
25.0	145.99740859916437	pulse	1.0	t		20.0	female	white	3.9502586549940313	smiling	091	sub-01	1.0	1.0	091_smiling	0.0	213.38676770664824	
26.0	146.27227487865548	face	0.0		147	24.0	female	east_asian	4.409868682849185	smiling	030	sub-01	1.0	1.0	030_smiling	1.0	213.66163398613935	1.2332994252733442
26.0	147.50557430392882	fix	1.0		238	24.0	female	east_asian	4.409868682849185	smiling	030	sub-01	1.0	1.0	030_smiling	1.0	214.8949334114127	1.9999435536451529
26.0	147.9973612083745	pulse	1.0	t		24.0	female	east_asian	4.409868682849185	smiling	030	sub-01	1.0	1.0	030_smiling	1.0	215.38672031585838	
26.0	149.50551785757398	rating	2.0		238	24.0	female	east_asian	4.409868682849185	smiling	030	sub-01	1.0	1.0	030_smiling	1.0	216.89487696505785	1.9999489869842364
26.0	149.99728785829848	pulse	2.0	t		24.0	female	east_asian	4.409868682849185	smiling	030	sub-01	1.0	1.0	030_smiling	1.0	217.38664696578235	
26.0	151.5054668445582	fix	3.0		447	24.0	female	east_asian	4.409868682849185	smiling	030	sub-01	1.0	1.0	030_smiling	1.0	218.89482595204208	3.7665399893749054
26.0	151.99723201564802	pulse	3.0	t		24.0	female	east_asian	4.409868682849185	smiling	030	sub-01	1.0	1.0	030_smiling	1.0	219.3865911231319	
26.0	153.99718462485816	pulse	3.0	t		24.0	female	east_asian	4.409868682849185	smiling	030	sub-01	1.0	1.0	030_smiling	1.0	221.38654373234203	
27.0	155.27200683393312	face	0.0		146	47.0	male	east_asian	2.171110226820533	neutral	024	sub-01	1.0	1.0	024_neutral	1.0	222.661365941417	1.2333096882471182
27.0	155.9971293859121	pulse	0.0	t		47.0	male	east_asian	2.171110226820533	neutral	024	sub-01	1.0	1.0	024_neutral	1.0	223.38648849339597	
27.0	156.50531652218024	fix	1.0		238	47.0	male	east_asian	2.171110226820533	neutral	024	sub-01	1.0	1.0	024_neutral	1.0	223.8946756296641	1.999944157349546
27.0	157.9970542247229	pulse	1.0	t		47.0	male	east_asian	2.171110226820533	neutral	024	sub-01	1.0	1.0	024_neutral	1.0	225.38641333220676	
27.0	158.50526067952978	rating	2.0		238	47.0	male	east_asian	2.171110226820533	neutral	024	sub-01	1.0	1.0	024_neutral	1.0	225.89461978701365	1.9999405351231871
27.0	159.99698630798594	pulse	2.0	t		47.0	male	east_asian	2.171110226820533	neutral	024	sub-01	1.0	1.0	024_neutral	1.0	227.3863454154698	
27.0	160.50520121465297	fix	3.0		447	47.0	male	east_asian	2.171110226820533	neutral	024	sub-01	1.0	1.0	024_neutral	1.0	227.89456032213684	3.7665405930792986
27.0	161.9969295597789	pulse	3.0	t		47.0	male	east_asian	2.171110226820533	neutral	024	sub-01	1.0	1.0	024_neutral	1.0	229.38628866726276	
27.0	163.99686737823276	pulse	3.0	t		47.0	male	east_asian	2.171110226820533	neutral	024	sub-01	1.0	1.0	024_neutral	1.0	231.38622648571663	
28.0	164.27174180773227	face	0.0		147	21.0	male	black	2.969757262236371	smiling	137	sub-01	1.0	1.0	137_smiling	0.0	231.66110091521614	1.2333105938037079
28.0	165.50505240153598	fix	1.0		447	21.0	male	black	2.969757262236371	smiling	137	sub-01	1.0	1.0	137_smiling	0.0	232.89441150901985	3.7665399893744507
28.0	165.9968118374345	pulse	1.0	t		21.0	male	black	2.969757262236371	smiling	137	sub-01	1.0	1.0	137_smiling	0.0	233.38617094491838	
28.0	167.99675901330556	pulse	1.0	t		21.0	male	black	2.969757262236371	smiling	137	sub-01	1.0	1.0	137_smiling	0.0	235.38611812078943	
29.0	169.27159239091043	face	0.0		146	21.0	female	white	3.9920413847990446	neutral	007	sub-01	1.0	1.0	007_neutral	1.0	236.6609514983943	1.2333127067690839
29.0	169.9967149428894	pulse	0.0	t		21.0	female	white	3.9920413847990446	neutral	007	sub-01	1.0	1.0	007_neutral	1.0	237.38607405037328	
29.0	170.5049050976795	fix	1.0		238	21.0	female	white	3.9920413847990446	neutral	007	sub-01	1.0	1.0	007_neutral	1.0	237.89426420516338	1.999928159184492
29.0	171.99665638356964	pulse	1.0	t		21.0	female	white	3.9920413847990446	neutral	007	sub-01	1.0	1.0	007_neutral	1.0	239.3860154910535	
29.0	172.504833256864	rating	2.0		238	21.0	female	white	3.9920413847990446	neutral	007	sub-01	1.0	1.0	007_neutral	1.0	239.89419236434787	1.9999538166189268
29.0	173.99658544831073	pulse	2.0	t		21.0	female	white	3.9920413847990446	neutral	007	sub-01	1.0	1.0	007_neutral	1.0	241.3859445557946	
29.0	174.50478707348293	fix	3.0		447	21.0	female	white	3.9920413847990446	neutral	007	sub-01	1.0	1.0	007_neutral	1.0	241.8941461809668	3.766541196783237
29.0	175.996516324165	pulse	3.0	t		21.0	female	white	3.9920413847990446	neutral	007	sub-01	1.0	1.0	007_neutral	1.0	243.38587543164886	
29.0	177.99645202965394	pulse	3.0	t		21.0	female	white	3.9920413847990446	neutral	007	sub-01	1.0	1.0	007_neutral	1.0	245.3858111371378	
30.0	178.27132827026617	face	0.0		147	21.0	male	east_asian/white	3.501790688420215	smiling	036	sub-01	1.0	1.0	036_smiling	0.0	245.66068737775004	1.2333063678734106
30.0	179.50463463813958	fix	1.0		447	21.0	male	east_asian/white	3.501790688420215	smiling	036	sub-01	1.0	1.0	036_smiling	0.0	246.89399374562345	3.7582662215354503
30.0	179.9963955832991	pulse	1.0	t		21.0	male	east_asian/white	3.501790688420215	smiling	036	sub-01	1.0	1.0	036_smiling	0.0	247.38575469078296	
30.0	181.99634668324825	pulse	1.0	t		21.0	male	east_asian/white	3.501790688420215	smiling	036	sub-01	1.0	1.0	036_smiling	0.0	249.38570579073212	
31.0	183.26290085967503	face	0.0		147	31.0	female	west_asian	2.364902506963788	smiling	006	sub-01	1.0	1.0	006_smiling	0.0	250.6522599671589	1.2415855690514945
31.0	183.996283596146	pulse	0.0	t		31.0	female	west_asian	2.364902506963788	smiling	006	sub-01	1.0	1.0	006_smiling	0.0	251.38564270362986	
31.0	184.50448642872652	fix	1.0		447	31.0	female	west_asian	2.364902506963788	smiling	006	sub-01	1.0	1.0	006_smiling	0.0	251.8938455362104	3.7583380623505036
31.0	185.99620692569624	pulse	1.0	t		31.0	female	west_asian	2.364902506963788	smiling	006	sub-01	1.0	1.0	006_smiling	0.0	253.3855660331801	
31.0	187.9961731182534	pulse	1.0	t		31.0	female	west_asian	2.364902506963788	smiling	006	sub-01	1.0	1.0	006_smiling	0.0	255.38553222573728	
32.0	188.26282449107703	face	0.0		148	21.0	female	black	2.4994031038599283	smiling	129	sub-01	1.0	1.0	129_smiling	0.0	255.6521835985609	1.241513728236896
32.0	189.50433821931392	fix	1.0		447	21.0	female	black	2.4994031038599283	smiling	129	sub-01	1.0	1.0	129_smiling	0.0	256.8936973267978	3.7583256864118084
32.0	189.99610671077744	pulse	1.0	t		21.0	female	black	2.4994031038599283	smiling	129	sub-01	1.0	1.0	129_smiling	0.0	257.3854658182613	
32.0	191.99605116997918	pulse	1.0	t		21.0	female	black	2.4994031038599283	smiling	129	sub-01	1.0	1.0	129_smiling	0.0	259.38541027746305	
33.0	193.26266390572573	face	0.0		147	25.0	male	west_asian	2.1313171508157582	neutral	008	sub-01	1.0	1.0	008_neutral	0.0	260.6520230132096	1.241530028253237
33.0	193.99598627176374	pulse	0.0	t		25.0	male	west_asian	2.1313171508157582	neutral	008	sub-01	1.0	1.0	008_neutral	0.0	261.3853453792476	
33.0	194.50419393397897	fix	1.0		447	25.0	male	west_asian	2.1313171508157582	neutral	008	sub-01	1.0	1.0	008_neutral	0.0	261.89355304146284	3.7582499215181997
33.0	195.9959325420782	pulse	1.0	t		25.0	male	west_asian	2.1313171508157582	neutral	008	sub-01	1.0	1.0	008_neutral	0.0	263.3852916495621	
33.0	197.99587126608867	pulse	1.0	t		25.0	male	west_asian	2.1313171508157582	neutral	008	sub-01	1.0	1.0	008_neutral	0.0	265.38523037357254	
34.0	198.26244385549717	face	0.0		148	32.0	male	white	1.8245125348189413	neutral	125	sub-01	1.0	1.0	125_neutral	0.0	265.65180296298104	1.2415916060949712
34.0	199.50403546159214	fix	1.0		447	32.0	male	white	1.8245125348189413	neutral	125	sub-01	1.0	1.0	125_neutral	0.0	266.893394569076	3.7665363671490013
34.0	199.9957997271258	pulse	1.0	t		32.0	male	white	1.8245125348189413	neutral	125	sub-01	1.0	1.0	125_neutral	0.0	267.3851588346097	
34.0	201.99576561783078	pulse	1.0	t		32.0	male	white	1.8245125348189413	neutral	125	sub-01	1.0	1.0	125_neutral	0.0	269.38512472531465	
35.0	203.27057182874114	face	0.0		146	23.0	female	white	4.005173099880621	smiling	086	sub-01	1.0	1.0	086_smiling	0.0	270.659930936225	1.2333166308467298
35.0	203.99570102146754	pulse	0.0	t		23.0	female	white	4.005173099880621	smiling	086	sub-01	1.0	1.0	086_smiling	0.0	271.3850601289514	
35.0	204.50388845958787	fix	1.0		447	23.0	female	white	4.005173099880621	smiling	086	sub-01	1.0	1.0	086_smiling	0.0	271.89324756707174	3.75821490666749
35.0	205.99563068991347	pulse	1.0	t		23.0	female	white	4.005173099880621	smiling	086	sub-01	1.0	1.0	086_smiling	0.0	273.38498979739734	
35.0	207.9955878269061	pulse	1.0	t		23.0	female	white	4.005173099880621	smiling	086	sub-01	1.0	1.0	086_smiling	0.0	275.38494693439	
36.0	208.26210336625536	face	0.0		148	37.0	male	white	3.898925586947871	neutral	101	sub-01	1.0	1.0	101_neutral	0.0	275.65146247373923	1.2416311487286293
36.0	209.503734514984	fix	1.0		447	37.0	male	white	3.898925586947871	neutral	101	sub-01	1.0	1.0	101_neutral	0.0	276.89309362246786	3.7665620245829814
36.0	209.99551387312567	pulse	1.0	t		37.0	male	white	3.898925586947871	neutral	101	sub-01	1.0	1.0	101_neutral	0.0	277.38487298060954	
36.0	211.99545138972735	pulse	1.0	t		37.0	male	white	3.898925586947871	neutral	101	sub-01	1.0	1.0	101_neutral	0.0	279.3848104972112	
37.0	213.27029653956697	face	0.0		146	23.0	female	white	3.7552725825706332	neutral	122	sub-01	1.0	1.0	122_neutral	0.0	280.65965564705084	1.2333036512036415
37.0	213.99539735818962	pulse	0.0	t		23.0	female	white	3.7552725825706332	neutral	122	sub-01	1.0	1.0	122_neutral	0.0	281.3847564656735	
37.0	214.5036001907706	fix	1.0		446	23.0	female	white	3.7552725825706332	neutral	122	sub-01	1.0	1.0	122_neutral	0.0	281.8929592982545	3.766543309748613
37.0	215.99533427108736	pulse	1.0	t		23.0	female	white	3.7552725825706332	neutral	122	sub-01	1.0	1.0	122_neutral	0.0	283.3846933785712	
37.0	217.99528537103652	pulse	1.0	t		23.0	female	white	3.7552725825706332	neutral	122	sub-01	1.0	1.0	122_neutral	0.0	285.3846444785204	
38.0	218.27014350051923	face	0.0		147	23.0	female	white	4.005173099880621	neutral	086	sub-01	1.0	1.0	086_neutral	0.0	285.6595026080031	1.2333145178818086
38.0	219.50345801840103	fix	1.0		447	23.0	female	white	4.005173099880621	neutral	086	sub-01	1.0	1.0	086_neutral	0.0	286.8928171258849	3.766538178261726
38.0	219.99522288763865	pulse	1.0	t		23.0	female	white	4.005173099880621	neutral	086	sub-01	1.0	1.0	086_neutral	0.0	287.3845819951225	
38.0	221.9951631209101	pulse	1.0	t		23.0	female	white	4.005173099880621	neutral	086	sub-01	1.0	1.0	086_neutral	0.0	289.38452222839396	
39.0	223.26999619666276	face	0.0		146	22.0	female	west_asian	3.8205332272184642	neutral	066	sub-01	1.0	1.0	066_neutral	1.0	290.65935530414663	1.2332991234211477
39.0	223.99510456158987	pulse	0.0	t		22.0	female	west_asian	3.8205332272184642	neutral	066	sub-01	1.0	1.0	066_neutral	1.0	291.38446366907374	
39.0	224.5032953200839	fix	1.0		239	22.0	female	west_asian	3.8205332272184642	neutral	066	sub-01	1.0	1.0	066_neutral	1.0	291.8926544275678	1.9999423462368213
39.0	226.50323766632073	rating	2.0		239	22.0	female	west_asian	3.8205332272184642	neutral	066	sub-01	1.0	1.0	066_neutral	1.0	293.8925967738046	1.999939931418794
39.0	228.50317759773952	fix	3.0		449	22.0	female	west_asian	3.8205332272184642	neutral	066	sub-01	1.0	1.0	066_neutral	1.0	295.8925367052234	3.7498901258122714
40.0	232.2530677235518	fix	0.0		720												299.64242683103566	5.99982341648365
40.0	235.46152139528158	pulse	0.0	t													302.85088050276545	
40.0	237.46155248605464	pulse	0.0	t													304.8509115935385	
