trial_nr	onset	event_type	phase	response	nr_frames	face_age	face_sex	face_eth	attractiveness	expression	face_id	sub_id	ses	run	trial_type	catch	rating_type	onset_abs	duration
-1.0	0.058385360524880525	fix	0.0		713													105.11204156178474	5.9746677408672895
-1.0	-85.2689447850205	response	0.0	b														19.78471141623936	
-1.0	0.6999560197546089	pulse	0.0	t														105.75361222101446	
-1.0	1.3999361878938998	pulse	0.0	t														106.45359238915375	
-1.0	2.0998949243416973	pulse	0.0	t														107.15355112560155	
-1.0	2.7998935056241407	pulse	0.0	t														107.853549706884	
-1.0	3.499864014409468	pulse	0.0	t														108.55352021566932	
-1.0	4.199850219644759	pulse	0.0	t														109.25350642090461	
-1.0	4.89983733044437	pulse	0.0	t														109.95349353170423	
-1.0	5.599815989309491	pulse	0.0	t														110.65347219056935	
0.0	6.03305310139217	face	0.0		141	40.0	male	black	2.408674890569041	smiling	061	sub-09	2.0	1.0	061_smiling	0.0		111.08670930265203	1.2166517600701354
0.0	6.2998203058332365	pulse	0.0	t		40.0	male	black	2.408674890569041	smiling	061	sub-09	2.0	1.0	061_smiling	0.0		111.35347650709309	
0.0	6.999798964698584	pulse	0.0	t		40.0	male	black	2.408674890569041	smiling	061	sub-09	2.0	1.0	061_smiling	0.0		112.05345516595844	
0.0	7.249704861462305	fix	1.0		445	40.0	male	black	2.408674890569041	smiling	061	sub-09	2.0	1.0	061_smiling	0.0		112.30336106272216	3.76657024417932
0.0	7.699787584772139	pulse	1.0	t		40.0	male	black	2.408674890569041	smiling	061	sub-09	2.0	1.0	061_smiling	0.0		112.753443786032	
0.0	8.39977620484592	pulse	1.0	t		40.0	male	black	2.408674890569041	smiling	061	sub-09	2.0	1.0	061_smiling	0.0		113.45343240610578	
0.0	9.099773578709119	pulse	1.0	t		40.0	male	black	2.408674890569041	smiling	061	sub-09	2.0	1.0	061_smiling	0.0		114.15342977996897	
0.0	9.799756463541598	pulse	1.0	t		40.0	male	black	2.408674890569041	smiling	061	sub-09	2.0	1.0	061_smiling	0.0		114.85341266480145	
0.0	10.499743574341437	pulse	1.0	t		40.0	male	black	2.408674890569041	smiling	061	sub-09	2.0	1.0	061_smiling	0.0		115.55339977560129	
1.0	11.016275105641625	face	0.0		145	31.0	female	white	2.1822522881018704	smiling	102	sub-09	2.0	1.0	102_smiling	0.0		116.06993130690148	1.233326521476556
1.0	11.19974064634971	pulse	0.0	t		31.0	female	white	2.1822522881018704	smiling	102	sub-09	2.0	1.0	102_smiling	0.0		116.25339684760957	
1.0	11.899709344006169	pulse	0.0	t		31.0	female	white	2.1822522881018704	smiling	102	sub-09	2.0	1.0	102_smiling	0.0		116.95336554526602	
1.0	12.249601627118182	fix	1.0		444	31.0	female	white	2.1822522881018704	smiling	102	sub-09	2.0	1.0	102_smiling	0.0		117.30325782837804	3.7665675274861314
1.0	12.599704303030876	pulse	1.0	t		31.0	female	white	2.1822522881018704	smiling	102	sub-09	2.0	1.0	102_smiling	0.0		117.65336050429073	
1.0	13.299680245202808	pulse	1.0	t		31.0	female	white	2.1822522881018704	smiling	102	sub-09	2.0	1.0	102_smiling	0.0		118.35333644646266	
1.0	13.999666752292796	pulse	1.0	t		31.0	female	white	2.1822522881018704	smiling	102	sub-09	2.0	1.0	102_smiling	0.0		119.05332295355265	
1.0	14.699650844544522	pulse	1.0	t		31.0	female	white	2.1822522881018704	smiling	102	sub-09	2.0	1.0	102_smiling	0.0		119.75330704580438	
1.0	15.399642483166417	pulse	1.0	t		31.0	female	white	2.1822522881018704	smiling	102	sub-09	2.0	1.0	102_smiling	0.0		120.45329868442627	
2.0	16.016169154604313	face	0.0		145	22.0	female	west_asian	3.8205332272184642	smiling	066	sub-09	2.0	1.0	066_smiling	1.0	dominance	121.06982535586417	1.2333286344603493
2.0	16.099659779446938	pulse	0.0	t		22.0	female	west_asian	3.8205332272184642	smiling	066	sub-09	2.0	1.0	066_smiling	1.0	dominance	121.1533159807068	
2.0	16.799617912185113	pulse	0.0	t		22.0	female	west_asian	3.8205332272184642	smiling	066	sub-09	2.0	1.0	066_smiling	1.0	dominance	121.85327411344497	
2.0	17.249497789064662	fix	1.0		177	22.0	female	west_asian	3.8205332272184642	smiling	066	sub-09	2.0	1.0	066_smiling	1.0	dominance	122.30315399032452	1.5083379844127194
2.0	17.499616795322254	pulse	1.0	t		22.0	female	west_asian	3.8205332272184642	smiling	066	sub-09	2.0	1.0	066_smiling	1.0	dominance	122.55327299658211	
2.0	18.19958126701158	pulse	1.0	t		22.0	female	west_asian	3.8205332272184642	smiling	066	sub-09	2.0	1.0	066_smiling	1.0	dominance	123.25323746827144	
2.0	18.75783577347738	rating	2.0		293	22.0	female	west_asian	3.8205332272184642	smiling	066	sub-09	2.0	1.0	066_smiling	1.0	dominance	123.81149197473724	2.491579911079498
2.0	18.899583168696836	pulse	2.0	t		22.0	female	west_asian	3.8205332272184642	smiling	066	sub-09	2.0	1.0	066_smiling	1.0	dominance	123.95323936995669	
2.0	19.599564242400447	pulse	2.0	t		22.0	female	west_asian	3.8205332272184642	smiling	066	sub-09	2.0	1.0	066_smiling	1.0	dominance	124.6532204436603	
2.0	20.141211602936664	response	2.0	y		22.0	female	west_asian	3.8205332272184642	smiling	066	sub-09	2.0	1.0	066_smiling	1.0	dominance	125.19486780419652	
2.0	20.29952599739636	pulse	2.0	t		22.0	female	west_asian	3.8205332272184642	smiling	066	sub-09	2.0	1.0	066_smiling	1.0	dominance	125.35318219865621	
2.0	20.999518541582574	pulse	2.0	t		22.0	female	west_asian	3.8205332272184642	smiling	066	sub-09	2.0	1.0	066_smiling	1.0	dominance	126.05317474284243	
2.0	21.24941568455688	fix	3.0		444	22.0	female	west_asian	3.8205332272184642	smiling	066	sub-09	2.0	1.0	066_smiling	1.0	dominance	126.30307188581673	3.766571149743868
2.0	21.69951289689766	pulse	3.0	t		22.0	female	west_asian	3.8205332272184642	smiling	066	sub-09	2.0	1.0	066_smiling	1.0	dominance	126.75316909815751	
2.0	22.399496989149384	pulse	3.0	t		22.0	female	west_asian	3.8205332272184642	smiling	066	sub-09	2.0	1.0	066_smiling	1.0	dominance	127.45315319040924	
2.0	23.09948289252975	pulse	3.0	t		22.0	female	west_asian	3.8205332272184642	smiling	066	sub-09	2.0	1.0	066_smiling	1.0	dominance	128.1531390937896	
2.0	23.799464569942984	pulse	3.0	t		22.0	female	west_asian	3.8205332272184642	smiling	066	sub-09	2.0	1.0	066_smiling	1.0	dominance	128.85312077120284	
2.0	24.49945349187169	pulse	3.0	t		22.0	female	west_asian	3.8205332272184642	smiling	066	sub-09	2.0	1.0	066_smiling	1.0	dominance	129.55310969313155	
3.0	25.015986834300747	face	0.0		145	23.0	male	white	2.6275368085953046	neutral	141	sub-09	2.0	1.0	141_neutral	0.0		130.0696430355606	1.233331351153538
3.0	25.199443923074114	pulse	0.0	t		23.0	male	white	2.6275368085953046	neutral	141	sub-09	2.0	1.0	141_neutral	0.0		130.25310012433397	
3.0	25.899423487503782	pulse	0.0	t		23.0	male	white	2.6275368085953046	neutral	141	sub-09	2.0	1.0	141_neutral	0.0		130.95307968876364	
3.0	26.249318185454285	fix	1.0		444	23.0	male	white	2.6275368085953046	neutral	141	sub-09	2.0	1.0	141_neutral	0.0		131.30297438671414	3.7665654145025655
3.0	26.599416031689998	pulse	1.0	t		23.0	male	white	2.6275368085953046	neutral	141	sub-09	2.0	1.0	141_neutral	0.0		131.65307223294985	
3.0	27.29939710539361	pulse	1.0	t		23.0	male	white	2.6275368085953046	neutral	141	sub-09	2.0	1.0	141_neutral	0.0		132.35305330665346	
3.0	27.99938240506458	pulse	1.0	t		23.0	male	white	2.6275368085953046	neutral	141	sub-09	2.0	1.0	141_neutral	0.0		133.05303860632444	
3.0	28.699362573203643	pulse	1.0	t		23.0	male	white	2.6275368085953046	neutral	141	sub-09	2.0	1.0	141_neutral	0.0		133.7530187744635	
3.0	29.399350589567803	pulse	1.0	t		23.0	male	white	2.6275368085953046	neutral	141	sub-09	2.0	1.0	141_neutral	0.0		134.45300679082766	
4.0	30.01588359995685	face	0.0		145	54.0	female	white	2.286908077994429	smiling	136	sub-09	2.0	1.0	136_smiling	0.0		135.0695398012167	1.2333292381697447
4.0	30.099344039318567	pulse	0.0	t		54.0	female	white	2.286908077994429	smiling	136	sub-09	2.0	1.0	136_smiling	0.0		135.15300024057842	
4.0	30.799319679635573	pulse	0.0	t		54.0	female	white	2.286908077994429	smiling	136	sub-09	2.0	1.0	136_smiling	0.0		135.85297588089543	
4.0	31.249212838126596	fix	1.0		444	54.0	female	white	2.286908077994429	smiling	136	sub-09	2.0	1.0	136_smiling	0.0		136.30286903938645	3.7582290902910245
4.0	31.499313129386337	pulse	1.0	t		54.0	female	white	2.286908077994429	smiling	136	sub-09	2.0	1.0	136_smiling	0.0		136.5529693306462	
4.0	32.19928514744561	pulse	1.0	t		54.0	female	white	2.286908077994429	smiling	136	sub-09	2.0	1.0	136_smiling	0.0		137.25294134870546	
4.0	32.89928735098579	pulse	1.0	t		54.0	female	white	2.286908077994429	smiling	136	sub-09	2.0	1.0	136_smiling	0.0		137.95294355224564	
4.0	33.59926027460938	pulse	1.0	t		54.0	female	white	2.286908077994429	smiling	136	sub-09	2.0	1.0	136_smiling	0.0		138.65291647586923	
4.0	34.29924798911884	pulse	1.0	t		54.0	female	white	2.286908077994429	smiling	136	sub-09	2.0	1.0	136_smiling	0.0		139.3529041903787	
5.0	35.00744192841762	face	0.0		148	28.0	female	white	5.676880222841227	neutral	124	sub-09	2.0	1.0	124_neutral	0.0		140.06109812967748	1.2499988680444858
5.0	35.00146610879892	pulse	0.0	t		28.0	female	white	5.676880222841227	neutral	124	sub-09	2.0	1.0	124_neutral	0.0		140.05512231005878	
5.0	35.69922704039527	pulse	0.0	t		28.0	female	white	5.676880222841227	neutral	124	sub-09	2.0	1.0	124_neutral	0.0		140.75288324165513	
5.0	36.257440796462106	fix	1.0		443	28.0	female	white	5.676880222841227	neutral	124	sub-09	2.0	1.0	124_neutral	0.0		141.31109699772196	3.76657024417932
5.0	36.399216264178676	pulse	1.0	t		28.0	female	white	5.676880222841227	neutral	124	sub-09	2.0	1.0	124_neutral	0.0		141.45287246543853	
5.0	37.099194319334174	pulse	1.0	t		28.0	female	white	5.676880222841227	neutral	124	sub-09	2.0	1.0	124_neutral	0.0		142.15285052059403	
5.0	37.79918082642416	pulse	1.0	t		28.0	female	white	5.676880222841227	neutral	124	sub-09	2.0	1.0	124_neutral	0.0		142.85283702768402	
5.0	38.499160088998906	pulse	1.0	t		28.0	female	white	5.676880222841227	neutral	124	sub-09	2.0	1.0	124_neutral	0.0		143.55281629025876	
5.0	39.19915082205648	pulse	1.0	t		28.0	female	white	5.676880222841227	neutral	124	sub-09	2.0	1.0	124_neutral	0.0		144.25280702331634	
5.0	39.899129179066676	pulse	1.0	t		28.0	female	white	5.676880222841227	neutral	124	sub-09	2.0	1.0	124_neutral	0.0		144.95278538032653	
6.0	40.024011040641426	face	0.0		146	24.0	female	east_asian	2.9076800636689217	smiling	034	sub-09	2.0	1.0	034_smiling	1.0	attractiveness	145.07766724190128	1.2333268233314811
6.0	40.59912866591344	pulse	0.0	t		24.0	female	east_asian	2.9076800636689217	smiling	034	sub-09	2.0	1.0	034_smiling	1.0	attractiveness	145.6527848671733	
6.0	41.25733786397291	fix	1.0		176	24.0	female	east_asian	2.9076800636689217	smiling	034	sub-09	2.0	1.0	034_smiling	1.0	attractiveness	146.31099406523276	1.4999681543176848
6.0	41.29911487114873	pulse	1.0	t		24.0	female	east_asian	2.9076800636689217	smiling	034	sub-09	2.0	1.0	034_smiling	1.0	attractiveness	146.3527710724086	
6.0	41.999092322594834	pulse	1.0	t		24.0	female	east_asian	2.9076800636689217	smiling	034	sub-09	2.0	1.0	034_smiling	1.0	attractiveness	147.0527485238547	
6.0	42.69908426307143	pulse	1.0	t		24.0	female	east_asian	2.9076800636689217	smiling	034	sub-09	2.0	1.0	034_smiling	1.0	attractiveness	147.75274046433128	
6.0	42.75730601829059	rating	2.0		295	24.0	female	east_asian	2.9076800636689217	smiling	034	sub-09	2.0	1.0	034_smiling	1.0	attractiveness	147.81096221955045	2.4999479300458916
6.0	43.39907288314521	pulse	2.0	t		24.0	female	east_asian	2.9076800636689217	smiling	034	sub-09	2.0	1.0	034_smiling	1.0	attractiveness	148.45272908440506	
6.0	44.099055164268066	pulse	2.0	t		24.0	female	east_asian	2.9076800636689217	smiling	034	sub-09	2.0	1.0	034_smiling	1.0	attractiveness	149.15271136552792	
6.0	44.36881435355849	response	2.0	e		24.0	female	east_asian	2.9076800636689217	smiling	034	sub-09	2.0	1.0	034_smiling	1.0	attractiveness	149.42247055481835	
6.0	44.79902597490809	pulse	2.0	t		24.0	female	east_asian	2.9076800636689217	smiling	034	sub-09	2.0	1.0	034_smiling	1.0	attractiveness	149.85268217616795	
6.0	45.25725394833648	fix	3.0		444	24.0	female	east_asian	2.9076800636689217	smiling	034	sub-09	2.0	1.0	034_smiling	1.0	attractiveness	150.31091014959634	3.7666396707850254
6.0	45.49902214135204	pulse	3.0	t		24.0	female	east_asian	2.9076800636689217	smiling	034	sub-09	2.0	1.0	034_smiling	1.0	attractiveness	150.5526783426119	
6.0	46.199005629894145	pulse	3.0	t		24.0	female	east_asian	2.9076800636689217	smiling	034	sub-09	2.0	1.0	034_smiling	1.0	attractiveness	151.252661831154	
6.0	46.89899304254868	pulse	3.0	t		24.0	female	east_asian	2.9076800636689217	smiling	034	sub-09	2.0	1.0	034_smiling	1.0	attractiveness	151.95264924380854	
6.0	47.59898709600884	pulse	3.0	t		24.0	female	east_asian	2.9076800636689217	smiling	034	sub-09	2.0	1.0	034_smiling	1.0	attractiveness	152.6526432972687	
6.0	48.29896243447115	pulse	3.0	t		24.0	female	east_asian	2.9076800636689217	smiling	034	sub-09	2.0	1.0	034_smiling	1.0	attractiveness	153.352618635731	
6.0	48.998948941561366	pulse	3.0	t		24.0	female	east_asian	2.9076800636689217	smiling	034	sub-09	2.0	1.0	034_smiling	1.0	attractiveness	154.05260514282122	
7.0	49.02389361912151	face	0.0		146	32.0	male	white	2.389176283326701	smiling	092	sub-09	2.0	1.0	092_smiling	0.0		154.07754982038136	1.2332607171285872
7.0	49.69893605236098	pulse	0.0	t		32.0	male	white	2.389176283326701	smiling	092	sub-09	2.0	1.0	092_smiling	0.0		154.75259225362083	
7.0	50.257154336250096	fix	1.0		443	32.0	male	white	2.389176283326701	smiling	092	sub-09	2.0	1.0	092_smiling	0.0		155.31081053750995	3.766567829340829
7.0	50.398925879854005	pulse	1.0	t		32.0	male	white	2.389176283326701	smiling	092	sub-09	2.0	1.0	092_smiling	0.0		155.45258208111386	
7.0	51.09890302944518	pulse	1.0	t		32.0	male	white	2.389176283326701	smiling	092	sub-09	2.0	1.0	092_smiling	0.0		156.15255923070504	
7.0	51.7988877254063	pulse	1.0	t		32.0	male	white	2.389176283326701	smiling	092	sub-09	2.0	1.0	092_smiling	0.0		156.85254392666616	
7.0	52.49888087330237	pulse	1.0	t		32.0	male	white	2.389176283326701	smiling	092	sub-09	2.0	1.0	092_smiling	0.0		157.55253707456222	
7.0	53.19886043773181	pulse	1.0	t		32.0	male	white	2.389176283326701	smiling	092	sub-09	2.0	1.0	092_smiling	0.0		158.25251663899166	
7.0	53.89885177449878	pulse	1.0	t		32.0	male	white	2.389176283326701	smiling	092	sub-09	2.0	1.0	092_smiling	0.0		158.95250797575864	
8.0	54.023722165590925	face	0.0		146	47.0	male	east_asian	2.171110226820533	neutral	024	sub-09	2.0	1.0	024_neutral	1.0	trustworthiness	159.07737836685078	1.2333259177669333
8.0	54.59883918715332	pulse	0.0	t		47.0	male	east_asian	2.171110226820533	neutral	024	sub-09	2.0	1.0	024_neutral	1.0	trustworthiness	159.65249538841317	
8.0	55.25704808335786	fix	1.0		176	47.0	male	east_asian	2.171110226820533	neutral	024	sub-09	2.0	1.0	024_neutral	1.0	trustworthiness	160.3107042846177	1.4999720784303463
8.0	55.29883927770993	pulse	1.0	t		47.0	male	east_asian	2.171110226820533	neutral	024	sub-09	2.0	1.0	024_neutral	1.0	trustworthiness	160.3524954789698	
8.0	55.99880706980184	pulse	1.0	t		47.0	male	east_asian	2.171110226820533	neutral	024	sub-09	2.0	1.0	024_neutral	1.0	trustworthiness	161.0524632710617	
8.0	56.69878904907	pulse	1.0	t		47.0	male	east_asian	2.171110226820533	neutral	024	sub-09	2.0	1.0	024_neutral	1.0	trustworthiness	161.75244525032986	
8.0	56.757020161788205	rating	2.0		295	47.0	male	east_asian	2.171110226820533	neutral	024	sub-09	2.0	1.0	024_neutral	1.0	trustworthiness	161.81067636304806	2.4999455152074006
8.0	57.39878521551395	pulse	2.0	t		47.0	male	east_asian	2.171110226820533	neutral	024	sub-09	2.0	1.0	024_neutral	1.0	trustworthiness	162.4524414167738	
8.0	58.09876628921734	pulse	2.0	t		47.0	male	east_asian	2.171110226820533	neutral	024	sub-09	2.0	1.0	024_neutral	1.0	trustworthiness	163.1524224904772	
8.0	58.71018346433334	response	2.0	e		47.0	male	east_asian	2.171110226820533	neutral	024	sub-09	2.0	1.0	024_neutral	1.0	trustworthiness	163.7638396655932	
8.0	58.79874283509889	pulse	2.0	t		47.0	male	east_asian	2.171110226820533	neutral	024	sub-09	2.0	1.0	024_neutral	1.0	trustworthiness	163.85239903635875	
8.0	59.256965676995605	fix	3.0		444	47.0	male	east_asian	2.171110226820533	neutral	024	sub-09	2.0	1.0	024_neutral	1.0	trustworthiness	164.31062187825546	3.774906266535936
8.0	59.49873688855928	pulse	3.0	t		47.0	male	east_asian	2.171110226820533	neutral	024	sub-09	2.0	1.0	024_neutral	1.0	trustworthiness	164.55239308981913	
8.0	60.198730338309815	pulse	3.0	t		47.0	male	east_asian	2.171110226820533	neutral	024	sub-09	2.0	1.0	024_neutral	1.0	trustworthiness	165.25238653956967	
8.0	60.89870446935288	pulse	3.0	t		47.0	male	east_asian	2.171110226820533	neutral	024	sub-09	2.0	1.0	024_neutral	1.0	trustworthiness	165.95236067061273	
8.0	61.59868735418536	pulse	3.0	t		47.0	male	east_asian	2.171110226820533	neutral	024	sub-09	2.0	1.0	024_neutral	1.0	trustworthiness	166.6523435554452	
8.0	62.298672050146706	pulse	3.0	t		47.0	male	east_asian	2.171110226820533	neutral	024	sub-09	2.0	1.0	024_neutral	1.0	trustworthiness	167.35232825140656	
8.0	62.99866248134913	pulse	3.0	t		47.0	male	east_asian	2.171110226820533	neutral	024	sub-09	2.0	1.0	024_neutral	1.0	trustworthiness	168.05231868260898	
9.0	63.03187194353154	face	0.0		145	40.0	male	white	1.868682849184242	neutral	172	sub-09	2.0	1.0	172_neutral	0.0		168.0855281447914	1.224990197265015
9.0	63.6986341975537	pulse	0.0	t		40.0	male	white	1.868682849184242	neutral	172	sub-09	2.0	1.0	172_neutral	0.0		168.75229039881356	
9.0	64.25686214079656	fix	1.0		443	40.0	male	white	1.868682849184242	neutral	172	sub-09	2.0	1.0	172_neutral	0.0		169.3105183420564	3.7582390514999133
9.0	64.39863851407745	pulse	1.0	t		40.0	male	white	1.868682849184242	neutral	172	sub-09	2.0	1.0	172_neutral	0.0		169.4522947153373	
9.0	65.09861566366862	pulse	1.0	t		40.0	male	white	1.868682849184242	neutral	172	sub-09	2.0	1.0	172_neutral	0.0		170.15227186492848	
9.0	65.79860337817809	pulse	1.0	t		40.0	male	white	1.868682849184242	neutral	172	sub-09	2.0	1.0	172_neutral	0.0		170.85225957943794	
9.0	66.49858565930072	pulse	1.0	t		40.0	male	white	1.868682849184242	neutral	172	sub-09	2.0	1.0	172_neutral	0.0		171.55224186056057	
9.0	67.19857518493905	pulse	1.0	t		40.0	male	white	1.868682849184242	neutral	172	sub-09	2.0	1.0	172_neutral	0.0		172.2522313861989	
9.0	67.89856380501283	pulse	1.0	t		40.0	male	white	1.868682849184242	neutral	172	sub-09	2.0	1.0	172_neutral	0.0		172.95222000627268	
10.0	68.01510119229647	face	0.0		147	24.0	female	east_asian	2.9076800636689217	neutral	034	sub-09	2.0	1.0	034_neutral	0.0		173.06875739355633	1.2416586197205106
10.0	68.59855151952206	pulse	0.0	t		24.0	female	east_asian	2.9076800636689217	neutral	034	sub-09	2.0	1.0	034_neutral	0.0		173.65220772078192	
10.0	69.25675981201698	fix	1.0		443	24.0	female	east_asian	2.9076800636689217	neutral	034	sub-09	2.0	1.0	034_neutral	0.0		174.31041601327684	3.7665714515985655
10.0	69.29853530991886	pulse	1.0	t		24.0	female	east_asian	2.9076800636689217	neutral	034	sub-09	2.0	1.0	034_neutral	0.0		174.35219151117872	
10.0	69.99851155394572	pulse	1.0	t		24.0	female	east_asian	2.9076800636689217	neutral	034	sub-09	2.0	1.0	034_neutral	0.0		175.05216775520557	
10.0	70.69850470184156	pulse	1.0	t		24.0	female	east_asian	2.9076800636689217	neutral	034	sub-09	2.0	1.0	034_neutral	0.0		175.7521609031014	
10.0	71.39848758667404	pulse	1.0	t		24.0	female	east_asian	2.9076800636689217	neutral	034	sub-09	2.0	1.0	034_neutral	0.0		176.4521437879339	
10.0	72.09847016965159	pulse	1.0	t		24.0	female	east_asian	2.9076800636689217	neutral	034	sub-09	2.0	1.0	034_neutral	0.0		177.15212637091145	
10.0	72.79845878972537	pulse	1.0	t		24.0	female	east_asian	2.9076800636689217	neutral	034	sub-09	2.0	1.0	034_neutral	0.0		177.85211499098523	
11.0	73.02333126361555	face	0.0		145	20.0	female	white	3.9502586549940313	neutral	091	sub-09	2.0	1.0	091_neutral	0.0		178.0769874648754	1.233325012202613
11.0	73.49845042834704	pulse	0.0	t		20.0	female	white	3.9502586549940313	neutral	091	sub-09	2.0	1.0	091_neutral	0.0		178.5521066296069	
11.0	74.19843301132482	pulse	0.0	t		20.0	female	white	3.9502586549940313	neutral	091	sub-09	2.0	1.0	091_neutral	0.0		179.25208921258468	
11.0	74.25665627581816	fix	1.0		444	20.0	female	white	3.9502586549940313	neutral	091	sub-09	2.0	1.0	091_neutral	0.0		179.310312477078	3.7665723571631133
11.0	74.89841529244768	pulse	1.0	t		20.0	female	white	3.9502586549940313	neutral	091	sub-09	2.0	1.0	091_neutral	0.0		179.95207149370754	
11.0	75.59839696986069	pulse	1.0	t		20.0	female	white	3.9502586549940313	neutral	091	sub-09	2.0	1.0	091_neutral	0.0		180.65205317112054	
11.0	76.29838528807977	pulse	1.0	t		20.0	female	white	3.9502586549940313	neutral	091	sub-09	2.0	1.0	091_neutral	0.0		181.35204148933963	
11.0	76.99837028589582	pulse	1.0	t		20.0	female	white	3.9502586549940313	neutral	091	sub-09	2.0	1.0	091_neutral	0.0		182.05202648715567	
11.0	77.69835830225998	pulse	1.0	t		20.0	female	white	3.9502586549940313	neutral	091	sub-09	2.0	1.0	091_neutral	0.0		182.75201450351983	
12.0	78.02322863298127	face	0.0		145	26.0	male	white	2.7966573816155993	smiling	117	sub-09	2.0	1.0	117_smiling	0.0		183.07688483424113	1.2333250122023856
12.0	78.3983484316077	pulse	0.0	t		26.0	male	white	2.7966573816155993	smiling	117	sub-09	2.0	1.0	117_smiling	0.0		183.45200463286756	
12.0	79.09832829789207	pulse	0.0	t		26.0	male	white	2.7966573816155993	smiling	117	sub-09	2.0	1.0	117_smiling	0.0		184.15198449915192	
12.0	79.25655364518366	fix	1.0		444	26.0	male	white	2.7966573816155993	smiling	117	sub-09	2.0	1.0	117_smiling	0.0		184.3102098464435	3.758326589393846
12.0	79.7983238606264	pulse	1.0	t		26.0	male	white	2.7966573816155993	smiling	117	sub-09	2.0	1.0	117_smiling	0.0		184.85198006188625	
12.0	80.49829950094363	pulse	1.0	t		26.0	male	white	2.7966573816155993	smiling	117	sub-09	2.0	1.0	117_smiling	0.0		185.5519557022035	
12.0	81.19828480061437	pulse	1.0	t		26.0	male	white	2.7966573816155993	smiling	117	sub-09	2.0	1.0	117_smiling	0.0		186.25194100187423	
12.0	81.89826617617291	pulse	1.0	t		26.0	male	white	2.7966573816155993	smiling	117	sub-09	2.0	1.0	117_smiling	0.0		186.95192237743277	
12.0	82.59826445560043	pulse	1.0	t		26.0	male	white	2.7966573816155993	smiling	117	sub-09	2.0	1.0	117_smiling	0.0		187.65192065686028	
13.0	83.0148802345775	face	0.0		146	21.0	male	east_asian/white	3.501790688420215	neutral	036	sub-09	2.0	1.0	036_neutral	0.0		188.06853643583736	1.2415707799716529
13.0	83.29823104027332	pulse	0.0	t		21.0	male	east_asian/white	3.501790688420215	neutral	036	sub-09	2.0	1.0	036_neutral	0.0		188.35188724153318	
13.0	83.9982196603471	pulse	0.0	t		21.0	male	east_asian/white	3.501790688420215	neutral	036	sub-09	2.0	1.0	036_neutral	0.0		189.05187586160696	
13.0	84.25645101454916	fix	1.0		444	21.0	male	east_asian/white	3.501790688420215	neutral	036	sub-09	2.0	1.0	036_neutral	0.0		189.310107215809	3.76657084788917
13.0	84.69821341195257	pulse	1.0	t		21.0	male	east_asian/white	3.501790688420215	neutral	036	sub-09	2.0	1.0	036_neutral	0.0		189.75186961321242	
13.0	85.39819810791369	pulse	1.0	t		21.0	male	east_asian/white	3.501790688420215	neutral	036	sub-09	2.0	1.0	036_neutral	0.0		190.45185430917354	
13.0	86.09818914282596	pulse	1.0	t		21.0	male	east_asian/white	3.501790688420215	neutral	036	sub-09	2.0	1.0	036_neutral	0.0		191.1518453440858	
13.0	86.79817202765844	pulse	1.0	t		21.0	male	east_asian/white	3.501790688420215	neutral	036	sub-09	2.0	1.0	036_neutral	0.0		191.8518282289183	
13.0	87.49816064773222	pulse	1.0	t		21.0	male	east_asian/white	3.501790688420215	neutral	036	sub-09	2.0	1.0	036_neutral	0.0		192.55181684899208	
14.0	88.02302186243833	face	0.0		145	26.0	female	white	4.854755272582572	neutral	027	sub-09	2.0	1.0	027_neutral	0.0		193.07667806369818	1.233322295509197
14.0	88.19814836224145	pulse	0.0	t		26.0	female	white	4.854755272582572	neutral	027	sub-09	2.0	1.0	027_neutral	0.0		193.2518045635013	
14.0	88.89812249328452	pulse	0.0	t		26.0	female	white	4.854755272582572	neutral	027	sub-09	2.0	1.0	027_neutral	0.0		193.95177869454437	
14.0	89.25634415794752	fix	1.0		444	26.0	female	white	4.854755272582572	neutral	027	sub-09	2.0	1.0	027_neutral	0.0		194.31000035920738	3.766577186839868
14.0	89.59811533932566	pulse	1.0	t		26.0	female	white	4.854755272582572	neutral	027	sub-09	2.0	1.0	027_neutral	0.0		194.65177154058551	
14.0	90.29810063899663	pulse	1.0	t		26.0	female	white	4.854755272582572	neutral	027	sub-09	2.0	1.0	027_neutral	0.0		195.35175684025648	
14.0	90.99807748673288	pulse	1.0	t		26.0	female	white	4.854755272582572	neutral	027	sub-09	2.0	1.0	027_neutral	0.0		196.05173368799274	
14.0	91.6980676160806	pulse	1.0	t		26.0	female	white	4.854755272582572	neutral	027	sub-09	2.0	1.0	027_neutral	0.0		196.75172381734046	
14.0	92.39806136768607	pulse	1.0	t		26.0	female	white	4.854755272582572	neutral	027	sub-09	2.0	1.0	027_neutral	0.0		197.45171756894592	
15.0	93.02292134478739	face	0.0		145	36.0	female	white	2.7548746518105847	smiling	011	sub-09	2.0	1.0	011_smiling	1.0	attractiveness	198.07657754604725	1.2333238047833674
15.0	93.0980487803406	pulse	0.0	t		36.0	female	white	2.7548746518105847	smiling	011	sub-09	2.0	1.0	011_smiling	1.0	attractiveness	198.15170498160046	
15.0	93.79802411880291	pulse	0.0	t		36.0	female	white	2.7548746518105847	smiling	011	sub-09	2.0	1.0	011_smiling	1.0	attractiveness	198.85168032006277	
15.0	94.25624514957076	fix	1.0		177	36.0	female	white	2.7548746518105847	smiling	011	sub-09	2.0	1.0	011_smiling	1.0	attractiveness	199.30990135083061	1.4999714747207236
15.0	94.49801455000556	pulse	1.0	t		36.0	female	white	2.7548746518105847	smiling	011	sub-09	2.0	1.0	011_smiling	1.0	attractiveness	199.55167075126542	
15.0	95.19799260516106	pulse	1.0	t		36.0	female	white	2.7548746518105847	smiling	011	sub-09	2.0	1.0	011_smiling	1.0	attractiveness	200.25164880642092	
15.0	95.75621662429148	rating	2.0		294	36.0	female	white	2.7548746518105847	smiling	011	sub-09	2.0	1.0	011_smiling	1.0	attractiveness	200.80987282555134	2.4999455152071732
15.0	95.89798997902426	pulse	2.0	t		36.0	female	white	2.7548746518105847	smiling	011	sub-09	2.0	1.0	011_smiling	1.0	attractiveness	200.95164618028411	
15.0	96.59797890095274	pulse	2.0	t		36.0	female	white	2.7548746518105847	smiling	011	sub-09	2.0	1.0	011_smiling	1.0	attractiveness	201.6516351022126	
15.0	97.26770567103699	response	2.0	w		36.0	female	white	2.7548746518105847	smiling	011	sub-09	2.0	1.0	011_smiling	1.0	attractiveness	202.32136187229685	
15.0	97.29795061715731	pulse	2.0	t		36.0	female	white	2.7548746518105847	smiling	011	sub-09	2.0	1.0	011_smiling	1.0	attractiveness	202.35160681841717	
15.0	97.9979368223926	pulse	2.0	t		36.0	female	white	2.7548746518105847	smiling	011	sub-09	2.0	1.0	011_smiling	1.0	attractiveness	203.05159302365246	
15.0	98.25616213949866	fix	3.0		444	36.0	female	white	2.7548746518105847	smiling	011	sub-09	2.0	1.0	011_smiling	1.0	attractiveness	203.3098183407585	3.766572659017811
15.0	98.69792725359525	pulse	3.0	t		36.0	female	white	2.7548746518105847	smiling	011	sub-09	2.0	1.0	011_smiling	1.0	attractiveness	203.7515834548551	
15.0	99.39791013842773	pulse	3.0	t		36.0	female	white	2.7548746518105847	smiling	011	sub-09	2.0	1.0	011_smiling	1.0	attractiveness	204.4515663396876	
15.0	100.09789483438885	pulse	3.0	t		36.0	female	white	2.7548746518105847	smiling	011	sub-09	2.0	1.0	011_smiling	1.0	attractiveness	205.1515510356487	
15.0	100.79787862478588	pulse	3.0	t		36.0	female	white	2.7548746518105847	smiling	011	sub-09	2.0	1.0	011_smiling	1.0	attractiveness	205.85153482604574	
15.0	101.49786241518268	pulse	3.0	t		36.0	female	white	2.7548746518105847	smiling	011	sub-09	2.0	1.0	011_smiling	1.0	attractiveness	206.55151861644254	
16.0	102.02273479851647	face	0.0		145	27.0	female	white	3.504576203740549	smiling	144	sub-09	2.0	1.0	144_smiling	0.0		207.07639099977632	1.2333256159122357
16.0	102.19785797791701	pulse	0.0	t		27.0	female	white	3.504576203740549	smiling	144	sub-09	2.0	1.0	144_smiling	0.0		207.25151417917687	
16.0	102.89784116460419	pulse	0.0	t		27.0	female	white	3.504576203740549	smiling	144	sub-09	2.0	1.0	144_smiling	0.0		207.95149736586404	
16.0	103.2560604144287	fix	1.0		444	27.0	female	white	3.504576203740549	smiling	144	sub-09	2.0	1.0	144_smiling	0.0		208.30971661568856	3.7665717534532632
16.0	103.59782887911365	pulse	1.0	t		27.0	female	white	3.504576203740549	smiling	144	sub-09	2.0	1.0	144_smiling	0.0		208.6514850803735	
16.0	104.29781327322007	pulse	1.0	t		27.0	female	white	3.504576203740549	smiling	144	sub-09	2.0	1.0	144_smiling	0.0		209.35146947447993	
16.0	104.99779042281125	pulse	1.0	t		27.0	female	white	3.504576203740549	smiling	144	sub-09	2.0	1.0	144_smiling	0.0		210.0514466240711	
16.0	105.69777632619162	pulse	1.0	t		27.0	female	white	3.504576203740549	smiling	144	sub-09	2.0	1.0	144_smiling	0.0		210.75143252745147	
16.0	106.39776826666821	pulse	1.0	t		27.0	female	white	3.504576203740549	smiling	144	sub-09	2.0	1.0	144_smiling	0.0		211.45142446792806	
17.0	107.02263216788197	face	0.0		145	40.0	male	white	1.868682849184242	smiling	172	sub-09	2.0	1.0	172_smiling	1.0	dominance	212.07628836914182	1.2333241066380651
17.0	107.09775930158048	pulse	0.0	t		40.0	male	white	1.868682849184242	smiling	172	sub-09	2.0	1.0	172_smiling	1.0	dominance	212.15141550284034	
17.0	107.7977379604456	pulse	0.0	t		40.0	male	white	1.868682849184242	smiling	172	sub-09	2.0	1.0	172_smiling	1.0	dominance	212.85139416170546	
17.0	108.25595627452003	fix	1.0		177	40.0	male	white	1.868682849184242	smiling	172	sub-09	2.0	1.0	172_smiling	1.0	dominance	213.3096124757799	1.4999708710111008
17.0	108.49772688237431	pulse	1.0	t		40.0	male	white	1.868682849184242	smiling	172	sub-09	2.0	1.0	172_smiling	1.0	dominance	213.55138308363416	
17.0	109.19770825793262	pulse	1.0	t		40.0	male	white	1.868682849184242	smiling	172	sub-09	2.0	1.0	172_smiling	1.0	dominance	214.25136445919247	
17.0	109.75592714553113	rating	2.0		294	40.0	male	white	1.868682849184242	smiling	172	sub-09	2.0	1.0	172_smiling	1.0	dominance	214.809583346791	2.4999479300458916
17.0	109.89770412252165	pulse	2.0	t		40.0	male	white	1.868682849184242	smiling	172	sub-09	2.0	1.0	172_smiling	1.0	dominance	214.9513603237815	
17.0	110.5976864036445	pulse	2.0	t		40.0	male	white	1.868682849184242	smiling	172	sub-09	2.0	1.0	172_smiling	1.0	dominance	215.65134260490436	
17.0	111.06438230998015	response	2.0	b		40.0	male	white	1.868682849184242	smiling	172	sub-09	2.0	1.0	172_smiling	1.0	dominance	216.11803851124	
17.0	111.29774052621156	pulse	2.0	t		40.0	male	white	1.868682849184242	smiling	172	sub-09	2.0	1.0	172_smiling	1.0	dominance	216.3513967274714	
17.0	111.99764160839118	pulse	2.0	t		40.0	male	white	1.868682849184242	smiling	172	sub-09	2.0	1.0	172_smiling	1.0	dominance	217.05129780965103	
17.0	112.25587507557702	fix	3.0		444	40.0	male	white	1.868682849184242	smiling	172	sub-09	2.0	1.0	172_smiling	1.0	dominance	217.30953127683688	3.766570847888943
17.0	112.69764139709287	pulse	3.0	t		40.0	male	white	1.868682849184242	smiling	172	sub-09	2.0	1.0	172_smiling	1.0	dominance	217.75129759835272	
17.0	113.39761945224836	pulse	3.0	t		40.0	male	white	1.868682849184242	smiling	172	sub-09	2.0	1.0	172_smiling	1.0	dominance	218.45127565350822	
17.0	114.09760656304798	pulse	3.0	t		40.0	male	white	1.868682849184242	smiling	172	sub-09	2.0	1.0	172_smiling	1.0	dominance	219.15126276430783	
17.0	114.79759789981517	pulse	3.0	t		40.0	male	white	1.868682849184242	smiling	172	sub-09	2.0	1.0	172_smiling	1.0	dominance	219.85125410107503	
17.0	115.49757927537348	pulse	3.0	t		40.0	male	white	1.868682849184242	smiling	172	sub-09	2.0	1.0	172_smiling	1.0	dominance	220.55123547663334	
18.0	116.02244592346597	face	0.0		145	24.0	female	east_asian	4.409868682849185	smiling	030	sub-09	2.0	1.0	030_smiling	0.0		221.07610212472582	1.2333271251861788
18.0	116.19757242326932	pulse	0.0	t		24.0	female	east_asian	4.409868682849185	smiling	030	sub-09	2.0	1.0	030_smiling	0.0		221.25122862452918	
18.0	116.89755500624688	pulse	0.0	t		24.0	female	east_asian	4.409868682849185	smiling	030	sub-09	2.0	1.0	030_smiling	0.0		221.95121120750673	
18.0	117.25577304865215	fix	1.0		444	24.0	female	east_asian	4.409868682849185	smiling	030	sub-09	2.0	1.0	030_smiling	0.0		222.309429249912	3.7582357310968746
18.0	117.59753215583805	pulse	1.0	t		24.0	female	east_asian	4.409868682849185	smiling	030	sub-09	2.0	1.0	030_smiling	0.0		222.6511883570979	
18.0	118.29752439816957	pulse	1.0	t		24.0	female	east_asian	4.409868682849185	smiling	030	sub-09	2.0	1.0	030_smiling	0.0		223.35118059942943	
18.0	118.9975060755828	pulse	1.0	t		24.0	female	east_asian	4.409868682849185	smiling	030	sub-09	2.0	1.0	030_smiling	0.0		224.05116227684266	
18.0	119.69748926226998	pulse	1.0	t		24.0	female	east_asian	4.409868682849185	smiling	030	sub-09	2.0	1.0	030_smiling	0.0		224.75114546352984	
18.0	120.39748633427826	pulse	1.0	t		24.0	female	east_asian	4.409868682849185	smiling	030	sub-09	2.0	1.0	030_smiling	0.0		225.4511425355381	
19.0	121.01400877974902	face	0.0		146	30.0	female	black	2.7345801830481498	neutral	062	sub-09	2.0	1.0	062_neutral	0.0		226.06766498100887	1.2416616382686243
19.0	121.0974984990271	pulse	0.0	t		30.0	female	black	2.7345801830481498	neutral	062	sub-09	2.0	1.0	062_neutral	0.0		226.15115470028695	
19.0	121.7974684041028	pulse	0.0	t		30.0	female	black	2.7345801830481498	neutral	062	sub-09	2.0	1.0	062_neutral	0.0		226.85112460536266	
19.0	122.25567041801764	fix	1.0		444	30.0	female	black	2.7345801830481498	neutral	062	sub-09	2.0	1.0	062_neutral	0.0		227.3093266192775	3.7665678293410565
19.0	122.4974410258717	pulse	1.0	t		30.0	female	black	2.7345801830481498	neutral	062	sub-09	2.0	1.0	062_neutral	0.0		227.55109722713155	
19.0	123.19741757175325	pulse	1.0	t		30.0	female	black	2.7345801830481498	neutral	062	sub-09	2.0	1.0	062_neutral	0.0		228.2510737730131	
19.0	123.8974080029559	pulse	1.0	t		30.0	female	black	2.7345801830481498	neutral	062	sub-09	2.0	1.0	062_neutral	0.0		228.95106420421575	
19.0	124.59738968036913	pulse	1.0	t		30.0	female	black	2.7345801830481498	neutral	062	sub-09	2.0	1.0	062_neutral	0.0		229.651045881629	
19.0	125.29737679116874	pulse	1.0	t		30.0	female	black	2.7345801830481498	neutral	062	sub-09	2.0	1.0	062_neutral	0.0		230.3510329924286	
19.0	125.99736269454934	pulse	1.0	t		30.0	female	black	2.7345801830481498	neutral	062	sub-09	2.0	1.0	062_neutral	0.0		231.0510188958092	
20.0	126.0222382473587	face	0.0		146	19.0	male	white	3.2522881018702745	neutral	018	sub-09	2.0	1.0	018_neutral	0.0		231.07589444861856	1.2333253140573106
20.0	126.69735131462312	pulse	0.0	t		19.0	male	white	3.2522881018702745	neutral	018	sub-09	2.0	1.0	018_neutral	0.0		231.75100751588297	
20.0	127.25556356141601	fix	1.0		1184	19.0	male	white	3.2522881018702745	neutral	018	sub-09	2.0	1.0	018_neutral	0.0		232.30921976267587	10.008101179316554
20.0	127.39734416066403	pulse	1.0	t		19.0	male	white	3.2522881018702745	neutral	018	sub-09	2.0	1.0	018_neutral	0.0		232.4510003619239	
20.0	128.09731949912634	pulse	1.0	t		19.0	male	white	3.2522881018702745	neutral	018	sub-09	2.0	1.0	018_neutral	0.0		233.1509757003862	
20.0	128.79730147839427	pulse	1.0	t		19.0	male	white	3.2522881018702745	neutral	018	sub-09	2.0	1.0	018_neutral	0.0		233.85095767965413	
20.0	129.4972913058873	pulse	1.0	t		19.0	male	white	3.2522881018702745	neutral	018	sub-09	2.0	1.0	018_neutral	0.0		234.55094750714716	
20.0	130.19727207773622	pulse	1.0	t		19.0	male	white	3.2522881018702745	neutral	018	sub-09	2.0	1.0	018_neutral	0.0		235.25092827899607	
20.0	130.89725918853583	pulse	1.0	t		19.0	male	white	3.2522881018702745	neutral	018	sub-09	2.0	1.0	018_neutral	0.0		235.95091538979568	
20.0	131.59724388449717	pulse	1.0	t		19.0	male	white	3.2522881018702745	neutral	018	sub-09	2.0	1.0	018_neutral	0.0		236.65090008575703	
20.0	132.29723491940945	pulse	1.0	t		19.0	male	white	3.2522881018702745	neutral	018	sub-09	2.0	1.0	018_neutral	0.0		237.3508911206693	
20.0	132.99721901166095	pulse	1.0	t		19.0	male	white	3.2522881018702745	neutral	018	sub-09	2.0	1.0	018_neutral	0.0		238.0508752129208	
20.0	133.69720280205797	pulse	1.0	t		19.0	male	white	3.2522881018702745	neutral	018	sub-09	2.0	1.0	018_neutral	0.0		238.75085900331783	
20.0	134.39719172398645	pulse	1.0	t		19.0	male	white	3.2522881018702745	neutral	018	sub-09	2.0	1.0	018_neutral	0.0		239.4508479252463	
20.0	135.09717460881893	pulse	1.0	t		19.0	male	white	3.2522881018702745	neutral	018	sub-09	2.0	1.0	018_neutral	0.0		240.1508308100788	
20.0	135.7971686622791	pulse	1.0	t		19.0	male	white	3.2522881018702745	neutral	018	sub-09	2.0	1.0	018_neutral	0.0		240.85082486353895	
20.0	136.4971436988867	pulse	1.0	t		19.0	male	white	3.2522881018702745	neutral	018	sub-09	2.0	1.0	018_neutral	0.0		241.55079990014656	
20.0	137.19713473379898	pulse	1.0	t		19.0	male	white	3.2522881018702745	neutral	018	sub-09	2.0	1.0	018_neutral	0.0		242.25079093505883	
21.0	137.26366474073257	face	0.0		147	20.0	male	black	3.1070433744528456	smiling	082	sub-09	2.0	1.0	082_smiling	0.0		242.31732094199242	1.241668279074247
21.0	137.89712395758215	pulse	0.0	t		20.0	male	black	3.1070433744528456	smiling	082	sub-09	2.0	1.0	082_smiling	0.0		242.950780158842	
21.0	138.5053330198068	fix	1.0		443	20.0	male	black	3.1070433744528456	smiling	082	sub-09	2.0	1.0	082_smiling	0.0		243.55898922106667	3.7665946944189272
21.0	138.5971086535435	pulse	1.0	t		20.0	male	black	3.1070433744528456	smiling	082	sub-09	2.0	1.0	082_smiling	0.0		243.65076485480336	
21.0	139.2970924439403	pulse	1.0	t		20.0	male	black	3.1070433744528456	smiling	082	sub-09	2.0	1.0	082_smiling	0.0		244.35074864520016	
21.0	139.99706959353148	pulse	1.0	t		20.0	male	black	3.1070433744528456	smiling	082	sub-09	2.0	1.0	082_smiling	0.0		245.05072579479133	
21.0	140.69705760989564	pulse	1.0	t		20.0	male	black	3.1070433744528456	smiling	082	sub-09	2.0	1.0	082_smiling	0.0		245.7507138111555	
21.0	141.3970459281145	pulse	1.0	t		20.0	male	black	3.1070433744528456	smiling	082	sub-09	2.0	1.0	082_smiling	0.0		246.45070212937435	
21.0	142.09702881294697	pulse	1.0	t		20.0	male	black	3.1070433744528456	smiling	082	sub-09	2.0	1.0	082_smiling	0.0		247.15068501420683	
22.0	142.27192771422574	face	0.0		146	20.0	male	black	3.1070433744528456	neutral	082	sub-09	2.0	1.0	082_neutral	0.0		247.3255839154856	1.2416365843196218
22.0	142.79702256455244	pulse	0.0	t		20.0	male	black	3.1070433744528456	neutral	082	sub-09	2.0	1.0	082_neutral	0.0		247.8506787658123	
22.0	143.4970024308368	pulse	0.0	t		20.0	male	black	3.1070433744528456	neutral	082	sub-09	2.0	1.0	082_neutral	0.0		248.55065863209666	
22.0	143.51356429854536	fix	1.0		443	20.0	male	black	3.1070433744528456	neutral	082	sub-09	2.0	1.0	082_neutral	0.0		248.56722049980522	3.7582472015794792
22.0	144.19699225832983	pulse	1.0	t		20.0	male	black	3.1070433744528456	neutral	082	sub-09	2.0	1.0	082_neutral	0.0		249.25064845958968	
22.0	144.89697393574306	pulse	1.0	t		20.0	male	black	3.1070433744528456	neutral	082	sub-09	2.0	1.0	082_neutral	0.0		249.95063013700292	
22.0	145.59698006339568	pulse	1.0	t		20.0	male	black	3.1070433744528456	neutral	082	sub-09	2.0	1.0	082_neutral	0.0		250.65063626465553	
22.0	146.29695268516457	pulse	1.0	t		20.0	male	black	3.1070433744528456	neutral	082	sub-09	2.0	1.0	082_neutral	0.0		251.35060888642442	
22.0	146.9969319477393	pulse	1.0	t		20.0	male	black	3.1070433744528456	neutral	082	sub-09	2.0	1.0	082_neutral	0.0		252.05058814899917	
23.0	147.27181150012484	face	0.0		145	32.0	male	white	2.389176283326701	neutral	092	sub-09	2.0	1.0	092_neutral	0.0		252.3254677013847	1.2333144472843287
23.0	147.69692720861894	pulse	0.0	t		32.0	male	white	2.389176283326701	neutral	092	sub-09	2.0	1.0	092_neutral	0.0		252.7505834098788	
23.0	148.396901339662	pulse	0.0	t		32.0	male	white	2.389176283326701	neutral	092	sub-09	2.0	1.0	092_neutral	0.0		253.45055754092186	
23.0	148.50512594740917	fix	1.0		444	32.0	male	white	2.389176283326701	neutral	092	sub-09	2.0	1.0	092_neutral	0.0		253.55878214866902	3.7582819148824456
23.0	149.09688905417124	pulse	1.0	t		32.0	male	white	2.389176283326701	neutral	092	sub-09	2.0	1.0	092_neutral	0.0		254.1505452554311	
23.0	149.79687042972955	pulse	1.0	t		32.0	male	white	2.389176283326701	neutral	092	sub-09	2.0	1.0	092_neutral	0.0		254.8505266309894	
23.0	150.49685542754582	pulse	1.0	t		32.0	male	white	2.389176283326701	neutral	092	sub-09	2.0	1.0	092_neutral	0.0		255.55051162880568	
23.0	151.196844651329	pulse	1.0	t		32.0	male	white	2.389176283326701	neutral	092	sub-09	2.0	1.0	092_neutral	0.0		256.25050085258886	
23.0	151.89681063229227	pulse	1.0	t		32.0	male	white	2.389176283326701	neutral	092	sub-09	2.0	1.0	092_neutral	0.0		256.9504668335521	
24.0	152.26340786229161	face	0.0		146	26.0	female	white	4.854755272582572	smiling	027	sub-09	2.0	1.0	027_smiling	0.0		257.31706406355147	1.2416142470638079
24.0	152.59682460816998	pulse	0.0	t		26.0	female	white	4.854755272582572	smiling	027	sub-09	2.0	1.0	027_smiling	0.0		257.65048080942984	
24.0	153.2968008521966	pulse	0.0	t		26.0	female	white	4.854755272582572	smiling	027	sub-09	2.0	1.0	027_smiling	0.0		258.35045705345647	
24.0	153.50502210935542	fix	1.0		444	26.0	female	white	4.854755272582572	smiling	027	sub-09	2.0	1.0	027_smiling	0.0		258.5586783106153	3.7665732627274338
24.0	153.99679098154434	pulse	1.0	t		26.0	female	white	4.854755272582572	smiling	027	sub-09	2.0	1.0	027_smiling	0.0		259.0504471828042	
24.0	154.69676903669983	pulse	1.0	t		26.0	female	white	4.854755272582572	smiling	027	sub-09	2.0	1.0	027_smiling	0.0		259.7504252379597	
24.0	155.3967591660478	pulse	1.0	t		26.0	female	white	4.854755272582572	smiling	027	sub-09	2.0	1.0	027_smiling	0.0		260.45041536730764	
24.0	156.09677072708678	pulse	1.0	t		26.0	female	white	4.854755272582572	smiling	027	sub-09	2.0	1.0	027_smiling	0.0		261.15042692834663	
24.0	156.79673700990475	pulse	1.0	t		26.0	female	white	4.854755272582572	smiling	027	sub-09	2.0	1.0	027_smiling	0.0		261.8503932111646	
25.0	157.27159537208286	face	0.0		145	23.0	male	white	2.6275368085953046	smiling	141	sub-09	2.0	1.0	141_smiling	0.0		262.3252515733427	1.2333256159122357
25.0	157.4967192910276	pulse	0.0	t		23.0	male	white	2.6275368085953046	smiling	141	sub-09	2.0	1.0	141_smiling	0.0		262.55037549228746	
25.0	158.19669825174765	pulse	0.0	t		23.0	male	white	2.6275368085953046	smiling	141	sub-09	2.0	1.0	141_smiling	0.0		263.2503544530075	
25.0	158.5049209879951	fix	1.0		444	23.0	male	white	2.6275368085953046	smiling	141	sub-09	2.0	1.0	141_smiling	0.0		263.55857718925495	3.766574168291754
25.0	158.89669019222424	pulse	1.0	t		23.0	male	white	2.6275368085953046	smiling	141	sub-09	2.0	1.0	141_smiling	0.0		263.9503463934841	
25.0	159.59667156778255	pulse	1.0	t		23.0	male	white	2.6275368085953046	smiling	141	sub-09	2.0	1.0	141_smiling	0.0		264.6503277690424	
25.0	160.29667045091992	pulse	1.0	t		23.0	male	white	2.6275368085953046	smiling	141	sub-09	2.0	1.0	141_smiling	0.0		265.3503266521798	
25.0	160.9966400541407	pulse	1.0	t		23.0	male	white	2.6275368085953046	smiling	141	sub-09	2.0	1.0	141_smiling	0.0		266.05029625540055	
25.0	161.69662142969923	pulse	1.0	t		23.0	male	white	2.6275368085953046	smiling	141	sub-09	2.0	1.0	141_smiling	0.0		266.7502776309591	
26.0	162.27149515628685	face	0.0		145	27.0	female	white	4.181058495821727	smiling	039	sub-09	2.0	1.0	039_smiling	0.0		267.3251513575467	1.2333244084929902
26.0	162.3966236332392	pulse	0.0	t		27.0	female	white	4.181058495821727	smiling	039	sub-09	2.0	1.0	039_smiling	0.0		267.45027983449904	
26.0	163.09659444387944	pulse	0.0	t		27.0	female	white	4.181058495821727	smiling	039	sub-09	2.0	1.0	039_smiling	0.0		268.1502506451393	
26.0	163.50481956477984	fix	1.0		444	27.0	female	white	4.181058495821727	smiling	039	sub-09	2.0	1.0	039_smiling	0.0		268.5584757660397	3.7665699423246224
26.0	163.7965848750821	pulse	1.0	t		27.0	female	white	4.181058495821727	smiling	039	sub-09	2.0	1.0	039_smiling	0.0		268.85024107634194	
26.0	164.4965695710432	pulse	1.0	t		27.0	female	white	4.181058495821727	smiling	039	sub-09	2.0	1.0	039_smiling	0.0		269.55022577230307	
26.0	165.19655124845644	pulse	1.0	t		27.0	female	white	4.181058495821727	smiling	039	sub-09	2.0	1.0	039_smiling	0.0		270.2502074497163	
26.0	165.89653986853023	pulse	1.0	t		27.0	female	white	4.181058495821727	smiling	039	sub-09	2.0	1.0	039_smiling	0.0		270.9501960697901	
26.0	166.5965227533627	pulse	1.0	t		27.0	female	white	4.181058495821727	smiling	039	sub-09	2.0	1.0	039_smiling	0.0		271.65017895462256	
27.0	167.27138950710446	face	0.0		145	36.0	female	white	2.7548746518105847	neutral	011	sub-09	2.0	1.0	011_neutral	0.0		272.3250457083643	1.233322295509197
27.0	167.29652374948364	pulse	0.0	t		36.0	female	white	2.7548746518105847	neutral	011	sub-09	2.0	1.0	011_neutral	0.0		272.3501799507435	
27.0	167.99650814359006	pulse	0.0	t		36.0	female	white	2.7548746518105847	neutral	011	sub-09	2.0	1.0	011_neutral	0.0		273.0501643448499	
27.0	168.50471180261366	fix	1.0		443	36.0	female	white	2.7548746518105847	neutral	011	sub-09	2.0	1.0	011_neutral	0.0		273.5583680038735	3.7665744701466792
27.0	168.69645269286184	pulse	1.0	t		36.0	female	white	2.7548746518105847	neutral	011	sub-09	2.0	1.0	011_neutral	0.0		273.7501088941217	
27.0	169.3964817614799	pulse	1.0	t		36.0	female	white	2.7548746518105847	neutral	011	sub-09	2.0	1.0	011_neutral	0.0		274.45013796273975	
27.0	170.09645528881333	pulse	1.0	t		36.0	female	white	2.7548746518105847	neutral	011	sub-09	2.0	1.0	011_neutral	0.0		275.1501114900732	
27.0	170.79644149404862	pulse	1.0	t		36.0	female	white	2.7548746518105847	neutral	011	sub-09	2.0	1.0	011_neutral	0.0		275.8500976953085	
27.0	171.4964276992839	pulse	1.0	t		36.0	female	white	2.7548746518105847	neutral	011	sub-09	2.0	1.0	011_neutral	0.0		276.55008390054377	
27.0	172.1964105841164	pulse	1.0	t		36.0	female	white	2.7548746518105847	neutral	011	sub-09	2.0	1.0	011_neutral	0.0		277.25006678537625	
28.0	172.27128627276034	face	0.0		146	40.0	male	black	2.408674890569041	neutral	061	sub-09	2.0	1.0	061_neutral	0.0		277.3249424740202	1.23332380478314
28.0	172.89640131717374	pulse	0.0	t		40.0	male	black	2.408674890569041	neutral	061	sub-09	2.0	1.0	061_neutral	0.0		277.9500575184336	
28.0	173.50461007754348	fix	1.0		443	40.0	male	black	2.408674890569041	neutral	061	sub-09	2.0	1.0	061_neutral	0.0		278.55826627880333	3.7665762812755474
28.0	173.59638993724752	pulse	1.0	t		40.0	male	black	2.408674890569041	neutral	061	sub-09	2.0	1.0	061_neutral	0.0		278.6500461385074	
28.0	174.29637161466076	pulse	1.0	t		40.0	male	black	2.408674890569041	neutral	061	sub-09	2.0	1.0	061_neutral	0.0		279.3500278159206	
28.0	174.99635781989605	pulse	1.0	t		40.0	male	black	2.408674890569041	neutral	061	sub-09	2.0	1.0	061_neutral	0.0		280.0500140211559	
28.0	175.6963373843255	pulse	1.0	t		40.0	male	black	2.408674890569041	neutral	061	sub-09	2.0	1.0	061_neutral	0.0		280.74999358558534	
28.0	176.39632751367344	pulse	1.0	t		40.0	male	black	2.408674890569041	neutral	061	sub-09	2.0	1.0	061_neutral	0.0		281.4499837149333	
28.0	177.0963046632644	pulse	1.0	t		40.0	male	black	2.408674890569041	neutral	061	sub-09	2.0	1.0	061_neutral	0.0		282.14996086452425	
29.0	177.27118635881902	face	0.0		146	27.0	female	white	4.181058495821727	neutral	039	sub-09	2.0	1.0	039_neutral	0.0		282.3248425600789	1.2416556011726243
29.0	177.79630022599872	pulse	0.0	t		27.0	female	white	4.181058495821727	neutral	039	sub-09	2.0	1.0	039_neutral	0.0		282.8499564272586	
29.0	178.4962797904284	pulse	0.0	t		27.0	female	white	4.181058495821727	neutral	039	sub-09	2.0	1.0	039_neutral	0.0		283.54993599168824	
29.0	178.51284195999165	fix	1.0		443	27.0	female	white	4.181058495821727	neutral	039	sub-09	2.0	1.0	039_neutral	0.0		283.5664981612515	3.7582411644834792
29.0	179.19626871235687	pulse	1.0	t		27.0	female	white	4.181058495821727	neutral	039	sub-09	2.0	1.0	039_neutral	0.0		284.2499249136167	
29.0	179.89625159718935	pulse	1.0	t		27.0	female	white	4.181058495821727	neutral	039	sub-09	2.0	1.0	039_neutral	0.0		284.9499077984492	
29.0	180.59623568944107	pulse	1.0	t		27.0	female	white	4.181058495821727	neutral	039	sub-09	2.0	1.0	039_neutral	0.0		285.6498918907009	
29.0	181.296222498386	pulse	1.0	t		27.0	female	white	4.181058495821727	neutral	039	sub-09	2.0	1.0	039_neutral	0.0		286.34987869964584	
29.0	181.9962038739443	pulse	1.0	t		27.0	female	white	4.181058495821727	neutral	039	sub-09	2.0	1.0	039_neutral	0.0		287.04986007520415	
30.0	182.27108312447513	face	0.0		145	25.0	female	west_asian	2.6756864305610826	neutral	064	sub-09	2.0	1.0	064_neutral	0.0		287.324739325735	1.2333204843803287
30.0	182.69618313651904	pulse	0.0	t		25.0	female	west_asian	2.6756864305610826	neutral	064	sub-09	2.0	1.0	064_neutral	0.0		287.7498393377789	
30.0	183.3961850382043	pulse	0.0	t		25.0	female	west_asian	2.6756864305610826	neutral	064	sub-09	2.0	1.0	064_neutral	0.0		288.44984123946415	
30.0	183.50440360885545	fix	1.0		444	25.0	female	west_asian	2.6756864305610826	neutral	064	sub-09	2.0	1.0	064_neutral	0.0		288.5580598101153	3.7665608866802813
30.0	184.09617063972996	pulse	1.0	t		25.0	female	west_asian	2.6756864305610826	neutral	064	sub-09	2.0	1.0	064_neutral	0.0		289.1498268409898	
30.0	184.79614688375682	pulse	1.0	t		25.0	female	west_asian	2.6756864305610826	neutral	064	sub-09	2.0	1.0	064_neutral	0.0		289.8498030850167	
30.0	185.4961415409266	pulse	1.0	t		25.0	female	west_asian	2.6756864305610826	neutral	064	sub-09	2.0	1.0	064_neutral	0.0		290.54979774218646	
30.0	186.19612140721097	pulse	1.0	t		25.0	female	west_asian	2.6756864305610826	neutral	064	sub-09	2.0	1.0	064_neutral	0.0		291.2497776084708	
30.0	186.89611032913945	pulse	1.0	t		25.0	female	west_asian	2.6756864305610826	neutral	064	sub-09	2.0	1.0	064_neutral	0.0		291.9497665303993	
31.0	187.27096449553574	face	0.0		145	28.0	male	white	3.9076800636689217	neutral	033	sub-09	2.0	1.0	033_neutral	0.0		292.3246206967956	1.233340104942954
31.0	187.59609864735853	pulse	0.0	t		28.0	male	white	3.9076800636689217	neutral	033	sub-09	2.0	1.0	033_neutral	0.0		292.6497548486184	
31.0	188.29608002291684	pulse	0.0	t		28.0	male	white	3.9076800636689217	neutral	033	sub-09	2.0	1.0	033_neutral	0.0		293.3497362241767	
31.0	188.5043046004787	fix	1.0		444	28.0	male	white	3.9076800636689217	neutral	033	sub-09	2.0	1.0	033_neutral	0.0		293.55796080173855	3.7665699423246224
31.0	188.99607075597442	pulse	1.0	t		28.0	male	white	3.9076800636689217	neutral	033	sub-09	2.0	1.0	033_neutral	0.0		294.04972695723427	
31.0	189.69604730185574	pulse	1.0	t		28.0	male	white	3.9076800636689217	neutral	033	sub-09	2.0	1.0	033_neutral	0.0		294.7497035031156	
31.0	190.39603380894596	pulse	1.0	t		28.0	male	white	3.9076800636689217	neutral	033	sub-09	2.0	1.0	033_neutral	0.0		295.4496900102058	
31.0	191.096048690388	pulse	1.0	t		28.0	male	white	3.9076800636689217	neutral	033	sub-09	2.0	1.0	033_neutral	0.0		296.14970489164784	
31.0	191.79600289901373	pulse	1.0	t		28.0	male	white	3.9076800636689217	neutral	033	sub-09	2.0	1.0	033_neutral	0.0		296.8496591002736	
32.0	192.2708745428033	face	0.0		145	21.0	male	black	2.969757262236371	neutral	137	sub-09	2.0	1.0	137_neutral	0.0		297.32453074406317	1.2333274270408765
32.0	192.49600148029617	pulse	0.0	t		21.0	male	black	2.969757262236371	neutral	137	sub-09	2.0	1.0	137_neutral	0.0		297.549657681556	
32.0	193.1959750076294	pulse	0.0	t		21.0	male	black	2.969757262236371	neutral	137	sub-09	2.0	1.0	137_neutral	0.0		298.24963120888924	
32.0	193.5042019698442	fix	1.0		444	21.0	male	black	2.969757262236371	neutral	137	sub-09	2.0	1.0	137_neutral	0.0		298.55785817110404	3.7665723571631133
32.0	193.89597026850902	pulse	1.0	t		21.0	male	black	2.969757262236371	neutral	137	sub-09	2.0	1.0	137_neutral	0.0		298.9496264697689	
32.0	194.5959477199549	pulse	1.0	t		21.0	male	black	2.969757262236371	neutral	137	sub-09	2.0	1.0	137_neutral	0.0		299.64960392121475	
32.0	195.29593634002867	pulse	1.0	t		21.0	male	black	2.969757262236371	neutral	137	sub-09	2.0	1.0	137_neutral	0.0		300.34959254128853	
32.0	195.99592194155434	pulse	1.0	t		21.0	male	black	2.969757262236371	neutral	137	sub-09	2.0	1.0	137_neutral	0.0		301.0495781428142	
32.0	196.69590573195114	pulse	1.0	t		21.0	male	black	2.969757262236371	neutral	137	sub-09	2.0	1.0	137_neutral	0.0		301.749561933211	
33.0	197.2707743270073	face	0.0		145	24.0	male	white	3.1153999204138483	smiling	012	sub-09	2.0	1.0	012_smiling	0.0		302.32443052826716	1.2333225973638946
33.0	197.39589706871834	pulse	0.0	t		24.0	male	white	3.1153999204138483	smiling	012	sub-09	2.0	1.0	012_smiling	0.0		302.4495532699782	
33.0	198.09587361459967	pulse	0.0	t		24.0	male	white	3.1153999204138483	smiling	012	sub-09	2.0	1.0	012_smiling	0.0		303.1495298158595	
33.0	198.5040969243712	fix	1.0		444	24.0	male	white	3.1153999204138483	smiling	012	sub-09	2.0	1.0	012_smiling	0.0		303.55775312563105	3.7665741682919816
33.0	198.79586283838307	pulse	1.0	t		24.0	male	white	3.1153999204138483	smiling	012	sub-09	2.0	1.0	012_smiling	0.0		303.8495190396429	
33.0	199.49584602507025	pulse	1.0	t		24.0	male	white	3.1153999204138483	smiling	012	sub-09	2.0	1.0	012_smiling	0.0		304.5495022263301	
33.0	200.19583162659615	pulse	1.0	t		24.0	male	white	3.1153999204138483	smiling	012	sub-09	2.0	1.0	012_smiling	0.0		305.249487827856	
33.0	200.89582417078236	pulse	1.0	t		24.0	male	white	3.1153999204138483	smiling	012	sub-09	2.0	1.0	012_smiling	0.0		305.9494803720422	
33.0	201.59580433892143	pulse	1.0	t		24.0	male	white	3.1153999204138483	smiling	012	sub-09	2.0	1.0	012_smiling	0.0		306.6494605401813	
34.0	202.27067109266318	face	0.0		145	34.0	male	white	2.651014723438122	smiling	121	sub-09	2.0	1.0	121_smiling	0.0		307.32432729392303	1.233322597364122
34.0	202.2958044294778	pulse	0.0	t		34.0	male	white	2.651014723438122	smiling	121	sub-09	2.0	1.0	121_smiling	0.0		307.34946063073767	
34.0	202.99576437334508	pulse	0.0	t		34.0	male	white	2.651014723438122	smiling	121	sub-09	2.0	1.0	121_smiling	0.0		308.04942057460494	
34.0	203.5039936900273	fix	1.0		443	34.0	male	white	2.651014723438122	smiling	121	sub-09	2.0	1.0	121_smiling	0.0		308.55764989128716	3.7665732627274338
34.0	203.6957659731754	pulse	1.0	t		34.0	male	white	2.651014723438122	smiling	121	sub-09	2.0	1.0	121_smiling	0.0		308.74942217443527	
34.0	204.39574795244357	pulse	1.0	t		34.0	male	white	2.651014723438122	smiling	121	sub-09	2.0	1.0	121_smiling	0.0		309.4494041537034	
34.0	205.09572781872794	pulse	1.0	t		34.0	male	white	2.651014723438122	smiling	121	sub-09	2.0	1.0	121_smiling	0.0		310.1493840199878	
34.0	205.79572036291415	pulse	1.0	t		34.0	male	white	2.651014723438122	smiling	121	sub-09	2.0	1.0	121_smiling	0.0		310.849376564174	
34.0	206.4957029458917	pulse	1.0	t		34.0	male	white	2.651014723438122	smiling	121	sub-09	2.0	1.0	121_smiling	0.0		311.54935914715156	
34.0	207.19568703814343	pulse	1.0	t		34.0	male	white	2.651014723438122	smiling	121	sub-09	2.0	1.0	121_smiling	0.0		312.2493432394033	
35.0	207.27056695275473	face	0.0		146	47.0	male	east_asian	2.171110226820533	smiling	024	sub-09	2.0	1.0	024_smiling	0.0		312.3242231540146	1.2333072027688559
35.0	207.89567988418435	pulse	0.0	t		47.0	male	east_asian	2.171110226820533	smiling	024	sub-09	2.0	1.0	024_smiling	0.0		312.9493360854442	
35.0	208.5038741555236	fix	1.0		443	47.0	male	east_asian	2.171110226820533	smiling	024	sub-09	2.0	1.0	024_smiling	0.0		313.55753035678345	3.7582336181130813
35.0	208.59566005232364	pulse	1.0	t		47.0	male	east_asian	2.171110226820533	smiling	024	sub-09	2.0	1.0	024_smiling	0.0		313.6493162535835	
35.0	209.2956483705425	pulse	1.0	t		47.0	male	east_asian	2.171110226820533	smiling	024	sub-09	2.0	1.0	024_smiling	0.0		314.34930457180235	
35.0	209.99563095352028	pulse	1.0	t		47.0	male	east_asian	2.171110226820533	smiling	024	sub-09	2.0	1.0	024_smiling	0.0		315.04928715478013	
35.0	210.6956129327882	pulse	1.0	t		47.0	male	east_asian	2.171110226820533	smiling	024	sub-09	2.0	1.0	024_smiling	0.0		315.74926913404806	
35.0	211.3956021565716	pulse	1.0	t		47.0	male	east_asian	2.171110226820533	smiling	024	sub-09	2.0	1.0	024_smiling	0.0		316.44925835783147	
35.0	212.09558745624236	pulse	1.0	t		47.0	male	east_asian	2.171110226820533	smiling	024	sub-09	2.0	1.0	024_smiling	0.0		317.1492436575022	
36.0	212.26210777363667	face	0.0		147	40.0	female	west_asian	1.5777954635893354	neutral	038	sub-09	2.0	1.0	038_neutral	0.0		317.3157639748965	1.2500127533655814
36.0	212.7956053562325	pulse	0.0	t		40.0	female	west_asian	1.5777954635893354	neutral	038	sub-09	2.0	1.0	038_neutral	0.0		317.84926155749235	
36.0	213.4955580555843	pulse	0.0	t		40.0	female	west_asian	1.5777954635893354	neutral	038	sub-09	2.0	1.0	038_neutral	0.0		318.54921425684415	
36.0	213.51212052700225	fix	1.0		443	40.0	female	west_asian	1.5777954635893354	neutral	038	sub-09	2.0	1.0	038_neutral	0.0		318.5657767282621	3.750010791309478
36.0	214.19555120348014	pulse	1.0	t		40.0	female	west_asian	1.5777954635893354	neutral	038	sub-09	2.0	1.0	038_neutral	0.0		319.24920740474	
36.0	214.89552503266827	pulse	1.0	t		40.0	female	west_asian	1.5777954635893354	neutral	038	sub-09	2.0	1.0	038_neutral	0.0		319.94918123392813	
36.0	215.59551063419394	pulse	1.0	t		40.0	female	west_asian	1.5777954635893354	neutral	038	sub-09	2.0	1.0	038_neutral	0.0		320.6491668354538	
36.0	216.29550378209	pulse	1.0	t		40.0	female	west_asian	1.5777954635893354	neutral	038	sub-09	2.0	1.0	038_neutral	0.0		321.34915998334986	
36.0	216.99548576135794	pulse	1.0	t		40.0	female	west_asian	1.5777954635893354	neutral	038	sub-09	2.0	1.0	038_neutral	0.0		322.0491419626178	
37.0	217.26213131831173	face	0.0		146	37.0	male	white	3.898925586947871	smiling	101	sub-09	2.0	1.0	101_smiling	0.0		322.3157875195716	1.2415526686831981
37.0	217.69547800368946	pulse	0.0	t		37.0	male	white	3.898925586947871	smiling	101	sub-09	2.0	1.0	101_smiling	0.0		322.7491342049493	
37.0	218.39545907739284	pulse	0.0	t		37.0	male	white	3.898925586947871	smiling	101	sub-09	2.0	1.0	101_smiling	0.0		323.4491152786527	
37.0	218.50368398699493	fix	1.0		444	37.0	male	white	3.898925586947871	smiling	101	sub-09	2.0	1.0	101_smiling	0.0		323.5573401882548	3.7665723571631133
37.0	219.09544860303117	pulse	1.0	t		37.0	male	white	3.898925586947871	smiling	101	sub-09	2.0	1.0	101_smiling	0.0		324.149104804291	
37.0	219.79542937487986	pulse	1.0	t		37.0	male	white	3.898925586947871	smiling	101	sub-09	2.0	1.0	101_smiling	0.0		324.8490855761397	
37.0	220.4954140708412	pulse	1.0	t		37.0	male	white	3.898925586947871	smiling	101	sub-09	2.0	1.0	101_smiling	0.0		325.54907027210106	
37.0	221.19540631317273	pulse	1.0	t		37.0	male	white	3.898925586947871	smiling	101	sub-09	2.0	1.0	101_smiling	0.0		326.2490625144326	
37.0	221.89538557574747	pulse	1.0	t		37.0	male	white	3.898925586947871	smiling	101	sub-09	2.0	1.0	101_smiling	0.0		326.9490417770073	
38.0	222.27025634415804	face	0.0		145	24.0	female	black	3.0955033824114606	smiling	099	sub-09	2.0	1.0	099_smiling	0.0		327.3239125454179	1.2333256159120083
38.0	222.5953787236433	pulse	0.0	t		24.0	female	black	3.0955033824114606	smiling	099	sub-09	2.0	1.0	099_smiling	0.0		327.64903492490316	
38.0	223.29535496766994	pulse	0.0	t		24.0	female	black	3.0955033824114606	smiling	099	sub-09	2.0	1.0	099_smiling	0.0		328.3490111689298	
38.0	223.50358196007005	fix	1.0		444	24.0	female	black	3.0955033824114606	smiling	099	sub-09	2.0	1.0	099_smiling	0.0		328.5572381613299	3.7665726590180384
38.0	223.995440181282	pulse	1.0	t		24.0	female	black	3.0955033824114606	smiling	099	sub-09	2.0	1.0	099_smiling	0.0		329.04909638254185	
38.0	224.6953267744309	pulse	1.0	t		24.0	female	black	3.0955033824114606	smiling	099	sub-09	2.0	1.0	099_smiling	0.0		329.74898297569075	
38.0	225.39531177224694	pulse	1.0	t		24.0	female	black	3.0955033824114606	smiling	099	sub-09	2.0	1.0	099_smiling	0.0		330.4489679735068	
38.0	226.09530673127165	pulse	1.0	t		24.0	female	black	3.0955033824114606	smiling	099	sub-09	2.0	1.0	099_smiling	0.0		331.1489629325315	
38.0	226.79528539013677	pulse	1.0	t		24.0	female	black	3.0955033824114606	smiling	099	sub-09	2.0	1.0	099_smiling	0.0		331.8489415913966	
39.0	227.2701546190881	face	0.0		145	24.0	female	east_asian	4.409868682849185	neutral	030	sub-09	2.0	1.0	030_neutral	0.0		332.32381082034794	1.233326219621631
39.0	227.49528125472602	pulse	0.0	t		24.0	female	east_asian	4.409868682849185	neutral	030	sub-09	2.0	1.0	030_neutral	0.0		332.5489374559859	
39.0	228.19525387649492	pulse	0.0	t		24.0	female	east_asian	4.409868682849185	neutral	030	sub-09	2.0	1.0	030_neutral	0.0		333.2489100777548	
39.0	228.50348083870972	fix	1.0		444	24.0	female	east_asian	4.409868682849185	neutral	030	sub-09	2.0	1.0	030_neutral	0.0		333.5571370399696	3.7499193293026565
39.0	228.89524702439076	pulse	1.0	t		24.0	female	east_asian	4.409868682849185	neutral	030	sub-09	2.0	1.0	030_neutral	0.0		333.9489032256506	
39.0	229.59522809809437	pulse	1.0	t		24.0	female	east_asian	4.409868682849185	neutral	030	sub-09	2.0	1.0	030_neutral	0.0		334.6488842993542	
39.0	230.29521913300664	pulse	1.0	t		24.0	female	east_asian	4.409868682849185	neutral	030	sub-09	2.0	1.0	030_neutral	0.0		335.3488753342665	
39.0	230.99519990485555	pulse	1.0	t		24.0	female	east_asian	4.409868682849185	neutral	030	sub-09	2.0	1.0	030_neutral	0.0		336.0488561061154	
39.0	231.69518369525235	pulse	1.0	t		24.0	female	east_asian	4.409868682849185	neutral	030	sub-09	2.0	1.0	030_neutral	0.0		336.7488398965122	
40.0	232.25340016801238	fix	0.0		720													337.30705636927223	5.999878654367649
40.0	232.39517925798668	pulse	0.0	t														337.44883545924654	
40.0	233.09515278532012	pulse	0.0	t														338.14880898658	
40.0	233.79513899055542	pulse	0.0	t														338.84879519181527	
40.0	234.49512670506465	pulse	0.0	t														339.5487829063245	
40.0	235.19511291029994	pulse	0.0	t														340.2487691115598	
40.0	235.8951009266641	pulse	0.0	t														340.94875712792395	
40.0	236.59508652818977	pulse	0.0	t														341.6487427294496	
40.0	237.2950679037483	pulse	0.0	t														342.34872410500816	
40.0	237.99505622196716	pulse	0.0	t														343.048712423227	
