trial_nr	onset	event_type	phase	response	nr_frames	face_age	face_sex	face_eth	attractiveness	expression	face_id	sub_id	ses	run	trial_type	catch	rating_type	onset_abs	duration
-1.0	0.05795547125171652	fix	0.0		714													93.90589159674528	5.965508466825213
-1.0	0.7070260206328385	pulse	0.0	t														94.5549621461264	
-1.0	1.4070330538074813	pulse	0.0	t														95.25496917930104	
-1.0	2.107024390626975	pulse	0.0	t														95.95496051612054	
-1.0	2.80699067364867	pulse	0.0	t														96.65492679914223	
-1.0	3.506975067848998	pulse	0.0	t														97.35491119334256	
-1.0	4.2069561416669785	pulse	0.0	t														98.05489226716054	
-1.0	4.906928763601172	pulse	0.0	t														98.75486488909473	
-1.0	5.6069161763316515	pulse	0.0	t														99.45485230182521	
0.0	6.0234639380769295	face	0.0		144	23.0	male	white	2.6275368085953046	neutral	141	sub-14	1.0	2.0	141_neutral	0.0		99.87140006357049	1.2332946257188269
0.0	6.306930755830763	pulse	0.0	t		23.0	male	white	2.6275368085953046	neutral	141	sub-14	1.0	2.0	141_neutral	0.0		100.15486688132432	
0.0	7.006894020322761	pulse	0.0	t		23.0	male	white	2.6275368085953046	neutral	141	sub-14	1.0	2.0	141_neutral	0.0		100.85483014581632	
0.0	7.256758563795756	fix	1.0		444	23.0	male	white	2.6275368085953046	neutral	141	sub-14	1.0	2.0	141_neutral	0.0		101.10469468928932	3.7582060997847293
0.0	7.706858190373623	pulse	1.0	t		23.0	male	white	2.6275368085953046	neutral	141	sub-14	1.0	2.0	141_neutral	0.0		101.55479431586718	
0.0	8.406835038249483	pulse	1.0	t		23.0	male	white	2.6275368085953046	neutral	141	sub-14	1.0	2.0	141_neutral	0.0		102.25477116374304	
0.0	9.106828789892461	pulse	1.0	t		23.0	male	white	2.6275368085953046	neutral	141	sub-14	1.0	2.0	141_neutral	0.0		102.95476491538602	
0.0	9.80680171367976	pulse	1.0	t		23.0	male	white	2.6275368085953046	neutral	141	sub-14	1.0	2.0	141_neutral	0.0		103.65473783917332	
0.0	10.506794257911224	pulse	1.0	t		23.0	male	white	2.6275368085953046	neutral	141	sub-14	1.0	2.0	141_neutral	0.0		104.35473038340479	
1.0	11.014964663580486	face	0.0		146	22.0	male	black	2.767608436132113	neutral	044	sub-14	1.0	2.0	044_neutral	0.0		104.86290078907405	1.2416644052846095
1.0	11.206775633581856	pulse	0.0	t		22.0	male	black	2.767608436132113	neutral	044	sub-14	1.0	2.0	044_neutral	0.0		105.05471175907542	
1.0	11.90674191660355	pulse	0.0	t		22.0	male	black	2.767608436132113	neutral	044	sub-14	1.0	2.0	044_neutral	0.0		105.75467804209711	
1.0	12.256629068865095	fix	1.0		444	22.0	male	black	2.767608436132113	neutral	044	sub-14	1.0	2.0	044_neutral	0.0		106.10456519435866	3.766547203317259
1.0	12.606730536746	pulse	1.0	t		22.0	male	black	2.767608436132113	neutral	044	sub-14	1.0	2.0	044_neutral	0.0		106.45466666223956	
1.0	13.306709799446253	pulse	1.0	t		22.0	male	black	2.767608436132113	neutral	044	sub-14	1.0	2.0	044_neutral	0.0		107.15464592493981	
1.0	14.006700834412186	pulse	1.0	t		22.0	male	black	2.767608436132113	neutral	044	sub-14	1.0	2.0	044_neutral	0.0		107.85463695990575	
1.0	14.706681002671303	pulse	1.0	t		22.0	male	black	2.767608436132113	neutral	044	sub-14	1.0	2.0	044_neutral	0.0		108.55461712816486	
1.0	15.406666906136707	pulse	1.0	t		22.0	male	black	2.767608436132113	neutral	044	sub-14	1.0	2.0	044_neutral	0.0		109.25460303163027	
2.0	16.023176272182354	face	0.0		145	27.0	female	white	4.181058495821727	smiling	039	sub-14	1.0	2.0	039_smiling	0.0		109.87111239767592	1.2333226980463223
2.0	16.106677561547258	pulse	0.0	t		27.0	female	white	4.181058495821727	smiling	039	sub-14	1.0	2.0	039_smiling	0.0		109.95461368704082	
2.0	16.80661909262426	pulse	0.0	t		27.0	female	white	4.181058495821727	smiling	039	sub-14	1.0	2.0	039_smiling	0.0		110.65455521811782	
2.0	17.256498970228677	fix	1.0		444	27.0	female	white	4.181058495821727	smiling	039	sub-14	1.0	2.0	039_smiling	0.0		111.10443509572224	3.758225418375787
2.0	17.506621598003676	pulse	1.0	t		27.0	female	white	4.181058495821727	smiling	039	sub-14	1.0	2.0	039_smiling	0.0		111.35455772349724	
2.0	18.20657731617075	pulse	1.0	t		27.0	female	white	4.181058495821727	smiling	039	sub-14	1.0	2.0	039_smiling	0.0		112.05451344166431	
2.0	18.906575595608956	pulse	1.0	t		27.0	female	white	4.181058495821727	smiling	039	sub-14	1.0	2.0	039_smiling	0.0		112.75451172110252	
2.0	19.60656119722171	pulse	1.0	t		27.0	female	white	4.181058495821727	smiling	039	sub-14	1.0	2.0	039_smiling	0.0		113.45449732271527	
2.0	20.306586945281197	pulse	1.0	t		27.0	female	white	4.181058495821727	smiling	039	sub-14	1.0	2.0	039_smiling	0.0		114.15452307077476	
3.0	21.014724388604463	face	0.0		146	28.0	female	white	5.676880222841227	smiling	124	sub-14	1.0	2.0	124_smiling	0.0		114.86266051409802	1.241652331165369
3.0	21.008730493882922	pulse	0.0	t		28.0	female	white	5.676880222841227	smiling	124	sub-14	1.0	2.0	124_smiling	0.0		114.85666661937648	
3.0	21.70650170199815	pulse	0.0	t		28.0	female	white	5.676880222841227	smiling	124	sub-14	1.0	2.0	124_smiling	0.0		115.55443782749171	
3.0	22.256376719769833	fix	1.0		443	28.0	female	white	5.676880222841227	smiling	124	sub-14	1.0	2.0	124_smiling	0.0		116.1043128452634	3.766537544021503
3.0	22.406473116520374	pulse	1.0	t		28.0	female	white	5.676880222841227	smiling	124	sub-14	1.0	2.0	124_smiling	0.0		116.25440924201393	
3.0	23.10647350892941	pulse	1.0	t		28.0	female	white	5.676880222841227	smiling	124	sub-14	1.0	2.0	124_smiling	0.0		116.95440963442297	
3.0	23.806437980832925	pulse	1.0	t		28.0	female	white	5.676880222841227	smiling	124	sub-14	1.0	2.0	124_smiling	0.0		117.65437410632649	
3.0	24.506413017591058	pulse	1.0	t		28.0	female	white	5.676880222841227	smiling	124	sub-14	1.0	2.0	124_smiling	0.0		118.35434914308462	
3.0	25.2063949969679	pulse	1.0	t		28.0	female	white	5.676880222841227	smiling	124	sub-14	1.0	2.0	124_smiling	0.0		119.05433112246146	
3.0	25.906376070785882	pulse	1.0	t		28.0	female	white	5.676880222841227	smiling	124	sub-14	1.0	2.0	124_smiling	0.0		119.75431219627944	
4.0	26.022914263791336	face	0.0		146	24.0	female	east_asian	2.9076800636689217	neutral	034	sub-14	1.0	2.0	034_neutral	0.0		119.8708503892849	1.2333193776635198
4.0	26.60636227610439	pulse	0.0	t		24.0	female	east_asian	2.9076800636689217	neutral	034	sub-14	1.0	2.0	034_neutral	0.0		120.45429840159795	
4.0	27.256233641454855	fix	1.0		443	24.0	female	east_asian	2.9076800636689217	neutral	034	sub-14	1.0	2.0	034_neutral	0.0		121.10416976694842	3.7665613904073325
4.0	27.306359649983733	pulse	1.0	t		24.0	female	east_asian	2.9076800636689217	neutral	034	sub-14	1.0	2.0	034_neutral	0.0		121.1542957754773	
4.0	28.006325933004973	pulse	1.0	t		24.0	female	east_asian	2.9076800636689217	neutral	034	sub-14	1.0	2.0	034_neutral	0.0		121.85426205849853	
4.0	28.706301573469318	pulse	1.0	t		24.0	female	east_asian	2.9076800636689217	neutral	034	sub-14	1.0	2.0	034_neutral	0.0		122.55423769896288	
4.0	29.406294419553433	pulse	1.0	t		24.0	female	east_asian	2.9076800636689217	neutral	034	sub-14	1.0	2.0	034_neutral	0.0		123.254230545047	
4.0	30.106272474841262	pulse	1.0	t		24.0	female	east_asian	2.9076800636689217	neutral	034	sub-14	1.0	2.0	034_neutral	0.0		123.95420860033482	
4.0	30.806269546867497	pulse	1.0	t		24.0	female	east_asian	2.9076800636689217	neutral	034	sub-14	1.0	2.0	034_neutral	0.0		124.65420567236106	
5.0	31.022795031862188	face	0.0		145	24.0	female	black	3.0955033824114606	neutral	099	sub-14	1.0	2.0	099_neutral	1.0	trustworthiness	124.87073115735575	1.233313642457233
5.0	31.506243979919873	pulse	0.0	t		24.0	female	black	3.0955033824114606	neutral	099	sub-14	1.0	2.0	099_neutral	1.0	trustworthiness	125.35418010541343	
5.0	32.206215998147854	pulse	0.0	t		24.0	female	black	3.0955033824114606	neutral	099	sub-14	1.0	2.0	099_neutral	1.0	trustworthiness	126.05415212364142	
5.0	32.25610867431942	fix	1.0		177	24.0	female	black	3.0955033824114606	neutral	099	sub-14	1.0	2.0	099_neutral	1.0	trustworthiness	126.10404479981298	1.508315596954617
5.0	32.90620854237932	pulse	1.0	t		24.0	female	black	3.0955033824114606	neutral	099	sub-14	1.0	2.0	099_neutral	1.0	trustworthiness	126.75414466787288	
5.0	33.606170901312	pulse	1.0	t		24.0	female	black	3.0955033824114606	neutral	099	sub-14	1.0	2.0	099_neutral	1.0	trustworthiness	127.45410702680556	
5.0	33.76442427127404	rating	2.0		294	24.0	female	black	3.0955033824114606	neutral	099	sub-14	1.0	2.0	099_neutral	1.0	trustworthiness	127.6123603967676	2.4915696989110074
5.0	34.30087347198241	pulse	2.0	t		24.0	female	black	3.0955033824114606	neutral	099	sub-14	1.0	2.0	099_neutral	1.0	trustworthiness	128.14880959747597	
5.0	35.000894994100236	pulse	2.0	t		24.0	female	black	3.0955033824114606	neutral	099	sub-14	1.0	2.0	099_neutral	1.0	trustworthiness	128.8488311195938	
5.0	35.23948200820405	response	2.0	b		24.0	female	black	3.0955033824114606	neutral	099	sub-14	1.0	2.0	099_neutral	1.0	trustworthiness	129.0874181336976	
5.0	35.706122272796165	pulse	2.0	t		24.0	female	black	3.0955033824114606	neutral	099	sub-14	1.0	2.0	099_neutral	1.0	trustworthiness	129.55405839828973	
5.0	36.255993970185045	fix	3.0		443	24.0	female	black	3.0955033824114606	neutral	099	sub-14	1.0	2.0	099_neutral	1.0	trustworthiness	130.1039300956786	3.7665475051699104
5.0	36.40609881881937	pulse	3.0	t		24.0	female	black	3.0955033824114606	neutral	099	sub-14	1.0	2.0	099_neutral	1.0	trustworthiness	130.25403494431293	
5.0	37.106077477813415	pulse	3.0	t		24.0	female	black	3.0955033824114606	neutral	099	sub-14	1.0	2.0	099_neutral	1.0	trustworthiness	130.95401360330698	
5.0	37.806071833162605	pulse	3.0	t		24.0	female	black	3.0955033824114606	neutral	099	sub-14	1.0	2.0	099_neutral	1.0	trustworthiness	131.65400795865617	
5.0	38.50605320883324	pulse	3.0	t		24.0	female	black	3.0955033824114606	neutral	099	sub-14	1.0	2.0	099_neutral	1.0	trustworthiness	132.3539893343268	
5.0	39.20603307523925	pulse	3.0	t		24.0	female	black	3.0955033824114606	neutral	099	sub-14	1.0	2.0	099_neutral	1.0	trustworthiness	133.0539692007328	
5.0	39.90598758599435	pulse	3.0	t		24.0	female	black	3.0955033824114606	neutral	099	sub-14	1.0	2.0	099_neutral	1.0	trustworthiness	133.75392371148791	
6.0	40.022541475354956	face	0.0		146	26.0	female	white	4.854755272582572	neutral	027	sub-14	1.0	2.0	027_neutral	0.0		133.87047760084852	1.2333181702515503
6.0	40.6060012599346	pulse	0.0	t		26.0	female	white	4.854755272582572	neutral	027	sub-14	1.0	2.0	027_neutral	0.0		134.45393738542816	
6.0	41.255859645606506	fix	1.0		443	26.0	female	white	4.854755272582572	neutral	027	sub-14	1.0	2.0	027_neutral	0.0		135.10379577110007	3.758241114730936
6.0	41.30596995777978	pulse	1.0	t		26.0	female	white	4.854755272582572	neutral	027	sub-14	1.0	2.0	027_neutral	0.0		135.15390608327334	
6.0	42.00594891862693	pulse	1.0	t		26.0	female	white	4.854755272582572	neutral	027	sub-14	1.0	2.0	027_neutral	0.0		135.8538850441205	
6.0	42.7059296905918	pulse	1.0	t		26.0	female	white	4.854755272582572	neutral	027	sub-14	1.0	2.0	027_neutral	0.0		136.55386581608536	
6.0	43.40591378293948	pulse	1.0	t		26.0	female	white	4.854755272582572	neutral	027	sub-14	1.0	2.0	027_neutral	0.0		137.25384990843304	
6.0	44.10589485675746	pulse	1.0	t		26.0	female	white	4.854755272582572	neutral	027	sub-14	1.0	2.0	027_neutral	0.0		137.95383098225102	
6.0	44.805873213898394	pulse	1.0	t		26.0	female	white	4.854755272582572	neutral	027	sub-14	1.0	2.0	027_neutral	0.0		138.65380933939196	
7.0	45.01410076033744	face	0.0		146	30.0	female	black	2.7345801830481498	smiling	062	sub-14	1.0	2.0	062_smiling	0.0		138.862036885831	1.2416420681638556
7.0	45.50586817295334	pulse	0.0	t		30.0	female	black	2.7345801830481498	smiling	062	sub-14	1.0	2.0	062_smiling	0.0		139.3538042984469	
7.0	46.2058507560364	pulse	0.0	t		30.0	female	black	2.7345801830481498	smiling	062	sub-14	1.0	2.0	062_smiling	0.0		140.05378688152996	
7.0	46.2557428285013	fix	1.0		445	30.0	female	black	2.7345801830481498	smiling	062	sub-14	1.0	2.0	062_smiling	0.0		140.10367895399486	3.7583017871811535
7.0	46.905825490941425	pulse	1.0	t		30.0	female	black	2.7345801830481498	smiling	062	sub-14	1.0	2.0	062_smiling	0.0		140.75376161643499	
7.0	47.60580384808236	pulse	1.0	t		30.0	female	black	2.7345801830481498	smiling	062	sub-14	1.0	2.0	062_smiling	0.0		141.45373997357592	
7.0	48.30578280892951	pulse	1.0	t		30.0	female	black	2.7345801830481498	smiling	062	sub-14	1.0	2.0	062_smiling	0.0		142.15371893442307	
7.0	49.00576237348241	pulse	1.0	t		30.0	female	black	2.7345801830481498	smiling	062	sub-14	1.0	2.0	062_smiling	0.0		142.85369849897597	
7.0	49.70575733253736	pulse	1.0	t		30.0	female	black	2.7345801830481498	smiling	062	sub-14	1.0	2.0	062_smiling	0.0		143.55369345803092	
8.0	50.01404461568245	face	0.0		146	19.0	female	white	4.298846000795861	smiling	100	sub-14	1.0	2.0	100_smiling	0.0		143.861980741176	1.241554832651218
8.0	50.40574353785587	pulse	0.0	t		19.0	female	white	4.298846000795861	smiling	100	sub-14	1.0	2.0	100_smiling	0.0		144.25367966334943	
8.0	51.10570951902446	pulse	0.0	t		19.0	female	white	4.298846000795861	smiling	100	sub-14	1.0	2.0	100_smiling	0.0		144.95364564451802	
8.0	51.25559944833367	fix	1.0		444	19.0	female	white	4.298846000795861	smiling	100	sub-14	1.0	2.0	100_smiling	0.0		145.10353557382723	3.758228135052832
8.0	51.80571202440433	pulse	1.0	t		19.0	female	white	4.298846000795861	smiling	100	sub-14	1.0	2.0	100_smiling	0.0		145.6536481498979	
8.0	52.50566713886565	pulse	1.0	t		19.0	female	white	4.298846000795861	smiling	100	sub-14	1.0	2.0	100_smiling	0.0		146.3536032643592	
8.0	53.20565485344923	pulse	1.0	t		19.0	female	white	4.298846000795861	smiling	100	sub-14	1.0	2.0	100_smiling	0.0		147.0535909789428	
8.0	53.90562958835426	pulse	1.0	t		19.0	female	white	4.298846000795861	smiling	100	sub-14	1.0	2.0	100_smiling	0.0		147.75356571384782	
8.0	54.605614888113905	pulse	1.0	t		19.0	female	white	4.298846000795861	smiling	100	sub-14	1.0	2.0	100_smiling	0.0		148.45355101360747	
9.0	55.0138275833865	face	0.0		146	20.0	male	black	3.1070433744528456	neutral	082	sub-14	1.0	2.0	082_neutral	0.0		148.86176370888006	1.2416465959586276
9.0	55.30560411196211	pulse	0.0	t		20.0	male	black	3.1070433744528456	neutral	082	sub-14	1.0	2.0	082_neutral	0.0		149.15354023745567	
9.0	56.00560420251804	pulse	0.0	t		20.0	male	black	3.1070433744528456	neutral	082	sub-14	1.0	2.0	082_neutral	0.0		149.8535403280116	
9.0	56.25547417934513	fix	1.0		444	20.0	male	black	3.1070433744528456	neutral	082	sub-14	1.0	2.0	082_neutral	0.0		150.1034103048387	3.7665538440824093
9.0	56.70556444847989	pulse	1.0	t		20.0	male	black	3.1070433744528456	neutral	082	sub-14	1.0	2.0	082_neutral	0.0		150.55350057397345	
9.0	57.405544013032795	pulse	1.0	t		20.0	male	black	3.1070433744528456	neutral	082	sub-14	1.0	2.0	082_neutral	0.0		151.25348013852636	
9.0	58.10552448314502	pulse	1.0	t		20.0	male	black	3.1070433744528456	neutral	082	sub-14	1.0	2.0	082_neutral	0.0		151.95346060863858	
9.0	58.805503142138605	pulse	1.0	t		20.0	male	black	3.1070433744528456	neutral	082	sub-14	1.0	2.0	082_neutral	0.0		152.65343926763217	
9.0	59.50548874375136	pulse	1.0	t		20.0	male	black	3.1070433744528456	neutral	082	sub-14	1.0	2.0	082_neutral	0.0		153.35342486924492	
10.0	60.02202802342754	face	0.0		145	31.0	female	east_asian	3.395941106247513	smiling	087	sub-14	1.0	2.0	087_smiling	0.0		153.8699641489211	1.2333054924265525
10.0	60.20548702318956	pulse	0.0	t		31.0	female	east_asian	3.395941106247513	smiling	087	sub-14	1.0	2.0	087_smiling	0.0		154.05342314868312	
10.0	60.90547353036118	pulse	0.0	t		31.0	female	east_asian	3.395941106247513	smiling	087	sub-14	1.0	2.0	087_smiling	0.0		154.75340965585474	
10.0	61.25533351585409	fix	1.0		444	31.0	female	east_asian	3.395941106247513	smiling	087	sub-14	1.0	2.0	087_smiling	0.0		155.10326964134765	3.766566521907862
10.0	61.60543558744075	pulse	1.0	t		31.0	female	east_asian	3.395941106247513	smiling	087	sub-14	1.0	2.0	087_smiling	0.0		155.4533717129343	
10.0	62.3054112279051	pulse	1.0	t		31.0	female	east_asian	3.395941106247513	smiling	087	sub-14	1.0	2.0	087_smiling	0.0		156.15334735339866	
10.0	63.00539199986997	pulse	1.0	t		31.0	female	east_asian	3.395941106247513	smiling	087	sub-14	1.0	2.0	087_smiling	0.0		156.85332812536353	
10.0	63.705379110747344	pulse	1.0	t		31.0	female	east_asian	3.395941106247513	smiling	087	sub-14	1.0	2.0	087_smiling	0.0		157.5533152362409	
10.0	64.40535988271222	pulse	1.0	t		31.0	female	east_asian	3.395941106247513	smiling	087	sub-14	1.0	2.0	087_smiling	0.0		158.25329600820578	
11.0	65.02190003776195	face	0.0		145	40.0	male	black	2.408674890569041	smiling	061	sub-14	1.0	2.0	061_smiling	0.0		158.8698361632555	1.2333136424567783
11.0	65.10537023626966	pulse	0.0	t		40.0	male	black	2.408674890569041	smiling	061	sub-14	1.0	2.0	061_smiling	0.0		158.95330636176323	
11.0	65.8053488952637	pulse	0.0	t		40.0	male	black	2.408674890569041	smiling	061	sub-14	1.0	2.0	061_smiling	0.0		159.65328502075727	
11.0	66.25521368021873	fix	1.0		444	40.0	male	black	2.408674890569041	smiling	061	sub-14	1.0	2.0	061_smiling	0.0		160.1031498057123	3.7665456940521835
11.0	66.50532091349169	pulse	1.0	t		40.0	male	black	2.408674890569041	smiling	061	sub-14	1.0	2.0	061_smiling	0.0		160.35325703898525	
11.0	67.20528266871861	pulse	1.0	t		40.0	male	black	2.408674890569041	smiling	061	sub-14	1.0	2.0	061_smiling	0.0		161.05321879421217	
11.0	67.90526766662515	pulse	1.0	t		40.0	male	black	2.408674890569041	smiling	061	sub-14	1.0	2.0	061_smiling	0.0		161.7532037921187	
11.0	68.60524632561919	pulse	1.0	t		40.0	male	black	2.408674890569041	smiling	061	sub-14	1.0	2.0	061_smiling	0.0		162.45318245111275	
11.0	69.30520989196384	pulse	1.0	t		40.0	male	black	2.408674890569041	smiling	061	sub-14	1.0	2.0	061_smiling	0.0		163.1531460174574	
12.0	70.02175937427091	face	0.0		146	31.0	female	west_asian	2.364902506963788	smiling	006	sub-14	1.0	2.0	006_smiling	0.0		163.86969549976448	1.2333082091031429
12.0	70.0079154908235	pulse	0.0	t		31.0	female	west_asian	2.364902506963788	smiling	006	sub-14	1.0	2.0	006_smiling	0.0		163.85585161631707	
12.0	70.70521218604654	pulse	0.0	t		31.0	female	west_asian	2.364902506963788	smiling	006	sub-14	1.0	2.0	006_smiling	0.0		164.5531483115401	
12.0	71.25506758337406	fix	1.0		443	31.0	female	west_asian	2.364902506963788	smiling	006	sub-14	1.0	2.0	006_smiling	0.0		165.10300370886762	3.758228135052832
12.0	71.40519175059944	pulse	1.0	t		31.0	female	west_asian	2.364902506963788	smiling	006	sub-14	1.0	2.0	006_smiling	0.0		165.253127876093	
12.0	72.10515984473886	pulse	1.0	t		31.0	female	west_asian	2.364902506963788	smiling	006	sub-14	1.0	2.0	006_smiling	0.0		165.95309597023243	
12.0	72.80514665376359	pulse	1.0	t		31.0	female	west_asian	2.364902506963788	smiling	006	sub-14	1.0	2.0	006_smiling	0.0		166.65308277925715	
12.0	73.50511625716808	pulse	1.0	t		31.0	female	west_asian	2.364902506963788	smiling	006	sub-14	1.0	2.0	006_smiling	0.0		167.35305238266164	
12.0	74.20510487731053	pulse	1.0	t		31.0	female	west_asian	2.364902506963788	smiling	006	sub-14	1.0	2.0	006_smiling	0.0		168.0530410028041	
12.0	74.90508112148063	pulse	1.0	t		31.0	female	west_asian	2.364902506963788	smiling	006	sub-14	1.0	2.0	006_smiling	0.0		168.7530172469742	
13.0	75.01329571842689	face	0.0		147	28.0	male	white	3.9076800636689217	smiling	033	sub-14	1.0	2.0	033_smiling	0.0		168.86123184392045	1.241640860751886
13.0	75.60506611938717	pulse	0.0	t		28.0	male	white	3.9076800636689217	smiling	033	sub-14	1.0	2.0	033_smiling	0.0		169.45300224488074	
13.0	76.25493657917877	fix	1.0		443	28.0	male	white	3.9076800636689217	smiling	033	sub-14	1.0	2.0	033_smiling	0.0		170.10287270467234	3.7582227016987417
13.0	76.30504779691091	pulse	1.0	t		28.0	male	white	3.9076800636689217	smiling	033	sub-14	1.0	2.0	033_smiling	0.0		170.15298392240447	
13.0	77.0050321911117	pulse	1.0	t		28.0	male	white	3.9076800636689217	smiling	033	sub-14	1.0	2.0	033_smiling	0.0		170.85296831660526	
13.0	77.70501115195884	pulse	1.0	t		28.0	male	white	3.9076800636689217	smiling	033	sub-14	1.0	2.0	033_smiling	0.0		171.5529472774524	
13.0	78.40498890539357	pulse	1.0	t		28.0	male	white	3.9076800636689217	smiling	033	sub-14	1.0	2.0	033_smiling	0.0		172.25292503088713	
13.0	79.10497148847662	pulse	1.0	t		28.0	male	white	3.9076800636689217	smiling	033	sub-14	1.0	2.0	033_smiling	0.0		172.95290761397018	
13.0	79.8049836531518	pulse	1.0	t		28.0	male	white	3.9076800636689217	smiling	033	sub-14	1.0	2.0	033_smiling	0.0		173.65291977864536	
14.0	80.01315928087752	face	0.0		146	24.0	male	white	3.1153999204138483	smiling	012	sub-14	1.0	2.0	012_smiling	0.0		173.86109540637108	1.2416447848409007
14.0	80.50494903061463	pulse	0.0	t		24.0	male	white	3.1153999204138483	smiling	012	sub-14	1.0	2.0	012_smiling	0.0		174.3528851561082	
14.0	81.2049210488426	pulse	0.0	t		24.0	male	white	3.1153999204138483	smiling	012	sub-14	1.0	2.0	012_smiling	0.0		175.05285717433617	
14.0	81.25480406571842	fix	1.0		444	24.0	male	white	3.1153999204138483	smiling	012	sub-14	1.0	2.0	012_smiling	0.0		175.10274019121198	3.766564107083923
14.0	81.90489578374809	pulse	1.0	t		24.0	male	white	3.1153999204138483	smiling	012	sub-14	1.0	2.0	012_smiling	0.0		175.75283190924165	
14.0	82.60487927238955	pulse	1.0	t		24.0	male	white	3.1153999204138483	smiling	012	sub-14	1.0	2.0	012_smiling	0.0		176.4528153978831	
14.0	83.30486668512003	pulse	1.0	t		24.0	male	white	3.1153999204138483	smiling	012	sub-14	1.0	2.0	012_smiling	0.0		177.1528028106136	
14.0	84.00486677567596	pulse	1.0	t		24.0	male	white	3.1153999204138483	smiling	012	sub-14	1.0	2.0	012_smiling	0.0		177.85280290116953	
14.0	84.7048203808722	pulse	1.0	t		24.0	male	white	3.1153999204138483	smiling	012	sub-14	1.0	2.0	012_smiling	0.0		178.55275650636577	
15.0	85.02136817280234	face	0.0		145	31.0	female	white	2.1822522881018704	neutral	102	sub-14	1.0	2.0	102_neutral	0.0		178.8693042982959	1.233286475688601
15.0	85.40481654733912	pulse	0.0	t		31.0	female	white	2.1822522881018704	neutral	102	sub-14	1.0	2.0	102_neutral	0.0		179.25275267283268	
15.0	86.10479792301021	pulse	0.0	t		31.0	female	white	2.1822522881018704	neutral	102	sub-14	1.0	2.0	102_neutral	0.0		179.95273404850377	
15.0	86.25465464849094	fix	1.0		444	31.0	female	white	2.1822522881018704	neutral	102	sub-14	1.0	2.0	102_neutral	0.0		180.1025907739845	3.7665810108510414
15.0	86.80476813012046	pulse	1.0	t		31.0	female	white	2.1822522881018704	neutral	102	sub-14	1.0	2.0	102_neutral	0.0		180.65270425561403	
15.0	87.50474075205466	pulse	1.0	t		31.0	female	white	2.1822522881018704	neutral	102	sub-14	1.0	2.0	102_neutral	0.0		181.35267687754822	
15.0	88.20474265372877	pulse	1.0	t		31.0	female	white	2.1822522881018704	neutral	102	sub-14	1.0	2.0	102_neutral	0.0		182.05267877922233	
15.0	88.90471255898592	pulse	1.0	t		31.0	female	white	2.1822522881018704	neutral	102	sub-14	1.0	2.0	102_neutral	0.0		182.75264868447948	
15.0	89.60473045886783	pulse	1.0	t		31.0	female	white	2.1822522881018704	neutral	102	sub-14	1.0	2.0	102_neutral	0.0		183.4526665843614	
16.0	90.02123565934198	face	0.0		145	19.0	male	white	2.243931555909272	neutral	130	sub-14	1.0	2.0	130_neutral	0.0		183.86917178483554	1.2333051905734465
16.0	90.30471183453892	pulse	0.0	t		19.0	male	white	2.243931555909272	neutral	130	sub-14	1.0	2.0	130_neutral	0.0		184.15264796003248	
16.0	91.00466604344092	pulse	0.0	t		19.0	male	white	2.243931555909272	neutral	130	sub-14	1.0	2.0	130_neutral	0.0		184.85260216893448	
16.0	91.25454084991543	fix	1.0		444	19.0	male	white	2.243931555909272	neutral	130	sub-14	1.0	2.0	130_neutral	0.0		185.102476975409	3.766563201525514
16.0	91.70465134320057	pulse	1.0	t		19.0	male	white	2.243931555909272	neutral	130	sub-14	1.0	2.0	130_neutral	0.0		185.55258746869413	
16.0	92.40464056704923	pulse	1.0	t		19.0	male	white	2.243931555909272	neutral	130	sub-14	1.0	2.0	130_neutral	0.0		186.2525766925428	
16.0	93.10460413339388	pulse	1.0	t		19.0	male	white	2.243931555909272	neutral	130	sub-14	1.0	2.0	130_neutral	0.0		186.95254025888744	
16.0	93.80458973500663	pulse	1.0	t		19.0	male	white	2.243931555909272	neutral	130	sub-14	1.0	2.0	130_neutral	0.0		187.6525258605002	
16.0	94.50458107182567	pulse	1.0	t		19.0	male	white	2.243931555909272	neutral	130	sub-14	1.0	2.0	130_neutral	0.0		188.35251719731923	
17.0	95.02110405144094	face	0.0		145	31.0	female	east_asian	3.395941106247513	neutral	087	sub-14	1.0	2.0	087_neutral	0.0		188.8690401769345	1.2332825515991317
17.0	95.20455701414267	pulse	0.0	t		31.0	female	east_asian	3.395941106247513	neutral	087	sub-14	1.0	2.0	087_neutral	0.0		189.05249313963623	
17.0	95.90455136949186	pulse	0.0	t		31.0	female	east_asian	3.395941106247513	neutral	087	sub-14	1.0	2.0	087_neutral	0.0		189.75248749498542	
17.0	96.25438660304007	fix	1.0		444	31.0	female	east_asian	3.395941106247513	neutral	087	sub-14	1.0	2.0	087_neutral	0.0		190.10232272853364	3.7665840293811925
17.0	96.6045270099562	pulse	1.0	t		31.0	female	east_asian	3.395941106247513	neutral	087	sub-14	1.0	2.0	087_neutral	0.0		190.45246313544976	
17.0	97.30449600965449	pulse	1.0	t		31.0	female	east_asian	3.395941106247513	neutral	087	sub-14	1.0	2.0	087_neutral	0.0		191.15243213514805	
17.0	98.00448161126724	pulse	1.0	t		31.0	female	east_asian	3.395941106247513	neutral	087	sub-14	1.0	2.0	087_neutral	0.0		191.8524177367608	
17.0	98.70447324993938	pulse	1.0	t		31.0	female	east_asian	3.395941106247513	neutral	087	sub-14	1.0	2.0	087_neutral	0.0		192.55240937543294	
17.0	99.40445734228706	pulse	1.0	t		31.0	female	east_asian	3.395941106247513	neutral	087	sub-14	1.0	2.0	087_neutral	0.0		193.25239346778062	
18.0	100.02097063242127	face	0.0		145	27.0	male	black	3.5523278949462798	smiling	042	sub-14	1.0	2.0	042_smiling	0.0		193.86890675791483	1.233310623927082
18.0	100.10443207719254	pulse	0.0	t		27.0	male	black	3.5523278949462798	smiling	042	sub-14	1.0	2.0	042_smiling	0.0		193.9523682026861	
18.0	100.80441798065795	pulse	0.0	t		27.0	male	black	3.5523278949462798	smiling	042	sub-14	1.0	2.0	042_smiling	0.0		194.6523541061515	
18.0	101.25428125634835	fix	1.0		444	27.0	male	black	3.5523278949462798	smiling	042	sub-14	1.0	2.0	042_smiling	0.0		195.1022173818419	3.766555957053697
18.0	101.50441686380191	pulse	1.0	t		27.0	male	black	3.5523278949462798	smiling	042	sub-14	1.0	2.0	042_smiling	0.0		195.35235298929547	
18.0	102.20436835602732	pulse	1.0	t		27.0	male	black	3.5523278949462798	smiling	042	sub-14	1.0	2.0	042_smiling	0.0		196.05230448152088	
18.0	102.9043494298453	pulse	1.0	t		27.0	male	black	3.5523278949462798	smiling	042	sub-14	1.0	2.0	042_smiling	0.0		196.75228555533886	
18.0	103.60430454430616	pulse	1.0	t		27.0	male	black	3.5523278949462798	smiling	042	sub-14	1.0	2.0	042_smiling	0.0		197.45224066979972	
18.0	104.3043112756277	pulse	1.0	t		27.0	male	black	3.5523278949462798	smiling	042	sub-14	1.0	2.0	042_smiling	0.0		198.15224740112126	
19.0	105.02083721340205	face	0.0		146	47.0	male	east_asian	2.171110226820533	smiling	024	sub-14	1.0	2.0	024_smiling	0.0		198.8687733388956	1.2333118313390514
19.0	105.00727133655391	pulse	0.0	t		47.0	male	east_asian	2.171110226820533	smiling	024	sub-14	1.0	2.0	024_smiling	0.0		198.85520746204747	
19.0	105.70427070658661	pulse	0.0	t		47.0	male	east_asian	2.171110226820533	smiling	024	sub-14	1.0	2.0	024_smiling	0.0		199.55220683208017	
19.0	106.2541490447411	fix	1.0		443	47.0	male	east_asian	2.171110226820533	smiling	024	sub-14	1.0	2.0	024_smiling	0.0		200.10208517023466	3.7582335684064674
19.0	106.40426385452383	pulse	1.0	t		47.0	male	east_asian	2.171110226820533	smiling	024	sub-14	1.0	2.0	024_smiling	0.0		200.2521999800174	
19.0	107.10423828757621	pulse	1.0	t		47.0	male	east_asian	2.171110226820533	smiling	024	sub-14	1.0	2.0	024_smiling	0.0		200.95217441306977	
19.0	107.80425528189926	pulse	1.0	t		47.0	male	east_asian	2.171110226820533	smiling	024	sub-14	1.0	2.0	024_smiling	0.0		201.65219140739282	
19.0	108.50422005565588	pulse	1.0	t		47.0	male	east_asian	2.171110226820533	smiling	024	sub-14	1.0	2.0	024_smiling	0.0		202.35215618114944	
19.0	109.2041878479422	pulse	1.0	t		47.0	male	east_asian	2.171110226820533	smiling	024	sub-14	1.0	2.0	024_smiling	0.0		203.05212397343576	
19.0	109.90417254399608	pulse	1.0	t		47.0	male	east_asian	2.171110226820533	smiling	024	sub-14	1.0	2.0	024_smiling	0.0		203.75210866948964	
20.0	110.01238261314757	face	0.0		147	31.0	male	west_asian	1.9538400318344609	neutral	070	sub-14	1.0	2.0	070_neutral	0.0		203.86031873864113	1.2416420681638556
20.0	110.60414154369437	pulse	0.0	t		31.0	male	west_asian	1.9538400318344609	neutral	070	sub-14	1.0	2.0	070_neutral	0.0		204.45207766918793	
20.0	111.25402468131142	fix	1.0		1184	31.0	male	west_asian	1.9538400318344609	neutral	070	sub-14	1.0	2.0	070_neutral	0.0		205.10196080680498	10.008124674941882
20.0	111.30413137124879	pulse	1.0	t		31.0	male	west_asian	1.9538400318344609	neutral	070	sub-14	1.0	2.0	070_neutral	0.0		205.15206749674235	
20.0	112.00411184136055	pulse	1.0	t		31.0	male	west_asian	1.9538400318344609	neutral	070	sub-14	1.0	2.0	070_neutral	0.0		205.85204796685412	
20.0	112.70408204847126	pulse	1.0	t		31.0	male	west_asian	1.9538400318344609	neutral	070	sub-14	1.0	2.0	070_neutral	0.0		206.55201817396483	
20.0	113.40406282043614	pulse	1.0	t		31.0	male	west_asian	1.9538400318344609	neutral	070	sub-14	1.0	2.0	070_neutral	0.0		207.2519989459297	
20.0	114.10404117757707	pulse	1.0	t		31.0	male	west_asian	1.9538400318344609	neutral	070	sub-14	1.0	2.0	070_neutral	0.0		207.95197730307063	
20.0	114.80403734404399	pulse	1.0	t		31.0	male	west_asian	1.9538400318344609	neutral	070	sub-14	1.0	2.0	070_neutral	0.0		208.65197346953755	
20.0	115.50403592533485	pulse	1.0	t		31.0	male	west_asian	1.9538400318344609	neutral	070	sub-14	1.0	2.0	070_neutral	0.0		209.3519720508284	
20.0	116.20400100094457	pulse	1.0	t		31.0	male	west_asian	1.9538400318344609	neutral	070	sub-14	1.0	2.0	070_neutral	0.0		210.05193712643813	
20.0	116.90398509329225	pulse	1.0	t		31.0	male	west_asian	1.9538400318344609	neutral	070	sub-14	1.0	2.0	070_neutral	0.0		210.7519212187858	
20.0	117.603970694905	pulse	1.0	t		31.0	male	west_asian	1.9538400318344609	neutral	070	sub-14	1.0	2.0	070_neutral	0.0		211.45190682039856	
20.0	118.30394180757412	pulse	1.0	t		31.0	male	west_asian	1.9538400318344609	neutral	070	sub-14	1.0	2.0	070_neutral	0.0		212.15187793306768	
20.0	119.00394280368937	pulse	1.0	t		31.0	male	west_asian	1.9538400318344609	neutral	070	sub-14	1.0	2.0	070_neutral	0.0		212.85187892918293	
20.0	119.70390516262205	pulse	1.0	t		31.0	male	west_asian	1.9538400318344609	neutral	070	sub-14	1.0	2.0	070_neutral	0.0		213.5518412881156	
20.0	120.40389227349942	pulse	1.0	t		31.0	male	west_asian	1.9538400318344609	neutral	070	sub-14	1.0	2.0	070_neutral	0.0		214.25182839899298	
20.0	121.10387696955331	pulse	1.0	t		31.0	male	west_asian	1.9538400318344609	neutral	070	sub-14	1.0	2.0	070_neutral	0.0		214.95181309504687	
21.0	121.2621493562533	face	0.0		147	19.0	male	white	2.243931555909272	smiling	130	sub-14	1.0	2.0	130_smiling	0.0		215.11008548174686	1.241570529006367
21.0	121.80387253231447	pulse	0.0	t		19.0	male	white	2.243931555909272	smiling	130	sub-14	1.0	2.0	130_smiling	0.0		215.65180865780803	
21.0	122.50371988525967	fix	1.0		444	19.0	male	white	2.243931555909272	smiling	130	sub-14	1.0	2.0	130_smiling	0.0		216.35165601075323	3.7665568626125605
21.0	122.51128250994407	pulse	1.0	t		19.0	male	white	2.243931555909272	smiling	130	sub-14	1.0	2.0	130_smiling	0.0		216.35921863543763	
21.0	123.20381868174172	pulse	1.0	t		19.0	male	white	2.243931555909272	smiling	130	sub-14	1.0	2.0	130_smiling	0.0		217.05175480723528	
21.0	123.90379492591182	pulse	1.0	t		19.0	male	white	2.243931555909272	smiling	130	sub-14	1.0	2.0	130_smiling	0.0		217.7517310514054	
21.0	124.60380346835154	pulse	1.0	t		19.0	male	white	2.243931555909272	smiling	130	sub-14	1.0	2.0	130_smiling	0.0		218.4517395938451	
21.0	125.30375465872385	pulse	1.0	t		19.0	male	white	2.243931555909272	smiling	130	sub-14	1.0	2.0	130_smiling	0.0		219.1516907842174	
21.0	126.00374086404236	pulse	1.0	t		19.0	male	white	2.243931555909272	smiling	130	sub-14	1.0	2.0	130_smiling	0.0		219.85167698953592	
22.0	126.27027674787223	face	0.0		145	31.0	female	west_asian	2.364902506963788	neutral	006	sub-14	1.0	2.0	006_neutral	0.0		220.1182128733658	1.2333163591338234
22.0	126.7037258619489	pulse	0.0	t		31.0	female	west_asian	2.364902506963788	neutral	006	sub-14	1.0	2.0	006_neutral	0.0		220.55166198744246	
22.0	127.40370361538407	pulse	0.0	t		31.0	female	west_asian	2.364902506963788	neutral	006	sub-14	1.0	2.0	006_neutral	0.0		221.25163974087764	
22.0	127.50359310700605	fix	1.0		444	31.0	female	west_asian	2.364902506963788	neutral	006	sub-14	1.0	2.0	006_neutral	0.0		221.35152923249962	3.7582468499376773
22.0	128.10369465035046	pulse	1.0	t		31.0	female	west_asian	2.364902506963788	neutral	006	sub-14	1.0	2.0	006_neutral	0.0		221.95163077584402	
22.0	128.80366032966595	pulse	1.0	t		31.0	female	west_asian	2.364902506963788	neutral	006	sub-14	1.0	2.0	006_neutral	0.0		222.6515964551595	
22.0	129.50366132578074	pulse	1.0	t		31.0	female	west_asian	2.364902506963788	neutral	006	sub-14	1.0	2.0	006_neutral	0.0		223.3515974512743	
22.0	130.20364089033365	pulse	1.0	t		31.0	female	west_asian	2.364902506963788	neutral	006	sub-14	1.0	2.0	006_neutral	0.0		224.0515770158272	
22.0	130.90361230485587	pulse	1.0	t		31.0	female	west_asian	2.364902506963788	neutral	006	sub-14	1.0	2.0	006_neutral	0.0		224.75154843034943	
23.0	131.26183995694373	face	0.0		146	22.0	female	white	4.614007162753682	neutral	009	sub-14	1.0	2.0	009_neutral	0.0		225.1097760824373	1.2416212403081772
23.0	131.6036054527931	pulse	0.0	t		22.0	female	white	4.614007162753682	neutral	009	sub-14	1.0	2.0	009_neutral	0.0		225.45154157828665	
23.0	132.30357807472728	pulse	0.0	t		22.0	female	white	4.614007162753682	neutral	009	sub-14	1.0	2.0	009_neutral	0.0		226.15151420022084	
23.0	132.5034611972519	fix	1.0		444	22.0	female	white	4.614007162753682	neutral	009	sub-14	1.0	2.0	009_neutral	0.0		226.35139732274547	3.7582175701982123
23.0	133.00354888554375	pulse	1.0	t		22.0	female	white	4.614007162753682	neutral	009	sub-14	1.0	2.0	009_neutral	0.0		226.8514850110373	
23.0	133.7035245260081	pulse	1.0	t		22.0	female	white	4.614007162753682	neutral	009	sub-14	1.0	2.0	009_neutral	0.0		227.55146065150166	
23.0	134.40351163688547	pulse	1.0	t		22.0	female	white	4.614007162753682	neutral	009	sub-14	1.0	2.0	009_neutral	0.0		228.25144776237903	
23.0	135.1034899940264	pulse	1.0	t		22.0	female	white	4.614007162753682	neutral	009	sub-14	1.0	2.0	009_neutral	0.0		228.95142611951997	
23.0	135.8034946123771	pulse	1.0	t		22.0	female	white	4.614007162753682	neutral	009	sub-14	1.0	2.0	009_neutral	0.0		229.65143073787067	
24.0	136.26167876745012	face	0.0		146	21.0	male	east_asian/white	3.501790688420215	neutral	036	sub-14	1.0	2.0	036_neutral	0.0		230.10961489294368	1.2416321070149934
24.0	136.5034675361644	pulse	0.0	t		21.0	male	east_asian/white	3.501790688420215	neutral	036	sub-14	1.0	2.0	036_neutral	0.0		230.35140366165797	
24.0	137.2034298950971	pulse	0.0	t		21.0	male	east_asian/white	3.501790688420215	neutral	036	sub-14	1.0	2.0	036_neutral	0.0		231.05136602059065	
24.0	137.50331087446511	fix	1.0		444	21.0	male	east_asian/white	3.501790688420215	neutral	036	sub-14	1.0	2.0	036_neutral	0.0		231.35124699995868	3.7665704459968765
24.0	137.90339949850159	pulse	1.0	t		21.0	male	east_asian/white	3.501790688420215	neutral	036	sub-14	1.0	2.0	036_neutral	0.0		231.75133562399515	
24.0	138.60339747608668	pulse	1.0	t		21.0	male	east_asian/white	3.501790688420215	neutral	036	sub-14	1.0	2.0	036_neutral	0.0		232.45133360158025	
24.0	139.30338187028747	pulse	1.0	t		21.0	male	east_asian/white	3.501790688420215	neutral	036	sub-14	1.0	2.0	036_neutral	0.0		233.15131799578103	
24.0	140.00338558307885	pulse	1.0	t		21.0	male	east_asian/white	3.501790688420215	neutral	036	sub-14	1.0	2.0	036_neutral	0.0		233.8513217085724	
24.0	140.7033648457791	pulse	1.0	t		21.0	male	east_asian/white	3.501790688420215	neutral	036	sub-14	1.0	2.0	036_neutral	0.0		234.55130097127267	
25.0	141.269881320462	face	0.0		145	34.0	male	white	2.651014723438122	neutral	121	sub-14	1.0	2.0	121_neutral	0.0		235.11781744595555	1.2333079072504916
25.0	141.40333173250656	pulse	0.0	t		34.0	male	white	2.651014723438122	neutral	121	sub-14	1.0	2.0	121_neutral	0.0		235.25126785800012	
25.0	142.1033067692647	pulse	0.0	t		34.0	male	white	2.651014723438122	neutral	121	sub-14	1.0	2.0	121_neutral	0.0		235.95124289475825	
25.0	142.50318922771248	fix	1.0		444	34.0	male	white	2.651014723438122	neutral	121	sub-14	1.0	2.0	121_neutral	0.0		236.35112535320604	3.7665472033168044
25.0	142.80329086161237	pulse	1.0	t		34.0	male	white	2.651014723438122	neutral	121	sub-14	1.0	2.0	121_neutral	0.0		236.65122698710593	
25.0	143.50328974475633	pulse	1.0	t		34.0	male	white	2.651014723438122	neutral	121	sub-14	1.0	2.0	121_neutral	0.0		237.3512258702499	
25.0	144.20324938701242	pulse	1.0	t		34.0	male	white	2.651014723438122	neutral	121	sub-14	1.0	2.0	121_neutral	0.0		238.05118551250598	
25.0	144.90322623488828	pulse	1.0	t		34.0	male	white	2.651014723438122	neutral	121	sub-14	1.0	2.0	121_neutral	0.0		238.75116236038184	
25.0	145.6032160624427	pulse	1.0	t		34.0	male	white	2.651014723438122	neutral	121	sub-14	1.0	2.0	121_neutral	0.0		239.45115218793626	
26.0	146.2697364310293	face	0.0		145	21.0	male	east_asian/white	3.501790688420215	smiling	036	sub-14	1.0	2.0	036_smiling	1.0	dominance	240.11767255652285	1.233322396193671
26.0	146.30322309561734	pulse	0.0	t		21.0	male	east_asian/white	3.501790688420215	smiling	036	sub-14	1.0	2.0	036_smiling	1.0	dominance	240.1511592211109	
26.0	147.0031869638151	pulse	0.0	t		21.0	male	east_asian/white	3.501790688420215	smiling	036	sub-14	1.0	2.0	036_smiling	1.0	dominance	240.85112308930866	
26.0	147.50305882722296	fix	1.0		177	21.0	male	east_asian/white	3.501790688420215	smiling	036	sub-14	1.0	2.0	036_smiling	1.0	dominance	241.35099495271652	1.4999578915085294
26.0	147.7031598876024	pulse	1.0	t		21.0	male	east_asian/white	3.501790688420215	smiling	036	sub-14	1.0	2.0	036_smiling	1.0	dominance	241.55109601309596	
26.0	148.4031358299194	pulse	1.0	t		21.0	male	east_asian/white	3.501790688420215	smiling	036	sub-14	1.0	2.0	036_smiling	1.0	dominance	242.25107195541295	
26.0	149.0030167187315	rating	2.0		294	21.0	male	east_asian/white	3.501790688420215	smiling	036	sub-14	1.0	2.0	036_smiling	1.0	dominance	242.85095284422505	2.499940987741411
26.0	149.09783085426534	pulse	2.0	t		21.0	male	east_asian/white	3.501790688420215	smiling	036	sub-14	1.0	2.0	036_smiling	1.0	dominance	242.9457669797589	
26.0	149.79786565791437	pulse	2.0	t		21.0	male	east_asian/white	3.501790688420215	smiling	036	sub-14	1.0	2.0	036_smiling	1.0	dominance	243.64580178340793	
26.0	150.41143497588655	response	2.0	w		21.0	male	east_asian/white	3.501790688420215	smiling	036	sub-14	1.0	2.0	036_smiling	1.0	dominance	244.2593711013801	
26.0	150.49797743407453	pulse	2.0	t		21.0	male	east_asian/white	3.501790688420215	smiling	036	sub-14	1.0	2.0	036_smiling	1.0	dominance	244.3459135595681	
26.0	151.20307461413404	pulse	2.0	t		21.0	male	east_asian/white	3.501790688420215	smiling	036	sub-14	1.0	2.0	036_smiling	1.0	dominance	245.0510107396276	
26.0	151.5029577064729	fix	3.0		444	21.0	male	east_asian/white	3.501790688420215	smiling	036	sub-14	1.0	2.0	036_smiling	1.0	dominance	245.35089383196646	3.758250774026692
26.0	151.90305448054005	pulse	3.0	t		21.0	male	east_asian/white	3.501790688420215	smiling	036	sub-14	1.0	2.0	036_smiling	1.0	dominance	245.7509906060336	
26.0	152.60304521365333	pulse	3.0	t		21.0	male	east_asian/white	3.501790688420215	smiling	036	sub-14	1.0	2.0	036_smiling	1.0	dominance	246.4509813391469	
26.0	153.30300636517404	pulse	3.0	t		21.0	male	east_asian/white	3.501790688420215	smiling	036	sub-14	1.0	2.0	036_smiling	1.0	dominance	247.1509424906676	
26.0	154.0030203409674	pulse	3.0	t		21.0	male	east_asian/white	3.501790688420215	smiling	036	sub-14	1.0	2.0	036_smiling	1.0	dominance	247.85095646646096	
26.0	154.70297545542826	pulse	3.0	t		21.0	male	east_asian/white	3.501790688420215	smiling	036	sub-14	1.0	2.0	036_smiling	1.0	dominance	248.55091158092182	
27.0	155.2612084804996	face	0.0		146	24.0	male	white	3.1153999204138483	neutral	012	sub-14	1.0	2.0	012_neutral	1.0	attractiveness	249.10914460599315	1.2416097698942394
27.0	155.40298641269192	pulse	0.0	t		24.0	male	white	3.1153999204138483	neutral	012	sub-14	1.0	2.0	012_neutral	1.0	attractiveness	249.25092253818548	
27.0	156.10293518824028	pulse	0.0	t		24.0	male	white	3.1153999204138483	neutral	012	sub-14	1.0	2.0	012_neutral	1.0	attractiveness	249.95087131373384	
27.0	156.50281825039383	fix	1.0		177	24.0	male	white	3.1153999204138483	neutral	012	sub-14	1.0	2.0	012_neutral	1.0	attractiveness	250.3507543758874	1.4999690600689064
27.0	156.80291958244106	pulse	1.0	t		24.0	male	white	3.1153999204138483	neutral	012	sub-14	1.0	2.0	012_neutral	1.0	attractiveness	250.65085570793462	
27.0	157.50291152296631	pulse	1.0	t		24.0	male	white	3.1153999204138483	neutral	012	sub-14	1.0	2.0	012_neutral	1.0	attractiveness	251.35084764845988	
27.0	158.00278731046274	rating	2.0		294	24.0	male	white	3.1153999204138483	neutral	012	sub-14	1.0	2.0	012_neutral	1.0	attractiveness	251.8507234359563	2.499912311708158
27.0	158.19760232137014	pulse	2.0	t		24.0	male	white	3.1153999204138483	neutral	012	sub-14	1.0	2.0	012_neutral	1.0	attractiveness	252.0455384468637	
27.0	158.89757584886365	pulse	2.0	t		24.0	male	white	3.1153999204138483	neutral	012	sub-14	1.0	2.0	012_neutral	1.0	attractiveness	252.7455119743572	
27.0	159.16427473330532	response	2.0	y		24.0	male	white	3.1153999204138483	neutral	012	sub-14	1.0	2.0	012_neutral	1.0	attractiveness	253.01221085879888	
27.0	159.60284206659435	pulse	2.0	t		24.0	male	white	3.1153999204138483	neutral	012	sub-14	1.0	2.0	012_neutral	1.0	attractiveness	253.4507781920879	
27.0	160.30282283855922	pulse	2.0	t		24.0	male	white	3.1153999204138483	neutral	012	sub-14	1.0	2.0	012_neutral	1.0	attractiveness	254.15075896405278	
27.0	160.5026996221709	fix	3.0		444	24.0	male	white	3.1153999204138483	neutral	012	sub-14	1.0	2.0	012_neutral	1.0	attractiveness	254.35063574766446	3.766575879350512
27.0	161.00282383467402	pulse	3.0	t		24.0	male	white	3.1153999204138483	neutral	012	sub-14	1.0	2.0	012_neutral	1.0	attractiveness	254.85075996016758	
27.0	161.70279555104935	pulse	3.0	t		24.0	male	white	3.1153999204138483	neutral	012	sub-14	1.0	2.0	012_neutral	1.0	attractiveness	255.5507316765429	
27.0	162.40277632301422	pulse	3.0	t		24.0	male	white	3.1153999204138483	neutral	012	sub-14	1.0	2.0	012_neutral	1.0	attractiveness	256.2507124485078	
27.0	163.10274592641872	pulse	3.0	t		24.0	male	white	3.1153999204138483	neutral	012	sub-14	1.0	2.0	012_neutral	1.0	attractiveness	256.9506820519123	
27.0	163.80273816879708	pulse	3.0	t		24.0	male	white	3.1153999204138483	neutral	012	sub-14	1.0	2.0	012_neutral	1.0	attractiveness	257.65067429429064	
28.0	164.2692755015214	face	0.0		145	27.0	female	white	3.504576203740549	neutral	144	sub-14	1.0	2.0	144_neutral	0.0		258.11721162701497	1.233290701630267
28.0	164.50272829820415	pulse	0.0	t		27.0	female	white	3.504576203740549	neutral	144	sub-14	1.0	2.0	144_neutral	0.0		258.3506644236977	
28.0	165.20269850531486	pulse	0.0	t		27.0	female	white	3.504576203740549	neutral	144	sub-14	1.0	2.0	144_neutral	0.0		259.0506346308084	
28.0	165.50256620315167	fix	1.0		444	27.0	female	white	3.504576203740549	neutral	144	sub-14	1.0	2.0	144_neutral	0.0		259.35050232864523	3.7582540944090397
28.0	165.90267927727973	pulse	1.0	t		27.0	female	white	3.504576203740549	neutral	144	sub-14	1.0	2.0	144_neutral	0.0		259.7506154027733	
28.0	166.60266367148006	pulse	1.0	t		27.0	female	white	3.504576203740549	neutral	144	sub-14	1.0	2.0	144_neutral	0.0		260.4505997969736	
28.0	167.30264866938705	pulse	1.0	t		27.0	female	white	3.504576203740549	neutral	144	sub-14	1.0	2.0	144_neutral	0.0		261.1505847948806	
28.0	168.00262913949882	pulse	1.0	t		27.0	female	white	3.504576203740549	neutral	144	sub-14	1.0	2.0	144_neutral	0.0		261.8505652649924	
28.0	168.70261564667044	pulse	1.0	t		27.0	female	white	3.504576203740549	neutral	144	sub-14	1.0	2.0	144_neutral	0.0		262.550551772164	
29.0	169.2608202975607	face	0.0		146	20.0	male	black	2.609629924393156	neutral	043	sub-14	1.0	2.0	043_neutral	0.0		263.1087564230543	1.2416257681029492
29.0	169.40259672048842	pulse	0.0	t		20.0	male	black	2.609629924393156	neutral	043	sub-14	1.0	2.0	043_neutral	0.0		263.250532845982	
29.0	170.10257628504132	pulse	0.0	t		20.0	male	black	2.609629924393156	neutral	043	sub-14	1.0	2.0	043_neutral	0.0		263.9505124105349	
29.0	170.50244606566366	fix	1.0		444	20.0	male	black	2.609629924393156	neutral	043	sub-14	1.0	2.0	043_neutral	0.0		264.3503821911572	3.758257112939191
29.0	170.80254679400468	pulse	1.0	t		20.0	male	black	2.609629924393156	neutral	043	sub-14	1.0	2.0	043_neutral	0.0		264.65048291949824	
29.0	171.50254567714865	pulse	1.0	t		20.0	male	black	2.609629924393156	neutral	043	sub-14	1.0	2.0	043_neutral	0.0		265.3504818026422	
29.0	172.20249324528504	pulse	1.0	t		20.0	male	black	2.609629924393156	neutral	043	sub-14	1.0	2.0	043_neutral	0.0		266.0504293707786	
29.0	172.90249363769408	pulse	1.0	t		20.0	male	black	2.609629924393156	neutral	043	sub-14	1.0	2.0	043_neutral	0.0		266.75042976318764	
29.0	173.60248044671835	pulse	1.0	t		20.0	male	black	2.609629924393156	neutral	043	sub-14	1.0	2.0	043_neutral	0.0		267.4504165722119	
30.0	174.26070317860285	face	0.0		146	20.0	male	black	3.1070433744528456	smiling	082	sub-14	1.0	2.0	082_smiling	0.0		268.1086393040964	1.2416106754531029
30.0	174.30247208539095	pulse	0.0	t		20.0	male	black	3.1070433744528456	smiling	082	sub-14	1.0	2.0	082_smiling	0.0		268.1504082108845	
30.0	175.0024803259771	pulse	0.0	t		20.0	male	black	3.1070433744528456	smiling	082	sub-14	1.0	2.0	082_smiling	0.0		268.85041645147066	
30.0	175.50231385405596	fix	1.0		443	20.0	male	black	3.1070433744528456	smiling	082	sub-14	1.0	2.0	082_smiling	0.0		269.3502499795495	3.7665635033781655
30.0	175.70242879967282	pulse	1.0	t		20.0	male	black	3.1070433744528456	smiling	082	sub-14	1.0	2.0	082_smiling	0.0		269.5503649251664	
30.0	176.40240051604815	pulse	1.0	t		20.0	male	black	3.1070433744528456	smiling	082	sub-14	1.0	2.0	082_smiling	0.0		270.2503366415417	
30.0	177.10238853248438	pulse	1.0	t		20.0	male	black	3.1070433744528456	smiling	082	sub-14	1.0	2.0	082_smiling	0.0		270.95032465797794	
30.0	177.80236688962532	pulse	1.0	t		20.0	male	black	3.1070433744528456	smiling	082	sub-14	1.0	2.0	082_smiling	0.0		271.6503030151189	
30.0	178.50236365979845	pulse	1.0	t		20.0	male	black	3.1070433744528456	smiling	082	sub-14	1.0	2.0	082_smiling	0.0		272.350299785292	
30.0	179.202357713295	pulse	1.0	t		20.0	male	black	3.1070433744528456	smiling	082	sub-14	1.0	2.0	082_smiling	0.0		273.05029383878855	
31.0	179.26887735743412	face	0.0		146	19.0	male	white	3.2522881018702745	smiling	018	sub-14	1.0	2.0	018_smiling	0.0		273.1168134829277	1.2333036813083709
31.0	179.90228324616328	pulse	0.0	t		19.0	male	white	3.2522881018702745	smiling	018	sub-14	1.0	2.0	018_smiling	0.0		273.75021937165684	
31.0	180.5021810387425	fix	1.0		443	19.0	male	white	3.2522881018702745	smiling	018	sub-14	1.0	2.0	018_smiling	0.0		274.35011716423605	3.75821424981541
31.0	180.6023014478983	pulse	1.0	t		19.0	male	white	3.2522881018702745	smiling	018	sub-14	1.0	2.0	018_smiling	0.0		274.45023757339186	
31.0	181.30226833462575	pulse	1.0	t		19.0	male	white	3.2522881018702745	smiling	018	sub-14	1.0	2.0	018_smiling	0.0		275.1502044601193	
31.0	182.00224638991403	pulse	1.0	t		19.0	male	white	3.2522881018702745	smiling	018	sub-14	1.0	2.0	018_smiling	0.0		275.8501825154076	
31.0	182.70222414334876	pulse	1.0	t		19.0	male	white	3.2522881018702745	smiling	018	sub-14	1.0	2.0	018_smiling	0.0		276.5501602688423	
31.0	183.40221366905052	pulse	1.0	t		19.0	male	white	3.2522881018702745	smiling	018	sub-14	1.0	2.0	018_smiling	0.0		277.2501497945441	
31.0	184.10218780024934	pulse	1.0	t		19.0	male	white	3.2522881018702745	smiling	018	sub-14	1.0	2.0	018_smiling	0.0		277.9501239257429	
32.0	184.2603952885579	face	0.0		147	26.0	female	white	4.854755272582572	smiling	027	sub-14	1.0	2.0	027_smiling	1.0	attractiveness	278.10833141405146	1.2416653108439277
32.0	184.8021806463339	pulse	0.0	t		26.0	female	white	4.854755272582572	smiling	027	sub-14	1.0	2.0	027_smiling	1.0	attractiveness	278.65011677182747	
32.0	185.50206059940183	fix	1.0		176	26.0	female	white	4.854755272582572	smiling	027	sub-14	1.0	2.0	027_smiling	1.0	attractiveness	279.3499967248954	1.499963626715271
32.0	185.51014241121993	pulse	1.0	t		26.0	female	white	4.854755272582572	smiling	027	sub-14	1.0	2.0	027_smiling	1.0	attractiveness	279.3580785367135	
32.0	186.2021581884719	pulse	1.0	t		26.0	female	white	4.854755272582572	smiling	027	sub-14	1.0	2.0	027_smiling	1.0	attractiveness	280.0500943139655	
32.0	186.90212658446444	pulse	1.0	t		26.0	female	white	4.854755272582572	smiling	027	sub-14	1.0	2.0	027_smiling	1.0	attractiveness	280.750062709958	
32.0	187.0020242261171	rating	2.0		295	26.0	female	white	4.854755272582572	smiling	027	sub-14	1.0	2.0	027_smiling	1.0	attractiveness	280.84996035161066	2.499913820972779
32.0	187.59681587360365	pulse	2.0	t		26.0	female	white	4.854755272582572	smiling	027	sub-14	1.0	2.0	027_smiling	1.0	attractiveness	281.4447519990972	
32.0	188.29682562345488	pulse	2.0	t		26.0	female	white	4.854755272582572	smiling	027	sub-14	1.0	2.0	027_smiling	1.0	attractiveness	282.14476174894844	
32.0	188.57708163100824	response	2.0	w		26.0	female	white	4.854755272582572	smiling	027	sub-14	1.0	2.0	027_smiling	1.0	attractiveness	282.4250177565018	
32.0	189.00205320400346	pulse	2.0	t		26.0	female	white	4.854755272582572	smiling	027	sub-14	1.0	2.0	027_smiling	1.0	attractiveness	282.849989329497	
32.0	189.50193804708988	fix	3.0		443	26.0	female	white	4.854755272582572	smiling	027	sub-14	1.0	2.0	027_smiling	1.0	attractiveness	283.34987417258344	3.7583120501822123
32.0	189.70214415230794	pulse	3.0	t		26.0	female	white	4.854755272582572	smiling	027	sub-14	1.0	2.0	027_smiling	1.0	attractiveness	283.5500802778015	
32.0	190.40204251840805	pulse	3.0	t		26.0	female	white	4.854755272582572	smiling	027	sub-14	1.0	2.0	027_smiling	1.0	attractiveness	284.2499786439016	
32.0	191.10200155695793	pulse	3.0	t		26.0	female	white	4.854755272582572	smiling	027	sub-14	1.0	2.0	027_smiling	1.0	attractiveness	284.9499376824515	
32.0	191.80261410722005	pulse	3.0	t		26.0	female	white	4.854755272582572	smiling	027	sub-14	1.0	2.0	027_smiling	1.0	attractiveness	285.6505502327136	
32.0	192.50198604171464	pulse	3.0	t		26.0	female	white	4.854755272582572	smiling	027	sub-14	1.0	2.0	027_smiling	1.0	attractiveness	286.3499221672082	
32.0	193.20197043591497	pulse	3.0	t		26.0	female	white	4.854755272582572	smiling	027	sub-14	1.0	2.0	027_smiling	1.0	attractiveness	287.04990656140853	
33.0	193.2602500972721	face	0.0		147	24.0	female	east_asian	4.409868682849185	smiling	030	sub-14	1.0	2.0	030_smiling	0.0		287.10818622276565	1.241572943830306
33.0	193.90194275599652	pulse	0.0	t		24.0	female	east_asian	4.409868682849185	smiling	030	sub-14	1.0	2.0	030_smiling	0.0		287.7498788814901	
33.0	194.5018230411024	fix	1.0		443	24.0	female	east_asian	4.409868682849185	smiling	030	sub-14	1.0	2.0	030_smiling	0.0		288.34975916659596	3.758301183475396
33.0	194.60193620578684	pulse	1.0	t		24.0	female	east_asian	4.409868682849185	smiling	030	sub-14	1.0	2.0	030_smiling	0.0		288.4498723312804	
33.0	195.30193297595952	pulse	1.0	t		24.0	female	east_asian	4.409868682849185	smiling	030	sub-14	1.0	2.0	030_smiling	0.0		289.1498691014531	
33.0	196.0019010700994	pulse	1.0	t		24.0	female	east_asian	4.409868682849185	smiling	030	sub-14	1.0	2.0	030_smiling	0.0		289.84983719559295	
33.0	196.70187067350344	pulse	1.0	t		24.0	female	east_asian	4.409868682849185	smiling	030	sub-14	1.0	2.0	030_smiling	0.0		290.549806798997	
33.0	197.40186472699997	pulse	1.0	t		24.0	female	east_asian	4.409868682849185	smiling	030	sub-14	1.0	2.0	030_smiling	0.0		291.24980085249354	
33.0	198.1018207470197	pulse	1.0	t		24.0	female	east_asian	4.409868682849185	smiling	030	sub-14	1.0	2.0	030_smiling	0.0		291.94975687251326	
34.0	198.2601242245778	face	0.0		147	25.0	female	west_asian	2.6756864305610826	smiling	064	sub-14	1.0	2.0	064_smiling	0.0		292.10806035007136	1.241552115974173
34.0	198.80183502466616	pulse	0.0	t		25.0	female	west_asian	2.6756864305610826	smiling	064	sub-14	1.0	2.0	064_smiling	0.0		292.6497711501597	
34.0	199.50167634055197	fix	1.0		444	25.0	female	west_asian	2.6756864305610826	smiling	064	sub-14	1.0	2.0	064_smiling	0.0		293.3496124660455	3.7582269276408624
34.0	199.50937872316808	pulse	1.0	t		25.0	female	west_asian	2.6756864305610826	smiling	064	sub-14	1.0	2.0	064_smiling	0.0		293.35731484866164	
34.0	200.20178449447621	pulse	1.0	t		25.0	female	west_asian	2.6756864305610826	smiling	064	sub-14	1.0	2.0	064_smiling	0.0		294.0497206199698	
34.0	200.90175862567548	pulse	1.0	t		25.0	female	west_asian	2.6756864305610826	smiling	064	sub-14	1.0	2.0	064_smiling	0.0		294.74969475116905	
34.0	201.60173154946278	pulse	1.0	t		25.0	female	west_asian	2.6756864305610826	smiling	064	sub-14	1.0	2.0	064_smiling	0.0		295.44966767495634	
34.0	202.30173345113644	pulse	1.0	t		25.0	female	west_asian	2.6756864305610826	smiling	064	sub-14	1.0	2.0	064_smiling	0.0		296.14966957663	
34.0	203.0016939989514	pulse	1.0	t		25.0	female	west_asian	2.6756864305610826	smiling	064	sub-14	1.0	2.0	064_smiling	0.0		296.84963012444496	
35.0	203.25990326819283	face	0.0		146	19.0	male	white	3.2522881018702745	neutral	018	sub-14	1.0	2.0	018_neutral	0.0		297.1078393936864	1.2416529348711265
35.0	203.70168473206468	pulse	0.0	t		19.0	male	white	3.2522881018702745	neutral	018	sub-14	1.0	2.0	018_neutral	0.0		297.54962085755824	
35.0	204.40168120038516	pulse	0.0	t		19.0	male	white	3.2522881018702745	neutral	018	sub-14	1.0	2.0	018_neutral	0.0		298.2496173258787	
35.0	204.50155620306396	fix	1.0		444	19.0	male	white	3.2522881018702745	neutral	018	sub-14	1.0	2.0	018_neutral	0.0		298.3494923285575	3.7582012701368512
35.0	205.10164959637723	pulse	1.0	t		19.0	male	white	3.2522881018702745	neutral	018	sub-14	1.0	2.0	018_neutral	0.0		298.9495857218708	
35.0	205.80161165345726	pulse	1.0	t		19.0	male	white	3.2522881018702745	neutral	018	sub-14	1.0	2.0	018_neutral	0.0		299.6495477789508	
35.0	206.50161446069023	pulse	1.0	t		19.0	male	white	3.2522881018702745	neutral	018	sub-14	1.0	2.0	018_neutral	0.0		300.3495505861838	
35.0	207.20210325122844	pulse	1.0	t		19.0	male	white	3.2522881018702745	neutral	018	sub-14	1.0	2.0	018_neutral	0.0		301.050039376722	
35.0	207.90157358979604	pulse	1.0	t		19.0	male	white	3.2522881018702745	neutral	018	sub-14	1.0	2.0	018_neutral	0.0		301.7495097152896	
36.0	208.2597574732008	face	0.0		146	28.0	female	white	5.676880222841227	neutral	124	sub-14	1.0	2.0	124_neutral	0.0		302.10769359869437	1.241654444136202
36.0	208.60153775984645	pulse	0.0	t		28.0	female	white	5.676880222841227	neutral	124	sub-14	1.0	2.0	124_neutral	0.0		302.44947388534	
36.0	209.30153120963678	pulse	0.0	t		28.0	female	white	5.676880222841227	neutral	124	sub-14	1.0	2.0	124_neutral	0.0		303.14946733513034	
36.0	209.501411917337	fix	1.0		444	28.0	female	white	5.676880222841227	neutral	124	sub-14	1.0	2.0	124_neutral	0.0		303.34934804283057	3.7582610370282055
36.0	210.0015174149553	pulse	1.0	t		28.0	female	white	5.676880222841227	neutral	124	sub-14	1.0	2.0	124_neutral	0.0		303.84945354044885	
36.0	210.70149637580244	pulse	1.0	t		28.0	female	white	5.676880222841227	neutral	124	sub-14	1.0	2.0	124_neutral	0.0		304.549432501296	
36.0	211.40147141256057	pulse	1.0	t		28.0	female	white	5.676880222841227	neutral	124	sub-14	1.0	2.0	124_neutral	0.0		305.24940753805413	
36.0	212.1014645604978	pulse	1.0	t		28.0	female	white	5.676880222841227	neutral	124	sub-14	1.0	2.0	124_neutral	0.0		305.94940068599135	
36.0	212.80142782498933	pulse	1.0	t		28.0	female	white	5.676880222841227	neutral	124	sub-14	1.0	2.0	124_neutral	0.0		306.6493639504829	
37.0	213.25967295436521	face	0.0		146	32.0	male	white	2.389176283326701	smiling	092	sub-14	1.0	2.0	092_smiling	1.0	dominance	307.1076090798588	1.2416049402468161
37.0	213.50141795439686	pulse	0.0	t		32.0	male	white	2.389176283326701	smiling	092	sub-14	1.0	2.0	092_smiling	1.0	dominance	307.3493540798904	
37.0	214.20139782080287	pulse	0.0	t		32.0	male	white	2.389176283326701	smiling	092	sub-14	1.0	2.0	092_smiling	1.0	dominance	308.04933394629643	
37.0	214.50127789461203	fix	1.0		177	32.0	male	white	2.389176283326701	smiling	092	sub-14	1.0	2.0	092_smiling	1.0	dominance	308.3492140201056	1.499975097128754
37.0	214.9013924780047	pulse	1.0	t		32.0	male	white	2.389176283326701	smiling	092	sub-14	1.0	2.0	092_smiling	1.0	dominance	308.74932860349827	
37.0	215.60136751476284	pulse	1.0	t		32.0	male	white	2.389176283326701	smiling	092	sub-14	1.0	2.0	092_smiling	1.0	dominance	309.4493036402564	
37.0	216.00125299174078	rating	2.0		294	32.0	male	white	2.389176283326701	smiling	092	sub-14	1.0	2.0	092_smiling	1.0	dominance	309.84918911723435	2.499922272856111
37.0	216.29612140044128	pulse	2.0	t		32.0	male	white	2.389176283326701	smiling	092	sub-14	1.0	2.0	092_smiling	1.0	dominance	310.14405752593484	
37.0	216.99604089625018	pulse	2.0	t		32.0	male	white	2.389176283326701	smiling	092	sub-14	1.0	2.0	092_smiling	1.0	dominance	310.84397702174374	
37.0	217.30131387548772	response	2.0	w		32.0	male	white	2.389176283326701	smiling	092	sub-14	1.0	2.0	092_smiling	1.0	dominance	311.1492500009813	
37.0	217.70130801953974	pulse	2.0	t		32.0	male	white	2.389176283326701	smiling	092	sub-14	1.0	2.0	092_smiling	1.0	dominance	311.5492441450333	
37.0	218.4012815470328	pulse	2.0	t		32.0	male	white	2.389176283326701	smiling	092	sub-14	1.0	2.0	092_smiling	1.0	dominance	312.24921767252636	
37.0	218.5011752645969	fix	3.0		444	32.0	male	white	2.389176283326701	smiling	092	sub-14	1.0	2.0	092_smiling	1.0	dominance	312.34911139009046	3.7665616922604386
37.0	219.1012695634695	pulse	3.0	t		32.0	male	white	2.389176283326701	smiling	092	sub-14	1.0	2.0	092_smiling	1.0	dominance	312.94920568896305	
37.0	219.801259692877	pulse	3.0	t		32.0	male	white	2.389176283326701	smiling	092	sub-14	1.0	2.0	092_smiling	1.0	dominance	313.6491958183706	
37.0	220.50123382407583	pulse	3.0	t		32.0	male	white	2.389176283326701	smiling	092	sub-14	1.0	2.0	092_smiling	1.0	dominance	314.3491699495694	
37.0	221.2012145960407	pulse	3.0	t		32.0	male	white	2.389176283326701	smiling	092	sub-14	1.0	2.0	092_smiling	1.0	dominance	315.04915072153426	
37.0	221.9011881235342	pulse	3.0	t		32.0	male	white	2.389176283326701	smiling	092	sub-14	1.0	2.0	092_smiling	1.0	dominance	315.7491242490278	
38.0	222.26773695685733	face	0.0		145	36.0	female	white	2.7548746518105847	smiling	011	sub-14	1.0	2.0	011_smiling	0.0		316.1156730823509	1.2332873812470098
38.0	222.6011918363256	pulse	0.0	t		36.0	female	white	2.7548746518105847	smiling	011	sub-14	1.0	2.0	011_smiling	0.0		316.44912796181916	
38.0	223.30114393225722	pulse	0.0	t		36.0	female	white	2.7548746518105847	smiling	011	sub-14	1.0	2.0	011_smiling	0.0		317.1490800577508	
38.0	223.50102433810434	fix	1.0		444	36.0	female	white	2.7548746518105847	smiling	011	sub-14	1.0	2.0	011_smiling	0.0		317.3489604635979	3.758245944378814
38.0	224.00113738204755	pulse	1.0	t		36.0	female	white	2.7548746518105847	smiling	011	sub-14	1.0	2.0	011_smiling	0.0		317.8490735075411	
38.0	224.70111694660045	pulse	1.0	t		36.0	female	white	2.7548746518105847	smiling	011	sub-14	1.0	2.0	011_smiling	0.0		318.549053072094	
38.0	225.40110677415487	pulse	1.0	t		36.0	female	white	2.7548746518105847	smiling	011	sub-14	1.0	2.0	011_smiling	0.0		319.24904289964843	
38.0	226.10109750726815	pulse	1.0	t		36.0	female	white	2.7548746518105847	smiling	011	sub-14	1.0	2.0	011_smiling	0.0		319.9490336327617	
38.0	226.80105775323	pulse	1.0	t		36.0	female	white	2.7548746518105847	smiling	011	sub-14	1.0	2.0	011_smiling	0.0		320.64899387872356	
39.0	227.25927028248316	face	0.0		146	54.0	female	white	2.286908077994429	neutral	136	sub-14	1.0	2.0	136_neutral	0.0		321.1072064079767	1.2416390496341592
39.0	227.5010536178438	pulse	0.0	t		54.0	female	white	2.286908077994429	neutral	136	sub-14	1.0	2.0	136_neutral	0.0		321.34898974333737	
39.0	228.20103408795603	pulse	0.0	t		54.0	female	white	2.286908077994429	neutral	136	sub-14	1.0	2.0	136_neutral	0.0		322.0489702134496	
39.0	228.50090933211732	fix	1.0		444	54.0	female	white	2.286908077994429	neutral	136	sub-14	1.0	2.0	136_neutral	0.0		322.3488454576109	3.749914198288934
39.0	228.90106285454522	pulse	1.0	t		54.0	female	white	2.286908077994429	neutral	136	sub-14	1.0	2.0	136_neutral	0.0		322.7489989800388	
39.0	229.60099533003267	pulse	1.0	t		54.0	female	white	2.286908077994429	neutral	136	sub-14	1.0	2.0	136_neutral	0.0		323.44893145552624	
39.0	230.3009921002058	pulse	1.0	t		54.0	female	white	2.286908077994429	neutral	136	sub-14	1.0	2.0	136_neutral	0.0		324.14892822569936	
39.0	231.00095415728538	pulse	1.0	t		54.0	female	white	2.286908077994429	neutral	136	sub-14	1.0	2.0	136_neutral	0.0		324.84889028277894	
39.0	231.70095364413555	pulse	1.0	t		54.0	female	white	2.286908077994429	neutral	136	sub-14	1.0	2.0	136_neutral	0.0		325.5488897696291	
40.0	232.25082353040625	fix	0.0		720													326.0987596558998	5.999827641945558
40.0	232.400942264278	pulse	0.0	t														326.24887838977156	
40.0	233.10089586947424	pulse	0.0	t														326.9488319949678	
40.0	233.8008663784376	pulse	0.0	t														327.64880250393117	
40.0	234.5008673745524	pulse	0.0	t														328.34880350004596	
40.0	235.2008433168694	pulse	0.0	t														329.04877944236296	
40.0	235.90082408883427	pulse	0.0	t														329.74876021432783	
40.0	236.6007994274455	pulse	0.0	t														330.44873555293907	
40.0	237.3007971031775	pulse	0.0	t														331.14873322867106	
40.0	238.00077817699548	pulse	0.0	t														331.84871430248904	
