trial_nr	onset	event_type	phase	response	nr_frames	face_age	face_sex	face_eth	attractiveness	expression	face_id	sub_id	ses	run	trial_type	catch	rating_type	onset_abs	duration
-1.0	0.06148039413619699	fix	0.0		713													23.548998584607034	5.957892588913637
-1.0	0.7029766718251267	pulse	0.0	t														24.190494862295964	
-1.0	1.4029423510373817	pulse	0.0	t														24.89046054150822	
-1.0	2.1029261414832945	pulse	0.0	t														25.59044433195413	
-1.0	2.802918987546036	pulse	0.0	t														26.290437178016873	
-1.0	3.5028828556341978	pulse	0.0	t														26.990401046105035	
-1.0	4.202885662875815	pulse	0.0	t														27.690403853346652	
-1.0	4.90285828472679	pulse	0.0	t														28.390376475197627	
-1.0	5.602842075172703	pulse	0.0	t														29.09036026564354	
0.0	6.019372983049834	face	0.0		144	21.0	male	black	2.969757262236371	neutral	137	sub-13	1.0	6.0	137_neutral	0.0		29.50689117352067	1.2333131393079384
0.0	6.302908271732122	pulse	0.0	t		21.0	male	black	2.969757262236371	neutral	137	sub-13	1.0	6.0	137_neutral	0.0		29.79042646220296	
0.0	7.002825956175002	pulse	0.0	t		21.0	male	black	2.969757262236371	neutral	137	sub-13	1.0	6.0	137_neutral	0.0		30.49034414664584	
0.0	7.2526861223577725	fix	1.0		445	21.0	male	black	2.969757262236371	neutral	137	sub-13	1.0	6.0	137_neutral	0.0		30.74020431282861	3.7582479313196018
0.0	7.702800087296055	pulse	1.0	t		21.0	male	black	2.969757262236371	neutral	137	sub-13	1.0	6.0	137_neutral	0.0		31.19031827776689	
0.0	8.402786292573182	pulse	1.0	t		21.0	male	black	2.969757262236371	neutral	137	sub-13	1.0	6.0	137_neutral	0.0		31.89030448304402	
0.0	9.10276072554825	pulse	1.0	t		21.0	male	black	2.969757262236371	neutral	137	sub-13	1.0	6.0	137_neutral	0.0		32.59027891601909	
0.0	9.80275930683456	pulse	1.0	t		21.0	male	black	2.969757262236371	neutral	137	sub-13	1.0	6.0	137_neutral	0.0		33.2902774973054	
0.0	10.502731324978413	pulse	1.0	t		21.0	male	black	2.969757262236371	neutral	137	sub-13	1.0	6.0	137_neutral	0.0		33.99024951544925	
1.0	11.010934053677374	face	0.0		146	24.0	female	east_asian	4.409868682849185	smiling	030	sub-13	1.0	6.0	030_smiling	0.0		34.49845224414821	1.2416542680175553
1.0	11.202740169297613	pulse	0.0	t		24.0	female	east_asian	4.409868682849185	smiling	030	sub-13	1.0	6.0	030_smiling	0.0		34.69025835976845	
1.0	11.90269950957827	pulse	0.0	t		24.0	female	east_asian	4.409868682849185	smiling	030	sub-13	1.0	6.0	030_smiling	0.0		35.39021770004911	
1.0	12.25258832169493	fix	1.0		444	24.0	female	east_asian	4.409868682849185	smiling	030	sub-13	1.0	6.0	030_smiling	0.0		35.74010651216577	3.758221066323131
1.0	12.602694166764195	pulse	1.0	t		24.0	female	east_asian	4.409868682849185	smiling	030	sub-13	1.0	6.0	030_smiling	0.0		36.09021235723503	
1.0	13.302677051648061	pulse	1.0	t		24.0	female	east_asian	4.409868682849185	smiling	030	sub-13	1.0	6.0	030_smiling	0.0		36.7901952421189	
1.0	14.002648767937899	pulse	1.0	t		24.0	female	east_asian	4.409868682849185	smiling	030	sub-13	1.0	6.0	030_smiling	0.0		37.490166958408736	
1.0	14.702642519562687	pulse	1.0	t		24.0	female	east_asian	4.409868682849185	smiling	030	sub-13	1.0	6.0	030_smiling	0.0		38.190160710033524	
1.0	15.402626008154584	pulse	1.0	t		24.0	female	east_asian	4.409868682849185	smiling	030	sub-13	1.0	6.0	030_smiling	0.0		38.89014419862542	
2.0	16.01080938801806	face	0.0		146	28.0	male	white	3.9076800636689217	smiling	033	sub-13	1.0	6.0	033_smiling	0.0		39.4983275784889	1.241663021781278
2.0	16.102606478207235	pulse	0.0	t		28.0	male	white	3.9076800636689217	smiling	033	sub-13	1.0	6.0	033_smiling	0.0		39.59012466867807	
2.0	16.802583627867534	pulse	0.0	t		28.0	male	white	3.9076800636689217	smiling	033	sub-13	1.0	6.0	033_smiling	0.0		40.29010181833837	
2.0	17.25247240979934	fix	1.0		444	28.0	male	white	3.9076800636689217	smiling	033	sub-13	1.0	6.0	033_smiling	0.0		40.739990600270175	3.7582228774463147
2.0	17.50258371842301	pulse	1.0	t		28.0	male	white	3.9076800636689217	smiling	033	sub-13	1.0	6.0	033_smiling	0.0		40.99010190889385	
2.0	18.202559962522173	pulse	1.0	t		28.0	male	white	3.9076800636689217	smiling	033	sub-13	1.0	6.0	033_smiling	0.0		41.69007815299301	
2.0	18.902530773249964	pulse	1.0	t		28.0	male	white	3.9076800636689217	smiling	033	sub-13	1.0	6.0	033_smiling	0.0		42.3900489637208	
2.0	19.602510035887462	pulse	1.0	t		28.0	male	white	3.9076800636689217	smiling	033	sub-13	1.0	6.0	033_smiling	0.0		43.0900282263583	
2.0	20.302514352398248	pulse	1.0	t		28.0	male	white	3.9076800636689217	smiling	033	sub-13	1.0	6.0	033_smiling	0.0		43.790032542869085	
3.0	21.010695287245653	face	0.0		147	26.0	female	white	4.854755272582572	neutral	027	sub-13	1.0	6.0	027_neutral	0.0		44.49821347771649	1.241642495715496
3.0	21.004073820181475	pulse	0.0	t		26.0	female	white	4.854755272582572	neutral	027	sub-13	1.0	6.0	027_neutral	0.0		44.49159201065231	
3.0	21.70249400744524	pulse	0.0	t		26.0	female	white	4.854755272582572	neutral	027	sub-13	1.0	6.0	027_neutral	0.0		45.190012197916076	
3.0	22.25233778296115	fix	1.0		443	26.0	female	white	4.854755272582572	neutral	027	sub-13	1.0	6.0	027_neutral	0.0		45.739855973431986	3.7582367627255735
3.0	22.402453347725896	pulse	1.0	t		26.0	female	white	4.854755272582572	neutral	027	sub-13	1.0	6.0	027_neutral	0.0		45.88997153819673	
3.0	23.10243562890173	pulse	1.0	t		26.0	female	white	4.854755272582572	neutral	027	sub-13	1.0	6.0	027_neutral	0.0		46.58995381937257	
3.0	23.802428474964472	pulse	1.0	t		26.0	female	white	4.854755272582572	neutral	027	sub-13	1.0	6.0	027_neutral	0.0		47.28994666543531	
3.0	24.50240079496234	pulse	1.0	t		26.0	female	white	4.854755272582572	neutral	027	sub-13	1.0	6.0	027_neutral	0.0		47.98991898543318	
3.0	25.202386698385453	pulse	1.0	t		26.0	female	white	4.854755272582572	neutral	027	sub-13	1.0	6.0	027_neutral	0.0		48.68990488885629	
3.0	25.902358716529307	pulse	1.0	t		26.0	female	white	4.854755272582572	neutral	027	sub-13	1.0	6.0	027_neutral	0.0		49.38987690700014	
4.0	26.010574545686723	face	0.0		147	19.0	male	white	2.243931555909272	neutral	130	sub-13	1.0	6.0	130_neutral	1.0	attractiveness	49.49809273615756	1.241660606950063
4.0	26.602366957140475	pulse	0.0	t		19.0	male	white	2.243931555909272	neutral	130	sub-13	1.0	6.0	130_neutral	1.0	attractiveness	50.08988514761131	
4.0	27.252235152636786	fix	1.0		176	19.0	male	white	2.243931555909272	neutral	130	sub-13	1.0	6.0	130_neutral	1.0	attractiveness	50.73975334310762	1.5083077738545398
4.0	27.302340484553497	pulse	1.0	t		19.0	male	white	2.243931555909272	neutral	130	sub-13	1.0	6.0	130_neutral	1.0	attractiveness	50.789858675024334	
4.0	28.00235053628876	pulse	1.0	t		19.0	male	white	2.243931555909272	neutral	130	sub-13	1.0	6.0	130_neutral	1.0	attractiveness	51.489868726759596	
4.0	28.702288746796512	pulse	1.0	t		19.0	male	white	2.243931555909272	neutral	130	sub-13	1.0	6.0	130_neutral	1.0	attractiveness	52.18980693726735	
4.0	28.760542926491325	rating	2.0		294	19.0	male	white	2.243931555909272	neutral	130	sub-13	1.0	6.0	130_neutral	1.0	attractiveness	52.24806111696216	2.4915995569990628
4.0	29.40230875970974	pulse	2.0	t		19.0	male	white	2.243931555909272	neutral	130	sub-13	1.0	6.0	130_neutral	1.0	attractiveness	52.88982695018058	
4.0	30.01896457472867	response	2.0	n		19.0	male	white	2.243931555909272	neutral	130	sub-13	1.0	6.0	130_neutral	1.0	attractiveness	53.50648276519951	
4.0	30.10226176105789	pulse	2.0	t		19.0	male	white	2.243931555909272	neutral	130	sub-13	1.0	6.0	130_neutral	1.0	attractiveness	53.589779951528726	
4.0	30.802250984873353	pulse	2.0	t		19.0	male	white	2.243931555909272	neutral	130	sub-13	1.0	6.0	130_neutral	1.0	attractiveness	54.28976917534419	
4.0	31.25214248349039	fix	3.0		444	19.0	male	white	2.243931555909272	neutral	130	sub-13	1.0	6.0	130_neutral	1.0	attractiveness	54.739660673961225	3.7665585727872894
4.0	31.50224896245254	pulse	3.0	t		19.0	male	white	2.243931555909272	neutral	130	sub-13	1.0	6.0	130_neutral	1.0	attractiveness	54.98976715292338	
4.0	32.202220980596394	pulse	3.0	t		19.0	male	white	2.243931555909272	neutral	130	sub-13	1.0	6.0	130_neutral	1.0	attractiveness	55.68973917106723	
4.0	32.902206884019506	pulse	3.0	t		19.0	male	white	2.243931555909272	neutral	130	sub-13	1.0	6.0	130_neutral	1.0	attractiveness	56.38972507449034	
4.0	33.60219610783497	pulse	3.0	t		19.0	male	white	2.243931555909272	neutral	130	sub-13	1.0	6.0	130_neutral	1.0	attractiveness	57.08971429830581	
4.0	34.30218140755096	pulse	3.0	t		19.0	male	white	2.243931555909272	neutral	130	sub-13	1.0	6.0	130_neutral	1.0	attractiveness	57.7896995980218	
5.0	35.01870105627768	face	0.0		146	31.0	male	west_asian	1.9538400318344609	neutral	070	sub-13	1.0	6.0	070_neutral	0.0		58.506219246748515	1.23331374301506
5.0	35.0050107746747	pulse	0.0	t		31.0	male	west_asian	1.9538400318344609	neutral	070	sub-13	1.0	6.0	070_neutral	0.0		58.49252896514554	
5.0	35.70215230883514	pulse	0.0	t		31.0	male	west_asian	1.9538400318344609	neutral	070	sub-13	1.0	6.0	070_neutral	0.0		59.189670499305976	
5.0	36.25201479929274	fix	1.0		443	31.0	male	west_asian	1.9538400318344609	neutral	070	sub-13	1.0	6.0	070_neutral	0.0		59.739532989763575	3.7582171422227475
5.0	36.402130967764606	pulse	1.0	t		31.0	male	west_asian	1.9538400318344609	neutral	070	sub-13	1.0	6.0	070_neutral	0.0		59.88964915823544	
5.0	37.10209513770678	pulse	1.0	t		31.0	male	west_asian	1.9538400318344609	neutral	070	sub-13	1.0	6.0	070_neutral	0.0		60.58961332817762	
5.0	37.80208405966914	pulse	1.0	t		31.0	male	west_asian	1.9538400318344609	neutral	070	sub-13	1.0	6.0	070_neutral	0.0		61.28960225013998	
5.0	38.502069963092254	pulse	1.0	t		31.0	male	west_asian	1.9538400318344609	neutral	070	sub-13	1.0	6.0	070_neutral	0.0		61.98958815356309	
5.0	39.20206431842416	pulse	1.0	t		31.0	male	west_asian	1.9538400318344609	neutral	070	sub-13	1.0	6.0	070_neutral	0.0		62.689582508895	
5.0	39.902042675499615	pulse	1.0	t		31.0	male	west_asian	1.9538400318344609	neutral	070	sub-13	1.0	6.0	070_neutral	0.0		63.38956086597045	
6.0	40.010231941515485	face	0.0		147	19.0	male	white	3.2522881018702745	smiling	018	sub-13	1.0	6.0	018_smiling	0.0		63.49775013198632	1.2416808311600107
6.0	40.60203612527039	pulse	0.0	t		19.0	male	white	3.2522881018702745	smiling	018	sub-13	1.0	6.0	018_smiling	0.0		64.08955431574122	
6.0	41.251912772675496	fix	1.0		443	19.0	male	white	3.2522881018702745	smiling	018	sub-13	1.0	6.0	018_smiling	0.0		64.73943096314633	3.766558270933274
6.0	41.30201931200827	pulse	1.0	t		19.0	male	white	3.2522881018702745	smiling	018	sub-13	1.0	6.0	018_smiling	0.0		64.7895375024791	
6.0	42.00199163200614	pulse	1.0	t		19.0	male	white	3.2522881018702745	smiling	018	sub-13	1.0	6.0	018_smiling	0.0		65.48950982247698	
6.0	42.70198508177691	pulse	1.0	t		19.0	male	white	3.2522881018702745	smiling	018	sub-13	1.0	6.0	018_smiling	0.0		66.18950327224775	
6.0	43.401964646267515	pulse	1.0	t		19.0	male	white	3.2522881018702745	smiling	018	sub-13	1.0	6.0	018_smiling	0.0		66.88948283673835	
6.0	44.1019393810966	pulse	1.0	t		19.0	male	white	3.2522881018702745	smiling	018	sub-13	1.0	6.0	018_smiling	0.0		67.58945757156744	
6.0	44.80192830305896	pulse	1.0	t		19.0	male	white	3.2522881018702745	smiling	018	sub-13	1.0	6.0	018_smiling	0.0		68.2894464935298	
7.0	45.01847104360877	face	0.0		145	37.0	male	white	3.898925586947871	smiling	101	sub-13	1.0	6.0	101_smiling	0.0		68.5059892340796	1.2333164597002906
7.0	45.50192296024488	pulse	0.0	t		37.0	male	white	3.898925586947871	smiling	101	sub-13	1.0	6.0	101_smiling	0.0		68.98944115071572	
7.0	46.20190312844352	pulse	0.0	t		37.0	male	white	3.898925586947871	smiling	101	sub-13	1.0	6.0	101_smiling	0.0		69.68942131891436	
7.0	46.25178750330906	fix	1.0		445	37.0	male	white	3.898925586947871	smiling	101	sub-13	1.0	6.0	101_smiling	0.0		69.7393056937799	3.7582343478943585
7.0	46.901879674395786	pulse	1.0	t		37.0	male	white	3.898925586947871	smiling	101	sub-13	1.0	6.0	101_smiling	0.0		70.38939786486662	
7.0	47.601871313043375	pulse	1.0	t		37.0	male	white	3.898925586947871	smiling	101	sub-13	1.0	6.0	101_smiling	0.0		71.08938950351421	
7.0	48.30186657393733	pulse	1.0	t		37.0	male	white	3.898925586947871	smiling	101	sub-13	1.0	6.0	101_smiling	0.0		71.78938476440817	
7.0	49.00181534933108	pulse	1.0	t		37.0	male	white	3.898925586947871	smiling	101	sub-13	1.0	6.0	101_smiling	0.0		72.48933353980192	
7.0	49.70181815657179	pulse	1.0	t		37.0	male	white	3.898925586947871	smiling	101	sub-13	1.0	6.0	101_smiling	0.0		73.18933634704263	
8.0	50.01002185120342	face	0.0		146	28.0	male	east_asian	1.5563072025467568	smiling	005	sub-13	1.0	6.0	005_smiling	1.0	dominance	73.49754004167426	1.2416373641999598
8.0	50.40180285257975	pulse	0.0	t		28.0	male	east_asian	1.5563072025467568	smiling	005	sub-13	1.0	6.0	005_smiling	1.0	dominance	73.88932104305059	
8.0	51.101787850440815	pulse	0.0	t		28.0	male	east_asian	1.5563072025467568	smiling	005	sub-13	1.0	6.0	005_smiling	1.0	dominance	74.58930604091165	
8.0	51.25165921540338	fix	1.0		177	28.0	male	east_asian	1.5563072025467568	smiling	005	sub-13	1.0	6.0	005_smiling	1.0	dominance	74.73917740587422	1.4999793230081195
8.0	51.80177013161756	pulse	1.0	t		28.0	male	east_asian	1.5563072025467568	smiling	005	sub-13	1.0	6.0	005_smiling	1.0	dominance	75.2892883220884	
8.0	52.501757846163855	pulse	1.0	t		28.0	male	east_asian	1.5563072025467568	smiling	005	sub-13	1.0	6.0	005_smiling	1.0	dominance	75.98927603663469	
8.0	52.7516385384115	rating	2.0		295	28.0	male	east_asian	1.5563072025467568	smiling	005	sub-13	1.0	6.0	005_smiling	1.0	dominance	76.23915672888234	2.4999252911602525
8.0	53.20174556071015	pulse	2.0	t		28.0	male	east_asian	1.5563072025467568	smiling	005	sub-13	1.0	6.0	005_smiling	1.0	dominance	76.68926375118099	
8.0	53.55487688737867	response	2.0	d		28.0	male	east_asian	1.5563072025467568	smiling	005	sub-13	1.0	6.0	005_smiling	1.0	dominance	77.0423950778495	
8.0	53.90170550469793	pulse	2.0	t		28.0	male	east_asian	1.5563072025467568	smiling	005	sub-13	1.0	6.0	005_smiling	1.0	dominance	77.38922369516877	
8.0	54.60166786351692	pulse	2.0	t		28.0	male	east_asian	1.5563072025467568	smiling	005	sub-13	1.0	6.0	005_smiling	1.0	dominance	78.08918605398776	
8.0	55.25156382957175	fix	3.0		443	28.0	male	east_asian	1.5563072025467568	smiling	005	sub-13	1.0	6.0	005_smiling	1.0	dominance	78.73908202004259	3.766580909975346
8.0	55.30168395232977	pulse	3.0	t		28.0	male	east_asian	1.5563072025467568	smiling	005	sub-13	1.0	6.0	005_smiling	1.0	dominance	78.7892021428006	
8.0	56.00165265008127	pulse	3.0	t		28.0	male	east_asian	1.5563072025467568	smiling	005	sub-13	1.0	6.0	005_smiling	1.0	dominance	79.4891708405521	
8.0	56.70164398687393	pulse	3.0	t		28.0	male	east_asian	1.5563072025467568	smiling	005	sub-13	1.0	6.0	005_smiling	1.0	dominance	80.18916217734477	
8.0	57.40165283119313	pulse	3.0	t		28.0	male	east_asian	1.5563072025467568	smiling	005	sub-13	1.0	6.0	005_smiling	1.0	dominance	80.88917102166397	
8.0	58.101615190012126	pulse	3.0	t		28.0	male	east_asian	1.5563072025467568	smiling	005	sub-13	1.0	6.0	005_smiling	1.0	dominance	81.58913338048296	
8.0	58.801591735964394	pulse	3.0	t		28.0	male	east_asian	1.5563072025467568	smiling	005	sub-13	1.0	6.0	005_smiling	1.0	dominance	82.28910992643523	
9.0	59.0181447395471	face	0.0		145	31.0	female	white	2.1822522881018704	smiling	102	sub-13	1.0	6.0	102_smiling	0.0		82.50566293001793	1.2333031781290629
9.0	59.50157371528712	pulse	0.0	t		31.0	female	white	2.1822522881018704	smiling	102	sub-13	1.0	6.0	102_smiling	0.0		82.98909190575796	
9.0	60.201562335395465	pulse	0.0	t		31.0	female	white	2.1822522881018704	smiling	102	sub-13	1.0	6.0	102_smiling	0.0		83.6890805258663	
9.0	60.25144791767616	fix	1.0		445	31.0	female	white	2.1822522881018704	smiling	102	sub-13	1.0	6.0	102_smiling	0.0		83.738966108147	3.7583499579368436
9.0	60.901560916681774	pulse	1.0	t		31.0	female	white	2.1822522881018704	smiling	102	sub-13	1.0	6.0	102_smiling	0.0		84.38907910715261	
9.0	61.60154108488132	pulse	1.0	t		31.0	female	white	2.1822522881018704	smiling	102	sub-13	1.0	6.0	102_smiling	0.0		85.08905927535216	
9.0	62.30150706594668	pulse	1.0	t		31.0	female	white	2.1822522881018704	smiling	102	sub-13	1.0	6.0	102_smiling	0.0		85.78902525641752	
9.0	63.00150142127859	pulse	1.0	t		31.0	female	white	2.1822522881018704	smiling	102	sub-13	1.0	6.0	102_smiling	0.0		86.48901961174943	
9.0	63.701484306163366	pulse	1.0	t		31.0	female	white	2.1822522881018704	smiling	102	sub-13	1.0	6.0	102_smiling	0.0		87.1890024966342	
10.0	64.009797875613	face	0.0		146	47.0	male	east_asian	2.171110226820533	neutral	024	sub-13	1.0	6.0	024_neutral	1.0	trustworthiness	87.49731606608384	1.2415332246055186
10.0	64.40146356879995	pulse	0.0	t		47.0	male	east_asian	2.171110226820533	neutral	024	sub-13	1.0	6.0	024_neutral	1.0	trustworthiness	87.88898175927079	
10.0	65.1014479629539	pulse	0.0	t		47.0	male	east_asian	2.171110226820533	neutral	024	sub-13	1.0	6.0	024_neutral	1.0	trustworthiness	88.58896615342474	
10.0	65.25133110021852	fix	1.0		177	47.0	male	east_asian	2.171110226820533	neutral	024	sub-13	1.0	6.0	024_neutral	1.0	trustworthiness	88.73884929068936	1.4999787193000884
10.0	65.80145409058787	pulse	1.0	t		47.0	male	east_asian	2.171110226820533	neutral	024	sub-13	1.0	6.0	024_neutral	1.0	trustworthiness	89.2889722810587	
10.0	66.50143033468612	pulse	1.0	t		47.0	male	east_asian	2.171110226820533	neutral	024	sub-13	1.0	6.0	024_neutral	1.0	trustworthiness	89.98894852515696	
10.0	66.75130981951861	rating	2.0		295	47.0	male	east_asian	2.171110226820533	neutral	024	sub-13	1.0	6.0	024_neutral	1.0	trustworthiness	90.23882800998945	2.499938874585496
10.0	67.20142469001894	pulse	2.0	t		47.0	male	east_asian	2.171110226820533	neutral	024	sub-13	1.0	6.0	024_neutral	1.0	trustworthiness	90.68894288048978	
10.0	67.90139851928598	pulse	2.0	t		47.0	male	east_asian	2.171110226820533	neutral	024	sub-13	1.0	6.0	024_neutral	1.0	trustworthiness	91.38891670975681	
10.0	68.19304794254822	response	2.0	b		47.0	male	east_asian	2.171110226820533	neutral	024	sub-13	1.0	6.0	024_neutral	1.0	trustworthiness	91.68056613301906	
10.0	68.6013931764719	pulse	2.0	t		47.0	male	east_asian	2.171110226820533	neutral	024	sub-13	1.0	6.0	024_neutral	1.0	trustworthiness	92.08891136694274	
10.0	69.2512486941041	fix	3.0		443	47.0	male	east_asian	2.171110226820533	neutral	024	sub-13	1.0	6.0	024_neutral	1.0	trustworthiness	92.73876688457494	3.766564609864872
10.0	69.301368213155	pulse	3.0	t		47.0	male	east_asian	2.171110226820533	neutral	024	sub-13	1.0	6.0	024_neutral	1.0	trustworthiness	92.78888640362584	
10.0	70.00134083500598	pulse	3.0	t		47.0	male	east_asian	2.171110226820533	neutral	024	sub-13	1.0	6.0	024_neutral	1.0	trustworthiness	93.48885902547681	
10.0	70.7013249273059	pulse	3.0	t		47.0	male	east_asian	2.171110226820533	neutral	024	sub-13	1.0	6.0	024_neutral	1.0	trustworthiness	94.18884311777674	
10.0	71.40129694544976	pulse	3.0	t		47.0	male	east_asian	2.171110226820533	neutral	024	sub-13	1.0	6.0	024_neutral	1.0	trustworthiness	94.8888151359206	
10.0	72.10128194331082	pulse	3.0	t		47.0	male	east_asian	2.171110226820533	neutral	024	sub-13	1.0	6.0	024_neutral	1.0	trustworthiness	95.58880013378166	
10.0	72.80129410802328	pulse	3.0	t		47.0	male	east_asian	2.171110226820533	neutral	024	sub-13	1.0	6.0	024_neutral	1.0	trustworthiness	96.28881229849412	
11.0	73.01781330396898	face	0.0		145	23.0	male	white	2.6275368085953046	neutral	141	sub-13	1.0	6.0	141_neutral	0.0		96.50533149443982	1.2333170634083217
11.0	73.50126250391986	pulse	0.0	t		23.0	male	white	2.6275368085953046	neutral	141	sub-13	1.0	6.0	141_neutral	0.0		96.9887806943907	
11.0	74.20123693689493	pulse	0.0	t		23.0	male	white	2.6275368085953046	neutral	141	sub-13	1.0	6.0	141_neutral	0.0		97.68875512736577	
11.0	74.2511303673773	fix	1.0		445	23.0	male	white	2.6275368085953046	neutral	141	sub-13	1.0	6.0	141_neutral	0.0		97.73864855784814	3.7582373664336046
11.0	74.90122736812646	pulse	1.0	t		23.0	male	white	2.6275368085953046	neutral	141	sub-13	1.0	6.0	141_neutral	0.0		98.3887455585973	
11.0	75.60120270666357	pulse	1.0	t		23.0	male	white	2.6275368085953046	neutral	141	sub-13	1.0	6.0	141_neutral	0.0		99.08872089713441	
11.0	76.30117472480742	pulse	1.0	t		23.0	male	white	2.6275368085953046	neutral	141	sub-13	1.0	6.0	141_neutral	0.0		99.78869291527826	
11.0	77.00116485418494	pulse	1.0	t		23.0	male	white	2.6275368085953046	neutral	141	sub-13	1.0	6.0	141_neutral	0.0		100.48868304465577	
11.0	77.70117460406527	pulse	1.0	t		23.0	male	white	2.6275368085953046	neutral	141	sub-13	1.0	6.0	141_neutral	0.0		101.18869279453611	
12.0	78.0093677338109	face	0.0		146	24.0	female	east_asian	2.9076800636689217	neutral	034	sub-13	1.0	6.0	034_neutral	0.0		101.49688592428174	1.2416361567838976
12.0	78.40114782962519	pulse	0.0	t		24.0	female	east_asian	2.9076800636689217	neutral	034	sub-13	1.0	6.0	034_neutral	0.0		101.88866602009603	
12.0	79.10111350883744	pulse	0.0	t		24.0	female	east_asian	2.9076800636689217	neutral	034	sub-13	1.0	6.0	034_neutral	0.0		102.58863169930828	
12.0	79.2510038905948	fix	1.0		444	24.0	female	east_asian	2.9076800636689217	neutral	034	sub-13	1.0	6.0	034_neutral	0.0		102.73852208106564	3.7665646098639627
12.0	79.8011214475946	pulse	1.0	t		24.0	female	east_asian	2.9076800636689217	neutral	034	sub-13	1.0	6.0	034_neutral	0.0		103.28863963806543	
12.0	80.50109920096202	pulse	1.0	t		24.0	female	east_asian	2.9076800636689217	neutral	034	sub-13	1.0	6.0	034_neutral	0.0		103.98861739143285	
12.0	81.20107423764512	pulse	1.0	t		24.0	female	east_asian	2.9076800636689217	neutral	034	sub-13	1.0	6.0	034_neutral	0.0		104.68859242811595	
12.0	81.90106104663028	pulse	1.0	t		24.0	female	east_asian	2.9076800636689217	neutral	034	sub-13	1.0	6.0	034_neutral	0.0		105.38857923710111	
12.0	82.60103759258254	pulse	1.0	t		24.0	female	east_asian	2.9076800636689217	neutral	034	sub-13	1.0	6.0	034_neutral	0.0		106.08855578305338	
13.0	83.01756850045876	face	0.0		145	19.0	male	white	3.2522881018702745	neutral	018	sub-13	1.0	6.0	018_neutral	0.0		106.5050866909296	1.2333191763864306
13.0	83.30102289229762	pulse	0.0	t		19.0	male	white	3.2522881018702745	neutral	018	sub-13	1.0	6.0	018_neutral	0.0		106.78854108276846	
13.0	84.0010081920127	pulse	0.0	t		19.0	male	white	3.2522881018702745	neutral	018	sub-13	1.0	6.0	018_neutral	0.0		107.48852638248354	
13.0	84.2508876768452	fix	1.0		444	19.0	male	white	3.2522881018702745	neutral	018	sub-13	1.0	6.0	018_neutral	0.0		107.73840586731603	3.7665658172791154
13.0	84.70098896391937	pulse	1.0	t		19.0	male	white	3.2522881018702745	neutral	018	sub-13	1.0	6.0	018_neutral	0.0		108.18850715439021	
13.0	85.40095947279406	pulse	1.0	t		19.0	male	white	3.2522881018702745	neutral	018	sub-13	1.0	6.0	018_neutral	0.0		108.8884776632649	
13.0	86.1009628837428	pulse	1.0	t		19.0	male	white	3.2522881018702745	neutral	018	sub-13	1.0	6.0	018_neutral	0.0		109.58848107421363	
13.0	86.8009572390747	pulse	1.0	t		19.0	male	white	3.2522881018702745	neutral	018	sub-13	1.0	6.0	018_neutral	0.0		110.28847542954554	
13.0	87.50093529429705	pulse	1.0	t		19.0	male	white	3.2522881018702745	neutral	018	sub-13	1.0	6.0	018_neutral	0.0		110.98845348476789	
14.0	88.01745349412431	face	0.0		145	20.0	female	white	3.9502586549940313	smiling	091	sub-13	1.0	6.0	091_smiling	0.0		111.50497168459515	1.233314044869985
14.0	88.20089433272278	pulse	0.0	t		20.0	female	white	3.9502586549940313	smiling	091	sub-13	1.0	6.0	091_smiling	0.0		111.68841252319362	
14.0	88.90088355653916	pulse	0.0	t		20.0	female	white	3.9502586549940313	smiling	091	sub-13	1.0	6.0	091_smiling	0.0		112.38840174701	
14.0	89.2507675389943	fix	1.0		444	20.0	female	white	3.9502586549940313	smiling	091	sub-13	1.0	6.0	091_smiling	0.0		112.73828572946513	3.7665751747508693
14.0	89.60088153411834	pulse	1.0	t		20.0	female	white	3.9502586549940313	smiling	091	sub-13	1.0	6.0	091_smiling	0.0		113.08839972458918	
14.0	90.30086441900221	pulse	1.0	t		20.0	female	white	3.9502586549940313	smiling	091	sub-13	1.0	6.0	091_smiling	0.0		113.78838260947305	
14.0	91.00083975753842	pulse	1.0	t		20.0	female	white	3.9502586549940313	smiling	091	sub-13	1.0	6.0	091_smiling	0.0		114.48835794800925	
14.0	91.7008250572544	pulse	1.0	t		20.0	female	white	3.9502586549940313	smiling	091	sub-13	1.0	6.0	091_smiling	0.0		115.18834324772524	
14.0	92.4008191107323	pulse	1.0	t		20.0	female	white	3.9502586549940313	smiling	091	sub-13	1.0	6.0	091_smiling	0.0		115.88833730120314	
15.0	93.01734271374517	face	0.0		145	31.0	female	east_asian	3.395941106247513	smiling	087	sub-13	1.0	6.0	087_smiling	0.0		116.504860904216	1.2333080077914929
15.0	93.10079173258418	pulse	0.0	t		31.0	female	east_asian	3.395941106247513	smiling	087	sub-13	1.0	6.0	087_smiling	0.0		116.58830992305502	
15.0	93.8007755230301	pulse	0.0	t		31.0	female	east_asian	3.395941106247513	smiling	087	sub-13	1.0	6.0	087_smiling	0.0		117.28829371350093	
15.0	94.25065072153666	fix	1.0		444	31.0	female	east_asian	3.395941106247513	smiling	087	sub-13	1.0	6.0	087_smiling	0.0		117.7381689120075	3.76655857278638
15.0	94.50075840791396	pulse	1.0	t		31.0	female	east_asian	3.395941106247513	smiling	087	sub-13	1.0	6.0	087_smiling	0.0		117.9882765983848	
15.0	95.20074853729147	pulse	1.0	t		31.0	female	east_asian	3.395941106247513	smiling	087	sub-13	1.0	6.0	087_smiling	0.0		118.68826672776231	
15.0	95.90068795521438	pulse	1.0	t		31.0	female	east_asian	3.395941106247513	smiling	087	sub-13	1.0	6.0	087_smiling	0.0		119.38820614568522	
15.0	96.60071943857565	pulse	1.0	t		31.0	female	east_asian	3.395941106247513	smiling	087	sub-13	1.0	6.0	087_smiling	0.0		120.08823762904649	
15.0	97.30070534199876	pulse	1.0	t		31.0	female	east_asian	3.395941106247513	smiling	087	sub-13	1.0	6.0	087_smiling	0.0		120.7882235324696	
16.0	98.01720929432304	face	0.0		146	28.0	female	white	5.676880222841227	neutral	124	sub-13	1.0	6.0	124_neutral	0.0		121.50472748479388	1.2333339672259171
16.0	98.00347946985949	pulse	0.0	t		28.0	female	white	5.676880222841227	neutral	124	sub-13	1.0	6.0	124_neutral	0.0		121.49099766033032	
16.0	98.70068077109136	pulse	0.0	t		28.0	female	white	5.676880222841227	neutral	124	sub-13	1.0	6.0	124_neutral	0.0		122.1881989615622	
16.0	99.25054326154896	fix	1.0		443	28.0	female	white	5.676880222841227	neutral	124	sub-13	1.0	6.0	124_neutral	0.0		122.73806145201979	3.7665603839104733
16.0	99.40064584659558	pulse	1.0	t		28.0	female	white	5.676880222841227	neutral	124	sub-13	1.0	6.0	124_neutral	0.0		122.88816403706642	
16.0	100.10062480737906	pulse	1.0	t		28.0	female	white	5.676880222841227	neutral	124	sub-13	1.0	6.0	124_neutral	0.0		123.5881429978499	
16.0	100.80061916271188	pulse	1.0	t		28.0	female	white	5.676880222841227	neutral	124	sub-13	1.0	6.0	124_neutral	0.0		124.28813735318272	
16.0	101.50059872720249	pulse	1.0	t		28.0	female	white	5.676880222841227	neutral	124	sub-13	1.0	6.0	124_neutral	0.0		124.98811691767332	
16.0	102.20058493247961	pulse	1.0	t		28.0	female	white	5.676880222841227	neutral	124	sub-13	1.0	6.0	124_neutral	0.0		125.68810312295045	
16.0	102.90057476000311	pulse	1.0	t		28.0	female	white	5.676880222841227	neutral	124	sub-13	1.0	6.0	124_neutral	0.0		126.38809295047395	
17.0	103.01710364545943	face	0.0		146	30.0	female	black	2.7345801830481498	neutral	062	sub-13	1.0	6.0	062_neutral	1.0	dominance	126.50462183593027	1.2333231004859044
17.0	103.60055402264061	pulse	0.0	t		30.0	female	black	2.7345801830481498	neutral	062	sub-13	1.0	6.0	062_neutral	1.0	dominance	127.08807221311145	
17.0	104.25042674594533	fix	1.0		176	30.0	female	black	2.7345801830481498	neutral	062	sub-13	1.0	6.0	062_neutral	1.0	dominance	127.73794493641617	1.499947326495203
17.0	104.3005375112325	pulse	1.0	t		30.0	female	black	2.7345801830481498	neutral	062	sub-13	1.0	6.0	062_neutral	1.0	dominance	127.78805570170334	
17.0	105.00053729993488	pulse	1.0	t		30.0	female	black	2.7345801830481498	neutral	062	sub-13	1.0	6.0	062_neutral	1.0	dominance	128.4880554904057	
17.0	105.70049120684507	pulse	1.0	t		30.0	female	black	2.7345801830481498	neutral	062	sub-13	1.0	6.0	062_neutral	1.0	dominance	129.1880093973159	
17.0	105.75037407244054	rating	2.0		295	30.0	female	black	2.7345801830481498	neutral	062	sub-13	1.0	6.0	062_neutral	1.0	dominance	129.23789226291137	2.4999560802580163
17.0	106.40048556217698	pulse	2.0	t		30.0	female	black	2.7345801830481498	neutral	062	sub-13	1.0	6.0	062_neutral	1.0	dominance	129.88800375264782	
17.0	106.91203886912263	response	2.0	d		30.0	female	black	2.7345801830481498	neutral	062	sub-13	1.0	6.0	062_neutral	1.0	dominance	130.39955705959346	
17.0	107.10048565273337	pulse	2.0	t		30.0	female	black	2.7345801830481498	neutral	062	sub-13	1.0	6.0	062_neutral	1.0	dominance	130.5880038432042	
17.0	107.80045616160805	pulse	2.0	t		30.0	female	black	2.7345801830481498	neutral	062	sub-13	1.0	6.0	062_neutral	1.0	dominance	131.2879743520789	
17.0	108.25033015269855	fix	3.0		444	30.0	female	black	2.7345801830481498	neutral	062	sub-13	1.0	6.0	062_neutral	1.0	dominance	131.7378483431694	3.7665637043028255
17.0	108.50044055576109	pulse	3.0	t		30.0	female	black	2.7345801830481498	neutral	062	sub-13	1.0	6.0	062_neutral	1.0	dominance	131.98795874623193	
17.0	109.20042585547617	pulse	3.0	t		30.0	female	black	2.7345801830481498	neutral	062	sub-13	1.0	6.0	062_neutral	1.0	dominance	132.687944045947	
17.0	109.9003909309804	pulse	3.0	t		30.0	female	black	2.7345801830481498	neutral	062	sub-13	1.0	6.0	062_neutral	1.0	dominance	133.38790912145123	
17.0	110.60038256962798	pulse	3.0	t		30.0	female	black	2.7345801830481498	neutral	062	sub-13	1.0	6.0	062_neutral	1.0	dominance	134.08790076009882	
17.0	111.3003603229954	pulse	3.0	t		30.0	female	black	2.7345801830481498	neutral	062	sub-13	1.0	6.0	062_neutral	1.0	dominance	134.78787851346624	
18.0	112.01689385700138	face	0.0		146	22.0	female	white	4.614007162753682	smiling	009	sub-13	1.0	6.0	009_smiling	0.0		135.50441204747221	1.2333113281847545
18.0	112.0038908967199	pulse	0.0	t		22.0	female	white	4.614007162753682	smiling	009	sub-13	1.0	6.0	009_smiling	0.0		135.49140908719073	
18.0	112.70034541141285	pulse	0.0	t		22.0	female	white	4.614007162753682	smiling	009	sub-13	1.0	6.0	009_smiling	0.0		136.1878636018837	
18.0	113.25020518518613	fix	1.0		443	22.0	female	white	4.614007162753682	smiling	009	sub-13	1.0	6.0	009_smiling	0.0		136.73772337565697	3.7665670246951777
18.0	113.40031712770269	pulse	1.0	t		22.0	female	white	4.614007162753682	smiling	009	sub-13	1.0	6.0	009_smiling	0.0		136.88783531817353	
18.0	114.10030725708111	pulse	1.0	t		22.0	female	white	4.614007162753682	smiling	009	sub-13	1.0	6.0	009_smiling	0.0		137.58782544755195	
18.0	114.80029346235733	pulse	1.0	t		22.0	female	white	4.614007162753682	smiling	009	sub-13	1.0	6.0	009_smiling	0.0		138.28781165282817	
18.0	115.50028027134249	pulse	1.0	t		22.0	female	white	4.614007162753682	smiling	009	sub-13	1.0	6.0	009_smiling	0.0		138.98779846181333	
18.0	116.20025651544074	pulse	1.0	t		22.0	female	white	4.614007162753682	smiling	009	sub-13	1.0	6.0	009_smiling	0.0		139.68777470591158	
18.0	116.90023940032461	pulse	1.0	t		22.0	female	white	4.614007162753682	smiling	009	sub-13	1.0	6.0	009_smiling	0.0		140.38775759079545	
19.0	117.01677220988131	face	0.0		146	31.0	female	east_asian	3.395941106247513	neutral	087	sub-13	1.0	6.0	087_neutral	0.0		140.50429040035215	1.2333276282943189
19.0	117.60022862414098	pulse	0.0	t		31.0	female	east_asian	3.395941106247513	neutral	087	sub-13	1.0	6.0	087_neutral	0.0		141.08774681461182	
19.0	118.25009983817563	fix	1.0		443	31.0	female	east_asian	3.395941106247513	neutral	087	sub-13	1.0	6.0	087_neutral	0.0		141.73761802864647	3.7665627987416883
19.0	118.3002317332357	pulse	1.0	t		31.0	female	east_asian	3.395941106247513	neutral	087	sub-13	1.0	6.0	087_neutral	0.0		141.78774992370654	
19.0	119.0001729622827	pulse	1.0	t		31.0	female	east_asian	3.395941106247513	neutral	087	sub-13	1.0	6.0	087_neutral	0.0		142.48769115275354	
19.0	119.7001733546922	pulse	1.0	t		31.0	female	east_asian	3.395941106247513	neutral	087	sub-13	1.0	6.0	087_neutral	0.0		143.18769154516303	
19.0	120.40015563586894	pulse	1.0	t		31.0	female	east_asian	3.395941106247513	neutral	087	sub-13	1.0	6.0	087_neutral	0.0		143.88767382633978	
19.0	121.10012674845075	pulse	1.0	t		31.0	female	east_asian	3.395941106247513	neutral	087	sub-13	1.0	6.0	087_neutral	0.0		144.58764493892158	
19.0	121.80012532973797	pulse	1.0	t		31.0	female	east_asian	3.395941106247513	neutral	087	sub-13	1.0	6.0	087_neutral	0.0		145.2876435202088	
20.0	122.01666263691732	face	0.0		145	30.0	female	black	2.7345801830481498	smiling	062	sub-13	1.0	6.0	062_smiling	0.0		145.50418082738815	1.2332938206582185
20.0	122.50007410513172	pulse	0.0	t		30.0	female	black	2.7345801830481498	smiling	062	sub-13	1.0	6.0	062_smiling	0.0		145.98759229560255	
20.0	123.20011675708702	pulse	0.0	t		30.0	female	black	2.7345801830481498	smiling	062	sub-13	1.0	6.0	062_smiling	0.0		146.68763494755785	
20.0	123.24995645757554	fix	1.0		1186	30.0	female	black	2.7345801830481498	smiling	062	sub-13	1.0	6.0	062_smiling	0.0		146.73747464804637	10.016442887280391
20.0	123.90008032332207	pulse	1.0	t		30.0	female	black	2.7345801830481498	smiling	062	sub-13	1.0	6.0	062_smiling	0.0		147.3875985137929	
20.0	124.60004811551062	pulse	1.0	t		30.0	female	black	2.7345801830481498	smiling	062	sub-13	1.0	6.0	062_smiling	0.0		148.08756630598145	
20.0	125.3000439801126	pulse	1.0	t		30.0	female	black	2.7345801830481498	smiling	062	sub-13	1.0	6.0	062_smiling	0.0		148.78756217058344	
20.0	126.00002445016526	pulse	1.0	t		30.0	female	black	2.7345801830481498	smiling	062	sub-13	1.0	6.0	062_smiling	0.0		149.4875426406361	
20.0	126.7000130702736	pulse	1.0	t		30.0	female	black	2.7345801830481498	smiling	062	sub-13	1.0	6.0	062_smiling	0.0		150.18753126074444	
20.0	127.39998508841745	pulse	1.0	t		30.0	female	black	2.7345801830481498	smiling	062	sub-13	1.0	6.0	062_smiling	0.0		150.8875032788883	
20.0	128.09997763262618	pulse	1.0	t		30.0	female	black	2.7345801830481498	smiling	062	sub-13	1.0	6.0	062_smiling	0.0		151.58749582309702	
20.0	128.7999427081304	pulse	1.0	t		30.0	female	black	2.7345801830481498	smiling	062	sub-13	1.0	6.0	062_smiling	0.0		152.28746089860124	
20.0	129.49994460980997	pulse	1.0	t		30.0	female	black	2.7345801830481498	smiling	062	sub-13	1.0	6.0	062_smiling	0.0		152.9874628002808	
20.0	130.19992175947027	pulse	1.0	t		30.0	female	black	2.7345801830481498	smiling	062	sub-13	1.0	6.0	062_smiling	0.0		153.6874399499411	
20.0	130.89990222952292	pulse	1.0	t		30.0	female	black	2.7345801830481498	smiling	062	sub-13	1.0	6.0	062_smiling	0.0		154.38742041999376	
20.0	131.5998959811477	pulse	1.0	t		30.0	female	black	2.7345801830481498	smiling	062	sub-13	1.0	6.0	062_smiling	0.0		155.08741417161855	
20.0	132.2999298793402	pulse	1.0	t		30.0	female	black	2.7345801830481498	smiling	062	sub-13	1.0	6.0	062_smiling	0.0		155.78744806981103	
20.0	132.9998481674902	pulse	1.0	t		30.0	female	black	2.7345801830481498	smiling	062	sub-13	1.0	6.0	062_smiling	0.0		156.48736635796104	
21.0	133.26639934485593	face	0.0		145	27.0	male	black	3.5523278949462798	smiling	042	sub-13	1.0	6.0	042_smiling	0.0		156.75391753532676	1.2333064985223245
21.0	133.6998382968677	pulse	0.0	t		27.0	male	black	3.5523278949462798	smiling	042	sub-13	1.0	6.0	042_smiling	0.0		157.18735648733855	
21.0	134.39982299287567	pulse	0.0	t		27.0	male	black	3.5523278949462798	smiling	042	sub-13	1.0	6.0	042_smiling	0.0		157.8873411833465	
21.0	134.49970584337825	fix	1.0		445	27.0	male	black	3.5523278949462798	smiling	042	sub-13	1.0	6.0	042_smiling	0.0		157.9872240338491	3.7665766840200376
21.0	135.0998137259603	pulse	1.0	t		27.0	male	black	3.5523278949462798	smiling	042	sub-13	1.0	6.0	042_smiling	0.0		158.58733191643114	
21.0	135.79977336809498	pulse	1.0	t		27.0	male	black	3.5523278949462798	smiling	042	sub-13	1.0	6.0	042_smiling	0.0		159.2872915585658	
21.0	136.4997831179753	pulse	1.0	t		27.0	male	black	3.5523278949462798	smiling	042	sub-13	1.0	6.0	042_smiling	0.0		159.98730130844615	
21.0	137.19975423055803	pulse	1.0	t		27.0	male	black	3.5523278949462798	smiling	042	sub-13	1.0	6.0	042_smiling	0.0		160.68727242102887	
21.0	137.89975160442918	pulse	1.0	t		27.0	male	black	3.5523278949462798	smiling	042	sub-13	1.0	6.0	042_smiling	0.0		161.38726979490002	
22.0	138.2662825273983	face	0.0		145	26.0	male	white	2.7966573816155993	smiling	117	sub-13	1.0	6.0	117_smiling	0.0		161.75380071786913	1.2333170634083217
22.0	138.59972543369622	pulse	0.0	t		26.0	male	white	2.7966573816155993	smiling	117	sub-13	1.0	6.0	117_smiling	0.0		162.08724362416706	
22.0	139.2997004703784	pulse	0.0	t		26.0	male	white	2.7966573816155993	smiling	117	sub-13	1.0	6.0	117_smiling	0.0		162.78721866084925	
22.0	139.4995995908066	fix	1.0		444	26.0	male	white	2.7966573816155993	smiling	117	sub-13	1.0	6.0	117_smiling	0.0		162.98711778127745	3.7665637043028255
22.0	139.99970750357443	pulse	1.0	t		26.0	male	white	2.7966573816155993	smiling	117	sub-13	1.0	6.0	117_smiling	0.0		163.48722569404526	
22.0	140.69965839194538	pulse	1.0	t		26.0	male	white	2.7966573816155993	smiling	117	sub-13	1.0	6.0	117_smiling	0.0		164.1871765824162	
22.0	141.3996633121642	pulse	1.0	t		26.0	male	white	2.7966573816155993	smiling	117	sub-13	1.0	6.0	117_smiling	0.0		164.88718150263503	
22.0	142.09965042300246	pulse	1.0	t		26.0	male	white	2.7966573816155993	smiling	117	sub-13	1.0	6.0	117_smiling	0.0		165.5871686134733	
22.0	142.79963300603322	pulse	1.0	t		26.0	male	white	2.7966573816155993	smiling	117	sub-13	1.0	6.0	117_smiling	0.0		166.28715119650406	
23.0	143.26616329510944	face	0.0		145	54.0	female	white	2.286908077994429	neutral	136	sub-13	1.0	6.0	136_neutral	0.0		166.75368148558027	1.2333089133535395
23.0	143.49963370029673	pulse	0.0	t		54.0	female	white	2.286908077994429	neutral	136	sub-13	1.0	6.0	136_neutral	0.0		166.98715189076756	
23.0	144.1995954554086	pulse	0.0	t		54.0	female	white	2.286908077994429	neutral	136	sub-13	1.0	6.0	136_neutral	0.0		167.68711364587944	
23.0	144.49947220846298	fix	1.0		443	54.0	female	white	2.286908077994429	neutral	136	sub-13	1.0	6.0	136_neutral	0.0		167.9869903989338	3.766575778457991
23.0	144.89957773658443	pulse	1.0	t		54.0	female	white	2.286908077994429	neutral	136	sub-13	1.0	6.0	136_neutral	0.0		168.38709592705527	
23.0	145.59957812899484	pulse	1.0	t		54.0	female	white	2.286908077994429	neutral	136	sub-13	1.0	6.0	136_neutral	0.0		169.08709631946567	
23.0	145.93287886210692	response	1.0	y		54.0	female	white	2.286908077994429	neutral	136	sub-13	1.0	6.0	136_neutral	0.0		169.42039705257775	
23.0	146.29955195826187	pulse	1.0	t		54.0	female	white	2.286908077994429	neutral	136	sub-13	1.0	6.0	136_neutral	0.0		169.7870701487327	
23.0	146.99954269134741	pulse	1.0	t		54.0	female	white	2.286908077994429	neutral	136	sub-13	1.0	6.0	136_neutral	0.0		170.48706088181825	
23.0	147.69950987982884	pulse	1.0	t		54.0	female	white	2.286908077994429	neutral	136	sub-13	1.0	6.0	136_neutral	0.0		171.18702807029968	
24.0	148.26604798692097	face	0.0		145	27.0	male	black	3.5523278949462798	neutral	042	sub-13	1.0	6.0	042_neutral	0.0		171.7535661773918	1.2333152522851378
24.0	148.39949306656672	pulse	0.0	t		27.0	male	black	3.5523278949462798	neutral	042	sub-13	1.0	6.0	042_neutral	0.0		171.88701125703756	
24.0	149.09948198852908	pulse	0.0	t		27.0	male	black	3.5523278949462798	neutral	042	sub-13	1.0	6.0	042_neutral	0.0		172.58700017899992	
24.0	149.4993632392061	fix	1.0		444	27.0	male	black	3.5523278949462798	neutral	042	sub-13	1.0	6.0	042_neutral	0.0		172.98688142967694	3.766562195033657
24.0	149.7994706086365	pulse	1.0	t		27.0	male	black	3.5523278949462798	neutral	042	sub-13	1.0	6.0	042_neutral	0.0		173.28698879910735	
24.0	150.49944624902764	pulse	1.0	t		27.0	male	black	3.5523278949462798	neutral	042	sub-13	1.0	6.0	042_neutral	0.0		173.98696443949848	
24.0	151.19943607655114	pulse	1.0	t		27.0	male	black	3.5523278949462798	neutral	042	sub-13	1.0	6.0	042_neutral	0.0		174.68695426702197	
24.0	151.89940567986378	pulse	1.0	t		27.0	male	black	3.5523278949462798	neutral	042	sub-13	1.0	6.0	042_neutral	0.0		175.3869238703346	
24.0	152.59940395929698	pulse	1.0	t		27.0	male	black	3.5523278949462798	neutral	042	sub-13	1.0	6.0	042_neutral	0.0		176.08692214976782	
25.0	153.26592543423976	face	0.0		145	26.0	male	white	2.7966573816155993	neutral	117	sub-13	1.0	6.0	117_neutral	0.0		176.7534436247106	1.2333170634083217
25.0	153.29941642586255	pulse	0.0	t		26.0	male	white	2.7966573816155993	neutral	117	sub-13	1.0	6.0	117_neutral	0.0		176.78693461633338	
25.0	153.99938391619798	pulse	0.0	t		26.0	male	white	2.7966573816155993	neutral	117	sub-13	1.0	6.0	117_neutral	0.0		177.48690210666882	
25.0	154.49924249764808	fix	1.0		443	26.0	male	white	2.7966573816155993	neutral	117	sub-13	1.0	6.0	117_neutral	0.0		177.98676068811892	3.7665673265491932
25.0	154.69935412321865	pulse	1.0	t		26.0	male	white	2.7966573816155993	neutral	117	sub-13	1.0	6.0	117_neutral	0.0		178.1868723136895	
25.0	155.39932704692364	pulse	1.0	t		26.0	male	white	2.7966573816155993	neutral	117	sub-13	1.0	6.0	117_neutral	0.0		178.88684523739448	
25.0	156.09930691326917	pulse	1.0	t		26.0	male	white	2.7966573816155993	neutral	117	sub-13	1.0	6.0	117_neutral	0.0		179.58682510374	
25.0	156.79929825006275	pulse	1.0	t		26.0	male	white	2.7966573816155993	neutral	117	sub-13	1.0	6.0	117_neutral	0.0		180.28681644053358	
25.0	157.49926362742008	pulse	1.0	t		26.0	male	white	2.7966573816155993	neutral	117	sub-13	1.0	6.0	117_neutral	0.0		180.98678181789091	
25.0	158.19927549027852	pulse	1.0	t		26.0	male	white	2.7966573816155993	neutral	117	sub-13	1.0	6.0	117_neutral	0.0		181.68679368074936	
26.0	158.26580982419728	face	0.0		146	54.0	female	white	2.286908077994429	smiling	136	sub-13	1.0	6.0	136_smiling	1.0	attractiveness	181.7533280146681	1.23331857267749
26.0	158.899254149208	pulse	0.0	t		54.0	female	white	2.286908077994429	smiling	136	sub-13	1.0	6.0	136_smiling	1.0	attractiveness	182.38677233967883	
26.0	159.49912839687477	fix	1.0		178	54.0	female	white	2.286908077994429	smiling	136	sub-13	1.0	6.0	136_smiling	1.0	attractiveness	182.9866465873456	1.516632904308608
26.0	159.5992439767315	pulse	1.0	t		54.0	female	white	2.286908077994429	smiling	136	sub-13	1.0	6.0	136_smiling	1.0	attractiveness	183.08676216720232	
26.0	160.29922173009982	pulse	1.0	t		54.0	female	white	2.286908077994429	smiling	136	sub-13	1.0	6.0	136_smiling	1.0	attractiveness	183.78673992057065	
26.0	160.99919284268162	pulse	1.0	t		54.0	female	white	2.286908077994429	smiling	136	sub-13	1.0	6.0	136_smiling	1.0	attractiveness	184.48671103315246	
26.0	161.01576130118337	rating	2.0		294	54.0	female	white	2.286908077994429	smiling	136	sub-13	1.0	6.0	136_smiling	1.0	attractiveness	184.5032794916542	2.4915965384598167
26.0	161.69920319627	pulse	2.0	t		54.0	female	white	2.286908077994429	smiling	136	sub-13	1.0	6.0	136_smiling	1.0	attractiveness	185.18672138674083	
26.0	162.39918125149234	pulse	2.0	t		54.0	female	white	2.286908077994429	smiling	136	sub-13	1.0	6.0	136_smiling	1.0	attractiveness	185.88669944196317	
26.0	162.44082290201732	response	2.0	y		54.0	female	white	2.286908077994429	smiling	136	sub-13	1.0	6.0	136_smiling	1.0	attractiveness	185.92834109248815	
26.0	163.09915206222013	pulse	2.0	t		54.0	female	white	2.286908077994429	smiling	136	sub-13	1.0	6.0	136_smiling	1.0	attractiveness	186.58667025269096	
26.0	163.5073578396432	fix	3.0		444	54.0	female	white	2.286908077994429	smiling	136	sub-13	1.0	6.0	136_smiling	1.0	attractiveness	186.99487603011403	3.766559780202442
26.0	163.7991433990137	pulse	3.0	t		54.0	female	white	2.286908077994429	smiling	136	sub-13	1.0	6.0	136_smiling	1.0	attractiveness	187.28666158948454	
26.0	164.49910424856353	pulse	3.0	t		54.0	female	white	2.286908077994429	smiling	136	sub-13	1.0	6.0	136_smiling	1.0	attractiveness	187.98662243903436	
26.0	165.19909890574945	pulse	3.0	t		54.0	female	white	2.286908077994429	smiling	136	sub-13	1.0	6.0	136_smiling	1.0	attractiveness	188.6866170962203	
26.0	165.8990811869253	pulse	3.0	t		54.0	female	white	2.286908077994429	smiling	136	sub-13	1.0	6.0	136_smiling	1.0	attractiveness	189.38659937739612	
26.0	166.59907614596523	pulse	3.0	t		54.0	female	white	2.286908077994429	smiling	136	sub-13	1.0	6.0	136_smiling	1.0	attractiveness	190.08659433643606	
27.0	167.27391761984563	face	0.0		145	27.0	female	white	3.504576203740549	smiling	144	sub-13	1.0	6.0	144_smiling	0.0		190.76143581031647	1.2333333635187955
27.0	167.29906627534274	pulse	0.0	t		27.0	female	white	3.504576203740549	smiling	144	sub-13	1.0	6.0	144_smiling	0.0		190.78658446581358	
27.0	167.99904221758788	pulse	0.0	t		27.0	female	white	3.504576203740549	smiling	144	sub-13	1.0	6.0	144_smiling	0.0		191.48656040805872	
27.0	168.50725098336443	fix	1.0		443	27.0	female	white	3.504576203740549	smiling	144	sub-13	1.0	6.0	144_smiling	0.0		191.99476917383527	3.7665606857635794
27.0	168.69902027280932	pulse	1.0	t		27.0	female	white	3.504576203740549	smiling	144	sub-13	1.0	6.0	144_smiling	0.0		192.18653846328016	
27.0	169.39900134657	pulse	1.0	t		27.0	female	white	3.504576203740549	smiling	144	sub-13	1.0	6.0	144_smiling	0.0		192.88651953704084	
27.0	170.09898302403872	pulse	1.0	t		27.0	female	white	3.504576203740549	smiling	144	sub-13	1.0	6.0	144_smiling	0.0		193.58650121450955	
27.0	170.7989770775166	pulse	1.0	t		27.0	female	white	3.504576203740549	smiling	144	sub-13	1.0	6.0	144_smiling	0.0		194.28649526798745	
27.0	171.49894607712213	pulse	1.0	t		27.0	female	white	3.504576203740549	smiling	144	sub-13	1.0	6.0	144_smiling	0.0		194.98646426759296	
27.0	172.19893016942115	pulse	1.0	t		27.0	female	white	3.504576203740549	smiling	144	sub-13	1.0	6.0	144_smiling	0.0		195.68644835989198	
28.0	172.273811669128	face	0.0		146	20.0	male	black	2.609629924393156	smiling	043	sub-13	1.0	6.0	043_smiling	0.0		195.76132985959885	1.233323100486814
28.0	172.89894082486353	pulse	0.0	t		20.0	male	black	2.609629924393156	smiling	043	sub-13	1.0	6.0	043_smiling	0.0		196.38645901533437	
28.0	173.50713476961482	fix	1.0		443	20.0	male	black	2.609629924393156	smiling	043	sub-13	1.0	6.0	043_smiling	0.0		196.99465296008566	3.766547102338336
28.0	173.59891193744625	pulse	1.0	t		20.0	male	black	2.609629924393156	smiling	043	sub-13	1.0	6.0	043_smiling	0.0		197.08643012791708	
28.0	174.2988948223301	pulse	1.0	t		20.0	male	black	2.609629924393156	smiling	043	sub-13	1.0	6.0	043_smiling	0.0		197.78641301280095	
28.0	174.99887559423678	pulse	1.0	t		20.0	male	black	2.609629924393156	smiling	043	sub-13	1.0	6.0	043_smiling	0.0		198.48639378470762	
28.0	175.69884640496548	pulse	1.0	t		20.0	male	black	2.609629924393156	smiling	043	sub-13	1.0	6.0	043_smiling	0.0		199.18636459543632	
28.0	176.3988344213658	pulse	1.0	t		20.0	male	black	2.609629924393156	smiling	043	sub-13	1.0	6.0	043_smiling	0.0		199.88635261183663	
28.0	177.0988263618665	pulse	1.0	t		20.0	male	black	2.609629924393156	smiling	043	sub-13	1.0	6.0	043_smiling	0.0		200.58634455233732	
29.0	177.27368187195316	face	0.0		146	22.0	female	white	4.614007162753682	neutral	009	sub-13	1.0	6.0	009_neutral	0.0		200.761200062424	1.2416666440276458
29.0	177.798816491244	pulse	0.0	t		22.0	female	white	4.614007162753682	neutral	009	sub-13	1.0	6.0	009_neutral	0.0		201.28633468171483	
29.0	178.49879515017346	pulse	0.0	t		22.0	female	white	4.614007162753682	neutral	009	sub-13	1.0	6.0	009_neutral	0.0		201.9863133406443	
29.0	178.5153485159808	fix	1.0		443	22.0	female	white	4.614007162753682	neutral	009	sub-13	1.0	6.0	009_neutral	0.0		202.00286670645164	3.7582174440758536
29.0	179.1987686775874	pulse	1.0	t		22.0	female	white	4.614007162753682	neutral	009	sub-13	1.0	6.0	009_neutral	0.0		202.68628686805823	
29.0	179.8987669570197	pulse	1.0	t		22.0	female	white	4.614007162753682	neutral	009	sub-13	1.0	6.0	009_neutral	0.0		203.38628514749053	
29.0	180.59874984190355	pulse	1.0	t		22.0	female	white	4.614007162753682	neutral	009	sub-13	1.0	6.0	009_neutral	0.0		204.0862680323744	
29.0	181.29873151937227	pulse	1.0	t		22.0	female	white	4.614007162753682	neutral	009	sub-13	1.0	6.0	009_neutral	0.0		204.7862497098431	
29.0	181.99872557285107	pulse	1.0	t		22.0	female	white	4.614007162753682	neutral	009	sub-13	1.0	6.0	009_neutral	0.0		205.4862437633219	
30.0	182.27356596005666	face	0.0		145	27.0	female	white	4.181058495821727	neutral	039	sub-13	1.0	6.0	039_neutral	0.0		205.7610841505275	1.2333224967787828
30.0	182.6987543395271	pulse	0.0	t		27.0	female	white	4.181058495821727	neutral	039	sub-13	1.0	6.0	039_neutral	0.0		206.18627252999795	
30.0	183.39866960913878	pulse	0.0	t		27.0	female	white	4.181058495821727	neutral	039	sub-13	1.0	6.0	039_neutral	0.0		206.88618779960962	
30.0	183.50688845683544	fix	1.0		444	27.0	female	white	4.181058495821727	neutral	039	sub-13	1.0	6.0	039_neutral	0.0		206.99440664730628	3.7665612894716105
30.0	184.09867784974995	pulse	1.0	t		27.0	female	white	4.181058495821727	neutral	039	sub-13	1.0	6.0	039_neutral	0.0		207.58619604022078	
30.0	184.79864926418577	pulse	1.0	t		27.0	female	white	4.181058495821727	neutral	039	sub-13	1.0	6.0	039_neutral	0.0		208.2861674546566	
30.0	185.49860860446552	pulse	1.0	t		27.0	female	white	4.181058495821727	neutral	039	sub-13	1.0	6.0	039_neutral	0.0		208.98612679493635	
30.0	186.19861593951555	pulse	1.0	t		27.0	female	white	4.181058495821727	neutral	039	sub-13	1.0	6.0	039_neutral	0.0		209.68613412998639	
30.0	186.89858252428894	pulse	1.0	t		27.0	female	white	4.181058495821727	neutral	039	sub-13	1.0	6.0	039_neutral	0.0		210.38610071475978	
31.0	187.27344974630705	face	0.0		145	19.0	female	white	4.298846000795861	smiling	100	sub-13	1.0	6.0	100_smiling	0.0		210.7609679367779	1.23332340233992
31.0	187.59860072607898	pulse	0.0	t		19.0	female	white	4.298846000795861	smiling	100	sub-13	1.0	6.0	100_smiling	0.0		211.08611891654982	
31.0	188.2985594626516	pulse	0.0	t		19.0	female	white	4.298846000795861	smiling	100	sub-13	1.0	6.0	100_smiling	0.0		211.78607765312245	
31.0	188.50677314864697	fix	1.0		444	19.0	female	white	4.298846000795861	smiling	100	sub-13	1.0	6.0	100_smiling	0.0		211.9942913391178	3.76656823211124
31.0	188.99857706073362	pulse	1.0	t		19.0	female	white	4.298846000795861	smiling	100	sub-13	1.0	6.0	100_smiling	0.0		212.48609525120446	
31.0	189.6985306657898	pulse	1.0	t		19.0	female	white	4.298846000795861	smiling	100	sub-13	1.0	6.0	100_smiling	0.0		213.18604885626064	
31.0	190.3985265303918	pulse	1.0	t		19.0	female	white	4.298846000795861	smiling	100	sub-13	1.0	6.0	100_smiling	0.0		213.88604472086263	
31.0	191.09849462443435	pulse	1.0	t		19.0	female	white	4.298846000795861	smiling	100	sub-13	1.0	6.0	100_smiling	0.0		214.5860128149052	
31.0	191.79846060550062	pulse	1.0	t		19.0	female	white	4.298846000795861	smiling	100	sub-13	1.0	6.0	100_smiling	0.0		215.28597879597146	
32.0	192.2733413807582	face	0.0		145	25.0	female	black	3.858336649423	smiling	126	sub-13	1.0	6.0	126_smiling	0.0		215.76085957122905	1.2333249116090883
32.0	192.4984794109987	pulse	0.0	t		25.0	female	black	3.858336649423	smiling	126	sub-13	1.0	6.0	126_smiling	0.0		215.98599760146953	
32.0	193.19847014408424	pulse	0.0	t		25.0	female	black	3.858336649423	smiling	126	sub-13	1.0	6.0	126_smiling	0.0		216.68598833455508	
32.0	193.5066662923673	fix	1.0		444	25.0	female	black	3.858336649423	smiling	126	sub-13	1.0	6.0	126_smiling	0.0		216.99418448283814	3.7665643080108566
32.0	193.89843461588043	pulse	1.0	t		25.0	female	black	3.858336649423	smiling	126	sub-13	1.0	6.0	126_smiling	0.0		217.38595280635127	
32.0	194.5984241415499	pulse	1.0	t		25.0	female	black	3.858336649423	smiling	126	sub-13	1.0	6.0	126_smiling	0.0		218.08594233202075	
32.0	195.29839766896293	pulse	1.0	t		25.0	female	black	3.858336649423	smiling	126	sub-13	1.0	6.0	126_smiling	0.0		218.78591585943377	
32.0	195.99836636671444	pulse	1.0	t		25.0	female	black	3.858336649423	smiling	126	sub-13	1.0	6.0	126_smiling	0.0		219.48588455718527	
32.0	196.69835498682278	pulse	1.0	t		25.0	female	black	3.858336649423	smiling	126	sub-13	1.0	6.0	126_smiling	0.0		220.18587317729362	
33.0	197.27323060037816	face	0.0		145	21.0	male	east_asian/white	3.501790688420215	smiling	036	sub-13	1.0	6.0	036_smiling	0.0		220.760748790849	1.2333173652623373
33.0	197.39835749220947	pulse	0.0	t		21.0	male	east_asian/white	3.501790688420215	smiling	036	sub-13	1.0	6.0	036_smiling	0.0		220.8858756826803	
33.0	198.09833796226303	pulse	0.0	t		21.0	male	east_asian/white	3.501790688420215	smiling	036	sub-13	1.0	6.0	036_smiling	0.0		221.58585615273387	
33.0	198.5065479656405	fix	1.0		444	21.0	male	east_asian/white	3.501790688420215	smiling	036	sub-13	1.0	6.0	036_smiling	0.0		221.99406615611133	3.7665679302572244
33.0	198.79831148967605	pulse	1.0	t		21.0	male	east_asian/white	3.501790688420215	smiling	036	sub-13	1.0	6.0	036_smiling	0.0		222.2858296801469	
33.0	199.4982874319203	pulse	1.0	t		21.0	male	east_asian/white	3.501790688420215	smiling	036	sub-13	1.0	6.0	036_smiling	0.0		222.98580562239113	
33.0	200.1982842020834	pulse	1.0	t		21.0	male	east_asian/white	3.501790688420215	smiling	036	sub-13	1.0	6.0	036_smiling	0.0		223.68580239255425	
33.0	200.898264973991	pulse	1.0	t		21.0	male	east_asian/white	3.501790688420215	smiling	036	sub-13	1.0	6.0	036_smiling	0.0		224.38578316446183	
33.0	201.59824393477447	pulse	1.0	t		21.0	male	east_asian/white	3.501790688420215	smiling	036	sub-13	1.0	6.0	036_smiling	0.0		225.0857621252453	
34.0	202.27311589589772	face	0.0		145	27.0	female	white	3.504576203740549	neutral	144	sub-13	1.0	6.0	144_neutral	0.0		225.76063408636855	1.233301367005879
34.0	202.29825609948603	pulse	0.0	t		27.0	female	white	3.504576203740549	neutral	144	sub-13	1.0	6.0	144_neutral	0.0		225.78577428995686	
34.0	202.9982350602695	pulse	0.0	t		27.0	female	white	3.504576203740549	neutral	144	sub-13	1.0	6.0	144_neutral	0.0		226.48575325074034	
34.0	203.5064172629036	fix	1.0		443	27.0	female	white	3.504576203740549	neutral	144	sub-13	1.0	6.0	144_neutral	0.0		226.99393545337443	3.766573967334807
34.0	203.69820919139056	pulse	1.0	t		27.0	female	white	3.504576203740549	neutral	144	sub-13	1.0	6.0	144_neutral	0.0		227.1857273818614	
34.0	204.39817788914206	pulse	1.0	t		27.0	female	white	3.504576203740549	neutral	144	sub-13	1.0	6.0	144_neutral	0.0		227.8856960796129	
34.0	205.09816620739548	pulse	1.0	t		27.0	female	white	3.504576203740549	neutral	144	sub-13	1.0	6.0	144_neutral	0.0		228.58568439786632	
34.0	205.79814637559502	pulse	1.0	t		27.0	female	white	3.504576203740549	neutral	144	sub-13	1.0	6.0	144_neutral	0.0		229.28566456606586	
34.0	206.4981253363785	pulse	1.0	t		27.0	female	white	3.504576203740549	neutral	144	sub-13	1.0	6.0	144_neutral	0.0		229.98564352684934	
34.0	207.19811757873322	pulse	1.0	t		27.0	female	white	3.504576203740549	neutral	144	sub-13	1.0	6.0	144_neutral	0.0		230.68563576920405	
35.0	207.2729912302384	face	0.0		146	32.0	male	white	2.389176283326701	neutral	092	sub-13	1.0	6.0	092_neutral	0.0		230.76050942070924	1.2333203838015834
35.0	207.8981131414812	pulse	0.0	t		32.0	male	white	2.389176283326701	neutral	092	sub-13	1.0	6.0	092_neutral	0.0		231.38563133195203	
35.0	208.50631161404	fix	1.0		443	32.0	male	white	2.389176283326701	neutral	092	sub-13	1.0	6.0	092_neutral	0.0		231.99382980451082	3.7665600820555483
35.0	208.59817420652416	pulse	1.0	t		32.0	male	white	2.389176283326701	neutral	092	sub-13	1.0	6.0	092_neutral	0.0		232.085692396995	
35.0	209.29805627220685	pulse	1.0	t		32.0	male	white	2.389176283326701	neutral	092	sub-13	1.0	6.0	092_neutral	0.0		232.7855744626777	
35.0	209.99804006265276	pulse	1.0	t		32.0	male	white	2.389176283326701	neutral	092	sub-13	1.0	6.0	092_neutral	0.0		233.4855582531236	
35.0	210.69802506051383	pulse	1.0	t		32.0	male	white	2.389176283326701	neutral	092	sub-13	1.0	6.0	092_neutral	0.0		234.18554325098467	
35.0	211.39800945466777	pulse	1.0	t		32.0	male	white	2.389176283326701	neutral	092	sub-13	1.0	6.0	092_neutral	0.0		234.8855276451386	
35.0	212.0979977729221	pulse	1.0	t		32.0	male	white	2.389176283326701	neutral	092	sub-13	1.0	6.0	092_neutral	0.0		235.58551596339294	
36.0	212.27287169609554	face	0.0		146	24.0	male	white	3.1153999204138483	smiling	012	sub-13	1.0	6.0	012_smiling	0.0		235.76038988656637	1.2416974331254096
36.0	212.797981563368	pulse	0.0	t		24.0	male	white	3.1153999204138483	smiling	012	sub-13	1.0	6.0	012_smiling	0.0		236.28549975383885	
36.0	213.49796867420628	pulse	0.0	t		24.0	male	white	3.1153999204138483	smiling	012	sub-13	1.0	6.0	012_smiling	0.0		236.9854868646771	
36.0	213.51456912922094	fix	1.0		443	24.0	male	white	3.1153999204138483	smiling	012	sub-13	1.0	6.0	012_smiling	0.0		237.00208731969178	3.758188466102183
36.0	214.19796001099985	pulse	1.0	t		24.0	male	white	3.1153999204138483	smiling	012	sub-13	1.0	6.0	012_smiling	0.0		237.6854782014707	
36.0	214.8979299161656	pulse	1.0	t		24.0	male	white	3.1153999204138483	smiling	012	sub-13	1.0	6.0	012_smiling	0.0		238.38544810663643	
36.0	215.59793000672198	pulse	1.0	t		24.0	male	white	3.1153999204138483	smiling	012	sub-13	1.0	6.0	012_smiling	0.0		239.08544819719282	
36.0	216.29791741941517	pulse	1.0	t		24.0	male	white	3.1153999204138483	smiling	012	sub-13	1.0	6.0	012_smiling	0.0		239.785435609886	
36.0	216.99788943755811	pulse	1.0	t		24.0	male	white	3.1153999204138483	smiling	012	sub-13	1.0	6.0	012_smiling	0.0		240.48540762802895	
37.0	217.27275759532313	face	0.0		145	22.0	male	black	2.767608436132113	neutral	044	sub-13	1.0	6.0	044_neutral	0.0		240.76027578579397	1.2333182708234744
37.0	217.69787564283524	pulse	0.0	t		22.0	male	black	2.767608436132113	neutral	044	sub-13	1.0	6.0	044_neutral	0.0		241.18539383330608	
37.0	218.39785490547274	pulse	0.0	t		22.0	male	black	2.767608436132113	neutral	044	sub-13	1.0	6.0	044_neutral	0.0		241.88537309594358	
37.0	218.5060758661466	fix	1.0		444	22.0	male	black	2.767608436132113	neutral	044	sub-13	1.0	6.0	044_neutral	0.0		241.99359405661744	3.76656340244881
37.0	219.0978480533895	pulse	1.0	t		22.0	male	black	2.767608436132113	neutral	044	sub-13	1.0	6.0	044_neutral	0.0		242.58536624386034	
37.0	219.7978188641173	pulse	1.0	t		22.0	male	black	2.767608436132113	neutral	044	sub-13	1.0	6.0	044_neutral	0.0		243.28533705458813	
37.0	220.49781050276488	pulse	1.0	t		22.0	male	black	2.767608436132113	neutral	044	sub-13	1.0	6.0	044_neutral	0.0		243.98532869323572	
37.0	221.19780153770444	pulse	1.0	t		22.0	male	black	2.767608436132113	neutral	044	sub-13	1.0	6.0	044_neutral	0.0		244.68531972817527	
37.0	221.8977717447242	pulse	1.0	t		22.0	male	black	2.767608436132113	neutral	044	sub-13	1.0	6.0	044_neutral	0.0		245.38528993519503	
38.0	222.2726392685954	face	0.0		145	31.0	female	white	2.1822522881018704	neutral	102	sub-13	1.0	6.0	102_neutral	0.0		245.76015745906625	1.2333215912176456
38.0	222.5977724389886	pulse	0.0	t		31.0	female	white	2.1822522881018704	neutral	102	sub-13	1.0	6.0	102_neutral	0.0		246.08529062945945	
38.0	223.29773328853844	pulse	0.0	t		31.0	female	white	2.1822522881018704	neutral	102	sub-13	1.0	6.0	102_neutral	0.0		246.78525147900928	
38.0	223.50596085981306	fix	1.0		444	31.0	female	white	2.1822522881018704	neutral	102	sub-13	1.0	6.0	102_neutral	0.0		246.9934790502839	3.7665621950327477
38.0	223.9977285494324	pulse	1.0	t		31.0	female	white	2.1822522881018704	neutral	102	sub-13	1.0	6.0	102_neutral	0.0		247.48524673990323	
38.0	224.69770841577702	pulse	1.0	t		31.0	female	white	2.1822522881018704	neutral	102	sub-13	1.0	6.0	102_neutral	0.0		248.18522660624785	
38.0	225.3976976395934	pulse	1.0	t		31.0	female	white	2.1822522881018704	neutral	102	sub-13	1.0	6.0	102_neutral	0.0		248.88521583006423	
38.0	226.09765909285034	pulse	1.0	t		31.0	female	white	2.1822522881018704	neutral	102	sub-13	1.0	6.0	102_neutral	0.0		249.58517728332117	
38.0	226.7976525426211	pulse	1.0	t		31.0	female	white	2.1822522881018704	neutral	102	sub-13	1.0	6.0	102_neutral	0.0		250.28517073309195	
39.0	227.2725230548458	face	0.0		145	32.0	male	white	2.389176283326701	smiling	092	sub-13	1.0	6.0	092_smiling	0.0		250.76004124531664	1.233306196668309
39.0	227.49766048137826	pulse	0.0	t		32.0	male	white	2.389176283326701	smiling	092	sub-13	1.0	6.0	092_smiling	0.0		250.9851786718491	
39.0	228.1976174068277	pulse	0.0	t		32.0	male	white	2.389176283326701	smiling	092	sub-13	1.0	6.0	092_smiling	0.0		251.68513559729854	
39.0	228.50582925151411	fix	1.0		444	32.0	male	white	2.389176283326701	smiling	092	sub-13	1.0	6.0	092_smiling	0.0		251.99334744198495	3.7499158582259042
39.0	228.897626553	pulse	1.0	t		32.0	male	white	2.389176283326701	smiling	092	sub-13	1.0	6.0	092_smiling	0.0		252.38514474347085	
39.0	229.5975907229431	pulse	1.0	t		32.0	male	white	2.389176283326701	smiling	092	sub-13	1.0	6.0	092_smiling	0.0		253.08510891341393	
39.0	230.29757270226582	pulse	1.0	t		32.0	male	white	2.389176283326701	smiling	092	sub-13	1.0	6.0	092_smiling	0.0		253.78509089273666	
39.0	230.9975598131041	pulse	1.0	t		32.0	male	white	2.389176283326701	smiling	092	sub-13	1.0	6.0	092_smiling	0.0		254.48507800357493	
39.0	231.69755748882926	pulse	1.0	t		32.0	male	white	2.389176283326701	smiling	092	sub-13	1.0	6.0	092_smiling	0.0		255.1850756793001	
40.0	232.25574510974002	fix	0.0		720													255.74326330021086	5.999865976870751
40.0	232.3975334310735	pulse	0.0	t														255.88505162154433	
40.0	233.0975151085422	pulse	0.0	t														256.58503329901305	
40.0	233.79749044707842	pulse	0.0	t														257.28500863754925	
40.0	234.49747665235554	pulse	0.0	t														257.9849948428264	
40.0	235.19746647987904	pulse	0.0	t														258.6849846703499	
40.0	235.89742672572083	pulse	0.0	t														259.38494491619167	
40.0	236.5974177606604	pulse	0.0	t														260.08493595113123	
40.0	237.29742509571042	pulse	0.0	t														260.78494328618126	
40.0	237.99738594526025	pulse	0.0	t														261.4849041357311	
