trial_nr	onset	event_type	phase	response	nr_frames	face_age	face_sex	face_eth	attractiveness	expression	face_id	sub_id	ses	run	trial_type	catch	rating_type	onset_abs	duration
-1.0	0.06030213855046895	fix	0.0		713													92.57092184345129	5.957965208818678
-1.0	0.7018208787530966	pulse	0.0	t														93.21244058365392	
-1.0	1.401798330199199	pulse	0.0	t														93.91241803510002	
-1.0	2.101787252127906	pulse	0.0	t														94.61240695702872	
-1.0	2.801768627686215	pulse	0.0	t														95.31238833258703	
-1.0	3.501754229211656	pulse	0.0	t														96.01237393411247	
-1.0	4.201739227028156	pulse	0.0	t														96.71235893192897	
-1.0	4.9017218100061655	pulse	0.0	t														97.41234151490698	
-1.0	5.60171525975602	pulse	0.0	t														98.11233496465684	
0.0	6.018267347369147	face	0.0		144	54.0	female	white	2.286908077994429	neutral	136	sub-11	1.0	4.0	136_neutral	0.0		98.52888705226997	1.2333059953498378
0.0	6.301704785394577	pulse	0.0	t		54.0	female	white	2.286908077994429	neutral	136	sub-11	1.0	4.0	136_neutral	0.0		98.8123244902954	
0.0	7.001681029420979	pulse	0.0	t		54.0	female	white	2.286908077994429	neutral	136	sub-11	1.0	4.0	136_neutral	0.0		99.5123007343218	
0.0	7.251573342718984	fix	1.0		444	54.0	female	white	2.286908077994429	neutral	136	sub-11	1.0	4.0	136_neutral	0.0		99.7621930476198	3.7665826202264725
0.0	7.701675384736518	pulse	1.0	t		54.0	female	white	2.286908077994429	neutral	136	sub-11	1.0	4.0	136_neutral	0.0		100.21229508963734	
0.0	8.401653439891561	pulse	1.0	t		54.0	female	white	2.286908077994429	neutral	136	sub-11	1.0	4.0	136_neutral	0.0		100.91227314479238	
0.0	9.101642663675193	pulse	1.0	t		54.0	female	white	2.286908077994429	neutral	136	sub-11	1.0	4.0	136_neutral	0.0		101.61226236857601	
0.0	9.801626454071993	pulse	1.0	t		54.0	female	white	2.286908077994429	neutral	136	sub-11	1.0	4.0	136_neutral	0.0		102.31224615897281	
0.0	10.501609037050002	pulse	1.0	t		54.0	female	white	2.286908077994429	neutral	136	sub-11	1.0	4.0	136_neutral	0.0		103.01222874195082	
1.0	11.018155962945457	face	0.0		145	22.0	male	black	2.767608436132113	smiling	044	sub-11	1.0	4.0	044_smiling	0.0		103.52877566784628	1.2333135417193262
1.0	11.201604297929407	pulse	0.0	t		22.0	male	black	2.767608436132113	smiling	044	sub-11	1.0	4.0	044_smiling	0.0		103.71222400283023	
1.0	11.90158235308445	pulse	0.0	t		22.0	male	black	2.767608436132113	smiling	044	sub-11	1.0	4.0	044_smiling	0.0		104.41220205798527	
1.0	12.251469504664783	fix	1.0		445	22.0	male	black	2.767608436132113	smiling	044	sub-11	1.0	4.0	044_smiling	0.0		104.7620892095656	3.7665838276461727
1.0	12.601570973158232	pulse	1.0	t		22.0	male	black	2.767608436132113	smiling	044	sub-11	1.0	4.0	044_smiling	0.0		105.11219067805905	
1.0	13.301554763555032	pulse	1.0	t		22.0	male	black	2.767608436132113	smiling	044	sub-11	1.0	4.0	044_smiling	0.0		105.81217446845585	
1.0	14.001540365081382	pulse	1.0	t		22.0	male	black	2.767608436132113	smiling	044	sub-11	1.0	4.0	044_smiling	0.0		106.5121600699822	
1.0	14.701525061042048	pulse	1.0	t		22.0	male	black	2.767608436132113	smiling	044	sub-11	1.0	4.0	044_smiling	0.0		107.21214476594287	
1.0	15.40151428482568	pulse	1.0	t		22.0	male	black	2.767608436132113	smiling	044	sub-11	1.0	4.0	044_smiling	0.0		107.9121339897265	
2.0	16.018053332310956	face	0.0		145	21.0	male	east_asian/white	3.501790688420215	neutral	036	sub-11	1.0	4.0	036_neutral	1.0	trustworthiness	108.52867303721177	1.2333120324456104
2.0	16.10150743272152	pulse	0.0	t		21.0	male	east_asian/white	3.501790688420215	neutral	036	sub-11	1.0	4.0	036_neutral	1.0	trustworthiness	108.61212713762234	
2.0	16.80147763965215	pulse	0.0	t		21.0	male	east_asian/white	3.501790688420215	neutral	036	sub-11	1.0	4.0	036_neutral	1.0	trustworthiness	109.31209734455297	
2.0	17.251365364756566	fix	1.0		177	21.0	male	east_asian/white	3.501790688420215	neutral	036	sub-11	1.0	4.0	036_neutral	1.0	trustworthiness	109.76198506965738	1.5083319473169468
2.0	17.501471994967687	pulse	1.0	t		21.0	male	east_asian/white	3.501790688420215	neutral	036	sub-11	1.0	4.0	036_neutral	1.0	trustworthiness	110.0120916998685	
2.0	18.201452163106296	pulse	1.0	t		21.0	male	east_asian/white	3.501790688420215	neutral	036	sub-11	1.0	4.0	036_neutral	1.0	trustworthiness	110.71207186800711	
2.0	18.759697312073513	rating	2.0		293	21.0	male	east_asian/white	3.501790688420215	neutral	036	sub-11	1.0	4.0	036_neutral	1.0	trustworthiness	111.27031701697433	2.4915835333367795
2.0	18.901451348098817	pulse	2.0	t		21.0	male	east_asian/white	3.501790688420215	neutral	036	sub-11	1.0	4.0	036_neutral	1.0	trustworthiness	111.41207105299964	
2.0	19.60143181809235	pulse	2.0	t		21.0	male	east_asian/white	3.501790688420215	neutral	036	sub-11	1.0	4.0	036_neutral	1.0	trustworthiness	112.11205152299317	
2.0	20.301414099215435	pulse	2.0	t		21.0	male	east_asian/white	3.501790688420215	neutral	036	sub-11	1.0	4.0	036_neutral	1.0	trustworthiness	112.81203380411625	
2.0	20.654513589654016	response	2.0	b		21.0	male	east_asian/white	3.501790688420215	neutral	036	sub-11	1.0	4.0	036_neutral	1.0	trustworthiness	113.16513329455483	
2.0	21.001397285902385	pulse	2.0	t		21.0	male	east_asian/white	3.501790688420215	neutral	036	sub-11	1.0	4.0	036_neutral	1.0	trustworthiness	113.5120169908032	
2.0	21.251280845410292	fix	3.0		444	21.0	male	east_asian/white	3.501790688420215	neutral	036	sub-11	1.0	4.0	036_neutral	1.0	trustworthiness	113.76190055031111	3.758248408998952
2.0	21.701385302266317	pulse	3.0	t		21.0	male	east_asian/white	3.501790688420215	neutral	036	sub-11	1.0	4.0	036_neutral	1.0	trustworthiness	114.21200500716714	
2.0	22.401364866695985	pulse	3.0	t		21.0	male	east_asian/white	3.501790688420215	neutral	036	sub-11	1.0	4.0	036_neutral	1.0	trustworthiness	114.9119845715968	
2.0	23.10135077007635	pulse	3.0	t		21.0	male	east_asian/white	3.501790688420215	neutral	036	sub-11	1.0	4.0	036_neutral	1.0	trustworthiness	115.61197047497717	
2.0	23.80133576789285	pulse	3.0	t		21.0	male	east_asian/white	3.501790688420215	neutral	036	sub-11	1.0	4.0	036_neutral	1.0	trustworthiness	116.31195547279367	
2.0	24.501323482401858	pulse	3.0	t		21.0	male	east_asian/white	3.501790688420215	neutral	036	sub-11	1.0	4.0	036_neutral	1.0	trustworthiness	117.01194318730268	
3.0	25.009529254409244	face	0.0		146	22.0	female	white	4.614007162753682	neutral	009	sub-11	1.0	4.0	009_neutral	0.0		117.52014895931006	1.241649564076397
3.0	25.2013114987667	pulse	0.0	t		22.0	female	white	4.614007162753682	neutral	009	sub-11	1.0	4.0	009_neutral	0.0		117.71193120366752	
3.0	25.901292572470084	pulse	0.0	t		22.0	female	white	4.614007162753682	neutral	009	sub-11	1.0	4.0	009_neutral	0.0		118.4119122773709	
3.0	26.25117881848564	fix	1.0		444	22.0	female	white	4.614007162753682	neutral	009	sub-11	1.0	4.0	009_neutral	0.0		118.76179852338646	3.7665886573231546
3.0	26.60128390923728	pulse	1.0	t		22.0	female	white	4.614007162753682	neutral	009	sub-11	1.0	4.0	009_neutral	0.0		119.1119036141381	
3.0	27.30126347366604	pulse	1.0	t		22.0	female	white	4.614007162753682	neutral	009	sub-11	1.0	4.0	009_neutral	0.0		119.81188317856686	
3.0	28.001268092045393	pulse	1.0	t		22.0	female	white	4.614007162753682	neutral	009	sub-11	1.0	4.0	009_neutral	0.0		120.51188779694621	
3.0	28.701231960024415	pulse	1.0	t		22.0	female	white	4.614007162753682	neutral	009	sub-11	1.0	4.0	009_neutral	0.0		121.21185166492523	
3.0	29.40122661719488	pulse	1.0	t		22.0	female	white	4.614007162753682	neutral	009	sub-11	1.0	4.0	009_neutral	0.0		121.9118463220957	
4.0	30.017767475808796	face	0.0		145	28.0	female	white	5.676880222841227	smiling	124	sub-11	1.0	4.0	124_smiling	0.0		122.52838718070961	1.2333117305906853
4.0	30.101214935413736	pulse	0.0	t		28.0	female	white	5.676880222841227	smiling	124	sub-11	1.0	4.0	124_smiling	0.0		122.61183464031456	
4.0	30.801180312667384	pulse	0.0	t		28.0	female	white	5.676880222841227	smiling	124	sub-11	1.0	4.0	124_smiling	0.0		123.3118000175682	
4.0	31.25107920639948	fix	1.0		444	28.0	female	white	5.676880222841227	smiling	124	sub-11	1.0	4.0	124_smiling	0.0		123.7616989113003	3.7665753757109997
4.0	31.501172554998448	pulse	1.0	t		28.0	female	white	5.676880222841227	smiling	124	sub-11	1.0	4.0	124_smiling	0.0		124.01179225989927	
4.0	32.201163891765646	pulse	1.0	t		28.0	female	white	5.676880222841227	smiling	124	sub-11	1.0	4.0	124_smiling	0.0		124.71178359666646	
4.0	32.90114979514601	pulse	1.0	t		28.0	female	white	5.676880222841227	smiling	124	sub-11	1.0	4.0	124_smiling	0.0		125.41176950004683	
4.0	33.601130265139545	pulse	1.0	t		28.0	female	white	5.676880222841227	smiling	124	sub-11	1.0	4.0	124_smiling	0.0		126.11174997004036	
4.0	34.30111677222976	pulse	1.0	t		28.0	female	white	5.676880222841227	smiling	124	sub-11	1.0	4.0	124_smiling	0.0		126.81173647713058	
5.0	35.01765458211048	face	0.0		146	20.0	male	black	2.609629924393156	smiling	043	sub-11	1.0	4.0	043_smiling	0.0		127.5282742870113	1.2333159565578171
5.0	35.00401285780754	pulse	0.0	t		20.0	male	black	2.609629924393156	smiling	043	sub-11	1.0	4.0	043_smiling	0.0		127.51463256270836	
5.0	35.70109854019938	pulse	0.0	t		20.0	male	black	2.609629924393156	smiling	043	sub-11	1.0	4.0	043_smiling	0.0		128.2117182451002	
5.0	36.2509705386683	fix	1.0		443	20.0	male	black	2.609629924393156	smiling	043	sub-11	1.0	4.0	043_smiling	0.0		128.76159024356912	3.7665865443395887
5.0	36.401078406483975	pulse	1.0	t		20.0	male	black	2.609629924393156	smiling	043	sub-11	1.0	4.0	043_smiling	0.0		128.9116981113848	
5.0	37.10106129131691	pulse	1.0	t		20.0	male	black	2.609629924393156	smiling	043	sub-11	1.0	4.0	043_smiling	0.0		129.61168099621773	
5.0	37.80104689284235	pulse	1.0	t		20.0	male	black	2.609629924393156	smiling	043	sub-11	1.0	4.0	043_smiling	0.0		130.31166659774317	
5.0	38.50104305928653	pulse	1.0	t		20.0	male	black	2.609629924393156	smiling	043	sub-11	1.0	4.0	043_smiling	0.0		131.01166276418735	
5.0	39.20101990702278	pulse	1.0	t		20.0	male	black	2.609629924393156	smiling	043	sub-11	1.0	4.0	043_smiling	0.0		131.7116396119236	
5.0	39.901006414113	pulse	1.0	t		20.0	male	black	2.609629924393156	smiling	043	sub-11	1.0	4.0	043_smiling	0.0		132.41162611901382	
6.0	40.01755708300789	face	0.0		146	28.0	male	white	3.9076800636689217	smiling	033	sub-11	1.0	4.0	033_smiling	0.0		132.5281767879087	1.2333081083334037
6.0	40.60099684531542	pulse	0.0	t		28.0	male	white	3.9076800636689217	smiling	033	sub-11	1.0	4.0	033_smiling	0.0		133.11161655021624	
6.0	41.25086519134129	fix	1.0		444	28.0	male	white	3.9076800636689217	smiling	033	sub-11	1.0	4.0	033_smiling	0.0		133.7614848962421	3.7582556535135154
6.0	41.30097701345403	pulse	1.0	t		28.0	male	white	3.9076800636689217	smiling	033	sub-11	1.0	4.0	033_smiling	0.0		133.81159671835485	
6.0	42.00096080385083	pulse	1.0	t		28.0	male	white	3.9076800636689217	smiling	033	sub-11	1.0	4.0	033_smiling	0.0		134.51158050875165	
6.0	42.700946707232106	pulse	1.0	t		28.0	male	white	3.9076800636689217	smiling	033	sub-11	1.0	4.0	033_smiling	0.0		135.21156641213292	
6.0	43.4009329124674	pulse	1.0	t		28.0	male	white	3.9076800636689217	smiling	033	sub-11	1.0	4.0	033_smiling	0.0		135.91155261736822	
6.0	44.1009194195567	pulse	1.0	t		28.0	male	white	3.9076800636689217	smiling	033	sub-11	1.0	4.0	033_smiling	0.0		136.61153912445752	
6.0	44.80090381366335	pulse	1.0	t		28.0	male	white	3.9076800636689217	smiling	033	sub-11	1.0	4.0	033_smiling	0.0		137.31152351856417	
7.0	45.009120844854806	face	0.0		146	24.0	female	east_asian	4.409868682849185	neutral	030	sub-11	1.0	4.0	030_neutral	0.0		137.51974054975562	1.241657714156645
7.0	45.50090631905823	pulse	0.0	t		24.0	female	east_asian	4.409868682849185	neutral	030	sub-11	1.0	4.0	030_neutral	0.0		138.01152602395905	
7.0	46.20087471486022	pulse	0.0	t		24.0	female	east_asian	4.409868682849185	neutral	030	sub-11	1.0	4.0	030_neutral	0.0		138.71149441976104	
7.0	46.25077855901145	fix	1.0		445	24.0	female	east_asian	4.409868682849185	neutral	030	sub-11	1.0	4.0	030_neutral	0.0		138.76139826391227	3.7665729608725087
7.0	46.90086454235279	pulse	1.0	t		24.0	female	east_asian	4.409868682849185	neutral	030	sub-11	1.0	4.0	030_neutral	0.0		139.4114842472536	
7.0	47.6008471253308	pulse	1.0	t		24.0	female	east_asian	4.409868682849185	neutral	030	sub-11	1.0	4.0	030_neutral	0.0		140.11146683023162	
7.0	48.300837556533224	pulse	1.0	t		24.0	female	east_asian	4.409868682849185	neutral	030	sub-11	1.0	4.0	030_neutral	0.0		140.81145726143404	
7.0	49.00082044136616	pulse	1.0	t		24.0	female	east_asian	4.409868682849185	neutral	030	sub-11	1.0	4.0	030_neutral	0.0		141.51144014626698	
7.0	49.70080030764984	pulse	1.0	t		24.0	female	east_asian	4.409868682849185	neutral	030	sub-11	1.0	4.0	030_neutral	0.0		142.21142001255066	
8.0	50.01735151988396	face	0.0		145	21.0	male	black	2.969757262236371	neutral	137	sub-11	1.0	4.0	137_neutral	0.0		142.52797122478478	1.2333105231718946
8.0	50.400791946271966	pulse	0.0	t		21.0	male	black	2.969757262236371	neutral	137	sub-11	1.0	4.0	137_neutral	0.0		142.91141165117278	
8.0	51.100772718120425	pulse	0.0	t		21.0	male	black	2.969757262236371	neutral	137	sub-11	1.0	4.0	137_neutral	0.0		143.61139242302124	
8.0	51.250662043055854	fix	1.0		444	21.0	male	black	2.969757262236371	neutral	137	sub-11	1.0	4.0	137_neutral	0.0		143.76128174795667	3.7665853369198885
8.0	51.80076345117868	pulse	1.0	t		21.0	male	black	2.969757262236371	neutral	137	sub-11	1.0	4.0	137_neutral	0.0		144.3113831560795	
8.0	52.50074361931729	pulse	1.0	t		21.0	male	black	2.969757262236371	neutral	137	sub-11	1.0	4.0	137_neutral	0.0		145.0113633242181	
8.0	53.2007249948756	pulse	1.0	t		21.0	male	black	2.969757262236371	neutral	137	sub-11	1.0	4.0	137_neutral	0.0		145.71134469977642	
8.0	53.9007175390625	pulse	1.0	t		21.0	male	black	2.969757262236371	neutral	137	sub-11	1.0	4.0	137_neutral	0.0		146.41133724396332	
8.0	54.60069499050769	pulse	1.0	t		21.0	male	black	2.969757262236371	neutral	137	sub-11	1.0	4.0	137_neutral	0.0		147.1113146954085	
9.0	55.01724737997574	face	0.0		145	36.0	female	white	2.7548746518105847	smiling	011	sub-11	1.0	4.0	011_smiling	0.0		147.52786708487656	1.2333072027686285
9.0	55.30070353299925	pulse	0.0	t		36.0	female	white	2.7548746518105847	smiling	011	sub-11	1.0	4.0	011_smiling	0.0		147.81132323790007	
9.0	56.00066860839797	pulse	0.0	t		36.0	female	white	2.7548746518105847	smiling	011	sub-11	1.0	4.0	011_smiling	0.0		148.5112883132988	
9.0	56.25055458274437	fix	1.0		444	36.0	female	white	2.7548746518105847	smiling	011	sub-11	1.0	4.0	011_smiling	0.0		148.7611742876452	3.76658895917717
9.0	56.700659039600396	pulse	1.0	t		36.0	female	white	2.7548746518105847	smiling	011	sub-11	1.0	4.0	011_smiling	0.0		149.21127874450121	
9.0	57.40064373556197	pulse	1.0	t		36.0	female	white	2.7548746518105847	smiling	011	sub-11	1.0	4.0	011_smiling	0.0		149.9112634404628	
9.0	58.100624205555505	pulse	1.0	t		36.0	female	white	2.7548746518105847	smiling	011	sub-11	1.0	4.0	011_smiling	0.0		150.61124391045632	
9.0	58.80061192006542	pulse	1.0	t		36.0	female	white	2.7548746518105847	smiling	011	sub-11	1.0	4.0	011_smiling	0.0		151.31123162496624	
9.0	59.500601747557994	pulse	1.0	t		36.0	female	white	2.7548746518105847	smiling	011	sub-11	1.0	4.0	011_smiling	0.0		152.0112214524588	
10.0	60.01714354192154	face	0.0		145	20.0	female	white	3.9502586549940313	neutral	091	sub-11	1.0	4.0	091_neutral	0.0		152.52776324682236	1.2333198806709333
10.0	60.200589462067	pulse	0.0	t		20.0	female	white	3.9502586549940313	neutral	091	sub-11	1.0	4.0	091_neutral	0.0		152.71120916696782	
10.0	60.90056842278773	pulse	0.0	t		20.0	female	white	3.9502586549940313	neutral	091	sub-11	1.0	4.0	091_neutral	0.0		153.41118812768855	
10.0	61.250463422592475	fix	1.0		444	20.0	female	white	3.9502586549940313	neutral	091	sub-11	1.0	4.0	091_neutral	0.0		153.7610831274933	3.7665771868396405
10.0	61.60056096697372	pulse	1.0	t		20.0	female	white	3.9502586549940313	neutral	091	sub-11	1.0	4.0	091_neutral	0.0		154.11118067187454	
10.0	62.300536909145194	pulse	1.0	t		20.0	female	white	3.9502586549940313	neutral	091	sub-11	1.0	4.0	091_neutral	0.0		154.811156614046	
10.0	63.000523114380485	pulse	1.0	t		20.0	female	white	3.9502586549940313	neutral	091	sub-11	1.0	4.0	091_neutral	0.0		155.5111428192813	
10.0	63.700516865986174	pulse	1.0	t		20.0	female	white	3.9502586549940313	neutral	091	sub-11	1.0	4.0	091_neutral	0.0		156.211136570887	
10.0	64.40049763783463	pulse	1.0	t		20.0	female	white	3.9502586549940313	neutral	091	sub-11	1.0	4.0	091_neutral	0.0		156.91111734273545	
11.0	65.01704060943212	face	0.0		145	21.0	male	east_asian/white	3.501790688420215	smiling	036	sub-11	1.0	4.0	036_smiling	0.0		157.52766031433293	1.2333078064784786
11.0	65.10049893581072	pulse	0.0	t		21.0	male	east_asian/white	3.501790688420215	smiling	036	sub-11	1.0	4.0	036_smiling	0.0		157.61111864071154	
11.0	65.80049329112535	pulse	0.0	t		21.0	male	east_asian/white	3.501790688420215	smiling	036	sub-11	1.0	4.0	036_smiling	0.0		158.31111299602617	
11.0	66.2503484159106	fix	1.0		444	21.0	male	east_asian/white	3.501790688420215	smiling	036	sub-11	1.0	4.0	036_smiling	0.0		158.7609681208114	3.766582620227382
11.0	66.50045414055694	pulse	1.0	t		21.0	male	east_asian/white	3.501790688420215	smiling	036	sub-11	1.0	4.0	036_smiling	0.0		159.01107384545776	
11.0	67.20046811643442	pulse	1.0	t		21.0	male	east_asian/white	3.501790688420215	smiling	036	sub-11	1.0	4.0	036_smiling	0.0		159.71108782133524	
11.0	67.90042534360873	pulse	1.0	t		21.0	male	east_asian/white	3.501790688420215	smiling	036	sub-11	1.0	4.0	036_smiling	0.0		160.41104504850955	
11.0	68.60040551174825	pulse	1.0	t		21.0	male	east_asian/white	3.501790688420215	smiling	036	sub-11	1.0	4.0	036_smiling	0.0		161.11102521664907	
11.0	69.30040379117509	pulse	1.0	t		21.0	male	east_asian/white	3.501790688420215	smiling	036	sub-11	1.0	4.0	036_smiling	0.0		161.8110234960759	
12.0	70.01693103613798	face	0.0		146	47.0	male	east_asian	2.171110226820533	neutral	024	sub-11	1.0	4.0	024_neutral	0.0		162.5275507410388	1.233312636154551
12.0	70.0032509762741	pulse	0.0	t		47.0	male	east_asian	2.171110226820533	neutral	024	sub-11	1.0	4.0	024_neutral	0.0		162.51387068117492	
12.0	70.70036986269497	pulse	0.0	t		47.0	male	east_asian	2.171110226820533	neutral	024	sub-11	1.0	4.0	024_neutral	0.0		163.2109895675958	
12.0	71.25024367229253	fix	1.0		443	47.0	male	east_asian	2.171110226820533	neutral	024	sub-11	1.0	4.0	024_neutral	0.0		163.76086337719335	3.7665901665968704
12.0	71.40035878462368	pulse	1.0	t		47.0	male	east_asian	2.171110226820533	neutral	024	sub-11	1.0	4.0	024_neutral	0.0		163.9109784895245	
12.0	72.10033925461721	pulse	1.0	t		47.0	male	east_asian	2.171110226820533	neutral	024	sub-11	1.0	4.0	024_neutral	0.0		164.61095895951803	
12.0	72.80032304501492	pulse	1.0	t		47.0	male	east_asian	2.171110226820533	neutral	024	sub-11	1.0	4.0	024_neutral	0.0		165.31094274991574	
12.0	73.50031075952393	pulse	1.0	t		47.0	male	east_asian	2.171110226820533	neutral	024	sub-11	1.0	4.0	024_neutral	0.0		166.01093046442475	
12.0	74.20029515363058	pulse	1.0	t		47.0	male	east_asian	2.171110226820533	neutral	024	sub-11	1.0	4.0	024_neutral	0.0		166.7109148585314	
12.0	74.9002780384626	pulse	1.0	t		47.0	male	east_asian	2.171110226820533	neutral	024	sub-11	1.0	4.0	024_neutral	0.0		167.41089774336342	
13.0	75.0168338388894	face	0.0		146	30.0	female	black	2.7345801830481498	neutral	062	sub-11	1.0	4.0	062_neutral	0.0		167.52745354379022	1.2333093157531039
13.0	75.60026907337488	pulse	0.0	t		30.0	female	black	2.7345801830481498	neutral	062	sub-11	1.0	4.0	062_neutral	0.0		168.1108887782757	
13.0	76.2501431546425	fix	1.0		443	30.0	female	black	2.7345801830481498	neutral	062	sub-11	1.0	4.0	062_neutral	0.0		168.76076285954332	3.7665868461936043
13.0	76.30025648602987	pulse	1.0	t		30.0	female	black	2.7345801830481498	neutral	062	sub-11	1.0	4.0	062_neutral	0.0		168.81087619093068	
13.0	77.00026170811725	pulse	1.0	t		30.0	female	black	2.7345801830481498	neutral	062	sub-11	1.0	4.0	062_neutral	0.0		169.51088141301807	
13.0	77.70022044456528	pulse	1.0	t		30.0	female	black	2.7345801830481498	neutral	062	sub-11	1.0	4.0	062_neutral	0.0		170.2108401494661	
13.0	78.40020514052685	pulse	1.0	t		30.0	female	black	2.7345801830481498	neutral	062	sub-11	1.0	4.0	062_neutral	0.0		170.91082484542767	
13.0	79.10020704221188	pulse	1.0	t		30.0	female	black	2.7345801830481498	neutral	062	sub-11	1.0	4.0	062_neutral	0.0		171.6108267471127	
13.0	79.80017936212607	pulse	1.0	t		30.0	female	black	2.7345801830481498	neutral	062	sub-11	1.0	4.0	062_neutral	0.0		172.3107990670269	
14.0	80.0167300008361	face	0.0		145	31.0	female	east_asian	3.395941106247513	neutral	087	sub-11	1.0	4.0	087_neutral	0.0		172.52734970573692	1.2333069009137034
14.0	80.50016888776463	pulse	0.0	t		31.0	female	east_asian	3.395941106247513	neutral	087	sub-11	1.0	4.0	087_neutral	0.0		173.01078859266545	
14.0	81.20015026332294	pulse	0.0	t		31.0	female	east_asian	3.395941106247513	neutral	087	sub-11	1.0	4.0	087_neutral	0.0		173.71076996822376	
14.0	81.25003690174981	fix	1.0		445	31.0	female	east_asian	3.395941106247513	neutral	087	sub-11	1.0	4.0	087_neutral	0.0		173.76065660665063	3.758245692305536
14.0	81.90013767597702	pulse	1.0	t		31.0	female	east_asian	3.395941106247513	neutral	087	sub-11	1.0	4.0	087_neutral	0.0		174.41075738087784	
14.0	82.60013142758271	pulse	1.0	t		31.0	female	east_asian	3.395941106247513	neutral	087	sub-11	1.0	4.0	087_neutral	0.0		175.11075113248353	
14.0	83.3001125012861	pulse	1.0	t		31.0	female	east_asian	3.395941106247513	neutral	087	sub-11	1.0	4.0	087_neutral	0.0		175.8107322061869	
14.0	84.00009598982888	pulse	1.0	t		31.0	female	east_asian	3.395941106247513	neutral	087	sub-11	1.0	4.0	087_neutral	0.0		176.5107156947297	
14.0	84.7000725357102	pulse	1.0	t		31.0	female	east_asian	3.395941106247513	neutral	087	sub-11	1.0	4.0	087_neutral	0.0		177.21069224061102	
15.0	85.00828259405534	face	0.0		146	24.0	female	east_asian	4.409868682849185	smiling	030	sub-11	1.0	4.0	030_smiling	1.0	dominance	177.51890229895616	1.2416513752050378
15.0	85.40006930586333	pulse	0.0	t		24.0	female	east_asian	4.409868682849185	smiling	030	sub-11	1.0	4.0	030_smiling	1.0	dominance	177.91068901076414	
15.0	86.10005037956671	pulse	0.0	t		24.0	female	east_asian	4.409868682849185	smiling	030	sub-11	1.0	4.0	030_smiling	1.0	dominance	178.61067008446753	
15.0	86.24993396926038	fix	1.0		177	24.0	female	east_asian	4.409868682849185	smiling	030	sub-11	1.0	4.0	030_smiling	1.0	dominance	178.7605536741612	1.4999699654472352
15.0	86.80004050891512	pulse	1.0	t		24.0	female	east_asian	4.409868682849185	smiling	030	sub-11	1.0	4.0	030_smiling	1.0	dominance	179.31066021381594	
15.0	87.50001916778001	pulse	1.0	t		24.0	female	east_asian	4.409868682849185	smiling	030	sub-11	1.0	4.0	030_smiling	1.0	dominance	180.01063887268083	
15.0	87.74990393470762	rating	2.0		295	24.0	female	east_asian	4.409868682849185	smiling	030	sub-11	1.0	4.0	030_smiling	1.0	dominance	180.26052363960844	2.499948231899907
15.0	88.20001352309555	pulse	2.0	t		24.0	female	east_asian	4.409868682849185	smiling	030	sub-11	1.0	4.0	030_smiling	1.0	dominance	180.71063322799637	
15.0	88.90000968953882	pulse	2.0	t		24.0	female	east_asian	4.409868682849185	smiling	030	sub-11	1.0	4.0	030_smiling	1.0	dominance	181.41062939443964	
15.0	89.34998193398951	response	2.0	w		24.0	female	east_asian	4.409868682849185	smiling	030	sub-11	1.0	4.0	030_smiling	1.0	dominance	181.86060163889033	
15.0	89.59997446308353	pulse	2.0	t		24.0	female	east_asian	4.409868682849185	smiling	030	sub-11	1.0	4.0	030_smiling	1.0	dominance	182.11059416798435	
15.0	90.24985216660752	fix	3.0		443	24.0	female	east_asian	4.409868682849185	smiling	030	sub-11	1.0	4.0	030_smiling	1.0	dominance	182.76047187150834	3.766587148049439
15.0	90.29996247944746	pulse	3.0	t		24.0	female	east_asian	4.409868682849185	smiling	030	sub-11	1.0	4.0	030_smiling	1.0	dominance	182.81058218434828	
15.0	90.99994868468275	pulse	3.0	t		24.0	female	east_asian	4.409868682849185	smiling	030	sub-11	1.0	4.0	030_smiling	1.0	dominance	183.51056838958357	
15.0	91.69993156951477	pulse	3.0	t		24.0	female	east_asian	4.409868682849185	smiling	030	sub-11	1.0	4.0	030_smiling	1.0	dominance	184.2105512744156	
15.0	92.39991656733127	pulse	3.0	t		24.0	female	east_asian	4.409868682849185	smiling	030	sub-11	1.0	4.0	030_smiling	1.0	dominance	184.9105362722321	
15.0	93.09992722280549	pulse	3.0	t		24.0	female	east_asian	4.409868682849185	smiling	030	sub-11	1.0	4.0	030_smiling	1.0	dominance	185.6105469277063	
15.0	93.79988535554367	pulse	3.0	t		24.0	female	east_asian	4.409868682849185	smiling	030	sub-11	1.0	4.0	030_smiling	1.0	dominance	186.31050506044448	
16.0	94.01643931465696	face	0.0		145	23.0	male	white	2.6275368085953046	neutral	141	sub-11	1.0	4.0	141_neutral	0.0		186.52705901955778	1.2333081083324942
16.0	94.4998821256977	pulse	0.0	t		23.0	male	white	2.6275368085953046	neutral	141	sub-11	1.0	4.0	141_neutral	0.0		187.0105018305985	
16.0	95.1998571623053	pulse	0.0	t		23.0	male	white	2.6275368085953046	neutral	141	sub-11	1.0	4.0	141_neutral	0.0		187.71047686720613	
16.0	95.24974742298946	fix	1.0		445	23.0	male	white	2.6275368085953046	neutral	141	sub-11	1.0	4.0	141_neutral	0.0		187.76036712789028	3.7665889591780797
16.0	95.89985151761994	pulse	1.0	t		23.0	male	white	2.6275368085953046	neutral	141	sub-11	1.0	4.0	141_neutral	0.0		188.41047122252075	
16.0	96.59982927092096	pulse	1.0	t		23.0	male	white	2.6275368085953046	neutral	141	sub-11	1.0	4.0	141_neutral	0.0		189.11044897582178	
16.0	97.2998184947046	pulse	1.0	t		23.0	male	white	2.6275368085953046	neutral	141	sub-11	1.0	4.0	141_neutral	0.0		189.81043819960541	
16.0	97.9998074166324	pulse	1.0	t		23.0	male	white	2.6275368085953046	neutral	141	sub-11	1.0	4.0	141_neutral	0.0		190.5104271215332	
16.0	98.69978215138508	pulse	1.0	t		23.0	male	white	2.6275368085953046	neutral	141	sub-11	1.0	4.0	141_neutral	0.0		191.2104018562859	
17.0	99.01633638216754	face	0.0		145	22.0	male	black	2.767608436132113	neutral	044	sub-11	1.0	4.0	044_neutral	0.0		191.52695608706836	1.2333105231718946
17.0	99.39977228073349	pulse	0.0	t		22.0	male	black	2.767608436132113	neutral	044	sub-11	1.0	4.0	044_neutral	0.0		191.9103919856343	
17.0	100.09975788225893	pulse	0.0	t		22.0	male	black	2.767608436132113	neutral	044	sub-11	1.0	4.0	044_neutral	0.0		192.61037758715975	
17.0	100.24964690533943	fix	1.0		444	22.0	male	black	2.767608436132113	neutral	044	sub-11	1.0	4.0	044_neutral	0.0		192.76026661024025	3.7665865443386792
17.0	100.79974952088105	pulse	1.0	t		22.0	male	black	2.767608436132113	neutral	044	sub-11	1.0	4.0	044_neutral	0.0		193.31036922578187	
17.0	101.49973089643936	pulse	1.0	t		22.0	male	black	2.767608436132113	neutral	044	sub-11	1.0	4.0	044_neutral	0.0		194.01035060134018	
17.0	102.19971197014274	pulse	1.0	t		22.0	male	black	2.767608436132113	neutral	044	sub-11	1.0	4.0	044_neutral	0.0		194.71033167504356	
17.0	102.89970421247381	pulse	1.0	t		22.0	male	black	2.767608436132113	neutral	044	sub-11	1.0	4.0	044_neutral	0.0		195.41032391737463	
17.0	103.59968438061333	pulse	1.0	t		22.0	male	black	2.767608436132113	neutral	044	sub-11	1.0	4.0	044_neutral	0.0		196.11030408551414	
18.0	104.01623344967811	face	0.0		145	31.0	female	west_asian	2.364902506963788	smiling	006	sub-11	1.0	4.0	006_smiling	0.0		196.52685315457893	1.2333093157521944
18.0	104.29967632109037	pulse	0.0	t		31.0	female	west_asian	2.364902506963788	smiling	006	sub-11	1.0	4.0	006_smiling	0.0		196.8102960259912	
18.0	104.99965739479376	pulse	0.0	t		31.0	female	west_asian	2.364902506963788	smiling	006	sub-11	1.0	4.0	006_smiling	0.0		197.51027709969458	
18.0	105.2495427654303	fix	1.0		444	31.0	female	west_asian	2.364902506963788	smiling	006	sub-11	1.0	4.0	006_smiling	0.0		197.76016247033112	3.7665859406297386
18.0	105.69964571301261	pulse	1.0	t		31.0	female	west_asian	2.364902506963788	smiling	006	sub-11	1.0	4.0	006_smiling	0.0		198.21026541791343	
18.0	106.3996279941357	pulse	1.0	t		31.0	female	west_asian	2.364902506963788	smiling	006	sub-11	1.0	4.0	006_smiling	0.0		198.91024769903652	
18.0	107.0996157086447	pulse	1.0	t		31.0	female	west_asian	2.364902506963788	smiling	006	sub-11	1.0	4.0	006_smiling	0.0		199.61023541354552	
18.0	107.7995994990415	pulse	1.0	t		31.0	female	west_asian	2.364902506963788	smiling	006	sub-11	1.0	4.0	006_smiling	0.0		200.31021920394232	
18.0	108.49958479871202	pulse	1.0	t		31.0	female	west_asian	2.364902506963788	smiling	006	sub-11	1.0	4.0	006_smiling	0.0		201.01020450361284	
19.0	109.01612870606004	face	0.0		145	28.0	male	east_asian	1.5563072025467568	neutral	005	sub-11	1.0	4.0	005_neutral	0.0		201.52674841096086	1.2333093157521944
19.0	109.1995746262055	pulse	0.0	t		28.0	male	east_asian	1.5563072025467568	neutral	005	sub-11	1.0	4.0	005_neutral	0.0		201.71019433110632	
19.0	109.8995532850704	pulse	0.0	t		28.0	male	east_asian	1.5563072025467568	neutral	005	sub-11	1.0	4.0	005_neutral	0.0		202.41017298997122	
19.0	110.24943802181224	fix	1.0		444	28.0	male	east_asian	1.5563072025467568	neutral	005	sub-11	1.0	4.0	005_neutral	0.0		202.76005772671306	3.7665898647419453
19.0	110.5995446218376	pulse	1.0	t		28.0	male	east_asian	1.5563072025467568	neutral	005	sub-11	1.0	4.0	005_neutral	0.0		203.1101643267384	
19.0	111.29952750666962	pulse	1.0	t		28.0	male	east_asian	1.5563072025467568	neutral	005	sub-11	1.0	4.0	005_neutral	0.0		203.81014721157044	
19.0	111.99951461746969	pulse	1.0	t		28.0	male	east_asian	1.5563072025467568	neutral	005	sub-11	1.0	4.0	005_neutral	0.0		204.5101343223705	
19.0	112.69949629488292	pulse	1.0	t		28.0	male	east_asian	1.5563072025467568	neutral	005	sub-11	1.0	4.0	005_neutral	0.0		205.21011599978374	
19.0	113.39948189640836	pulse	1.0	t		28.0	male	east_asian	1.5563072025467568	neutral	005	sub-11	1.0	4.0	005_neutral	0.0		205.91010160130918	
20.0	114.01602788655418	face	0.0		145	19.0	male	white	3.2522881018702745	neutral	018	sub-11	1.0	4.0	018_neutral	0.0		206.526647591455	1.2333072027686285
20.0	114.09947866656239	pulse	0.0	t		19.0	male	white	3.2522881018702745	neutral	018	sub-11	1.0	4.0	018_neutral	0.0		206.6100983714632	
20.0	114.79945279760523	pulse	0.0	t		19.0	male	white	3.2522881018702745	neutral	018	sub-11	1.0	4.0	018_neutral	0.0		207.31007250250605	
20.0	115.24933508932281	fix	1.0		1185	19.0	male	white	3.2522881018702745	neutral	018	sub-11	1.0	4.0	018_neutral	0.0		207.75995479422363	10.016459538928757
20.0	115.49944443622735	pulse	1.0	t		19.0	male	white	3.2522881018702745	neutral	018	sub-11	1.0	4.0	018_neutral	0.0		208.01006414112817	
20.0	116.19941554872184	pulse	1.0	t		19.0	male	white	3.2522881018702745	neutral	018	sub-11	1.0	4.0	018_neutral	0.0		208.71003525362266	
20.0	116.89941231887587	pulse	1.0	t		19.0	male	white	3.2522881018702745	neutral	018	sub-11	1.0	4.0	018_neutral	0.0		209.4100320237767	
20.0	117.59939671298162	pulse	1.0	t		19.0	male	white	3.2522881018702745	neutral	018	sub-11	1.0	4.0	018_neutral	0.0		210.11001641788243	
20.0	118.29938322007183	pulse	1.0	t		19.0	male	white	3.2522881018702745	neutral	018	sub-11	1.0	4.0	018_neutral	0.0		210.81000292497265	
20.0	118.99942194804407	pulse	1.0	t		19.0	male	white	3.2522881018702745	neutral	018	sub-11	1.0	4.0	018_neutral	0.0		211.5100416529449	
20.0	119.69935472497855	pulse	1.0	t		19.0	male	white	3.2522881018702745	neutral	018	sub-11	1.0	4.0	018_neutral	0.0		212.20997442987937	
20.0	120.39933579868193	pulse	1.0	t		19.0	male	white	3.2522881018702745	neutral	018	sub-11	1.0	4.0	018_neutral	0.0		212.90995550358275	
20.0	121.09932049464351	pulse	1.0	t		19.0	male	white	3.2522881018702745	neutral	018	sub-11	1.0	4.0	018_neutral	0.0		213.60994019954433	
20.0	121.79930609616895	pulse	1.0	t		19.0	male	white	3.2522881018702745	neutral	018	sub-11	1.0	4.0	018_neutral	0.0		214.30992580106977	
20.0	122.49929230140424	pulse	1.0	t		19.0	male	white	3.2522881018702745	neutral	018	sub-11	1.0	4.0	018_neutral	0.0		215.00991200630506	
20.0	123.19927669551089	pulse	1.0	t		19.0	male	white	3.2522881018702745	neutral	018	sub-11	1.0	4.0	018_neutral	0.0		215.7098964004117	
20.0	123.89926893784195	pulse	1.0	t		19.0	male	white	3.2522881018702745	neutral	018	sub-11	1.0	4.0	018_neutral	0.0		216.40988864274277	
20.0	124.59925061525519	pulse	1.0	t		19.0	male	white	3.2522881018702745	neutral	018	sub-11	1.0	4.0	018_neutral	0.0		217.109870320156	
21.0	125.26579462825157	face	0.0		145	36.0	female	white	2.7548746518105847	neutral	011	sub-11	1.0	4.0	011_neutral	1.0	trustworthiness	217.7764143331524	1.2333126361554605
21.0	125.29926127073031	pulse	0.0	t		36.0	female	white	2.7548746518105847	neutral	011	sub-11	1.0	4.0	011_neutral	1.0	trustworthiness	217.80988097563113	
21.0	125.99921849790371	pulse	0.0	t		36.0	female	white	2.7548746518105847	neutral	011	sub-11	1.0	4.0	011_neutral	1.0	trustworthiness	218.50983820280453	
21.0	126.49910726440703	fix	1.0		178	36.0	female	white	2.7548746518105847	neutral	011	sub-11	1.0	4.0	011_neutral	1.0	trustworthiness	219.00972696930785	1.5083011581264145
21.0	126.69921587176668	pulse	1.0	t		36.0	female	white	2.7548746518105847	neutral	011	sub-11	1.0	4.0	011_neutral	1.0	trustworthiness	219.2098355766675	
21.0	127.39919634176113	pulse	1.0	t		36.0	female	white	2.7548746518105847	neutral	011	sub-11	1.0	4.0	011_neutral	1.0	trustworthiness	219.90981604666194	
21.0	128.00740842253344	rating	2.0		294	36.0	female	white	2.7548746518105847	neutral	011	sub-11	1.0	4.0	011_neutral	1.0	trustworthiness	220.51802812743426	2.4999458170623257
21.0	128.0991973378823	pulse	2.0	t		36.0	female	white	2.7548746518105847	neutral	011	sub-11	1.0	4.0	011_neutral	1.0	trustworthiness	220.6098170427831	
21.0	128.7991687522317	pulse	2.0	t		36.0	female	white	2.7548746518105847	neutral	011	sub-11	1.0	4.0	011_neutral	1.0	trustworthiness	221.30978845713253	
21.0	129.49915525932192	pulse	2.0	t		36.0	female	white	2.7548746518105847	neutral	011	sub-11	1.0	4.0	011_neutral	1.0	trustworthiness	222.00977496422274	
21.0	129.94914350207728	response	2.0	b		36.0	female	white	2.7548746518105847	neutral	011	sub-11	1.0	4.0	011_neutral	1.0	trustworthiness	222.4597632069781	
21.0	130.19914448310556	pulse	2.0	t		36.0	female	white	2.7548746518105847	neutral	011	sub-11	1.0	4.0	011_neutral	1.0	trustworthiness	222.70976418800637	
21.0	130.50735423959577	fix	3.0		444	36.0	female	white	2.7548746518105847	neutral	011	sub-11	1.0	4.0	011_neutral	1.0	trustworthiness	223.0179739444966	3.7665898647419453
21.0	130.89912736793758	pulse	3.0	t		36.0	female	white	2.7548746518105847	neutral	011	sub-11	1.0	4.0	011_neutral	1.0	trustworthiness	223.4097470728384	
21.0	131.59911055462453	pulse	3.0	t		36.0	female	white	2.7548746518105847	neutral	011	sub-11	1.0	4.0	011_neutral	1.0	trustworthiness	224.10973025952535	
21.0	132.2990913264739	pulse	3.0	t		36.0	female	white	2.7548746518105847	neutral	011	sub-11	1.0	4.0	011_neutral	1.0	trustworthiness	224.80971103137472	
21.0	132.99907692799934	pulse	3.0	t		36.0	female	white	2.7548746518105847	neutral	011	sub-11	1.0	4.0	011_neutral	1.0	trustworthiness	225.50969663290016	
21.0	133.69907641484588	pulse	3.0	t		36.0	female	white	2.7548746518105847	neutral	011	sub-11	1.0	4.0	011_neutral	1.0	trustworthiness	226.2096961197467	
22.0	134.27394410433772	face	0.0		145	22.0	female	white	4.614007162753682	smiling	009	sub-11	1.0	4.0	009_smiling	0.0		226.78456380923853	1.2333050897850626
22.0	134.39905779040419	pulse	0.0	t		22.0	female	white	4.614007162753682	smiling	009	sub-11	1.0	4.0	009_smiling	0.0		226.909677495305	
22.0	135.099036751124	pulse	0.0	t		22.0	female	white	4.614007162753682	smiling	009	sub-11	1.0	4.0	009_smiling	0.0		227.60965645602482	
22.0	135.50724919412278	fix	1.0		444	22.0	female	white	4.614007162753682	smiling	009	sub-11	1.0	4.0	009_smiling	0.0		228.0178688990236	3.758391488177949
22.0	135.79902476748885	pulse	1.0	t		22.0	female	white	4.614007162753682	smiling	009	sub-11	1.0	4.0	009_smiling	0.0		228.30964447238966	
22.0	136.49900704861102	pulse	1.0	t		22.0	female	white	4.614007162753682	smiling	009	sub-11	1.0	4.0	009_smiling	0.0		229.00962675351184	
22.0	137.19900261134535	pulse	1.0	t		22.0	female	white	4.614007162753682	smiling	009	sub-11	1.0	4.0	009_smiling	0.0		229.70962231624617	
22.0	137.89897764795296	pulse	1.0	t		22.0	female	white	4.614007162753682	smiling	009	sub-11	1.0	4.0	009_smiling	0.0		230.40959735285378	
22.0	138.59895781609248	pulse	1.0	t		22.0	female	white	4.614007162753682	smiling	009	sub-11	1.0	4.0	009_smiling	0.0		231.1095775209933	
23.0	139.26564068230073	face	0.0		146	27.0	female	white	4.181058495821727	smiling	039	sub-11	1.0	4.0	039_smiling	0.0		231.77626038720155	1.2415058811875497
23.0	139.29895609552023	pulse	0.0	t		27.0	female	white	4.181058495821727	smiling	039	sub-11	1.0	4.0	039_smiling	0.0		231.80957580042104	
23.0	139.9989356599499	pulse	0.0	t		27.0	female	white	4.181058495821727	smiling	039	sub-11	1.0	4.0	039_smiling	0.0		232.5095553648507	
23.0	140.50714656348828	fix	1.0		443	27.0	female	white	4.181058495821727	smiling	039	sub-11	1.0	4.0	039_smiling	0.0		233.0177662683891	3.7665883554682296
23.0	140.6989221670392	pulse	1.0	t		27.0	female	white	4.181058495821727	smiling	039	sub-11	1.0	4.0	039_smiling	0.0		233.20954187194002	
23.0	141.39890173146887	pulse	1.0	t		27.0	female	white	4.181058495821727	smiling	039	sub-11	1.0	4.0	039_smiling	0.0		233.9095214363697	
23.0	142.09888793670416	pulse	1.0	t		27.0	female	white	4.181058495821727	smiling	039	sub-11	1.0	4.0	039_smiling	0.0		234.60950764160498	
23.0	142.79887384008452	pulse	1.0	t		27.0	female	white	4.181058495821727	smiling	039	sub-11	1.0	4.0	039_smiling	0.0		235.30949354498534	
23.0	143.49885823419118	pulse	1.0	t		27.0	female	white	4.181058495821727	smiling	039	sub-11	1.0	4.0	039_smiling	0.0		236.009477939092	
23.0	144.19884806168466	pulse	1.0	t		27.0	female	white	4.181058495821727	smiling	039	sub-11	1.0	4.0	039_smiling	0.0		236.70946776658548	
24.0	144.2737349189565	face	0.0		146	28.0	male	white	3.9076800636689217	neutral	033	sub-11	1.0	4.0	033_neutral	0.0		236.78435462385733	1.2333084101874192
24.0	144.898838794742	pulse	0.0	t		28.0	male	white	3.9076800636689217	neutral	033	sub-11	1.0	4.0	033_neutral	0.0		237.40945849964282	
24.0	145.50704332914393	fix	1.0		443	28.0	male	white	3.9076800636689217	neutral	033	sub-11	1.0	4.0	033_neutral	0.0		238.01766303404474	3.7665886573231546
24.0	145.5988793338429	pulse	1.0	t		28.0	male	white	3.9076800636689217	neutral	033	sub-11	1.0	4.0	033_neutral	0.0		238.1094990387437	
24.0	146.29880426255204	pulse	1.0	t		28.0	male	white	3.9076800636689217	neutral	033	sub-11	1.0	4.0	033_neutral	0.0		238.80942396745286	
24.0	146.9987850344005	pulse	1.0	t		28.0	male	white	3.9076800636689217	neutral	033	sub-11	1.0	4.0	033_neutral	0.0		239.50940473930132	
24.0	147.69877667302262	pulse	1.0	t		28.0	male	white	3.9076800636689217	neutral	033	sub-11	1.0	4.0	033_neutral	0.0		240.20939637792344	
24.0	148.398757746726	pulse	1.0	t		28.0	male	white	3.9076800636689217	neutral	033	sub-11	1.0	4.0	033_neutral	0.0		240.90937745162682	
24.0	149.09874847978335	pulse	1.0	t		28.0	male	white	3.9076800636689217	neutral	033	sub-11	1.0	4.0	033_neutral	0.0		241.60936818468417	
25.0	149.27363198646708	face	0.0		146	19.0	male	white	2.243931555909272	smiling	130	sub-11	1.0	4.0	130_smiling	1.0	attractiveness	241.7842516913679	1.241644734399415
25.0	149.79873589243834	pulse	0.0	t		19.0	male	white	2.243931555909272	smiling	130	sub-11	1.0	4.0	130_smiling	1.0	attractiveness	242.30935559733916	
25.0	150.49871696614173	pulse	0.0	t		19.0	male	white	2.243931555909272	smiling	130	sub-11	1.0	4.0	130_smiling	1.0	attractiveness	243.00933667104255	
25.0	150.5152767208665	fix	1.0		176	19.0	male	white	2.243931555909272	smiling	130	sub-11	1.0	4.0	130_smiling	1.0	attractiveness	243.02589642576731	1.4916342449450894
25.0	151.19871856597183	pulse	1.0	t		19.0	male	white	2.243931555909272	smiling	130	sub-11	1.0	4.0	130_smiling	1.0	attractiveness	243.70933827087265	
25.0	151.8986866599189	pulse	1.0	t		19.0	male	white	2.243931555909272	smiling	130	sub-11	1.0	4.0	130_smiling	1.0	attractiveness	244.4093063648197	
25.0	152.00691096581158	rating	2.0		295	19.0	male	white	2.243931555909272	smiling	130	sub-11	1.0	4.0	130_smiling	1.0	attractiveness	244.5175306707124	2.4999473263360414
25.0	152.59867980781473	pulse	2.0	t		19.0	male	white	2.243931555909272	smiling	130	sub-11	1.0	4.0	130_smiling	1.0	attractiveness	245.10929951271555	
25.0	153.2986632963566	pulse	2.0	t		19.0	male	white	2.243931555909272	smiling	130	sub-11	1.0	4.0	130_smiling	1.0	attractiveness	245.80928300125743	
25.0	153.6850682388067	response	2.0	b		19.0	male	white	2.243931555909272	smiling	130	sub-11	1.0	4.0	130_smiling	1.0	attractiveness	246.19568794370753	
25.0	153.99869598723217	pulse	2.0	t		19.0	male	white	2.243931555909272	smiling	130	sub-11	1.0	4.0	130_smiling	1.0	attractiveness	246.509315692133	
25.0	154.50685829214763	fix	3.0		443	19.0	male	white	2.243931555909272	smiling	130	sub-11	1.0	4.0	130_smiling	1.0	attractiveness	247.01747799704845	3.766586242483754
25.0	154.69863631053704	pulse	3.0	t		19.0	male	white	2.243931555909272	smiling	130	sub-11	1.0	4.0	130_smiling	1.0	attractiveness	247.20925601543786	
25.0	155.39861496940193	pulse	3.0	t		19.0	male	white	2.243931555909272	smiling	130	sub-11	1.0	4.0	130_smiling	1.0	attractiveness	247.90923467430275	
25.0	156.098602080202	pulse	3.0	t		19.0	male	white	2.243931555909272	smiling	130	sub-11	1.0	4.0	130_smiling	1.0	attractiveness	248.60922178510282	
25.0	156.79859070027578	pulse	3.0	t		19.0	male	white	2.243931555909272	smiling	130	sub-11	1.0	4.0	130_smiling	1.0	attractiveness	249.3092104051766	
25.0	157.4985720758341	pulse	3.0	t		19.0	male	white	2.243931555909272	smiling	130	sub-11	1.0	4.0	130_smiling	1.0	attractiveness	250.0091917807349	
25.0	158.1985534513924	pulse	3.0	t		19.0	male	white	2.243931555909272	smiling	130	sub-11	1.0	4.0	130_smiling	1.0	attractiveness	250.70917315629322	
26.0	158.27344453463138	face	0.0		146	22.0	female	west_asian	3.8205332272184642	neutral	066	sub-11	1.0	4.0	066_neutral	0.0		250.7840642395322	1.2333108250268197
26.0	158.89855233453	pulse	0.0	t		22.0	female	west_asian	3.8205332272184642	neutral	066	sub-11	1.0	4.0	066_neutral	0.0		251.4091720394308	
26.0	159.5067553596582	fix	1.0		443	22.0	female	west_asian	3.8205332272184642	neutral	066	sub-11	1.0	4.0	066_neutral	0.0		252.01737506455902	3.7665877517583795
26.0	159.5985385397653	pulse	1.0	t		22.0	female	west_asian	3.8205332272184642	neutral	066	sub-11	1.0	4.0	066_neutral	0.0		252.1091582446661	
26.0	160.29851206709827	pulse	1.0	t		22.0	female	west_asian	3.8205332272184642	neutral	066	sub-11	1.0	4.0	066_neutral	0.0		252.8091317719991	
26.0	160.99849947975326	pulse	1.0	t		22.0	female	west_asian	3.8205332272184642	neutral	066	sub-11	1.0	4.0	066_neutral	0.0		253.50911918465408	
26.0	161.69848689240735	pulse	1.0	t		22.0	female	west_asian	3.8205332272184642	neutral	066	sub-11	1.0	4.0	066_neutral	0.0		254.20910659730816	
26.0	162.39848064401303	pulse	1.0	t		22.0	female	west_asian	3.8205332272184642	neutral	066	sub-11	1.0	4.0	066_neutral	0.0		254.90910034891385	
26.0	163.09845718989436	pulse	1.0	t		22.0	female	west_asian	3.8205332272184642	neutral	066	sub-11	1.0	4.0	066_neutral	0.0		255.60907689479518	
27.0	163.27334311141658	face	0.0		146	27.0	male	black	3.5523278949462798	smiling	042	sub-11	1.0	4.0	042_smiling	0.0		255.7839628163174	1.241642017705999
27.0	163.79844611182307	pulse	0.0	t		27.0	male	black	3.5523278949462798	smiling	042	sub-11	1.0	4.0	042_smiling	0.0		256.3090658167239	
27.0	164.4984329207682	pulse	0.0	t		27.0	male	black	3.5523278949462798	smiling	042	sub-11	1.0	4.0	042_smiling	0.0		257.009052625669	
27.0	164.51498512912258	fix	1.0		443	27.0	male	black	3.5523278949462798	smiling	042	sub-11	1.0	4.0	042_smiling	0.0		257.0256048340234	3.7582553516595
27.0	165.19842878535746	pulse	1.0	t		27.0	male	black	3.5523278949462798	smiling	042	sub-11	1.0	4.0	042_smiling	0.0		257.7090484902583	
27.0	165.89840110527166	pulse	1.0	t		27.0	male	black	3.5523278949462798	smiling	042	sub-11	1.0	4.0	042_smiling	0.0		258.4090208101725	
27.0	166.59838338639383	pulse	1.0	t		27.0	male	black	3.5523278949462798	smiling	042	sub-11	1.0	4.0	042_smiling	0.0		259.10900309129465	
27.0	167.29836476195214	pulse	1.0	t		27.0	male	black	3.5523278949462798	smiling	042	sub-11	1.0	4.0	042_smiling	0.0		259.80898446685296	
27.0	167.99835096718743	pulse	1.0	t		27.0	male	black	3.5523278949462798	smiling	042	sub-11	1.0	4.0	042_smiling	0.0		260.50897067208825	
28.0	168.27324048078208	face	0.0		145	19.0	female	white	4.298846000795861	smiling	100	sub-11	1.0	4.0	100_smiling	0.0		260.7838601856829	1.2333084101883287
28.0	168.69834713363161	pulse	0.0	t		19.0	female	white	4.298846000795861	smiling	100	sub-11	1.0	4.0	100_smiling	0.0		261.20896683853243	
28.0	169.3983294147547	pulse	0.0	t		19.0	female	white	4.298846000795861	smiling	100	sub-11	1.0	4.0	100_smiling	0.0		261.9089491196555	
28.0	169.5065488909704	fix	1.0		444	19.0	female	white	4.298846000795861	smiling	100	sub-11	1.0	4.0	100_smiling	0.0		262.0171685958712	3.7665871480485293
28.0	170.09831411071627	pulse	1.0	t		19.0	female	white	4.298846000795861	smiling	100	sub-11	1.0	4.0	100_smiling	0.0		262.6089338156171	
28.0	170.79829790111307	pulse	1.0	t		19.0	female	white	4.298846000795861	smiling	100	sub-11	1.0	4.0	100_smiling	0.0		263.3089176060139	
28.0	171.49828229521881	pulse	1.0	t		19.0	female	white	4.298846000795861	smiling	100	sub-11	1.0	4.0	100_smiling	0.0		264.00890200011963	
28.0	172.19826940601888	pulse	1.0	t		19.0	female	white	4.298846000795861	smiling	100	sub-11	1.0	4.0	100_smiling	0.0		264.7088891109197	
28.0	172.89825319641568	pulse	1.0	t		19.0	female	white	4.298846000795861	smiling	100	sub-11	1.0	4.0	100_smiling	0.0		265.4088729013165	
29.0	173.27313603901894	face	0.0		145	22.0	female	west_asian	3.8205332272184642	smiling	066	sub-11	1.0	4.0	066_smiling	0.0		265.78375574391976	1.2333081083334037
29.0	173.59824423132795	pulse	0.0	t		22.0	female	west_asian	3.8205332272184642	smiling	066	sub-11	1.0	4.0	066_smiling	0.0		266.1088639362288	
29.0	174.2982259087412	pulse	0.0	t		22.0	female	west_asian	3.8205332272184642	smiling	066	sub-11	1.0	4.0	066_smiling	0.0		266.808845613642	
29.0	174.50644414735234	fix	1.0		444	22.0	female	west_asian	3.8205332272184642	smiling	066	sub-11	1.0	4.0	066_smiling	0.0		267.01706385225316	3.7665895628870203
29.0	174.99821543437974	pulse	1.0	t		22.0	female	west_asian	3.8205332272184642	smiling	066	sub-11	1.0	4.0	066_smiling	0.0		267.50883513928056	
29.0	175.6981946969545	pulse	1.0	t		22.0	female	west_asian	3.8205332272184642	smiling	066	sub-11	1.0	4.0	066_smiling	0.0		268.2088144018553	
29.0	176.3981784873513	pulse	1.0	t		22.0	female	west_asian	3.8205332272184642	smiling	066	sub-11	1.0	4.0	066_smiling	0.0		268.9087981922521	
29.0	177.09816348516688	pulse	1.0	t		22.0	female	west_asian	3.8205332272184642	smiling	066	sub-11	1.0	4.0	066_smiling	0.0		269.6087831900677	
29.0	177.7981536145153	pulse	1.0	t		22.0	female	west_asian	3.8205332272184642	smiling	066	sub-11	1.0	4.0	066_smiling	0.0		270.3087733194161	
30.0	178.27303371023936	face	0.0		145	28.0	male	east_asian	1.5563072025467568	smiling	005	sub-11	1.0	4.0	005_smiling	0.0		270.7836534151402	1.2333072027686285
30.0	178.49814314015293	pulse	0.0	t		28.0	male	east_asian	1.5563072025467568	smiling	005	sub-11	1.0	4.0	005_smiling	0.0		271.00876284505375	
30.0	179.19812361014738	pulse	0.0	t		28.0	male	east_asian	1.5563072025467568	smiling	005	sub-11	1.0	4.0	005_smiling	0.0		271.7087433150482	
30.0	179.506340913008	fix	1.0		444	28.0	male	east_asian	1.5563072025467568	smiling	005	sub-11	1.0	4.0	005_smiling	0.0		272.0169606179088	3.7665898647419453
30.0	179.89811192836623	pulse	1.0	t		28.0	male	east_asian	1.5563072025467568	smiling	005	sub-11	1.0	4.0	005_smiling	0.0		272.40873163326705	
30.0	180.59808847424756	pulse	1.0	t		28.0	male	east_asian	1.5563072025467568	smiling	005	sub-11	1.0	4.0	005_smiling	0.0		273.1087081791484	
30.0	181.2980828295622	pulse	1.0	t		28.0	male	east_asian	1.5563072025467568	smiling	005	sub-11	1.0	4.0	005_smiling	0.0		273.808702534463	
30.0	181.99806360141156	pulse	1.0	t		28.0	male	east_asian	1.5563072025467568	smiling	005	sub-11	1.0	4.0	005_smiling	0.0		274.5086833063124	
30.0	182.6980516177755	pulse	1.0	t		28.0	male	east_asian	1.5563072025467568	smiling	005	sub-11	1.0	4.0	005_smiling	0.0		275.2086713226763	
31.0	183.27293077774993	face	0.0		145	40.0	male	white	1.868682849184242	smiling	172	sub-11	1.0	4.0	172_smiling	0.0		275.78355048265075	1.2333072027686285
31.0	183.3980505009131	pulse	0.0	t		40.0	male	white	1.868682849184242	smiling	172	sub-11	1.0	4.0	172_smiling	0.0		275.9086702058139	
31.0	184.0980231226813	pulse	0.0	t		40.0	male	white	1.868682849184242	smiling	172	sub-11	1.0	4.0	172_smiling	0.0		276.6086428275821	
31.0	184.50623798051856	fix	1.0		444	40.0	male	white	1.868682849184242	smiling	172	sub-11	1.0	4.0	172_smiling	0.0		277.0168576854194	3.7665925814353614
31.0	184.7983477071557	pulse	1.0	t		40.0	male	white	1.868682849184242	smiling	172	sub-11	1.0	4.0	172_smiling	0.0		277.3089674120565	
31.0	185.4979943257331	pulse	1.0	t		40.0	male	white	1.868682849184242	smiling	172	sub-11	1.0	4.0	172_smiling	0.0		278.0086140306339	
31.0	186.19797509758155	pulse	1.0	t		40.0	male	white	1.868682849184242	smiling	172	sub-11	1.0	4.0	172_smiling	0.0		278.70859480248237	
31.0	186.89796432136518	pulse	1.0	t		40.0	male	white	1.868682849184242	smiling	172	sub-11	1.0	4.0	172_smiling	0.0		279.408584026266	
31.0	187.5979496210366	pulse	1.0	t		40.0	male	white	1.868682849184242	smiling	172	sub-11	1.0	4.0	172_smiling	0.0		280.1085693259374	
32.0	188.27283056195392	face	0.0		145	54.0	female	white	2.286908077994429	smiling	136	sub-11	1.0	4.0	136_smiling	0.0		280.78345026685474	1.2333059953498378
32.0	188.2979992157807	pulse	0.0	t		54.0	female	white	2.286908077994429	smiling	136	sub-11	1.0	4.0	136_smiling	0.0		280.8086189206815	
32.0	188.9979274648931	pulse	0.0	t		54.0	female	white	2.286908077994429	smiling	136	sub-11	1.0	4.0	136_smiling	0.0		281.5085471697939	
32.0	189.50613655730376	fix	1.0		443	54.0	female	white	2.286908077994429	smiling	136	sub-11	1.0	4.0	136_smiling	0.0		282.0167562622046	3.7665853369198885
32.0	189.69791185899976	pulse	1.0	t		54.0	female	white	2.286908077994429	smiling	136	sub-11	1.0	4.0	136_smiling	0.0		282.2085315639006	
32.0	190.39788780117124	pulse	1.0	t		54.0	female	white	2.286908077994429	smiling	136	sub-11	1.0	4.0	136_smiling	0.0		282.90850750607206	
32.0	191.09787159156895	pulse	1.0	t		54.0	female	white	2.286908077994429	smiling	136	sub-11	1.0	4.0	136_smiling	0.0		283.60849129646977	
32.0	191.79788103962437	pulse	1.0	t		54.0	female	white	2.286908077994429	smiling	136	sub-11	1.0	4.0	136_smiling	0.0		284.3085007445252	
32.0	192.49784822800666	pulse	1.0	t		54.0	female	white	2.286908077994429	smiling	136	sub-11	1.0	4.0	136_smiling	0.0		285.0084679329075	
32.0	193.19783111283868	pulse	1.0	t		54.0	female	white	2.286908077994429	smiling	136	sub-11	1.0	4.0	136_smiling	0.0		285.7084508177395	
33.0	193.27272189422365	face	0.0		146	25.0	female	black	3.858336649423	neutral	126	sub-11	1.0	4.0	126_neutral	0.0		285.78334159912447	1.2333090138972693
33.0	193.8978275811378	pulse	0.0	t		25.0	female	black	3.858336649423	neutral	126	sub-11	1.0	4.0	126_neutral	0.0		286.4084472860386	
33.0	194.50603090812092	fix	1.0		443	25.0	female	black	3.858336649423	neutral	126	sub-11	1.0	4.0	126_neutral	0.0		287.01665061302174	3.7665880536133045
33.0	194.59780956040595	pulse	1.0	t		25.0	female	black	3.858336649423	neutral	126	sub-11	1.0	4.0	126_neutral	0.0		287.10842926530677	
33.0	195.29779576564124	pulse	1.0	t		25.0	female	black	3.858336649423	neutral	126	sub-11	1.0	4.0	126_neutral	0.0		287.80841547054206	
33.0	195.99777593377985	pulse	1.0	t		25.0	female	black	3.858336649423	neutral	126	sub-11	1.0	4.0	126_neutral	0.0		288.50839563868067	
33.0	196.69776002603157	pulse	1.0	t		25.0	female	black	3.858336649423	neutral	126	sub-11	1.0	4.0	126_neutral	0.0		289.2083797309324	
33.0	197.39774834425043	pulse	1.0	t		25.0	female	black	3.858336649423	neutral	126	sub-11	1.0	4.0	126_neutral	0.0		289.90836804915125	
33.0	198.0977457181143	pulse	1.0	t		25.0	female	black	3.858336649423	neutral	126	sub-11	1.0	4.0	126_neutral	0.0		290.60836542301513	
34.0	198.27261896173422	face	0.0		146	34.0	male	white	2.651014723438122	smiling	121	sub-11	1.0	4.0	121_smiling	0.0		290.78323866663504	1.24164443254449
34.0	198.79772347141443	pulse	0.0	t		34.0	male	white	2.651014723438122	smiling	121	sub-11	1.0	4.0	121_smiling	0.0		291.30834317631525	
34.0	199.49770273398917	pulse	0.0	t		34.0	male	white	2.651014723438122	smiling	121	sub-11	1.0	4.0	121_smiling	0.0		292.00832243889	
34.0	199.51426339427871	fix	1.0		443	34.0	male	white	2.651014723438122	smiling	121	sub-11	1.0	4.0	121_smiling	0.0		292.02488309917953	3.7582535405299495
34.0	200.19769346704652	pulse	1.0	t		34.0	male	white	2.651014723438122	smiling	121	sub-11	1.0	4.0	121_smiling	0.0		292.70831317194734	
34.0	200.89767393704096	pulse	1.0	t		34.0	male	white	2.651014723438122	smiling	121	sub-11	1.0	4.0	121_smiling	0.0		293.4082936419418	
34.0	201.59766497195324	pulse	1.0	t		34.0	male	white	2.651014723438122	smiling	121	sub-11	1.0	4.0	121_smiling	0.0		294.10828467685405	
34.0	202.2976596291228	pulse	1.0	t		34.0	male	white	2.651014723438122	smiling	121	sub-11	1.0	4.0	121_smiling	0.0		294.8082793340236	
34.0	202.9976560974219	pulse	1.0	t		34.0	male	white	2.651014723438122	smiling	121	sub-11	1.0	4.0	121_smiling	0.0		295.5082758023227	
35.0	203.27251693480866	face	0.0		145	20.0	male	black	2.609629924393156	neutral	043	sub-11	1.0	4.0	043_neutral	0.0		295.7831366397095	1.2333078064784786
35.0	203.69762298394926	pulse	0.0	t		20.0	male	black	2.609629924393156	neutral	043	sub-11	1.0	4.0	043_neutral	0.0		296.2082426888501	
35.0	204.39760798176576	pulse	0.0	t		20.0	male	black	2.609629924393156	neutral	043	sub-11	1.0	4.0	043_neutral	0.0		296.9082276866666	
35.0	204.50582474128714	fix	1.0		444	20.0	male	black	2.609629924393156	neutral	043	sub-11	1.0	4.0	043_neutral	0.0		297.01644444618796	3.7665874499034544
35.0	205.09759267772642	pulse	1.0	t		20.0	male	black	2.609629924393156	neutral	043	sub-11	1.0	4.0	043_neutral	0.0		297.60821238262724	
35.0	205.79757526070443	pulse	1.0	t		20.0	male	black	2.609629924393156	neutral	043	sub-11	1.0	4.0	043_neutral	0.0		298.30819496560525	
35.0	206.4975623715036	pulse	1.0	t		20.0	male	black	2.609629924393156	neutral	043	sub-11	1.0	4.0	043_neutral	0.0		299.0081820764044	
35.0	207.19754797302994	pulse	1.0	t		20.0	male	black	2.609629924393156	neutral	043	sub-11	1.0	4.0	043_neutral	0.0		299.70816767793076	
35.0	207.89753538568402	pulse	1.0	t		20.0	male	black	2.609629924393156	neutral	043	sub-11	1.0	4.0	043_neutral	0.0		300.40815509058484	
36.0	208.2724121911906	face	0.0		145	24.0	male	white	3.1153999204138483	neutral	012	sub-11	1.0	4.0	012_neutral	0.0		300.7830318960914	1.2333087120432538
36.0	208.59752068535545	pulse	0.0	t		24.0	male	white	3.1153999204138483	neutral	012	sub-11	1.0	4.0	012_neutral	0.0		301.10814039025627	
36.0	209.2975050794612	pulse	0.0	t		24.0	male	white	3.1153999204138483	neutral	012	sub-11	1.0	4.0	012_neutral	0.0		301.808124784362	
36.0	209.50572090323385	fix	1.0		444	24.0	male	white	3.1153999204138483	neutral	012	sub-11	1.0	4.0	012_neutral	0.0		302.01634060813467	3.7665877517583795
36.0	209.9974891717129	pulse	1.0	t		24.0	male	white	3.1153999204138483	neutral	012	sub-11	1.0	4.0	012_neutral	0.0		302.50810887661373	
36.0	210.69747054727122	pulse	1.0	t		24.0	male	white	3.1153999204138483	neutral	012	sub-11	1.0	4.0	012_neutral	0.0		303.20809025217204	
36.0	211.39745705436144	pulse	1.0	t		24.0	male	white	3.1153999204138483	neutral	012	sub-11	1.0	4.0	012_neutral	0.0		303.90807675926226	
36.0	212.0974429577418	pulse	1.0	t		24.0	male	white	3.1153999204138483	neutral	012	sub-11	1.0	4.0	012_neutral	0.0		304.6080626626426	
36.0	212.7974303703968	pulse	1.0	t		24.0	male	white	3.1153999204138483	neutral	012	sub-11	1.0	4.0	012_neutral	0.0		305.3080500752976	
37.0	213.27230865499223	face	0.0		145	37.0	male	white	3.898925586947871	smiling	101	sub-11	1.0	4.0	101_smiling	1.0	dominance	305.78292835989305	1.2333108250268197
37.0	213.49742110345414	pulse	0.0	t		37.0	male	white	3.898925586947871	smiling	101	sub-11	1.0	4.0	101_smiling	1.0	dominance	306.00804080835496	
37.0	214.1974015734486	pulse	0.0	t		37.0	male	white	3.898925586947871	smiling	101	sub-11	1.0	4.0	101_smiling	1.0	dominance	306.7080212783494	
37.0	214.50561948001905	fix	1.0		177	37.0	male	white	3.898925586947871	smiling	101	sub-11	1.0	4.0	101_smiling	1.0	dominance	307.01623918491987	1.4999672487529097
37.0	214.89738958981252	pulse	1.0	t		37.0	male	white	3.898925586947871	smiling	101	sub-11	1.0	4.0	101_smiling	1.0	dominance	307.40800929471334	
37.0	215.59737036166098	pulse	1.0	t		37.0	male	white	3.898925586947871	smiling	101	sub-11	1.0	4.0	101_smiling	1.0	dominance	308.1079900665618	
37.0	216.00558672877196	rating	2.0		294	37.0	male	white	3.898925586947871	smiling	101	sub-11	1.0	4.0	101_smiling	1.0	dominance	308.5162064336728	2.4999485337557417
37.0	216.29736411326667	pulse	2.0	t		37.0	male	white	3.898925586947871	smiling	101	sub-11	1.0	4.0	101_smiling	1.0	dominance	308.8079838181675	
37.0	216.99734880922824	pulse	2.0	t		37.0	male	white	3.898925586947871	smiling	101	sub-11	1.0	4.0	101_smiling	1.0	dominance	309.50796851412906	
37.0	217.69733259962504	pulse	2.0	t		37.0	male	white	3.898925586947871	smiling	101	sub-11	1.0	4.0	101_smiling	1.0	dominance	310.20795230452586	
37.0	217.83898913654684	response	2.0	y		37.0	male	white	3.898925586947871	smiling	101	sub-11	1.0	4.0	101_smiling	1.0	dominance	310.34960884144766	
37.0	218.39730401397446	pulse	2.0	t		37.0	male	white	3.898925586947871	smiling	101	sub-11	1.0	4.0	101_smiling	1.0	dominance	310.9079237188753	
37.0	218.5055352625277	fix	3.0		444	37.0	male	white	3.898925586947871	smiling	101	sub-11	1.0	4.0	101_smiling	1.0	dominance	311.0161549674285	3.7665892610320952
37.0	219.09731678243315	pulse	3.0	t		37.0	male	white	3.898925586947871	smiling	101	sub-11	1.0	4.0	101_smiling	1.0	dominance	311.607936487334	
37.0	219.797286083799	pulse	3.0	t		37.0	male	white	3.898925586947871	smiling	101	sub-11	1.0	4.0	101_smiling	1.0	dominance	312.3079057886998	
37.0	220.49727077976058	pulse	3.0	t		37.0	male	white	3.898925586947871	smiling	101	sub-11	1.0	4.0	101_smiling	1.0	dominance	313.0078904846614	
37.0	221.19725245717382	pulse	3.0	t		37.0	male	white	3.898925586947871	smiling	101	sub-11	1.0	4.0	101_smiling	1.0	dominance	313.70787216207464	
37.0	221.89724047353775	pulse	3.0	t		37.0	male	white	3.898925586947871	smiling	101	sub-11	1.0	4.0	101_smiling	1.0	dominance	314.40786017843857	
38.0	222.2721245235598	face	0.0		145	24.0	female	black	3.0955033824114606	neutral	099	sub-11	1.0	4.0	099_neutral	0.0		314.7827442284606	1.2333072027686285
38.0	222.5972336214336	pulse	0.0	t		24.0	female	black	3.0955033824114606	neutral	099	sub-11	1.0	4.0	099_neutral	0.0		315.1078533263344	
38.0	223.29721710997546	pulse	0.0	t		24.0	female	black	3.0955033824114606	neutral	099	sub-11	1.0	4.0	099_neutral	0.0		315.8078368148763	
38.0	223.50543172632842	fix	1.0		444	24.0	female	black	3.0955033824114606	neutral	099	sub-11	1.0	4.0	099_neutral	0.0		316.01605143122924	3.7665856387748136
38.0	223.9972039189206	pulse	1.0	t		24.0	female	black	3.0955033824114606	neutral	099	sub-11	1.0	4.0	099_neutral	0.0		316.5078236238214	
38.0	224.69718680375263	pulse	1.0	t		24.0	female	black	3.0955033824114606	neutral	099	sub-11	1.0	4.0	099_neutral	0.0		317.20780650865345	
38.0	225.3971687830208	pulse	1.0	t		24.0	female	black	3.0955033824114606	neutral	099	sub-11	1.0	4.0	099_neutral	0.0		317.9077884879216	
38.0	226.0971528752725	pulse	1.0	t		24.0	female	black	3.0955033824114606	neutral	099	sub-11	1.0	4.0	099_neutral	0.0		318.60777258017333	
38.0	226.79714119349137	pulse	1.0	t		24.0	female	black	3.0955033824114606	neutral	099	sub-11	1.0	4.0	099_neutral	0.0		319.3077608983922	
39.0	227.27201736510324	face	0.0		145	31.0	female	east_asian	3.395941106247513	smiling	087	sub-11	1.0	4.0	087_smiling	0.0		319.78263707000406	1.2333090138972693
39.0	227.49713011542008	pulse	0.0	t		31.0	female	east_asian	3.395941106247513	smiling	087	sub-11	1.0	4.0	087_smiling	0.0		320.0077498203209	
39.0	228.19710817057512	pulse	0.0	t		31.0	female	east_asian	3.395941106247513	smiling	087	sub-11	1.0	4.0	087_smiling	0.0		320.70772787547594	
39.0	228.5053263790005	fix	1.0		444	31.0	female	east_asian	3.395941106247513	smiling	087	sub-11	1.0	4.0	087_smiling	0.0		321.0159460839013	3.7499214422869045
39.0	228.89710645000287	pulse	1.0	t		31.0	female	east_asian	3.395941106247513	smiling	087	sub-11	1.0	4.0	087_smiling	0.0		321.4077261549037	
39.0	229.59708329773912	pulse	1.0	t		31.0	female	east_asian	3.395941106247513	smiling	087	sub-11	1.0	4.0	087_smiling	0.0		322.10770300263994	
39.0	230.29706467329743	pulse	1.0	t		31.0	female	east_asian	3.395941106247513	smiling	087	sub-11	1.0	4.0	087_smiling	0.0		322.80768437819825	
39.0	230.99705751933925	pulse	1.0	t		31.0	female	east_asian	3.395941106247513	smiling	087	sub-11	1.0	4.0	087_smiling	0.0		323.50767722424007	
39.0	231.6970407060262	pulse	1.0	t		31.0	female	east_asian	3.395941106247513	smiling	087	sub-11	1.0	4.0	087_smiling	0.0		324.207660410927	
40.0	232.2552478212874	fix	0.0		720													324.76586752618823	5.999876843238781
40.0	232.39702992980983	pulse	0.0	t														324.90764963471065	
40.0	233.09700496641653	pulse	0.0	t														325.60762467131735	
40.0	233.79699630318373	pulse	0.0	t														326.30761600808455	
40.0	234.4969846214026	pulse	0.0	t														327.0076043263034	
40.0	235.19696539325196	pulse	0.0	t														327.7075850981528	
40.0	235.8969688042107	pulse	0.0	t														328.4075885091115	
40.0	236.596950179769	pulse	0.0	t														329.10756988466983	
40.0	237.29692008484471	pulse	0.0	t														329.80753978974553	
40.0	237.9969087049185	pulse	0.0	t														330.5075284098193	
