trial_nr	onset	event_type	phase	response	nr_frames	face_age	face_sex	face_eth	attractiveness	expression	face_id	sub_id	ses	run	trial_type	catch	rating_type	onset_abs	duration
-1.0	0.05505576633504461	fix	0.0		714													22.871684756376908	5.966352746781467
-1.0	0.7049619948561485	pulse	0.0	t														23.521590984898012	
-1.0	1.4049343146866704	pulse	0.0	t														24.221563304728534	
-1.0	2.1049298774073577	pulse	0.0	t														24.92155886744922	
-1.0	2.804918799302868	pulse	0.0	t														25.62154778934473	
-1.0	3.504906211919206	pulse	0.0	t														26.32153520196107	
-1.0	4.204888191132795	pulse	0.0	t														27.02151718117466	
-1.0	4.904882244575219	pulse	0.0	t														27.721511234617083	
-1.0	5.604867544201625	pulse	0.0	t														28.421496534243488	
0.0	6.021408513116512	face	0.0		144	25.0	female	west_asian	2.6756864305610826	neutral	064	sub-13	2.0	3.0	064_neutral	0.0		28.838037503158375	1.233325716507352
0.0	6.304863710633981	pulse	0.0	t		25.0	female	west_asian	2.6756864305610826	neutral	064	sub-13	2.0	3.0	064_neutral	0.0		29.121492700675844	
0.0	7.004845387991736	pulse	0.0	t		25.0	female	west_asian	2.6756864305610826	neutral	064	sub-13	2.0	3.0	064_neutral	0.0		29.8214743780336	
0.0	7.254734229623864	fix	1.0		445	25.0	female	west_asian	2.6756864305610826	neutral	064	sub-13	2.0	3.0	064_neutral	0.0		30.071363219665727	3.758248282968907
0.0	7.704834913598461	pulse	1.0	t		25.0	female	west_asian	2.6756864305610826	neutral	064	sub-13	2.0	3.0	064_neutral	0.0		30.521463903640324	
0.0	8.40479757404637	pulse	1.0	t		25.0	female	west_asian	2.6756864305610826	neutral	064	sub-13	2.0	3.0	064_neutral	0.0		31.221426564088233	
0.0	9.104816379657223	pulse	1.0	t		25.0	female	west_asian	2.6756864305610826	neutral	064	sub-13	2.0	3.0	064_neutral	0.0		31.921445369699086	
0.0	9.804801981139462	pulse	1.0	t		25.0	female	west_asian	2.6756864305610826	neutral	064	sub-13	2.0	3.0	064_neutral	0.0		32.621430971181326	
0.0	10.504782752930168	pulse	1.0	t		25.0	female	west_asian	2.6756864305610826	neutral	064	sub-13	2.0	3.0	064_neutral	0.0		33.32141174297203	
1.0	11.012982512592771	face	0.0		146	22.0	male	black	2.767608436132113	smiling	044	sub-13	2.0	3.0	044_smiling	0.0		33.829611502634634	1.2416599528924053
1.0	11.204772278536893	pulse	0.0	t		22.0	male	black	2.767608436132113	smiling	044	sub-13	2.0	3.0	044_smiling	0.0		34.02140126857876	
1.0	11.904763313422336	pulse	0.0	t		22.0	male	black	2.767608436132113	smiling	044	sub-13	2.0	3.0	044_smiling	0.0		34.7213923034642	
1.0	12.254642465485176	fix	1.0		445	22.0	male	black	2.767608436132113	smiling	044	sub-13	2.0	3.0	044_smiling	0.0		35.07127145552704	3.7665828212102497
1.0	12.604747405625858	pulse	1.0	t		22.0	male	black	2.767608436132113	smiling	044	sub-13	2.0	3.0	044_smiling	0.0		35.42137639566772	
1.0	13.304725762570797	pulse	1.0	t		22.0	male	black	2.767608436132113	smiling	044	sub-13	2.0	3.0	044_smiling	0.0		36.12135475261266	
1.0	14.004716797455785	pulse	1.0	t		22.0	male	black	2.767608436132113	smiling	044	sub-13	2.0	3.0	044_smiling	0.0		36.82134578749765	
1.0	14.704708737908277	pulse	1.0	t		22.0	male	black	2.767608436132113	smiling	044	sub-13	2.0	3.0	044_smiling	0.0		37.52133772795014	
1.0	15.40469192454475	pulse	1.0	t		22.0	male	black	2.767608436132113	smiling	044	sub-13	2.0	3.0	044_smiling	0.0		38.22132091458661	
2.0	16.021225286695426	face	0.0		145	37.0	male	white	3.898925586947871	smiling	101	sub-13	2.0	3.0	101_smiling	0.0		38.83785427673729	1.2333290369201677
2.0	16.104686883554223	pulse	0.0	t		37.0	male	white	3.898925586947871	smiling	101	sub-13	2.0	3.0	101_smiling	0.0		38.921315873596086	
2.0	16.80467037204653	pulse	0.0	t		37.0	male	white	3.898925586947871	smiling	101	sub-13	2.0	3.0	101_smiling	0.0		39.62129936208839	
2.0	17.254554323615594	fix	1.0		444	37.0	male	white	3.898925586947871	smiling	101	sub-13	2.0	3.0	101_smiling	0.0		40.07118331365746	3.7582446607007114
2.0	17.504662916210236	pulse	1.0	t		37.0	male	white	3.898925586947871	smiling	101	sub-13	2.0	3.0	101_smiling	0.0		40.3212919062521	
2.0	18.204643989856777	pulse	1.0	t		37.0	male	white	3.898925586947871	smiling	101	sub-13	2.0	3.0	101_smiling	0.0		41.02127297989864	
2.0	18.90463623216465	pulse	1.0	t		37.0	male	white	3.898925586947871	smiling	101	sub-13	2.0	3.0	101_smiling	0.0		41.72126522220651	
2.0	19.604609759418054	pulse	1.0	t		37.0	male	white	3.898925586947871	smiling	101	sub-13	2.0	3.0	101_smiling	0.0		42.42123874945992	
2.0	20.30460924626368	pulse	1.0	t		37.0	male	white	3.898925586947871	smiling	101	sub-13	2.0	3.0	101_smiling	0.0		43.121238236305544	
3.0	21.012798984316305	face	0.0		146	26.0	female	white	4.854755272582572	smiling	027	sub-13	2.0	3.0	027_smiling	0.0		43.82942797435817	1.2416690085638038
3.0	21.00581706154935	pulse	0.0	t		26.0	female	white	4.854755272582572	smiling	027	sub-13	2.0	3.0	027_smiling	0.0		43.822446051591214	
3.0	21.70458527891924	pulse	0.0	t		26.0	female	white	4.854755272582572	smiling	027	sub-13	2.0	3.0	027_smiling	0.0		44.5212142689611	
3.0	22.25446799288011	fix	1.0		443	26.0	female	white	4.854755272582572	smiling	027	sub-13	2.0	3.0	027_smiling	0.0		45.07109698292197	3.758247377401858
3.0	22.404575408237633	pulse	1.0	t		26.0	female	white	4.854755272582572	smiling	027	sub-13	2.0	3.0	027_smiling	0.0		45.2212043982795	
3.0	23.104562518998137	pulse	1.0	t		26.0	female	white	4.854755272582572	smiling	027	sub-13	2.0	3.0	027_smiling	0.0		45.92119150904	
3.0	23.804544196356346	pulse	1.0	t		26.0	female	white	4.854755272582572	smiling	027	sub-13	2.0	3.0	027_smiling	0.0		46.62117318639821	
3.0	24.504536136808383	pulse	1.0	t		26.0	female	white	4.854755272582572	smiling	027	sub-13	2.0	3.0	027_smiling	0.0		47.32116512685025	
3.0	25.204494873131807	pulse	1.0	t		26.0	female	white	4.854755272582572	smiling	027	sub-13	2.0	3.0	027_smiling	0.0		48.02112386317367	
3.0	25.904501302658446	pulse	1.0	t		26.0	female	white	4.854755272582572	smiling	027	sub-13	2.0	3.0	027_smiling	0.0		48.72113029270031	
4.0	26.012715370281967	face	0.0		147	31.0	female	white	2.1822522881018704	smiling	102	sub-13	2.0	3.0	102_smiling	0.0		48.82934436032383	1.2416602547482398
4.0	26.604497469090802	pulse	0.0	t		31.0	female	white	2.1822522881018704	smiling	102	sub-13	2.0	3.0	102_smiling	0.0		49.421126459132665	
4.0	27.254375625030207	fix	1.0		443	31.0	female	white	2.1822522881018704	smiling	102	sub-13	2.0	3.0	102_smiling	0.0		50.07100461507207	3.7582751481281775
4.0	27.30448729655336	pulse	1.0	t		31.0	female	white	2.1822522881018704	smiling	102	sub-13	2.0	3.0	102_smiling	0.0		50.121116286595225	
4.0	28.004472596179767	pulse	1.0	t		31.0	female	white	2.1822522881018704	smiling	102	sub-13	2.0	3.0	102_smiling	0.0		50.82110158622163	
4.0	28.70445880137322	pulse	1.0	t		31.0	female	white	2.1822522881018704	smiling	102	sub-13	2.0	3.0	102_smiling	0.0		51.521087791415084	
4.0	29.40444228986553	pulse	1.0	t		31.0	female	white	2.1822522881018704	smiling	102	sub-13	2.0	3.0	102_smiling	0.0		52.22107127990739	
4.0	30.104425778357836	pulse	1.0	t		31.0	female	white	2.1822522881018704	smiling	102	sub-13	2.0	3.0	102_smiling	0.0		52.9210547683997	
4.0	30.804414398397057	pulse	1.0	t		31.0	female	white	2.1822522881018704	smiling	102	sub-13	2.0	3.0	102_smiling	0.0		53.62104338843892	
5.0	31.012650773158384	face	0.0		146	22.0	female	west_asian	3.8205332272184642	neutral	066	sub-13	2.0	3.0	066_neutral	0.0		53.82927976320025	1.241641539693319
5.0	31.50441297967518	pulse	0.0	t		22.0	female	west_asian	3.8205332272184642	neutral	066	sub-13	2.0	3.0	066_neutral	0.0		54.321041969717044	
5.0	32.20439465703339	pulse	0.0	t		22.0	female	west_asian	3.8205332272184642	neutral	066	sub-13	2.0	3.0	066_neutral	0.0		55.02102364707525	
5.0	32.2542923128517	fix	1.0		445	22.0	female	west_asian	3.8205332272184642	neutral	066	sub-13	2.0	3.0	066_neutral	0.0		55.07092130289357	3.7665828212102497
5.0	32.90438840861998	pulse	1.0	t		22.0	female	west_asian	3.8205332272184642	neutral	066	sub-13	2.0	3.0	066_neutral	0.0		55.72101739866184	
5.0	33.60437793422625	pulse	1.0	t		22.0	female	west_asian	3.8205332272184642	neutral	066	sub-13	2.0	3.0	066_neutral	0.0		56.42100692426811	
5.0	34.30434934848972	pulse	1.0	t		22.0	female	west_asian	3.8205332272184642	neutral	066	sub-13	2.0	3.0	066_neutral	0.0		57.120978338531586	
5.0	35.004348533479515	pulse	1.0	t		22.0	female	west_asian	3.8205332272184642	neutral	066	sub-13	2.0	3.0	066_neutral	0.0		57.82097752352138	
5.0	35.70433534238464	pulse	1.0	t		22.0	female	west_asian	3.8205332272184642	neutral	066	sub-13	2.0	3.0	066_neutral	0.0		58.5209643324265	
6.0	36.02087513406195	face	0.0		145	27.0	female	white	4.181058495821727	smiling	039	sub-13	2.0	3.0	039_smiling	0.0		58.837504124103816	1.2333251127956828
6.0	36.40432396242386	pulse	0.0	t		27.0	female	white	4.181058495821727	smiling	039	sub-13	2.0	3.0	039_smiling	0.0		59.22095295246572	
6.0	37.10431560102052	pulse	0.0	t		27.0	female	white	4.181058495821727	smiling	039	sub-13	2.0	3.0	039_smiling	0.0		59.92094459106238	
6.0	37.254200246857636	fix	1.0		445	27.0	female	white	4.181058495821727	smiling	039	sub-13	2.0	3.0	039_smiling	0.0		60.0708292368995	3.7665816137873662
6.0	37.804305428483076	pulse	1.0	t		27.0	female	white	4.181058495821727	smiling	039	sub-13	2.0	3.0	039_smiling	0.0		60.62093441852494	
6.0	38.50426446666188	pulse	1.0	t		27.0	female	white	4.181058495821727	smiling	039	sub-13	2.0	3.0	039_smiling	0.0		61.32089345670374	
6.0	39.20427059433314	pulse	1.0	t		27.0	female	white	4.181058495821727	smiling	039	sub-13	2.0	3.0	039_smiling	0.0		62.020899584375	
6.0	39.90426344035268	pulse	1.0	t		27.0	female	white	4.181058495821727	smiling	039	sub-13	2.0	3.0	039_smiling	0.0		62.72089243039454	
6.0	40.604248739979084	pulse	1.0	t		27.0	female	white	4.181058495821727	smiling	039	sub-13	2.0	3.0	039_smiling	0.0		63.42087773002095	
7.0	41.020781860645	face	0.0		145	19.0	male	white	2.243931555909272	neutral	130	sub-13	2.0	3.0	130_neutral	0.0		63.837410850686865	1.233313944134352
7.0	41.30423917115286	pulse	0.0	t		19.0	male	white	2.243931555909272	neutral	130	sub-13	2.0	3.0	130_neutral	0.0		64.12086816119472	
7.0	42.00420998170466	pulse	0.0	t		19.0	male	white	2.243931555909272	neutral	130	sub-13	2.0	3.0	130_neutral	0.0		64.82083897174653	
7.0	42.254095804779354	fix	1.0		445	19.0	male	white	2.243931555909272	neutral	130	sub-13	2.0	3.0	130_neutral	0.0		65.07072479482122	3.766597612140231
7.0	42.704205846281184	pulse	1.0	t		19.0	male	white	2.243931555909272	neutral	130	sub-13	2.0	3.0	130_neutral	0.0		65.52083483632305	
7.0	43.40419929601239	pulse	1.0	t		19.0	male	white	2.243931555909272	neutral	130	sub-13	2.0	3.0	130_neutral	0.0		66.22082828605426	
7.0	44.104178860380216	pulse	1.0	t		19.0	male	white	2.243931555909272	neutral	130	sub-13	2.0	3.0	130_neutral	0.0		66.92080785042208	
7.0	44.804181365782824	pulse	1.0	t		19.0	male	white	2.243931555909272	neutral	130	sub-13	2.0	3.0	130_neutral	0.0		67.62081035582469	
7.0	45.50416304314058	pulse	1.0	t		19.0	male	white	2.243931555909272	neutral	130	sub-13	2.0	3.0	130_neutral	0.0		68.32079203318244	
8.0	46.020693416919585	face	0.0		145	24.0	female	black	3.0955033824114606	smiling	099	sub-13	2.0	3.0	099_smiling	1.0	trustworthiness	68.83732240696145	1.2333284332084986
8.0	46.204151965035635	pulse	0.0	t		24.0	female	black	3.0955033824114606	smiling	099	sub-13	2.0	3.0	099_smiling	1.0	trustworthiness	69.0207809550775	
8.0	46.90413575538378	pulse	0.0	t		24.0	female	black	3.0955033824114606	smiling	099	sub-13	2.0	3.0	099_smiling	1.0	trustworthiness	69.72076474542564	
8.0	47.25402185012808	fix	1.0		177	24.0	female	black	3.0955033824114606	smiling	099	sub-13	2.0	3.0	099_smiling	1.0	trustworthiness	70.07065084016995	1.508328652054388
8.0	47.604126790268765	pulse	1.0	t		24.0	female	black	3.0955033824114606	smiling	099	sub-13	2.0	3.0	099_smiling	1.0	trustworthiness	70.42075578031063	
8.0	48.30411118432812	pulse	1.0	t		24.0	female	black	3.0955033824114606	smiling	099	sub-13	2.0	3.0	099_smiling	1.0	trustworthiness	71.12074017436998	
8.0	48.76235050218247	rating	2.0		293	24.0	female	black	3.0955033824114606	smiling	099	sub-13	2.0	3.0	099_smiling	1.0	trustworthiness	71.57897949222433	2.491600109996398
8.0	48.998843590743036	pulse	2.0	t		24.0	female	black	3.0955033824114606	smiling	099	sub-13	2.0	3.0	099_smiling	1.0	trustworthiness	71.8154725807849	
8.0	49.698806553046325	pulse	2.0	t		24.0	female	black	3.0955033824114606	smiling	099	sub-13	2.0	3.0	099_smiling	1.0	trustworthiness	72.51543554308819	
8.0	50.1957368313183	response	2.0	y		24.0	female	black	3.0955033824114606	smiling	099	sub-13	2.0	3.0	099_smiling	1.0	trustworthiness	73.01236582136016	
8.0	50.39876800607135	pulse	2.0	t		24.0	female	black	3.0955033824114606	smiling	099	sub-13	2.0	3.0	099_smiling	1.0	trustworthiness	73.21539699611321	
8.0	51.104059325515664	pulse	2.0	t		24.0	female	black	3.0955033824114606	smiling	099	sub-13	2.0	3.0	099_smiling	1.0	trustworthiness	73.92068831555753	
8.0	51.25395061217887	fix	3.0		444	24.0	female	black	3.0955033824114606	smiling	099	sub-13	2.0	3.0	099_smiling	1.0	trustworthiness	74.07057960222073	3.766585839766776
8.0	51.804051567823535	pulse	3.0	t		24.0	female	black	3.0955033824114606	smiling	099	sub-13	2.0	3.0	099_smiling	1.0	trustworthiness	74.6206805578654	
8.0	52.504032641470076	pulse	3.0	t		24.0	female	black	3.0955033824114606	smiling	099	sub-13	2.0	3.0	099_smiling	1.0	trustworthiness	75.32066163151194	
8.0	53.20401612996238	pulse	3.0	t		24.0	female	black	3.0955033824114606	smiling	099	sub-13	2.0	3.0	099_smiling	1.0	trustworthiness	76.02064512000425	
8.0	53.90400625928032	pulse	3.0	t		24.0	female	black	3.0955033824114606	smiling	099	sub-13	2.0	3.0	099_smiling	1.0	trustworthiness	76.72063524932219	
8.0	54.604002123856844	pulse	3.0	t		24.0	female	black	3.0955033824114606	smiling	099	sub-13	2.0	3.0	099_smiling	1.0	trustworthiness	77.42063111389871	
9.0	55.020536451945645	face	0.0		145	40.0	male	white	1.868682849184242	neutral	172	sub-13	2.0	3.0	172_neutral	0.0		77.83716544198751	1.23332722578607
9.0	55.303994969876385	pulse	0.0	t		40.0	male	white	1.868682849184242	neutral	172	sub-13	2.0	3.0	172_neutral	0.0		78.12062395991825	
9.0	56.00397362867716	pulse	0.0	t		40.0	male	white	1.868682849184242	neutral	172	sub-13	2.0	3.0	172_neutral	0.0		78.82060261871902	
9.0	56.253863677731715	fix	1.0		444	40.0	male	white	1.868682849184242	neutral	172	sub-13	2.0	3.0	172_neutral	0.0		79.07049266777358	3.76658674533428
9.0	56.70396768211958	pulse	1.0	t		40.0	male	white	1.868682849184242	neutral	172	sub-13	2.0	3.0	172_neutral	0.0		79.52059667216145	
9.0	57.40396505597482	pulse	1.0	t		40.0	male	white	1.868682849184242	neutral	172	sub-13	2.0	3.0	172_neutral	0.0		80.22059404601669	
9.0	58.10393828137239	pulse	1.0	t		40.0	male	white	1.868682849184242	neutral	172	sub-13	2.0	3.0	172_neutral	0.0		80.92056727141426	
9.0	58.803921468008866	pulse	1.0	t		40.0	male	white	1.868682849184242	neutral	172	sub-13	2.0	3.0	172_neutral	0.0		81.62055045805073	
9.0	59.50390827691399	pulse	1.0	t		40.0	male	white	1.868682849184242	neutral	172	sub-13	2.0	3.0	172_neutral	0.0		82.32053726695585	
10.0	60.020450423065995	face	0.0		145	19.0	male	white	3.2522881018702745	smiling	018	sub-13	2.0	3.0	018_smiling	0.0		82.83707941310786	1.2333229998062052
10.0	60.20389387839623	pulse	0.0	t		19.0	male	white	3.2522881018702745	smiling	018	sub-13	2.0	3.0	018_smiling	0.0		83.02052286843809	
10.0	60.90388461142584	pulse	0.0	t		19.0	male	white	3.2522881018702745	smiling	018	sub-13	2.0	3.0	018_smiling	0.0		83.7205136014677	
10.0	61.2537734228722	fix	1.0		444	19.0	male	white	3.2522881018702745	smiling	018	sub-13	2.0	3.0	018_smiling	0.0		84.07040241291406	3.76658674533428
10.0	61.603876250022495	pulse	1.0	t		19.0	male	white	3.2522881018702745	smiling	018	sub-13	2.0	3.0	018_smiling	0.0		84.42050524006436	
10.0	62.30389837604662	pulse	1.0	t		19.0	male	white	3.2522881018702745	smiling	018	sub-13	2.0	3.0	018_smiling	0.0		85.12052736608848	
10.0	63.003851075255625	pulse	1.0	t		19.0	male	white	3.2522881018702745	smiling	018	sub-13	2.0	3.0	018_smiling	0.0		85.82048006529749	
10.0	63.70384060086235	pulse	1.0	t		19.0	male	white	3.2522881018702745	smiling	018	sub-13	2.0	3.0	018_smiling	0.0		86.52046959090421	
10.0	64.40381925966267	pulse	1.0	t		19.0	male	white	3.2522881018702745	smiling	018	sub-13	2.0	3.0	018_smiling	0.0		87.22044824970453	
11.0	65.02036016820648	face	0.0		145	24.0	female	black	3.0955033824114606	neutral	099	sub-13	2.0	3.0	099_neutral	0.0		87.83698915824834	1.2333278294972843
11.0	65.10381633166253	pulse	0.0	t		24.0	female	black	3.0955033824114606	neutral	099	sub-13	2.0	3.0	099_neutral	0.0		87.92044532170439	
11.0	65.803799518299	pulse	0.0	t		24.0	female	black	3.0955033824114606	neutral	099	sub-13	2.0	3.0	099_neutral	0.0		88.62042850834086	
11.0	66.25368799770376	fix	1.0		444	24.0	female	black	3.0955033824114606	neutral	099	sub-13	2.0	3.0	099_neutral	0.0		89.07031698774563	3.758233190183091
11.0	66.50379145875104	pulse	1.0	t		24.0	female	black	3.0955033824114606	neutral	099	sub-13	2.0	3.0	099_neutral	0.0		89.3204204487929	
11.0	67.20377706023328	pulse	1.0	t		24.0	female	black	3.0955033824114606	neutral	099	sub-13	2.0	3.0	099_neutral	0.0		90.02040605027514	
11.0	67.90377292481026	pulse	1.0	t		24.0	female	black	3.0955033824114606	neutral	099	sub-13	2.0	3.0	099_neutral	0.0		90.72040191485212	
11.0	68.60374192422796	pulse	1.0	t		24.0	female	black	3.0955033824114606	neutral	099	sub-13	2.0	3.0	099_neutral	0.0		91.42037091426982	
11.0	69.30374141107313	pulse	1.0	t		24.0	female	black	3.0955033824114606	neutral	099	sub-13	2.0	3.0	099_neutral	0.0		92.120370401115	
12.0	70.01192118788686	face	0.0		147	25.0	female	black	3.858336649423	smiling	126	sub-13	2.0	3.0	126_smiling	0.0		92.82855017792872	1.2416753475340556
12.0	70.00603288838829	pulse	0.0	t		25.0	female	black	3.858336649423	smiling	126	sub-13	2.0	3.0	126_smiling	0.0		92.82266187843015	
12.0	70.70371261403761	pulse	0.0	t		25.0	female	black	3.858336649423	smiling	126	sub-13	2.0	3.0	126_smiling	0.0		93.52034160407948	
12.0	71.25359653542091	fix	1.0		443	25.0	female	black	3.858336649423	smiling	126	sub-13	2.0	3.0	126_smiling	0.0		94.07022552546277	3.766606064100415
12.0	71.40370515820132	pulse	1.0	t		25.0	female	black	3.858336649423	smiling	126	sub-13	2.0	3.0	126_smiling	0.0		94.22033414824318	
12.0	72.10367506318607	pulse	1.0	t		25.0	female	black	3.858336649423	smiling	126	sub-13	2.0	3.0	126_smiling	0.0		94.92030405322794	
12.0	72.80368300199143	pulse	1.0	t		25.0	female	black	3.858336649423	smiling	126	sub-13	2.0	3.0	126_smiling	0.0		95.6203119920333	
12.0	73.50365562367779	pulse	1.0	t		25.0	female	black	3.858336649423	smiling	126	sub-13	2.0	3.0	126_smiling	0.0		96.32028461371965	
12.0	74.20365148825476	pulse	1.0	t		25.0	female	black	3.858336649423	smiling	126	sub-13	2.0	3.0	126_smiling	0.0		97.02028047829663	
12.0	74.9036271284981	pulse	1.0	t		25.0	female	black	3.858336649423	smiling	126	sub-13	2.0	3.0	126_smiling	0.0		97.72025611853996	
13.0	75.02020259952133	face	0.0		146	21.0	male	east_asian/white	3.501790688420215	neutral	036	sub-13	2.0	3.0	036_neutral	0.0		97.83683158956319	1.2332725899009347
13.0	75.60362993575609	pulse	0.0	t		21.0	male	east_asian/white	3.501790688420215	neutral	036	sub-13	2.0	3.0	036_neutral	0.0		98.42025892579795	
13.0	76.25347518942226	fix	1.0		443	21.0	male	east_asian/white	3.501790688420215	neutral	036	sub-13	2.0	3.0	036_neutral	0.0		99.07010417946412	3.766620251319182
13.0	76.30360225558707	pulse	1.0	t		21.0	male	east_asian/white	3.501790688420215	neutral	036	sub-13	2.0	3.0	036_neutral	0.0		99.12023124562893	
13.0	77.00360355356634	pulse	1.0	t		21.0	male	east_asian/white	3.501790688420215	neutral	036	sub-13	2.0	3.0	036_neutral	0.0		99.8202325436082	
13.0	77.70359006061562	pulse	1.0	t		21.0	male	east_asian/white	3.501790688420215	neutral	036	sub-13	2.0	3.0	036_neutral	0.0		100.52021905065749	
13.0	78.40357536024248	pulse	1.0	t		21.0	male	east_asian/white	3.501790688420215	neutral	036	sub-13	2.0	3.0	036_neutral	0.0		101.22020435028435	
13.0	79.10356428213754	pulse	1.0	t		21.0	male	east_asian/white	3.501790688420215	neutral	036	sub-13	2.0	3.0	036_neutral	0.0		101.9201932721794	
13.0	79.8035676931072	pulse	1.0	t		21.0	male	east_asian/white	3.501790688420215	neutral	036	sub-13	2.0	3.0	036_neutral	0.0		102.62019668314906	
14.0	80.02009544074144	face	0.0		145	31.0	female	west_asian	2.364902506963788	neutral	006	sub-13	2.0	3.0	006_neutral	0.0		102.8367244307833	1.2333229998057504
14.0	80.50354544634047	pulse	0.0	t		31.0	female	west_asian	2.364902506963788	neutral	006	sub-13	2.0	3.0	006_neutral	0.0		103.32017443638233	
14.0	81.20352802926573	pulse	0.0	t		31.0	female	west_asian	2.364902506963788	neutral	006	sub-13	2.0	3.0	006_neutral	0.0		104.02015701930759	
14.0	81.2534184405472	fix	1.0		445	31.0	female	west_asian	2.364902506963788	neutral	006	sub-13	2.0	3.0	006_neutral	0.0		104.07004743058906	3.7665885564683776
14.0	81.90351815858367	pulse	1.0	t		31.0	female	west_asian	2.364902506963788	neutral	006	sub-13	2.0	3.0	006_neutral	0.0		104.72014714862553	
14.0	82.60349772295149	pulse	1.0	t		31.0	female	west_asian	2.364902506963788	neutral	006	sub-13	2.0	3.0	006_neutral	0.0		105.42012671299335	
14.0	83.30348483371245	pulse	1.0	t		31.0	female	west_asian	2.364902506963788	neutral	006	sub-13	2.0	3.0	006_neutral	0.0		106.12011382375431	
14.0	84.0034737556075	pulse	1.0	t		31.0	female	west_asian	2.364902506963788	neutral	006	sub-13	2.0	3.0	006_neutral	0.0		106.82010274564936	
14.0	84.70345845152269	pulse	1.0	t		31.0	female	west_asian	2.364902506963788	neutral	006	sub-13	2.0	3.0	006_neutral	0.0		107.52008744156456	
15.0	85.02000699701557	face	0.0		145	54.0	female	white	2.286908077994429	neutral	136	sub-13	2.0	3.0	136_neutral	1.0	dominance	107.83663598705743	1.233324810940303
15.0	85.4034600513578	pulse	0.0	t		54.0	female	white	2.286908077994429	neutral	136	sub-13	2.0	3.0	136_neutral	1.0	dominance	108.22008904139966	
15.0	86.10343569160159	pulse	0.0	t		54.0	female	white	2.286908077994429	neutral	136	sub-13	2.0	3.0	136_neutral	1.0	dominance	108.92006468164345	
15.0	86.25333180795587	fix	1.0		177	54.0	female	white	2.286908077994429	neutral	136	sub-13	2.0	3.0	136_neutral	1.0	dominance	109.06996079799774	1.4999702672116655
15.0	86.8034427248399	pulse	1.0	t		54.0	female	white	2.286908077994429	neutral	136	sub-13	2.0	3.0	136_neutral	1.0	dominance	109.62007171488176	
15.0	87.50340991312305	pulse	1.0	t		54.0	female	white	2.286908077994429	neutral	136	sub-13	2.0	3.0	136_neutral	1.0	dominance	110.32003890316491	
15.0	87.75330207516754	rating	2.0		295	54.0	female	white	2.286908077994429	neutral	136	sub-13	2.0	3.0	136_neutral	1.0	dominance	110.5699310652094	2.4999488354560526
15.0	88.19811032283178	pulse	2.0	t		54.0	female	white	2.286908077994429	neutral	136	sub-13	2.0	3.0	136_neutral	1.0	dominance	111.01473931287364	
15.0	88.89808717049846	pulse	2.0	t		54.0	female	white	2.286908077994429	neutral	136	sub-13	2.0	3.0	136_neutral	1.0	dominance	111.71471616054032	
15.0	89.19503773347424	response	2.0	d		54.0	female	white	2.286908077994429	neutral	136	sub-13	2.0	3.0	136_neutral	1.0	dominance	112.0116667235161	
15.0	89.60336128416702	pulse	2.0	t		54.0	female	white	2.286908077994429	neutral	136	sub-13	2.0	3.0	136_neutral	1.0	dominance	112.41999027420889	
15.0	90.25325091062359	fix	3.0		443	54.0	female	white	2.286908077994429	neutral	136	sub-13	2.0	3.0	136_neutral	1.0	dominance	113.06987990066546	3.76659066945831
15.0	90.30337073225064	pulse	3.0	t		54.0	female	white	2.286908077994429	neutral	136	sub-13	2.0	3.0	136_neutral	1.0	dominance	113.1199997222925	
15.0	91.00335482445462	pulse	3.0	t		54.0	female	white	2.286908077994429	neutral	136	sub-13	2.0	3.0	136_neutral	1.0	dominance	113.81998381449648	
15.0	91.70334042593686	pulse	3.0	t		54.0	female	white	2.286908077994429	neutral	136	sub-13	2.0	3.0	136_neutral	1.0	dominance	114.51996941597872	
15.0	92.40332240515045	pulse	3.0	t		54.0	female	white	2.286908077994429	neutral	136	sub-13	2.0	3.0	136_neutral	1.0	dominance	115.21995139519231	
15.0	93.10331947714985	pulse	3.0	t		54.0	female	white	2.286908077994429	neutral	136	sub-13	2.0	3.0	136_neutral	1.0	dominance	115.91994846719172	
15.0	93.80330236193049	pulse	3.0	t		54.0	female	white	2.286908077994429	neutral	136	sub-13	2.0	3.0	136_neutral	1.0	dominance	116.61993135197235	
16.0	94.0198415800819	face	0.0		145	26.0	male	white	2.7966573816155993	smiling	117	sub-13	2.0	3.0	117_smiling	0.0		116.83647057012377	1.233328735064788
16.0	94.50329520795003	pulse	0.0	t		26.0	male	white	2.7966573816155993	smiling	117	sub-13	2.0	3.0	117_smiling	0.0		117.3199241979919	
16.0	95.20327930015355	pulse	0.0	t		26.0	male	white	2.7966573816155993	smiling	117	sub-13	2.0	3.0	117_smiling	0.0		118.01990829019542	
16.0	95.25317031514669	fix	1.0		444	26.0	male	white	2.7966573816155993	smiling	117	sub-13	2.0	3.0	117_smiling	0.0		118.06979930518855	3.7583795902064594
16.0	95.9032721461731	pulse	1.0	t		26.0	male	white	2.7966573816155993	smiling	117	sub-13	2.0	3.0	117_smiling	0.0		118.71990113621496	
16.0	96.60324989940682	pulse	1.0	t		26.0	male	white	2.7966573816155993	smiling	117	sub-13	2.0	3.0	117_smiling	0.0		119.41987888944868	
16.0	97.30324606583918	pulse	1.0	t		26.0	male	white	2.7966573816155993	smiling	117	sub-13	2.0	3.0	117_smiling	0.0		120.11987505588104	
16.0	98.00322623391867	pulse	1.0	t		26.0	male	white	2.7966573816155993	smiling	117	sub-13	2.0	3.0	117_smiling	0.0		120.81985522396053	
16.0	98.70320851498764	pulse	1.0	t		26.0	male	white	2.7966573816155993	smiling	117	sub-13	2.0	3.0	117_smiling	0.0		121.5198375050295	
17.0	99.01154990535315	face	0.0		146	34.0	male	white	2.651014723438122	neutral	121	sub-13	2.0	3.0	121_neutral	0.0		121.82817889539501	1.2415322679235032
17.0	99.40320830368864	pulse	0.0	t		34.0	male	white	2.651014723438122	neutral	121	sub-13	2.0	3.0	121_neutral	0.0		122.2198372937305	
17.0	100.103192697748	pulse	0.0	t		34.0	male	white	2.651014723438122	neutral	121	sub-13	2.0	3.0	121_neutral	0.0		122.91982168778986	
17.0	100.25308217327665	fix	1.0		444	34.0	male	white	2.651014723438122	neutral	121	sub-13	2.0	3.0	121_neutral	0.0		123.06971116331852	3.766585839767231
17.0	100.80318403448882	pulse	1.0	t		34.0	male	white	2.651014723438122	neutral	121	sub-13	2.0	3.0	121_neutral	0.0		123.61981302453069	
17.0	101.50315997658845	pulse	1.0	t		34.0	male	white	2.651014723438122	neutral	121	sub-13	2.0	3.0	121_neutral	0.0		124.31978896663031	
17.0	102.20315735044369	pulse	1.0	t		34.0	male	white	2.651014723438122	neutral	121	sub-13	2.0	3.0	121_neutral	0.0		125.01978634048555	
17.0	102.90314415934881	pulse	1.0	t		34.0	male	white	2.651014723438122	neutral	121	sub-13	2.0	3.0	121_neutral	0.0		125.71977314939068	
17.0	103.60312704412945	pulse	1.0	t		34.0	male	white	2.651014723438122	neutral	121	sub-13	2.0	3.0	121_neutral	0.0		126.41975603417131	
18.0	104.01966801304388	face	0.0		145	23.0	male	white	2.6275368085953046	neutral	141	sub-13	2.0	3.0	141_neutral	0.0		126.83629700308575	1.2333260183631864
18.0	104.30312200313892	pulse	0.0	t		23.0	male	white	2.6275368085953046	neutral	141	sub-13	2.0	3.0	141_neutral	0.0		127.11975099318079	
18.0	105.00310639719828	pulse	0.0	t		23.0	male	white	2.6275368085953046	neutral	141	sub-13	2.0	3.0	141_neutral	0.0		127.81973538724014	
18.0	105.25299403140707	fix	1.0		444	23.0	male	white	2.6275368085953046	neutral	141	sub-13	2.0	3.0	141_neutral	0.0		128.06962302144893	3.7665822174985806
18.0	105.703095922805	pulse	1.0	t		23.0	male	white	2.6275368085953046	neutral	141	sub-13	2.0	3.0	141_neutral	0.0		128.51972491284687	
18.0	106.40307186490418	pulse	1.0	t		23.0	male	white	2.6275368085953046	neutral	141	sub-13	2.0	3.0	141_neutral	0.0		129.21970085494604	
18.0	107.10307104989352	pulse	1.0	t		23.0	male	white	2.6275368085953046	neutral	141	sub-13	2.0	3.0	141_neutral	0.0		129.91970003993538	
18.0	107.80305393467461	pulse	1.0	t		23.0	male	white	2.6275368085953046	neutral	141	sub-13	2.0	3.0	141_neutral	0.0		130.61968292471647	
18.0	108.50304859182825	pulse	1.0	t		23.0	male	white	2.6275368085953046	neutral	141	sub-13	2.0	3.0	141_neutral	0.0		131.3196775818701	
19.0	109.01957624890565	face	0.0		145	31.0	male	west_asian	1.9538400318344609	neutral	070	sub-13	2.0	3.0	070_neutral	0.0		131.8362052389475	1.2333344703233706
19.0	109.20303328774344	pulse	0.0	t		31.0	male	west_asian	1.9538400318344609	neutral	070	sub-13	2.0	3.0	070_neutral	0.0		132.0196622777853	
19.0	109.9030222096385	pulse	0.0	t		31.0	male	west_asian	1.9538400318344609	neutral	070	sub-13	2.0	3.0	070_neutral	0.0		132.71965119968036	
19.0	110.25291071922902	fix	1.0		444	31.0	male	west_asian	1.9538400318344609	neutral	070	sub-13	2.0	3.0	070_neutral	0.0		133.06953970927088	3.7665743692496108
19.0	110.60300781112073	pulse	1.0	t		31.0	male	west_asian	1.9538400318344609	neutral	070	sub-13	2.0	3.0	070_neutral	0.0		133.4196368011626	
19.0	111.30301152394577	pulse	1.0	t		31.0	male	west_asian	1.9538400318344609	neutral	070	sub-13	2.0	3.0	070_neutral	0.0		134.11964051398763	
19.0	112.0029865604779	pulse	1.0	t		31.0	male	west_asian	1.9538400318344609	neutral	070	sub-13	2.0	3.0	070_neutral	0.0		134.81961555051976	
19.0	112.70296793598027	pulse	1.0	t		31.0	male	west_asian	1.9538400318344609	neutral	070	sub-13	2.0	3.0	070_neutral	0.0		135.51959692602213	
19.0	113.4029481040593	pulse	1.0	t		31.0	male	west_asian	1.9538400318344609	neutral	070	sub-13	2.0	3.0	070_neutral	0.0		136.21957709410117	
20.0	114.01948508847863	face	0.0		145	24.0	female	east_asian	4.409868682849185	smiling	030	sub-13	2.0	3.0	030_smiling	1.0	trustworthiness	136.8361140785205	1.2333278294972843
20.0	114.10294306306923	pulse	0.0	t		24.0	female	east_asian	4.409868682849185	smiling	030	sub-13	2.0	3.0	030_smiling	1.0	trustworthiness	136.9195720531111	
20.0	114.80292987197436	pulse	0.0	t		24.0	female	east_asian	4.409868682849185	smiling	030	sub-13	2.0	3.0	030_smiling	1.0	trustworthiness	137.61955886201622	
20.0	115.25281291797592	fix	1.0		177	24.0	female	east_asian	4.409868682849185	smiling	030	sub-13	2.0	3.0	030_smiling	1.0	trustworthiness	138.06944190801778	1.4999787191718497
20.0	115.50292483098383	pulse	1.0	t		24.0	female	east_asian	4.409868682849185	smiling	030	sub-13	2.0	3.0	030_smiling	1.0	trustworthiness	138.3195538210257	
20.0	116.20289956566012	pulse	1.0	t		24.0	female	east_asian	4.409868682849185	smiling	030	sub-13	2.0	3.0	030_smiling	1.0	trustworthiness	139.01952855570198	
20.0	116.75279163714777	rating	2.0		294	24.0	female	east_asian	4.409868682849185	smiling	030	sub-13	2.0	3.0	030_smiling	1.0	trustworthiness	139.56942062718963	2.499952457724703
20.0	116.89765129084071	pulse	2.0	t		24.0	female	east_asian	4.409868682849185	smiling	030	sub-13	2.0	3.0	030_smiling	1.0	trustworthiness	139.71428028088258	
20.0	117.59761123458702	pulse	2.0	t		24.0	female	east_asian	4.409868682849185	smiling	030	sub-13	2.0	3.0	030_smiling	1.0	trustworthiness	140.41424022462888	
20.0	117.83622335029077	response	2.0	r		24.0	female	east_asian	4.409868682849185	smiling	030	sub-13	2.0	3.0	030_smiling	1.0	trustworthiness	140.65285234033263	
20.0	118.3028587849526	pulse	2.0	t		24.0	female	east_asian	4.409868682849185	smiling	030	sub-13	2.0	3.0	030_smiling	1.0	trustworthiness	141.11948777499447	
20.0	119.0028570643749	pulse	2.0	t		24.0	female	east_asian	4.409868682849185	smiling	030	sub-13	2.0	3.0	030_smiling	1.0	trustworthiness	141.81948605441676	
20.0	119.25274409487247	fix	3.0		1185	24.0	female	east_asian	4.409868682849185	smiling	030	sub-13	2.0	3.0	030_smiling	1.0	trustworthiness	142.06937308491433	10.016473473975566
20.0	119.70285021225027	pulse	3.0	t		24.0	female	east_asian	4.409868682849185	smiling	030	sub-13	2.0	3.0	030_smiling	1.0	trustworthiness	142.51947920229213	
20.0	120.40282977661809	pulse	3.0	t		24.0	female	east_asian	4.409868682849185	smiling	030	sub-13	2.0	3.0	030_smiling	1.0	trustworthiness	143.21945876665995	
20.0	121.10281809480148	pulse	3.0	t		24.0	female	east_asian	4.409868682849185	smiling	030	sub-13	2.0	3.0	030_smiling	1.0	trustworthiness	143.91944708484334	
20.0	121.80280882783109	pulse	3.0	t		24.0	female	east_asian	4.409868682849185	smiling	030	sub-13	2.0	3.0	030_smiling	1.0	trustworthiness	144.61943781787295	
20.0	122.50279080704468	pulse	3.0	t		24.0	female	east_asian	4.409868682849185	smiling	030	sub-13	2.0	3.0	030_smiling	1.0	trustworthiness	145.31941979708654	
20.0	123.20277882337268	pulse	3.0	t		24.0	female	east_asian	4.409868682849185	smiling	030	sub-13	2.0	3.0	030_smiling	1.0	trustworthiness	146.01940781341455	
20.0	123.90276714155652	pulse	3.0	t		24.0	female	east_asian	4.409868682849185	smiling	030	sub-13	2.0	3.0	030_smiling	1.0	trustworthiness	146.7193961315984	
20.0	124.6027575727303	pulse	3.0	t		24.0	female	east_asian	4.409868682849185	smiling	030	sub-13	2.0	3.0	030_smiling	1.0	trustworthiness	147.41938656277216	
20.0	125.30274589091368	pulse	3.0	t		24.0	female	east_asian	4.409868682849185	smiling	030	sub-13	2.0	3.0	030_smiling	1.0	trustworthiness	148.11937488095555	
20.0	126.00273239796297	pulse	3.0	t		24.0	female	east_asian	4.409868682849185	smiling	030	sub-13	2.0	3.0	030_smiling	1.0	trustworthiness	148.81936138800484	
20.0	126.70271377346535	pulse	3.0	t		24.0	female	east_asian	4.409868682849185	smiling	030	sub-13	2.0	3.0	030_smiling	1.0	trustworthiness	149.5193427635072	
20.0	127.40269243226612	pulse	3.0	t		24.0	female	east_asian	4.409868682849185	smiling	030	sub-13	2.0	3.0	030_smiling	1.0	trustworthiness	150.21932142230798	
20.0	128.1026819578724	pulse	3.0	t		24.0	female	east_asian	4.409868682849185	smiling	030	sub-13	2.0	3.0	030_smiling	1.0	trustworthiness	150.91931094791425	
20.0	128.80267842616058	pulse	3.0	t		24.0	female	east_asian	4.409868682849185	smiling	030	sub-13	2.0	3.0	030_smiling	1.0	trustworthiness	151.61930741620245	
21.0	129.26921756884803	face	0.0		145	36.0	female	white	2.7548746518105847	neutral	011	sub-13	2.0	3.0	011_neutral	0.0		152.0858465588899	1.233326320219021
21.0	129.50267670558333	pulse	0.0	t		36.0	female	white	2.7548746518105847	neutral	011	sub-13	2.0	3.0	011_neutral	0.0		152.3193056956252	
21.0	130.20266019407518	pulse	0.0	t		36.0	female	white	2.7548746518105847	neutral	011	sub-13	2.0	3.0	011_neutral	0.0		153.01928918411704	
21.0	130.50254388906706	fix	1.0		444	36.0	female	white	2.7548746518105847	neutral	011	sub-13	2.0	3.0	011_neutral	0.0		153.31917287910892	3.7665837267772986
21.0	130.90264851225902	pulse	1.0	t		36.0	female	white	2.7548746518105847	neutral	011	sub-13	2.0	3.0	011_neutral	0.0		153.71927750230088	
21.0	131.60262837848268	pulse	1.0	t		36.0	female	white	2.7548746518105847	neutral	011	sub-13	2.0	3.0	011_neutral	0.0		154.41925736852454	
21.0	132.3026360154322	pulse	1.0	t		36.0	female	white	2.7548746518105847	neutral	011	sub-13	2.0	3.0	011_neutral	0.0		155.11926500547406	
21.0	133.0026107501085	pulse	1.0	t		36.0	female	white	2.7548746518105847	neutral	011	sub-13	2.0	3.0	011_neutral	0.0		155.81923974015035	
21.0	133.7025969553024	pulse	1.0	t		36.0	female	white	2.7548746518105847	neutral	011	sub-13	2.0	3.0	011_neutral	0.0		156.51922594534426	
22.0	134.26912761584435	face	0.0		145	34.0	male	white	2.651014723438122	smiling	121	sub-13	2.0	3.0	121_smiling	0.0		157.08575660588622	1.2333278294972843
22.0	134.40258919761027	pulse	0.0	t		34.0	male	white	2.651014723438122	smiling	121	sub-13	2.0	3.0	121_smiling	0.0		157.21921818765213	
22.0	135.1025793269282	pulse	0.0	t		34.0	male	white	2.651014723438122	smiling	121	sub-13	2.0	3.0	121_smiling	0.0		157.91920831697007	
22.0	135.50245544534164	fix	1.0		444	34.0	male	white	2.651014723438122	smiling	121	sub-13	2.0	3.0	121_smiling	0.0		158.3190844353835	3.7665773878070468
22.0	135.80256643768917	pulse	1.0	t		34.0	male	white	2.651014723438122	smiling	121	sub-13	2.0	3.0	121_smiling	0.0		158.61919542773103	
22.0	136.50254902061442	pulse	1.0	t		34.0	male	white	2.651014723438122	smiling	121	sub-13	2.0	3.0	121_smiling	0.0		159.3191780106563	
22.0	137.20253371652916	pulse	1.0	t		34.0	male	white	2.651014723438122	smiling	121	sub-13	2.0	3.0	121_smiling	0.0		160.01916270657102	
22.0	137.9025193180114	pulse	1.0	t		34.0	male	white	2.651014723438122	smiling	121	sub-13	2.0	3.0	121_smiling	0.0		160.71914830805326	
22.0	138.60249978794673	pulse	1.0	t		34.0	male	white	2.651014723438122	smiling	121	sub-13	2.0	3.0	121_smiling	0.0		161.4191287779886	
23.0	139.26903283314869	face	0.0		145	31.0	female	east_asian	3.395941106247513	neutral	087	sub-13	2.0	3.0	087_neutral	0.0		162.08566182319055	1.233335074034585
23.0	139.30250953788618	pulse	0.0	t		31.0	female	east_asian	3.395941106247513	neutral	087	sub-13	2.0	3.0	087_neutral	0.0		162.11913852792804	
23.0	140.00249966720412	pulse	0.0	t		31.0	female	east_asian	3.395941106247513	neutral	087	sub-13	2.0	3.0	087_neutral	0.0		162.81912865724598	
23.0	140.50236790718327	fix	1.0		443	31.0	female	east_asian	3.395941106247513	neutral	087	sub-13	2.0	3.0	087_neutral	0.0		163.31899689722513	3.758387740310809
23.0	140.70248013713945	pulse	1.0	t		31.0	female	east_asian	3.395941106247513	neutral	087	sub-13	2.0	3.0	087_neutral	0.0		163.5191091271813	
23.0	141.40245094769125	pulse	1.0	t		31.0	female	east_asian	3.395941106247513	neutral	087	sub-13	2.0	3.0	087_neutral	0.0		164.2190799377331	
23.0	142.10244801969066	pulse	1.0	t		31.0	female	east_asian	3.395941106247513	neutral	087	sub-13	2.0	3.0	087_neutral	0.0		164.91907700973252	
23.0	142.8024363378745	pulse	1.0	t		31.0	female	east_asian	3.395941106247513	neutral	087	sub-13	2.0	3.0	087_neutral	0.0		165.61906532791636	
23.0	143.502416505954	pulse	1.0	t		31.0	female	east_asian	3.395941106247513	neutral	087	sub-13	2.0	3.0	087_neutral	0.0		166.31904549599585	
23.0	144.20240391857033	pulse	1.0	t		31.0	female	east_asian	3.395941106247513	neutral	087	sub-13	2.0	3.0	087_neutral	0.0		167.0190329086122	
24.0	144.26075564749408	face	0.0		147	28.0	male	white	3.9076800636689217	smiling	033	sub-13	2.0	3.0	033_smiling	0.0		167.07738463753594	1.2415250233866573
24.0	144.9024015942814	pulse	0.0	t		28.0	male	white	3.9076800636689217	smiling	033	sub-13	2.0	3.0	033_smiling	0.0		167.71903058432326	
24.0	145.50228067088074	fix	1.0		443	28.0	male	white	3.9076800636689217	smiling	033	sub-13	2.0	3.0	033_smiling	0.0		168.3189096609226	3.7665816137869115
24.0	145.6023908180323	pulse	1.0	t		28.0	male	white	3.9076800636689217	smiling	033	sub-13	2.0	3.0	033_smiling	0.0		168.41901980807415	
24.0	146.3023821547731	pulse	1.0	t		28.0	male	white	3.9076800636689217	smiling	033	sub-13	2.0	3.0	033_smiling	0.0		169.11901114481498	
24.0	147.00236262470798	pulse	1.0	t		28.0	male	white	3.9076800636689217	smiling	033	sub-13	2.0	3.0	033_smiling	0.0		169.81899161474985	
24.0	147.70234852804606	pulse	1.0	t		28.0	male	white	3.9076800636689217	smiling	033	sub-13	2.0	3.0	033_smiling	0.0		170.51897751808792	
24.0	148.40232658313516	pulse	1.0	t		28.0	male	white	3.9076800636689217	smiling	033	sub-13	2.0	3.0	033_smiling	0.0		171.21895557317703	
24.0	149.10232365513502	pulse	1.0	t		28.0	male	white	3.9076800636689217	smiling	033	sub-13	2.0	3.0	033_smiling	0.0		171.9189526451769	
25.0	149.26886228466765	face	0.0		146	23.0	male	white	2.6275368085953046	smiling	141	sub-13	2.0	3.0	141_smiling	0.0		172.0854912747095	1.2333275276419045
25.0	149.80231559558706	pulse	0.0	t		23.0	male	white	2.6275368085953046	smiling	141	sub-13	2.0	3.0	141_smiling	0.0		172.61894458562892	
25.0	150.50218981230955	fix	1.0		444	23.0	male	white	2.6275368085953046	smiling	141	sub-13	2.0	3.0	141_smiling	0.0		173.31881880235142	3.7665846323438927
25.0	150.50961999081755	pulse	1.0	t		23.0	male	white	2.6275368085953046	smiling	141	sub-13	2.0	3.0	141_smiling	0.0		173.32624898085942	
25.0	151.2022840818504	pulse	1.0	t		23.0	male	white	2.6275368085953046	smiling	141	sub-13	2.0	3.0	141_smiling	0.0		174.01891307189226	
25.0	151.9022757204466	pulse	1.0	t		23.0	male	white	2.6275368085953046	smiling	141	sub-13	2.0	3.0	141_smiling	0.0		174.71890471048846	
25.0	152.60225528481487	pulse	1.0	t		23.0	male	white	2.6275368085953046	smiling	141	sub-13	2.0	3.0	141_smiling	0.0		175.41888427485674	
25.0	153.30224933825684	pulse	1.0	t		23.0	male	white	2.6275368085953046	smiling	141	sub-13	2.0	3.0	141_smiling	0.0		176.1188783282987	
25.0	154.0022358453066	pulse	1.0	t		23.0	male	white	2.6275368085953046	smiling	141	sub-13	2.0	3.0	141_smiling	0.0		176.81886483534845	
26.0	154.26877444465345	face	0.0		145	19.0	male	white	3.2522881018702745	neutral	018	sub-13	2.0	3.0	018_neutral	0.0		177.0854034346953	1.23332722578607
26.0	154.70222959689318	pulse	0.0	t		19.0	male	white	3.2522881018702745	neutral	018	sub-13	2.0	3.0	018_neutral	0.0		177.51885858693504	
26.0	155.40221006682805	pulse	0.0	t		19.0	male	white	3.2522881018702745	neutral	018	sub-13	2.0	3.0	018_neutral	0.0		178.2188390568699	
26.0	155.50210167043952	fix	1.0		444	19.0	male	white	3.2522881018702745	neutral	018	sub-13	2.0	3.0	018_neutral	0.0		178.31873066048138	3.7665831230656295
26.0	156.10219959243477	pulse	1.0	t		19.0	male	white	3.2522881018702745	neutral	018	sub-13	2.0	3.0	018_neutral	0.0		178.91882858247664	
26.0	156.8021842883495	pulse	1.0	t		19.0	male	white	3.2522881018702745	neutral	018	sub-13	2.0	3.0	018_neutral	0.0		179.61881327839137	
26.0	157.50217411581207	pulse	1.0	t		19.0	male	white	3.2522881018702745	neutral	018	sub-13	2.0	3.0	018_neutral	0.0		180.31880310585393	
26.0	158.20215790615975	pulse	1.0	t		19.0	male	white	3.2522881018702745	neutral	018	sub-13	2.0	3.0	018_neutral	0.0		181.01878689620162	
26.0	158.90214592248776	pulse	1.0	t		19.0	male	white	3.2522881018702745	neutral	018	sub-13	2.0	3.0	018_neutral	0.0		181.71877491252962	
27.0	159.26868479350514	face	0.0		145	20.0	male	black	2.609629924393156	neutral	043	sub-13	2.0	3.0	043_neutral	0.0		182.085313783547	1.2333275276419045
27.0	159.6021442019105	pulse	0.0	t		20.0	male	black	2.609629924393156	neutral	043	sub-13	2.0	3.0	043_neutral	0.0		182.41877319195237	
27.0	160.30212044586506	pulse	0.0	t		20.0	male	black	2.609629924393156	neutral	043	sub-13	2.0	3.0	043_neutral	0.0		183.11874943590692	
27.0	160.50201232114705	fix	1.0		444	20.0	male	black	2.609629924393156	neutral	043	sub-13	2.0	3.0	043_neutral	0.0		183.3186413111889	3.7665816137869115
27.0	161.00211570673036	pulse	1.0	t		20.0	male	black	2.609629924393156	neutral	043	sub-13	2.0	3.0	043_neutral	0.0		183.81874469677223	
27.0	161.70207866903365	pulse	1.0	t		20.0	male	black	2.609629924393156	neutral	043	sub-13	2.0	3.0	043_neutral	0.0		184.51870765907552	
27.0	162.40209717278958	pulse	1.0	t		20.0	male	black	2.609629924393156	neutral	043	sub-13	2.0	3.0	043_neutral	0.0		185.21872616283144	
27.0	163.10207311488875	pulse	1.0	t		20.0	male	black	2.609629924393156	neutral	043	sub-13	2.0	3.0	043_neutral	0.0		185.91870210493062	
27.0	163.8020605275051	pulse	1.0	t		20.0	male	black	2.609629924393156	neutral	043	sub-13	2.0	3.0	043_neutral	0.0		186.61868951754695	
28.0	164.26859393493396	face	0.0		145	36.0	female	white	2.7548746518105847	smiling	011	sub-13	2.0	3.0	011_smiling	0.0		187.08522292497582	1.2333160571242843
28.0	164.5020892943553	pulse	0.0	t		36.0	female	white	2.7548746518105847	smiling	011	sub-13	2.0	3.0	011_smiling	0.0		187.31871828439716	
28.0	165.2020395787181	pulse	0.0	t		36.0	female	white	2.7548746518105847	smiling	011	sub-13	2.0	3.0	011_smiling	0.0		188.01866856875995	
28.0	165.50190999205824	fix	1.0		444	36.0	female	white	2.7548746518105847	smiling	011	sub-13	2.0	3.0	011_smiling	0.0		188.3185389821001	3.766599121418949
28.0	165.90202880246898	pulse	1.0	t		36.0	female	white	2.7548746518105847	smiling	011	sub-13	2.0	3.0	011_smiling	0.0		188.71865779251084	
28.0	166.60200625384687	pulse	1.0	t		36.0	female	white	2.7548746518105847	smiling	011	sub-13	2.0	3.0	011_smiling	0.0		189.41863524388873	
28.0	167.30199970357808	pulse	1.0	t		36.0	female	white	2.7548746518105847	smiling	011	sub-13	2.0	3.0	011_smiling	0.0		190.11862869361994	
28.0	168.00198590877153	pulse	1.0	t		36.0	female	white	2.7548746518105847	smiling	011	sub-13	2.0	3.0	011_smiling	0.0		190.8186148988134	
28.0	168.70197332138832	pulse	1.0	t		36.0	female	white	2.7548746518105847	smiling	011	sub-13	2.0	3.0	011_smiling	0.0		191.5186023114302	
29.0	169.2685091134772	face	0.0		145	32.0	male	white	2.389176283326701	smiling	092	sub-13	2.0	3.0	092_smiling	0.0		192.08513810351906	1.2333263202185663
29.0	169.4019661674074	pulse	0.0	t		32.0	male	white	2.389176283326701	smiling	092	sub-13	2.0	3.0	092_smiling	0.0		192.21859515744927	
29.0	170.10195388188004	pulse	0.0	t		32.0	male	white	2.389176283326701	smiling	092	sub-13	2.0	3.0	092_smiling	0.0		192.9185828719219	
29.0	170.50183543369576	fix	1.0		444	32.0	male	white	2.389176283326701	smiling	092	sub-13	2.0	3.0	092_smiling	0.0		193.31846442373762	3.7583753642270494
29.0	170.80195306686937	pulse	1.0	t		32.0	male	white	2.389176283326701	smiling	092	sub-13	2.0	3.0	092_smiling	0.0		193.61858205691124	
29.0	171.5019181421626	pulse	1.0	t		32.0	male	white	2.389176283326701	smiling	092	sub-13	2.0	3.0	092_smiling	0.0		194.31854713220446	
29.0	172.2019115918938	pulse	1.0	t		32.0	male	white	2.389176283326701	smiling	092	sub-13	2.0	3.0	092_smiling	0.0		195.01854058193567	
29.0	172.90190443791334	pulse	1.0	t		32.0	male	white	2.389176283326701	smiling	092	sub-13	2.0	3.0	092_smiling	0.0		195.7185334279552	
29.0	173.60187826702258	pulse	1.0	t		32.0	male	white	2.389176283326701	smiling	092	sub-13	2.0	3.0	092_smiling	0.0		196.41850725706445	
30.0	174.2602107979228	face	0.0		146	27.0	female	white	3.504576203740549	neutral	144	sub-13	2.0	3.0	144_neutral	0.0		197.07683978796467	1.2415373994704169
30.0	174.3018831872705	pulse	0.0	t		27.0	female	white	3.504576203740549	neutral	144	sub-13	2.0	3.0	144_neutral	0.0		197.11851217731237	
30.0	175.00186365720583	pulse	0.0	t		27.0	female	white	3.504576203740549	neutral	144	sub-13	2.0	3.0	144_neutral	0.0		197.8184926472477	
30.0	175.50174819739323	fix	1.0		443	27.0	female	white	3.504576203740549	neutral	144	sub-13	2.0	3.0	144_neutral	0.0		198.3183771874351	3.766561389454182
30.0	175.70185348466794	pulse	1.0	t		27.0	female	white	3.504576203740549	neutral	144	sub-13	2.0	3.0	144_neutral	0.0		198.5184824747098	
30.0	176.4018267100655	pulse	1.0	t		27.0	female	white	3.504576203740549	neutral	144	sub-13	2.0	3.0	144_neutral	0.0		199.21845570010737	
30.0	177.10182257464248	pulse	1.0	t		27.0	female	white	3.504576203740549	neutral	144	sub-13	2.0	3.0	144_neutral	0.0		199.91845156468435	
30.0	177.80180727055722	pulse	1.0	t		27.0	female	white	3.504576203740549	neutral	144	sub-13	2.0	3.0	144_neutral	0.0		200.61843626059908	
30.0	178.50177777925364	pulse	1.0	t		27.0	female	white	3.504576203740549	neutral	144	sub-13	2.0	3.0	144_neutral	0.0		201.3184067692955	
30.0	179.20178813290477	pulse	1.0	t		27.0	female	white	3.504576203740549	neutral	144	sub-13	2.0	3.0	144_neutral	0.0		202.01841712294663	
31.0	179.2683095868474	face	0.0		146	31.0	female	east_asian	3.395941106247513	smiling	087	sub-13	2.0	3.0	087_smiling	1.0	attractiveness	202.08493857688927	1.2333504686762353
31.0	179.90177977150142	pulse	0.0	t		31.0	female	east_asian	3.395941106247513	smiling	087	sub-13	2.0	3.0	087_smiling	1.0	attractiveness	202.7184087615433	
31.0	180.50166005552364	fix	1.0		177	31.0	female	east_asian	3.395941106247513	smiling	087	sub-13	2.0	3.0	087_smiling	1.0	attractiveness	203.3182890455655	1.499971474634549
31.0	180.601773523088	pulse	1.0	t		31.0	female	east_asian	3.395941106247513	smiling	087	sub-13	2.0	3.0	087_smiling	1.0	attractiveness	203.41840251312988	
31.0	181.3017491633318	pulse	1.0	t		31.0	female	east_asian	3.395941106247513	smiling	087	sub-13	2.0	3.0	087_smiling	1.0	attractiveness	204.11837815337367	
31.0	182.0016315301582	rating	2.0		294	31.0	female	east_asian	3.395941106247513	smiling	087	sub-13	2.0	3.0	087_smiling	1.0	attractiveness	204.81826052020006	2.499954872570015
31.0	181.99772612087372	pulse	2.0	t		31.0	female	east_asian	3.395941106247513	smiling	087	sub-13	2.0	3.0	087_smiling	1.0	attractiveness	204.81435511091559	
31.0	182.70173213866929	pulse	2.0	t		31.0	female	east_asian	3.395941106247513	smiling	087	sub-13	2.0	3.0	087_smiling	1.0	attractiveness	205.51836112871115	
31.0	183.15169849684935	response	2.0	y		31.0	female	east_asian	3.395941106247513	smiling	087	sub-13	2.0	3.0	087_smiling	1.0	attractiveness	205.9683274868912	
31.0	183.401701138087	pulse	2.0	t		31.0	female	east_asian	3.395941106247513	smiling	087	sub-13	2.0	3.0	087_smiling	1.0	attractiveness	206.21833012812885	
31.0	184.1016970026635	pulse	2.0	t		31.0	female	east_asian	3.395941106247513	smiling	087	sub-13	2.0	3.0	087_smiling	1.0	attractiveness	206.91832599270538	
31.0	184.5015864027282	fix	3.0		444	31.0	female	east_asian	3.395941106247513	smiling	087	sub-13	2.0	3.0	087_smiling	1.0	attractiveness	207.31821539277007	3.7665840286326784
31.0	184.80169498022997	pulse	3.0	t		31.0	female	east_asian	3.395941106247513	smiling	087	sub-13	2.0	3.0	087_smiling	1.0	attractiveness	207.61832397027183	
31.0	185.50167907243394	pulse	3.0	t		31.0	female	east_asian	3.395941106247513	smiling	087	sub-13	2.0	3.0	087_smiling	1.0	attractiveness	208.3183080624758	
31.0	186.20166105164753	pulse	3.0	t		31.0	female	east_asian	3.395941106247513	smiling	087	sub-13	2.0	3.0	087_smiling	1.0	attractiveness	209.0182900416894	
31.0	186.90166476447257	pulse	3.0	t		31.0	female	east_asian	3.395941106247513	smiling	087	sub-13	2.0	3.0	087_smiling	1.0	attractiveness	209.71829375451443	
31.0	187.60163587688066	pulse	3.0	t		31.0	female	east_asian	3.395941106247513	smiling	087	sub-13	2.0	3.0	087_smiling	1.0	attractiveness	210.41826486692253	
32.0	188.2681704313609	face	0.0		145	26.0	female	white	4.854755272582572	neutral	027	sub-13	2.0	3.0	027_neutral	1.0	attractiveness	211.08479942140275	1.2333275276419045
32.0	188.3016435138302	pulse	0.0	t		26.0	female	white	4.854755272582572	neutral	027	sub-13	2.0	3.0	027_neutral	1.0	attractiveness	211.11827250387205	
32.0	189.00161372067078	pulse	0.0	t		26.0	female	white	4.854755272582572	neutral	027	sub-13	2.0	3.0	027_neutral	1.0	attractiveness	211.81824271071264	
32.0	189.5014979590028	fix	1.0		177	26.0	female	white	4.854755272582572	neutral	027	sub-13	2.0	3.0	027_neutral	1.0	attractiveness	212.31812694904465	1.499972983913267
32.0	189.70160656669032	pulse	1.0	t		26.0	female	white	4.854755272582572	neutral	027	sub-13	2.0	3.0	027_neutral	1.0	attractiveness	212.51823555673218	
32.0	190.40158764033686	pulse	1.0	t		26.0	female	white	4.854755272582572	neutral	027	sub-13	2.0	3.0	027_neutral	1.0	attractiveness	213.21821663037872	
32.0	191.00147094291606	rating	2.0		294	26.0	female	white	4.854755272582572	neutral	027	sub-13	2.0	3.0	027_neutral	1.0	attractiveness	213.81809993295792	2.499956381848733
32.0	191.10158199563466	pulse	2.0	t		26.0	female	white	4.854755272582572	neutral	027	sub-13	2.0	3.0	027_neutral	1.0	attractiveness	213.91821098567652	
32.0	191.80155220247525	pulse	2.0	t		26.0	female	white	4.854755272582572	neutral	027	sub-13	2.0	3.0	027_neutral	1.0	attractiveness	214.6181811925171	
32.0	192.05155605113578	response	2.0	w		26.0	female	white	4.854755272582572	neutral	027	sub-13	2.0	3.0	027_neutral	1.0	attractiveness	214.86818504117764	
32.0	192.5015393132362	pulse	2.0	t		26.0	female	white	4.854755272582572	neutral	027	sub-13	2.0	3.0	027_neutral	1.0	attractiveness	215.31816830327807	
32.0	193.20153789451433	pulse	2.0	t		26.0	female	white	4.854755272582572	neutral	027	sub-13	2.0	3.0	027_neutral	1.0	attractiveness	216.0181668845562	
32.0	193.5014273247648	fix	3.0		444	26.0	female	white	4.854755272582572	neutral	027	sub-13	2.0	3.0	027_neutral	1.0	attractiveness	216.31805631480665	3.7665840286326784
32.0	193.90153768321534	pulse	3.0	t		26.0	female	white	4.854755272582572	neutral	027	sub-13	2.0	3.0	027_neutral	1.0	attractiveness	216.7181666732572	
32.0	194.60151543644906	pulse	3.0	t		26.0	female	white	4.854755272582572	neutral	027	sub-13	2.0	3.0	027_neutral	1.0	attractiveness	217.41814442649093	
32.0	195.3015100936027	pulse	3.0	t		26.0	female	white	4.854755272582572	neutral	027	sub-13	2.0	3.0	027_neutral	1.0	attractiveness	218.11813908364456	
32.0	196.00149780807487	pulse	3.0	t		26.0	female	white	4.854755272582572	neutral	027	sub-13	2.0	3.0	027_neutral	1.0	attractiveness	218.81812679811674	
32.0	196.70147646687565	pulse	3.0	t		26.0	female	white	4.854755272582572	neutral	027	sub-13	2.0	3.0	027_neutral	1.0	attractiveness	219.5181054569175	
33.0	197.26801135339747	face	0.0		145	54.0	female	white	2.286908077994429	smiling	136	sub-13	2.0	3.0	136_smiling	0.0		220.08464034343933	1.2333284332089534
33.0	197.40146840732814	pulse	0.0	t		54.0	female	white	2.286908077994429	smiling	136	sub-13	2.0	3.0	136_smiling	0.0		220.21809739737	
33.0	198.10144978283006	pulse	0.0	t		54.0	female	white	2.286908077994429	smiling	136	sub-13	2.0	3.0	136_smiling	0.0		220.91807877287192	
33.0	198.50133978660642	fix	1.0		444	54.0	female	white	2.286908077994429	smiling	136	sub-13	2.0	3.0	136_smiling	0.0		221.31796877664829	3.7665816137869115
33.0	198.80144474183953	pulse	1.0	t		54.0	female	white	2.286908077994429	smiling	136	sub-13	2.0	3.0	136_smiling	0.0		221.6180737318814	
33.0	199.50143034332177	pulse	1.0	t		54.0	female	white	2.286908077994429	smiling	136	sub-13	2.0	3.0	136_smiling	0.0		222.31805933336364	
33.0	200.20141503923696	pulse	1.0	t		54.0	female	white	2.286908077994429	smiling	136	sub-13	2.0	3.0	136_smiling	0.0		223.01804402927883	
33.0	200.90140637597779	pulse	1.0	t		54.0	female	white	2.286908077994429	smiling	136	sub-13	2.0	3.0	136_smiling	0.0		223.71803536601965	
33.0	201.60138292178863	pulse	1.0	t		54.0	female	white	2.286908077994429	smiling	136	sub-13	2.0	3.0	136_smiling	0.0		224.4180119118305	
34.0	202.26792140039333	face	0.0		145	19.0	male	white	2.243931555909272	smiling	130	sub-13	2.0	3.0	130_smiling	0.0		225.0845503904352	1.233325716507352
34.0	202.3013914643052	pulse	0.0	t		19.0	male	white	2.243931555909272	smiling	130	sub-13	2.0	3.0	130_smiling	0.0		225.11802045434706	
34.0	203.0013631804245	pulse	0.0	t		19.0	male	white	2.243931555909272	smiling	130	sub-13	2.0	3.0	130_smiling	0.0		225.81799217046637	
34.0	203.5012471169007	fix	1.0		443	19.0	male	white	2.243931555909272	smiling	130	sub-13	2.0	3.0	130_smiling	0.0		226.31787610694255	3.7665798026528137
34.0	203.70136115799096	pulse	1.0	t		19.0	male	white	2.243931555909272	smiling	130	sub-13	2.0	3.0	130_smiling	0.0		226.51799014803282	
34.0	204.40133740194597	pulse	1.0	t		19.0	male	white	2.243931555909272	smiling	130	sub-13	2.0	3.0	130_smiling	0.0		227.21796639198783	
34.0	205.10132994611013	pulse	1.0	t		19.0	male	white	2.243931555909272	smiling	130	sub-13	2.0	3.0	130_smiling	0.0		227.917958936152	
34.0	205.80130981233333	pulse	1.0	t		19.0	male	white	2.243931555909272	smiling	130	sub-13	2.0	3.0	130_smiling	0.0		228.6179388023752	
34.0	206.50129450824852	pulse	1.0	t		19.0	male	white	2.243931555909272	smiling	130	sub-13	2.0	3.0	130_smiling	0.0		229.31792349829038	
34.0	207.20129520251658	pulse	1.0	t		19.0	male	white	2.243931555909272	smiling	130	sub-13	2.0	3.0	130_smiling	0.0		230.01792419255844	
35.0	207.2678269195535	face	0.0		146	21.0	male	black	2.969757262236371	neutral	137	sub-13	2.0	3.0	137_neutral	0.0		230.08445590959536	1.2333353758904195
35.0	207.9012829169892	pulse	0.0	t		21.0	male	black	2.969757262236371	neutral	137	sub-13	2.0	3.0	137_neutral	0.0		230.71791190703107	
35.0	208.50116229544392	fix	1.0		443	21.0	male	black	2.969757262236371	neutral	137	sub-13	2.0	3.0	137_neutral	0.0		231.31779128548578	3.7665816137869115
35.0	208.6012700277497	pulse	1.0	t		21.0	male	black	2.969757262236371	neutral	137	sub-13	2.0	3.0	137_neutral	0.0		231.41789901779157	
35.0	209.30125442180906	pulse	1.0	t		21.0	male	black	2.969757262236371	neutral	137	sub-13	2.0	3.0	137_neutral	0.0		232.11788341185093	
35.0	210.00124213628123	pulse	1.0	t		21.0	male	black	2.969757262236371	neutral	137	sub-13	2.0	3.0	137_neutral	0.0		232.8178711263231	
35.0	210.7012292470422	pulse	1.0	t		21.0	male	black	2.969757262236371	neutral	137	sub-13	2.0	3.0	137_neutral	0.0		233.51785823708406	
35.0	211.40120579285303	pulse	1.0	t		21.0	male	black	2.969757262236371	neutral	137	sub-13	2.0	3.0	137_neutral	0.0		234.2178347828949	
35.0	212.10120739268814	pulse	1.0	t		21.0	male	black	2.969757262236371	neutral	137	sub-13	2.0	3.0	137_neutral	0.0		234.91783638273	
36.0	212.26774390923083	face	0.0		146	20.0	male	black	2.609629924393156	smiling	043	sub-13	2.0	3.0	043_smiling	0.0		235.0843728992727	1.233330244343506
36.0	212.80118695705596	pulse	0.0	t		20.0	male	black	2.609629924393156	smiling	043	sub-13	2.0	3.0	043_smiling	0.0		235.61781594709782	
36.0	213.50107415357434	fix	1.0		444	20.0	male	black	2.609629924393156	smiling	043	sub-13	2.0	3.0	043_smiling	0.0		236.3177031436162	3.766582217498126
36.0	213.50859941663384	pulse	1.0	t		20.0	male	black	2.609629924393156	smiling	043	sub-13	2.0	3.0	043_smiling	0.0		236.3252284066757	
36.0	214.20116963053806	pulse	1.0	t		20.0	male	black	2.609629924393156	smiling	043	sub-13	2.0	3.0	043_smiling	0.0		237.01779862057992	
36.0	214.90115643944318	pulse	1.0	t		20.0	male	black	2.609629924393156	smiling	043	sub-13	2.0	3.0	043_smiling	0.0		237.71778542948505	
36.0	215.60117796175564	pulse	1.0	t		20.0	male	black	2.609629924393156	smiling	043	sub-13	2.0	3.0	043_smiling	0.0		238.4178069517975	
36.0	216.30113186838753	pulse	1.0	t		20.0	male	black	2.609629924393156	smiling	043	sub-13	2.0	3.0	043_smiling	0.0		239.1177608584294	
36.0	217.00112079028258	pulse	1.0	t		20.0	male	black	2.609629924393156	smiling	043	sub-13	2.0	3.0	043_smiling	0.0		239.81774978032445	
37.0	217.26765637107246	face	0.0		145	47.0	male	east_asian	2.171110226820533	neutral	024	sub-13	2.0	3.0	024_neutral	0.0		240.08428536111433	1.2333269239302354
37.0	217.70111001403347	pulse	0.0	t		47.0	male	east_asian	2.171110226820533	neutral	024	sub-13	2.0	3.0	024_neutral	0.0		240.51773900407534	
37.0	218.4010883709784	pulse	0.0	t		47.0	male	east_asian	2.171110226820533	neutral	024	sub-13	2.0	3.0	024_neutral	0.0		241.21771736102028	
37.0	218.5009832950027	fix	1.0		444	47.0	male	east_asian	2.171110226820533	neutral	024	sub-13	2.0	3.0	024_neutral	0.0		241.31761228504456	3.766584330488513
37.0	219.101082122565	pulse	1.0	t		47.0	male	east_asian	2.171110226820533	neutral	024	sub-13	2.0	3.0	024_neutral	0.0		241.91771111260687	
37.0	219.80105866837584	pulse	1.0	t		47.0	male	east_asian	2.171110226820533	neutral	024	sub-13	2.0	3.0	024_neutral	0.0		242.6176876584177	
37.0	220.5010566459423	pulse	1.0	t		47.0	male	east_asian	2.171110226820533	neutral	024	sub-13	2.0	3.0	024_neutral	0.0		243.31768563598416	
37.0	221.20104617154902	pulse	1.0	t		47.0	male	east_asian	2.171110226820533	neutral	024	sub-13	2.0	3.0	024_neutral	0.0		244.0176751615909	
37.0	221.90103479158824	pulse	1.0	t		47.0	male	east_asian	2.171110226820533	neutral	024	sub-13	2.0	3.0	024_neutral	0.0		244.7176637816301	
38.0	222.2675676254912	face	0.0		145	19.0	female	white	4.298846000795861	neutral	100	sub-13	2.0	3.0	100_neutral	0.0		245.08419661553307	1.2333127367119232
38.0	222.60101043183204	pulse	0.0	t		19.0	female	white	4.298846000795861	neutral	100	sub-13	2.0	3.0	100_neutral	0.0		245.4176394218739	
38.0	223.3009966370255	pulse	0.0	t		19.0	female	white	4.298846000795861	neutral	100	sub-13	2.0	3.0	100_neutral	0.0		246.11762562706735	
38.0	223.50088036220313	fix	1.0		444	19.0	female	white	4.298846000795861	neutral	100	sub-13	2.0	3.0	100_neutral	0.0		246.317509352245	3.7583418582416925
38.0	224.00099340716952	pulse	1.0	t		19.0	female	white	4.298846000795861	neutral	100	sub-13	2.0	3.0	100_neutral	0.0		246.81762239721138	
38.0	224.7009856494774	pulse	1.0	t		19.0	female	white	4.298846000795861	neutral	100	sub-13	2.0	3.0	100_neutral	0.0		247.51761463951925	
38.0	225.40096702497976	pulse	1.0	t		19.0	female	white	4.298846000795861	neutral	100	sub-13	2.0	3.0	100_neutral	0.0		248.21759601502163	
38.0	226.10095051347207	pulse	1.0	t		19.0	female	white	4.298846000795861	neutral	100	sub-13	2.0	3.0	100_neutral	0.0		248.91757950351393	
38.0	226.80094335949116	pulse	1.0	t		19.0	female	white	4.298846000795861	neutral	100	sub-13	2.0	3.0	100_neutral	0.0		249.61757234953302	
39.0	227.25922222044483	face	0.0		146	22.0	female	west_asian	3.8205332272184642	smiling	066	sub-13	2.0	3.0	066_smiling	0.0		250.0758512104867	1.2415576238040558
39.0	227.50093469623243	pulse	0.0	t		22.0	female	west_asian	3.8205332272184642	smiling	066	sub-13	2.0	3.0	066_smiling	0.0		250.3175636862743	
39.0	228.20091486431147	pulse	0.0	t		22.0	female	west_asian	3.8205332272184642	smiling	066	sub-13	2.0	3.0	066_smiling	0.0		251.01754385435333	
39.0	228.50077984424888	fix	1.0		444	22.0	female	west_asian	3.8205332272184642	smiling	066	sub-13	2.0	3.0	066_smiling	0.0		251.31740883429075	3.7499596267975903
39.0	228.9009089177539	pulse	1.0	t		22.0	female	west_asian	3.8205332272184642	smiling	066	sub-13	2.0	3.0	066_smiling	0.0		251.71753790779576	
39.0	229.60085799469425	pulse	1.0	t		22.0	female	west_asian	3.8205332272184642	smiling	066	sub-13	2.0	3.0	066_smiling	0.0		252.41748698473612	
39.0	230.3008795170067	pulse	1.0	t		22.0	female	west_asian	3.8205332272184642	smiling	066	sub-13	2.0	3.0	066_smiling	0.0		253.11750850704857	
39.0	231.0008696463251	pulse	1.0	t		22.0	female	west_asian	3.8205332272184642	smiling	066	sub-13	2.0	3.0	066_smiling	0.0		253.81749863636696	
39.0	231.70085434223984	pulse	1.0	t		22.0	female	west_asian	3.8205332272184642	smiling	066	sub-13	2.0	3.0	066_smiling	0.0		254.5174833322817	
40.0	232.25073947104647	fix	0.0		720													255.06736846108834	5.999893444931331
40.0	232.4008459808365	pulse	0.0	t														255.21747497087836	
40.0	233.10083188417457	pulse	0.0	t														255.91746087421643	
40.0	233.80081718380097	pulse	0.0	t														256.61744617384284	
40.0	234.5008157650791	pulse	0.0	t														257.31744475512096	
40.0	235.20079442387987	pulse	0.0	t														258.01742341392173	
40.0	235.90077700680513	pulse	0.0	t														258.717405996847	
40.0	236.60076079715282	pulse	0.0	t														259.4173897871947	
40.0	237.3007584728639	pulse	0.0	t														260.11738746290575	
40.0	238.0007410557887	pulse	0.0	t														260.81737004583056	
