trial_nr	onset	event_type	phase	response	nr_frames	trial_type	stim_name	task_probe	onset_abs	duration
0.0	0.05910679351291037	baseline	0.0		40.0		baseline	0.0	26.49918393552798	0.3413778645663115
0.0	0.40048465807922184	ISI	1.0		11.0		baseline	0.0	26.840561800094292	0.10000389392735087
1.0	0.5004885520065727	baseline	0.0		48.0		baseline	0.0	26.940565694021643	0.3999841828044737
1.0	0.7006086298461014	pulse	0.0	t			baseline	0.0	27.140685771861172	
1.0	0.9004727348110464	ISI	1.0		11.0		baseline	0.0	27.340549876826117	0.09999725312445662
2.0	1.000469987935503	baseline	0.0		48.0		baseline	0.0	27.440547129950573	0.39997724014756386
2.0	1.4004472280830669	ISI	1.0		11.0		baseline	0.0	27.840524370098137	0.09999634755513398
2.0	1.405109677434666	pulse	1.0	t			baseline	0.0	27.845186819449737	
3.0	1.5004435756382009	baseline	0.0		48.0		baseline	0.0	27.94052071765327	0.39999112546865945
3.0	1.9004347011068603	ISI	1.0		11.0		baseline	0.0	28.34051184312193	0.09999876239453442
4.0	2.0004334635013947	baseline	0.0		48.0		baseline	0.0	28.440510605516465	0.39999233288835967
4.0	2.108879934534343	pulse	0.0	t			baseline	0.0	28.548957076549414	
4.0	2.4004257963897544	ISI	1.0		11.0		baseline	0.0	28.840502938404825	0.09999846054051886
5.0	2.5004242569302733	baseline	0.0		48.0		baseline	0.0	28.940501398945344	0.399991427322675
5.0	2.8005340415256796	pulse	0.0	t			baseline	0.0	29.24061118354075	
5.0	2.9004156842529483	ISI	1.0		11.0		baseline	0.0	29.34049282626802	0.10002955158779514
6.0	3.0004452358407434	baseline	0.0		48.0		baseline	0.0	29.440522377855814	0.39996003442138317
6.0	3.4004052702621266	ISI	1.0		11.0		baseline	0.0	29.840482412277197	0.09999785683248774
7.0	3.5004031270946143	baseline	0.0		47.0		baseline	0.0	29.940480269109685	0.3999902199029748
7.0	3.504617020204023	pulse	0.0	t			baseline	0.0	29.944694162219093	
7.0	3.900393346997589	ISI	1.0		11.0		baseline	0.0	30.34047048901266	0.09999906425218796
8.0	4.000392411249777	baseline	0.0		48.0		baseline	0.0	30.440469553264847	0.39998961619494366
8.0	4.200802873416251	pulse	0.0	t			baseline	0.0	30.64088001543132	
8.0	4.400382027444721	ISI	1.0		11.0		baseline	0.0	30.84045916945979	0.1000002716682502
9.0	4.500382299112971	baseline	0.0		48.0		baseline	0.0	30.94045944112804	0.3999899180489592
9.0	4.90037221716193	ISI	1.0		11.0		baseline	0.0	31.340449359177	0.09999634755513398
9.0	4.904879814999731	pulse	1.0	t			baseline	0.0	31.3449569570148	
10.0	5.000368564717064	baseline	0.0		48.0		baseline	0.0	31.440445706732135	0.3999956532934448
10.0	5.400364218010509	ISI	1.0		11.0		baseline	0.0	31.84044136002558	0.09999514013543376
11.0	5.500359358145943	baseline	0.0		48.0		baseline	0.0	31.940436500161013	0.39999293660002877
11.0	5.600682010750461	pulse	0.0	t			baseline	0.0	32.04075915276553	
11.0	5.9003522947459714	ISI	1.0		7.0		baseline	0.0	32.34042943676104	0.12551454925051075
12.0	6.025866843996482	body	0.0		45.0	body	body-7.jpg	0.0	32.46594398601155	0.37442673998884857
12.0	6.308761245221831	pulse	0.0	t		body	body-7.jpg	0.0	32.7488383872369	
12.0	6.400293583985331	ISI	1.0		7.0	body	body-7.jpg	0.0	32.8403707260004	0.11670099258844857
13.0	6.516994576573779	body	0.0		46.0	body	body-7.jpg	1.0	32.95707171858885	0.3832855748732982
13.0	6.9002801514470775	ISI	1.0		8.0	body	body-7.jpg	1.0	33.34035729346215	0.1166946536359319
14.0	7.016974805083009	body	0.0		45.0	body	body-96.jpg	0.0	33.45705194709808	0.3832976490666624
14.0	7.008921922537411	pulse	0.0	t		body	body-96.jpg	0.0	33.44899906455248	
14.0	7.400272454149672	ISI	1.0		8.0	body	body-96.jpg	0.0	33.84034959616474	0.11669918146071723
15.0	7.516971635610389	body	0.0		46.0	body	body-111.jpg	0.0	33.95704877762546	0.3832759155156964
15.0	7.700384955434856	pulse	0.0	t		body	body-111.jpg	0.0	34.14046209744993	
15.0	7.9002475511260855	ISI	1.0		8.0	body	body-111.jpg	0.0	34.340324693141156	0.11671216121612815
16.0	8.016959712342214	body	0.0		46.0	body	body-125.jpg	0.0	34.457036854357284	0.38328919713239884
16.0	8.400248909474612	ISI	1.0		8.0	body	body-125.jpg	0.0	34.84032605148968	0.11670099258844857
16.0	8.431989546163095	pulse	1.0	t		body	body-125.jpg	0.0	34.872066688178165	
17.0	8.516949902063061	body	0.0		46.0	body	body-1.jpg	0.0	34.95702704407813	0.383303384303872
17.0	8.900253286366933	ISI	1.0		8.0	body	body-1.jpg	0.0	35.340330428382	0.11668952210675343
18.0	9.016942808473686	body	0.0		46.0	body	body-60.jpg	0.0	35.45701995048876	0.3832849711616291
18.0	9.108764625994809	pulse	0.0	t		body	body-60.jpg	0.0	35.54884176800988	
18.0	9.400227779635316	ISI	1.0		6.0	body	body-60.jpg	0.0	35.840304921650386	0.11670401113951812
19.0	9.516931790774834	body	0.0		46.0	body	body-18.jpg	0.0	35.957008932789904	0.3832931212418771
19.0	9.808665406322689	pulse	0.0	t		body	body-18.jpg	0.0	36.24874254833776	
19.0	9.90022491201671	ISI	1.0		7.0	body	body-18.jpg	0.0	36.34030205403178	0.1166946536359319
20.0	10.016919565652643	body	0.0		46.0	body	body-12.jpg	0.0	36.45699670766771	0.3832888952747453
20.0	10.400208460927388	ISI	1.0		6.0	body	body-12.jpg	0.0	36.84028560294246	0.11669495549358544
21.0	10.516903416420973	body	0.0		45.0	body	body-55.jpg	0.0	36.956980558436044	0.38329342309953063
21.0	10.506602922978345	pulse	0.0	t		body	body-55.jpg	0.0	36.946680064993416	
21.0	10.900196839520504	ISI	1.0		7.0	body	body-55.jpg	0.0	37.340273981535574	0.11670008702276391
22.0	11.016896926543268	body	0.0		46.0	body	body-42.jpg	0.0	37.45697406855834	0.3832879897126986
22.0	11.208636609371752	pulse	0.0	t		body	body-42.jpg	0.0	37.64871375138682	
22.0	11.400184916255967	ISI	1.0		7.0	body	body-42.jpg	0.0	37.84026205827104	0.11670129444246413
23.0	11.51688621069843	body	0.0		46.0	body	body-100.jpg	0.0	37.9569633527135	0.3832894989827764
23.0	11.900175709681207	ISI	1.0		7.0	body	body-100.jpg	0.0	38.34025285169628	0.11669978517238633
23.0	11.935746883875254	pulse	1.0	t		body	body-100.jpg	0.0	38.375824025890324	
24.0	12.016875494853593	word	0.0		46.0	character	word-51.jpg	0.0	38.456952636868664	0.38332240115778404
24.0	12.400197896011377	ISI	1.0		7.0	character	word-51.jpg	0.0	38.84027503802645	0.11670461484754924
25.0	12.516902510858927	word	0.0		46.0	character	word-51.jpg	1.0	38.956979652874	0.3832846693076135
25.0	12.608719498701248	pulse	0.0	t		character	word-51.jpg	1.0	39.04879664071632	
25.0	12.90018718016654	ISI	1.0		7.0	character	word-51.jpg	1.0	39.34026432218161	0.11670189815049525
26.0	13.016889078317035	word	0.0		46.0	character	word-22.jpg	0.0	39.456966220332106	0.38328648043898284
26.0	13.308628730963392	pulse	0.0	t		character	word-22.jpg	0.0	39.74870587297846	
26.0	13.400175558756018	ISI	1.0		5.0	character	word-22.jpg	0.0	39.84025270077109	0.11670401113588014
27.0	13.516879569891898	word	0.0		46.0	character	word-67.jpg	0.0	39.95695671190697	0.3832855748732982
27.0	13.550298821166507	response	0.0	b		character	word-67.jpg	0.0	39.99037596318158	
27.0	13.900165144765197	ISI	1.0		6.0	character	word-67.jpg	0.0	40.34024228678027	0.11669857774904813
28.0	14.016863722514245	word	0.0		45.0	character	word-32.jpg	0.0	40.456940864529315	0.38329131011414574
28.0	14.006685782125714	pulse	0.0	t		character	word-32.jpg	0.0	40.446762924140785	
28.0	14.40015503262839	ISI	1.0		7.0	character	word-32.jpg	0.0	40.84023217464346	0.1167049167015648
29.0	14.516859949329955	word	0.0		46.0	character	word-135.jpg	0.0	40.956937091345026	0.3832849711616291
29.0	14.708597217319038	pulse	0.0	t		character	word-135.jpg	0.0	41.14867435933411	
29.0	14.900144920491584	ISI	1.0		7.0	character	word-135.jpg	0.0	41.340222062506655	0.11670310557383345
30.0	15.016848026065418	word	0.0		46.0	character	word-98.jpg	0.0	41.45692516808049	0.3832867822893604
30.0	15.400134808354778	ISI	1.0		5.0	character	word-98.jpg	0.0	41.84021195036985	0.11670431299353368
30.0	15.450212219020614	pulse	1.0	t		character	word-98.jpg	0.0	41.890289361035684	
31.0	15.516839121348312	word	0.0		46.0	character	word-88.jpg	0.0	41.95691626336338	0.3832970453549933
31.0	15.900136166703305	ISI	1.0		7.0	character	word-88.jpg	0.0	42.340213308718376	0.11669284250820056
32.0	16.016829009211506	word	0.0		46.0	character	word-124.jpg	0.0	42.456906151226576	0.38328436745359795
32.0	16.108684936327336	pulse	0.0	t		character	word-124.jpg	0.0	42.548762078342406	
32.0	16.400113376665104	ISI	1.0		7.0	character	word-124.jpg	0.0	42.840190518680174	0.11670310557383345
33.0	16.516816482238937	word	0.0		46.0	character	word-126.jpg	0.0	42.95689362425401	0.38329976204477134
33.0	16.808550399640808	pulse	0.0	t		character	word-126.jpg	0.0	43.24862754165588	
33.0	16.90011624428371	ISI	1.0		7.0	character	word-126.jpg	0.0	43.34019338629878	0.11669163509213831
34.0	17.016807879375847	word	0.0		46.0	character	word-128.jpg	0.0	43.45688502139092	0.38328648043534486
34.0	17.40009435981119	ISI	1.0		6.0	character	word-128.jpg	0.0	43.84017150182626	0.11669374807388522
35.0	17.516788107885077	word	0.0		45.0	character	word-23.jpg	0.0	43.95686524990015	0.3832949323732464
35.0	17.50657032266099	pulse	0.0	t		character	word-23.jpg	0.0	43.94664746467606	
35.0	17.900083040258323	ISI	1.0		7.0	character	word-23.jpg	0.0	44.340160182273394	0.11670280371617991
36.0	18.016785843974503	house	0.0		46.0	place	house-49.jpg	0.0	44.456862985989574	0.3832861785813293
36.0	18.20852220640154	pulse	0.0	t		place	house-49.jpg	0.0	44.64859934841661	
36.0	18.400072022555833	ISI	1.0		7.0	place	house-49.jpg	0.0	44.8401491645709	0.11671608532924438
37.0	18.516788107885077	house	0.0		46.0	place	house-19.jpg	0.0	44.95686524990015	0.3832728969719028
37.0	18.90006100485698	ISI	1.0		7.0	place	house-19.jpg	0.0	45.34013814687205	0.116695257347601
37.0	18.936489144845837	pulse	1.0	t		place	house-19.jpg	0.0	45.37656628686091	
38.0	19.01675626220458	house	0.0		46.0	place	house-100.jpg	0.0	45.45683340421965	0.38329463051559287
38.0	19.400050892720174	ISI	1.0		7.0	place	house-100.jpg	0.0	45.840128034735244	0.11670521855558036
39.0	19.516756111275754	house	0.0		46.0	place	house-36.jpg	0.0	45.956833253290824	0.3832840655995824
39.0	19.600499992302503	pulse	0.0	t		place	house-36.jpg	0.0	46.04057713431757	
39.0	19.900040176875336	ISI	1.0		7.0	place	house-36.jpg	0.0	46.34011731889041	0.11670461484391126
40.0	20.016744791719248	house	0.0		46.0	place	house-21.jpg	0.0	46.45682193373432	0.3832840655995824
40.0	20.300296029010497	pulse	0.0	t		place	house-21.jpg	0.0	46.74037317102557	
40.0	20.40002885731883	ISI	1.0		5.0	place	house-21.jpg	0.0	46.8401059993339	0.11670401113588014
41.0	20.51673286845471	house	0.0		46.0	place	house-30.jpg	0.0	46.95681001046978	0.38328587672731373
41.0	20.900018745182024	ISI	1.0		7.0	place	house-30.jpg	0.0	47.340095887197094	0.11670008702640189
42.0	21.016718832208426	house	0.0		45.0	place	house-25.jpg	0.0	47.456795974223496	0.3832894989827764
42.0	21.00643554448834	pulse	0.0	t		place	house-25.jpg	0.0	47.44651268650341	
42.0	21.400008331191202	ISI	1.0		7.0	place	house-25.jpg	0.0	47.84008547320627	0.11670370928186458
43.0	21.516712040473067	house	0.0		46.0	place	house-37.jpg	0.0	47.95678918248814	0.3832846693076135
43.0	21.700252139318764	pulse	0.0	t		place	house-37.jpg	0.0	48.140329281333834	
43.0	21.89999670978068	ISI	1.0		5.0	place	house-37.jpg	0.0	48.34007385179575	0.1167076333949808
44.0	22.01670434317566	house	0.0		46.0	place	house-85.jpg	0.0	48.45678148519073	0.38328225447185105
44.0	22.399986597647512	ISI	1.0		7.0	place	house-85.jpg	0.0	48.84006373966258	0.11670582226361148
44.0	22.436629658259335	pulse	1.0	t		place	house-85.jpg	0.0	48.876706800274405	
45.0	22.516692419911124	house	0.0		46.0	place	house-17.jpg	0.0	48.956769561926194	0.3832867822929984
45.0	22.899979202204122	ISI	1.0		7.0	place	house-17.jpg	0.0	49.34005634421919	0.11670129444246413
46.0	23.016680496646586	house	0.0		46.0	place	house-73.jpg	0.0	49.45675763866166	0.3832867822929984
46.0	23.100387853242864	pulse	0.0	t		place	house-73.jpg	0.0	49.540464995257935	
46.0	23.399967278939585	ISI	1.0		6.0	place	house-73.jpg	0.0	49.840044420954655	0.11670401113588014
47.0	23.516671290075465	house	0.0		46.0	place	house-107.jpg	0.0	49.956748432090535	0.38328316003389773
47.0	23.800230677443324	pulse	0.0	t		place	house-107.jpg	0.0	50.240307819458394	
47.0	23.899954450109362	ISI	1.0		7.0	place	house-107.jpg	0.0	50.34003159212443	0.11670370928186458
48.0	24.016658159391227	adult	0.0		46.0	face	adult-106.jpg	0.0	50.4567353014063	0.3832901026944455
48.0	24.399948262085672	ISI	1.0		7.0	face	adult-106.jpg	0.0	50.84002540410074	0.116695257347601
49.0	24.516643519433273	adult	0.0		45.0	face	adult-109.jpg	0.0	50.956720661448344	0.3832970453549933
49.0	24.50625548809694	pulse	0.0	t		face	adult-109.jpg	0.0	50.94633263011201	
49.0	24.899940564788267	ISI	1.0		7.0	face	adult-109.jpg	0.0	51.34001770680334	0.11669827589503257
50.0	25.0166388406833	adult	0.0		46.0	face	adult-141.jpg	0.0	51.45671598269837	0.38330579914327245
50.0	25.20020097493034	pulse	0.0	t		face	adult-141.jpg	0.0	51.64027811694541	
50.0	25.399944639826572	ISI	1.0		7.0	face	adult-141.jpg	0.0	51.84002178184164	0.1166855979936372
51.0	25.51663023782021	adult	0.0		46.0	face	adult-104.jpg	0.0	51.95670737983528	0.3832834618879133
51.0	25.899913699708122	ISI	1.0		7.0	face	adult-104.jpg	0.0	52.33999084172319	0.11670250186580233
51.0	25.93504114733878	pulse	1.0	t		face	adult-104.jpg	0.0	52.37511828935385	
52.0	26.016616201573925	adult	0.0		46.0	face	adult-16.jpg	0.0	52.456693343588995	0.3832873860010295
52.0	26.399903587574954	ISI	1.0		7.0	face	adult-16.jpg	0.0	52.839980729590025	0.11670461484391126
53.0	26.516608202418865	adult	0.0		46.0	face	adult-143.jpg	0.0	52.956685344433936	0.3832840655995824
53.0	26.600202363460994	pulse	0.0	t		face	adult-143.jpg	0.0	53.040279505476065	
53.0	26.899892268018448	ISI	1.0		7.0	face	adult-143.jpg	0.0	53.33996941003352	0.11670431299353368
54.0	27.01659658101198	adult	0.0		46.0	face	adult-58.jpg	0.0	53.45667372302705	0.38328648043534486
54.0	27.300134838540544	pulse	0.0	t		face	adult-58.jpg	0.0	53.740211980555614	
54.0	27.399883061447326	ISI	1.0		7.0	face	adult-58.jpg	0.0	53.8399602034624	0.11670370928186458
55.0	27.51658677072919	adult	0.0		46.0	face	adult-14.jpg	0.0	53.95666391274426	0.3832855748732982
55.0	27.89987234560249	ISI	1.0		7.0	face	adult-14.jpg	0.0	54.33994948761756	0.11671548161757528
56.0	28.016587827220064	adult	0.0		45.0	face	adult-53.jpg	0.0	54.456664969235135	0.3832728969719028
56.0	28.0061967773363	pulse	0.0	t		face	adult-53.jpg	0.0	54.44627391935137	
56.0	28.399860724191967	ISI	1.0		7.0	face	adult-53.jpg	0.0	54.83993786620704	0.11670552040959592
57.0	28.516566244601563	adult	0.0		46.0	face	adult-44.jpg	0.0	54.95664338661663	0.38328376374556683
57.0	28.700106645301275	pulse	0.0	t		face	adult-44.jpg	0.0	55.140183787316346	
57.0	28.89985000834713	ISI	1.0		7.0	face	adult-44.jpg	0.0	55.3399271503622	0.1167070296833117
58.0	29.01655703803044	adult	0.0		46.0	face	adult-35.jpg	0.0	55.45663418004551	0.38325206899025943
58.0	29.3998091070207	ISI	1.0		7.0	face	adult-35.jpg	0.0	55.83988624903577	0.1167022000081488
58.0	29.435564714502107	pulse	1.0	t		face	adult-35.jpg	0.0	55.87564185651718	
59.0	29.51651130702885	adult	0.0		46.0	face	adult-24.jpg	0.0	55.95658844904392	0.38328587672367576
59.0	29.899797183752526	ISI	1.0		11.0	face	adult-24.jpg	0.0	56.339874325767596	0.10000419578500441
60.0	29.99980137953753	baseline	0.0		48.0		baseline	0.0	56.4398785215526	0.39998569208182744
60.0	30.100111957948684	pulse	0.0	t			baseline	0.0	56.540189099963754	
60.0	30.399787071619357	ISI	1.0		11.0		baseline	0.0	56.83986421363443	0.09999815868286532
61.0	30.499785230302223	baseline	0.0		48.0		baseline	0.0	56.93986237231729	0.39999384216207545
61.0	30.800088805684936	pulse	0.0	t			baseline	0.0	57.24016594770001	
61.0	30.8997790724643	ISI	1.0		11.0		baseline	0.0	57.33985621447937	0.09999634755877196
62.0	30.99977542002307	baseline	0.0		48.0		baseline	0.0	57.43985256203814	0.39999384216207545
62.0	31.399769262185146	ISI	1.0		11.0		baseline	0.0	57.839846404200216	0.09998125481433817
63.0	31.499750516999484	baseline	0.0		47.0		baseline	0.0	57.939827659014554	0.4000059163554397
63.0	31.50402025325093	pulse	0.0	t			baseline	0.0	57.944097395266	
63.0	31.899756433354924	ISI	1.0		11.0		baseline	0.0	58.339833575369994	0.09999876239453442
64.0	31.999755195749458	baseline	0.0		48.0		baseline	0.0	58.43983233776453	0.39998961619494366
64.0	32.200063329139084	pulse	0.0	t			baseline	0.0	58.640140471154155	
64.0	32.3997448119444	ISI	1.0		11.0		baseline	0.0	58.83982195395947	0.09999966796021909
65.0	32.49974447990462	baseline	0.0		48.0		baseline	0.0	58.93982162191969	0.3999908236146439
65.0	32.899735303519265	ISI	1.0		11.0		baseline	0.0	59.339812445534335	0.09999846054051886
65.0	32.90429783892978	pulse	1.0	t			baseline	0.0	59.34437498094485	
66.0	32.99973376405978	baseline	0.0		48.0		baseline	0.0	59.439810906074854	0.39999233288835967
66.0	33.39972609694814	ISI	1.0		11.0		baseline	0.0	59.83980323896321	0.09999876239453442
67.0	33.49972485934268	baseline	0.0		48.0		baseline	0.0	59.93980200135775	0.3999754290198325
67.0	33.600035135899816	pulse	0.0	t			baseline	0.0	60.040112277914886	
67.0	33.89970028836251	ISI	1.0		11.0		baseline	0.0	60.33977743037758	0.10001113844191423
68.0	33.999711426804424	baseline	0.0		48.0		baseline	0.0	60.439788568819495	0.39999263474237523
68.0	34.300020133716316	pulse	0.0	t			baseline	0.0	60.74009727573139	
68.0	34.3997040615468	ISI	1.0		11.0		baseline	0.0	60.83978120356187	0.09999906424854998
69.0	34.49970312579535	baseline	0.0		48.0		baseline	0.0	60.93978026781042	0.3999950495817757
69.0	34.899698175377125	ISI	1.0		11.0		baseline	0.0	61.339775317392196	0.10003166456954204
70.0	34.99972983994667	baseline	0.0		47.0		baseline	0.0	61.43980698196174	0.40002221651229775
70.0	35.00407021021965	pulse	0.0	t			baseline	0.0	61.44414735223472	
70.0	35.399752056458965	ISI	1.0		11.0		baseline	0.0	61.839829198474035	0.10000027167188819
71.0	35.49975232813085	baseline	0.0		48.0		baseline	0.0	61.93982947014592	0.39999746441753814
71.0	35.70006046151684	pulse	0.0	t			baseline	0.0	62.14013760353191	
71.0	35.89974979254839	ISI	1.0		7.0		baseline	0.0	62.33982693456346	0.11666326073827804
72.0	36.01641305328667	adult	0.0		46.0	face	adult-6.jpg	0.0	62.45649019530174	0.3832813489061664
72.0	36.399694402192836	ISI	1.0		7.0	face	adult-6.jpg	0.0	62.839771544207906	0.11670401113588014
72.0	36.4363794206256	pulse	1.0	t		face	adult-6.jpg	0.0	62.87645656264067	
73.0	36.516398413328716	adult	0.0		46.0	face	adult-128.jpg	0.0	62.956475555343786	0.38328436745359795
73.0	36.899682780782314	ISI	1.0		7.0	face	adult-128.jpg	0.0	63.339759922797384	0.11670552040959592
74.0	37.01638830119191	adult	0.0		46.0	face	adult-105.jpg	0.0	63.45646544320698	0.38330006390606286
74.0	37.09993446732187	pulse	0.0	t		face	adult-105.jpg	0.0	63.54001160933694	
74.0	37.39968836509797	ISI	1.0		7.0	face	adult-105.jpg	0.0	63.83976550711304	0.11671216121612815
75.0	37.5164005263141	adult	0.0		46.0	face	adult-52.jpg	0.0	63.95647766832917	0.3832653505996859
75.0	37.799916446587304	pulse	0.0	t		face	adult-52.jpg	0.0	64.23999358860237	
75.0	37.89966587691379	ISI	1.0		7.0	face	adult-52.jpg	0.0	64.33974301892886	0.11670129444246413
76.0	38.01636717135625	adult	0.0		46.0	face	adult-19.jpg	0.0	64.45644431337132	0.3832852730192826
76.0	38.39965244437553	ISI	1.0		7.0	face	adult-19.jpg	0.0	64.8397295863906	0.1167022000081488
77.0	38.51635464438368	adult	0.0		45.0	face	adult-126.jpg	0.0	64.95643178639875	0.38328919712876086
77.0	38.507439966360835	pulse	0.0	t		face	adult-126.jpg	0.0	64.9475171083759	
77.0	38.89964384151244	ISI	1.0		7.0	face	adult-126.jpg	0.0	65.33972098352751	0.11670189815413323
78.0	39.016345739666576	adult	0.0		46.0	face	adult-126.jpg	1.0	65.45642288168165	0.38329885648272466
78.0	39.199900629395415	pulse	0.0	t		face	adult-126.jpg	1.0	65.63997777141049	
78.0	39.391410902571806	response	0.0	b		face	adult-126.jpg	1.0	65.83148804458688	
78.0	39.3996445961493	ISI	1.0		7.0	face	adult-126.jpg	1.0	65.83972173816437	0.11669012581478455
79.0	39.516334721964085	adult	0.0		46.0	face	adult-40.jpg	0.0	65.95641186397916	0.3832846693076135
79.0	39.8996193912717	ISI	1.0		6.0	face	adult-40.jpg	0.0	66.33969653328677	0.11668529613962164
79.0	39.94593629474912	pulse	1.0	t		face	adult-40.jpg	0.0	66.38601343676419	
80.0	40.01630468741132	adult	0.0		46.0	face	adult-46.jpg	0.0	66.45638182942639	0.38330519543524133
80.0	40.39960988284656	ISI	1.0		7.0	face	adult-46.jpg	0.0	66.83968702486163	0.11670340742784902
81.0	40.51631329027441	adult	0.0		46.0	face	adult-97.jpg	0.0	66.95639043228948	0.38328798970906064
81.0	40.599860060112405	pulse	0.0	t		face	adult-97.jpg	0.0	67.03993720212748	
81.0	40.89960127998347	ISI	1.0		7.0	face	adult-97.jpg	0.0	67.33967842199854	0.1167049167015648
82.0	41.016306196685036	adult	0.0		46.0	face	adult-142.jpg	0.0	67.4563833387001	0.3832798396324506
82.0	41.29984566163694	pulse	0.0	t		face	adult-142.jpg	0.0	67.73992280365201	
82.0	41.39958603631749	ISI	1.0		7.0	face	adult-142.jpg	0.0	67.83966317833256	0.1167076333949808
83.0	41.51629366971247	adult	0.0		46.0	face	adult-27.jpg	0.0	67.95637081172754	0.3832867822893604
83.0	41.89958045200183	ISI	1.0		7.0	face	adult-27.jpg	0.0	68.3396575940169	0.11669767218700144
84.0	42.01627812418883	house	0.0		45.0	place	house-103.jpg	0.0	68.4563552662039	0.3833205900300527
84.0	42.00599876058186	pulse	0.0	t		place	house-103.jpg	0.0	68.44607590259693	
84.0	42.39959871421888	ISI	1.0		5.0	place	house-103.jpg	0.0	68.83967585623395	0.11667141081852606
85.0	42.51627012503741	house	0.0		46.0	place	house-13.jpg	0.0	68.95634726705248	0.383300667610456
85.0	42.69981444985024	pulse	0.0	t		place	house-13.jpg	0.0	69.13989159186531	
85.0	42.899570792647864	ISI	1.0		6.0	place	house-13.jpg	0.0	69.33964793466293	0.11669042767243809
86.0	43.0162612203203	house	0.0		46.0	place	house-142.jpg	0.0	69.45633836233537	0.38327199140621815
86.0	43.39953321172652	ISI	1.0		7.0	place	house-142.jpg	0.0	69.83961035374159	0.11672544282555464
86.0	43.436384552158415	pulse	1.0	t		place	house-142.jpg	0.0	69.87646169417349	
87.0	43.516258654552075	house	0.0		46.0	place	house-142.jpg	1.0	69.95633579656715	0.3832783303587348
87.0	43.89953698491081	ISI	1.0		7.0	place	house-142.jpg	1.0	70.33961412692588	0.1167043129898957
87.0	43.94976894523643	response	1.0	b		place	house-142.jpg	1.0	70.3898460872515	
88.0	44.016241297900706	house	0.0		46.0	place	house-98.jpg	0.0	70.45631843991578	0.38328376374556683
88.0	44.09977810653072	pulse	0.0	t		place	house-98.jpg	0.0	70.53985524854579	
88.0	44.39952506164627	ISI	1.0		7.0	place	house-98.jpg	0.0	70.83960220366134	0.11670733154096524
89.0	44.51623239318724	house	0.0		46.0	place	house-127.jpg	0.0	70.95630953520231	0.38328225446821307
89.0	44.799769141442084	pulse	0.0	t		place	house-127.jpg	0.0	71.23984628345715	
89.0	44.89951464765545	ISI	1.0		5.0	place	house-127.jpg	0.0	71.33959178967052	0.11670370928186458
90.0	45.016218356937316	house	0.0		46.0	place	house-54.jpg	0.0	71.45629549895239	0.38328648043534486
90.0	45.39950483737266	ISI	1.0		7.0	place	house-54.jpg	0.0	71.83958197938773	0.11669918146071723
91.0	45.51620401883338	house	0.0		45.0	place	house-82.jpg	0.0	71.95628116084845	0.38329342309589265
91.0	45.50578670758114	pulse	0.0	t		place	house-82.jpg	0.0	71.94586384959621	
91.0	45.89949744192927	ISI	1.0		7.0	place	house-82.jpg	0.0	72.33957458394434	0.11670129444610211
92.0	46.01619873637537	house	0.0		46.0	place	house-7.jpg	0.0	72.45627587839044	0.3832855748696602
92.0	46.19964616579455	pulse	0.0	t		place	house-7.jpg	0.0	72.63972330780962	
92.0	46.39948431124503	ISI	1.0		7.0	place	house-7.jpg	0.0	72.8395614532601	0.11670521855921834
93.0	46.51618952980425	house	0.0		46.0	place	house-58.jpg	0.0	72.95626667181932	0.3833749238947348
93.0	46.899564453698986	ISI	1.0		7.0	place	house-58.jpg	0.0	73.33964159571406	0.11661496396845905
93.0	46.93657547532348	pulse	1.0	t		place	house-58.jpg	0.0	73.37665261733855	
94.0	47.016179417667445	house	0.0		46.0	place	house-66.jpg	0.0	73.45625655968252	0.38328376374192885
94.0	47.399463181409374	ISI	1.0		7.0	place	house-66.jpg	0.0	73.83954032342444	0.11670370928186458
95.0	47.51616689069124	house	0.0		46.0	place	house-48.jpg	0.0	73.95624403270631	0.3832879897126986
95.0	47.59960076683274	pulse	0.0	t		place	house-48.jpg	0.0	74.0396779088478	
95.0	47.89945488040394	ISI	1.0		7.0	place	house-48.jpg	0.0	74.33953202241901	0.11670401113588014
96.0	48.01615889153982	word	0.0		46.0	character	word-129.jpg	0.0	74.45623603355489	0.3832538801179908
96.0	48.299576709003304	pulse	0.0	t		character	word-129.jpg	0.0	74.73965385101837	
96.0	48.39941277165781	ISI	1.0		7.0	character	word-129.jpg	0.0	74.83948991367288	0.11669857774904813
97.0	48.516111349406856	word	0.0		46.0	character	word-112.jpg	0.0	74.95618849142193	0.38328919713239884
97.0	48.899400546539255	ISI	1.0		7.0	character	word-112.jpg	0.0	75.33947768855433	0.11669676662131678
98.0	49.01609731316057	word	0.0		45.0	character	word-141.jpg	0.0	75.45617445517564	0.383292517530208
98.0	49.00574459883501	pulse	0.0	t		character	word-141.jpg	0.0	75.44582174085008	
98.0	49.39938983069078	ISI	1.0		7.0	character	word-141.jpg	0.0	75.83946697270585	0.1167022000081488
99.0	49.51609203069893	word	0.0		46.0	character	word-109.jpg	0.0	75.956169172714	0.38328587672731373
99.0	49.69958232350109	pulse	0.0	t		character	word-109.jpg	0.0	76.13965946551616	
99.0	49.89937790742624	ISI	1.0		4.0	character	word-109.jpg	0.0	76.33945504944131	0.11670189815413323
100.0	50.016079805580375	word	0.0		46.0	character	word-136.jpg	0.0	76.45615694759545	0.38336375526705524
100.0	50.39944356084743	ISI	1.0		6.0	character	word-136.jpg	0.0	76.8395207028625	0.11663096227493952
100.0	50.44579276278819	pulse	1.0	t		character	word-136.jpg	0.0	76.88586990480326	
101.0	50.51607452312237	word	0.0		46.0	character	word-94.jpg	0.0	76.95615166513744	0.38328255632222863
101.0	50.8993570794446	ISI	1.0		7.0	character	word-94.jpg	0.0	77.33943422145967	0.11670099258844857
102.0	51.01605807203305	word	0.0		46.0	character	word-94.jpg	1.0	77.45613521404812	0.38328859342072974
102.0	51.099553224699775	pulse	0.0	t		character	word-94.jpg	1.0	77.53963036671485	
102.0	51.39934666545378	ISI	1.0		5.0	character	word-94.jpg	1.0	77.83942380746885	0.1167028037198179
103.0	51.516049469173595	word	0.0		46.0	character	word-24.jpg	0.0	77.95612661118867	0.3832882915630762
103.0	51.56613382249998	response	0.0	b		character	word-24.jpg	0.0	78.00621096451505	
103.0	51.79948268123189	pulse	0.0	t		character	word-24.jpg	0.0	78.23955982324696	
103.0	51.89933776073667	ISI	1.0		7.0	character	word-24.jpg	0.0	78.33941490275174	0.11670129444610211
104.0	52.01603905518277	word	0.0		46.0	character	word-123.jpg	0.0	78.45611619719784	0.383287084143376
104.0	52.39932613932615	ISI	1.0		7.0	character	word-123.jpg	0.0	78.83940328134122	0.11669616291328566
105.0	52.516022302239435	word	0.0		45.0	character	word-103.jpg	0.0	78.9560994442545	0.38329402680756175
105.0	52.505758936938946	pulse	0.0	t		character	word-103.jpg	0.0	78.94583607895402	
105.0	52.899316329047	ISI	1.0		7.0	character	word-103.jpg	0.0	79.33939347106207	0.11671155750809703
106.0	53.016027886555094	word	0.0		46.0	character	word-78.jpg	0.0	79.45610502857016	0.3832780285010813
106.0	53.199528140565235	pulse	0.0	t		character	word-78.jpg	0.0	79.6396052825803	
106.0	53.399305915056175	ISI	1.0		6.0	character	word-78.jpg	0.0	79.83938305707125	0.11670250186216435
107.0	53.51600841691834	word	0.0		46.0	character	word-15.jpg	0.0	79.95608555893341	0.38336164228530833
107.0	53.89937005920365	ISI	1.0		6.0	character	word-15.jpg	0.0	80.33944720121872	0.11663005670925486
107.0	53.94489278268156	pulse	1.0	t		character	word-15.jpg	0.0	80.38496992469663	
108.0	54.0160001159129	word	0.0		46.0	character	word-83.jpg	0.0	80.45607725792797	0.38331485478556715
108.0	54.39931497069847	ISI	1.0		6.0	character	word-83.jpg	0.0	80.83939211271354	0.11670521855921834
109.0	54.51602018925769	word	0.0		46.0	character	word-57.jpg	0.0	80.95609733127276	0.3832861785813293
109.0	54.59951141780766	pulse	0.0	t		character	word-57.jpg	0.0	81.03958855982273	
109.0	54.89930636783902	ISI	1.0		7.0	character	word-57.jpg	0.0	81.33938350985409	0.11670310557019548
110.0	55.01600947340921	word	0.0		46.0	character	word-8.jpg	0.0	81.45608661542428	0.3832867822929984
110.0	55.2994867562702	pulse	0.0	t		character	word-8.jpg	0.0	81.73956389828527	
110.0	55.39929625570221	ISI	1.0		7.0	character	word-8.jpg	0.0	81.83937339771728	0.11670250186216435
111.0	55.515998757564375	word	0.0		46.0	character	word-64.jpg	0.0	81.95607589957945	0.38329251753384597
111.0	55.89929127509822	ISI	1.0		7.0	character	word-64.jpg	0.0	82.33936841711329	0.116692540654185
112.0	56.015983815752406	word	0.0		45.0	character	word-64.jpg	1.0	82.45606095776748	0.38329131011414574
112.0	56.00574671182039	pulse	0.0	t		character	word-64.jpg	1.0	82.44582385383546	
112.0	56.39927512586655	ISI	1.0		6.0	character	word-64.jpg	1.0	82.83935226788162	0.11671699089129106
113.0	56.51599211675784	word	0.0		45.0	character	word-11.jpg	0.0	82.95606925877291	0.3832750099536497
113.0	56.52045654935864	response	0.0	b		character	word-11.jpg	0.0	82.96053369137371	
113.0	56.6993948716663	pulse	0.0	t		character	word-11.jpg	0.0	83.13947201368137	
113.0	56.89926712671149	ISI	1.0		6.0	character	word-11.jpg	0.0	83.33934426872656	0.11670129444610211
114.0	57.015968421157595	word	0.0		46.0	character	word-121.jpg	0.0	83.45604556317267	0.38334926623429055
114.0	57.399317687391886	ISI	1.0		7.0	character	word-121.jpg	0.0	83.83939482940696	0.1166400179208722
114.0	57.43594565526655	pulse	1.0	t		character	word-121.jpg	0.0	83.87602279728162	
115.0	57.51595770531276	word	0.0		46.0	character	word-6.jpg	0.0	83.95603484732783	0.383287084143376
115.0	57.899244789456134	ISI	1.0		7.0	character	word-6.jpg	0.0	84.3393219314712	0.11670159630011767
116.0	58.01594638575625	word	0.0		46.0	character	word-132.jpg	0.0	84.45602352777132	0.38328285817988217
116.0	58.0994207104377	pulse	0.0	t		character	word-132.jpg	0.0	84.53949785245277	
116.0	58.399229243936134	ISI	1.0		4.0	character	word-132.jpg	0.0	84.8393063859512	0.11670582226361148
117.0	58.515935066199745	word	0.0		46.0	character	word-28.jpg	0.0	84.95601220821482	0.3832997620484093
117.0	58.79933930019615	pulse	0.0	t		character	word-28.jpg	0.0	85.23941644221122	
117.0	58.899234828248154	ISI	1.0		7.0	character	word-28.jpg	0.0	85.33931197026322	0.11668771097902209
118.0	59.01592253922718	word	0.0		46.0	character	word-35.jpg	0.0	85.45599968124225	0.38331545849723625
118.0	59.39923799772441	ISI	1.0		5.0	character	word-35.jpg	0.0	85.83931513973948	0.1166732219462574
119.0	59.51591121967067	word	0.0		45.0	character	word-65.jpg	0.0	85.95598836168574	0.3832928193878615
119.0	59.505739316377	pulse	0.0	t		character	word-65.jpg	0.0	85.94581645839207	
119.0	59.89920403905853	ISI	1.0		7.0	character	word-65.jpg	0.0	86.3392811810736	0.11670340742784902
120.0	60.01590744648638	adult	0.0		46.0	face	adult-138.jpg	0.0	86.45598458850145	0.38328376374192885
120.0	60.199380835420016	pulse	0.0	t		face	adult-138.jpg	0.0	86.63945797743509	
120.0	60.39919121022831	ISI	1.0		7.0	face	adult-138.jpg	0.0	86.83926835224338	0.1167049167015648
121.0	60.515896126929874	adult	0.0		46.0	face	adult-100.jpg	0.0	86.95597326894494	0.38332994753000094
121.0	60.899226074459875	ISI	1.0		7.0	face	adult-100.jpg	0.0	87.33930321647495	0.11665903477114625
121.0	60.93554101889822	pulse	1.0	t		face	adult-100.jpg	0.0	87.37561816091329	
122.0	61.01588510923102	adult	0.0		46.0	face	adult-54.jpg	0.0	87.45596225124609	0.38328376374192885
122.0	61.39916887297295	ISI	1.0		7.0	face	adult-54.jpg	0.0	87.83924601498802	0.11670672782929614
123.0	61.51587560080225	adult	0.0		46.0	face	adult-107.jpg	0.0	87.95595274281732	0.3832840655995824
123.0	61.59932728637432	pulse	0.0	t		face	adult-107.jpg	0.0	88.03940442838939	
123.0	61.89915966640183	ISI	1.0		7.0	face	adult-107.jpg	0.0	88.3392368084169	0.11670461484754924
124.0	62.01586428124938	adult	0.0		46.0	face	adult-32.jpg	0.0	88.45594142326445	0.3832849711616291
124.0	62.29935061975266	pulse	0.0	t		face	adult-32.jpg	0.0	88.73942776176773	
124.0	62.39914925241101	ISI	1.0		7.0	face	adult-32.jpg	0.0	88.83922639442608	0.11670280371617991
125.0	62.51585205612719	adult	0.0		46.0	face	adult-114.jpg	0.0	88.95592919814226	0.38328919713239884
125.0	62.899141253259586	ISI	1.0		7.0	face	adult-114.jpg	0.0	89.33921839527466	0.1166946536359319
126.0	63.01583590689552	adult	0.0		45.0	face	adult-36.jpg	0.0	89.45591304891059	0.3832910082601302
126.0	63.00576421939695	pulse	0.0	t		face	adult-36.jpg	0.0	89.44584136141202	
126.0	63.39912691515565	ISI	1.0		7.0	face	adult-36.jpg	0.0	89.83920405717072	0.1167070296833117
127.0	63.51583394483896	adult	0.0		47.0	face	adult-89.jpg	0.0	89.95591108685403	0.3916095230379142
127.0	63.699292542885814	pulse	0.0	t		face	adult-89.jpg	0.0	90.13936968490088	
127.0	63.907443467876874	ISI	1.0		6.0	face	adult-89.jpg	0.0	90.34752060989194	0.10837915740921744
128.0	64.01582262528609	adult	0.0		47.0	face	adult-89.jpg	1.0	90.45589976730116	0.39999172917669057
128.0	64.39921354748367	response	0.0	b		face	adult-89.jpg	1.0	90.83929068949874	
128.0	64.39934425061438	pulse	0.0	t		face	adult-89.jpg	1.0	90.83942139262945	
128.0	64.41581435446278	ISI	1.0		5.0	face	adult-89.jpg	1.0	90.85589149647785	0.09999695126680308
129.0	64.51581130572959	adult	0.0		47.0	face	adult-3.jpg	0.0	90.95588844774466	0.3916342751290358
129.0	64.90744558085862	ISI	1.0		6.0	face	adult-3.jpg	0.0	91.34752272287369	0.10835500902612694
130.0	65.01580058988475	adult	0.0		47.0	face	adult-84.jpg	0.0	91.45587773189982	0.3916185786802089
130.0	65.0992447290846	pulse	0.0	t		face	adult-84.jpg	0.0	91.53932187109967	
130.0	65.40741916856496	ISI	1.0		7.0	face	adult-84.jpg	0.0	91.84749631058003	0.11670370928186458
131.0	65.52412287784682	adult	0.0		46.0	face	adult-108.jpg	0.0	91.96420001986189	0.383297950920678
131.0	65.79922821762739	pulse	0.0	t		face	adult-108.jpg	0.0	92.23930535964246	
131.0	65.9074208287675	ISI	1.0		7.0	face	adult-108.jpg	0.0	92.34749797078257	0.11669223879653146
132.0	66.02411306756403	adult	0.0		46.0	face	adult-125.jpg	0.0	92.4641902095791	0.3832861785813293
132.0	66.40739924614536	ISI	1.0		7.0	face	adult-125.jpg	0.0	92.84747638816043	0.12503610938438214
132.0	66.49925396584149	pulse	1.0	t		face	adult-125.jpg	0.0	92.93933110785656	
133.0	66.53243535552974	adult	0.0		45.0	face	adult-96.jpg	0.0	92.97251249754481	0.37495347662479617
133.0	66.90738883215454	ISI	1.0		6.0	face	adult-96.jpg	0.0	93.34746597416961	0.1083704036209383
134.0	67.01575923577548	adult	0.0		47.0	face	adult-79.jpg	0.0	93.45583637779055	0.39161737126050866
134.0	67.19918976132612	pulse	0.0	t		face	adult-79.jpg	0.0	93.6392669033412	
134.0	67.40737660703599	ISI	1.0		7.0	face	adult-79.jpg	0.0	93.84745374905106	0.11670370928186458
135.0	67.52408031631785	adult	0.0		46.0	face	adult-127.jpg	0.0	93.96415745833292	0.3832882915667142
135.0	67.89915936454781	pulse	0.0	t		face	adult-127.jpg	0.0	94.33923650656288	
135.0	67.90736860788456	ISI	1.0		7.0	face	adult-127.jpg	0.0	94.34744574989963	0.11670159630011767
136.0	68.02407020418468	adult	0.0		46.0	face	adult-77.jpg	0.0	94.46414734619975	0.38328738599739154
136.0	68.40735759018207	ISI	1.0		7.0	face	adult-77.jpg	0.0	94.84743473219714	0.11673329105542507
137.0	68.5240908812375	adult	0.0		46.0	face	adult-140.jpg	0.0	94.96416802325257	0.38325357826033724
137.0	68.59917726453568	pulse	0.0	t		face	adult-140.jpg	0.0	95.03925440655075	
137.0	68.90734445949784	ISI	1.0		7.0	face	adult-140.jpg	0.0	95.3474216015129	0.11670401113951812
138.0	69.02404847063735	adult	0.0		46.0	face	adult-4.jpg	0.0	95.46412561265242	0.3832916119681613
138.0	69.29914203808221	pulse	0.0	t		face	adult-4.jpg	0.0	95.73921918009728	
138.0	69.40734008260551	ISI	1.0		7.0	face	adult-4.jpg	0.0	95.84741722462059	0.11672997065033996
139.0	69.52407005325585	adult	0.0		46.0	face	adult-92.jpg	0.0	95.96414719527093	0.38322309092473006
139.0	69.90729314418058	ISI	1.0		7.0	face	adult-92.jpg	0.0	96.34737028619566	0.11670250186580233
139.0	69.99910500049737	pulse	1.0	t		face	adult-92.jpg	0.0	96.43918214251244	
140.0	70.02399564604639	adult	0.0		46.0	face	adult-86.jpg	0.0	96.46407278806146	0.3832873860010295
140.0	70.40728303204742	ISI	1.0		7.0	face	adult-86.jpg	0.0	96.84736017406249	0.11670069073443301
141.0	70.52398372278185	adult	0.0		46.0	face	adult-76.jpg	0.0	96.96406086479692	0.38330157317614066
141.0	70.69907822597452	pulse	0.0	t		face	adult-76.jpg	0.0	97.13915536798959	
141.0	70.90728529595799	ISI	1.0		7.0	face	adult-76.jpg	0.0	97.34736243797306	0.11668801283303765
142.0	71.02397330879103	adult	0.0		46.0	face	adult-76.jpg	1.0	97.4640504508061	0.38328859341709176
142.0	71.39905265887137	pulse	0.0	t		face	adult-76.jpg	1.0	97.83912980088644	
142.0	71.40726190220812	ISI	1.0		7.0	face	adult-76.jpg	1.0	97.84733904422319	0.11670159630011767
143.0	71.52396349850824	adult	0.0		46.0	face	adult-95.jpg	0.0	97.96404064052331	0.3832873860010295
143.0	71.64903583046544	response	0.0	b		face	adult-95.jpg	0.0	98.0891129724805	
143.0	71.90725088450927	ISI	1.0		7.0	face	adult-95.jpg	0.0	98.34732802652434	0.11673208363572485
144.0	72.02398296814499	car	0.0		46.0	object	car-64.jpg	0.0	98.46406011016006	0.383257804227469
144.0	72.09904097709295	pulse	0.0	t		object	car-64.jpg	0.0	98.53911811910802	
144.0	72.40724077237246	ISI	1.0		7.0	object	car-64.jpg	0.0	98.84731791438753	0.11670099258844857
145.0	72.52394176496091	car	0.0		46.0	object	car-85.jpg	0.0	98.96401890697598	0.3832882915667142
145.0	72.79903110643863	pulse	0.0	t		object	car-85.jpg	0.0	99.2391082484537	
145.0	72.90723005652762	ISI	1.0		7.0	object	car-85.jpg	0.0	99.3473071985427	0.11670189815413323
146.0	73.02393195468176	car	0.0		46.0	object	car-13.jpg	0.0	99.46400909669683	0.38328798970906064
146.0	73.40721994439082	ISI	1.0		7.0	object	car-13.jpg	0.0	99.84729708640589	0.11669978517238633
146.0	73.49901248199603	pulse	1.0	t		object	car-13.jpg	0.0	99.9390896240111	
147.0	73.5239197295632	car	0.0		46.0	object	car-13.jpg	1.0	99.96399687157827	0.383289800836792
147.0	73.9072095304	ISI	1.0		7.0	object	car-13.jpg	1.0	100.34728667241507	0.11670008702640189
148.0	74.0239096174264	car	0.0		46.0	object	car-98.jpg	0.0	100.46398675944147	0.3832910082564922
148.0	74.1990071391665	pulse	0.0	t		object	car-98.jpg	0.0	100.63908428118157	
148.0	74.23228904650387	response	0.0	b		object	car-98.jpg	0.0	100.67236618851894	
148.0	74.40720062568289	ISI	1.0		7.0	object	car-98.jpg	0.0	100.84727776769796	0.116697974041017
149.0	74.5238985997239	car	0.0		46.0	object	car-20.jpg	0.0	100.96397574173898	0.38329191382217687
149.0	74.8989770442422	pulse	0.0	t		object	car-20.jpg	0.0	101.33905418625727	
149.0	74.90719051354608	ISI	1.0		7.0	object	car-20.jpg	0.0	101.34726765556115	0.11669948331837077
150.0	75.02388999686445	car	0.0		46.0	object	car-144.jpg	0.0	101.46396713887953	0.3832873860010295
150.0	75.40717738286548	ISI	1.0		7.0	object	car-144.jpg	0.0	101.84725452488055	0.1167043129898957
151.0	75.52388169585538	car	0.0		46.0	object	car-15.jpg	0.0	101.96395883787045	0.38331606220890535
151.0	75.59900309431396	pulse	0.0	t		object	car-15.jpg	0.0	102.03908023632903	
151.0	75.90719775806429	ISI	1.0		7.0	object	car-15.jpg	0.0	102.34727490007936	0.11670552040959592
152.0	76.02390327847388	car	0.0		46.0	object	car-142.jpg	0.0	102.46398042048895	0.3832849711616291
152.0	76.2989877902728	pulse	0.0	t		object	car-142.jpg	0.0	102.73906493228787	
152.0	76.40718824963551	ISI	1.0		7.0	object	car-142.jpg	0.0	102.84726539165058	0.11670974638036569
153.0	76.52389799601588	car	0.0		46.0	object	car-125.jpg	0.0	102.96397513803095	0.38327893406676594
153.0	76.90717693008264	ISI	1.0		7.0	object	car-125.jpg	0.0	103.34725407209771	0.12503973163620685
153.0	76.99900478469863	pulse	1.0	t		object	car-125.jpg	0.0	103.4390819267137	
154.0	77.03221666171885	car	0.0		45.0	object	car-54.jpg	0.0	103.47229380373392	0.3749495525153179
154.0	77.40716621423417	ISI	1.0		7.0	object	car-54.jpg	0.0	103.84724335624924	0.1167049167015648
155.0	77.52387113093573	car	0.0		46.0	object	car-102.jpg	0.0	103.9639482729508	0.3832716895522026
155.0	77.69897016195318	pulse	0.0	t		object	car-102.jpg	0.0	104.13904730396825	
155.0	77.90714282048793	ISI	1.0		7.0	object	car-102.jpg	0.0	104.347219962503	0.11675291161736823
156.0	78.0238957321053	adult	0.0		46.0	face	adult-29.jpg	0.0	104.46397287412037	0.3832517671326059
156.0	78.3989298039669	pulse	0.0	t		face	adult-29.jpg	0.0	104.83900694598196	
156.0	78.40714749923791	ISI	1.0		7.0	face	adult-29.jpg	0.0	104.84722464125298	0.11670250186216435
157.0	78.52385000110007	adult	0.0		46.0	face	adult-48.jpg	0.0	104.96392714311514	0.3832876878550451
157.0	78.90713768895512	ISI	1.0		7.0	face	adult-48.jpg	0.0	105.34721483097019	0.11670582226724946
158.0	79.02384351122237	adult	0.0		46.0	face	adult-10.jpg	0.0	105.46392065323744	0.383249654150859
158.0	79.09888642742953	pulse	0.0	t		face	adult-10.jpg	0.0	105.5389635694446	
158.0	79.40709316537323	ISI	1.0		7.0	face	adult-10.jpg	0.0	105.8471703073883	0.11670189815413323
159.0	79.52379506352736	adult	0.0		46.0	face	adult-131.jpg	0.0	105.96387220554243	0.38328648043534486
159.0	79.79886901040663	pulse	0.0	t		face	adult-131.jpg	0.0	106.2389461524217	
159.0	79.9070815439627	ISI	1.0		7.0	face	adult-131.jpg	0.0	106.34715868597777	0.11670250186216435
160.0	80.02378404582487	adult	0.0		46.0	face	adult-51.jpg	0.0	106.46386118783994	0.38328919712876086
160.0	80.40707324295363	ISI	1.0		7.0	face	adult-51.jpg	0.0	106.8471503849687	0.11670250186580233
160.0	80.4988648749968	pulse	1.0	t		face	adult-51.jpg	0.0	106.93894201701187	
161.0	80.52377574481943	adult	0.0		46.0	face	adult-90.jpg	0.0	106.9638528868345	0.3832849711616291
161.0	80.90706071598106	ISI	1.0		7.0	face	adult-90.jpg	0.0	107.34713785799613	0.11670280371617991
162.0	81.02376351969724	adult	0.0		46.0	face	adult-122.jpg	0.0	107.46384066171231	0.38329825277469354
162.0	81.19884775982791	pulse	0.0	t		face	adult-122.jpg	0.0	107.63892490184298	
162.0	81.40706177247193	ISI	1.0		7.0	face	adult-122.jpg	0.0	107.847138914487	0.1167028037198179
163.0	81.52376457619175	adult	0.0		46.0	face	adult-22.jpg	0.0	107.96384171820682	0.3832801414828282
163.0	81.89882189087075	pulse	0.0	t		face	adult-22.jpg	0.0	108.33889903288582	
163.0	81.90704471767458	ISI	1.0		7.0	face	adult-22.jpg	0.0	108.34712185968965	0.11669918146071723
164.0	82.0237438991353	adult	0.0		46.0	face	adult-101.jpg	0.0	108.46382104115037	0.3832873860010295
164.0	82.40703128513633	ISI	1.0		7.0	face	adult-101.jpg	0.0	108.8471084271514	0.11669435178555432
165.0	82.52372563692188	adult	0.0		46.0	face	adult-110.jpg	0.0	108.96380277893695	0.38329764906302444
165.0	82.59880779425293	pulse	0.0	t		face	adult-110.jpg	0.0	109.038884936268	
165.0	82.9070232859849	ISI	1.0		7.0	face	adult-110.jpg	0.0	109.34710042799998	0.11669887960670167
166.0	83.02372216559161	adult	0.0		46.0	face	adult-71.jpg	0.0	109.46379930760668	0.38328798970906064
166.0	83.29879339577747	pulse	0.0	t		face	adult-71.jpg	0.0	109.73887053779254	
166.0	83.40701015530067	ISI	1.0		7.0	face	adult-71.jpg	0.0	109.84708729731574	0.1167022000081488
167.0	83.52371235530882	adult	0.0		46.0	face	adult-13.jpg	0.0	109.96378949732389	0.3832876878550451
167.0	83.90700004316386	ISI	1.0		7.0	face	adult-13.jpg	0.0	110.34707718517893	0.11670310557383345
167.0	83.99879197706105	pulse	1.0	t		face	adult-13.jpg	0.0	110.43886911907612	
168.0	84.0237031487377	body	0.0		46.0	body	body-92.jpg	0.0	110.46378029075277	0.3832846693076135
168.0	84.40698781804531	ISI	1.0		7.0	body	body-92.jpg	0.0	110.84706496006038	0.11670370928186458
169.0	84.52369152732717	body	0.0		46.0	body	body-14.jpg	0.0	110.96376866934224	0.3832855748732982
169.0	84.69876369326448	pulse	0.0	t		body	body-14.jpg	0.0	111.13884083527955	
169.0	84.90697710220047	ISI	1.0		7.0	body	body-14.jpg	0.0	111.34705424421554	0.11670642597528058
170.0	85.02368352817575	body	0.0		46.0	body	body-127.jpg	0.0	111.46376067019082	0.38331757147898315
170.0	85.39877978212826	pulse	0.0	t		body	body-127.jpg	0.0	111.83885692414333	
170.0	85.40700109965474	ISI	1.0		7.0	body	body-127.jpg	0.0	111.8470782416698	0.1167028037198179
171.0	85.52370390337455	body	0.0		46.0	body	body-140.jpg	0.0	111.96378104538962	0.38328527301564463
171.0	85.9069891763902	ISI	1.0		5.0	body	body-140.jpg	0.0	112.34706631840527	0.11670461484754924
172.0	86.02369379123775	body	0.0		46.0	body	body-65.jpg	0.0	112.46377093325282	0.38328376374192885
172.0	86.09887012726904	pulse	0.0	t		body	body-65.jpg	0.0	112.53894726928411	
172.0	86.40697755497968	ISI	1.0		7.0	body	body-65.jpg	0.0	112.84705469699475	0.11670521855921834
173.0	86.5236827735389	body	0.0		46.0	body	body-138.jpg	0.0	112.96375991555396	0.3832840655959444
173.0	86.7987506833233	pulse	0.0	t		body	body-138.jpg	0.0	113.23882782533838	
173.0	86.90696683913484	ISI	1.0		7.0	body	body-138.jpg	0.0	113.34704398114991	0.1167055204132339
174.0	87.02367235954807	body	0.0		46.0	body	body-62.jpg	0.0	113.46374950156314	0.3832873860010295
174.0	87.4069597455491	ISI	1.0		7.0	body	body-62.jpg	0.0	113.84703688756417	0.1250373168004444
174.0	87.49878458161766	pulse	1.0	t		body	body-62.jpg	0.0	113.93886172363273	
175.0	87.53199706234955	body	0.0		45.0	body	body-101.jpg	0.0	113.97207420436462	0.3749531747707806
175.0	87.90695023712033	ISI	1.0		7.0	body	body-101.jpg	0.0	114.3470273791354	0.11670129444610211
176.0	88.02365153156643	body	0.0		46.0	body	body-79.jpg	0.0	114.4637286735815	0.38328648043534486
176.0	88.19872249008404	pulse	0.0	t		body	body-79.jpg	0.0	114.63879963209911	
176.0	88.40693801200177	ISI	1.0		7.0	body	body-79.jpg	0.0	114.84701515401684	0.1167049167015648
177.0	88.52364292870334	body	0.0		46.0	body	body-68.jpg	0.0	114.96372007071841	0.3832556912457221
177.0	88.89867911354668	pulse	0.0	t		body	body-68.jpg	0.0	115.33875625556175	
177.0	88.90689861994906	ISI	1.0		7.0	body	body-68.jpg	0.0	115.34697576196413	0.116697974041017
178.0	89.02359659399008	body	0.0		46.0	body	body-50.jpg	0.0	115.46367373600515	0.3832882915667142
178.0	89.40688488555679	ISI	1.0		7.0	body	body-50.jpg	0.0	115.84696202757186	0.11670159629647969
179.0	89.52358648185327	body	0.0		46.0	body	body-39.jpg	0.0	115.96366362386834	0.3832861785813293
179.0	89.59878334401219	pulse	0.0	t		body	body-39.jpg	0.0	116.03886048602726	
179.0	89.9068726604346	ISI	1.0		6.0	body	body-39.jpg	0.0	116.34694980244967	0.1167022000081488
180.0	90.02357486044275	body	0.0		46.0	body	body-103.jpg	0.0	116.46365200245782	0.3832867822929984
180.0	90.29864820361763	pulse	0.0	t		body	body-103.jpg	0.0	116.7387253456327	
180.0	90.40686164273575	ISI	1.0		7.0	body	body-103.jpg	0.0	116.84693878475082	0.11670250186216435
181.0	90.52356414459791	body	0.0		46.0	body	body-122.jpg	0.0	116.96364128661298	0.3833045917272102
181.0	90.90686873632512	ISI	1.0		7.0	body	body-122.jpg	0.0	117.3469458783402	0.11686520160219516
181.0	90.99864104965673	pulse	1.0	t		body	body-122.jpg	0.0	117.4387181916718	
182.0	91.02373393792732	body	0.0		45.0	body	body-88.jpg	0.0	117.46381107994239	0.3831132157756656
182.0	91.40684715370298	ISI	1.0		6.0	body	body-88.jpg	0.0	117.84692429571805	0.11669616291328566
183.0	91.52354331661627	body	0.0		46.0	body	body-87.jpg	0.0	117.96362045863134	0.38328708414701396
183.0	91.69861880295866	pulse	0.0	t		body	body-87.jpg	0.0	118.13869594497373	
183.0	91.90683040076328	ISI	1.0		7.0	body	body-87.jpg	0.0	118.34690754277835	0.11670461484754924
184.0	92.02353501561083	body	0.0		46.0	body	body-86.jpg	0.0	118.4636121576259	0.3832910082564922
184.0	92.39861768609626	pulse	0.0	t		body	body-86.jpg	0.0	118.83869482811133	
184.0	92.40682602386732	ISI	1.0		7.0	body	body-86.jpg	0.0	118.8469031658824	0.11669978517238633
185.0	92.52352580903971	body	0.0		46.0	body	body-139.jpg	0.0	118.96360295105478	0.38328376374192885
185.0	92.90680957278164	ISI	1.0		7.0	body	body-139.jpg	0.0	119.34688671479671	0.11670521855558036
186.0	93.02351479133722	body	0.0		46.0	body	body-43.jpg	0.0	119.46359193335229	0.3832861785813293
186.0	93.0986944477736	pulse	0.0	t		body	body-43.jpg	0.0	119.53877158978867	
186.0	93.40680096991855	ISI	1.0		7.0	body	body-43.jpg	0.0	119.84687811193362	0.11668197573817451
187.0	93.52348294565672	body	0.0		45.0	body	body-43.jpg	1.0	119.9635600876718	0.37497339904439286
187.0	93.7985719852768	pulse	0.0	t		body	body-43.jpg	1.0	120.23864912729186	
187.0	93.8902069546748	response	0.0	b		body	body-43.jpg	1.0	120.33028409668987	
187.0	93.89845634470112	ISI	1.0		8.0	body	body-43.jpg	1.0	120.33853348671619	0.12503429825301282
188.0	94.02349064295413	body	0.0		46.0	body	body-118.jpg	0.0	120.4635677849692	0.38330096946447156
188.0	94.4067916124186	ISI	1.0		7.0	body	body-118.jpg	0.0	120.84686875443367	0.12502222406328656
188.0	94.49857207583409	pulse	1.0	t		body	body-118.jpg	0.0	120.93864921784916	
189.0	94.53181383648189	body	0.0		45.0	body	body-61.jpg	0.0	120.97189097849696	0.37499422702603624
189.0	94.90680806350792	ISI	1.0		7.0	body	body-61.jpg	0.0	121.346885205523	0.11669555920161656
190.0	95.02350362270954	body	0.0		46.0	body	body-49.jpg	0.0	121.46358076472461	0.3832867822929984
190.0	95.19857820348625	pulse	0.0	t		body	body-49.jpg	0.0	121.63865534550132	
190.0	95.40679040500254	ISI	1.0		7.0	body	body-49.jpg	0.0	121.84686754701761	0.1167049167015648
191.0	95.5234953217041	body	0.0		46.0	body	body-115.jpg	0.0	121.96357246371917	0.3832861785813293
191.0	95.89856108831736	pulse	0.0	t		body	body-115.jpg	0.0	122.33863823033244	
191.0	95.90678150028543	ISI	1.0		7.0	body	body-115.jpg	0.0	122.3468586423005	0.11670189815049525
192.0	96.02348339843593	car	0.0		46.0	object	car-52.jpg	0.0	122.463560540451	0.38328648043898284
192.0	96.40676987887491	ISI	1.0		7.0	object	car-52.jpg	0.0	122.84684702088998	0.11670129444246413
193.0	96.52347117331738	car	0.0		46.0	object	car-87.jpg	0.0	122.96354831533245	0.3832722932602337
193.0	96.59855816032723	pulse	0.0	t		object	car-87.jpg	0.0	123.0386353023423	
193.0	96.90674346657761	ISI	1.0		7.0	object	car-87.jpg	0.0	123.34682060859268	0.11675019492395222
194.0	97.02349366150156	car	0.0		46.0	object	car-84.jpg	0.0	123.46357080351663	0.3832544838260219
194.0	97.2985328950781	pulse	0.0	t		object	car-84.jpg	0.0	123.73861003709317	
194.0	97.40674814532758	ISI	1.0		7.0	object	car-84.jpg	0.0	123.84682528734265	0.1167022000081488
195.0	97.52345034533573	car	0.0		46.0	object	car-101.jpg	0.0	123.9635274873508	0.3832882915667142
195.0	97.90673863690245	ISI	1.0		7.0	object	car-101.jpg	0.0	124.34681577891752	0.12503490196104394
195.0	97.998563472971	pulse	1.0	t		object	car-101.jpg	0.0	124.43864061498607	
196.0	98.03177353886349	car	0.0		45.0	object	car-131.jpg	0.0	124.47185068087856	0.3749398931613541
196.0	98.40671343202484	ISI	1.0		7.0	object	car-131.jpg	0.0	124.84679057403991	0.11671578347522882
197.0	98.52342921550007	car	0.0		46.0	object	car-58.jpg	0.0	124.96350635751514	0.38330730841698823
197.0	98.6985028907111	pulse	0.0	t		object	car-58.jpg	0.0	125.13858003272617	
197.0	98.90673652391706	ISI	1.0		7.0	object	car-58.jpg	0.0	125.34681366593213	0.11668408871992142
198.0	99.02342061263698	car	0.0		46.0	object	car-58.jpg	1.0	125.46349775465205	0.3832855748732982
198.0	99.36515617515033	response	0.0	b		object	car-58.jpg	1.0	125.8052333171654	
198.0	99.39846555127224	pulse	0.0	t		object	car-58.jpg	1.0	125.83854269328731	
198.0	99.40670618751028	ISI	1.0		7.0	object	car-58.jpg	1.0	125.84678332952535	0.11670310557383345
199.0	99.52340929308411	car	0.0		46.0	object	car-74.jpg	0.0	125.96348643509918	0.38329885648272466
199.0	99.90670814956684	ISI	1.0		7.0	object	car-74.jpg	0.0	126.34678529158191	0.11669012581478455
200.0	100.02339827538162	car	0.0		46.0	object	car-76.jpg	0.0	126.4634754173967	0.38329885648272466
200.0	100.09849129948634	pulse	0.0	t		object	car-76.jpg	0.0	126.53856844150141	
200.0	100.40669713186435	ISI	1.0		7.0	object	car-76.jpg	0.0	126.84677427387942	0.1167082371066499
201.0	100.523405368971	car	0.0		46.0	object	car-41.jpg	0.0	126.96348251098607	0.38326867100113304
201.0	100.79846150641606	pulse	0.0	t		object	car-41.jpg	0.0	127.23853864843113	
201.0	100.90667403997213	ISI	1.0		7.0	object	car-41.jpg	0.0	127.3467511819872	0.1167049167015648
202.0	101.0233789566737	car	0.0		46.0	object	car-77.jpg	0.0	127.46345609868877	0.3832861785813293
202.0	101.40666513525503	ISI	1.0		7.0	object	car-77.jpg	0.0	127.8467422772701	0.12503761865445995
202.0	101.49860739284486	pulse	1.0	t		object	car-77.jpg	0.0	127.93868453485993	
203.0	101.53170275390949	car	0.0		45.0	object	car-33.jpg	0.0	127.97177989592456	0.3749516655007028
203.0	101.90665441941019	ISI	1.0		7.0	object	car-33.jpg	0.0	128.34673156142526	0.11670250186216435
204.0	102.02335692127235	word	0.0		46.0	character	word-54.jpg	0.0	128.46343406328742	0.3832855748732982
204.0	102.19843029462936	pulse	0.0	t		character	word-54.jpg	0.0	128.63850743664443	
204.0	102.40664249614565	ISI	1.0		7.0	character	word-54.jpg	0.0	128.84671963816072	0.11670340742784902
205.0	102.5233459035735	word	0.0		46.0	character	word-114.jpg	0.0	128.96342304558857	0.3832894989827764
205.0	102.8984409501063	pulse	0.0	t		character	word-114.jpg	0.0	129.33851809212138	
205.0	102.90663540255628	ISI	1.0		5.0	character	word-114.jpg	0.0	129.34671254457135	0.11670008702640189
206.0	103.02333548958268	word	0.0		46.0	character	word-139.jpg	0.0	129.46341263159775	0.3832855748696602
206.0	103.40662106445234	ISI	1.0		7.0	character	word-139.jpg	0.0	129.8466982064674	0.11670310557383345
207.0	103.52332417002617	word	0.0		46.0	character	word-39.jpg	0.0	129.96340131204124	0.38329946019439376
207.0	103.59840179953608	pulse	0.0	t		character	word-39.jpg	0.0	130.03847894155115	
207.0	103.90662363022057	ISI	1.0		7.0	character	word-39.jpg	0.0	130.34670077223564	0.11669284250820056
208.0	104.02331647272877	word	0.0		46.0	character	word-89.jpg	0.0	130.46339361474384	0.3832840655995824
208.0	104.29841426614075	pulse	0.0	t		character	word-89.jpg	0.0	130.73849140815582	
208.0	104.40660053832835	ISI	1.0		5.0	character	word-89.jpg	0.0	130.84667768034342	0.1167043129898957
209.0	104.52330485131824	word	0.0		46.0	character	word-74.jpg	0.0	130.96338199333331	0.3832852730192826
209.0	104.90659012433753	ISI	1.0		6.0	character	word-74.jpg	0.0	131.3466672663526	0.12505271139525576
209.0	104.99854324870103	pulse	1.0	t		character	word-74.jpg	0.0	131.4386203907161	
210.0	105.03164283573278	word	0.0		45.0	character	word-127.jpg	0.0	131.47171997774785	0.37493627090225345
210.0	105.40657910663504	ISI	1.0		6.0	character	word-127.jpg	0.0	131.8466562486501	0.11670431299353368
211.0	105.52328341962857	word	0.0		46.0	character	word-20.jpg	0.0	131.96336056164364	0.38328708414701396
211.0	105.6983570948396	pulse	0.0	t		character	word-20.jpg	0.0	132.13843423685466	
211.0	105.90657050377558	ISI	1.0		7.0	character	word-20.jpg	0.0	132.34664764579065	0.11670310557019548
212.0	106.02327360934578	word	0.0		46.0	character	word-19.jpg	0.0	132.46335075136085	0.38327319882591837
212.0	106.39834028152836	pulse	0.0	t		character	word-19.jpg	0.0	132.83841742354343	
212.0	106.4065468081717	ISI	1.0		7.0	character	word-19.jpg	0.0	132.84662395018677	0.11675411903343047
213.0	106.52330092720513	word	0.0		46.0	character	word-17.jpg	0.0	132.9633780692202	0.383246937457443
213.0	106.90654786466257	ISI	1.0		7.0	character	word-17.jpg	0.0	133.34662500667764	0.1167022000081488
214.0	107.02325006467072	word	0.0		46.0	character	word-99.jpg	0.0	133.4633272066858	0.38329613978930865
214.0	107.0983270904726	pulse	0.0	t		character	word-99.jpg	0.0	133.53840423248766	
214.0	107.40654620446003	ISI	1.0		7.0	character	word-99.jpg	0.0	133.8466233464751	0.11669676662495476
215.0	107.52324297108498	word	0.0		46.0	character	word-38.jpg	0.0	133.96332011310005	0.3832544838260219
215.0	107.79828099724182	pulse	0.0	t		character	word-38.jpg	0.0	134.2383581392569	
215.0	107.906497454911	ISI	1.0		11.0	character	word-38.jpg	0.0	134.34657459692608	0.10000057352226577
216.0	108.00649802843327	baseline	0.0		48.0		baseline	0.0	134.44657517044834	0.39998750321319676
216.0	108.40648553164647	ISI	1.0		11.0		baseline	0.0	134.84656267366154	0.1000002716682502
216.0	108.49827535255827	pulse	1.0	t			baseline	0.0	134.93835249457334	
217.0	108.50648580331472	baseline	0.0		48.0		baseline	0.0	134.9465629453298	0.399988710629259
217.0	108.90647451394398	ISI	1.0		11.0		baseline	0.0	135.34655165595905	0.09999785683248774
218.0	109.00647237077646	baseline	0.0		48.0		baseline	0.0	135.44654951279153	0.3999956532898068
218.0	109.19826850045501	pulse	0.0	t			baseline	0.0	135.63834564247009	
218.0	109.40646802406627	ISI	1.0		11.0		baseline	0.0	135.84654516608134	0.09999453642740264
219.0	109.50646256049367	baseline	0.0		48.0		baseline	0.0	135.94653970250874	0.39999384216207545
219.0	109.8985550512225	pulse	0.0	t			baseline	0.0	136.33863219323757	
219.0	109.90645640265575	ISI	1.0		11.0		baseline	0.0	136.34653354467082	0.09999574384710286
220.0	110.00645214650285	baseline	0.0		48.0		baseline	0.0	136.44652928851792	0.3999908236146439
220.0	110.4064429701175	ISI	1.0		11.0		baseline	0.0	136.84652011213257	0.1000002716682502
221.0	110.50644324178575	baseline	0.0		48.0		baseline	0.0	136.94652038380082	0.3999905217606283
221.0	110.59822370520124	pulse	0.0	t			baseline	0.0	137.0383008472163	
221.0	110.90643376354637	ISI	1.0		11.0		baseline	0.0	137.34651090556144	0.10002834416445694
222.0	111.00646210771083	baseline	0.0		48.0		baseline	0.0	137.4465392497259	0.3999591288593365
222.0	111.29820930672577	pulse	0.0	t			baseline	0.0	137.73828644874084	
222.0	111.40642123657017	ISI	1.0		11.0		baseline	0.0	137.84649837858524	0.09999846054051886
223.0	111.50641969711069	baseline	0.0		48.0		baseline	0.0	137.94649683912576	0.3999920310343441
223.0	111.90641172814503	ISI	1.0		11.0		baseline	0.0	138.3464888701601	0.1000002716682502
223.0	111.99820124720281	pulse	1.0	t			baseline	0.0	138.43827838921788	
224.0	112.00641199981328	baseline	0.0		48.0		baseline	0.0	138.44648914182835	0.39998961619494366
224.0	112.40640161600822	ISI	1.0		11.0		baseline	0.0	138.8464787580233	0.10000268650765065
225.0	112.50640430251588	baseline	0.0		48.0		baseline	0.0	138.94648144453095	0.3999878050672123
225.0	112.69818624501931	pulse	0.0	t			baseline	0.0	139.13826338703439	
225.0	112.90639210758309	ISI	1.0		11.0		baseline	0.0	139.34646924959816	0.09999695126680308
226.0	113.00638905884989	baseline	0.0		48.0		baseline	0.0	139.44646620086496	0.4000010866766388
226.0	113.39815192412789	pulse	0.0	t			baseline	0.0	139.83822906614296	
226.0	113.40639014552653	ISI	1.0		11.0		baseline	0.0	139.8464672875416	0.0999878956208704
227.0	113.5063780411474	baseline	0.0		48.0		baseline	0.0	139.94645518316247	0.4000635706252069
227.0	113.9064416117726	ISI	1.0		11.0		baseline	0.0	140.34651875378768	0.09999574384710286
228.0	114.00643735561971	baseline	0.0		48.0		baseline	0.0	140.44651449763478	0.399985993935843
228.0	114.09822023387096	pulse	0.0	t			baseline	0.0	140.53829737588603	
228.0	114.40642334955555	ISI	1.0		11.0		baseline	0.0	140.84650049157062	0.10004283319722163
229.0	114.50646618275277	baseline	0.0		48.0		baseline	0.0	140.94654332476784	0.39994765837764135
229.0	114.79820281684806	pulse	0.0	t			baseline	0.0	141.23827995886313	
229.0	114.90641384113042	ISI	1.0		11.0		baseline	0.0	141.3464909831455	0.09999000860261731
230.0	115.00640384973303	baseline	0.0		48.0		baseline	0.0	141.4464809917481	0.40003097030421486
230.0	115.40643482003725	ISI	1.0		11.0		baseline	0.0	141.84651196205232	0.0999788399785757
230.0	115.49819294619738	pulse	1.0	t			baseline	0.0	141.93827008821245	
231.0	115.50641366001582	baseline	0.0		48.0		baseline	0.0	141.9464908020309	0.40000138853065437
231.0	115.90641504854648	ISI	1.0		11.0		baseline	0.0	142.34649219056155	0.09999634755877196
232.0	116.00641139610525	baseline	0.0		48.0		baseline	0.0	142.44648853812032	0.3999763345818792
232.0	116.19817492546281	pulse	0.0	t			baseline	0.0	142.63825206747788	
232.0	116.40638773068713	ISI	1.0		11.0		baseline	0.0	142.8464648727022	0.09999966796021909
233.0	116.50638739864735	baseline	0.0		48.0		baseline	0.0	142.94646454066242	0.3999905217606283
233.0	116.89816022513332	pulse	0.0	t			baseline	0.0	143.3382373671484	
233.0	116.90637792040798	ISI	1.0		11.0		baseline	0.0	143.34645506242305	0.10006577416061191
234.0	117.00644369456859	baseline	0.0		48.0		baseline	0.0	143.44652083658366	0.3999220007171971
234.0	117.40636569528579	ISI	1.0		11.0		baseline	0.0	143.84644283730086	0.09999846054051886
235.0	117.5063641558263	baseline	0.0		48.0		baseline	0.0	143.94644129784137	0.39999172918032855
235.0	117.59814854335491	pulse	0.0	t			baseline	0.0	144.03822568536998	
235.0	117.90635588500663	ISI	1.0		11.0		baseline	0.0	144.3464330270217	0.09999996981423465
236.0	118.00635585482087	baseline	0.0		48.0		baseline	0.0	144.44643299683594	0.39998961619494366
236.0	118.298130824478	pulse	0.0	t			baseline	0.0	144.73820796649306	
236.0	118.40634547101581	ISI	1.0		11.0		baseline	0.0	144.84642261303088	0.10000057352226577
237.0	118.50634604453808	baseline	0.0		48.0		baseline	0.0	144.94642318655315	0.3999893143409281
237.0	118.906335358879	ISI	1.0		11.0		baseline	0.0	145.34641250089408	0.0999975549748342
237.0	118.99811763342223	pulse	1.0	t			baseline	0.0	145.4381947754373	
238.0	119.00633291385384	baseline	0.0		48.0		baseline	0.0	145.4464100558689	0.3999956532934448
238.0	119.40632856714728	ISI	1.0		11.0		baseline	0.0	145.84640570916235	0.09999272529603331
239.0	119.50632129244332	baseline	0.0		48.0		baseline	0.0	145.9463984344584	0.3999905217606283
239.0	119.6981125924467	pulse	0.0	t			baseline	0.0	146.13818973446178	
239.0	119.90631181420395	ISI	1.0		6.0		baseline	0.0	146.34638895621902	0.1166711089645105
240.0	120.02298292316846	word	0.0		46.0	character	word-56.jpg	0.0	146.46306006518353	0.3832834618879133
240.0	120.39804778421967	pulse	0.0	t		character	word-56.jpg	0.0	146.83812492623474	
240.0	120.40626638505637	ISI	1.0		6.0	character	word-56.jpg	0.0	146.84634352707144	0.11670250186216435
241.0	120.52296888691853	word	0.0		46.0	character	word-91.jpg	0.0	146.9630460289336	0.38328708414701396
241.0	120.90625597106555	ISI	1.0		6.0	character	word-91.jpg	0.0	147.34633311308062	0.11670582226361148
242.0	121.02296179332916	word	0.0		46.0	character	word-3.jpg	0.0	147.46303893534423	0.3832825563258666
242.0	121.09803549872959	pulse	0.0	t		character	word-3.jpg	0.0	147.53811264074466	
242.0	121.40624434965503	ISI	1.0		7.0	character	word-3.jpg	0.0	147.8463214916701	0.11670340742784902
243.0	121.52294775708287	word	0.0		46.0	character	word-63.jpg	0.0	147.96302489909795	0.3832846693076135
243.0	121.79801777985267	pulse	0.0	t		character	word-63.jpg	0.0	148.23809492186774	
243.0	121.90623242639049	ISI	1.0		7.0	character	word-63.jpg	0.0	148.34630956840556	0.11670914266869659
244.0	122.02294156905918	word	0.0		46.0	character	word-55.jpg	0.0	148.46301871107426	0.3832807451944973
244.0	122.40622231425368	ISI	1.0		7.0	character	word-55.jpg	0.0	148.84629945626875	0.1250379205084755
244.0	122.49803839653396	pulse	1.0	t		character	word-55.jpg	0.0	148.93811553854903	
245.0	122.53126023476216	word	0.0		45.0	character	word-90.jpg	0.0	148.97133737677723	0.37495196735471836
245.0	122.90621220211688	ISI	1.0		5.0	character	word-90.jpg	0.0	149.34628934413195	0.1167200094423606
246.0	123.02293221155924	word	0.0		46.0	character	word-110.jpg	0.0	149.4630093535743	0.3832378818115103
246.0	123.19796906048578	pulse	0.0	t		character	word-110.jpg	0.0	149.63804620250085	
246.0	123.40617009337075	ISI	1.0		5.0	character	word-110.jpg	0.0	149.84624723538582	0.1167022000081488
247.0	123.5228722933789	word	0.0		46.0	character	word-71.jpg	0.0	149.96294943539397	0.3832888952747453
247.0	123.89794439894831	pulse	0.0	t		character	word-71.jpg	0.0	150.33802154096338	
247.0	123.90616118865364	ISI	1.0		7.0	character	word-71.jpg	0.0	150.3462383306687	0.11670069073443301
248.0	124.02286187938807	word	0.0		46.0	character	word-36.jpg	0.0	150.46293902140314	0.38328587672731373
248.0	124.40614775611539	ISI	1.0		7.0	character	word-36.jpg	0.0	150.84622489813046	0.11670370928186458
249.0	124.52285146539725	word	0.0		46.0	character	word-72.jpg	0.0	150.96292860741232	0.3832882915667142
249.0	124.59792818934511	pulse	0.0	t		character	word-72.jpg	0.0	151.03800533136018	
249.0	124.90613975696397	ISI	1.0		7.0	character	word-72.jpg	0.0	151.34621689897904	0.11670612412126502
250.0	125.02284588108523	word	0.0		46.0	character	word-5.jpg	0.0	151.4629230231003	0.3832819526141975
250.0	125.2982615276087	pulse	0.0	t		character	word-5.jpg	0.0	151.73833866962377	
250.0	125.40612783369943	ISI	1.0		7.0	character	word-5.jpg	0.0	151.8462049757145	0.11670250186216435
251.0	125.5228303355616	word	0.0		46.0	character	word-43.jpg	0.0	151.96290747757666	0.3832873860010295
251.0	125.90611772156262	ISI	1.0		7.0	character	word-43.jpg	0.0	152.3461948635777	0.11670310557383345
251.0	125.99789637384674	pulse	1.0	t		character	word-43.jpg	0.0	152.4379735158618	
252.0	126.02282082713646	car	0.0		46.0	object	car-129.jpg	0.0	152.46289796915153	0.38328648043534486
252.0	126.4061073075718	ISI	1.0		7.0	object	car-129.jpg	0.0	152.84618444958687	0.1167022000081488
253.0	126.52280950757995	car	0.0		46.0	object	car-12.jpg	0.0	152.96288664959502	0.38328648043534486
253.0	126.69789193658289	pulse	0.0	t		object	car-12.jpg	0.0	153.13796907859796	
253.0	126.9060959880153	ISI	1.0		7.0	object	car-12.jpg	0.0	153.34617313003037	0.11670310557383345
254.0	127.02279909358913	car	0.0		46.0	object	car-1.jpg	0.0	153.4628762356042	0.38328648043534486
254.0	127.39786787875346	pulse	0.0	t		object	car-1.jpg	0.0	153.83794502076853	
254.0	127.40608557402447	ISI	1.0		7.0	object	car-1.jpg	0.0	153.84616271603954	0.11670401113951812
255.0	127.52278958516399	car	0.0		46.0	object	car-11.jpg	0.0	153.96286672717906	0.3832873860010295
255.0	127.90607697116502	ISI	1.0		7.0	object	car-11.jpg	0.0	154.3461541131801	0.11670008702276391
256.0	128.02277705818778	car	0.0		46.0	object	car-86.jpg	0.0	154.46285420020286	0.3832904045484611
256.0	128.0978558951174	pulse	0.0	t		object	car-86.jpg	0.0	154.53793303713246	
256.0	128.40606746273625	ISI	1.0		7.0	object	car-86.jpg	0.0	154.84614460475132	0.11669827589867054
257.0	128.52276573863492	car	0.0		46.0	object	car-103.jpg	0.0	154.96284288065	0.3833021768841718
257.0	128.79784059107988	pulse	0.0	t		object	car-103.jpg	0.0	155.23791773309495	
257.0	128.9060679155191	ISI	1.0		7.0	object	car-103.jpg	0.0	155.34614505753416	0.11671668904091348
258.0	129.02278460456	car	0.0		46.0	object	car-67.jpg	0.0	155.46286174657507	0.38329131011050777
258.0	129.4060759146705	ISI	1.0		7.0	object	car-67.jpg	0.0	155.84615305668558	0.1250373168004444
258.0	129.49789290251647	pulse	1.0	t		object	car-67.jpg	0.0	155.93797004453154	
259.0	129.53111323147095	car	0.0		45.0	object	car-17.jpg	0.0	155.97119037348602	0.37495075993501814
259.0	129.90606399140597	ISI	1.0		7.0	object	car-17.jpg	0.0	156.34614113342104	0.12504093905954505
260.0	130.03110493046552	car	0.0		45.0	object	car-42.jpg	0.0	156.4711820724806	0.3749504580810026
260.0	130.19784499815796	pulse	0.0	t		object	car-42.jpg	0.0	156.63792214017303	
260.0	130.40605538854652	ISI	1.0		7.0	object	car-42.jpg	0.0	156.8461325305616	0.11670461484391126
261.0	130.52276000339043	car	0.0		46.0	object	car-8.jpg	0.0	156.9628371454055	0.3832852730192826
261.0	130.897826373719	pulse	0.0	t		object	car-8.jpg	0.0	157.33790351573407	
261.0	130.9060452764097	ISI	1.0		7.0	object	car-8.jpg	0.0	157.34612241842478	0.11670401113588014
262.0	131.0227492875456	car	0.0		46.0	object	car-80.jpg	0.0	157.46282642956066	0.3832529745523061
262.0	131.4060022620979	ISI	1.0		7.0	object	car-80.jpg	0.0	157.84607940411297	0.11670099259208655
263.0	131.52270325469	car	0.0		46.0	object	car-73.jpg	0.0	157.96278039670506	0.38328859341709176
263.0	131.59778058234224	pulse	0.0	t		object	car-73.jpg	0.0	158.0378577243573	
263.0	131.90599184810708	ISI	1.0		6.0	object	car-73.jpg	0.0	158.34606899012215	0.11670069073443301
264.0	132.0226925388415	car	0.0		46.0	object	car-116.jpg	0.0	158.46276968085658	0.3832798396324506
264.0	132.29776407088502	pulse	0.0	t		object	car-116.jpg	0.0	158.7378412129001	
264.0	132.40597237847396	ISI	1.0		7.0	object	car-116.jpg	0.0	158.84604952048903	0.11671306678181281
265.0	132.52268544525577	car	0.0		46.0	object	car-95.jpg	0.0	158.96276258727084	0.38328648043534486
265.0	132.90597192569112	ISI	1.0		7.0	object	car-95.jpg	0.0	159.3460490677062	0.11670069073443301
265.0	132.9977602373292	pulse	1.0	t		object	car-95.jpg	0.0	159.43783737934427	
266.0	133.02267261642555	car	0.0		46.0	object	car-63.jpg	0.0	159.46274975844062	0.38330157317614066
266.0	133.4059741896017	ISI	1.0		5.0	object	car-63.jpg	0.0	159.84605133161676	0.11668801283303765
267.0	133.52266220243473	car	0.0		46.0	object	car-30.jpg	0.0	159.9627393444498	0.3833000639024249
267.0	133.69773557579174	pulse	0.0	t		object	car-30.jpg	0.0	160.1378127178068	
267.0	133.90596226633716	ISI	1.0		7.0	object	car-30.jpg	0.0	160.34603940835223	0.11668771097902209
268.0	134.02264997731618	car	0.0		46.0	object	car-37.jpg	0.0	160.46272711933125	0.3832882915630762
268.0	134.39771785691482	pulse	0.0	t		object	car-37.jpg	0.0	160.8377949989299	
268.0	134.40593826887925	ISI	1.0		7.0	object	car-37.jpg	0.0	160.84601541089432	0.11670250186580233
269.0	134.52264077074506	car	0.0		46.0	object	car-99.jpg	0.0	160.96271791276013	0.38327259511424927
269.0	134.9059133658593	ISI	1.0		7.0	object	car-99.jpg	0.0	161.34599050787438	0.11676347653337871
270.0	135.02267684239268	car	0.0		46.0	object	car-66.jpg	0.0	161.46275398440775	0.3832427114903112
270.0	135.09772036230788	pulse	0.0	t		object	car-66.jpg	0.0	161.53779750432295	
270.0	135.405919553883	ISI	1.0		7.0	object	car-66.jpg	0.0	161.84599669589807	0.11670008702276391
271.0	135.52261964090576	car	0.0		46.0	object	car-49.jpg	0.0	161.96269678292083	0.38328859342072974
271.0	135.797692682223	pulse	0.0	t		object	car-49.jpg	0.0	162.23776982423806	
271.0	135.9059082343265	ISI	1.0		7.0	object	car-49.jpg	0.0	162.34598537634156	0.11670250186216435
272.0	136.02261073618865	car	0.0		46.0	object	car-57.jpg	0.0	162.46268787820372	0.3832855748732982
272.0	136.40589631106195	ISI	1.0		6.0	object	car-57.jpg	0.0	162.84597345307702	0.11670310557383345
272.0	136.49767375592637	pulse	1.0	t		object	car-57.jpg	0.0	162.93775089794144	
273.0	136.52259941663579	car	0.0		46.0	object	car-143.jpg	0.0	162.96267655865086	0.3832882915630762
273.0	136.90588770819886	ISI	1.0		7.0	object	car-143.jpg	0.0	163.34596485021393	0.11669948331473279
274.0	137.0225871915136	car	0.0		46.0	object	car-122.jpg	0.0	163.46266433352866	0.38332360857748426
274.0	137.19769739115873	pulse	0.0	t		object	car-122.jpg	0.0	163.6377745331738	
274.0	137.40591080009108	ISI	1.0		7.0	object	car-122.jpg	0.0	163.84598794210615	0.11670099259208655
275.0	137.52261179268316	car	0.0		46.0	object	car-132.jpg	0.0	163.96268893469824	0.383287084143376
275.0	137.89768118155553	pulse	0.0	t		object	car-132.jpg	0.0	164.3377583235706	
275.0	137.90589887682654	ISI	1.0		11.0	object	car-132.jpg	0.0	164.3459760188416	0.10003287198924227
276.0	138.00593174881578	baseline	0.0		48.0		baseline	0.0	164.44600889083085	0.39999172918032855
276.0	138.4059234779961	ISI	1.0		11.0		baseline	0.0	164.84600062001118	0.09999785682884976
277.0	138.50592133482496	baseline	0.0		48.0		baseline	0.0	164.94599847684003	0.3999908236146439
277.0	138.5977014963828	pulse	0.0	t			baseline	0.0	165.03777863839787	
277.0	138.9059121584396	ISI	1.0		11.0		baseline	0.0	165.34598930045468	0.09999876239453442
278.0	139.00591092083414	baseline	0.0		48.0		baseline	0.0	165.4459880628492	0.39999112546865945
278.0	139.2976925312978	pulse	0.0	t			baseline	0.0	165.73776967331287	
278.0	139.4059020463028	ISI	1.0		11.0		baseline	0.0	165.84597918831787	0.1000147607010149
279.0	139.5059168070038	baseline	0.0		48.0		baseline	0.0	165.94599394901888	0.3999757308738481
279.0	139.90589253787766	ISI	1.0		11.0		baseline	0.0	166.34596967989273	0.09999876239453442
279.0	139.9976726994355	pulse	1.0	t			baseline	0.0	166.43774984145057	
280.0	140.0058913002722	baseline	0.0		48.0		baseline	0.0	166.44596844228727	0.39998961619494366
280.0	140.40588091646714	ISI	1.0		11.0		baseline	0.0	166.8459580584822	0.1000002716682502
281.0	140.5058811881354	baseline	0.0		48.0		baseline	0.0	166.94595833015046	0.3999899180489592
281.0	140.69767097886142	pulse	0.0	t			baseline	0.0	167.1377481208765	
281.0	140.90587110618435	ISI	1.0		11.0		baseline	0.0	167.34594824819942	0.09999695126680308
282.0	141.00586805745115	baseline	0.0		48.0		baseline	0.0	167.44594519946622	0.39999444587374455
282.0	141.39764450619623	pulse	0.0	t			baseline	0.0	167.8377216482113	
282.0	141.4058625033249	ISI	1.0		11.0		baseline	0.0	167.84593964533997	0.09999544198944932
283.0	141.50585794531435	baseline	0.0		48.0		baseline	0.0	167.94593508732942	0.39999323845404433
283.0	141.9058511837684	ISI	1.0		11.0		baseline	0.0	168.34592832578346	0.10003498497098917
284.0	142.00588616873938	baseline	0.0		48.0		baseline	0.0	168.44596331075445	0.3999509787790885
284.0	142.09763161699448	pulse	0.0	t			baseline	0.0	168.53770875900955	
284.0	142.40583714751847	ISI	1.0		11.0		baseline	0.0	168.84591428953354	0.10000027167188819
285.0	142.50583741919036	baseline	0.0		48.0		baseline	0.0	168.94591456120543	0.3999923328847217
285.0	142.7976117851358	pulse	0.0	t			baseline	0.0	169.23768892715088	
285.0	142.90582975207508	ISI	1.0		11.0		baseline	0.0	169.34590689409015	0.0999987623981724
286.0	143.00582851447325	baseline	0.0		48.0		baseline	0.0	169.44590565648832	0.39998961619494366
286.0	143.4058181306682	ISI	1.0		11.0		baseline	0.0	169.84589527268326	0.09999936610256555
286.0	143.4976245535945	pulse	1.0	t			baseline	0.0	169.93770169560958	
287.0	143.50581749677076	baseline	0.0		48.0		baseline	0.0	169.94589463878583	0.39999021990661277
287.0	143.90580771667737	ISI	1.0		6.0		baseline	0.0	170.34588485869244	0.11666899597912561
288.0	144.0224767126565	house	0.0		46.0	place	house-39.jpg	0.0	170.46255385467157	0.3832849711616291
288.0	144.19757332883455	pulse	0.0	t		place	house-39.jpg	0.0	170.63765047084962	
288.0	144.40576168381813	ISI	1.0		7.0	place	house-39.jpg	0.0	170.8458388258332	0.11670461484754924
289.0	144.52246629866568	house	0.0		46.0	place	house-83.jpg	0.0	170.96254344068075	0.3832529745523061
289.0	144.89749886125355	pulse	0.0	t		place	house-83.jpg	0.0	171.33757600326862	
289.0	144.90571927321798	ISI	1.0		7.0	place	house-83.jpg	0.0	171.34579641523305	0.11669978516874835
290.0	145.02241905838673	house	0.0		46.0	place	house-10.jpg	0.0	171.4624962004018	0.38330368616152555
290.0	145.40572274454826	ISI	1.0		7.0	place	house-10.jpg	0.0	171.84579988656333	0.11668801283303765
291.0	145.5224107573813	house	0.0		46.0	place	house-9.jpg	0.0	171.96248789939636	0.38328587672731373
291.0	145.59750166850063	pulse	0.0	t		place	house-9.jpg	0.0	172.0375788105157	
291.0	145.9056966341086	ISI	1.0		5.0	place	house-9.jpg	0.0	172.34577377612368	0.11670099258844857
292.0	146.02239762669706	house	0.0		46.0	place	house-95.jpg	0.0	172.46247476871213	0.3832904045484611
292.0	146.29747127172232	pulse	0.0	t		place	house-95.jpg	0.0	172.7375484137374	
292.0	146.40568803124552	ISI	1.0		7.0	place	house-95.jpg	0.0	172.8457651732606	0.11670069073443301
293.0	146.52238872197995	house	0.0		46.0	place	house-42.jpg	0.0	172.96246586399502	0.3832882915630762
293.0	146.90567701354303	ISI	1.0		6.0	place	house-42.jpg	0.0	173.3457541555581	0.11670159630011767
293.0	146.9974665326008	pulse	1.0	t		place	house-42.jpg	0.0	173.43754367461588	
294.0	147.02237860984314	house	0.0		46.0	place	house-14.jpg	0.0	173.46245575185822	0.38329070640247664
294.0	147.40566931624562	ISI	1.0		7.0	place	house-14.jpg	0.0	173.8457464582607	0.11669918146071723
295.0	147.52236849770634	house	0.0		46.0	place	house-96.jpg	0.0	173.9624456397214	0.38329342309589265
295.0	147.69744458775676	pulse	0.0	t		place	house-96.jpg	0.0	174.13752172977183	
295.0	147.90566192080223	ISI	1.0		6.0	place	house-96.jpg	0.0	174.3457390628173	0.11671910388031392
296.0	148.02238102468255	house	0.0		46.0	place	house-123.jpg	0.0	174.46245816669762	0.38326504874567036
296.0	148.39744105605496	pulse	0.0	t		place	house-123.jpg	0.0	174.83751819807003	
296.0	148.40564607342822	ISI	1.0		7.0	place	house-123.jpg	0.0	174.8457232154433	0.11669857774904813
297.0	148.52234465117726	house	0.0		46.0	place	house-75.jpg	0.0	174.96242179319233	0.3832916119681613
297.0	148.90563626314542	ISI	1.0		6.0	place	house-75.jpg	0.0	175.3457134051605	0.11670069073443301
298.0	149.02233695387986	house	0.0		46.0	place	house-16.jpg	0.0	175.46241409589493	0.3832777266470657
298.0	149.09741337597006	pulse	0.0	t		place	house-16.jpg	0.0	175.53749051798513	
298.0	149.40561468052692	ISI	1.0		7.0	place	house-16.jpg	0.0	175.845691822542	0.11671065194241237
299.0	149.52232533246934	house	0.0		46.0	place	house-131.jpg	0.0	175.9624024744844	0.38328859342072974
299.0	149.79739565709315	pulse	0.0	t		place	house-131.jpg	0.0	176.23747279910822	
299.0	149.90561392589007	ISI	1.0		7.0	place	house-131.jpg	0.0	176.34569106790514	0.11670159630011767
300.0	150.02231552219018	car	0.0		46.0	object	car-121.jpg	0.0	176.46239266420525	0.3832876878550451
300.0	150.40560321004523	ISI	1.0		6.0	object	car-121.jpg	0.0	176.8456803520603	0.11670189815413323
300.0	150.4973888049899	pulse	1.0	t		object	car-121.jpg	0.0	176.93746594700497	
301.0	150.52230510819936	car	0.0		46.0	object	car-106.jpg	0.0	176.96238225021443	0.3833193826103525
301.0	150.9056244908097	ISI	1.0		7.0	object	car-106.jpg	0.0	177.34570163282478	0.1167043129898957
302.0	151.0223288037996	car	0.0		46.0	object	car-82.jpg	0.0	177.46240594581468	0.3832532764063217
302.0	151.1973704824013	pulse	0.0	t		object	car-82.jpg	0.0	177.63744762441638	
302.0	151.40558208020593	ISI	1.0		7.0	object	car-82.jpg	0.0	177.845659222221	0.11671065194605035
303.0	151.52229273215198	car	0.0		46.0	object	car-105.jpg	0.0	177.96236987416705	0.3832801414828282
303.0	151.89735185796235	pulse	0.0	t		object	car-105.jpg	0.0	178.33742899997742	
303.0	151.9055728736348	ISI	1.0		7.0	object	car-105.jpg	0.0	178.34565001564988	0.11670189815413323
304.0	152.02227477178894	car	0.0		46.0	object	car-136.jpg	0.0	178.462351913804	0.3832855748732982
304.0	152.40556034666224	ISI	1.0		7.0	object	car-136.jpg	0.0	178.8456374886773	0.11670310557019548
305.0	152.52226345223244	car	0.0		46.0	object	car-46.jpg	0.0	178.9623405942475	0.3832873860010295
305.0	152.597341685454	pulse	0.0	t		object	car-46.jpg	0.0	179.03741882746908	
305.0	152.90555083823347	ISI	1.0		6.0	object	car-46.jpg	0.0	179.34562798024854	0.11669948331837077
306.0	153.02225032155184	car	0.0		46.0	object	car-93.jpg	0.0	179.4623274635669	0.3832888952747453
306.0	153.29732849439824	pulse	0.0	t		object	car-93.jpg	0.0	179.7374056364133	
306.0	153.40553921682658	ISI	1.0		7.0	object	car-93.jpg	0.0	179.84561635884165	0.11670189815049525
307.0	153.52224111497708	car	0.0		46.0	object	car-7.jpg	0.0	179.96231825699215	0.3832888952747453
307.0	153.90553001025182	ISI	1.0		6.0	object	car-7.jpg	0.0	180.3456071522669	0.11669827589867054
307.0	153.99731741632786	pulse	1.0	t		object	car-7.jpg	0.0	180.43739455834293	
308.0	154.0222282861505	car	0.0		46.0	object	car-120.jpg	0.0	180.46230542816556	0.3832910082564922
308.0	154.405519294407	ISI	1.0		7.0	object	car-120.jpg	0.0	180.84559643642206	0.11670008702640189
309.0	154.5222193814334	car	0.0		46.0	object	car-83.jpg	0.0	180.96229652344846	0.38329342309589265
309.0	154.69729335849843	pulse	0.0	t		object	car-83.jpg	0.0	181.1373705005135	
309.0	154.90551280452928	ISI	1.0		7.0	object	car-83.jpg	0.0	181.34558994654435	0.11669586105563212
310.0	155.0222086655849	car	0.0		46.0	object	car-113.jpg	0.0	181.46228580759998	0.3832937249535462
310.0	155.397291637928	pulse	0.0	t		object	car-113.jpg	0.0	181.83736877994306	
310.0	155.40550239053846	ISI	1.0		7.0	object	car-113.jpg	0.0	181.84557953255353	0.11669586105563212
311.0	155.5221982515941	car	0.0		46.0	object	car-5.jpg	0.0	181.96227539360916	0.38330096946810954
311.0	155.9054992210622	ISI	1.0		7.0	object	car-5.jpg	0.0	182.34557636307727	0.11668861654106877
312.0	156.02218783760327	body	0.0		46.0	body	body-129.jpg	0.0	182.46226497961834	0.3832894989864144
312.0	156.09734093081715	pulse	0.0	t		body	body-129.jpg	0.0	182.53741807283222	
312.0	156.40547733658968	ISI	1.0		7.0	body	body-129.jpg	0.0	182.84555447860475	0.11670069073443301
313.0	156.52217802732412	body	0.0		46.0	body	body-82.jpg	0.0	182.9622551693392	0.3832882915630762
313.0	156.7972519742034	pulse	0.0	t		body	body-82.jpg	0.0	183.23732911621846	
313.0	156.9054663188872	ISI	1.0		7.0	body	body-82.jpg	0.0	183.34554346090226	0.11670099259208655
314.0	157.02216731147928	body	0.0		46.0	body	body-10.jpg	0.0	183.46224445349435	0.3833076102710038
314.0	157.40547492175028	ISI	1.0		7.0	body	body-10.jpg	0.0	183.84555206376535	0.12505210768722463
314.0	157.4973106245925	pulse	1.0	t		body	body-10.jpg	0.0	183.93738776660757	
315.0	157.5305270294375	body	0.0		45.0	body	body-10.jpg	1.0	183.97060417145258	0.3749498543693335
315.0	157.90547688380684	ISI	1.0		7.0	body	body-10.jpg	1.0	184.3455540258219	0.11670401113588014
316.0	158.02218089494272	body	0.0		46.0	body	body-131.jpg	0.0	184.4622580369578	0.38325327640995965
316.0	158.19722287540208	pulse	0.0	t		body	body-131.jpg	0.0	184.63730001741715	
316.0	158.28052997252234	response	0.0	b		body	body-131.jpg	0.0	184.72060711453742	
316.0	158.40543417135268	ISI	1.0		7.0	body	body-131.jpg	0.0	184.84551131336775	0.11670552040959592
317.0	158.52213969176228	body	0.0		46.0	body	body-136.jpg	0.0	184.96221683377735	0.3832867822929984
317.0	158.8972096843463	pulse	0.0	t		body	body-136.jpg	0.0	185.33728682636138	
317.0	158.90542647405528	ISI	1.0		7.0	body	body-136.jpg	0.0	185.34550361607035	0.11669887960306369
318.0	159.02212535365834	body	0.0		46.0	body	body-26.jpg	0.0	185.4622024956734	0.3832882915667142
318.0	159.40541364522505	ISI	1.0		6.0	body	body-26.jpg	0.0	185.84549078724012	0.11670159630011767
319.0	159.52211524152517	body	0.0		46.0	body	body-98.jpg	0.0	185.96219238354024	0.3832876878550451
319.0	159.59728886086305	pulse	0.0	t		body	body-98.jpg	0.0	186.03736600287812	
319.0	159.90540292938022	ISI	1.0		7.0	body	body-98.jpg	0.0	186.3454800713953	0.11670159629647969
320.0	160.0221045256767	body	0.0		46.0	body	body-71.jpg	0.0	186.46218166769177	0.38329131011414574
320.0	160.2971784725596	pulse	0.0	t		body	body-71.jpg	0.0	186.73725561457468	
320.0	160.40539583579084	ISI	1.0		7.0	body	body-71.jpg	0.0	186.8454729778059	0.11668076831847429
321.0	160.52207660410932	body	0.0		46.0	body	body-44.jpg	0.0	186.9621537461244	0.38330579914327245
321.0	160.9053824032526	ISI	1.0		7.0	body	body-44.jpg	0.0	187.34545954526766	0.11670793524899636
321.0	160.99717162045636	pulse	1.0	t		body	body-44.jpg	0.0	187.43724876247143	
322.0	161.02209033850158	body	0.0		46.0	body	body-35.jpg	0.0	187.46216748051665	0.3832807451944973
322.0	161.40537108369608	ISI	1.0		7.0	body	body-35.jpg	0.0	187.84544822571115	0.1167055204132339
323.0	161.52207660410932	body	0.0		46.0	body	body-144.jpg	0.0	187.9621537461244	0.38328587672731373
323.0	161.6971469589189	pulse	0.0	t		body	body-144.jpg	0.0	188.13722410093396	
323.0	161.90536248083663	ISI	1.0		11.0	body	body-144.jpg	0.0	188.3454396228517	0.10001747739079292
324.0	162.00537995822742	baseline	0.0		48.0		baseline	0.0	188.4454571002425	0.39997241047240095
324.0	162.39716153850532	pulse	0.0	t			baseline	0.0	188.8372386805204	
324.0	162.40535236869982	ISI	1.0		11.0		baseline	0.0	188.8454295107149	0.0999981586865033
325.0	162.50535052738633	baseline	0.0		48.0		baseline	0.0	188.9454276694014	0.39998961619494366
325.0	162.90534014358127	ISI	1.0		11.0		baseline	0.0	189.34541728559634	0.09999785682884976
326.0	163.00533800041012	baseline	0.0		48.0		baseline	0.0	189.4454151424252	0.3999920310343441
326.0	163.09716102535094	pulse	0.0	t			baseline	0.0	189.537238167366	
326.0	163.40533003144446	ISI	1.0		11.0		baseline	0.0	189.84540717345953	0.09999876239453442
327.0	163.505328793839	baseline	0.0		48.0		baseline	0.0	189.94540593585407	0.3999905217606283
327.0	163.7971061783319	pulse	0.0	t			baseline	0.0	190.23718332034696	
327.0	163.90531931559963	ISI	1.0		11.0		baseline	0.0	190.3453964576147	0.0999975549748342
328.0	164.00531687057446	baseline	0.0		48.0		baseline	0.0	190.44539401258953	0.4000602502201218
328.0	164.40537712079458	ISI	1.0		11.0		baseline	0.0	190.84545426280965	0.10004343690525275
328.0	164.49715637678673	pulse	1.0	t			baseline	0.0	190.9372335188018	
329.0	164.50542055769984	baseline	0.0		48.0		baseline	0.0	190.9454976997149	0.3999467528119567
329.0	164.9053673105118	ISI	1.0		11.0		baseline	0.0	191.34544445252686	0.09999695126680308
330.0	165.0053642617786	baseline	0.0		48.0		baseline	0.0	191.44544140379367	0.3999929365963908
330.0	165.19714560057037	pulse	0.0	t			baseline	0.0	191.63722274258544	
330.0	165.405357198375	ISI	1.0		11.0		baseline	0.0	191.84543434039006	0.0999960457047564
331.0	165.50535324407974	baseline	0.0		48.0		baseline	0.0	191.9454303860948	0.3999923328847217
331.0	165.89712848540512	pulse	0.0	t			baseline	0.0	192.3372056274202	
331.0	165.90534557696446	ISI	1.0		11.0		baseline	0.0	192.34542271897953	0.09999996981787262
332.0	166.00534554678234	baseline	0.0		48.0		baseline	0.0	192.4454226887974	0.39997935312931077
332.0	166.40532489991165	ISI	1.0		11.0		baseline	0.0	192.84540204192672	0.10001838295647758
333.0	166.50534328286813	baseline	0.0		48.0		baseline	0.0	192.9454204248832	0.4000044070817239
333.0	166.5971337074916	pulse	0.0	t			baseline	0.0	193.03721084950666	
333.0	166.90534768994985	ISI	1.0		11.0		baseline	0.0	193.34542483196492	0.09997521771947504
334.0	167.00532290766932	baseline	0.0		48.0		baseline	0.0	193.4454000496844	0.39999112546865945
334.0	167.29710029216585	pulse	0.0	t			baseline	0.0	193.73717743418092	
334.0	167.40531403313798	ISI	1.0		11.0		baseline	0.0	193.84539117515305	0.09999876239453442
335.0	167.50531279553252	baseline	0.0		48.0		baseline	0.0	193.9453899375476	0.4000031996620237
335.0	167.90531599519454	ISI	1.0		7.0		baseline	0.0	194.3453931372096	0.12499052930434118
335.0	167.9971583388433	pulse	1.0	t			baseline	0.0	194.43723548085836	
336.0	168.03030652449888	car	0.0		45.0	object	car-62.jpg	0.0	194.47038366651395	0.37494985437297146
336.0	168.40525637887185	ISI	1.0		7.0	object	car-62.jpg	0.0	194.84533352088692	0.11670401113588014
337.0	168.52196039000773	car	0.0		46.0	object	car-104.jpg	0.0	194.9620375320228	0.383252370844275
337.0	168.6970002574817	pulse	0.0	t		object	car-104.jpg	0.0	195.13707739949677	
337.0	168.905212760852	ISI	1.0		7.0	object	car-104.jpg	0.0	195.34528990286708	0.11670280371617991
338.0	169.0219155645682	car	0.0		46.0	object	car-91.jpg	0.0	195.46199270658326	0.3832910082601302
338.0	169.39698736827995	pulse	0.0	t		object	car-91.jpg	0.0	195.83706451029502	
338.0	169.40520657282832	ISI	1.0		7.0	object	car-91.jpg	0.0	195.8452837148434	0.11669887960306369
339.0	169.52190545243138	car	0.0		46.0	object	car-91.jpg	1.0	195.96198259444645	0.3832882915667142
339.0	169.86364041123306	response	0.0	b		object	car-91.jpg	1.0	196.30371755324813	
339.0	169.9051937439981	ISI	1.0		7.0	object	car-91.jpg	1.0	196.34527088601317	0.11670069073443301
340.0	170.02189443473253	car	0.0		46.0	object	car-117.jpg	0.0	196.4619715767476	0.38330096946810954
340.0	170.09697659206358	pulse	0.0	t		object	car-117.jpg	0.0	196.53705373407865	
340.0	170.40519540420064	ISI	1.0		7.0	object	car-117.jpg	0.0	196.8452725462157	0.1167049167015648
341.0	170.5219003209022	car	0.0		46.0	object	car-141.jpg	0.0	196.96197746291728	0.38327289696826483
341.0	170.79695676020492	pulse	0.0	t		object	car-141.jpg	0.0	197.23703390222	
341.0	170.90517321787047	ISI	1.0		6.0	object	car-141.jpg	0.0	197.34525035988554	0.11669948331473279
342.0	171.0218727011852	car	0.0		46.0	object	car-89.jpg	0.0	197.46194984320027	0.3833012713221251
342.0	171.40517397250733	ISI	1.0		7.0	object	car-89.jpg	0.0	197.8452511145224	0.11669012581842253
342.0	171.49704921833109	pulse	1.0	t		object	car-89.jpg	0.0	197.93712636034616	
343.0	171.52186409832575	car	0.0		46.0	object	car-92.jpg	0.0	197.96194124034082	0.3832861785813293
343.0	171.90515027690708	ISI	1.0		7.0	object	car-92.jpg	0.0	198.34522741892215	0.11670099258844857
344.0	172.02185126949553	car	0.0		46.0	object	car-100.jpg	0.0	198.4619284115106	0.38329070640247664
344.0	172.19692615212625	pulse	0.0	t		object	car-100.jpg	0.0	198.63700329414132	
344.0	172.405141975898	ISI	1.0		7.0	object	car-100.jpg	0.0	198.84521911791308	0.11669887960670167
345.0	172.5218408555047	car	0.0		46.0	object	car-140.jpg	0.0	198.96191799751978	0.383292517530208
345.0	172.89691175365078	pulse	0.0	t		object	car-140.jpg	0.0	199.33698889566585	
345.0	172.90513337303491	ISI	1.0		7.0	object	car-140.jpg	0.0	199.34521051504998	0.11669706847897032
346.0	173.02183044151388	car	0.0		46.0	object	car-18.jpg	0.0	199.46190758352896	0.383289800836792
346.0	173.40512024235068	ISI	1.0		7.0	object	car-18.jpg	0.0	199.84519738436575	0.11670099259208655
347.0	173.52182123494276	car	0.0		46.0	object	car-60.jpg	0.0	199.96189837695783	0.38329191382217687
347.0	173.59690218485412	pulse	0.0	t		object	car-60.jpg	0.0	200.0369793268692	
347.0	173.90511314876494	ISI	1.0		7.0	object	car-60.jpg	0.0	200.34519029078	0.11670008702276391
348.0	174.0218132357877	house	0.0		46.0	place	house-134.jpg	0.0	200.46189037780277	0.38328587672731373
348.0	174.29688174928378	pulse	0.0	t		place	house-134.jpg	0.0	200.73695889129885	
348.0	174.40509911251502	ISI	1.0		7.0	place	house-134.jpg	0.0	200.8451762545301	0.11670008702640189
349.0	174.52179919954142	house	0.0		46.0	place	house-87.jpg	0.0	200.9618763415565	0.3833220993037685
349.0	174.9051212988452	ISI	1.0		6.0	place	house-87.jpg	0.0	201.34519844086026	0.12503550566907506
349.0	174.9969431163663	pulse	1.0	t		place	house-87.jpg	0.0	201.43702025838138	
350.0	175.03015680451426	house	0.0		45.0	place	house-78.jpg	0.0	201.47023394652933	0.374952872920403
350.0	175.40510967743467	ISI	1.0		7.0	place	house-78.jpg	0.0	201.84518681944974	0.11670461484754924
351.0	175.52181429228222	house	0.0		46.0	place	house-119.jpg	0.0	201.96189143429729	0.383252370840637
351.0	175.69686049870506	pulse	0.0	t		place	house-119.jpg	0.0	202.13693764072013	
351.0	175.90506666312285	ISI	1.0		7.0	place	house-119.jpg	0.0	202.34514380513792	0.11670008702640189
352.0	176.02176675014925	house	0.0		46.0	place	house-130.jpg	0.0	202.46184389216432	0.38329131011414574
352.0	176.39683674273329	pulse	0.0	t		place	house-130.jpg	0.0	202.83691388474836	
352.0	176.4050580602634	ISI	1.0		7.0	place	house-130.jpg	0.0	202.84513520227847	0.11669948331473279
353.0	176.52175754357813	house	0.0		46.0	place	house-137.jpg	0.0	202.9618346855932	0.3832882915630762
353.0	176.9050458351412	ISI	1.0		7.0	place	house-137.jpg	0.0	203.34512297715628	0.11670038888041745
354.0	177.02174622402163	house	0.0		46.0	place	house-81.jpg	0.0	203.4618233660367	0.38329131011414574
354.0	177.09682626837093	pulse	0.0	t		place	house-81.jpg	0.0	203.536903410386	
354.0	177.40503753413577	ISI	1.0		6.0	place	house-81.jpg	0.0	203.84511467615084	0.11668650355932186
355.0	177.5217240376951	house	0.0		46.0	place	house-109.jpg	0.0	203.96180117971016	0.3833000639024249
355.0	177.79680824764	pulse	0.0	t		place	house-109.jpg	0.0	204.23688538965507	
355.0	177.90502410159752	ISI	1.0		7.0	place	house-109.jpg	0.0	204.3451012436126	0.11670370928186458
356.0	178.02172781087938	house	0.0		46.0	place	house-76.jpg	0.0	204.46180495289445	0.3832876878550451
356.0	178.40501549873443	ISI	1.0		5.0	place	house-76.jpg	0.0	204.8450926407495	0.11670250186216435
356.0	178.49679898069735	pulse	1.0	t		place	house-76.jpg	0.0	204.93687612271242	
357.0	178.5217180005966	house	0.0		46.0	place	house-11.jpg	0.0	204.96179514261166	0.3832855748732982
357.0	178.9050035754699	ISI	1.0		6.0	place	house-11.jpg	0.0	205.34508071748496	0.11670099258844857
358.0	179.02170456805834	house	0.0		46.0	place	house-26.jpg	0.0	205.4617817100734	0.38328859342072974
358.0	179.19678307294816	pulse	0.0	t		place	house-26.jpg	0.0	205.63686021496324	
358.0	179.40499316147907	ISI	1.0		6.0	place	house-26.jpg	0.0	205.84507030349414	0.11670250186216435
359.0	179.52169566334123	house	0.0		46.0	place	house-57.jpg	0.0	205.9617728053563	0.3832894989864144
359.0	179.89676595777928	pulse	0.0	t		place	house-57.jpg	0.0	206.33684309979435	
359.0	179.90498516232765	ISI	1.0		11.0	place	house-57.jpg	0.0	206.34506230434272	0.09998608449313906
360.0	180.0049712468208	baseline	0.0		48.0		baseline	0.0	206.44504838883586	0.40000138853065437
360.0	180.40497263535144	ISI	1.0		11.0		baseline	0.0	206.8450497773665	0.09999785683248774
361.0	180.50497049218393	baseline	0.0		48.0		baseline	0.0	206.945047634199	0.40000440707808593
361.0	180.5967536722892	pulse	0.0	t			baseline	0.0	207.03683081430427	
361.0	180.90497489926202	ISI	1.0		11.0		baseline	0.0	207.34505204127709	0.09998819747852394
362.0	181.00496309674054	baseline	0.0		48.0		baseline	0.0	207.4450402387556	0.39998780506357434
362.0	181.29673927381373	pulse	0.0	t			baseline	0.0	207.7368164158288	
362.0	181.4049509018041	ISI	1.0		11.0		baseline	0.0	207.84502804381918	0.0999981586865033
363.0	181.50494906049062	baseline	0.0		48.0		baseline	0.0	207.9450262025057	0.40006206134785316
363.0	181.90501112183847	ISI	1.0		11.0		baseline	0.0	208.34508826385354	0.10000087537991931
363.0	181.99681331879765	pulse	1.0	t			baseline	0.0	208.43689046081272	
364.0	182.0050119972184	baseline	0.0		48.0		baseline	0.0	208.44508913923346	0.39998569208182744
364.0	182.40499768930022	ISI	1.0		11.0		baseline	0.0	208.8450748313153	0.10000329021931975
365.0	182.50500097951954	baseline	0.0		48.0		baseline	0.0	208.9450781215346	0.3999847865161428
365.0	182.6967783941982	pulse	0.0	t			baseline	0.0	209.13685553621326	
365.0	182.90498576603568	ISI	1.0		11.0		baseline	0.0	209.34506290805075	0.10000419578136643
366.0	183.00498996181705	baseline	0.0		48.0		baseline	0.0	209.44506710383212	0.39999595514746034
366.0	183.39678572927005	pulse	0.0	t			baseline	0.0	209.83686287128512	
366.0	183.4049859169645	ISI	1.0		11.0		baseline	0.0	209.84506305897958	0.10000510134341312
367.0	183.50499101830792	baseline	0.0		48.0		baseline	0.0	209.945068160323	0.3999977662751917
367.0	183.9049887845831	ISI	1.0		11.0		baseline	0.0	210.34506592659818	0.10001174215358333
368.0	184.0050005267367	baseline	0.0		48.0		baseline	0.0	210.44507766875176	0.3999549028922047
368.0	184.09674446571807	pulse	0.0	t			baseline	0.0	210.53682160773315	
368.0	184.4049554296289	ISI	1.0		11.0		baseline	0.0	210.84503257164397	0.10000902545652934
369.0	184.50496445508543	baseline	0.0		48.0		baseline	0.0	210.9450415971005	0.39998146611469565
369.0	184.79673278393602	pulse	0.0	t			baseline	0.0	211.2368099259511	
369.0	184.90494592120012	ISI	1.0		11.0		baseline	0.0	211.3450230632152	0.09999785683248774
370.0	185.0049437780326	baseline	0.0		48.0		baseline	0.0	211.44502092004768	0.39999263474237523
370.0	185.404936412775	ISI	1.0		11.0		baseline	0.0	211.84501355479006	0.09999996981423465
370.0	185.49671778175252	pulse	1.0	t			baseline	0.0	211.9367949237676	
371.0	185.50493638258922	baseline	0.0		48.0		baseline	0.0	211.9450135246043	0.3999971625635226
371.0	185.90493354515274	ISI	1.0		7.0		baseline	0.0	212.34501068716781	0.11668439057757496
372.0	186.02161793573032	body	0.0		46.0	body	body-20.jpg	0.0	212.4616950777454	0.38322942987724673
372.0	186.196636673365	pulse	0.0	t		body	body-20.jpg	0.0	212.63671381538006	
372.0	186.40484736560757	ISI	1.0		7.0	body	body-20.jpg	0.0	212.84492450762264	0.11669978516874835
373.0	186.5215471507763	body	0.0		46.0	body	body-20.jpg	1.0	212.96162429279138	0.3832922156761924
373.0	186.89662951940772	pulse	0.0	t		body	body-20.jpg	1.0	213.3367066614228	
373.0	186.9048393664525	ISI	1.0		6.0	body	body-20.jpg	1.0	213.34491650846758	0.11670370928550255
374.0	187.021543075738	body	0.0		46.0	body	body-119.jpg	0.0	213.46162021775308	0.38328255632222863
374.0	187.079961338437	response	0.0	b		body	body-119.jpg	0.0	213.52003848045206	
374.0	187.40482563206024	ISI	1.0		7.0	body	body-119.jpg	0.0	213.8449027740753	0.11670099258844857
375.0	187.5215266246487	body	0.0		46.0	body	body-8.jpg	0.0	213.96160376666376	0.3832876878550451
375.0	187.59660365045056	pulse	0.0	t		body	body-8.jpg	0.0	214.03668079246563	
375.0	187.90481431250373	ISI	1.0		5.0	body	body-8.jpg	0.0	214.3448914545188	0.11670189815413323
376.0	188.02151621065786	body	0.0		46.0	body	body-91.jpg	0.0	214.46159335267293	0.3832876878550451
376.0	188.29658895012108	pulse	0.0	t		body	body-91.jpg	0.0	214.73666609213615	
376.0	188.4048038985129	ISI	1.0		7.0	body	body-91.jpg	0.0	214.84488104052798	0.11670250186580233
377.0	188.5215064003787	body	0.0		46.0	body	body-41.jpg	0.0	214.96158354239378	0.3832882915630762
377.0	188.9047946919418	ISI	1.0		7.0	body	body-41.jpg	0.0	215.34487183395686	0.11670129444610211
377.0	188.9965745516456	pulse	1.0	t		body	body-41.jpg	0.0	215.43665169366068	
378.0	189.0214959863879	body	0.0		46.0	body	body-47.jpg	0.0	215.46157312840296	0.38328798970906064
378.0	189.40478397609695	ISI	1.0		7.0	body	body-47.jpg	0.0	215.84486111811202	0.11671638718325994
379.0	189.5215003632802	body	0.0		46.0	body	body-31.jpg	0.0	215.96157750529528	0.3832722932602337
379.0	189.69655985131612	pulse	0.0	t		body	body-31.jpg	0.0	216.1366369933312	
379.0	189.90477265654044	ISI	1.0		7.0	body	body-31.jpg	0.0	216.34484979855552	0.11670159630011767
380.0	190.02147425284056	body	0.0		46.0	body	body-126.jpg	0.0	216.46155139485563	0.38328798970906064
380.0	190.39654394357058	pulse	0.0	t		body	body-126.jpg	0.0	216.83662108558565	
380.0	190.40476224254962	ISI	1.0		7.0	body	body-126.jpg	0.0	216.8448393845647	0.11670129444610211
381.0	190.52146353699573	body	0.0		46.0	body	body-4.jpg	0.0	216.9615406790108	0.3832873860010295
381.0	190.90475092299675	ISI	1.0		7.0	body	body-4.jpg	0.0	217.34482806501182	0.11670250186216435
382.0	191.02145342485892	body	0.0		46.0	body	body-105.jpg	0.0	217.461530566874	0.3832873860010295
382.0	191.09652984694912	pulse	0.0	t		body	body-105.jpg	0.0	217.5366069889642	
382.0	191.40474081085995	ISI	1.0		7.0	body	body-105.jpg	0.0	217.84481795287502	0.11670189815413323
383.0	191.52144270901408	body	0.0		46.0	body	body-74.jpg	0.0	217.96151985102915	0.3832876878550451
383.0	191.79651484476562	pulse	0.0	t		body	body-74.jpg	0.0	218.2365919867807	
383.0	191.90473039686913	ISI	1.0		7.0	body	body-74.jpg	0.0	218.3448075388842	0.11670129444246413
384.0	192.0214316913116	adult	0.0		46.0	face	adult-65.jpg	0.0	218.46150883332666	0.3833217974497529
384.0	192.40475348876134	ISI	1.0		7.0	face	adult-65.jpg	0.0	218.8448306307764	0.12503701494642883
384.0	192.4965668543482	pulse	1.0	t		face	adult-65.jpg	0.0	218.93664399636327	
385.0	192.52979050370777	adult	0.0		45.0	face	adult-8.jpg	0.0	218.96986764572284	0.37495136364304926
385.0	192.90474186735082	ISI	1.0		7.0	face	adult-8.jpg	0.0	219.3448190093659	0.11670914266869659
386.0	193.02145101001952	adult	0.0		46.0	face	adult-66.jpg	0.0	219.4615281520346	0.38324844673115877
386.0	193.19648755709204	pulse	0.0	t		face	adult-66.jpg	0.0	219.6365646991071	
386.0	193.40469945675068	ISI	1.0		7.0	face	adult-66.jpg	0.0	219.84477659876575	0.11670038888041745
387.0	193.5213998456311	adult	0.0		46.0	face	adult-119.jpg	0.0	219.96147698764617	0.3832904045484611
387.0	193.89647376232824	pulse	0.0	t		face	adult-119.jpg	0.0	220.3365509043433	
387.0	193.90469025017956	ISI	1.0		7.0	face	adult-119.jpg	0.0	220.34476739219463	0.11670038888041745
388.0	194.02139063905997	adult	0.0		46.0	face	adult-18.jpg	0.0	220.46146778107504	0.383287084143376
388.0	194.40467772320335	ISI	1.0		7.0	face	adult-18.jpg	0.0	220.84475486521842	0.11668831469069119
389.0	194.52136603789404	adult	0.0		46.0	face	adult-123.jpg	0.0	220.9614431799091	0.3833012713184871
389.0	194.59646811764105	pulse	0.0	t		face	adult-123.jpg	0.0	221.03654525965612	
389.0	194.90466730921253	ISI	1.0		7.0	face	adult-123.jpg	0.0	221.3447444512276	0.11670340742784902
390.0	195.02137071664038	adult	0.0		46.0	face	adult-43.jpg	0.0	221.46144785865545	0.3832722932602337
390.0	195.29646398223122	pulse	0.0	t		face	adult-43.jpg	0.0	221.7365411242463	
390.0	195.4046430099006	ISI	1.0		7.0	face	adult-43.jpg	0.0	221.84472015191568	0.11675019492395222
391.0	195.52139320482456	adult	0.0		46.0	face	adult-68.jpg	0.0	221.96147034683963	0.3832544838260219
391.0	195.90464768865058	ISI	1.0		7.0	face	adult-68.jpg	0.0	222.34472483066565	0.11670038888041745
391.0	195.99642422795296	pulse	1.0	t		face	adult-68.jpg	0.0	222.43650136996803	
392.0	196.021348077531	adult	0.0		46.0	face	adult-88.jpg	0.0	222.46142521954607	0.3832928193878615
392.0	196.40464089691886	ISI	1.0		7.0	face	adult-88.jpg	0.0	222.84471803893393	0.11670069073443301
393.0	196.5213415876533	adult	0.0		46.0	face	adult-64.jpg	0.0	222.96141872966837	0.3832861785813293
