trial_nr	onset	event_type	phase	response	nr_frames	face_age	face_sex	face_eth	attractiveness	expression	face_id	sub_id	ses	run	trial_type	catch	rating_type	onset_abs	duration
-1.0	0.05708406445091896	fix	0.0		714													24.261540588453954	5.9663057589973505
-1.0	0.706947580799806	pulse	0.0	t														24.91140410480284	
-1.0	1.4069226174074174	pulse	0.0	t														25.611379141410453	
-1.0	2.106915765303256	pulse	0.0	t														26.31137228930629	
-1.0	2.8069004612643766	pulse	0.0	t														27.011356985267412	
-1.0	3.506874894162138	pulse	0.0	t														27.711331418165173	
-1.0	4.2068629105265245	pulse	0.0	t														28.41131943452956	
-1.0	4.9068491157618155	pulse	0.0	t														29.11130563976485	
-1.0	5.606836830271277	pulse	0.0	t														29.811293354274312	
0.0	6.0233898234482695	face	0.0		144	32.0	male	white	2.389176283326701	smiling	092	sub-11	1.0	3.0	092_smiling	0.0		30.227846347451305	1.2333026749465716
0.0	6.306829072602795	pulse	0.0	t		32.0	male	white	2.389176283326701	smiling	092	sub-11	1.0	3.0	092_smiling	0.0		30.51128559660583	
0.0	7.006806524048443	pulse	0.0	t		32.0	male	white	2.389176283326701	smiling	092	sub-11	1.0	3.0	092_smiling	0.0		31.211263048051478	
0.0	7.256692498394841	fix	1.0		445	32.0	male	white	2.389176283326701	smiling	092	sub-11	1.0	3.0	092_smiling	0.0		31.461149022397876	3.7582547479501045
0.0	7.706801181218452	pulse	1.0	t		32.0	male	white	2.389176283326701	smiling	092	sub-11	1.0	3.0	092_smiling	0.0		31.911257705221487	
0.0	8.40677923637395	pulse	1.0	t		32.0	male	white	2.389176283326701	smiling	092	sub-11	1.0	3.0	092_smiling	0.0		32.611235760376985	
0.0	9.106766950883411	pulse	1.0	t		32.0	male	white	2.389176283326701	smiling	092	sub-11	1.0	3.0	092_smiling	0.0		33.31122347488645	
0.0	9.80674681716755	pulse	1.0	t		32.0	male	white	2.389176283326701	smiling	092	sub-11	1.0	3.0	092_smiling	0.0		34.011203341170585	
0.0	10.506751133691523	pulse	1.0	t		32.0	male	white	2.389176283326701	smiling	092	sub-11	1.0	3.0	092_smiling	0.0		34.71120765769456	
1.0	11.014947246344946	face	0.0		146	31.0	male	west_asian	1.9538400318344609	neutral	070	sub-11	1.0	3.0	070_neutral	0.0		35.21940377034798	1.2416411121416786
1.0	11.206729792556416	pulse	0.0	t		31.0	male	west_asian	1.9538400318344609	neutral	070	sub-11	1.0	3.0	070_neutral	0.0		35.41118631655945	
1.0	11.906732901661144	pulse	0.0	t		31.0	male	west_asian	1.9538400318344609	neutral	070	sub-11	1.0	3.0	070_neutral	0.0		36.11118942566418	
1.0	12.256588358486624	fix	1.0		444	31.0	male	west_asian	1.9538400318344609	neutral	070	sub-11	1.0	3.0	070_neutral	0.0		36.46104488248966	3.7582532386754792
1.0	12.606696467785696	pulse	1.0	t		31.0	male	west_asian	1.9538400318344609	neutral	070	sub-11	1.0	3.0	070_neutral	0.0		36.81115299178873	
1.0	13.306680258182496	pulse	1.0	t		31.0	male	west_asian	1.9538400318344609	neutral	070	sub-11	1.0	3.0	070_neutral	0.0		37.51113678218553	
1.0	14.00668638583511	pulse	1.0	t		31.0	male	west_asian	1.9538400318344609	neutral	070	sub-11	1.0	3.0	070_neutral	0.0		38.211142909838145	
1.0	14.706649046395341	pulse	1.0	t		31.0	male	west_asian	1.9538400318344609	neutral	070	sub-11	1.0	3.0	070_neutral	0.0		38.91110557039838	
1.0	15.406633742356917	pulse	1.0	t		31.0	male	west_asian	1.9538400318344609	neutral	070	sub-11	1.0	3.0	070_neutral	0.0		39.61109026635995	
2.0	16.014841597162103	face	0.0		146	26.0	male	white	2.7966573816155993	neutral	117	sub-11	1.0	3.0	117_neutral	0.0		40.21929812116514	1.2416438288350946
2.0	16.10662749396215	pulse	0.0	t		26.0	male	white	2.7966573816155993	neutral	117	sub-11	1.0	3.0	117_neutral	0.0		40.311084017965186	
2.0	16.806606454682424	pulse	0.0	t		26.0	male	white	2.7966573816155993	neutral	117	sub-11	1.0	3.0	117_neutral	0.0		41.01106297868546	
2.0	17.256485425997198	fix	1.0		444	26.0	male	white	2.7966573816155993	neutral	117	sub-11	1.0	3.0	117_neutral	0.0		41.46094195000023	3.758248710853877
2.0	17.50659477290128	pulse	1.0	t		26.0	male	white	2.7966573816155993	neutral	117	sub-11	1.0	3.0	117_neutral	0.0		41.711051296904316	
2.0	18.20657765773376	pulse	1.0	t		26.0	male	white	2.7966573816155993	neutral	117	sub-11	1.0	3.0	117_neutral	0.0		42.411034181736795	
2.0	18.906559637001465	pulse	1.0	t		26.0	male	white	2.7966573816155993	neutral	117	sub-11	1.0	3.0	117_neutral	0.0		43.1110161610045	
2.0	19.606550973768663	pulse	1.0	t		26.0	male	white	2.7966573816155993	neutral	117	sub-11	1.0	3.0	117_neutral	0.0		43.8110074977717	
2.0	20.30656344037243	pulse	1.0	t		26.0	male	white	2.7966573816155993	neutral	117	sub-11	1.0	3.0	117_neutral	0.0		44.511019964375464	
3.0	21.014734136851075	face	0.0		147	19.0	male	white	3.2522881018702745	smiling	018	sub-11	1.0	3.0	018_smiling	0.0		45.21919066085411	1.2416477529473013
3.0	21.007877806759552	pulse	0.0	t		19.0	male	white	3.2522881018702745	smiling	018	sub-11	1.0	3.0	018_smiling	0.0		45.21233433076259	
3.0	21.706508080200365	pulse	0.0	t		19.0	male	white	3.2522881018702745	smiling	018	sub-11	1.0	3.0	018_smiling	0.0		45.9109646042034	
3.0	22.256381889798377	fix	1.0		443	19.0	male	white	3.2522881018702745	smiling	018	sub-11	1.0	3.0	018_smiling	0.0		46.46083841380141	3.7582559553688952
3.0	22.40649368172626	pulse	1.0	t		19.0	male	white	3.2522881018702745	smiling	018	sub-11	1.0	3.0	018_smiling	0.0		46.610950205729296	
3.0	23.10647747212306	pulse	1.0	t		19.0	male	white	3.2522881018702745	smiling	018	sub-11	1.0	3.0	018_smiling	0.0		47.310933996126096	
3.0	23.80645945139122	pulse	1.0	t		19.0	male	white	3.2522881018702745	smiling	018	sub-11	1.0	3.0	018_smiling	0.0		48.010915975394255	
3.0	24.506446260335906	pulse	1.0	t		19.0	male	white	3.2522881018702745	smiling	018	sub-11	1.0	3.0	018_smiling	0.0		48.71090278433894	
3.0	25.206432163716727	pulse	1.0	t		19.0	male	white	3.2522881018702745	smiling	018	sub-11	1.0	3.0	018_smiling	0.0		49.41088868771976	
3.0	25.906416859677847	pulse	1.0	t		19.0	male	white	3.2522881018702745	smiling	018	sub-11	1.0	3.0	018_smiling	0.0		50.11087338368088	
4.0	26.01463784516727	face	0.0		147	19.0	female	white	4.298846000795861	neutral	100	sub-11	1.0	3.0	100_neutral	0.0		50.21909436917031	1.2416411121416786
4.0	26.60640789459012	pulse	0.0	t		19.0	female	white	4.298846000795861	neutral	100	sub-11	1.0	3.0	100_neutral	0.0		50.810864418593155	
4.0	27.25627895730895	fix	1.0		443	19.0	female	white	4.298846000795861	neutral	100	sub-11	1.0	3.0	100_neutral	0.0		51.460735481311985	3.758233316258611
4.0	27.306421870467602	pulse	1.0	t		19.0	female	white	4.298846000795861	neutral	100	sub-11	1.0	3.0	100_neutral	0.0		51.51087839447064	
4.0	28.006403547880836	pulse	1.0	t		19.0	female	white	4.298846000795861	neutral	100	sub-11	1.0	3.0	100_neutral	0.0		52.21086007188387	
4.0	28.706363491748107	pulse	1.0	t		19.0	female	white	4.298846000795861	neutral	100	sub-11	1.0	3.0	100_neutral	0.0		52.91082001575114	
4.0	29.406347885854302	pulse	1.0	t		19.0	female	white	4.298846000795861	neutral	100	sub-11	1.0	3.0	100_neutral	0.0		53.61080440985734	
4.0	30.106330468831857	pulse	1.0	t		19.0	female	white	4.298846000795861	neutral	100	sub-11	1.0	3.0	100_neutral	0.0		54.31078699283489	
4.0	30.806315768502827	pulse	1.0	t		19.0	female	white	4.298846000795861	neutral	100	sub-11	1.0	3.0	100_neutral	0.0		55.01077229250586	
5.0	31.01451227356756	face	0.0		146	24.0	female	east_asian	2.9076800636689217	neutral	034	sub-11	1.0	3.0	034_neutral	0.0		55.2189687975706	1.2416628456880971
5.0	31.5063068034151	pulse	0.0	t		24.0	female	east_asian	2.9076800636689217	neutral	034	sub-11	1.0	3.0	034_neutral	0.0		55.710763327418135	
5.0	32.20628908453773	pulse	0.0	t		24.0	female	east_asian	2.9076800636689217	neutral	034	sub-11	1.0	3.0	034_neutral	0.0		56.410745608540765	
5.0	32.25617511925566	fix	1.0		445	24.0	female	east_asian	2.9076800636689217	neutral	034	sub-11	1.0	3.0	034_neutral	0.0		56.460631643258694	3.7665871480485293
5.0	32.90627921388568	pulse	1.0	t		24.0	female	east_asian	2.9076800636689217	neutral	034	sub-11	1.0	3.0	034_neutral	0.0		57.11073573788872	
5.0	33.60625304307405	pulse	1.0	t		24.0	female	east_asian	2.9076800636689217	neutral	034	sub-11	1.0	3.0	034_neutral	0.0		57.81070956707708	
5.0	34.30624619096989	pulse	1.0	t		24.0	female	east_asian	2.9076800636689217	neutral	034	sub-11	1.0	3.0	034_neutral	0.0		58.51070271497292	
5.0	35.006228472092516	pulse	1.0	t		24.0	female	east_asian	2.9076800636689217	neutral	034	sub-11	1.0	3.0	034_neutral	0.0		59.21068499609555	
5.0	35.706219205149864	pulse	1.0	t		24.0	female	east_asian	2.9076800636689217	neutral	034	sub-11	1.0	3.0	034_neutral	0.0		59.9106757291529	
6.0	36.02276226730419	face	0.0		145	20.0	female	white	3.9502586549940313	smiling	091	sub-11	1.0	3.0	091_smiling	0.0		60.22721879130722	1.2333014675273262
6.0	36.406204504820835	pulse	0.0	t		20.0	female	white	3.9502586549940313	smiling	091	sub-11	1.0	3.0	091_smiling	0.0		60.61066102882387	
6.0	37.10618014513784	pulse	0.0	t		20.0	female	white	3.9502586549940313	smiling	091	sub-11	1.0	3.0	091_smiling	0.0		61.31063666914088	
6.0	37.256063734831514	fix	1.0		445	20.0	female	white	3.9502586549940313	smiling	091	sub-11	1.0	3.0	091_smiling	0.0		61.46052025883455	3.766596807402493
6.0	37.80621102488476	pulse	1.0	t		20.0	female	white	3.9502586549940313	smiling	091	sub-11	1.0	3.0	091_smiling	0.0		62.010667548887795	
6.0	38.506155574156764	pulse	1.0	t		20.0	female	white	3.9502586549940313	smiling	091	sub-11	1.0	3.0	091_smiling	0.0		62.7106120981598	
6.0	39.20615747584179	pulse	1.0	t		20.0	female	white	3.9502586549940313	smiling	091	sub-11	1.0	3.0	091_smiling	0.0		63.41061399984483	
6.0	39.90612768277242	pulse	1.0	t		20.0	female	white	3.9502586549940313	smiling	091	sub-11	1.0	3.0	091_smiling	0.0		64.11058420677546	
6.0	40.60615343098743	pulse	1.0	t		20.0	female	white	3.9502586549940313	smiling	091	sub-11	1.0	3.0	091_smiling	0.0		64.81060995499047	
7.0	41.02266054223401	face	0.0		145	31.0	female	white	2.1822522881018704	neutral	102	sub-11	1.0	3.0	102_neutral	0.0		65.22711706623704	1.2333093157526491
7.0	41.306104017355665	pulse	0.0	t		31.0	female	white	2.1822522881018704	neutral	102	sub-11	1.0	3.0	102_neutral	0.0		65.5105605413587	
7.0	42.0060914300102	pulse	0.0	t		31.0	female	white	2.1822522881018704	neutral	102	sub-11	1.0	3.0	102_neutral	0.0		66.21054795401324	
7.0	42.255969857986656	fix	1.0		444	31.0	female	white	2.1822522881018704	neutral	102	sub-11	1.0	3.0	102_neutral	0.0		66.46042638198969	3.766586242484209
7.0	42.70607733339057	pulse	1.0	t		31.0	female	white	2.1822522881018704	neutral	102	sub-11	1.0	3.0	102_neutral	0.0		66.9105338573936	
7.0	43.40604723846627	pulse	1.0	t		31.0	female	white	2.1822522881018704	neutral	102	sub-11	1.0	3.0	102_neutral	0.0		67.6105037624693	
7.0	44.1060428012006	pulse	1.0	t		31.0	female	white	2.1822522881018704	neutral	102	sub-11	1.0	3.0	102_neutral	0.0		68.31049932520364	
7.0	44.80603051571006	pulse	1.0	t		31.0	female	white	2.1822522881018704	neutral	102	sub-11	1.0	3.0	102_neutral	0.0		69.0104870397131	
7.0	45.50601249497822	pulse	1.0	t		31.0	female	white	2.1822522881018704	neutral	102	sub-11	1.0	3.0	102_neutral	0.0		69.71046901898126	
8.0	46.022556100470865	face	0.0		145	25.0	female	west_asian	2.6756864305610826	smiling	064	sub-11	1.0	3.0	064_smiling	0.0		70.2270126244739	1.2333093157521944
8.0	46.206004435454815	pulse	0.0	t		25.0	female	west_asian	2.6756864305610826	smiling	064	sub-11	1.0	3.0	064_smiling	0.0		70.41046095945785	
8.0	46.90599335738307	pulse	0.0	t		25.0	female	west_asian	2.6756864305610826	smiling	064	sub-11	1.0	3.0	064_smiling	0.0		71.1104498813861	
8.0	47.25586541622306	fix	1.0		445	25.0	female	west_asian	2.6756864305610826	smiling	064	sub-11	1.0	3.0	064_smiling	0.0		71.4603219402261	3.766586846194059
8.0	47.60597322366766	pulse	1.0	t		25.0	female	west_asian	2.6756864305610826	smiling	064	sub-11	1.0	3.0	064_smiling	0.0		71.8104297476707	
8.0	48.30595912704803	pulse	1.0	t		25.0	female	west_asian	2.6756864305610826	smiling	064	sub-11	1.0	3.0	064_smiling	0.0		72.51041565105106	
8.0	49.00594261559036	pulse	1.0	t		25.0	female	west_asian	2.6756864305610826	smiling	064	sub-11	1.0	3.0	064_smiling	0.0		73.21039913959339	
8.0	49.70592610413223	pulse	1.0	t		25.0	female	west_asian	2.6756864305610826	smiling	064	sub-11	1.0	3.0	064_smiling	0.0		73.91038262813527	
8.0	50.40591049823888	pulse	1.0	t		25.0	female	west_asian	2.6756864305610826	smiling	064	sub-11	1.0	3.0	064_smiling	0.0		74.61036702224192	
9.0	51.02245226241712	face	0.0		145	31.0	male	west_asian	1.9538400318344609	smiling	070	sub-11	1.0	3.0	070_smiling	0.0		75.22690878642015	1.2333105231714399
9.0	51.10590364613472	pulse	0.0	t		31.0	male	west_asian	1.9538400318344609	smiling	070	sub-11	1.0	3.0	070_smiling	0.0		75.31036017013776	
9.0	51.80588079572544	pulse	0.0	t		31.0	male	west_asian	1.9538400318344609	smiling	070	sub-11	1.0	3.0	070_smiling	0.0		76.01033731972848	
9.0	52.25576278558856	fix	1.0		444	31.0	male	west_asian	1.9538400318344609	smiling	070	sub-11	1.0	3.0	070_smiling	0.0		76.4602193095916	3.766564508938245
9.0	52.505872434347566	pulse	1.0	t		31.0	male	west_asian	1.9538400318344609	smiling	070	sub-11	1.0	3.0	070_smiling	0.0		76.7103289583506	
9.0	53.20586678966265	pulse	1.0	t		31.0	male	west_asian	1.9538400318344609	smiling	070	sub-11	1.0	3.0	070_smiling	0.0		77.41032331366569	
9.0	53.9058379021576	pulse	1.0	t		31.0	male	west_asian	1.9538400318344609	smiling	070	sub-11	1.0	3.0	070_smiling	0.0		78.11029442616064	
9.0	54.605857613276385	pulse	1.0	t		31.0	male	west_asian	1.9538400318344609	smiling	070	sub-11	1.0	3.0	070_smiling	0.0		78.81031413727942	
9.0	55.30581363303099	pulse	1.0	t		31.0	male	west_asian	1.9538400318344609	smiling	070	sub-11	1.0	3.0	070_smiling	0.0		79.51027015703403	
10.0	56.022327294526804	face	0.0		146	32.0	male	white	2.389176283326701	neutral	092	sub-11	1.0	3.0	092_neutral	0.0		80.22678381852984	1.2333325585727835
10.0	56.0086430086958	pulse	0.0	t		32.0	male	white	2.389176283326701	neutral	092	sub-11	1.0	3.0	092_neutral	0.0		80.21309953269883	
10.0	56.705786949065896	pulse	0.0	t		32.0	male	white	2.389176283326701	neutral	092	sub-11	1.0	3.0	092_neutral	0.0		80.91024347306893	
10.0	57.25565985309959	fix	1.0		444	32.0	male	white	2.389176283326701	neutral	092	sub-11	1.0	3.0	092_neutral	0.0		81.46011637710262	3.766586544339134
10.0	57.40577738026877	pulse	1.0	t		32.0	male	white	2.389176283326701	neutral	092	sub-11	1.0	3.0	092_neutral	0.0		81.61023390427181	
10.0	58.10575845397216	pulse	1.0	t		32.0	male	white	2.389176283326701	neutral	092	sub-11	1.0	3.0	092_neutral	0.0		82.31021497797519	
10.0	58.80573499985394	pulse	1.0	t		32.0	male	white	2.389176283326701	neutral	092	sub-11	1.0	3.0	092_neutral	0.0		83.01019152385697	
10.0	59.505718488395814	pulse	1.0	t		32.0	male	white	2.389176283326701	neutral	092	sub-11	1.0	3.0	092_neutral	0.0		83.71017501239885	
10.0	60.20570952330809	pulse	1.0	t		32.0	male	white	2.389176283326701	neutral	092	sub-11	1.0	3.0	092_neutral	0.0		84.41016604731112	
10.0	60.90569270999504	pulse	1.0	t		32.0	male	white	2.389176283326701	neutral	092	sub-11	1.0	3.0	092_neutral	0.0		85.11014923399807	
11.0	61.02224639743872	face	0.0		146	26.0	female	white	4.854755272582572	smiling	027	sub-11	1.0	3.0	027_smiling	0.0		85.22670292144176	1.2333099194620445
11.0	61.605684650472085	pulse	0.0	t		26.0	female	white	4.854755272582572	smiling	027	sub-11	1.0	3.0	027_smiling	0.0		85.81014117447512	
11.0	62.255556316900766	fix	1.0		444	26.0	female	white	4.854755272582572	smiling	027	sub-11	1.0	3.0	027_smiling	0.0		86.4600128409038	3.766593486999227
11.0	62.305669346433206	pulse	1.0	t		26.0	female	white	4.854755272582572	smiling	027	sub-11	1.0	3.0	027_smiling	0.0		86.51012587043624	
11.0	63.00565343868493	pulse	1.0	t		26.0	female	white	4.854755272582572	smiling	027	sub-11	1.0	3.0	027_smiling	0.0		87.21010996268797	
11.0	63.70563904021037	pulse	1.0	t		26.0	female	white	4.854755272582572	smiling	027	sub-11	1.0	3.0	027_smiling	0.0		87.9100955642134	
11.0	64.40561951020436	pulse	1.0	t		26.0	female	white	4.854755272582572	smiling	027	sub-11	1.0	3.0	027_smiling	0.0		88.6100760342074	
11.0	65.10561024326171	pulse	1.0	t		26.0	female	white	4.854755272582572	smiling	027	sub-11	1.0	3.0	027_smiling	0.0		89.31006676726474	
11.0	65.80559433551343	pulse	1.0	t		26.0	female	white	4.854755272582572	smiling	027	sub-11	1.0	3.0	027_smiling	0.0		90.01005085951647	
12.0	66.02214980389999	face	0.0		145	47.0	male	east_asian	2.171110226820533	smiling	024	sub-11	1.0	3.0	024_smiling	0.0		90.22660632790303	1.2333026749470264
12.0	66.50558627599003	pulse	0.0	t		47.0	male	east_asian	2.171110226820533	smiling	024	sub-11	1.0	3.0	024_smiling	0.0		90.71004279999306	
12.0	67.20556191630749	pulse	0.0	t		47.0	male	east_asian	2.171110226820533	smiling	024	sub-11	1.0	3.0	024_smiling	0.0		91.41001844031052	
12.0	67.25545247884702	fix	1.0		445	47.0	male	east_asian	2.171110226820533	smiling	024	sub-11	1.0	3.0	024_smiling	0.0		91.45990900285005	3.7665871480485293
12.0	67.90555778089629	pulse	1.0	t		47.0	male	east_asian	2.171110226820533	smiling	024	sub-11	1.0	3.0	024_smiling	0.0		92.11001430489932	
12.0	68.60553976016445	pulse	1.0	t		47.0	male	east_asian	2.171110226820533	smiling	024	sub-11	1.0	3.0	024_smiling	0.0		92.80999628416748	
12.0	69.3055217394326	pulse	1.0	t		47.0	male	east_asian	2.171110226820533	smiling	024	sub-11	1.0	3.0	024_smiling	0.0		93.50997826343564	
12.0	70.00554567651852	pulse	1.0	t		47.0	male	east_asian	2.171110226820533	smiling	024	sub-11	1.0	3.0	024_smiling	0.0		94.21000220052156	
12.0	70.70548449054922	pulse	1.0	t		47.0	male	east_asian	2.171110226820533	smiling	024	sub-11	1.0	3.0	024_smiling	0.0		94.90994101455226	
13.0	71.02203962689555	face	0.0		145	25.0	female	black	3.858336649423	smiling	126	sub-11	1.0	3.0	126_smiling	1.0	attractiveness	95.22649615089858	1.23331112688129
13.0	71.40549152376616	pulse	0.0	t		25.0	female	black	3.858336649423	smiling	126	sub-11	1.0	3.0	126_smiling	1.0	attractiveness	95.6099480477692	
13.0	72.10546565480945	pulse	0.0	t		25.0	female	black	3.858336649423	smiling	126	sub-11	1.0	3.0	126_smiling	1.0	attractiveness	96.30992217881249	
13.0	72.25535075377684	fix	1.0		177	25.0	female	black	3.858336649423	smiling	126	sub-11	1.0	3.0	126_smiling	1.0	attractiveness	96.45980727777987	1.5083361732840785
13.0	72.80545186004474	pulse	1.0	t		25.0	female	black	3.858336649423	smiling	126	sub-11	1.0	3.0	126_smiling	1.0	attractiveness	97.00990838404778	
13.0	73.50542931149039	pulse	1.0	t		25.0	female	black	3.858336649423	smiling	126	sub-11	1.0	3.0	126_smiling	1.0	attractiveness	97.70988583549342	
13.0	73.76368692706092	rating	2.0		294	25.0	female	black	3.858336649423	smiling	126	sub-11	1.0	3.0	126_smiling	1.0	attractiveness	97.96814345106395	2.4915793073701025
13.0	74.20019010815759	pulse	2.0	t		25.0	female	black	3.858336649423	smiling	126	sub-11	1.0	3.0	126_smiling	1.0	attractiveness	98.40464663216062	
13.0	74.90019080242382	pulse	2.0	t		25.0	female	black	3.858336649423	smiling	126	sub-11	1.0	3.0	126_smiling	1.0	attractiveness	99.10464732642686	
13.0	75.24708144133274	response	2.0	y		25.0	female	black	3.858336649423	smiling	126	sub-11	1.0	3.0	126_smiling	1.0	attractiveness	99.45153796533577	
13.0	75.605379475262	pulse	2.0	t		25.0	female	black	3.858336649423	smiling	126	sub-11	1.0	3.0	126_smiling	1.0	attractiveness	99.80983599926503	
13.0	76.25526623443102	fix	3.0		443	25.0	female	black	3.858336649423	smiling	126	sub-11	1.0	3.0	126_smiling	1.0	attractiveness	100.45972275843405	3.7665877517579247
13.0	76.30537926396346	pulse	3.0	t		25.0	female	black	3.858336649423	smiling	126	sub-11	1.0	3.0	126_smiling	1.0	attractiveness	100.5098357879665	
13.0	77.00536275250533	pulse	3.0	t		25.0	female	black	3.858336649423	smiling	126	sub-11	1.0	3.0	126_smiling	1.0	attractiveness	101.20981927650837	
13.0	77.70535197628897	pulse	3.0	t		25.0	female	black	3.858336649423	smiling	126	sub-11	1.0	3.0	126_smiling	1.0	attractiveness	101.909808500292	
13.0	78.40533244628296	pulse	3.0	t		25.0	female	black	3.858336649423	smiling	126	sub-11	1.0	3.0	126_smiling	1.0	attractiveness	102.60978897028599	
13.0	79.10531895337317	pulse	3.0	t		25.0	female	black	3.858336649423	smiling	126	sub-11	1.0	3.0	126_smiling	1.0	attractiveness	103.3097754773762	
13.0	79.80529670667374	pulse	3.0	t		25.0	female	black	3.858336649423	smiling	126	sub-11	1.0	3.0	126_smiling	1.0	attractiveness	104.00975323067678	
14.0	80.02185398618894	face	0.0		145	40.0	male	black	2.408674890569041	neutral	061	sub-11	1.0	3.0	061_neutral	0.0		104.22631051019198	1.2333105231718946
14.0	80.50529347682732	pulse	0.0	t		40.0	male	black	2.408674890569041	neutral	061	sub-11	1.0	3.0	061_neutral	0.0		104.70975000083035	
14.0	81.20528119133678	pulse	0.0	t		40.0	male	black	2.408674890569041	neutral	061	sub-11	1.0	3.0	061_neutral	0.0		105.40973771533982	
14.0	81.25516450936084	fix	1.0		445	40.0	male	black	2.408674890569041	neutral	061	sub-11	1.0	3.0	061_neutral	0.0		105.45962103336387	3.766585940629284
14.0	81.90526800028147	pulse	1.0	t		40.0	male	black	2.408674890569041	neutral	061	sub-11	1.0	3.0	061_neutral	0.0		106.1097245242845	
14.0	82.60524726285621	pulse	1.0	t		40.0	male	black	2.408674890569041	neutral	061	sub-11	1.0	3.0	061_neutral	0.0		106.80970378685925	
14.0	83.3052328643821	pulse	1.0	t		40.0	male	black	2.408674890569041	neutral	061	sub-11	1.0	3.0	061_neutral	0.0		107.50968938838514	
14.0	84.00522571042302	pulse	1.0	t		40.0	male	black	2.408674890569041	neutral	061	sub-11	1.0	3.0	061_neutral	0.0		108.20968223442605	
14.0	84.70520648227193	pulse	1.0	t		40.0	male	black	2.408674890569041	neutral	061	sub-11	1.0	3.0	061_neutral	0.0		108.90966300627497	
15.0	85.02175044999012	face	0.0		145	37.0	male	white	3.898925586947871	neutral	101	sub-11	1.0	3.0	101_neutral	0.0		109.22620697399316	1.2333081083334037
15.0	85.40519510234571	pulse	0.0	t		37.0	male	white	3.898925586947871	neutral	101	sub-11	1.0	3.0	101_neutral	0.0		109.60965162634875	
15.0	86.10517587419417	pulse	0.0	t		37.0	male	white	3.898925586947871	neutral	101	sub-11	1.0	3.0	101_neutral	0.0		110.30963239819721	
15.0	86.25505855832353	fix	1.0		444	37.0	male	white	3.898925586947871	neutral	101	sub-11	1.0	3.0	101_neutral	0.0		110.45951508232656	3.7665886573227
15.0	86.80516419241349	pulse	1.0	t		37.0	male	white	3.898925586947871	neutral	101	sub-11	1.0	3.0	101_neutral	0.0		111.00962071641652	
15.0	87.50514436055255	pulse	1.0	t		37.0	male	white	3.898925586947871	neutral	101	sub-11	1.0	3.0	101_neutral	0.0		111.70960088455558	
15.0	88.20513720659346	pulse	1.0	t		37.0	male	white	3.898925586947871	neutral	101	sub-11	1.0	3.0	101_neutral	0.0		112.4095937305965	
15.0	88.90511375247479	pulse	1.0	t		37.0	male	white	3.898925586947871	neutral	101	sub-11	1.0	3.0	101_neutral	0.0		113.10957027647783	
15.0	89.60510478738706	pulse	1.0	t		37.0	male	white	3.898925586947871	neutral	101	sub-11	1.0	3.0	101_neutral	0.0		113.8095613113901	
16.0	90.02164721564623	face	0.0		145	24.0	female	east_asian	2.9076800636689217	smiling	034	sub-11	1.0	3.0	034_smiling	0.0		114.22610373964926	1.233311428736215
16.0	90.30509280375145	pulse	0.0	t		24.0	female	east_asian	2.9076800636689217	smiling	034	sub-11	1.0	3.0	034_smiling	0.0		114.50954932775448	
16.0	91.00507176447127	pulse	0.0	t		24.0	female	east_asian	2.9076800636689217	smiling	034	sub-11	1.0	3.0	034_smiling	0.0		115.2095282884743	
16.0	91.25495864438244	fix	1.0		444	24.0	female	east_asian	2.9076800636689217	smiling	034	sub-11	1.0	3.0	034_smiling	0.0		115.45941516838548	3.7665847332100384
16.0	91.70506189381922	pulse	1.0	t		24.0	female	east_asian	2.9076800636689217	smiling	034	sub-11	1.0	3.0	034_smiling	0.0		115.90951841782226	
16.0	92.40504598607095	pulse	1.0	t		24.0	female	east_asian	2.9076800636689217	smiling	034	sub-11	1.0	3.0	034_smiling	0.0		116.60950251007398	
16.0	93.10503279501563	pulse	1.0	t		24.0	female	east_asian	2.9076800636689217	smiling	034	sub-11	1.0	3.0	034_smiling	0.0		117.30948931901867	
16.0	93.80501386871947	pulse	1.0	t		24.0	female	east_asian	2.9076800636689217	smiling	034	sub-11	1.0	3.0	034_smiling	0.0		118.0094703927225	
16.0	94.50500399806697	pulse	1.0	t		24.0	female	east_asian	2.9076800636689217	smiling	034	sub-11	1.0	3.0	034_smiling	0.0		118.70946052207	
17.0	95.02154337759248	face	0.0		145	25.0	female	west_asian	2.6756864305610826	neutral	064	sub-11	1.0	3.0	064_neutral	1.0	dominance	119.22599990159551	1.2333120324456104
17.0	95.20499201443135	pulse	0.0	t		25.0	female	west_asian	2.6756864305610826	neutral	064	sub-11	1.0	3.0	064_neutral	1.0	dominance	119.40944853843439	
17.0	95.90497369184459	pulse	0.0	t		25.0	female	west_asian	2.6756864305610826	neutral	064	sub-11	1.0	3.0	064_neutral	1.0	dominance	120.10943021584762	
17.0	96.25485541003809	fix	1.0		177	25.0	female	west_asian	2.6756864305610826	neutral	064	sub-11	1.0	3.0	064_neutral	1.0	dominance	120.45931193404112	1.499969361737385
17.0	96.6049614063536	pulse	1.0	t		25.0	female	west_asian	2.6756864305610826	neutral	064	sub-11	1.0	3.0	064_neutral	1.0	dominance	120.80941793035663	
17.0	97.30494368747668	pulse	1.0	t		25.0	female	west_asian	2.6756864305610826	neutral	064	sub-11	1.0	3.0	064_neutral	1.0	dominance	121.50940021147971	
17.0	97.75482477177547	rating	2.0		294	25.0	female	west_asian	2.6756864305610826	neutral	064	sub-11	1.0	3.0	064_neutral	1.0	dominance	121.95928129577851	2.499948231900362
17.0	97.99980349252064	pulse	2.0	t		25.0	female	west_asian	2.6756864305610826	neutral	064	sub-11	1.0	3.0	064_neutral	1.0	dominance	122.20426001652368	
17.0	98.69968374671862	pulse	2.0	t		25.0	female	west_asian	2.6756864305610826	neutral	064	sub-11	1.0	3.0	064_neutral	1.0	dominance	122.90414027072165	
17.0	99.3996862521135	pulse	2.0	t		25.0	female	west_asian	2.6756864305610826	neutral	064	sub-11	1.0	3.0	064_neutral	1.0	dominance	123.60414277611653	
17.0	99.50488748211137	response	2.0	e		25.0	female	west_asian	2.6756864305610826	neutral	064	sub-11	1.0	3.0	064_neutral	1.0	dominance	123.7093440061144	
17.0	100.10488307503147	pulse	2.0	t		25.0	female	west_asian	2.6756864305610826	neutral	064	sub-11	1.0	3.0	064_neutral	1.0	dominance	124.3093395990345	
17.0	100.25477300367584	fix	3.0		444	25.0	female	west_asian	2.6756864305610826	neutral	064	sub-11	1.0	3.0	064_neutral	1.0	dominance	124.45922952767887	3.766585638774359
17.0	100.8048710913954	pulse	3.0	t		25.0	female	west_asian	2.6756864305610826	neutral	064	sub-11	1.0	3.0	064_neutral	1.0	dominance	125.00932761539843	
17.0	101.50485246695371	pulse	3.0	t		25.0	female	west_asian	2.6756864305610826	neutral	064	sub-11	1.0	3.0	064_neutral	1.0	dominance	125.70930899095674	
17.0	102.20484561484955	pulse	3.0	t		25.0	female	west_asian	2.6756864305610826	neutral	064	sub-11	1.0	3.0	064_neutral	1.0	dominance	126.40930213885258	
17.0	102.90483242379469	pulse	3.0	t		25.0	female	west_asian	2.6756864305610826	neutral	064	sub-11	1.0	3.0	064_neutral	1.0	dominance	127.10928894779772	
17.0	103.60480957338586	pulse	3.0	t		25.0	female	west_asian	2.6756864305610826	neutral	064	sub-11	1.0	3.0	064_neutral	1.0	dominance	127.8092660973889	
18.0	104.0213586424502	face	0.0		145	34.0	male	white	2.651014723438122	neutral	121	sub-11	1.0	3.0	121_neutral	0.0		128.22581516645323	1.2333099194624992
18.0	104.30481690845772	pulse	0.0	t		34.0	male	white	2.651014723438122	neutral	121	sub-11	1.0	3.0	121_neutral	0.0		128.50927343246076	
18.0	105.00478681353343	pulse	0.0	t		34.0	male	white	2.651014723438122	neutral	121	sub-11	1.0	3.0	121_neutral	0.0		129.20924333753646	
18.0	105.2546685619127	fix	1.0		444	34.0	male	white	2.651014723438122	neutral	121	sub-11	1.0	3.0	121_neutral	0.0		129.45912508591573	3.7665865443386792
18.0	105.70477362247811	pulse	1.0	t		34.0	male	white	2.651014723438122	neutral	121	sub-11	1.0	3.0	121_neutral	0.0		129.90923014648115	
18.0	106.40475529989135	pulse	1.0	t		34.0	male	white	2.651014723438122	neutral	121	sub-11	1.0	3.0	121_neutral	0.0		130.60921182389438	
18.0	107.10473939214307	pulse	1.0	t		34.0	male	white	2.651014723438122	neutral	121	sub-11	1.0	3.0	121_neutral	0.0		131.3091959161461	
18.0	107.80473284189384	pulse	1.0	t		34.0	male	white	2.651014723438122	neutral	121	sub-11	1.0	3.0	121_neutral	0.0		132.00918936589687	
18.0	108.50473142317605	pulse	1.0	t		34.0	male	white	2.651014723438122	neutral	121	sub-11	1.0	3.0	121_neutral	0.0		132.7091879471791	
19.0	109.02125510625137	face	0.0		145	24.0	female	black	3.0955033824114606	smiling	099	sub-11	1.0	3.0	099_smiling	0.0		133.2257116302544	1.23331112688129
19.0	109.20472034510476	pulse	0.0	t		24.0	female	black	3.0955033824114606	smiling	099	sub-11	1.0	3.0	099_smiling	0.0		133.4091768691078	
19.0	109.90467847784294	pulse	0.0	t		24.0	female	black	3.0955033824114606	smiling	099	sub-11	1.0	3.0	099_smiling	0.0		134.10913500184597	
19.0	110.25456623313266	fix	1.0		444	24.0	female	black	3.0955033824114606	smiling	099	sub-11	1.0	3.0	099_smiling	0.0		134.4590227571357	3.7665883554682296
19.0	110.60467162573877	pulse	1.0	t		24.0	female	black	3.0955033824114606	smiling	099	sub-11	1.0	3.0	099_smiling	0.0		134.8091281497418	
19.0	111.30465481242618	pulse	1.0	t		24.0	female	black	3.0955033824114606	smiling	099	sub-11	1.0	3.0	099_smiling	0.0		135.5091113364292	
19.0	112.00464977145066	pulse	1.0	t		24.0	female	black	3.0955033824114606	smiling	099	sub-11	1.0	3.0	099_smiling	0.0		136.2091062954537	
19.0	112.70463205257374	pulse	1.0	t		24.0	female	black	3.0955033824114606	smiling	099	sub-11	1.0	3.0	099_smiling	0.0		136.90908857657678	
19.0	113.4046070891809	pulse	1.0	t		24.0	female	black	3.0955033824114606	smiling	099	sub-11	1.0	3.0	099_smiling	0.0		137.60906361318393	
20.0	114.0211545886009	face	0.0		145	26.0	male	white	2.7966573816155993	smiling	117	sub-11	1.0	3.0	117_smiling	0.0		138.22561111260393	1.2333075046235535
20.0	114.10460174635091	pulse	0.0	t		26.0	male	white	2.7966573816155993	smiling	117	sub-11	1.0	3.0	117_smiling	0.0		138.30905827035394	
20.0	114.8045816126355	pulse	0.0	t		26.0	male	white	2.7966573816155993	smiling	117	sub-11	1.0	3.0	117_smiling	0.0		139.00903813663854	
20.0	115.25446209322445	fix	1.0		1185	26.0	male	white	2.7966573816155993	smiling	117	sub-11	1.0	3.0	117_smiling	0.0		139.45891861722748	10.016458633364437
20.0	115.50457264754732	pulse	1.0	t		26.0	male	white	2.7966573816155993	smiling	117	sub-11	1.0	3.0	117_smiling	0.0		139.70902917155036	
20.0	116.2045745492328	pulse	1.0	t		26.0	male	white	2.7966573816155993	smiling	117	sub-11	1.0	3.0	117_smiling	0.0		140.40903107323584	
20.0	116.90453751164796	pulse	1.0	t		26.0	male	white	2.7966573816155993	smiling	117	sub-11	1.0	3.0	117_smiling	0.0		141.108994035651	
20.0	117.60452462244757	pulse	1.0	t		26.0	male	white	2.7966573816155993	smiling	117	sub-11	1.0	3.0	117_smiling	0.0		141.8089811464506	
20.0	118.30451294066688	pulse	1.0	t		26.0	male	white	2.7966573816155993	smiling	117	sub-11	1.0	3.0	117_smiling	0.0		142.50896946466992	
20.0	119.00449159953178	pulse	1.0	t		26.0	male	white	2.7966573816155993	smiling	117	sub-11	1.0	3.0	117_smiling	0.0		143.2089481235348	
20.0	119.70448082331541	pulse	1.0	t		26.0	male	white	2.7966573816155993	smiling	117	sub-11	1.0	3.0	117_smiling	0.0		143.90893734731844	
20.0	120.40446491556668	pulse	1.0	t		26.0	male	white	2.7966573816155993	smiling	117	sub-11	1.0	3.0	117_smiling	0.0		144.6089214395697	
20.0	121.10445172451182	pulse	1.0	t		26.0	male	white	2.7966573816155993	smiling	117	sub-11	1.0	3.0	117_smiling	0.0		145.30890824851485	
20.0	121.80444004273068	pulse	1.0	t		26.0	male	white	2.7966573816155993	smiling	117	sub-11	1.0	3.0	117_smiling	0.0		146.0088965667337	
20.0	122.50440934409698	pulse	1.0	t		26.0	male	white	2.7966573816155993	smiling	117	sub-11	1.0	3.0	117_smiling	0.0		146.70886586810002	
20.0	123.20441305691111	pulse	1.0	t		26.0	male	white	2.7966573816155993	smiling	117	sub-11	1.0	3.0	117_smiling	0.0		147.40886958091414	
20.0	123.90439292319525	pulse	1.0	t		26.0	male	white	2.7966573816155993	smiling	117	sub-11	1.0	3.0	117_smiling	0.0		148.10884944719828	
20.0	124.60438244883335	pulse	1.0	t		26.0	male	white	2.7966573816155993	smiling	117	sub-11	1.0	3.0	117_smiling	0.0		148.80883897283638	
21.0	125.27092072658888	face	0.0		145	27.0	female	white	4.181058495821727	neutral	039	sub-11	1.0	3.0	039_neutral	0.0		149.47537725059192	1.233311428736215
21.0	125.3043731818907	pulse	0.0	t		27.0	female	white	4.181058495821727	neutral	039	sub-11	1.0	3.0	039_neutral	0.0		149.50882970589373	
21.0	126.00438806333295	pulse	0.0	t		27.0	female	white	4.181058495821727	neutral	039	sub-11	1.0	3.0	039_neutral	0.0		150.208844587336	
21.0	126.5042321553251	fix	1.0		443	27.0	female	white	4.181058495821727	neutral	039	sub-11	1.0	3.0	039_neutral	0.0		150.70868867932813	3.7665853369194338
21.0	126.70434106453922	pulse	1.0	t		27.0	female	white	4.181058495821727	neutral	039	sub-11	1.0	3.0	039_neutral	0.0		150.90879758854226	
21.0	127.40431911969472	pulse	1.0	t		27.0	female	white	4.181058495821727	neutral	039	sub-11	1.0	3.0	039_neutral	0.0		151.60877564369775	
21.0	128.104312267591	pulse	1.0	t		27.0	female	white	4.181058495821727	neutral	039	sub-11	1.0	3.0	039_neutral	0.0		152.30876879159405	
21.0	128.8042933412944	pulse	1.0	t		27.0	female	white	4.181058495821727	neutral	039	sub-11	1.0	3.0	039_neutral	0.0		153.00874986529743	
21.0	129.50427532056256	pulse	1.0	t		27.0	female	white	4.181058495821727	neutral	039	sub-11	1.0	3.0	039_neutral	0.0		153.7087318445656	
21.0	130.2042684684584	pulse	1.0	t		27.0	female	white	4.181058495821727	neutral	039	sub-11	1.0	3.0	039_neutral	0.0		154.40872499246143	
22.0	130.27081749224453	face	0.0		146	40.0	male	black	2.408674890569041	smiling	061	sub-11	1.0	3.0	061_smiling	0.0		154.47527401624757	1.233309013897724
22.0	130.90425316441952	pulse	0.0	t		40.0	male	black	2.408674890569041	smiling	061	sub-11	1.0	3.0	061_smiling	0.0		155.10870968842255	
22.0	131.50412650614226	fix	1.0		443	40.0	male	black	2.408674890569041	smiling	061	sub-11	1.0	3.0	061_smiling	0.0		155.7085830301453	3.7665880536133045
22.0	131.6042411807839	pulse	1.0	t		40.0	male	black	2.408674890569041	smiling	061	sub-11	1.0	3.0	061_smiling	0.0		155.80869770478694	
22.0	132.30422376376146	pulse	1.0	t		40.0	male	black	2.408674890569041	smiling	061	sub-11	1.0	3.0	061_smiling	0.0		156.5086802877645	
22.0	133.00420845972258	pulse	1.0	t		40.0	male	black	2.408674890569041	smiling	061	sub-11	1.0	3.0	061_smiling	0.0		157.2086649837256	
22.0	133.70419104270013	pulse	1.0	t		40.0	male	black	2.408674890569041	smiling	061	sub-11	1.0	3.0	061_smiling	0.0		157.90864756670317	
22.0	134.40417362567769	pulse	1.0	t		40.0	male	black	2.408674890569041	smiling	061	sub-11	1.0	3.0	061_smiling	0.0		158.60863014968072	
22.0	135.1041682828477	pulse	1.0	t		40.0	male	black	2.408674890569041	smiling	061	sub-11	1.0	3.0	061_smiling	0.0		159.30862480685073	
23.0	135.27071455975556	face	0.0		146	40.0	female	west_asian	1.5777954635893354	smiling	038	sub-11	1.0	3.0	038_smiling	0.0		159.4751710837586	1.2333165602676672
23.0	135.80415509179284	pulse	0.0	t		40.0	female	west_asian	1.5777954635893354	smiling	038	sub-11	1.0	3.0	038_smiling	0.0		160.00861161579587	
23.0	136.50403112002323	fix	1.0		444	40.0	female	west_asian	1.5777954635893354	smiling	038	sub-11	1.0	3.0	038_smiling	0.0		160.70848764402626	3.7582574646430658
23.0	136.51145886126506	pulse	1.0	t		40.0	female	west_asian	1.5777954635893354	smiling	038	sub-11	1.0	3.0	038_smiling	0.0		160.7159153852681	
23.0	137.2041353504883	pulse	1.0	t		40.0	female	west_asian	1.5777954635893354	smiling	038	sub-11	1.0	3.0	038_smiling	0.0		161.40859187449132	
23.0	137.90410736854756	pulse	1.0	t		40.0	female	west_asian	1.5777954635893354	smiling	038	sub-11	1.0	3.0	038_smiling	0.0		162.1085638925506	
23.0	138.60408753668662	pulse	1.0	t		40.0	female	west_asian	1.5777954635893354	smiling	038	sub-11	1.0	3.0	038_smiling	0.0		162.80854406068966	
23.0	139.3040867216787	pulse	1.0	t		40.0	female	west_asian	1.5777954635893354	smiling	038	sub-11	1.0	3.0	038_smiling	0.0		163.50854324568172	
23.0	140.00409828271813	pulse	1.0	t		40.0	female	west_asian	1.5777954635893354	smiling	038	sub-11	1.0	3.0	038_smiling	0.0		164.20855480672117	
24.0	140.2622885846663	face	0.0		146	40.0	female	west_asian	1.5777954635893354	neutral	038	sub-11	1.0	3.0	038_neutral	0.0		164.46674510866933	1.241632056497565
24.0	140.70405158577933	pulse	0.0	t		40.0	female	west_asian	1.5777954635893354	neutral	038	sub-11	1.0	3.0	038_neutral	0.0		164.90850810978236	
24.0	141.4040344706118	pulse	0.0	t		40.0	female	west_asian	1.5777954635893354	neutral	038	sub-11	1.0	3.0	038_neutral	0.0		165.60849099461484	
24.0	141.50392064116386	fix	1.0		444	40.0	female	west_asian	1.5777954635893354	neutral	038	sub-11	1.0	3.0	038_neutral	0.0		165.7083771651669	3.7665871480485293
24.0	142.10402369439498	pulse	1.0	t		40.0	female	west_asian	1.5777954635893354	neutral	038	sub-11	1.0	3.0	038_neutral	0.0		166.30848021839802	
24.0	142.80401714414575	pulse	1.0	t		40.0	female	west_asian	1.5777954635893354	neutral	038	sub-11	1.0	3.0	038_neutral	0.0		167.00847366814878	
24.0	143.50398644551206	pulse	1.0	t		40.0	female	west_asian	1.5777954635893354	neutral	038	sub-11	1.0	3.0	038_neutral	0.0		167.7084429695151	
24.0	144.2039747637309	pulse	1.0	t		40.0	female	west_asian	1.5777954635893354	neutral	038	sub-11	1.0	3.0	038_neutral	0.0		168.40843128773395	
24.0	144.90396549678826	pulse	1.0	t		40.0	female	west_asian	1.5777954635893354	neutral	038	sub-11	1.0	3.0	038_neutral	0.0		169.1084220207913	
25.0	145.2705077892124	face	0.0		145	19.0	male	white	2.243931555909272	neutral	130	sub-11	1.0	3.0	130_neutral	0.0		169.47496431321542	1.2333093157526491
25.0	145.60395381500712	pulse	0.0	t		19.0	male	white	2.243931555909272	neutral	130	sub-11	1.0	3.0	130_neutral	0.0		169.80841033901015	
25.0	146.3039400202424	pulse	0.0	t		19.0	male	white	2.243931555909272	neutral	130	sub-11	1.0	3.0	130_neutral	0.0		170.50839654424544	
25.0	146.50381710496504	fix	1.0		444	19.0	male	white	2.243931555909272	neutral	130	sub-11	1.0	3.0	130_neutral	0.0		170.70827362896807	3.7665826202264725
25.0	147.00392682918755	pulse	1.0	t		19.0	male	white	2.243931555909272	neutral	130	sub-11	1.0	3.0	130_neutral	0.0		171.20838335319058	
25.0	147.7039232974862	pulse	1.0	t		19.0	male	white	2.243931555909272	neutral	130	sub-11	1.0	3.0	130_neutral	0.0		171.90837982148923	
25.0	148.40388897659477	pulse	1.0	t		19.0	male	white	2.243931555909272	neutral	130	sub-11	1.0	3.0	130_neutral	0.0		172.6083455005978	
25.0	149.10387337070097	pulse	1.0	t		19.0	male	white	2.243931555909272	neutral	130	sub-11	1.0	3.0	130_neutral	0.0		173.308329894704	
25.0	149.80385384069496	pulse	1.0	t		19.0	male	white	2.243931555909272	neutral	130	sub-11	1.0	3.0	130_neutral	0.0		174.008310364698	
26.0	150.2703997251915	face	0.0		145	23.0	male	white	2.6275368085953046	smiling	141	sub-11	1.0	3.0	141_smiling	1.0	trustworthiness	174.47485624919454	1.2333153528488765
26.0	150.5038521201227	pulse	0.0	t		23.0	male	white	2.6275368085953046	smiling	141	sub-11	1.0	3.0	141_smiling	1.0	trustworthiness	174.70830864412574	
26.0	151.20384768285703	pulse	0.0	t		23.0	male	white	2.6275368085953046	smiling	141	sub-11	1.0	3.0	141_smiling	1.0	trustworthiness	175.40830420686007	
26.0	151.5037150780404	fix	1.0		177	23.0	male	white	2.6275368085953046	smiling	141	sub-11	1.0	3.0	141_smiling	1.0	trustworthiness	175.70817160204342	1.4999720784303463
26.0	151.90382905841534	pulse	1.0	t		23.0	male	white	2.6275368085953046	smiling	141	sub-11	1.0	3.0	141_smiling	1.0	trustworthiness	176.10828558241838	
26.0	152.60381647106988	pulse	1.0	t		23.0	male	white	2.6275368085953046	smiling	141	sub-11	1.0	3.0	141_smiling	1.0	trustworthiness	176.8082729950729	
26.0	153.00368715647073	rating	2.0		294	23.0	male	white	2.6275368085953046	smiling	141	sub-11	1.0	3.0	141_smiling	1.0	trustworthiness	177.20814368047377	2.4999467226261913
26.0	153.29857877701124	pulse	2.0	t		23.0	male	white	2.6275368085953046	smiling	141	sub-11	1.0	3.0	141_smiling	1.0	trustworthiness	177.50303530101428	
26.0	153.99854958765127	pulse	2.0	t		23.0	male	white	2.6275368085953046	smiling	141	sub-11	1.0	3.0	141_smiling	1.0	trustworthiness	178.2030061116543	
26.0	154.69852070014622	pulse	2.0	t		23.0	male	white	2.6275368085953046	smiling	141	sub-11	1.0	3.0	141_smiling	1.0	trustworthiness	178.90297722414925	
26.0	155.0037508478349	response	2.0	b		23.0	male	white	2.6275368085953046	smiling	141	sub-11	1.0	3.0	141_smiling	1.0	trustworthiness	179.20820737183794	
26.0	155.40374589741623	pulse	2.0	t		23.0	male	white	2.6275368085953046	smiling	141	sub-11	1.0	3.0	141_smiling	1.0	trustworthiness	179.60820242141926	
26.0	155.50363387909692	fix	3.0		444	23.0	male	white	2.6275368085953046	smiling	141	sub-11	1.0	3.0	141_smiling	1.0	trustworthiness	179.70809040309996	3.766584431355568
26.0	156.10373331007077	pulse	3.0	t		23.0	male	white	2.6275368085953046	smiling	141	sub-11	1.0	3.0	141_smiling	1.0	trustworthiness	180.3081898340738	
26.0	156.80371860974128	pulse	3.0	t		23.0	male	white	2.6275368085953046	smiling	141	sub-11	1.0	3.0	141_smiling	1.0	trustworthiness	181.00817513374432	
26.0	157.50370089086437	pulse	3.0	t		23.0	male	white	2.6275368085953046	smiling	141	sub-11	1.0	3.0	141_smiling	1.0	trustworthiness	181.7081574148674	
26.0	158.2036916239217	pulse	3.0	t		23.0	male	white	2.6275368085953046	smiling	141	sub-11	1.0	3.0	141_smiling	1.0	trustworthiness	182.40814814792475	
26.0	158.90367118835138	pulse	3.0	t		23.0	male	white	2.6275368085953046	smiling	141	sub-11	1.0	3.0	141_smiling	1.0	trustworthiness	183.10812771235442	
27.0	159.2702183104525	face	0.0		145	40.0	male	white	1.868682849184242	neutral	172	sub-11	1.0	3.0	172_neutral	0.0		183.47467483445553	1.23331112688129
27.0	159.60366192140873	pulse	0.0	t		40.0	male	white	1.868682849184242	neutral	172	sub-11	1.0	3.0	172_neutral	0.0		183.80811844541176	
27.0	160.303652956321	pulse	0.0	t		40.0	male	white	1.868682849184242	neutral	172	sub-11	1.0	3.0	172_neutral	0.0		184.50810948032404	
27.0	160.50352943733378	fix	1.0		444	40.0	male	white	1.868682849184242	neutral	172	sub-11	1.0	3.0	172_neutral	0.0		184.70798596133682	3.766585940629284
27.0	161.0036316151859	pulse	1.0	t		40.0	male	white	1.868682849184242	neutral	172	sub-11	1.0	3.0	172_neutral	0.0		185.20808813918893	
27.0	161.7036129907442	pulse	1.0	t		40.0	male	white	1.868682849184242	neutral	172	sub-11	1.0	3.0	172_neutral	0.0		185.90806951474724	
27.0	162.40360342194708	pulse	1.0	t		40.0	male	white	1.868682849184242	neutral	172	sub-11	1.0	3.0	172_neutral	0.0		186.60805994595012	
27.0	163.1035905327467	pulse	1.0	t		40.0	male	white	1.868682849184242	neutral	172	sub-11	1.0	3.0	172_neutral	0.0		187.30804705674973	
27.0	163.8035694934665	pulse	1.0	t		40.0	male	white	1.868682849184242	neutral	172	sub-11	1.0	3.0	172_neutral	0.0		188.00802601746955	
28.0	164.27011537796307	face	0.0		145	31.0	female	white	2.1822522881018704	smiling	102	sub-11	1.0	3.0	102_smiling	0.0		188.4745719019661	1.2333102213169695
28.0	164.50356264136235	pulse	0.0	t		31.0	female	white	2.1822522881018704	smiling	102	sub-11	1.0	3.0	102_smiling	0.0		188.70801916536539	
28.0	165.20354794103332	pulse	0.0	t		31.0	female	white	2.1822522881018704	smiling	102	sub-11	1.0	3.0	102_smiling	0.0		189.40800446503636	
28.0	165.50342559928004	fix	1.0		444	31.0	female	white	2.1822522881018704	smiling	102	sub-11	1.0	3.0	102_smiling	0.0		189.70788212328307	3.766586242484209
28.0	165.90353354255922	pulse	1.0	t		31.0	female	white	2.1822522881018704	smiling	102	sub-11	1.0	3.0	102_smiling	0.0		190.10799006656225	
28.0	166.60351280513396	pulse	1.0	t		31.0	female	white	2.1822522881018704	smiling	102	sub-11	1.0	3.0	102_smiling	0.0		190.807969329137	
28.0	167.30349629367583	pulse	1.0	t		31.0	female	white	2.1822522881018704	smiling	102	sub-11	1.0	3.0	102_smiling	0.0		191.50795281767887	
28.0	168.00351811777864	pulse	1.0	t		31.0	female	white	2.1822522881018704	smiling	102	sub-11	1.0	3.0	102_smiling	0.0		192.20797464178168	
28.0	168.70347172269476	pulse	1.0	t		31.0	female	white	2.1822522881018704	smiling	102	sub-11	1.0	3.0	102_smiling	0.0		192.9079282466978	
29.0	169.27001184176424	face	0.0		145	21.0	male	black	2.969757262236371	smiling	137	sub-11	1.0	3.0	137_smiling	1.0	trustworthiness	193.47446836576728	1.2333099194620445
29.0	169.40346155018779	pulse	0.0	t		21.0	male	black	2.969757262236371	smiling	137	sub-11	1.0	3.0	137_smiling	1.0	trustworthiness	193.60791807419082	
29.0	170.1034462461489	pulse	0.0	t		21.0	male	black	2.969757262236371	smiling	137	sub-11	1.0	3.0	137_smiling	1.0	trustworthiness	194.30790277015194	
29.0	170.5033217612263	fix	1.0		177	21.0	male	black	2.969757262236371	smiling	137	sub-11	1.0	3.0	137_smiling	1.0	trustworthiness	194.70777828522932	1.4999757006880827
29.0	170.8034330550936	pulse	1.0	t		21.0	male	black	2.969757262236371	smiling	137	sub-11	1.0	3.0	137_smiling	1.0	trustworthiness	195.00788957909663	
29.0	171.50341020468477	pulse	1.0	t		21.0	male	black	2.969757262236371	smiling	137	sub-11	1.0	3.0	137_smiling	1.0	trustworthiness	195.7078667286878	
29.0	172.00329746191437	rating	2.0		294	21.0	male	black	2.969757262236371	smiling	137	sub-11	1.0	3.0	137_smiling	1.0	trustworthiness	196.2077539859174	2.4999449114975505
29.0	172.19817734030312	pulse	2.0	t		21.0	male	black	2.969757262236371	smiling	137	sub-11	1.0	3.0	137_smiling	1.0	trustworthiness	196.40263386430615	
29.0	172.89815660287786	pulse	2.0	t		21.0	male	black	2.969757262236371	smiling	137	sub-11	1.0	3.0	137_smiling	1.0	trustworthiness	197.1026131268809	
29.0	173.59817389915816	pulse	2.0	t		21.0	male	black	2.969757262236371	smiling	137	sub-11	1.0	3.0	137_smiling	1.0	trustworthiness	197.8026304231612	
29.0	174.1783759668033	response	2.0	b		21.0	male	black	2.969757262236371	smiling	137	sub-11	1.0	3.0	137_smiling	1.0	trustworthiness	198.38283249080632	
29.0	174.29812690036488	pulse	2.0	t		21.0	male	black	2.969757262236371	smiling	137	sub-11	1.0	3.0	137_smiling	1.0	trustworthiness	198.5025834243679	
29.0	174.50324237341192	fix	3.0		444	21.0	male	black	2.969757262236371	smiling	137	sub-11	1.0	3.0	137_smiling	1.0	trustworthiness	198.70769889741496	3.766584733210493
29.0	175.00332462884717	pulse	3.0	t		21.0	male	black	2.969757262236371	smiling	137	sub-11	1.0	3.0	137_smiling	1.0	trustworthiness	199.2077811528502	
29.0	175.70332622867772	pulse	3.0	t		21.0	male	black	2.969757262236371	smiling	137	sub-11	1.0	3.0	137_smiling	1.0	trustworthiness	199.90778275268076	
29.0	176.40331152834824	pulse	3.0	t		21.0	male	black	2.969757262236371	smiling	137	sub-11	1.0	3.0	137_smiling	1.0	trustworthiness	200.60776805235128	
29.0	177.1033010539868	pulse	3.0	t		21.0	male	black	2.969757262236371	smiling	137	sub-11	1.0	3.0	137_smiling	1.0	trustworthiness	201.30775757798983	
29.0	177.80328786293148	pulse	3.0	t		21.0	male	black	2.969757262236371	smiling	137	sub-11	1.0	3.0	137_smiling	1.0	trustworthiness	202.00774438693452	
30.0	178.26982710662242	face	0.0		145	30.0	female	black	2.7345801830481498	smiling	062	sub-11	1.0	3.0	062_smiling	0.0		202.47428363062545	1.233309013897724
30.0	178.50327376631185	pulse	0.0	t		30.0	female	black	2.7345801830481498	smiling	062	sub-11	1.0	3.0	062_smiling	0.0		202.70773029031488	
30.0	179.20325333074152	pulse	0.0	t		30.0	female	black	2.7345801830481498	smiling	062	sub-11	1.0	3.0	062_smiling	0.0		203.40770985474455	
30.0	179.50313612052014	fix	1.0		444	30.0	female	black	2.7345801830481498	smiling	062	sub-11	1.0	3.0	062_smiling	0.0		203.70759264452317	3.7665871480485293
30.0	179.90324104525098	pulse	1.0	t		30.0	female	black	2.7345801830481498	smiling	062	sub-11	1.0	3.0	062_smiling	0.0		204.10769756925401	
30.0	180.60322453379285	pulse	1.0	t		30.0	female	black	2.7345801830481498	smiling	062	sub-11	1.0	3.0	062_smiling	0.0		204.8076810577959	
30.0	181.30321255015724	pulse	1.0	t		30.0	female	black	2.7345801830481498	smiling	062	sub-11	1.0	3.0	062_smiling	0.0		205.50766907416028	
30.0	182.00320298135966	pulse	1.0	t		30.0	female	black	2.7345801830481498	smiling	062	sub-11	1.0	3.0	062_smiling	0.0		206.2076595053627	
30.0	182.70318526248275	pulse	1.0	t		30.0	female	black	2.7345801830481498	smiling	062	sub-11	1.0	3.0	062_smiling	0.0		206.90764178648578	
31.0	183.26972326856867	face	0.0		145	27.0	female	white	3.504576203740549	smiling	144	sub-11	1.0	3.0	144_smiling	0.0		207.4741797925717	1.233310825026365
31.0	183.40317237328236	pulse	0.0	t		27.0	female	white	3.504576203740549	smiling	144	sub-11	1.0	3.0	144_smiling	0.0		207.6076288972854	
31.0	184.10315133400218	pulse	0.0	t		27.0	female	white	3.504576203740549	smiling	144	sub-11	1.0	3.0	144_smiling	0.0		208.3076078580052	
31.0	184.50303409359503	fix	1.0		444	27.0	female	white	3.504576203740549	smiling	144	sub-11	1.0	3.0	144_smiling	0.0		208.70749061759807	3.7665856387748136
31.0	184.8031411614952	pulse	1.0	t		27.0	female	white	3.504576203740549	smiling	144	sub-11	1.0	3.0	144_smiling	0.0		209.00759768549824	
31.0	185.50312012221502	pulse	1.0	t		27.0	female	white	3.504576203740549	smiling	144	sub-11	1.0	3.0	144_smiling	0.0		209.70757664621806	
31.0	186.20313681478592	pulse	1.0	t		27.0	female	white	3.504576203740549	smiling	144	sub-11	1.0	3.0	144_smiling	0.0		210.40759333878896	
31.0	186.90309283454053	pulse	1.0	t		27.0	female	white	3.504576203740549	smiling	144	sub-11	1.0	3.0	144_smiling	0.0		211.10754935854357	
31.0	187.6030781342115	pulse	1.0	t		27.0	female	white	3.504576203740549	smiling	144	sub-11	1.0	3.0	144_smiling	0.0		211.80753465821454	
32.0	188.26961973236985	face	0.0		145	20.0	male	black	3.1070433744528456	neutral	082	sub-11	1.0	3.0	082_neutral	1.0	attractiveness	212.47407625637288	1.2333102213165148
32.0	188.30307611178432	pulse	0.0	t		20.0	male	black	3.1070433744528456	neutral	082	sub-11	1.0	3.0	082_neutral	1.0	attractiveness	212.50753263578736	
32.0	189.0030514502464	pulse	0.0	t		20.0	male	black	3.1070433744528456	neutral	082	sub-11	1.0	3.0	082_neutral	1.0	attractiveness	213.20750797424944	
32.0	189.50292995368636	fix	1.0		177	20.0	male	black	3.1070433744528456	neutral	082	sub-11	1.0	3.0	082_neutral	1.0	attractiveness	213.7073864776894	1.4999699654467804
32.0	189.7030409758845	pulse	1.0	t		20.0	male	black	3.1070433744528456	neutral	082	sub-11	1.0	3.0	082_neutral	1.0	attractiveness	213.90749749988754	
32.0	190.40302386071698	pulse	1.0	t		20.0	male	black	3.1070433744528456	neutral	082	sub-11	1.0	3.0	082_neutral	1.0	attractiveness	214.60748038472002	
32.0	191.00289991913314	rating	2.0		294	20.0	male	black	3.1070433744528456	neutral	082	sub-11	1.0	3.0	082_neutral	1.0	attractiveness	215.20735644313618	2.4999482319008166
32.0	191.09778194069122	pulse	2.0	t		20.0	male	black	3.1070433744528456	neutral	082	sub-11	1.0	3.0	082_neutral	1.0	attractiveness	215.30223846469426	
32.0	191.7977672403622	pulse	2.0	t		20.0	male	black	3.1070433744528456	neutral	082	sub-11	1.0	3.0	082_neutral	1.0	attractiveness	216.00222376436523	
32.0	192.43939736498896	response	2.0	w		20.0	male	black	3.1070433744528456	neutral	082	sub-11	1.0	3.0	082_neutral	1.0	attractiveness	216.643853888992	
32.0	192.49777578285284	pulse	2.0	t		20.0	male	black	3.1070433744528456	neutral	082	sub-11	1.0	3.0	082_neutral	1.0	attractiveness	216.70223230685588	
32.0	193.20296566311026	pulse	2.0	t		20.0	male	black	3.1070433744528456	neutral	082	sub-11	1.0	3.0	082_neutral	1.0	attractiveness	217.4074221871133	
32.0	193.50284815103396	fix	3.0		444	20.0	male	black	3.1070433744528456	neutral	082	sub-11	1.0	3.0	082_neutral	1.0	attractiveness	217.707304675037	3.766586242484209
32.0	193.9029530757648	pulse	3.0	t		20.0	male	black	3.1070433744528456	neutral	082	sub-11	1.0	3.0	082_neutral	1.0	attractiveness	218.10740959976783	
32.0	194.60293746987145	pulse	3.0	t		20.0	male	black	3.1070433744528456	neutral	082	sub-11	1.0	3.0	082_neutral	1.0	attractiveness	218.80739399387448	
32.0	195.3029182417199	pulse	3.0	t		20.0	male	black	3.1070433744528456	neutral	082	sub-11	1.0	3.0	082_neutral	1.0	attractiveness	219.50737476572294	
32.0	196.00291320074484	pulse	3.0	t		20.0	male	black	3.1070433744528456	neutral	082	sub-11	1.0	3.0	082_neutral	1.0	attractiveness	220.20736972474788	
32.0	196.70289729299657	pulse	3.0	t		20.0	male	black	3.1070433744528456	neutral	082	sub-11	1.0	3.0	082_neutral	1.0	attractiveness	220.9073538169996	
33.0	197.26943439351817	face	0.0		145	20.0	male	black	3.1070433744528456	smiling	082	sub-11	1.0	3.0	082_smiling	0.0		221.4738909175212	1.2333102213169695
33.0	197.40288410194125	pulse	0.0	t		20.0	male	black	3.1070433744528456	smiling	082	sub-11	1.0	3.0	082_smiling	0.0		221.6073406259443	
33.0	198.10287030717654	pulse	0.0	t		20.0	male	black	3.1070433744528456	smiling	082	sub-11	1.0	3.0	082_smiling	0.0		222.30732683117958	
33.0	198.50274461483514	fix	1.0		444	20.0	male	black	3.1070433744528456	smiling	082	sub-11	1.0	3.0	082_smiling	0.0		222.70720113883817	3.766585940629284
33.0	198.80285138088038	pulse	1.0	t		20.0	male	black	3.1070433744528456	smiling	082	sub-11	1.0	3.0	082_smiling	0.0		223.00730790488342	
33.0	199.50283305829362	pulse	1.0	t		20.0	male	black	3.1070433744528456	smiling	082	sub-11	1.0	3.0	082_smiling	0.0		223.70728958229665	
33.0	200.2028192635289	pulse	1.0	t		20.0	male	black	3.1070433744528456	smiling	082	sub-11	1.0	3.0	082_smiling	0.0		224.40727578753194	
33.0	200.90280426134495	pulse	1.0	t		20.0	male	black	3.1070433744528456	smiling	082	sub-11	1.0	3.0	082_smiling	0.0		225.107260785348	
33.0	201.6027898628704	pulse	1.0	t		20.0	male	black	3.1070433744528456	smiling	082	sub-11	1.0	3.0	082_smiling	0.0		225.80724638687343	
34.0	202.26933055546442	face	0.0		145	27.0	male	black	3.5523278949462798	neutral	042	sub-11	1.0	3.0	042_neutral	0.0		226.47378707946746	1.2333093157521944
34.0	202.30278663302397	pulse	0.0	t		27.0	male	black	3.5523278949462798	neutral	042	sub-11	1.0	3.0	042_neutral	0.0		226.507243157027	
34.0	203.0027538214067	pulse	0.0	t		27.0	male	black	3.5523278949462798	neutral	042	sub-11	1.0	3.0	042_neutral	0.0		227.20721034540975	
34.0	203.50263987121662	fix	1.0		443	27.0	male	black	3.5523278949462798	neutral	042	sub-11	1.0	3.0	042_neutral	0.0		227.70709639521965	3.76658926103255
34.0	203.70275179897953	pulse	1.0	t		27.0	male	black	3.5523278949462798	neutral	042	sub-11	1.0	3.0	042_neutral	0.0		227.90720832298257	
34.0	204.40272985413503	pulse	1.0	t		27.0	male	black	3.5523278949462798	neutral	042	sub-11	1.0	3.0	042_neutral	0.0		228.60718637813807	
34.0	205.1027208890473	pulse	1.0	t		27.0	male	black	3.5523278949462798	neutral	042	sub-11	1.0	3.0	042_neutral	0.0		229.30717741305034	
34.0	205.80270256646008	pulse	1.0	t		27.0	male	black	3.5523278949462798	neutral	042	sub-11	1.0	3.0	042_neutral	0.0		230.00715909046312	
34.0	206.50268937540523	pulse	1.0	t		27.0	male	black	3.5523278949462798	neutral	042	sub-11	1.0	3.0	042_neutral	0.0		230.70714589940826	
34.0	207.202677995479	pulse	1.0	t		27.0	male	black	3.5523278949462798	neutral	042	sub-11	1.0	3.0	042_neutral	0.0		231.40713451948204	
35.0	207.26922913224917	face	0.0		146	27.0	female	white	3.504576203740549	neutral	144	sub-11	1.0	3.0	144_neutral	0.0		231.4736856562522	1.2333102213169695
35.0	207.90266963410068	pulse	0.0	t		27.0	female	white	3.504576203740549	neutral	144	sub-11	1.0	3.0	144_neutral	0.0		232.1071261581037	
35.0	208.50253935356614	fix	1.0		443	27.0	female	white	3.504576203740549	neutral	144	sub-11	1.0	3.0	144_neutral	0.0		232.70699587756917	3.7665850350649634
35.0	208.602665196835	pulse	1.0	t		27.0	female	white	3.504576203740549	neutral	144	sub-11	1.0	3.0	144_neutral	0.0		232.80712172083804	
35.0	209.30262876296	pulse	1.0	t		27.0	female	white	3.504576203740549	neutral	144	sub-11	1.0	3.0	144_neutral	0.0		233.50708528696305	
35.0	210.00262613682298	pulse	1.0	t		27.0	female	white	3.504576203740549	neutral	144	sub-11	1.0	3.0	144_neutral	0.0		234.20708266082602	
35.0	210.702603890124	pulse	1.0	t		27.0	female	white	3.504576203740549	neutral	144	sub-11	1.0	3.0	144_neutral	0.0		234.90706041412705	
35.0	211.40258737866588	pulse	1.0	t		27.0	female	white	3.504576203740549	neutral	144	sub-11	1.0	3.0	144_neutral	0.0		235.60704390266892	
35.0	212.10257811172323	pulse	1.0	t		27.0	female	white	3.504576203740549	neutral	144	sub-11	1.0	3.0	144_neutral	0.0		236.30703463572627	
36.0	212.2691243886311	face	0.0		146	26.0	female	white	4.854755272582572	neutral	027	sub-11	1.0	3.0	027_neutral	0.0		236.47358091263413	1.2333141454291763
36.0	212.80256793921626	pulse	0.0	t		26.0	female	white	4.854755272582572	neutral	027	sub-11	1.0	3.0	027_neutral	0.0		237.0070244632193	
36.0	213.50243853406027	fix	1.0		444	26.0	female	white	4.854755272582572	neutral	027	sub-11	1.0	3.0	027_neutral	0.0		237.7068950580633	3.766584431355568
36.0	213.50994566311647	pulse	1.0	t		26.0	female	white	4.854755272582572	neutral	027	sub-11	1.0	3.0	027_neutral	0.0		237.7144021871195	
36.0	214.20254789605724	pulse	1.0	t		26.0	female	white	4.854755272582572	neutral	027	sub-11	1.0	3.0	027_neutral	0.0		238.40700442006028	
36.0	214.90251538629445	pulse	1.0	t		26.0	female	white	4.854755272582572	neutral	027	sub-11	1.0	3.0	027_neutral	0.0		239.1069719102975	
36.0	215.6025009878199	pulse	1.0	t		26.0	female	white	4.854755272582572	neutral	027	sub-11	1.0	3.0	027_neutral	0.0		239.80695751182293	
36.0	216.30248960789368	pulse	1.0	t		26.0	female	white	4.854755272582572	neutral	027	sub-11	1.0	3.0	027_neutral	0.0		240.5069461318967	
36.0	217.00246826675902	pulse	1.0	t		26.0	female	white	4.854755272582572	neutral	027	sub-11	1.0	3.0	027_neutral	0.0		241.20692479076206	
37.0	217.26902296541584	face	0.0		145	24.0	male	white	3.1153999204138483	smiling	012	sub-11	1.0	3.0	012_smiling	0.0		241.47347948941888	1.2333081083334037
37.0	217.7024632257835	pulse	0.0	t		24.0	male	white	3.1153999204138483	smiling	012	sub-11	1.0	3.0	012_smiling	0.0		241.90691974978654	
37.0	218.40244671432583	pulse	0.0	t		24.0	male	white	3.1153999204138483	smiling	012	sub-11	1.0	3.0	012_smiling	0.0		242.60690323832887	
37.0	218.50233107374925	fix	1.0		444	24.0	male	white	3.1153999204138483	smiling	012	sub-11	1.0	3.0	012_smiling	0.0		242.70678759775228	3.7583936011606056
37.0	219.10242990101278	pulse	1.0	t		24.0	male	white	3.1153999204138483	smiling	012	sub-11	1.0	3.0	012_smiling	0.0		243.30688642501582	
37.0	219.80241037100677	pulse	1.0	t		24.0	male	white	3.1153999204138483	smiling	012	sub-11	1.0	3.0	012_smiling	0.0		244.0068668950098	
37.0	220.50239929293548	pulse	1.0	t		24.0	male	white	3.1153999204138483	smiling	012	sub-11	1.0	3.0	012_smiling	0.0		244.7068558169385	
37.0	221.2023858000257	pulse	1.0	t		24.0	male	white	3.1153999204138483	smiling	012	sub-11	1.0	3.0	012_smiling	0.0		245.40684232402873	
37.0	221.9023759293732	pulse	1.0	t		24.0	male	white	3.1153999204138483	smiling	012	sub-11	1.0	3.0	012_smiling	0.0		246.10683245337623	
38.0	222.26072467490985	face	0.0		146	31.0	female	west_asian	2.364902506963788	neutral	006	sub-11	1.0	3.0	006_neutral	0.0		246.4651811989129	1.2415043719142886
38.0	222.60236364388265	pulse	0.0	t		31.0	female	west_asian	2.364902506963788	neutral	006	sub-11	1.0	3.0	006_neutral	0.0		246.8068201678857	
38.0	223.30234833984377	pulse	0.0	t		31.0	female	west_asian	2.364902506963788	neutral	006	sub-11	1.0	3.0	006_neutral	0.0		247.5068048638468	
38.0	223.50222904682414	fix	1.0		444	31.0	female	west_asian	2.364902506963788	neutral	006	sub-11	1.0	3.0	006_neutral	0.0		247.70668557082718	3.766585940629284
38.0	224.00234209144946	pulse	1.0	t		31.0	female	west_asian	2.364902506963788	neutral	006	sub-11	1.0	3.0	006_neutral	0.0		248.2067986154525	
38.0	224.70231169467024	pulse	1.0	t		31.0	female	west_asian	2.364902506963788	neutral	006	sub-11	1.0	3.0	006_neutral	0.0		248.90676821867328	
38.0	225.40230303143744	pulse	1.0	t		31.0	female	west_asian	2.364902506963788	neutral	006	sub-11	1.0	3.0	006_neutral	0.0		249.60675955544048	
38.0	226.10228712368917	pulse	1.0	t		31.0	female	west_asian	2.364902506963788	neutral	006	sub-11	1.0	3.0	006_neutral	0.0		250.3067436476922	
38.0	226.80226789553808	pulse	1.0	t		31.0	female	west_asian	2.364902506963788	neutral	006	sub-11	1.0	3.0	006_neutral	0.0		251.00672441954111	
39.0	227.26881498745342	face	0.0		145	28.0	female	white	5.676880222841227	neutral	124	sub-11	1.0	3.0	124_neutral	0.0		251.47327151145646	1.2333099194620445
39.0	227.50226285456256	pulse	0.0	t		28.0	female	white	5.676880222841227	neutral	124	sub-11	1.0	3.0	124_neutral	0.0		251.7067193785656	
39.0	228.2022454375401	pulse	0.0	t		28.0	female	white	5.676880222841227	neutral	124	sub-11	1.0	3.0	124_neutral	0.0		252.40670196154315	
39.0	228.50212490691547	fix	1.0		444	28.0	female	white	5.676880222841227	neutral	124	sub-11	1.0	3.0	124_neutral	0.0		252.7065814309185	3.749924762689716
39.0	228.90223285019465	pulse	1.0	t		28.0	female	white	5.676880222841227	neutral	124	sub-11	1.0	3.0	124_neutral	0.0		253.10668937419769	
39.0	229.60221181091447	pulse	1.0	t		28.0	female	white	5.676880222841227	neutral	124	sub-11	1.0	3.0	124_neutral	0.0		253.8066683349175	
39.0	230.3021959031662	pulse	1.0	t		28.0	female	white	5.676880222841227	neutral	124	sub-11	1.0	3.0	124_neutral	0.0		254.50665242716923	
39.0	231.0021824102564	pulse	1.0	t		28.0	female	white	5.676880222841227	neutral	124	sub-11	1.0	3.0	124_neutral	0.0		255.20663893425944	
39.0	231.70217133218512	pulse	1.0	t		28.0	female	white	5.676880222841227	neutral	124	sub-11	1.0	3.0	124_neutral	0.0		255.90662785618815	
40.0	232.25204966960519	fix	0.0		720													256.4565061936082	5.999875032109685
40.0	232.40216115967814	pulse	0.0	t														256.6066176836812	
40.0	233.10214525192987	pulse	0.0	t														257.3066017759329	
40.0	233.80212391079476	pulse	0.0	t														258.0065804347978	
40.0	234.5021113234493	pulse	0.0	t														258.70656784745233	
40.0	235.20209964166816	pulse	0.0	t														259.4065561656712	
40.0	235.90208162093631	pulse	0.0	t														260.10653814493935	
40.0	236.60207235399366	pulse	0.0	t														260.8065288779967	
40.0	237.30205855922895	pulse	0.0	t														261.506515083232	
40.0	238.00204778301259	pulse	0.0	t														262.2065043070156	
