trial_nr	onset	event_type	phase	response	nr_frames	face_age	face_sex	face_eth	attractiveness	expression	face_id	sub_id	ses	run	trial_type	catch	rating_type	onset_abs	duration
-1.0	0.055112213354732376	fix	0.0		714													93.1900039875145	5.966340370698163
-1.0	0.7050253845591214	pulse	0.0	t														93.83991715871889	
-1.0	1.4050100804743124	pulse	0.0	t														94.53990185463408	
-1.0	2.1050041339149175	pulse	0.0	t														95.23989590807469	
-1.0	2.804977661169687	pulse	0.0	t														95.93986943532946	
-1.0	3.504971714610292	pulse	0.0	t														96.63986348877006	
-1.0	4.204963956919528	pulse	0.0	t														97.3398557310793	
-1.0	4.904929635926237	pulse	0.0	t														98.039821410086	
-1.0	5.604927613490872	pulse	0.0	t														98.73981938765064	
0.0	6.021452584052895	face	0.0		144	21.0	male	east_asian/white	3.501790688420215	smiling	036	sub-10	2.0	1.0	036_smiling	0.0		99.15634435821266	1.233343525993405
0.0	6.304917139099416	pulse	0.0	t		21.0	male	east_asian/white	3.501790688420215	smiling	036	sub-10	2.0	1.0	036_smiling	0.0		99.43980891325918	
0.0	7.0049102869743365	pulse	0.0	t		21.0	male	east_asian/white	3.501790688420215	smiling	036	sub-10	2.0	1.0	036_smiling	0.0		100.1398020611341	
0.0	7.2547961100463	fix	1.0		444	21.0	male	east_asian/white	3.501790688420215	smiling	036	sub-10	2.0	1.0	036_smiling	0.0		100.38968788420607	3.766585839766776
0.0	7.704897397732566	pulse	1.0	t		21.0	male	east_asian/white	3.501790688420215	smiling	036	sub-10	2.0	1.0	036_smiling	0.0		100.83978917189233	
0.0	8.404889640041802	pulse	1.0	t		21.0	male	east_asian/white	3.501790688420215	smiling	036	sub-10	2.0	1.0	036_smiling	0.0		101.53978141420157	
0.0	9.104865280285594	pulse	1.0	t		21.0	male	east_asian/white	3.501790688420215	smiling	036	sub-10	2.0	1.0	036_smiling	0.0		102.23975705444536	
0.0	9.80483910939438	pulse	1.0	t		21.0	male	east_asian/white	3.501790688420215	smiling	036	sub-10	2.0	1.0	036_smiling	0.0		102.93973088355415	
0.0	10.504852179747104	pulse	1.0	t		21.0	male	east_asian/white	3.501790688420215	smiling	036	sub-10	2.0	1.0	036_smiling	0.0		103.63974395390687	
1.0	11.021381949813076	face	0.0		145	47.0	male	east_asian	2.171110226820533	neutral	024	sub-10	2.0	1.0	024_neutral	0.0		104.15627372397284	1.2333154534135247
1.0	11.204827819990896	pulse	0.0	t		47.0	male	east_asian	2.171110226820533	neutral	024	sub-10	2.0	1.0	024_neutral	0.0		104.33971959415067	
1.0	11.904830325394869	pulse	0.0	t		47.0	male	east_asian	2.171110226820533	neutral	024	sub-10	2.0	1.0	024_neutral	0.0		105.03972209955464	
1.0	12.2546974032266	fix	1.0		444	47.0	male	east_asian	2.171110226820533	neutral	024	sub-10	2.0	1.0	024_neutral	0.0		105.38958917738637	3.7665958010074974
1.0	12.60481894543409	pulse	1.0	t		47.0	male	east_asian	2.171110226820533	neutral	024	sub-10	2.0	1.0	024_neutral	0.0		105.73971071959386	
1.0	13.304796698666905	pulse	1.0	t		47.0	male	east_asian	2.171110226820533	neutral	024	sub-10	2.0	1.0	024_neutral	0.0		106.43968847282667	
1.0	14.00479075210751	pulse	1.0	t		47.0	male	east_asian	2.171110226820533	neutral	024	sub-10	2.0	1.0	024_neutral	0.0		107.13968252626728	
1.0	14.70477273132201	pulse	1.0	t		47.0	male	east_asian	2.171110226820533	neutral	024	sub-10	2.0	1.0	024_neutral	0.0		107.83966450548178	
1.0	15.404768595897622	pulse	1.0	t		47.0	male	east_asian	2.171110226820533	neutral	024	sub-10	2.0	1.0	024_neutral	0.0		108.53966037005739	
2.0	16.021293204234098	face	0.0		145	54.0	female	white	2.286908077994429	neutral	136	sub-10	2.0	1.0	136_neutral	0.0		109.15618497839387	1.2333157552675402
2.0	16.104740915729053	pulse	0.0	t		54.0	female	white	2.286908077994429	neutral	136	sub-10	2.0	1.0	136_neutral	0.0		109.23963268988882	
2.0	16.80472802649092	pulse	0.0	t		54.0	female	white	2.286908077994429	neutral	136	sub-10	2.0	1.0	136_neutral	0.0		109.93961980065069	
2.0	17.25460895950164	fix	1.0		444	54.0	female	white	2.286908077994429	neutral	136	sub-10	2.0	1.0	136_neutral	0.0		110.38950073366141	3.766591273171798
2.0	17.50472117436584	pulse	1.0	t		54.0	female	white	2.286908077994429	neutral	136	sub-10	2.0	1.0	136_neutral	0.0		110.63961294852561	
2.0	18.204705266569363	pulse	1.0	t		54.0	female	white	2.286908077994429	neutral	136	sub-10	2.0	1.0	136_neutral	0.0		111.33959704072913	
2.0	18.904702942279982	pulse	1.0	t		54.0	female	white	2.286908077994429	neutral	136	sub-10	2.0	1.0	136_neutral	0.0		112.03959471643975	
2.0	19.604683714071143	pulse	1.0	t		54.0	female	white	2.286908077994429	neutral	136	sub-10	2.0	1.0	136_neutral	0.0		112.73957548823091	
2.0	20.30466750441701	pulse	1.0	t		54.0	female	white	2.286908077994429	neutral	136	sub-10	2.0	1.0	136_neutral	0.0		113.43955927857678	
3.0	21.021200232673436	face	0.0		146	19.0	female	white	4.298846000795861	neutral	100	sub-10	2.0	1.0	100_neutral	0.0		114.1560920068332	1.233317264544894
3.0	21.00712258753265	pulse	0.0	t		19.0	female	white	4.298846000795861	neutral	100	sub-10	2.0	1.0	100_neutral	0.0		114.14201436169242	
3.0	21.704648970477137	pulse	0.0	t		19.0	female	white	4.298846000795861	neutral	100	sub-10	2.0	1.0	100_neutral	0.0		114.8395407446369	
3.0	22.25451749721833	fix	1.0		443	19.0	female	white	4.298846000795861	neutral	100	sub-10	2.0	1.0	100_neutral	0.0		115.3894092713781	3.7665991214198584
3.0	22.404641816498042	pulse	1.0	t		19.0	female	white	4.298846000795861	neutral	100	sub-10	2.0	1.0	100_neutral	0.0		115.53953359065781	
3.0	23.104618664165173	pulse	1.0	t		19.0	female	white	4.298846000795861	neutral	100	sub-10	2.0	1.0	100_neutral	0.0		116.23951043832494	
3.0	23.80460637863507	pulse	1.0	t		19.0	female	white	4.298846000795861	neutral	100	sub-10	2.0	1.0	100_neutral	0.0		116.93949815279484	
3.0	24.504601639502653	pulse	1.0	t		19.0	female	white	4.298846000795861	neutral	100	sub-10	2.0	1.0	100_neutral	0.0		117.63949341366242	
3.0	25.20458603356019	pulse	1.0	t		19.0	female	white	4.298846000795861	neutral	100	sub-10	2.0	1.0	100_neutral	0.0		118.33947780771996	
3.0	25.904579483292764	pulse	1.0	t		19.0	female	white	4.298846000795861	neutral	100	sub-10	2.0	1.0	100_neutral	0.0		119.03947125745253	
4.0	26.02111661863819	face	0.0		146	23.0	male	white	2.6275368085953046	smiling	141	sub-10	2.0	1.0	141_smiling	0.0		119.15600839279796	1.2333269239315996
4.0	26.604566594050993	pulse	0.0	t		23.0	male	white	2.6275368085953046	smiling	141	sub-10	2.0	1.0	141_smiling	0.0		119.73945836821076	
4.0	27.25444354256979	fix	1.0		443	23.0	male	white	2.6275368085953046	smiling	141	sub-10	2.0	1.0	141_smiling	0.0		120.38933531672956	3.7665828212084307
4.0	27.304556723371206	pulse	1.0	t		23.0	male	white	2.6275368085953046	smiling	141	sub-10	2.0	1.0	141_smiling	0.0		120.43944849753098	
4.0	28.004532967326668	pulse	1.0	t		23.0	male	white	2.6275368085953046	smiling	141	sub-10	2.0	1.0	141_smiling	0.0		121.13942474148644	
4.0	28.704520078084897	pulse	1.0	t		23.0	male	white	2.6275368085953046	smiling	141	sub-10	2.0	1.0	141_smiling	0.0		121.83941185224467	
4.0	29.404523790912208	pulse	1.0	t		23.0	male	white	2.6275368085953046	smiling	141	sub-10	2.0	1.0	141_smiling	0.0		122.53941556507198	
4.0	30.104506373834738	pulse	1.0	t		23.0	male	white	2.6275368085953046	smiling	141	sub-10	2.0	1.0	141_smiling	0.0		123.2393981479945	
4.0	30.804487749337568	pulse	1.0	t		23.0	male	white	2.6275368085953046	smiling	141	sub-10	2.0	1.0	141_smiling	0.0		123.93937952349734	
5.0	31.02102636377822	face	0.0		145	27.0	male	black	3.5523278949462798	smiling	042	sub-10	2.0	1.0	042_smiling	0.0		124.15591813793799	1.233328735062969
5.0	31.50447848236945	pulse	0.0	t		27.0	male	black	3.5523278949462798	smiling	042	sub-10	2.0	1.0	042_smiling	0.0		124.63937025652922	
5.0	32.204460159726295	pulse	0.0	t		27.0	male	black	3.5523278949462798	smiling	042	sub-10	2.0	1.0	042_smiling	0.0		125.33935193388606	
5.0	32.25435509884119	fix	1.0		444	27.0	male	black	3.5523278949462798	smiling	042	sub-10	2.0	1.0	042_smiling	0.0		125.38924687300096	3.766584028635407
5.0	32.90443459254675	pulse	1.0	t		27.0	male	black	3.5523278949462798	smiling	042	sub-10	2.0	1.0	042_smiling	0.0		126.03932636670652	
5.0	33.6044361923814	pulse	1.0	t		27.0	male	black	3.5523278949462798	smiling	042	sub-10	2.0	1.0	042_smiling	0.0		126.73932796654117	
5.0	34.30442330314327	pulse	1.0	t		27.0	male	black	3.5523278949462798	smiling	042	sub-10	2.0	1.0	042_smiling	0.0		127.43931507730304	
5.0	35.004416149160534	pulse	1.0	t		27.0	male	black	3.5523278949462798	smiling	042	sub-10	2.0	1.0	042_smiling	0.0		128.1393079233203	
5.0	35.70439812837503	pulse	1.0	t		27.0	male	black	3.5523278949462798	smiling	042	sub-10	2.0	1.0	042_smiling	0.0		128.8392899025348	
6.0	36.020939127476595	face	0.0		145	19.0	male	white	3.2522881018702745	neutral	018	sub-10	2.0	1.0	018_neutral	0.0		129.15583090163636	1.2333269239279616
6.0	36.40439550223164	pulse	0.0	t		19.0	male	white	3.2522881018702745	neutral	018	sub-10	2.0	1.0	018_neutral	0.0		129.5392872763914	
6.0	37.10438351855919	pulse	0.0	t		19.0	male	white	3.2522881018702745	neutral	018	sub-10	2.0	1.0	018_neutral	0.0		130.23927529271896	
6.0	37.25426605140456	fix	1.0		444	19.0	male	white	3.2522881018702745	neutral	018	sub-10	2.0	1.0	018_neutral	0.0		130.38915782556433	3.7665855379127606
6.0	37.80437274231008	pulse	1.0	t		19.0	male	white	3.2522881018702745	neutral	018	sub-10	2.0	1.0	018_neutral	0.0		130.93926451646985	
6.0	38.50435200482025	pulse	1.0	t		19.0	male	white	3.2522881018702745	neutral	018	sub-10	2.0	1.0	018_neutral	0.0		131.63924377898002	
6.0	39.20434726568783	pulse	1.0	t		19.0	male	white	3.2522881018702745	neutral	018	sub-10	2.0	1.0	018_neutral	0.0		132.3392390398476	
6.0	39.90431415211424	pulse	1.0	t		19.0	male	white	3.2522881018702745	neutral	018	sub-10	2.0	1.0	018_neutral	0.0		133.039205926274	
6.0	40.60432118535391	pulse	1.0	t		19.0	male	white	3.2522881018702745	neutral	018	sub-10	2.0	1.0	018_neutral	0.0		133.73921295951368	
7.0	41.02085158931732	face	0.0		145	22.0	female	white	4.614007162753682	smiling	009	sub-10	2.0	1.0	009_smiling	0.0		134.1557433634771	1.2333251127965923
7.0	41.30429652374005	pulse	0.0	t		22.0	female	white	4.614007162753682	smiling	009	sub-10	2.0	1.0	009_smiling	0.0		134.43918829789982	
7.0	42.004277597388864	pulse	0.0	t		22.0	female	white	4.614007162753682	smiling	009	sub-10	2.0	1.0	009_smiling	0.0		135.13916937154863	
7.0	42.25417670211391	fix	1.0		444	22.0	female	white	4.614007162753682	smiling	009	sub-10	2.0	1.0	009_smiling	0.0		135.38906847627368	3.7665843304894224
7.0	42.7042710471178	pulse	1.0	t		22.0	female	white	4.614007162753682	smiling	009	sub-10	2.0	1.0	009_smiling	0.0		135.83916282127757	
7.0	43.40426479870439	pulse	1.0	t		22.0	female	white	4.614007162753682	smiling	009	sub-10	2.0	1.0	009_smiling	0.0		136.53915657286416	
7.0	44.10425855029098	pulse	1.0	t		22.0	female	white	4.614007162753682	smiling	009	sub-10	2.0	1.0	009_smiling	0.0		137.23915032445075	
7.0	44.804226644140726	pulse	1.0	t		22.0	female	white	4.614007162753682	smiling	009	sub-10	2.0	1.0	009_smiling	0.0		137.9391184183005	
7.0	45.504239412639436	pulse	1.0	t		22.0	female	white	4.614007162753682	smiling	009	sub-10	2.0	1.0	009_smiling	0.0		138.6391311867992	
8.0	46.02076103260333	face	0.0		145	40.0	female	west_asian	1.5777954635893354	smiling	038	sub-10	2.0	1.0	038_smiling	0.0		139.1556528067631	1.2333275276396307
8.0	46.20422410855463	pulse	0.0	t		40.0	female	west_asian	1.5777954635893354	smiling	038	sub-10	2.0	1.0	038_smiling	0.0		139.3391158827144	
8.0	46.90418344858699	pulse	0.0	t		40.0	female	west_asian	1.5777954635893354	smiling	038	sub-10	2.0	1.0	038_smiling	0.0		140.03907522274676	
8.0	47.25408856024296	fix	1.0		444	40.0	female	west_asian	1.5777954635893354	smiling	038	sub-10	2.0	1.0	038_smiling	0.0		140.38898033440273	3.7665843304894224
8.0	47.60420134863307	pulse	1.0	t		40.0	female	west_asian	1.5777954635893354	smiling	038	sub-10	2.0	1.0	038_smiling	0.0		140.73909312279284	
8.0	48.30418061114324	pulse	1.0	t		40.0	female	west_asian	1.5777954635893354	smiling	038	sub-10	2.0	1.0	038_smiling	0.0		141.439072385303	
8.0	49.004159269945376	pulse	1.0	t		40.0	female	west_asian	1.5777954635893354	smiling	038	sub-10	2.0	1.0	038_smiling	0.0		142.13905104410514	
8.0	49.7041343064775	pulse	1.0	t		40.0	female	west_asian	1.5777954635893354	smiling	038	sub-10	2.0	1.0	038_smiling	0.0		142.83902608063727	
8.0	50.40413590631215	pulse	1.0	t		40.0	female	west_asian	1.5777954635893354	smiling	038	sub-10	2.0	1.0	038_smiling	0.0		143.53902768047192	
9.0	51.020672890732385	face	0.0		145	28.0	male	white	3.9076800636689217	neutral	033	sub-10	2.0	1.0	033_neutral	0.0		144.15556466489215	1.2333254146506079
9.0	51.10416588058433	pulse	0.0	t		28.0	male	white	3.9076800636689217	neutral	033	sub-10	2.0	1.0	033_neutral	0.0		144.2390576547441	
9.0	51.80410469443086	pulse	0.0	t		28.0	male	white	3.9076800636689217	neutral	033	sub-10	2.0	1.0	033_neutral	0.0		144.93899646859063	
9.0	52.25399830538299	fix	1.0		444	28.0	male	white	3.9076800636689217	neutral	033	sub-10	2.0	1.0	033_neutral	0.0		145.38889007954276	3.7665837267777533
9.0	52.50410961468151	pulse	1.0	t		28.0	male	white	3.9076800636689217	neutral	033	sub-10	2.0	1.0	033_neutral	0.0		145.63900138884128	
9.0	53.204097027297394	pulse	1.0	t		28.0	male	white	3.9076800636689217	neutral	033	sub-10	2.0	1.0	033_neutral	0.0		146.33898880145716	
9.0	53.90408081764326	pulse	1.0	t		28.0	male	white	3.9076800636689217	neutral	033	sub-10	2.0	1.0	033_neutral	0.0		147.03897259180303	
9.0	54.604054043044016	pulse	1.0	t		28.0	male	white	3.9076800636689217	neutral	033	sub-10	2.0	1.0	033_neutral	0.0		147.73894581720378	
9.0	55.30405383174366	pulse	1.0	t		28.0	male	white	3.9076800636689217	neutral	033	sub-10	2.0	1.0	033_neutral	0.0		148.43894560590343	
10.0	56.020582032160746	face	0.0		146	19.0	female	white	4.298846000795861	smiling	100	sub-10	2.0	1.0	100_smiling	0.0		149.15547380632051	1.2333127367128327
10.0	56.006928192451596	pulse	0.0	t		19.0	female	white	4.298846000795861	smiling	100	sub-10	2.0	1.0	100_smiling	0.0		149.14181996661137	
10.0	56.70402533656306	pulse	0.0	t		19.0	female	white	4.298846000795861	smiling	100	sub-10	2.0	1.0	100_smiling	0.0		149.83891711072283	
10.0	57.25389476887358	fix	1.0		443	19.0	female	white	4.298846000795861	smiling	100	sub-10	2.0	1.0	100_smiling	0.0		150.38878654303335	3.7665804063617543
10.0	57.404022106708	pulse	1.0	t		19.0	female	white	4.298846000795861	smiling	100	sub-10	2.0	1.0	100_smiling	0.0		150.53891388086777	
10.0	58.10399835066346	pulse	1.0	t		19.0	female	white	4.298846000795861	smiling	100	sub-10	2.0	1.0	100_smiling	0.0		151.23889012482323	
10.0	58.80399089482671	pulse	1.0	t		19.0	female	white	4.298846000795861	smiling	100	sub-10	2.0	1.0	100_smiling	0.0		151.93888266898648	
10.0	59.50397679816524	pulse	1.0	t		19.0	female	white	4.298846000795861	smiling	100	sub-10	2.0	1.0	100_smiling	0.0		152.638868572325	
10.0	60.203958475522086	pulse	1.0	t		19.0	female	white	4.298846000795861	smiling	100	sub-10	2.0	1.0	100_smiling	0.0		153.33885024968185	
10.0	60.903952227108675	pulse	1.0	t		19.0	female	white	4.298846000795861	smiling	100	sub-10	2.0	1.0	100_smiling	0.0		154.03884400126844	
11.0	61.02047517523533	face	0.0		146	27.0	male	black	3.5523278949462798	neutral	042	sub-10	2.0	1.0	042_neutral	0.0		154.1553669493951	1.2333498649677495
11.0	61.603950506530964	pulse	0.0	t		27.0	male	black	3.5523278949462798	neutral	042	sub-10	2.0	1.0	042_neutral	0.0		154.73884228069073	
11.0	62.25382504020308	fix	1.0		443	27.0	male	black	3.5523278949462798	neutral	042	sub-10	2.0	1.0	042_neutral	0.0		155.38871681436285	3.7583599695826706
11.0	62.3039336931688	pulse	1.0	t		27.0	male	black	3.5523278949462798	neutral	042	sub-10	2.0	1.0	042_neutral	0.0		155.43882546732857	
11.0	63.00392472805106	pulse	1.0	t		27.0	male	black	3.5523278949462798	neutral	042	sub-10	2.0	1.0	042_neutral	0.0		156.13881650221083	
11.0	63.703913046236266	pulse	1.0	t		27.0	male	black	3.5523278949462798	neutral	042	sub-10	2.0	1.0	042_neutral	0.0		156.83880482039604	
11.0	64.40389472359311	pulse	1.0	t		27.0	male	black	3.5523278949462798	neutral	042	sub-10	2.0	1.0	042_neutral	0.0		157.53878649775288	
11.0	65.10388183435498	pulse	1.0	t		27.0	male	black	3.5523278949462798	neutral	042	sub-10	2.0	1.0	042_neutral	0.0		158.23877360851475	
11.0	65.80384841892737	pulse	1.0	t		27.0	male	black	3.5523278949462798	neutral	042	sub-10	2.0	1.0	042_neutral	0.0		158.93874019308714	
12.0	66.01218500978575	face	0.0		146	24.0	female	east_asian	2.9076800636689217	neutral	034	sub-10	2.0	1.0	034_neutral	0.0		159.14707678394552	1.2415328716342628
12.0	66.50388050618858	pulse	0.0	t		24.0	female	east_asian	2.9076800636689217	neutral	034	sub-10	2.0	1.0	034_neutral	0.0		159.63877228034835	
12.0	67.20382867756416	pulse	0.0	t		24.0	female	east_asian	2.9076800636689217	neutral	034	sub-10	2.0	1.0	034_neutral	0.0		160.33872045172393	
12.0	67.25371788142002	fix	1.0		444	24.0	female	east_asian	2.9076800636689217	neutral	034	sub-10	2.0	1.0	034_neutral	0.0		160.38860965557978	3.766600630697212
12.0	67.90382182543908	pulse	1.0	t		24.0	female	east_asian	2.9076800636689217	neutral	034	sub-10	2.0	1.0	034_neutral	0.0		161.03871359959885	
12.0	68.603814973314	pulse	1.0	t		24.0	female	east_asian	2.9076800636689217	neutral	034	sub-10	2.0	1.0	034_neutral	0.0		161.73870674747377	
12.0	69.30379574510516	pulse	1.0	t		24.0	female	east_asian	2.9076800636689217	neutral	034	sub-10	2.0	1.0	034_neutral	0.0		162.43868751926493	
12.0	70.00378527071007	pulse	1.0	t		24.0	female	east_asian	2.9076800636689217	neutral	034	sub-10	2.0	1.0	034_neutral	0.0		163.13867704486984	
12.0	70.70376875920192	pulse	1.0	t		24.0	female	east_asian	2.9076800636689217	neutral	034	sub-10	2.0	1.0	034_neutral	0.0		163.8386605333617	
13.0	71.02031851211723	face	0.0		145	32.0	male	white	2.389176283326701	smiling	092	sub-10	2.0	1.0	092_smiling	1.0	attractiveness	164.155210286277	1.2333127367128327
13.0	71.40377820728827	pulse	0.0	t		32.0	male	white	2.389176283326701	smiling	092	sub-10	2.0	1.0	092_smiling	1.0	attractiveness	164.53866998144804	
13.0	72.10374841412704	pulse	0.0	t		32.0	male	white	2.389176283326701	smiling	092	sub-10	2.0	1.0	092_smiling	1.0	attractiveness	165.2386401882868	
13.0	72.25363124883006	fix	1.0		177	32.0	male	white	2.389176283326701	smiling	092	sub-10	2.0	1.0	092_smiling	1.0	attractiveness	165.38852302298983	1.5083343873120612
13.0	72.80374578798364	pulse	1.0	t		32.0	male	white	2.389176283326701	smiling	092	sub-10	2.0	1.0	092_smiling	1.0	attractiveness	165.9386375621434	
13.0	73.50372444678214	pulse	1.0	t		32.0	male	white	2.389176283326701	smiling	092	sub-10	2.0	1.0	092_smiling	1.0	attractiveness	166.6386162209419	
13.0	73.76196563614212	rating	2.0		294	32.0	male	white	2.389176283326701	smiling	092	sub-10	2.0	1.0	092_smiling	1.0	attractiveness	166.8968574103019	2.4916058452545258
13.0	74.1986337406488	pulse	2.0	t		32.0	male	white	2.389176283326701	smiling	092	sub-10	2.0	1.0	092_smiling	1.0	attractiveness	167.33352551480857	
13.0	74.89861179573927	pulse	2.0	t		32.0	male	white	2.389176283326701	smiling	092	sub-10	2.0	1.0	092_smiling	1.0	attractiveness	168.03350356989904	
13.0	75.30370549024519	response	2.0	e		32.0	male	white	2.389176283326701	smiling	092	sub-10	2.0	1.0	092_smiling	1.0	attractiveness	168.43859726440496	
13.0	75.59861007516156	pulse	2.0	t		32.0	male	white	2.389176283326701	smiling	092	sub-10	2.0	1.0	092_smiling	1.0	attractiveness	168.73350184932133	
13.0	76.25357148139665	fix	3.0		443	32.0	male	white	2.389176283326701	smiling	092	sub-10	2.0	1.0	092_smiling	1.0	attractiveness	169.38846325555642	3.7665882546134526
13.0	76.30368375663238	pulse	3.0	t		32.0	male	white	2.389176283326701	smiling	092	sub-10	2.0	1.0	092_smiling	1.0	attractiveness	169.43857553079215	
13.0	77.00366271728853	pulse	3.0	t		32.0	male	white	2.389176283326701	smiling	092	sub-10	2.0	1.0	092_smiling	1.0	attractiveness	170.1385544914483	
13.0	77.70366310969985	pulse	3.0	t		32.0	male	white	2.389176283326701	smiling	092	sub-10	2.0	1.0	092_smiling	1.0	attractiveness	170.83855488385962	
13.0	78.40364720190337	pulse	3.0	t		32.0	male	white	2.389176283326701	smiling	092	sub-10	2.0	1.0	092_smiling	1.0	attractiveness	171.53853897606314	
13.0	79.10363733122358	pulse	3.0	t		32.0	male	white	2.389176283326701	smiling	092	sub-10	2.0	1.0	092_smiling	1.0	attractiveness	172.23852910538335	
13.0	79.80361266960972	pulse	3.0	t		32.0	male	white	2.389176283326701	smiling	092	sub-10	2.0	1.0	092_smiling	1.0	attractiveness	172.9385044437695	
14.0	80.0201597360101	face	0.0		145	19.0	male	white	2.243931555909272	neutral	130	sub-10	2.0	1.0	130_neutral	0.0		173.15505151016987	1.2333251127965923
14.0	80.50360098779493	pulse	0.0	t		19.0	male	white	2.243931555909272	neutral	130	sub-10	2.0	1.0	130_neutral	0.0		173.6384927619547	
14.0	81.20359323010416	pulse	0.0	t		19.0	male	white	2.243931555909272	neutral	130	sub-10	2.0	1.0	130_neutral	0.0		174.33848500426393	
14.0	81.25348484880669	fix	1.0		444	19.0	male	white	2.243931555909272	neutral	130	sub-10	2.0	1.0	130_neutral	0.0		174.38837662296646	3.7582552256499184
14.0	81.90358517055574	pulse	1.0	t		19.0	male	white	2.243931555909272	neutral	130	sub-10	2.0	1.0	130_neutral	0.0		175.0384769447155	
14.0	82.60356443306591	pulse	1.0	t		19.0	male	white	2.243931555909272	neutral	130	sub-10	2.0	1.0	130_neutral	0.0		175.73845620722568	
14.0	83.30354792155777	pulse	1.0	t		19.0	male	white	2.243931555909272	neutral	130	sub-10	2.0	1.0	130_neutral	0.0		176.43843969571753	
14.0	84.00354167314435	pulse	1.0	t		19.0	male	white	2.243931555909272	neutral	130	sub-10	2.0	1.0	130_neutral	0.0		177.13843344730412	
14.0	84.70353995256664	pulse	1.0	t		19.0	male	white	2.243931555909272	neutral	130	sub-10	2.0	1.0	130_neutral	0.0		177.8384317267264	
15.0	85.01174007445661	face	0.0		146	40.0	male	black	2.408674890569041	neutral	061	sub-10	2.0	1.0	061_neutral	0.0		178.14663184861638	1.241655123201781
15.0	85.40351287610974	pulse	0.0	t		40.0	male	black	2.408674890569041	neutral	061	sub-10	2.0	1.0	061_neutral	0.0		178.5384046502695	
15.0	86.10350421284966	pulse	0.0	t		40.0	male	black	2.408674890569041	neutral	061	sub-10	2.0	1.0	061_neutral	0.0		179.23839598700943	
15.0	86.25339519765839	fix	1.0		444	40.0	male	black	2.408674890569041	neutral	061	sub-10	2.0	1.0	061_neutral	0.0		179.38828697181816	3.766585839766776
15.0	86.80349675701655	pulse	1.0	t		40.0	male	black	2.408674890569041	neutral	061	sub-10	2.0	1.0	061_neutral	0.0		179.93838853117632	
15.0	87.50348658447547	pulse	1.0	t		40.0	male	black	2.408674890569041	neutral	061	sub-10	2.0	1.0	061_neutral	0.0		180.63837835863524	
15.0	88.2034788267847	pulse	1.0	t		40.0	male	black	2.408674890569041	neutral	061	sub-10	2.0	1.0	061_neutral	0.0		181.33837060094447	
15.0	88.90344812805779	pulse	1.0	t		40.0	male	black	2.408674890569041	neutral	061	sub-10	2.0	1.0	061_neutral	0.0		182.03833990221756	
15.0	89.60343916294369	pulse	1.0	t		40.0	male	black	2.408674890569041	neutral	061	sub-10	2.0	1.0	061_neutral	0.0		182.73833093710346	
16.0	90.01998103742517	face	0.0		145	22.0	female	west_asian	3.8205332272184642	smiling	066	sub-10	2.0	1.0	066_smiling	0.0		183.15487281158494	1.2333136422785174
16.0	90.3034229532932	pulse	0.0	t		22.0	female	west_asian	3.8205332272184642	smiling	066	sub-10	2.0	1.0	066_smiling	0.0		183.43831472745296	
16.0	91.00340855477407	pulse	0.0	t		22.0	female	west_asian	3.8205332272184642	smiling	066	sub-10	2.0	1.0	066_smiling	0.0		184.13830032893384	
16.0	91.25329467970369	fix	1.0		444	22.0	female	west_asian	3.8205332272184642	smiling	066	sub-10	2.0	1.0	066_smiling	0.0		184.38818645386345	3.7583850236114813
16.0	91.7034125694554	pulse	1.0	t		22.0	female	west_asian	3.8205332272184642	smiling	066	sub-10	2.0	1.0	066_smiling	0.0		184.83830434361516	
16.0	92.40339877464794	pulse	1.0	t		22.0	female	west_asian	3.8205332272184642	smiling	066	sub-10	2.0	1.0	066_smiling	0.0		185.5382905488077	
16.0	93.10338377242078	pulse	1.0	t		22.0	female	west_asian	3.8205332272184642	smiling	066	sub-10	2.0	1.0	066_smiling	0.0		186.23827554658055	
16.0	93.80336394050028	pulse	1.0	t		22.0	female	west_asian	3.8205332272184642	smiling	066	sub-10	2.0	1.0	066_smiling	0.0		186.93825571466004	
16.0	94.5033570883752	pulse	1.0	t		22.0	female	west_asian	3.8205332272184642	smiling	066	sub-10	2.0	1.0	066_smiling	0.0		187.63824886253497	
17.0	95.01167970331517	face	0.0		146	21.0	male	east_asian/white	3.501790688420215	neutral	036	sub-10	2.0	1.0	036_neutral	0.0		188.14657147747494	1.2415265326635563
17.0	95.20333876573204	pulse	0.0	t		21.0	male	east_asian/white	3.501790688420215	neutral	036	sub-10	2.0	1.0	036_neutral	0.0		188.3382305398918	
17.0	95.9033267820596	pulse	0.0	t		21.0	male	east_asian/white	3.501790688420215	neutral	036	sub-10	2.0	1.0	036_neutral	0.0		189.03821855621936	
17.0	96.25320623597872	fix	1.0		444	21.0	male	east_asian/white	3.501790688420215	neutral	036	sub-10	2.0	1.0	036_neutral	0.0		189.3880980101385	3.766561691310926
17.0	96.60331479838715	pulse	1.0	t		21.0	male	east_asian/white	3.501790688420215	neutral	036	sub-10	2.0	1.0	036_neutral	0.0		189.73820657254691	
17.0	97.30331307780943	pulse	1.0	t		21.0	male	east_asian/white	3.501790688420215	neutral	036	sub-10	2.0	1.0	036_neutral	0.0		190.4382048519692	
17.0	98.0032911328999	pulse	1.0	t		21.0	male	east_asian/white	3.501790688420215	neutral	036	sub-10	2.0	1.0	036_neutral	0.0		191.13818290705967	
17.0	98.7032776399501	pulse	1.0	t		21.0	male	east_asian/white	3.501790688420215	neutral	036	sub-10	2.0	1.0	036_neutral	0.0		191.83816941410987	
17.0	99.40325961916096	pulse	1.0	t		21.0	male	east_asian/white	3.501790688420215	neutral	036	sub-10	2.0	1.0	036_neutral	0.0		192.53815139332073	
18.0	100.01976792728965	face	0.0		145	26.0	female	white	4.854755272582572	neutral	027	sub-10	2.0	1.0	027_neutral	0.0		193.15465970144942	1.2333522798107879
18.0	100.10326755796632	pulse	0.0	t		26.0	female	white	4.854755272582572	neutral	027	sub-10	2.0	1.0	027_neutral	0.0		193.2381593321261	
18.0	100.80325406501652	pulse	0.0	t		26.0	female	white	4.854755272582572	neutral	027	sub-10	2.0	1.0	027_neutral	0.0		193.9381458391763	
18.0	101.25312020710044	fix	1.0		444	26.0	female	white	4.854755272582572	neutral	027	sub-10	2.0	1.0	027_neutral	0.0		194.3880119812602	3.7665924805914983
18.0	101.50322879969463	pulse	1.0	t		26.0	female	white	4.854755272582572	neutral	027	sub-10	2.0	1.0	027_neutral	0.0		194.6381205738544	
18.0	102.20321228818648	pulse	1.0	t		26.0	female	white	4.854755272582572	neutral	027	sub-10	2.0	1.0	027_neutral	0.0		195.33810406234625	
18.0	102.90321086946278	pulse	1.0	t		26.0	female	white	4.854755272582572	neutral	027	sub-10	2.0	1.0	027_neutral	0.0		196.03810264362255	
18.0	103.603202809918	pulse	1.0	t		26.0	female	white	4.854755272582572	neutral	027	sub-10	2.0	1.0	027_neutral	0.0		196.73809458407777	
18.0	104.30318961882222	pulse	1.0	t		26.0	female	white	4.854755272582572	neutral	027	sub-10	2.0	1.0	027_neutral	0.0		197.43808139298199	
19.0	105.01971268769194	face	0.0		146	23.0	male	white	2.6275368085953046	neutral	141	sub-10	2.0	1.0	141_neutral	0.0		198.1546044618517	1.2333308480556298
19.0	105.00611589871187	pulse	0.0	t		23.0	male	white	2.6275368085953046	neutral	141	sub-10	2.0	1.0	141_neutral	0.0		198.14100767287164	
19.0	105.7031544828169	pulse	0.0	t		23.0	male	white	2.6275368085953046	neutral	141	sub-10	2.0	1.0	141_neutral	0.0		198.83804625697667	
19.0	106.25304353574757	fix	1.0		443	23.0	male	white	2.6275368085953046	neutral	141	sub-10	2.0	1.0	141_neutral	0.0		199.38793530990733	3.766585236055107
19.0	106.40315336595086	pulse	1.0	t		23.0	male	white	2.6275368085953046	neutral	141	sub-10	2.0	1.0	141_neutral	0.0		199.53804514011063	
19.0	107.1031259876363	pulse	1.0	t		23.0	male	white	2.6275368085953046	neutral	141	sub-10	2.0	1.0	141_neutral	0.0		200.23801776179607	
19.0	107.8031124946865	pulse	1.0	t		23.0	male	white	2.6275368085953046	neutral	141	sub-10	2.0	1.0	141_neutral	0.0		200.93800426884627	
19.0	108.50311167967448	pulse	1.0	t		23.0	male	white	2.6275368085953046	neutral	141	sub-10	2.0	1.0	141_neutral	0.0		201.63800345383424	
19.0	109.20308882919562	pulse	1.0	t		23.0	male	white	2.6275368085953046	neutral	141	sub-10	2.0	1.0	141_neutral	0.0		202.3379806033554	
19.0	109.9030822789282	pulse	1.0	t		23.0	male	white	2.6275368085953046	neutral	141	sub-10	2.0	1.0	141_neutral	0.0		203.03797405308796	
20.0	110.01962877180267	face	0.0		146	37.0	male	white	3.898925586947871	neutral	101	sub-10	2.0	1.0	101_neutral	0.0		203.15452054596244	1.2333130385668483
20.0	110.60308055835048	pulse	0.0	t		37.0	male	white	3.898925586947871	neutral	101	sub-10	2.0	1.0	101_neutral	0.0		203.73797233251025	
20.0	111.25294181036952	fix	1.0		1184	37.0	male	white	3.898925586947871	neutral	101	sub-10	2.0	1.0	101_neutral	0.0		204.3878335845293	10.016487057484483
20.0	111.30306978210137	pulse	1.0	t		37.0	male	white	3.898925586947871	neutral	101	sub-10	2.0	1.0	101_neutral	0.0		204.43796155626114	
20.0	112.00304270564448	pulse	1.0	t		37.0	male	white	3.898925586947871	neutral	101	sub-10	2.0	1.0	101_neutral	0.0		205.13793447980424	
20.0	112.70304098506676	pulse	1.0	t		37.0	male	white	3.898925586947871	neutral	101	sub-10	2.0	1.0	101_neutral	0.0		205.83793275922653	
20.0	113.40302568098195	pulse	1.0	t		37.0	male	white	3.898925586947871	neutral	101	sub-10	2.0	1.0	101_neutral	0.0		206.53791745514172	
20.0	114.10303029937495	pulse	1.0	t		37.0	male	white	3.898925586947871	neutral	101	sub-10	2.0	1.0	101_neutral	0.0		207.23792207353472	
20.0	114.802995676524	pulse	1.0	t		37.0	male	white	3.898925586947871	neutral	101	sub-10	2.0	1.0	101_neutral	0.0		207.93788745068377	
20.0	115.50299214481129	pulse	1.0	t		37.0	male	white	3.898925586947871	neutral	101	sub-10	2.0	1.0	101_neutral	0.0		208.63788391897106	
20.0	116.20298046299285	pulse	1.0	t		37.0	male	white	3.898925586947871	neutral	101	sub-10	2.0	1.0	101_neutral	0.0		209.33787223715262	
20.0	116.90296063107235	pulse	1.0	t		37.0	male	white	3.898925586947871	neutral	101	sub-10	2.0	1.0	101_neutral	0.0		210.03785240523212	
20.0	117.60293778059713	pulse	1.0	t		37.0	male	white	3.898925586947871	neutral	101	sub-10	2.0	1.0	101_neutral	0.0		210.7378295547569	
20.0	118.30294209713247	pulse	1.0	t		37.0	male	white	3.898925586947871	neutral	101	sub-10	2.0	1.0	101_neutral	0.0		211.43783387129224	
20.0	119.00291683180694	pulse	1.0	t		37.0	male	white	3.898925586947871	neutral	101	sub-10	2.0	1.0	101_neutral	0.0		212.1378086059667	
20.0	119.70290635741549	pulse	1.0	t		37.0	male	white	3.898925586947871	neutral	101	sub-10	2.0	1.0	101_neutral	0.0		212.83779813157525	
20.0	120.40289256260803	pulse	1.0	t		37.0	male	white	3.898925586947871	neutral	101	sub-10	2.0	1.0	101_neutral	0.0		213.5377843367678	
20.0	121.10289235131131	pulse	1.0	t		37.0	male	white	3.898925586947871	neutral	101	sub-10	2.0	1.0	101_neutral	0.0		214.23778412547108	
21.0	121.269428867854	face	0.0		146	31.0	female	east_asian	3.395941106247513	smiling	087	sub-10	2.0	1.0	087_smiling	0.0		214.40432064201377	1.2333242072272697
21.0	121.8028815750622	pulse	0.0	t		31.0	female	east_asian	3.395941106247513	smiling	087	sub-10	2.0	1.0	087_smiling	0.0		214.93777334922197	
21.0	122.50275307508127	fix	1.0		444	31.0	female	east_asian	3.395941106247513	smiling	087	sub-10	2.0	1.0	087_smiling	0.0		215.63764484924104	3.766571954405663
21.0	122.51031305154902	pulse	1.0	t		31.0	female	east_asian	3.395941106247513	smiling	087	sub-10	2.0	1.0	087_smiling	0.0		215.6452048257088	
21.0	123.20284372235255	pulse	1.0	t		31.0	female	east_asian	3.395941106247513	smiling	087	sub-10	2.0	1.0	087_smiling	0.0		216.33773549651232	
21.0	123.90282751270206	pulse	1.0	t		31.0	female	east_asian	3.395941106247513	smiling	087	sub-10	2.0	1.0	087_smiling	0.0		217.03771928686183	
21.0	124.60283303666074	pulse	1.0	t		31.0	female	east_asian	3.395941106247513	smiling	087	sub-10	2.0	1.0	087_smiling	0.0		217.7377248108205	
21.0	125.30281592144092	pulse	1.0	t		31.0	female	east_asian	3.395941106247513	smiling	087	sub-10	2.0	1.0	087_smiling	0.0		218.4377076956007	
21.0	126.00279458024306	pulse	1.0	t		31.0	female	east_asian	3.395941106247513	smiling	087	sub-10	2.0	1.0	087_smiling	0.0		219.13768635440283	
22.0	126.26932502948694	face	0.0		145	25.0	female	black	3.858336649423	neutral	126	sub-10	2.0	1.0	126_neutral	1.0	dominance	219.4042168036467	1.233329338774638
22.0	126.70279467080036	pulse	0.0	t		25.0	female	black	3.858336649423	neutral	126	sub-10	2.0	1.0	126_neutral	1.0	dominance	219.83768644496013	
22.0	127.40278178155859	pulse	0.0	t		25.0	female	black	3.858336649423	neutral	126	sub-10	2.0	1.0	126_neutral	1.0	dominance	220.53767355571836	
22.0	127.50265436826157	fix	1.0		177	25.0	female	black	3.858336649423	neutral	126	sub-10	2.0	1.0	126_neutral	1.0	dominance	220.63754614242134	1.499989284122421
22.0	128.10277553314518	pulse	1.0	t		25.0	female	black	3.858336649423	neutral	126	sub-10	2.0	1.0	126_neutral	1.0	dominance	221.23766730730495	
22.0	128.80275147524662	pulse	1.0	t		25.0	female	black	3.858336649423	neutral	126	sub-10	2.0	1.0	126_neutral	1.0	dominance	221.9376432494064	
22.0	129.002643652384	rating	2.0		295	25.0	female	black	3.858336649423	neutral	126	sub-10	2.0	1.0	126_neutral	1.0	dominance	222.13753542654376	2.499948835455143
22.0	129.49765714684327	pulse	2.0	t		25.0	female	black	3.858336649423	neutral	126	sub-10	2.0	1.0	126_neutral	1.0	dominance	222.63254892100304	
22.0	130.1976457668825	pulse	2.0	t		25.0	female	black	3.858336649423	neutral	126	sub-10	2.0	1.0	126_neutral	1.0	dominance	223.33253754104226	
22.0	130.3027105737965	response	2.0	y		25.0	female	black	3.858336649423	neutral	126	sub-10	2.0	1.0	126_neutral	1.0	dominance	223.43760234795627	
22.0	130.90270073329884	pulse	2.0	t		25.0	female	black	3.858336649423	neutral	126	sub-10	2.0	1.0	126_neutral	1.0	dominance	224.0375925074586	
22.0	131.50259248783914	fix	3.0		443	25.0	female	black	3.858336649423	neutral	126	sub-10	2.0	1.0	126_neutral	1.0	dominance	224.6374842619989	3.76658734904413
22.0	131.60271138880853	pulse	3.0	t		25.0	female	black	3.858336649423	neutral	126	sub-10	2.0	1.0	126_neutral	1.0	dominance	224.7376031629683	
22.0	132.3026969902894	pulse	3.0	t		25.0	female	black	3.858336649423	neutral	126	sub-10	2.0	1.0	126_neutral	1.0	dominance	225.43758876444917	
22.0	133.00267413981055	pulse	3.0	t		25.0	female	black	3.858336649423	neutral	126	sub-10	2.0	1.0	126_neutral	1.0	dominance	226.13756591397032	
22.0	133.70266155242643	pulse	3.0	t		25.0	female	black	3.858336649423	neutral	126	sub-10	2.0	1.0	126_neutral	1.0	dominance	226.8375533265862	
22.0	134.40264322978692	pulse	3.0	t		25.0	female	black	3.858336649423	neutral	126	sub-10	2.0	1.0	126_neutral	1.0	dominance	227.5375350039467	
22.0	135.10262188858542	pulse	3.0	t		25.0	female	black	3.858336649423	neutral	126	sub-10	2.0	1.0	126_neutral	1.0	dominance	228.2375136627452	
23.0	135.26917983688327	face	0.0		146	31.0	female	east_asian	3.395941106247513	neutral	087	sub-10	2.0	1.0	087_neutral	0.0		228.40407161104304	1.2333157552711782
23.0	135.80264220347453	pulse	0.0	t		31.0	female	east_asian	3.395941106247513	neutral	087	sub-10	2.0	1.0	087_neutral	0.0		228.9375339776343	
23.0	136.50249559215445	fix	1.0		444	31.0	female	east_asian	3.395941106247513	neutral	087	sub-10	2.0	1.0	087_neutral	0.0		229.63738736631421	3.758264885032986
23.0	136.5100631150126	pulse	1.0	t		31.0	female	east_asian	3.395941106247513	neutral	087	sub-10	2.0	1.0	087_neutral	0.0		229.64495488917237	
23.0	137.2026094823159	pulse	1.0	t		31.0	female	east_asian	3.395941106247513	neutral	087	sub-10	2.0	1.0	087_neutral	0.0		230.33750125647566	
23.0	137.9025962912201	pulse	1.0	t		31.0	female	east_asian	3.395941106247513	neutral	087	sub-10	2.0	1.0	087_neutral	0.0		231.03748806537988	
23.0	138.6025827982703	pulse	1.0	t		31.0	female	east_asian	3.395941106247513	neutral	087	sub-10	2.0	1.0	087_neutral	0.0		231.73747457243007	
23.0	139.30256990903217	pulse	1.0	t		31.0	female	east_asian	3.395941106247513	neutral	087	sub-10	2.0	1.0	087_neutral	0.0		232.43746168319194	
23.0	140.0025452474183	pulse	1.0	t		31.0	female	east_asian	3.395941106247513	neutral	087	sub-10	2.0	1.0	087_neutral	0.0		233.13743702157808	
24.0	140.26076047718743	face	0.0		146	54.0	female	white	2.286908077994429	smiling	136	sub-10	2.0	1.0	136_smiling	1.0	trustworthiness	233.3956522513472	1.2416593491798267
24.0	140.7025498658113	pulse	0.0	t		54.0	female	white	2.286908077994429	smiling	136	sub-10	2.0	1.0	136_smiling	1.0	trustworthiness	233.83744163997108	
24.0	141.40251765780704	pulse	0.0	t		54.0	female	white	2.286908077994429	smiling	136	sub-10	2.0	1.0	136_smiling	1.0	trustworthiness	234.5374094319668	
24.0	141.50241982636726	fix	1.0		177	54.0	female	white	2.286908077994429	smiling	136	sub-10	2.0	1.0	136_smiling	1.0	trustworthiness	234.63731160052703	1.4999735876263003
24.0	142.10251533351766	pulse	1.0	t		54.0	female	white	2.286908077994429	smiling	136	sub-10	2.0	1.0	136_smiling	1.0	trustworthiness	235.23740710767743	
24.0	142.8025078776809	pulse	1.0	t		54.0	female	white	2.286908077994429	smiling	136	sub-10	2.0	1.0	136_smiling	1.0	trustworthiness	235.93739965184068	
24.0	143.00239341399356	rating	2.0		295	54.0	female	white	2.286908077994429	smiling	136	sub-10	2.0	1.0	136_smiling	1.0	trustworthiness	236.13728518815333	2.499953665144858
24.0	143.49740690845283	pulse	2.0	t		54.0	female	white	2.286908077994429	smiling	136	sub-10	2.0	1.0	136_smiling	1.0	trustworthiness	236.6322986826126	
24.0	144.1974151491122	pulse	2.0	t		54.0	female	white	2.286908077994429	smiling	136	sub-10	2.0	1.0	136_smiling	1.0	trustworthiness	237.33230692327197	
24.0	144.89741312668048	pulse	2.0	t		54.0	female	white	2.286908077994429	smiling	136	sub-10	2.0	1.0	136_smiling	1.0	trustworthiness	238.03230490084024	
24.0	144.9973705348384	response	2.0	b		54.0	female	white	2.286908077994429	smiling	136	sub-10	2.0	1.0	136_smiling	1.0	trustworthiness	238.13226230899818	
24.0	145.50234707913842	fix	3.0		443	54.0	female	white	2.286908077994429	smiling	136	sub-10	2.0	1.0	136_smiling	1.0	trustworthiness	238.6372388532982	3.766569237704971
24.0	145.6024614522721	pulse	3.0	t		54.0	female	white	2.286908077994429	smiling	136	sub-10	2.0	1.0	136_smiling	1.0	trustworthiness	238.73735322643188	
24.0	146.30245007231133	pulse	3.0	t		54.0	female	white	2.286908077994429	smiling	136	sub-10	2.0	1.0	136_smiling	1.0	trustworthiness	239.4373418464711	
24.0	147.00243325894917	pulse	3.0	t		54.0	female	white	2.286908077994429	smiling	136	sub-10	2.0	1.0	136_smiling	1.0	trustworthiness	240.13732503310894	
24.0	147.702411314036	pulse	3.0	t		54.0	female	white	2.286908077994429	smiling	136	sub-10	2.0	1.0	136_smiling	1.0	trustworthiness	240.83730308819577	
24.0	148.40240838603495	pulse	3.0	t		54.0	female	white	2.286908077994429	smiling	136	sub-10	2.0	1.0	136_smiling	1.0	trustworthiness	241.53730016019472	
24.0	149.10240123205585	pulse	3.0	t		54.0	female	white	2.286908077994429	smiling	136	sub-10	2.0	1.0	136_smiling	1.0	trustworthiness	242.23729300621562	
25.0	149.2689163168434	face	0.0		146	25.0	female	west_asian	2.6756864305610826	neutral	064	sub-10	2.0	1.0	064_neutral	0.0		242.40380809100316	1.2333432241393893
25.0	149.8023865316827	pulse	0.0	t		25.0	female	west_asian	2.6756864305610826	neutral	064	sub-10	2.0	1.0	064_neutral	0.0		242.93727830584248	
25.0	150.50225954098278	fix	1.0		444	25.0	female	west_asian	2.6756864305610826	neutral	064	sub-10	2.0	1.0	064_neutral	0.0		243.63715131514255	3.7665855379091226
25.0	150.5098427603407	pulse	1.0	t		25.0	female	west_asian	2.6756864305610826	neutral	064	sub-10	2.0	1.0	064_neutral	0.0		243.64473453450046	
25.0	151.20235381052407	pulse	1.0	t		25.0	female	west_asian	2.6756864305610826	neutral	064	sub-10	2.0	1.0	064_neutral	0.0		244.33724558468384	
25.0	151.90233428045758	pulse	1.0	t		25.0	female	west_asian	2.6756864305610826	neutral	064	sub-10	2.0	1.0	064_neutral	0.0		245.03722605461735	
25.0	152.60232652276682	pulse	1.0	t		25.0	female	west_asian	2.6756864305610826	neutral	064	sub-10	2.0	1.0	064_neutral	0.0		245.73721829692659	
25.0	153.30231967064174	pulse	1.0	t		25.0	female	west_asian	2.6756864305610826	neutral	064	sub-10	2.0	1.0	064_neutral	0.0		246.4372114448015	
25.0	154.00229802758622	pulse	1.0	t		25.0	female	west_asian	2.6756864305610826	neutral	064	sub-10	2.0	1.0	064_neutral	0.0		247.137189801746	
26.0	154.2688450788919	face	0.0		145	24.0	female	east_asian	4.409868682849185	smiling	030	sub-10	2.0	1.0	030_smiling	0.0		247.40373685305167	1.2333251127965923
26.0	154.70229811814352	pulse	0.0	t		24.0	female	east_asian	4.409868682849185	smiling	030	sub-10	2.0	1.0	030_smiling	0.0		247.8371898923033	
26.0	155.40228613447107	pulse	0.0	t		24.0	female	east_asian	4.409868682849185	smiling	030	sub-10	2.0	1.0	030_smiling	0.0		248.53717790863084	
26.0	155.5021701916885	fix	1.0		444	24.0	female	east_asian	4.409868682849185	smiling	030	sub-10	2.0	1.0	030_smiling	0.0		248.63706196584826	3.766587349047768
26.0	156.1022660006929	pulse	1.0	t		24.0	female	east_asian	4.409868682849185	smiling	030	sub-10	2.0	1.0	030_smiling	0.0		249.23715777485268	
26.0	156.8022416409367	pulse	1.0	t		24.0	female	east_asian	4.409868682849185	smiling	030	sub-10	2.0	1.0	030_smiling	0.0		249.93713341509647	
26.0	157.50224716489902	pulse	1.0	t		24.0	female	east_asian	4.409868682849185	smiling	030	sub-10	2.0	1.0	030_smiling	0.0		250.6371389390588	
26.0	158.20223819978128	pulse	1.0	t		24.0	female	east_asian	4.409868682849185	smiling	030	sub-10	2.0	1.0	030_smiling	0.0		251.33712997394105	
26.0	158.90220991590104	pulse	1.0	t		24.0	female	east_asian	4.409868682849185	smiling	030	sub-10	2.0	1.0	030_smiling	0.0		252.0371016900608	
27.0	159.26875754073626	face	0.0		145	24.0	female	black	3.0955033824114606	smiling	099	sub-10	2.0	1.0	099_smiling	1.0	dominance	252.40364931489603	1.233326018362277
27.0	159.6022133268707	pulse	0.0	t		24.0	female	black	3.0955033824114606	smiling	099	sub-10	2.0	1.0	099_smiling	1.0	dominance	252.73710510103047	
27.0	160.3022025506216	pulse	0.0	t		24.0	female	black	3.0955033824114606	smiling	099	sub-10	2.0	1.0	099_smiling	1.0	dominance	253.43709432478136	
27.0	160.50208355909854	fix	1.0		177	24.0	female	black	3.0955033824114606	smiling	099	sub-10	2.0	1.0	099_smiling	1.0	dominance	253.6369753332583	1.4999729839109932
27.0	161.00219147251846	pulse	1.0	t		24.0	female	black	3.0955033824114606	smiling	099	sub-10	2.0	1.0	099_smiling	1.0	dominance	254.13708324667823	
27.0	161.70216258492655	pulse	1.0	t		24.0	female	black	3.0955033824114606	smiling	099	sub-10	2.0	1.0	099_smiling	1.0	dominance	254.83705435908632	
27.0	162.00205654300953	rating	2.0		295	24.0	female	black	3.0955033824114606	smiling	099	sub-10	2.0	1.0	099_smiling	1.0	dominance	255.1369483171693	2.4999545707178186
27.0	162.3970655398225	pulse	2.0	t		24.0	female	black	3.0955033824114606	smiling	099	sub-10	2.0	1.0	099_smiling	1.0	dominance	255.53195731398228	
27.0	163.09703695408461	pulse	2.0	t		24.0	female	black	3.0955033824114606	smiling	099	sub-10	2.0	1.0	099_smiling	1.0	dominance	256.2319287282444	
27.0	163.75211457477417	response	2.0	w		24.0	female	black	3.0955033824114606	smiling	099	sub-10	2.0	1.0	099_smiling	1.0	dominance	256.88700634893394	
27.0	163.79707477660486	pulse	2.0	t		24.0	female	black	3.0955033824114606	smiling	099	sub-10	2.0	1.0	099_smiling	1.0	dominance	256.9319665507646	
27.0	164.50201111372735	fix	3.0		443	24.0	female	black	3.0955033824114606	smiling	099	sub-10	2.0	1.0	099_smiling	1.0	dominance	257.6369028878871	3.7665861416207918
27.0	164.51008605604875	pulse	3.0	t		24.0	female	black	3.0955033824114606	smiling	099	sub-10	2.0	1.0	099_smiling	1.0	dominance	257.6449778302085	
27.0	165.20210568512266	pulse	3.0	t		24.0	female	black	3.0955033824114606	smiling	099	sub-10	2.0	1.0	099_smiling	1.0	dominance	258.33699745928243	
27.0	165.90209521072757	pulse	3.0	t		24.0	female	black	3.0955033824114606	smiling	099	sub-10	2.0	1.0	099_smiling	1.0	dominance	259.03698698488733	
27.0	166.6020838307668	pulse	3.0	t		24.0	female	black	3.0955033824114606	smiling	099	sub-10	2.0	1.0	099_smiling	1.0	dominance	259.73697560492656	
27.0	167.30207758235338	pulse	3.0	t		24.0	female	black	3.0955033824114606	smiling	099	sub-10	2.0	1.0	099_smiling	1.0	dominance	260.43696935651315	
27.0	168.00205956156788	pulse	3.0	t		24.0	female	black	3.0955033824114606	smiling	099	sub-10	2.0	1.0	099_smiling	1.0	dominance	261.13695133572764	
28.0	168.26859725534814	face	0.0		145	22.0	female	west_asian	3.8205332272184642	neutral	066	sub-10	2.0	1.0	066_neutral	0.0		261.4034890295079	1.2333181701142166
28.0	168.7020499927421	pulse	0.0	t		22.0	female	west_asian	3.8205332272184642	neutral	066	sub-10	2.0	1.0	066_neutral	0.0		261.8369417669019	
28.0	169.40203559422298	pulse	0.0	t		22.0	female	west_asian	3.8205332272184642	neutral	066	sub-10	2.0	1.0	066_neutral	0.0		262.53692736838275	
28.0	169.50191542546236	fix	1.0		444	22.0	female	west_asian	3.8205332272184642	neutral	066	sub-10	2.0	1.0	066_neutral	0.0		262.6368071996221	3.7665924805951363
28.0	170.1020332699336	pulse	1.0	t		22.0	female	west_asian	3.8205332272184642	neutral	066	sub-10	2.0	1.0	066_neutral	0.0		263.23692504409337	
28.0	170.80199925079432	pulse	1.0	t		22.0	female	west_asian	3.8205332272184642	neutral	066	sub-10	2.0	1.0	066_neutral	0.0		263.9368910249541	
28.0	171.50200779331135	pulse	1.0	t		22.0	female	west_asian	3.8205332272184642	neutral	066	sub-10	2.0	1.0	066_neutral	0.0		264.6368995674711	
28.0	172.20195385169427	pulse	1.0	t		22.0	female	west_asian	3.8205332272184642	neutral	066	sub-10	2.0	1.0	066_neutral	0.0		265.33684562585404	
28.0	172.90197175174035	pulse	1.0	t		22.0	female	west_asian	3.8205332272184642	neutral	066	sub-10	2.0	1.0	066_neutral	0.0		266.0368635259001	
29.0	173.2685079060575	face	0.0		145	28.0	male	white	3.9076800636689217	smiling	033	sub-10	2.0	1.0	033_smiling	0.0		266.40339968021726	1.2333272257856152
29.0	173.6020566637526	pulse	0.0	t		28.0	male	white	3.9076800636689217	smiling	033	sub-10	2.0	1.0	033_smiling	0.0		266.73694843791236	
29.0	174.30195472707783	pulse	0.0	t		28.0	male	white	3.9076800636689217	smiling	033	sub-10	2.0	1.0	033_smiling	0.0		267.4368465012376	
29.0	174.5018351318431	fix	1.0		444	28.0	male	white	3.9076800636689217	smiling	033	sub-10	2.0	1.0	033_smiling	0.0		267.6367269060029	3.766585236055107
29.0	175.00192915989828	pulse	1.0	t		28.0	male	white	3.9076800636689217	smiling	033	sub-10	2.0	1.0	033_smiling	0.0		268.13682093405805	
29.0	175.70190993168944	pulse	1.0	t		28.0	male	white	3.9076800636689217	smiling	033	sub-10	2.0	1.0	033_smiling	0.0		268.8368017058492	
29.0	176.40189915544033	pulse	1.0	t		28.0	male	white	3.9076800636689217	smiling	033	sub-10	2.0	1.0	033_smiling	0.0		269.5367909296001	
29.0	177.10190196269832	pulse	1.0	t		28.0	male	white	3.9076800636689217	smiling	033	sub-10	2.0	1.0	033_smiling	0.0		270.2367937368581	
29.0	177.80188545119017	pulse	1.0	t		28.0	male	white	3.9076800636689217	smiling	033	sub-10	2.0	1.0	033_smiling	0.0		270.93677722534994	
30.0	178.26842036789822	face	0.0		145	40.0	male	white	1.868682849184242	smiling	172	sub-10	2.0	1.0	172_smiling	1.0	attractiveness	271.403312142058	1.2333242072272697
30.0	178.50188071205412	pulse	0.0	t		40.0	male	white	1.868682849184242	smiling	172	sub-10	2.0	1.0	172_smiling	1.0	attractiveness	271.6367724862139	
30.0	179.20186420054597	pulse	0.0	t		40.0	male	white	1.868682849184242	smiling	172	sub-10	2.0	1.0	172_smiling	1.0	attractiveness	272.33675597470574	
30.0	179.50174457512549	fix	1.0		177	40.0	male	white	1.868682849184242	smiling	172	sub-10	2.0	1.0	172_smiling	1.0	attractiveness	272.63663634928525	1.4999757006153231
30.0	179.90185131130784	pulse	1.0	t		40.0	male	white	1.868682849184242	smiling	172	sub-10	2.0	1.0	172_smiling	1.0	attractiveness	273.0367430854676	
30.0	180.60183872392372	pulse	1.0	t		40.0	male	white	1.868682849184242	smiling	172	sub-10	2.0	1.0	172_smiling	1.0	attractiveness	273.7367304980835	
30.0	181.0017202757408	rating	2.0		294	40.0	male	white	1.868682849184242	smiling	172	sub-10	2.0	1.0	172_smiling	1.0	attractiveness	274.1366120499006	2.499954268860165
30.0	181.29675073449107	pulse	2.0	t		40.0	male	white	1.868682849184242	smiling	172	sub-10	2.0	1.0	172_smiling	1.0	attractiveness	274.43164250865084	
30.0	181.99670826339207	pulse	2.0	t		40.0	male	white	1.868682849184242	smiling	172	sub-10	2.0	1.0	172_smiling	1.0	attractiveness	275.13160003755183	
30.0	182.69668933704088	pulse	2.0	t		40.0	male	white	1.868682849184242	smiling	172	sub-10	2.0	1.0	172_smiling	1.0	attractiveness	275.83158111120065	
30.0	183.38837692482412	response	2.0	n		40.0	male	white	1.868682849184242	smiling	172	sub-10	2.0	1.0	172_smiling	1.0	attractiveness	276.5232686989839	
30.0	183.40490231798321	pulse	2.0	t		40.0	male	white	1.868682849184242	smiling	172	sub-10	2.0	1.0	172_smiling	1.0	attractiveness	276.539794092143	
30.0	183.50167454460097	fix	3.0		444	40.0	male	white	1.868682849184242	smiling	172	sub-10	2.0	1.0	172_smiling	1.0	attractiveness	276.63656631876074	3.7665843304857844
30.0	184.1017815222658	pulse	3.0	t		40.0	male	white	1.868682849184242	smiling	172	sub-10	2.0	1.0	172_smiling	1.0	attractiveness	277.2366732964256	
30.0	184.80176380333432	pulse	3.0	t		40.0	male	white	1.868682849184242	smiling	172	sub-10	2.0	1.0	172_smiling	1.0	attractiveness	277.9366555774941	
30.0	185.50175574378954	pulse	3.0	t		40.0	male	white	1.868682849184242	smiling	172	sub-10	2.0	1.0	172_smiling	1.0	attractiveness	278.6366475179493	
30.0	186.2017174986686	pulse	3.0	t		40.0	male	white	1.868682849184242	smiling	172	sub-10	2.0	1.0	172_smiling	1.0	attractiveness	279.33660927282835	
30.0	186.90172815417463	pulse	3.0	t		40.0	male	white	1.868682849184242	smiling	172	sub-10	2.0	1.0	172_smiling	1.0	attractiveness	280.0366199283344	
31.0	187.26825887508676	face	0.0		145	20.0	female	white	3.9502586549940313	neutral	091	sub-10	2.0	1.0	091_neutral	0.0		280.4031506492465	1.2333160571251938
31.0	187.60172069833789	pulse	0.0	t		20.0	female	white	3.9502586549940313	neutral	091	sub-10	2.0	1.0	091_neutral	0.0		280.73661247249765	
31.0	188.30170267755238	pulse	0.0	t		20.0	female	white	3.9502586549940313	neutral	091	sub-10	2.0	1.0	091_neutral	0.0		281.43659445171215	
31.0	188.50157493221195	fix	1.0		444	20.0	female	white	3.9502586549940313	neutral	091	sub-10	2.0	1.0	091_neutral	0.0		281.6364667063717	3.7665958010074974
31.0	189.00169341058063	pulse	1.0	t		20.0	female	white	3.9502586549940313	neutral	091	sub-10	2.0	1.0	091_neutral	0.0		282.1365851847404	
31.0	189.70166844711275	pulse	1.0	t		20.0	female	white	3.9502586549940313	neutral	091	sub-10	2.0	1.0	091_neutral	0.0		282.8365602212725	
31.0	190.40166340612268	pulse	1.0	t		20.0	female	white	3.9502586549940313	neutral	091	sub-10	2.0	1.0	091_neutral	0.0		283.53655518028245	
31.0	191.10165051688455	pulse	1.0	t		20.0	female	white	3.9502586549940313	neutral	091	sub-10	2.0	1.0	091_neutral	0.0		284.2365422910443	
31.0	191.8016294775407	pulse	1.0	t		20.0	female	white	3.9502586549940313	neutral	091	sub-10	2.0	1.0	091_neutral	0.0		284.93652125170047	
32.0	192.26817073321945	face	0.0		145	20.0	male	black	2.609629924393156	smiling	043	sub-10	2.0	1.0	043_smiling	0.0		285.4030625073792	1.2333263202162925
32.0	192.50162896438633	pulse	0.0	t		20.0	male	black	2.609629924393156	smiling	043	sub-10	2.0	1.0	043_smiling	0.0		285.6365207385461	
32.0	193.20161215102416	pulse	0.0	t		20.0	male	black	2.609629924393156	smiling	043	sub-10	2.0	1.0	043_smiling	0.0		286.33650392518393	
32.0	193.50149705343574	fix	1.0		444	20.0	male	black	2.609629924393156	smiling	043	sub-10	2.0	1.0	043_smiling	0.0		286.6363888275955	3.7665553523402195
32.0	193.901593828381	pulse	1.0	t		20.0	male	black	2.609629924393156	smiling	043	sub-10	2.0	1.0	043_smiling	0.0		287.0364856025408	
32.0	194.6015857688326	pulse	1.0	t		20.0	male	black	2.609629924393156	smiling	043	sub-10	2.0	1.0	043_smiling	0.0		287.73647754299236	
32.0	195.30158857609058	pulse	1.0	t		20.0	male	black	2.609629924393156	smiling	043	sub-10	2.0	1.0	043_smiling	0.0		288.43648035025035	
32.0	196.00155395323964	pulse	1.0	t		20.0	male	black	2.609629924393156	smiling	043	sub-10	2.0	1.0	043_smiling	0.0		289.1364457273994	
32.0	196.7015519308079	pulse	1.0	t		20.0	male	black	2.609629924393156	smiling	043	sub-10	2.0	1.0	043_smiling	0.0		289.8364437049677	
33.0	197.26805240577596	face	0.0		145	19.0	male	white	2.243931555909272	smiling	130	sub-10	2.0	1.0	130_smiling	0.0		290.40294417993573	1.2333580150698253
33.0	197.40154206012448	pulse	0.0	t		19.0	male	white	2.243931555909272	smiling	130	sub-10	2.0	1.0	130_smiling	0.0		290.53643383428425	
33.0	198.10152705789733	pulse	0.0	t		19.0	male	white	2.243931555909272	smiling	130	sub-10	2.0	1.0	130_smiling	0.0		291.2364188320571	
33.0	198.5014104208458	fix	1.0		444	19.0	male	white	2.243931555909272	smiling	130	sub-10	2.0	1.0	130_smiling	0.0		291.63630219500556	3.7665837267777533
33.0	198.801530770721	pulse	1.0	t		19.0	male	white	2.243931555909272	smiling	130	sub-10	2.0	1.0	130_smiling	0.0		291.93642254488077	
33.0	199.50167726130167	pulse	1.0	t		19.0	male	white	2.243931555909272	smiling	130	sub-10	2.0	1.0	130_smiling	0.0		292.63656903546143	
33.0	200.2015068033761	pulse	1.0	t		19.0	male	white	2.243931555909272	smiling	130	sub-10	2.0	1.0	130_smiling	0.0		293.3363985775359	
33.0	200.90146372856543	pulse	1.0	t		19.0	male	white	2.243931555909272	smiling	130	sub-10	2.0	1.0	130_smiling	0.0		294.0363555027252	
33.0	201.60144872633828	pulse	1.0	t		19.0	male	white	2.243931555909272	smiling	130	sub-10	2.0	1.0	130_smiling	0.0		294.73634050049805	
34.0	202.26799414762354	face	0.0		145	26.0	female	white	4.854755272582572	smiling	027	sub-10	2.0	1.0	027_smiling	0.0		295.4028859217833	1.2333151515558711
34.0	202.301458174421	pulse	0.0	t		26.0	female	white	4.854755272582572	smiling	027	sub-10	2.0	1.0	027_smiling	0.0		295.43634994858076	
34.0	203.00145041673022	pulse	0.0	t		26.0	female	white	4.854755272582572	smiling	027	sub-10	2.0	1.0	027_smiling	0.0		296.13634219089	
34.0	203.5013092991794	fix	1.0		443	26.0	female	white	4.854755272582572	smiling	027	sub-10	2.0	1.0	027_smiling	0.0		296.6362010733392	3.76659398987249
34.0	203.70141760501065	pulse	1.0	t		26.0	female	white	4.854755272582572	smiling	027	sub-10	2.0	1.0	027_smiling	0.0		296.8363093791704	
34.0	204.40141739371393	pulse	1.0	t		26.0	female	white	4.854755272582572	smiling	027	sub-10	2.0	1.0	027_smiling	0.0		297.5363091678737	
34.0	205.10139454323507	pulse	1.0	t		26.0	female	white	4.854755272582572	smiling	027	sub-10	2.0	1.0	027_smiling	0.0		298.23628631739484	
34.0	205.80138346513195	pulse	1.0	t		26.0	female	white	4.854755272582572	smiling	027	sub-10	2.0	1.0	027_smiling	0.0		298.9362752392917	
34.0	206.50137268888284	pulse	1.0	t		26.0	female	white	4.854755272582572	smiling	027	sub-10	2.0	1.0	027_smiling	0.0		299.6362644630426	
34.0	207.2013564792287	pulse	1.0	t		26.0	female	white	4.854755272582572	smiling	027	sub-10	2.0	1.0	027_smiling	0.0		300.3362482533885	
35.0	207.2679032890519	face	0.0		146	28.0	male	east_asian	1.5563072025467568	neutral	005	sub-10	2.0	1.0	005_neutral	0.0		300.40279506321167	1.233329338774638
35.0	207.9013493252496	pulse	0.0	t		28.0	male	east_asian	1.5563072025467568	neutral	005	sub-10	2.0	1.0	005_neutral	0.0		301.0362410994094	
35.0	208.50123262782654	fix	1.0		443	28.0	male	east_asian	1.5563072025467568	neutral	005	sub-10	2.0	1.0	005_neutral	0.0		301.6361244019863	3.766586745336099
35.0	208.60133522858814	pulse	1.0	t		28.0	male	east_asian	1.5563072025467568	neutral	005	sub-10	2.0	1.0	005_neutral	0.0		301.7362270027479	
35.0	209.30132898017473	pulse	1.0	t		28.0	male	east_asian	1.5563072025467568	neutral	005	sub-10	2.0	1.0	005_neutral	0.0		302.4362207543345	
35.0	210.00131307237825	pulse	1.0	t		28.0	male	east_asian	1.5563072025467568	neutral	005	sub-10	2.0	1.0	005_neutral	0.0		303.136204846538	
35.0	210.7013010887058	pulse	1.0	t		28.0	male	east_asian	1.5563072025467568	neutral	005	sub-10	2.0	1.0	005_neutral	0.0		303.8361928628656	
35.0	211.40129272729973	pulse	1.0	t		28.0	male	east_asian	1.5563072025467568	neutral	005	sub-10	2.0	1.0	005_neutral	0.0		304.5361845014595	
35.0	212.10128678074398	pulse	1.0	t		28.0	male	east_asian	1.5563072025467568	neutral	005	sub-10	2.0	1.0	005_neutral	0.0		305.23617855490374	
36.0	212.26781937316264	face	0.0		146	40.0	male	black	2.408674890569041	smiling	061	sub-10	2.0	1.0	061_smiling	0.0		305.4027111473224	1.233320584960893
36.0	212.80126755253514	pulse	0.0	t		40.0	male	black	2.408674890569041	smiling	061	sub-10	2.0	1.0	061_smiling	0.0		305.9361593266949	
36.0	213.50113995812353	fix	1.0		444	40.0	male	black	2.408674890569041	smiling	061	sub-10	2.0	1.0	061_smiling	0.0		306.6360317322833	3.766587952755799
36.0	213.5087853597579	pulse	1.0	t		40.0	male	black	2.408674890569041	smiling	061	sub-10	2.0	1.0	061_smiling	0.0		306.64367713391766	
36.0	214.20124479261358	pulse	1.0	t		40.0	male	black	2.408674890569041	smiling	061	sub-10	2.0	1.0	061_smiling	0.0		307.33613656677335	
36.0	214.90122405512375	pulse	1.0	t		40.0	male	black	2.408674890569041	smiling	061	sub-10	2.0	1.0	061_smiling	0.0		308.0361158292835	
36.0	215.60121448629798	pulse	1.0	t		40.0	male	black	2.408674890569041	smiling	061	sub-10	2.0	1.0	061_smiling	0.0		308.73610626045775	
36.0	216.30119374881178	pulse	1.0	t		40.0	male	black	2.408674890569041	smiling	061	sub-10	2.0	1.0	061_smiling	0.0		309.43608552297155	
36.0	217.00120349875215	pulse	1.0	t		40.0	male	black	2.408674890569041	smiling	061	sub-10	2.0	1.0	061_smiling	0.0		310.1360952729119	
37.0	217.26772791087933	face	0.0		145	20.0	male	black	3.1070433744528456	smiling	082	sub-10	2.0	1.0	082_smiling	0.0		310.4026196850391	1.233326622073946
37.0	217.70118396868565	pulse	0.0	t		20.0	male	black	3.1070433744528456	smiling	082	sub-10	2.0	1.0	082_smiling	0.0		310.8360757428454	
37.0	218.40116021264112	pulse	0.0	t		20.0	male	black	3.1070433744528456	smiling	082	sub-10	2.0	1.0	082_smiling	0.0		311.5360519868009	
37.0	218.50105453295328	fix	1.0		444	20.0	male	black	3.1070433744528456	smiling	082	sub-10	2.0	1.0	082_smiling	0.0		311.63594630711304	3.7665843304894224
37.0	219.10116241618744	pulse	1.0	t		20.0	male	black	3.1070433744528456	smiling	082	sub-10	2.0	1.0	082_smiling	0.0		312.2360541903472	
37.0	219.8011344341612	pulse	1.0	t		20.0	male	black	3.1070433744528456	smiling	082	sub-10	2.0	1.0	082_smiling	0.0		312.936026208321	
37.0	220.5011236579121	pulse	1.0	t		20.0	male	black	3.1070433744528456	smiling	082	sub-10	2.0	1.0	082_smiling	0.0		313.6360154320719	
37.0	221.2011029204259	pulse	1.0	t		20.0	male	black	3.1070433744528456	smiling	082	sub-10	2.0	1.0	082_smiling	0.0		314.3359946945857	
37.0	221.90109727572417	pulse	1.0	t		20.0	male	black	3.1070433744528456	smiling	082	sub-10	2.0	1.0	082_smiling	0.0		315.03598904988394	
38.0	222.2676388634427	face	0.0		145	28.0	female	white	5.676880222841227	neutral	124	sub-10	2.0	1.0	124_neutral	0.0		315.40253063760247	1.2333251127965923
38.0	222.60110098854784	pulse	0.0	t		28.0	female	white	5.676880222841227	neutral	124	sub-10	2.0	1.0	124_neutral	0.0		315.7359927627076	
38.0	223.30107934549233	pulse	0.0	t		28.0	female	white	5.676880222841227	neutral	124	sub-10	2.0	1.0	124_neutral	0.0		316.4359711196521	
38.0	223.5009639762393	fix	1.0		444	28.0	female	white	5.676880222841227	neutral	124	sub-10	2.0	1.0	124_neutral	0.0		316.63585575039906	3.766584028631769
38.0	224.00105830615212	pulse	1.0	t		28.0	female	white	5.676880222841227	neutral	124	sub-10	2.0	1.0	124_neutral	0.0		317.1359500803119	
38.0	224.70105085031537	pulse	1.0	t		28.0	female	white	5.676880222841227	neutral	124	sub-10	2.0	1.0	124_neutral	0.0		317.83594262447514	
38.0	225.4010370555079	pulse	1.0	t		28.0	female	white	5.676880222841227	neutral	124	sub-10	2.0	1.0	124_neutral	0.0		318.5359288296677	
38.0	226.1010289959595	pulse	1.0	t		28.0	female	white	5.676880222841227	neutral	124	sub-10	2.0	1.0	124_neutral	0.0		319.23592077011926	
38.0	226.80100735290398	pulse	1.0	t		28.0	female	white	5.676880222841227	neutral	124	sub-10	2.0	1.0	124_neutral	0.0		319.93589912706375	
39.0	227.26754800487106	face	0.0		145	31.0	female	white	2.1822522881018704	smiling	102	sub-10	2.0	1.0	102_smiling	0.0		320.40243977903083	1.2333269239315996
39.0	227.50100895274227	pulse	0.0	t		31.0	female	white	2.1822522881018704	smiling	102	sub-10	2.0	1.0	102_smiling	0.0		320.63590072690204	
39.0	228.20098459298242	pulse	0.0	t		31.0	female	white	2.1822522881018704	smiling	102	sub-10	2.0	1.0	102_smiling	0.0		321.3358763671422	
39.0	228.50087492880266	fix	1.0		444	31.0	female	white	2.1822522881018704	smiling	102	sub-10	2.0	1.0	102_smiling	0.0		321.6357667029624	3.749934572773782
39.0	228.90098377797403	pulse	1.0	t		31.0	female	white	2.1822522881018704	smiling	102	sub-10	2.0	1.0	102_smiling	0.0		322.0358755521338	
39.0	229.60096364419587	pulse	1.0	t		31.0	female	white	2.1822522881018704	smiling	102	sub-10	2.0	1.0	102_smiling	0.0		322.73585541835564	
39.0	230.30095467908177	pulse	1.0	t		31.0	female	white	2.1822522881018704	smiling	102	sub-10	2.0	1.0	102_smiling	0.0		323.43584645324154	
39.0	231.00094148798598	pulse	1.0	t		31.0	female	white	2.1822522881018704	smiling	102	sub-10	2.0	1.0	102_smiling	0.0		324.13583326214575	
39.0	231.70092467462382	pulse	1.0	t		31.0	female	white	2.1822522881018704	smiling	102	sub-10	2.0	1.0	102_smiling	0.0		324.8358164487836	
40.0	232.25080950157644	fix	0.0		720													325.3857012757362	5.9998813707024965
40.0	232.40091993548776	pulse	0.0	t														325.53581170964753	
40.0	233.10091066851965	pulse	0.0	t														326.2358024426794	
40.0	233.80088872360648	pulse	0.0	t														326.93578049776625	
40.0	234.5008773436457	pulse	0.0	t														327.63576911780547	
40.0	235.20085720987117	pulse	0.0	t														328.33574898403094	
40.0	235.90084100021704	pulse	0.0	t														329.0357327743768	
40.0	236.60082901654823	pulse	0.0	t														329.735720790708	
40.0	237.30081220318243	pulse	0.0	t														330.4357039773422	
40.0	238.00082768838183	pulse	0.0	t														331.1357194625416	
