trial_nr	onset	event_type	phase	response	nr_frames	rating_type	face_id	repetition	session	rating	onset_abs	duration
0.0	0.004621121747277357	cue	0.0		480						39.27348232569602	4.000483574174723
0.0	4.005104695922	fix	1.0		120						43.273965899870745	1.0170591204141601
0.0	5.02216381633616	face	0.0		147	attractiveness	064	1.0	2		44.291025020284906	1.2834583824351284
0.0	6.305622198771289	rating	1.0		249	attractiveness	064	1.0	2		45.574483402720034	2.083335345710566
0.0	8.388957544481855	fix	2.0		60	attractiveness	064	1.0	2	-2.05	47.6578187484306	0.516755452736561
1.0	8.905712997218416	face	0.0		147	attractiveness	062	1.0	2		48.17457420116716	1.2334673173886586
1.0	10.139180314607074	rating	1.0		203	attractiveness	062	1.0	2		49.40804151855582	1.6918654492592395
1.0	11.831045763866314	fix	2.0		60	attractiveness	062	1.0	2	-1.8199999999999998	51.09990696781506	0.516747604466218
2.0	12.347793368332532	face	0.0		147	attractiveness	087	1.0	2		51.61665457228128	1.2334597709755144
2.0	13.581253139308046	rating	1.0		255	attractiveness	087	1.0	2		52.85011434325679	2.1252553706317485
2.0	15.706508509939795	fix	2.0		60	attractiveness	087	1.0	2	-1.4700000000000002	54.97536971388854	0.5167494156057728
3.0	16.223257925545568	face	0.0		147	attractiveness	070	1.0	2		55.49211912949431	1.2334615821146144
3.0	17.456719507660182	rating	1.0		177	attractiveness	070	1.0	2		56.72558071160893	1.4835131995823758
3.0	18.940232707242558	fix	2.0		60	attractiveness	070	1.0	2	-3.06	58.2090939111913	0.5167527360276836
4.0	19.45698544327024	face	0.0		147	attractiveness	042	1.0	2		58.72584664721899	1.2334652043932692
4.0	20.69045064766351	rating	1.0		175	attractiveness	042	1.0	2		59.959311851612256	1.4668383425419051
4.0	22.157288990205416	fix	2.0		60	attractiveness	042	1.0	2	2.0599999999999996	61.42615019415416	0.5167512267448728
5.0	22.67404021695029	face	0.0		147	attractiveness	137	1.0	2		61.942901420899034	1.2334633932541692
5.0	23.907503610204458	rating	1.0		173	attractiveness	137	1.0	2		63.1763648141532	1.4501659003535678
5.0	25.357669510558026	fix	2.0		60	attractiveness	137	1.0	2	1.38	64.62653071450677	0.5167578675886944
6.0	25.87442737814672	face	0.0		147	attractiveness	033	1.0	2		65.14328858209547	1.2334561486968596
6.0	27.10788352684358	rating	1.0		154	attractiveness	033	1.0	2		66.37674473079232	1.2834837383848026
6.0	28.391367265228382	fix	2.0		60	attractiveness	033	1.0	2	0.5599999999999996	67.66022846917713	0.5167518304579062
7.0	28.90811909568629	face	0.0		147	attractiveness	100	1.0	2		68.17698029963503	1.23346852481518
7.0	30.14158762050147	rating	1.0		181	attractiveness	100	1.0	2		69.41044882445021	1.5085054116839274
7.0	31.650093032185396	fix	2.0		60	attractiveness	100	1.0	2	2.38	70.91895423613414	0.5167500193188062
8.0	32.1668430515042	face	0.0		147	attractiveness	039	1.0	2		71.43570425545295	1.2334649025365252
8.0	33.40030795404073	rating	1.0		138	attractiveness	039	1.0	2		72.66916915798947	1.1501358958134915
8.0	34.55044384985422	fix	2.0		60	attractiveness	039	1.0	2	2.6500000000000004	73.81930505380296	0.5167578675886944
9.0	35.06720171744291	face	0.0		147	attractiveness	130	1.0	2		74.33606292139166	1.2334597709755144
9.0	36.30066148841843	rating	1.0		258	attractiveness	130	1.0	2		75.56952269236717	2.1502575439985776
9.0	38.450919032417005	fix	2.0		60	attractiveness	130	1.0	2	-0.25	77.71978023636575	0.5167448877577954
10.0	38.9676639201748	face	0.0		147	attractiveness	006	1.0	2		78.23652512412355	1.2334706378105693
10.0	40.20113455798537	rating	1.0		184	attractiveness	006	1.0	2		79.46999576193411	1.5335069813381779
10.0	41.73464153932355	fix	2.0		60	attractiveness	006	1.0	2	-2.84	81.00350274327229	0.5167533397407169
11.0	42.251394879064264	face	0.0		147	attractiveness	117	1.0	2		81.52025608301301	1.233458865405737
11.0	43.48485374447	rating	1.0		136	attractiveness	117	1.0	2		82.75371494841875	1.1334758297434746
11.0	44.618329574213476	fix	2.0		60	attractiveness	117	1.0	2	0.6299999999999999	83.88719077816222	0.5167485100359954
12.0	45.13507808424947	face	0.0		147	attractiveness	091	1.0	2		84.40393928819822	1.2334667136756252
12.0	46.3685447979251	rating	1.0		157	attractiveness	091	1.0	2		85.63740600187384	1.31681322807799
12.0	47.68535802600309	fix	2.0		60	attractiveness	091	1.0	2	1.0099999999999998	86.95421922995183	0.5167626972934158
13.0	48.2021207232965	face	0.0		147	attractiveness	011	1.0	2		87.47098192724525	1.2334519227056262
13.0	49.43557264600213	rating	1.0		130	attractiveness	011	1.0	2		88.70443384995087	1.0834669551609295
13.0	50.51903960116306	fix	2.0		61	attractiveness	011	1.0	2	-1.35	89.7879008051118	0.5250788449279753
14.0	51.04411844609103	face	0.0		146	attractiveness	024	1.0	2		90.31297965003978	1.2251330583621893
14.0	52.26925150445322	rating	1.0		188	attractiveness	024	1.0	2		91.53811270840197	1.575182804319411
14.0	53.844434308772634	fix	2.0		60	attractiveness	024	1.0	2	0.7400000000000002	93.11329551272138	0.5167578675891491
15.0	54.36119217636178	face	0.0		147	attractiveness	124	1.0	2		93.63005338031053	1.233481202789335
15.0	55.59467337915112	rating	1.0		448	attractiveness	124	1.0	2		94.86353458309986	3.733762533083791
15.0	59.32843591223491	fix	2.0		60	attractiveness	124	1.0	2	3.7199999999999998	98.59729711618365	0.5167503211750955
16.0	59.845186233410004	face	0.0		147	attractiveness	121	1.0	2		99.11404743735875	1.233454941270793
16.0	61.0786411746808	rating	1.0		242	attractiveness	121	1.0	2		100.34750237862954	2.025246979019812
16.0	63.10388815370061	fix	2.0		60	attractiveness	121	1.0	2	1.1500000000000004	102.37274935764935	0.5167488118927395
17.0	63.62063696559335	face	0.0		147	attractiveness	126	1.0	2		102.8894981695421	1.2334658081063026
17.0	64.85410277369965	rating	1.0		423	attractiveness	126	1.0	2		104.1229639776484	3.5254151131116487
17.0	68.3795178868113	fix	2.0		60	attractiveness	126	1.0	2	1.5499999999999998	107.64837909076005	0.5167750734112815
18.0	68.89629296022258	face	0.0		147	attractiveness	018	1.0	2		108.16515416417133	1.233490862198778
18.0	70.12978382242136	rating	1.0		235	attractiveness	018	1.0	2		109.3986450263701	1.9668549446519137
18.0	72.09663876707327	fix	2.0		60	attractiveness	018	1.0	2	0.9900000000000002	111.36549997102202	0.5167542453100396
19.0	72.61339301238331	face	0.0		147	attractiveness	005	1.0	2		111.88225421633206	1.2334615821146144
19.0	73.84685459449793	rating	1.0		163	attractiveness	005	1.0	2		113.11571579844667	1.3584857306377671
19.0	75.2053403251357	fix	2.0		60	attractiveness	005	1.0	2	-2.4	114.47420152908444	0.5167521323146502
20.0	75.72209245745034	face	0.0		147	attractiveness	144	1.0	2		114.99095366139909	1.2334606765452918
20.0	76.95555313399564	rating	1.0		286	attractiveness	144	1.0	2		116.22441433794438	2.383618306029348
20.0	79.33917144002498	fix	2.0		60	attractiveness	144	1.0	2	-0.81	118.60803264397373	0.5167696399935267
21.0	79.85594108001851	face	0.0		147	attractiveness	027	1.0	2		119.12480228396726	1.2334941826211434
21.0	81.08943526263965	rating	1.0		135	attractiveness	027	1.0	2		120.3582964665884	1.133423306705481
21.0	82.22285856934514	fix	2.0		60	attractiveness	027	1.0	2	1.7999999999999998	121.49171977329388	0.5167551508798169
22.0	82.73961372022495	face	0.0		147	attractiveness	172	1.0	2		122.0084749241737	1.2334504134228155
22.0	83.97306413364777	rating	1.0		595	attractiveness	172	1.0	2		123.24192533759651	4.958974677858805
22.0	88.93203881150657	fix	2.0		60	attractiveness	172	1.0	2	-3.59	128.20090001545532	0.5167083631163223
23.0	89.4487471746229	face	0.0		147	attractiveness	036	1.0	2		128.71760837857164	1.2334667136756252
23.0	90.68221388829852	rating	1.0		732	attractiveness	036	1.0	2		129.95107509224727	6.100731639878177
23.0	96.7829455281767	fix	2.0		61	attractiveness	036	1.0	2	2.76	136.05180673212544	0.5250888061937076
24.0	97.3080343343704	face	0.0		146	attractiveness	012	1.0	2		136.57689553831915	1.2251194748178023
24.0	98.5331538091882	rating	1.0		358	attractiveness	012	1.0	2		137.80201501313695	2.983692502366466
24.0	101.51684631155467	fix	2.0		60	attractiveness	012	1.0	2	3.7800000000000002	140.78570751550342	0.5167539434537503
25.0	102.03360025500842	face	0.0		147	attractiveness	030	1.0	2		141.30246145895717	1.233457356123381
25.0	103.2670576111318	rating	1.0		326	attractiveness	030	1.0	2		142.53591881508055	2.7253337929601003
25.0	105.9923914040919	fix	2.0		60	attractiveness	030	1.0	2	3.0599999999999996	145.26125260804065	0.5167506230318395
26.0	106.50914202712374	face	0.0		147	attractiveness	061	1.0	2		145.7780032310725	1.2334636951104585
26.0	107.7426057222342	rating	1.0		249	attractiveness	061	1.0	2		147.01146692618295	2.083572303092751
26.0	109.82617802532695	fix	2.0		60	attractiveness	061	1.0	2	-1.04	149.0950392292757	0.5167530378844276
27.0	110.34293106321138	face	0.0		147	attractiveness	043	1.0	2		149.61179226716013	1.2334597709755144
27.0	111.5763908341869	rating	1.0		482	attractiveness	043	1.0	2		150.84525203813564	4.017152092227661
27.0	115.59354292641456	fix	2.0		60	attractiveness	043	1.0	2	0.41999999999999993	154.8624041303633	0.5167479063234168
28.0	116.11029083273797	face	0.0		147	attractiveness	092	1.0	2		155.37915203668672	1.233468222958436
28.0	117.34375905569641	rating	1.0		130	attractiveness	092	1.0	2		156.61262025964515	1.0917882343564997
28.0	118.43554729005291	fix	2.0		60	attractiveness	092	1.0	2	0.9100000000000001	157.70440849400165	0.5167539434537503
29.0	118.95230123350666	face	0.0		147	attractiveness	099	1.0	2		158.2211624374554	1.2334679211021466
29.0	120.1857691546088	rating	1.0		104	attractiveness	099	1.0	2		159.45463035855755	0.8750950848093453
29.0	121.06086423941815	fix	2.0		60	attractiveness	099	1.0	2	-1.31	160.3297254433669	0.5167587731584717
30.0	121.57762301257662	face	0.0		147	attractiveness	082	1.0	2		160.84648421652537	1.233455243127537
30.0	122.81107825570416	rating	1.0		147	attractiveness	082	1.0	2		162.0799394596529	1.2334866362070898
30.0	124.04456489191125	fix	2.0		60	attractiveness	082	1.0	2	1.3600000000000003	163.31342609586	0.5167521323146502
31.0	124.5613170242259	face	0.0		147	attractiveness	136	1.0	2		163.83017822817465	1.2334534319879822
31.0	125.79477045621388	rating	1.0		132	attractiveness	136	1.0	2		165.06363166016263	1.1084718452370907
31.0	126.90324230145097	fix	2.0		60	attractiveness	136	1.0	2	-2.51	166.17210350539972	0.5167479063229621
32.0	127.41999020777394	face	0.0		147	attractiveness	038	1.0	2		166.68885141172268	1.2334585635494477
32.0	128.65344877132338	rating	1.0		203	attractiveness	038	1.0	2		167.92230997527213	1.6918745049551944
32.0	130.34532327627858	fix	2.0		60	attractiveness	038	1.0	2	-3.69	169.61418448022732	0.5167482081797061
33.0	130.86207148445828	face	0.0		147	attractiveness	102	1.0	2		170.13093268840703	1.2334661099625919
33.0	132.09553759442088	rating	1.0		221	attractiveness	102	1.0	2		171.36439879836962	1.850206107644226
33.0	133.9457437020651	fix	2.0		60	attractiveness	102	1.0	2	1.1600000000000001	173.21460490601385	0.516766923285104
34.0	134.4625106253502	face	0.0		147	attractiveness	044	1.0	2		173.73137182929895	1.2334522245619155
34.0	135.69596284991212	rating	1.0		453	attractiveness	044	1.0	2		174.96482405386087	3.783795556189034
34.0	139.47975840610115	fix	2.0		60	attractiveness	044	1.0	2	0.4800000000000004	178.7486196100499	0.5167518304579062
35.0	139.99651023655906	face	0.0		147	attractiveness	034	1.0	2		179.2653714405078	1.2334522245619155
35.0	141.22996246112098	rating	1.0		369	attractiveness	034	1.0	2		180.49882366506972	3.0753759925041777
35.0	144.30533845362515	fix	2.0		60	attractiveness	034	1.0	2	-1.0099999999999998	183.5741996575739	0.5167560564495943
36.0	144.82209451007475	face	0.0		147	attractiveness	009	1.0	2		184.0909557140235	1.2334579598364144
36.0	146.05555246991116	rating	1.0		304	attractiveness	009	1.0	2		185.3244136738599	2.541970133106588
36.0	148.59752260301775	fix	2.0		60	attractiveness	009	1.0	2	1.33	187.8663838069665	0.5167530378839729
37.0	149.11427564090172	face	0.0		147	attractiveness	101	1.0	2		188.38313684485047	1.2334528282754036
37.0	150.34772846917713	rating	1.0		282	attractiveness	101	1.0	2		189.61658967312587	2.35028006249604
37.0	152.69800853167317	fix	2.0		60	attractiveness	101	1.0	2	2.8099999999999996	191.9668697356219	0.516753641597461
38.0	153.21476217327063	face	0.0		147	attractiveness	066	1.0	2		192.48362337721937	1.2334603746885477
38.0	154.44822254795918	rating	1.0		492	attractiveness	066	1.0	2		193.71708375190792	4.10049890848677
38.0	158.54872145644595	fix	2.0		60	attractiveness	066	1.0	2	-1.29	197.8175826603947	0.5167533397407169
39.0	159.06547479618666	face	0.0		147	attractiveness	141	1.0	2		198.3343360001354	1.2334603746885477
39.0	160.2989351708752	rating	1.0		575	attractiveness	141	1.0	2		199.56779637482396	4.792240294708336
39.0	165.09117546558355	fix	2.0		60	attractiveness	141	1.0	2	2.37	204.3600366695323	0.5000630880167591
40.0	165.5912385536003	cue	0.0		480						204.86009975754905	4.000473311052247
40.0	169.59171186465255	fix	1.0		120						208.8605730686013	1.0168137110485986
40.0	170.60852557570115	face	0.0		147	trustworthiness	038	1.0	2		209.8773867796499	1.2334673173882038
40.0	171.84199289308935	rating	1.0		287	trustworthiness	038	1.0	2		211.1108540970381	2.400285918513873
40.0	174.24227881160323	fix	2.0		60	trustworthiness	038	1.0	2	-1.2599999999999998	213.51114001555197	0.5167521323146502
41.0	174.75903094391788	face	0.0		147	trustworthiness	018	1.0	2		214.02789214786662	1.233462185827193
41.0	175.99249312974507	rating	1.0		132	trustworthiness	018	1.0	2		215.26135433369382	1.108455243127537
41.0	177.1009483728726	fix	2.0		60	trustworthiness	018	1.0	2	1.04	216.36980957682135	0.5167593768719598
42.0	177.61770774974457	face	0.0		147	trustworthiness	064	1.0	2		216.8865689536933	1.2334639969667478
42.0	178.85117174671132	rating	1.0		546	trustworthiness	064	1.0	2		218.12003295066006	4.55887047698161
42.0	183.41004222369293	fix	2.0		60	trustworthiness	064	1.0	2	-1.5299999999999998	222.67890342764167	0.516783525394203
43.0	183.92682574908713	face	0.0		147	trustworthiness	030	1.0	2		223.19568695303587	1.2334386410175284
43.0	185.16026439010466	rating	1.0		278	trustworthiness	030	1.0	2		224.4291255940534	2.3252772854166324
43.0	187.4855416755213	fix	2.0		60	trustworthiness	030	1.0	2	2.33	226.75440287947004	0.5167551508802717
44.0	188.00229682640156	face	0.0		147	trustworthiness	005	1.0	2		227.2711580303503	1.2334570542661822
44.0	189.23575388066774	rating	1.0		427	trustworthiness	005	1.0	2		228.5046150846165	3.567088219384459
44.0	192.8028421000522	fix	2.0		60	trustworthiness	005	1.0	2	-2.81	232.07170330400095	0.5167515286011621
45.0	193.31959362865337	face	0.0		147	trustworthiness	091	1.0	2		232.5884548326021	1.2334612802587799
45.0	194.55305490891215	rating	1.0		200	trustworthiness	091	1.0	2		233.8219161128609	1.675199647914269
45.0	196.2282545568264	fix	2.0		60	trustworthiness	091	1.0	2	1.5300000000000002	235.49711576077516	0.5167581694449837
46.0	196.7450127262714	face	0.0		147	trustworthiness	062	1.0	2		236.01387393022014	1.2334600728327132
46.0	197.9784727991041	rating	1.0		177	trustworthiness	062	1.0	2		237.24733400305286	1.4835110865869865
46.0	199.4619838856911	fix	2.0		60	trustworthiness	062	1.0	2	-0.41999999999999993	238.73084508963984	0.5167527360272288
47.0	199.97873662171833	face	0.0		147	trustworthiness	044	1.0	2		239.24759782566707	1.2334546394140489
47.0	201.21219126113238	rating	1.0		113	trustworthiness	044	1.0	2		240.48105246508112	0.9501163958811958
47.0	202.16230765701357	fix	2.0		60	trustworthiness	044	1.0	2	-0.7400000000000002	241.43116886096232	0.5167460951843168
48.0	202.6790537521979	face	0.0		147	trustworthiness	130	1.0	2		241.94791495614663	1.2334609784011263
48.0	203.912514730599	rating	1.0		198	trustworthiness	130	1.0	2		243.18137593454776	1.6585311298613306
48.0	205.57104586046034	fix	2.0		60	trustworthiness	130	1.0	2	0.7000000000000002	244.8399070644091	0.516780204972747
49.0	206.0878260654331	face	0.0		147	trustworthiness	070	1.0	2		245.35668726938184	1.2334407540129178
49.0	207.321266819446	rating	1.0		427	trustworthiness	070	1.0	2		246.59012802339475	3.5670918416635686
49.0	210.88835866110958	fix	2.0		60	trustworthiness	070	1.0	2	-3.32	250.15721986505832	0.5167530378839729
50.0	211.40511169899355	face	0.0		147	trustworthiness	082	1.0	2		250.6739729029423	1.2334558468401156
50.0	212.63856754583367	rating	1.0		168	trustworthiness	082	1.0	2		251.9074287497824	1.400172722311254
50.0	214.03874026814492	fix	2.0		60	trustworthiness	082	1.0	2	1.17	253.30760147209367	0.5167515286020716
51.0	214.555491796747	face	0.0		147	trustworthiness	043	1.0	2		253.82435300069574	1.2334561486968596
51.0	215.78894794544385	rating	1.0		648	trustworthiness	043	1.0	2		255.0578091493926	5.408979688677391
51.0	221.19792763412124	fix	2.0		60	trustworthiness	043	1.0	2	0.45999999999999996	260.46678883807	0.5167596787277944
52.0	221.71468731284904	face	0.0		147	trustworthiness	042	1.0	2		260.9835485167978	1.2334981067560875
52.0	222.94818541960512	rating	1.0		107	trustworthiness	042	1.0	2		262.21704662355387	0.9000616391049334
52.0	223.84824705871006	fix	2.0		60	trustworthiness	042	1.0	2	1.12	263.1171082626588	0.5167593768710503
53.0	224.3650064355811	face	0.0		147	trustworthiness	126	1.0	2		263.63386763952985	1.2334615821146144
53.0	225.59846801769572	rating	1.0		243	trustworthiness	126	1.0	2		264.86732922164447	2.0335767101987585
53.0	227.63204472789448	fix	2.0		60	trustworthiness	126	1.0	2	-1.17	266.9009059318432	0.5167515286011621
54.0	228.14879625649564	face	0.0		147	trustworthiness	172	1.0	2		267.4176574604444	1.2334606765452918
54.0	229.38225693304094	rating	1.0		290	trustworthiness	172	1.0	2		268.6511181369897	2.4252826584624927
54.0	231.80753959150343	fix	2.0		60	trustworthiness	172	1.0	2	-3.45	271.0764007954522	0.5167684325679147
55.0	232.32430802407134	face	0.0		147	trustworthiness	137	1.0	2		271.5931692280201	1.233444980004606
55.0	233.55775300407595	rating	1.0		341	trustworthiness	137	1.0	2		272.8266142080247	2.850346772791454
55.0	236.4080997768674	fix	2.0		60	trustworthiness	137	1.0	2	1.5300000000000002	275.67696098081615	0.5167448877582501
56.0	236.92484466462565	face	0.0		147	trustworthiness	144	1.0	2		276.1937058685744	1.2334627895406811
56.0	238.15830745416633	rating	1.0		664	trustworthiness	144	1.0	2		277.4271686581151	5.584057688406574
56.0	243.7423651425729	fix	2.0		60	trustworthiness	144	1.0	2	2.3099999999999996	283.01122634652165	0.5167038352683448
57.0	244.25906897784125	face	0.0		147	trustworthiness	027	1.0	2		283.52793018179	1.2334606765452918
57.0	245.49252965438654	rating	1.0		429	trustworthiness	027	1.0	2		284.7613908583353	3.5837624727118964
57.0	249.07629212709844	fix	2.0		60	trustworthiness	027	1.0	2	2.99	288.3451533310472	0.5167774882638696
58.0	249.5930696153623	face	0.0		147	trustworthiness	066	1.0	2		288.86193081931106	1.233435924308651
58.0	250.82650553967096	rating	1.0		151	trustworthiness	066	1.0	2		290.0953667436197	1.266816125900732
58.0	252.0933216655717	fix	2.0		60	trustworthiness	066	1.0	2	-1.02	291.36218286952044	0.516753943454205
59.0	252.6100756090259	face	0.0		147	trustworthiness	012	1.0	2		291.87893681297464	1.233459167262481
59.0	253.84353477628838	rating	1.0		170	trustworthiness	012	1.0	2		293.1123959802371	1.4251709715435936
59.0	255.26870574783197	fix	2.0		60	trustworthiness	012	1.0	2	2.13	294.5375669517807	0.5167533397407169
60.0	255.7854590875727	face	0.0		147	trustworthiness	099	1.0	2		295.05432029152144	1.233458563548993
60.0	257.0189176511217	rating	1.0		84	trustworthiness	099	1.0	2		296.2877788550704	0.7084102061317026
60.0	257.7273278572534	fix	2.0		60	trustworthiness	099	1.0	2	0.9500000000000002	296.99618906120213	0.5167620935799278
61.0	258.2440899508333	face	0.0		147	trustworthiness	024	1.0	2		297.51295115478206	1.2334504134232702
61.0	259.4775403642566	rating	1.0		439	trustworthiness	024	1.0	2		298.74640156820533	3.658772615091948
61.0	263.13631297934853	fix	2.0		60	trustworthiness	024	1.0	2	2.49	302.4051741832973	0.5167578675882396
62.0	263.65307084693677	face	0.0		147	trustworthiness	100	1.0	2		302.9219320508855	1.2334561486968596
62.0	264.88652699563363	rating	1.0		104	trustworthiness	100	1.0	2		304.1553881995824	0.875104744219243
62.0	265.7616317398529	fix	2.0		60	trustworthiness	100	1.0	2	-1.17	305.0304929438016	0.5167503211750955
63.0	266.27838206102797	face	0.0		147	trustworthiness	034	1.0	2		305.5472432649767	1.2334603746885477
63.0	267.5118424357165	rating	1.0		731	trustworthiness	034	1.0	2		306.78070363966526	6.100732545447499
63.0	273.612574981164	fix	2.0		60	trustworthiness	034	1.0	2	-1.6	312.88143618511276	0.5167512267453276
64.0	274.12932620790934	face	0.0		147	trustworthiness	009	1.0	2		313.3981874118581	1.2334664118188812
64.0	275.3627926197282	rating	1.0		105	trustworthiness	009	1.0	2		314.63165382367697	0.88343266425818
64.0	276.2462252839864	fix	2.0		60	trustworthiness	009	1.0	2	-0.3799999999999999	315.51508648793515	0.5167527360281383
65.0	276.76297802001454	face	0.0		147	trustworthiness	006	1.0	2		316.0318392239633	1.2334664118188812
65.0	277.9964444318334	rating	1.0		102	trustworthiness	006	1.0	2		317.26530563578217	0.8584259630433735
65.0	278.8548703948768	fix	2.0		60	trustworthiness	006	1.0	2	-1.96	318.12373159882554	0.5167554527361062
66.0	279.3716258476129	face	0.0		147	trustworthiness	102	1.0	2		318.64048705156165	1.2334606765452918
66.0	280.6050865241582	rating	1.0		138	trustworthiness	102	1.0	2		319.87394772810694	1.1584698529841262
66.0	281.7635563771423	fix	2.0		61	trustworthiness	102	1.0	2	-1.0499999999999998	321.03241758109107	0.5250885043369635
67.0	282.2886448814793	face	0.0		146	trustworthiness	124	1.0	2		321.55750608542803	1.2251240026662344
67.0	283.5137688841455	rating	1.0		440	trustworthiness	124	1.0	2		322.78263008809427	3.6754399257188197
67.0	287.18920880986434	fix	2.0		60	trustworthiness	124	1.0	2	-0.7799999999999998	326.4580700138131	0.516753641597461
68.0	287.7059624514618	face	0.0		147	trustworthiness	092	1.0	2		326.97482365541055	1.2334594691183156
68.0	288.9394219205801	rating	1.0		126	trustworthiness	092	1.0	2		328.20828312452886	1.0584653855075885
68.0	289.9978873060877	fix	2.0		60	trustworthiness	092	1.0	2	1.4000000000000004	329.26674851003645	0.5167545471667836
69.0	290.5146418532545	face	0.0		147	trustworthiness	033	1.0	2		329.78350305720323	1.2334555449833715
69.0	291.74809739823786	rating	1.0		658	trustworthiness	033	1.0	2		331.0169586021866	5.492321373375489
69.0	297.24041877161335	fix	2.0		60	trustworthiness	033	1.0	2	-1.6600000000000001	336.5092799755621	0.5167539434532955
70.0	297.75717271506664	face	0.0		147	trustworthiness	087	1.0	2		337.0260339190154	1.2334667136756252
70.0	298.99063942874227	rating	1.0		144	trustworthiness	087	1.0	2		338.259500632691	1.2084763127140832
70.0	300.19911574145635	fix	2.0		60	trustworthiness	087	1.0	2	-1.13	339.4679769454051	0.5167533397407169
71.0	300.71586908119707	face	0.0		147	trustworthiness	101	1.0	2		339.9847302851458	1.233459167262481
71.0	301.94932824845955	rating	1.0		482	trustworthiness	101	1.0	2		341.2181894524083	4.025479106697276
71.0	305.9748073551568	fix	2.0		60	trustworthiness	101	1.0	2	-1.7599999999999998	345.2436685591056	0.5167566601630824
72.0	306.4915640153199	face	0.0		147	trustworthiness	036	1.0	2		345.76042521926865	1.2334606765452918
72.0	307.7250246918652	rating	1.0		307	trustworthiness	036	1.0	2		346.99388589581395	2.5669717027603838
72.0	310.2919963946256	fix	2.0		60	trustworthiness	036	1.0	2	1.46	349.56085759857433	0.5167460951834073
73.0	310.808742489809	face	0.0		147	trustworthiness	136	1.0	2		350.07760369375774	1.2334621858281025
73.0	312.0422046756371	rating	1.0		330	trustworthiness	136	1.0	2		351.31106587958584	2.7586702253538533
73.0	314.80087490099095	fix	2.0		60	trustworthiness	136	1.0	2	1.4100000000000001	354.0697361049397	0.5167479063229621
74.0	315.3176228073139	face	0.0		147	trustworthiness	061	1.0	2		354.58648401126266	1.233465204393724
74.0	316.55108801170763	rating	1.0		512	trustworthiness	061	1.0	2		355.8199492156564	4.2755135183433595
74.0	320.826601530051	fix	2.0		60	trustworthiness	061	1.0	2	-2.54	360.09546273399974	0.5167521323137407
75.0	321.34335366236473	face	0.0		147	trustworthiness	141	1.0	2		360.6122148663135	1.2334597709759691
75.0	322.5768134333407	rating	1.0		518	trustworthiness	141	1.0	2		361.84567463728945	4.325513035372751
75.0	326.90232646871345	fix	2.0		60	trustworthiness	141	1.0	2	1.83	366.1711876726622	0.5167539434532955
76.0	327.41908041216675	face	0.0		147	trustworthiness	039	1.0	2		366.6879416161155	1.233455846841025
76.0	328.6525362590078	rating	1.0		201	trustworthiness	039	1.0	2		367.9213974629565	1.6835366236500704
76.0	330.33607288265785	fix	2.0		60	trustworthiness	039	1.0	2	2.58	369.6049340866066	0.5167533397407169
77.0	330.85282622239856	face	0.0		147	trustworthiness	121	1.0	2		370.1216874263473	1.233464600680236
77.0	332.0862908230788	rating	1.0		220	trustworthiness	121	1.0	2		371.35515202702754	1.8418796968871902
77.0	333.928170519966	fix	2.0		60	trustworthiness	121	1.0	2	-1.5499999999999998	373.19703172391473	0.5167639047194825
78.0	334.44493442468547	face	0.0		147	trustworthiness	011	1.0	2		373.7137956286342	1.2334567524103477
78.0	335.6783911770958	rating	1.0		426	trustworthiness	011	1.0	2		374.94725238104456	3.5587524510747244
78.0	339.23714362817054	fix	2.0		60	trustworthiness	011	1.0	2	-2.2199999999999998	378.5060048321193	0.516757263875661
79.0	339.7539008920462	face	0.0		147	trustworthiness	117	1.0	2		379.02276209599495	1.2334639969676573
79.0	340.98736488901386	rating	1.0		109	trustworthiness	117	1.0	2		380.2562260929626	0.9167727189305879
79.0	341.90413760794445	fix	2.0		60	trustworthiness	117	1.0	2	-1.1	381.1729988118932	0.500062182446527
80.0	342.404199790391	cue	0.0		480						381.6730609943397	4.000479046326291
80.0	346.40467883671727	fix	1.0		120						385.673540040666	1.0168149184746653
80.0	347.42149375519193	face	0.0		147	dominance	101	1.0	2		386.6903549591407	1.233459469119225
80.0	348.65495322431116	rating	1.0		204	dominance	101	1.0	2		387.9238144282599	1.708530646890722
80.0	350.3634838712019	fix	2.0		60	dominance	101	1.0	2	3.0700000000000003	389.6323450751506	0.5167557545928503
81.0	350.88023962579473	face	0.0		147	dominance	039	1.0	2		390.1491008297435	1.2334570542661822
81.0	352.1136966800609	rating	1.0		590	dominance	039	1.0	2		391.38255788400966	4.925589948418747
81.0	357.03928662847966	fix	2.0		60	dominance	039	1.0	2	-1.3399999999999999	396.3081478324284	0.5167566601630824
82.0	357.55604328864274	face	0.0		147	dominance	064	1.0	2		396.8249044925915	1.2334642988234918
82.0	358.78950758746623	rating	1.0		238	dominance	064	1.0	2		398.058368791415	1.9919017927859386
82.0	360.78140938025217	fix	2.0		60	dominance	064	1.0	2	2.3499999999999996	400.0502705842009	0.5167485100364502
83.0	361.2981578902886	face	0.0		147	dominance	030	1.0	2		400.56701909423737	1.2334655062495585
83.0	362.5316233965382	rating	1.0		201	dominance	030	1.0	2		401.8004846004869	1.683537831076137
83.0	364.2151612276143	fix	2.0		60	dominance	030	1.0	2	2.95	403.48402243156306	0.5167527360281383
84.0	364.73191396364246	face	0.0		147	dominance	062	1.0	2		404.0007751675912	1.2334576579796703
84.0	365.9653716216221	rating	1.0		274	dominance	062	1.0	2		405.23423282557087	2.2919357214605043
84.0	368.25730734308263	fix	2.0		60	dominance	062	1.0	2	1.25	407.5261685470314	0.5167524341713943
85.0	368.774059777254	face	0.0		147	dominance	100	1.0	2		408.04292098120277	1.2334609784020358
85.0	370.00752075565606	rating	1.0		102	dominance	100	1.0	2		409.2763819596048	0.8584371317347177
85.0	370.8659578873908	fix	2.0		60	dominance	100	1.0	2	2.09	410.1348190913395	0.516756962018917
86.0	371.3827148494097	face	0.0		147	dominance	044	1.0	2		410.65157605335844	1.2334570542670917
86.0	372.6161719036768	rating	1.0		291	dominance	044	1.0	2		411.88503310762553	2.4336175212019953
86.0	375.0497894248788	fix	2.0		60	dominance	044	1.0	2	-2.3	414.3186506288275	0.5167636028627385
87.0	375.5665530277415	face	0.0		147	dominance	136	1.0	2		414.83541423169027	1.2334573561238358
87.0	376.80001038386536	rating	1.0		157	dominance	136	1.0	2		416.0688715878141	1.3168343580355213
87.0	378.1168447419009	fix	2.0		60	dominance	136	1.0	2	3.6500000000000004	417.3857059458496	0.5167370394874524
88.0	378.63358178138833	face	0.0		147	dominance	082	1.0	2		417.9024429853371	1.2334615821146144
88.0	379.86704336350294	rating	1.0		267	dominance	082	1.0	2		419.1359045674517	2.2336010398357757
88.0	382.1006444033387	fix	2.0		60	dominance	082	1.0	2	-1.08	421.36950560728746	0.5167536415965515
89.0	382.61739804493527	face	0.0		147	dominance	091	1.0	2		421.886259248884	1.2334612802587799
89.0	383.85085932519405	rating	1.0		96	dominance	091	1.0	2		423.1197205291428	0.8084185977431844
89.0	384.65927792293724	fix	2.0		60	dominance	091	1.0	2	1.08	423.928139126886	0.5167563583063384
90.0	385.1760342812436	face	0.0		147	dominance	027	1.0	2		424.4448954851923	1.2334570542661822
90.0	386.40949133550976	rating	1.0		171	dominance	027	1.0	2		425.6783525394585	1.433511569557595
90.0	387.84300290506735	fix	2.0		60	dominance	027	1.0	2	2.42	427.1118641090161	0.5167451896140847
91.0	388.35974809468144	face	0.0		147	dominance	126	1.0	2		427.6286092986302	1.2334673173891133
91.0	389.59321541207055	rating	1.0		146	dominance	126	1.0	2		428.8620766160193	1.2251454344805097
91.0	390.81836084655106	fix	2.0		60	dominance	126	1.0	2	1.9500000000000002	430.0872220504998	0.5167515286011621
92.0	391.3351123751522	face	0.0		147	dominance	124	1.0	2		430.60397357910097	1.2334612802578704
92.0	392.5685736554101	rating	1.0		156	dominance	124	1.0	2		431.83743485935884	1.3084892321739972
92.0	393.8770628875841	fix	2.0		60	dominance	124	1.0	2	2.74	433.14592409153283	0.5167527360272288
93.0	394.3938156236113	face	0.0		147	dominance	006	1.0	2		433.66267682756006	1.2334540357014703
93.0	395.6272696593128	rating	1.0		114	dominance	006	1.0	2		434.89613086326153	0.9584968389581263
93.0	396.5857664982709	fix	2.0		60	dominance	006	1.0	2	1.87	435.85462770221966	0.5167038352683448
94.0	397.10247033353926	face	0.0		147	dominance	087	1.0	2		436.371331537488	1.2334633932541692
94.0	398.3359337267934	rating	1.0		109	dominance	087	1.0	2		437.6047949307422	0.9167709077910331
94.0	399.25270463458446	fix	2.0		60	dominance	087	1.0	2	2.51	438.5215658385332	0.5167518304579062
95.0	399.76945646504237	face	0.0		147	dominance	034	1.0	2		439.0383176689911	1.2334585635499025
95.0	401.00291502859227	rating	1.0		188	dominance	034	1.0	2		440.271776232541	1.57519578415031
95.0	402.5781108127426	fix	2.0		60	dominance	034	1.0	2	2.8600000000000003	441.8469720166913	0.5167512267453276
96.0	403.0948620394879	face	0.0		147	dominance	099	1.0	2		442.36372324343665	1.2334534319879822
96.0	404.3283154714759	rating	1.0		464	dominance	099	1.0	2		443.59717667542463	3.875465160926069
96.0	408.20378063240196	fix	2.0		60	dominance	099	1.0	2	2.0999999999999996	447.4726418363507	0.5167974107953341
97.0	408.7205780431973	face	0.0		147	dominance	043	1.0	2		447.98943924714604	1.2334156999204424
97.0	409.95399374311773	rating	1.0		265	dominance	043	1.0	2		449.2228549470665	2.2169373514861945
97.0	412.17093109460393	fix	2.0		60	dominance	043	1.0	2	1.4000000000000004	451.4397922985527	0.5167494156057728
98.0	412.6876805102097	face	0.0		147	dominance	130	1.0	2		451.95654171415845	1.2334588654066465
98.0	413.92113937561635	rating	1.0		399	dominance	130	1.0	2		453.1900005795651	3.333737116762677
98.0	417.254876492379	fix	2.0		60	dominance	130	1.0	2	-2.58	456.52373769632777	0.5167563583063384
99.0	417.77163285068536	face	0.0		147	dominance	070	1.0	2		457.0404940546341	1.2334594691183156
99.0	419.0050923198037	rating	1.0		410	dominance	070	1.0	2		458.2739535237524	3.4254015899387014
99.0	422.4304939097424	fix	2.0		60	dominance	070	1.0	2	3.76	461.6993551136911	0.516753943454205
100.0	422.9472478531966	face	0.0		147	dominance	144	1.0	2		462.21610905714533	1.2334649025360704
100.0	424.18071275573266	rating	1.0		514	dominance	144	1.0	2		463.4495739596814	4.292178414118098
100.0	428.47289116985075	fix	2.0		60	dominance	144	1.0	2	1.2800000000000002	467.7417523737995	0.5167485100364502
101.0	428.9896396798872	face	0.0		147	dominance	005	1.0	2		468.25850088383595	1.233459469119225
101.0	430.22309914900643	rating	1.0		322	dominance	005	1.0	2		469.4919603529552	2.691996454996115
101.0	432.91509560400254	fix	2.0		60	dominance	005	1.0	2	2.8	472.1839568079513	0.5167530378848824
102.0	433.4318486418874	face	0.0		147	dominance	024	1.0	2		472.7007098458362	1.2334609784011263
102.0	434.66530962028855	rating	1.0		621	dominance	024	1.0	2		473.9341708242373	5.183946846686013
102.0	439.84925646697457	fix	2.0		60	dominance	024	1.0	2	2.29	479.1181176709233	0.5167527360281383
103.0	440.3660092030027	face	0.0		147	dominance	033	1.0	2		479.63487040695145	1.2334739582320253
103.0	441.59948316123473	rating	1.0		600	dominance	033	1.0	2		480.8683443651835	5.008925294128858
103.0	446.6084084553636	fix	2.0		60	dominance	033	1.0	2	2.33	485.87726965931233	0.5167590750152158
104.0	447.1251675303788	face	0.0		147	dominance	102	1.0	2		486.39402873432755	1.2334558468401156
104.0	448.3586233772189	rating	1.0		86	dominance	102	1.0	2		487.62748458116766	0.7251243045229785
104.0	449.0837476817419	fix	2.0		60	dominance	102	1.0	2	-1.23	488.35260888569064	0.516711683538233
105.0	449.60045936528013	face	0.0		147	dominance	066	1.0	2		488.8693205692289	1.2334576579796703
105.0	450.8339170232598	rating	1.0		254	dominance	066	1.0	2		490.10277822720855	2.125258087340626
105.0	452.9591751106004	fix	2.0		60	dominance	066	1.0	2	3.41	492.2280363145492	0.5167479063229621
106.0	453.4759230169234	face	0.0		147	dominance	038	1.0	2		492.74478422087213	1.2334655062495585
106.0	454.70938852317295	rating	1.0		110	dominance	038	1.0	2		493.9782497271217	0.9251024501090797
106.0	455.634490973282	fix	2.0		60	dominance	038	1.0	2	-1.9700000000000002	494.9033521772308	0.5167581694458931
107.0	456.1512491427279	face	0.0		147	dominance	172	1.0	2		495.42011034667667	1.2334612802578704
107.0	457.3847104229858	rating	1.0		109	dominance	172	1.0	2		496.65357162693454	0.9167681910821557
107.0	458.30147861406795	fix	2.0		60	dominance	172	1.0	2	3.37	497.5703398180167	0.5167500193192609
108.0	458.8182286333872	face	0.0		147	dominance	092	1.0	2		498.08708983733595	1.233462185827193
108.0	460.0516908192144	rating	1.0		112	dominance	092	1.0	2		499.32055202316315	0.94178636284596
108.0	460.99347718206036	fix	2.0		60	dominance	092	1.0	2	1.0300000000000002	500.2623383860091	0.5167512267453276
109.0	461.5102284088057	face	0.0		147	dominance	036	1.0	2		500.77908961275443	1.233458865405737
109.0	462.7436872742114	rating	1.0		168	dominance	036	1.0	2		502.01254847816017	1.4084930959370467
109.0	464.15218037014847	fix	2.0		60	dominance	036	1.0	2	0.54	503.4210415740972	0.516754245310949
110.0	464.6689346154594	face	0.0		147	dominance	042	1.0	2		503.93779581940817	1.2334603746885477
110.0	465.90239499014797	rating	1.0		126	dominance	042	1.0	2		505.1712561940967	1.0584620650843135
110.0	466.9608570552323	fix	2.0		60	dominance	042	1.0	2	1.58	506.229718259181	0.5167675269985921
111.0	467.4776245822309	face	0.0		147	dominance	121	1.0	2		506.7464857861796	1.2334413577264058
111.0	468.7110659399573	rating	1.0		197	dominance	121	1.0	2		507.979927143906	1.6502038135349721
111.0	470.36126975349225	fix	2.0		60	dominance	121	1.0	2	-1.2200000000000002	509.630130957441	0.5167533397407169
112.0	470.87802309323297	face	0.0		147	dominance	141	1.0	2		510.1468842971817	1.233462487683937
112.0	472.1114855809169	rating	1.0		102	dominance	141	1.0	2		511.38034678486565	0.858455544984281
112.0	472.9699411259012	fix	2.0		60	dominance	141	1.0	2	-1.85	512.2388023298499	0.5167219466602546
113.0	473.48666307256144	face	0.0		147	dominance	137	1.0	2		512.7555242765102	1.2334603746885477
113.0	474.72012344725	rating	1.0		131	dominance	137	1.0	2		513.9889846511987	1.1001315490793786
113.0	475.82025499632937	fix	2.0		60	dominance	137	1.0	2	1.7000000000000002	515.0891162002781	0.5167530378839729
114.0	476.33700803421334	face	0.0		147	dominance	009	1.0	2		515.6058692381621	1.2334630913974252
114.0	477.57047112561077	rating	1.0		190	dominance	009	1.0	2		516.8393323295595	1.5918594724998911
114.0	479.16233059811066	fix	2.0		60	dominance	009	1.0	2	2.2699999999999996	518.4311918020594	0.5167530378839729
115.0	479.67908363599463	face	0.0		147	dominance	117	1.0	2		518.9479448399434	1.233459167262481
115.0	480.9125428032571	rating	1.0		180	dominance	117	1.0	2		520.1814040072059	1.5085123543849477
115.0	482.42105515764206	fix	2.0		60	dominance	117	1.0	2	2.9000000000000004	521.6899163615908	0.5167527360272288
116.0	482.9378078936693	face	0.0		147	dominance	012	1.0	2		522.206669097618	1.2334579598364144
116.0	484.1712658535057	rating	1.0		240	dominance	012	1.0	2		523.4401270574544	2.0085757442575414
116.0	486.17984159776324	fix	2.0		60	dominance	012	1.0	2	2.1900000000000004	525.448702801712	0.5167530378839729
117.0	486.6965946356472	face	0.0		147	dominance	018	1.0	2		525.965455839596	1.2334504134223607
117.0	487.9300450490696	rating	1.0		151	dominance	018	1.0	2		527.1989062530183	1.2668176351835427
117.0	489.1968626842531	fix	2.0		60	dominance	018	1.0	2	-2.92	528.4657238882019	0.5167551508802717
118.0	489.7136178351334	face	0.0		147	dominance	061	1.0	2		528.9824790390821	1.2334655062495585
118.0	490.94708334138295	rating	1.0		261	dominance	061	1.0	2		530.2159445453317	2.1835945801058187
118.0	493.13067792148877	fix	2.0		60	dominance	061	1.0	2	2.6100000000000003	532.3995391254375	0.5167488118922847
119.0	493.64742673338105	face	0.0		147	dominance	011	1.0	2		532.9162879373298	1.2334576579796703
119.0	494.8808843913607	rating	1.0		221	dominance	011	1.0	2		534.1497455953095	1.8502190874760345
119.0	496.73110347883676	fix	2.0		60	dominance	011	1.0	2	2.0999999999999996	535.9999646827855	0.5000606731637163
120.0	497.2311641520005	cue	0.0		3600						536.5000253559492	30.003619259896368
120.0	527.2347834118968	fix	1.0		120						566.5036446158456	1.0001225537544087
120.0	528.2349059656513	cue	0.0		480						567.5037671696	4.000478442613712
120.0	532.235384408265	fix	1.0		120						571.5042456122137	1.016812201765788
120.0	533.2521966100308	face	0.0		147	attractiveness	061	2.0	2		572.5210578139795	1.2334730526627027
120.0	534.4856696626935	rating	1.0		513	attractiveness	061	2.0	2		573.7545308666422	4.283827854838819
120.0	538.7694975175323	fix	2.0		60	attractiveness	061	2.0	2	0.5599999999999996	578.038358721481	0.5167524341704848
121.0	539.2862499517028	face	0.0		147	attractiveness	038	2.0	2		578.5551111556515	1.233468826671924
121.0	540.5197187783747	rating	1.0		196	attractiveness	038	2.0	2		579.7885799823234	1.6418562728204051
121.0	542.1615750511951	fix	2.0		60	attractiveness	038	2.0	2	-3.43	581.4304362551438	0.5167509248885835
122.0	542.6783259760837	face	0.0		147	attractiveness	064	2.0	2		581.9471871800324	1.233494484476978
122.0	543.9118204605606	rating	1.0		715	attractiveness	064	2.0	2		583.1806816645094	5.967347272666302
122.0	549.879167733227	fix	2.0		60	attractiveness	064	2.0	2	-2.42	589.1480289371757	0.516756962018917
123.0	550.3959246952459	face	0.0		147	attractiveness	036	2.0	2		589.6647858991946	1.2334564505536036
123.0	551.6293811457995	rating	1.0		155	attractiveness	036	2.0	2		590.8982423497482	1.3001945163532582
123.0	552.9295756621527	fix	2.0		60	attractiveness	036	2.0	2	2.8	592.1984368661015	0.5167119853949771
124.0	553.4462876475477	face	0.0		147	attractiveness	043	2.0	2		592.7151488514965	1.2334627895406811
124.0	554.6797504370884	rating	1.0		669	attractiveness	043	2.0	2		593.9486116410371	5.5840115043565675
124.0	560.263761941445	fix	2.0		60	attractiveness	043	2.0	2	-1.17	599.5326231453937	0.5167479063229621
125.0	560.7805098477679	face	0.0		147	attractiveness	006	2.0	2		600.0493710517167	1.2334546394140489
125.0	562.013964487182	rating	1.0		267	attractiveness	006	2.0	2		601.2828256911307	2.2335980212701543
125.0	564.2475625084521	fix	2.0		60	attractiveness	006	2.0	2	-2.08	603.5164237124009	0.5167560564495943
126.0	564.7643185649017	face	0.0		147	attractiveness	062	2.0	2		604.0331797688505	1.233458563548993
126.0	565.9977771284507	rating	1.0		196	attractiveness	062	2.0	2		605.2666383323995	1.641861404381416
126.0	567.6396385328321	fix	2.0		60	attractiveness	062	2.0	2	-2.65	606.9084997367809	0.516754245310949
127.0	568.1563927781431	face	0.0		147	attractiveness	101	2.0	2		607.4252539820918	1.2334655062495585
127.0	569.3898582843926	rating	1.0		350	attractiveness	101	2.0	2		608.6587194883414	2.9253508780402626
127.0	572.3152091624329	fix	2.0		60	attractiveness	101	2.0	2	3.1799999999999997	611.5840703663816	0.5167506230318395
128.0	572.8319597854647	face	0.0		147	attractiveness	172	2.0	2		612.1008209894135	1.233455243127537
128.0	574.0654150285923	rating	1.0		265	attractiveness	172	2.0	2		613.334276232541	2.216938558912261
128.0	576.2823535875045	fix	2.0		60	attractiveness	172	2.0	2	-3.67	615.5512147914533	0.5167491137490288
129.0	576.7991027012536	face	0.0		147	attractiveness	042	2.0	2		616.0679639052023	1.233455846841025
129.0	578.0325585480946	rating	1.0		356	attractiveness	042	2.0	2		617.3014197520433	2.975355224773921
129.0	581.0079137728685	fix	2.0		60	attractiveness	042	2.0	2	1.62	620.2767749768173	0.5167560564495943
130.0	581.5246698293181	face	0.0		147	attractiveness	018	2.0	2		620.7935310332668	1.2334633932541692
130.0	582.7581332225723	rating	1.0		146	attractiveness	018	2.0	2		622.026994426521	1.225147245619155
130.0	583.9832804681914	fix	2.0		60	attractiveness	018	2.0	2	2.55	623.2521416721402	0.5167500193192609
131.0	584.5000304875107	face	0.0		147	attractiveness	066	2.0	2		623.7688916914594	1.2334615821146144
131.0	585.7334920696253	rating	1.0		125	attractiveness	066	2.0	2		625.002353273574	1.0501175429362775
131.0	586.7836096125616	fix	2.0		60	attractiveness	066	2.0	2	-1.2200000000000002	626.0524708165103	0.5167596787277944
132.0	587.3003692912894	face	0.0		147	attractiveness	034	2.0	2		626.5692304952381	1.2334576579796703
132.0	588.533826949269	rating	1.0		332	attractiveness	034	2.0	2		627.8026881532178	2.7753333099899464
132.0	591.309160259259	fix	2.0		60	attractiveness	034	2.0	2	0.9299999999999997	630.5780214632077	0.5167530378839729
133.0	591.825913297143	face	0.0		147	attractiveness	126	2.0	2		631.0947745010917	1.2334615821146144
133.0	593.0593748792576	rating	1.0		278	attractiveness	126	2.0	2		632.3282360832063	2.325270342716067
133.0	595.3846452219736	fix	2.0		60	attractiveness	126	2.0	2	1.58	634.6535064259224	0.5167518304579062
134.0	595.9013970524315	face	0.0		147	attractiveness	009	2.0	2		635.1702582563803	1.2334670155323693
134.0	597.1348640679639	rating	1.0		149	attractiveness	009	2.0	2		636.4037252719127	1.2501412688598066
134.0	598.3850053368237	fix	2.0		60	attractiveness	009	2.0	2	2.34	637.6538665407725	0.5167605842980265
135.0	598.9017659211218	face	0.0		147	attractiveness	141	2.0	2		638.1706271250705	1.2334543375573048
135.0	600.135220258679	rating	1.0		125	attractiveness	141	2.0	2		639.4040814626278	1.0501247874926776
135.0	601.1853450461717	fix	2.0		60	attractiveness	141	2.0	2	2.9299999999999997	640.4542062501205	0.5167530378848824
136.0	601.7020980840566	face	0.0		147	attractiveness	091	2.0	2		640.9709592880054	1.2334579598355049
136.0	602.9355560438921	rating	1.0		151	attractiveness	091	2.0	2		642.2044172478409	1.2668173333267987
136.0	604.2023733772189	fix	2.0		60	attractiveness	091	2.0	2	1.6600000000000001	643.4712345811677	0.5167530378848824
137.0	604.7191264151038	face	0.0		147	attractiveness	130	2.0	2		643.9879876190525	1.2334639969667478
137.0	605.9525904120705	rating	1.0		238	attractiveness	130	2.0	2		645.2214516160193	1.991900585359872
137.0	607.9444909974304	fix	2.0		60	attractiveness	130	2.0	2	-1.85	647.2133522013792	0.5167596787287039
138.0	608.4612506761591	face	0.0		147	attractiveness	070	2.0	2		647.7301118801079	1.2334594691183156
138.0	609.6947101452774	rating	1.0		222	attractiveness	070	2.0	2		648.9635713492262	1.8585545539290251
138.0	611.5532646992065	fix	2.0		60	attractiveness	070	2.0	2	-3.04	650.8221259031552	0.5167412654791406
139.0	612.0700059646856	face	0.0		147	attractiveness	117	2.0	2		651.3388671686344	1.2334627895406811
139.0	613.3034687542263	rating	1.0		212	attractiveness	117	2.0	2		652.572329958175	1.7752116618048603
139.0	615.0786804160311	fix	2.0		60	attractiveness	117	2.0	2	0.28000000000000025	654.3475416199799	0.5167587731584717
140.0	615.5954391891896	face	0.0		147	attractiveness	092	2.0	2		654.8643003931384	1.2334612802578704
140.0	616.8289004694475	rating	1.0		65	attractiveness	092	2.0	2		656.0977616733962	0.5500650198982839
140.0	617.3789654893458	fix	2.0		60	attractiveness	092	2.0	2	0.9900000000000002	656.6478266932945	0.516753943454205
141.0	617.8957194328	face	0.0		147	attractiveness	087	2.0	2		657.1645806367487	1.2334579598355049
141.0	619.1291773926355	rating	1.0		243	attractiveness	087	2.0	2		658.3980385965842	2.0335721823503263
141.0	621.1627495749858	fix	2.0		60	attractiveness	087	2.0	2	-1.88	660.4316107789346	0.5167509248885835
142.0	621.6795004998744	face	0.0		147	attractiveness	136	2.0	2		660.9483617038231	1.23346490253698
142.0	622.9129654024114	rating	1.0		109	attractiveness	136	2.0	2		662.1818266063601	0.9167687947956438
142.0	623.829734197207	fix	2.0		60	attractiveness	136	2.0	2	-2.65	663.0985954011558	0.5167596787277944
143.0	624.3464938759348	face	0.0		147	attractiveness	039	2.0	2		663.6153550798836	1.2334594691183156
143.0	625.5799533450531	rating	1.0		98	attractiveness	039	2.0	2		664.8488145490019	0.8250916436454645
143.0	626.4050449886986	fix	2.0		60	attractiveness	039	2.0	2	2.3	665.6739061926473	0.5167596787277944
144.0	626.9218046674264	face	0.0		147	attractiveness	121	2.0	2		666.1906658713751	1.233451922706081
144.0	628.1552565901325	rating	1.0		273	attractiveness	121	2.0	2		667.4241177940812	2.2836141404086447
144.0	630.4388707305411	fix	2.0		60	attractiveness	121	2.0	2	-1.9700000000000002	669.7077319344899	0.516743982188018
145.0	630.9556147127291	face	0.0		147	attractiveness	011	2.0	2		670.2244759166779	1.2334667136756252
145.0	632.1890814264048	rating	1.0		127	attractiveness	011	2.0	2		671.4579426303535	1.0667899851250695
145.0	633.2558714115298	fix	2.0		60	attractiveness	011	2.0	2	-2.4299999999999997	672.5247326154786	0.5167506230318395
146.0	633.7726220345617	face	0.0		147	attractiveness	082	2.0	2		673.0414832385104	1.2334670155323693
146.0	635.006089050094	rating	1.0		96	attractiveness	082	2.0	2		674.2749502540428	0.8084210125953177
146.0	635.8145100626894	fix	2.0		60	attractiveness	082	2.0	2	1.2999999999999998	675.0833712666381	0.5167569620198265
147.0	636.3312670247092	face	0.0		147	attractiveness	012	2.0	2		675.6001282286579	1.2334742600887694
147.0	637.564741284798	rating	1.0		364	attractiveness	012	2.0	2		676.8336024887467	3.0420190338663815
147.0	640.6067603186643	fix	2.0		60	attractiveness	012	2.0	2	3.88	679.8756215226131	0.5167542453100396
148.0	641.1235145639744	face	0.0		147	attractiveness	005	2.0	2		680.3923757679231	1.2334579598364144
148.0	642.3569725238108	rating	1.0		114	attractiveness	005	2.0	2		681.6258337277595	0.9584415992112554
148.0	643.315414123022	fix	2.0		60	attractiveness	005	2.0	2	-2.75	682.5842753269708	0.5167533397407169
149.0	643.8321674627628	face	0.0		147	attractiveness	124	2.0	2		683.1010286667115	1.2334585635499025
149.0	645.0656260263127	rating	1.0		231	attractiveness	124	2.0	2		684.3344872302614	1.933564092594679
149.0	646.9991901189073	fix	2.0		60	attractiveness	124	2.0	2	3.7300000000000004	686.2680513228561	0.5167605842980265
150.0	647.5159507032054	face	0.0		147	attractiveness	102	2.0	2		686.7848119071541	1.2334513189916834
150.0	648.749402022197	rating	1.0		334	attractiveness	102	2.0	2		688.0182632261458	2.7920075633173838
150.0	651.5414095855144	fix	2.0		60	attractiveness	102	2.0	2	-0.8900000000000001	690.8102707894632	0.5167473026103835
151.0	652.0581568881248	face	0.0		147	attractiveness	137	2.0	2		691.3270180920736	1.2334600728318037
151.0	653.2916169609566	rating	1.0		75	attractiveness	137	2.0	2		692.5604781649054	0.633406402739638
151.0	653.9250233636963	fix	2.0		60	attractiveness	137	2.0	2	1.6900000000000004	693.193884567645	0.516753943454205
152.0	654.4417773071505	face	0.0		147	attractiveness	099	2.0	2		693.7106385110992	1.2334661099621371
152.0	655.6752434171126	rating	1.0		69	attractiveness	099	2.0	2		694.9441046210613	0.5833914910263047
152.0	656.2586349081389	fix	2.0		60	attractiveness	099	2.0	2	-1.75	695.5274961120876	0.5167817142555577
153.0	656.7754166223945	face	0.0		147	attractiveness	030	2.0	2		696.0442778263432	1.233432000173707
153.0	658.0088486225682	rating	1.0		319	attractiveness	030	2.0	2		697.2777098265169	2.6669861315031085
153.0	660.6758347540713	fix	2.0		60	attractiveness	030	2.0	2	3.17	699.94469595802	0.5167533397407169
154.0	661.192588093812	face	0.0		147	attractiveness	024	2.0	2		700.4614492977607	1.233458865405737
154.0	662.4260469592177	rating	1.0		174	attractiveness	024	2.0	2		701.6949081631665	1.4585107243592574
154.0	663.884557683577	fix	2.0		60	attractiveness	024	2.0	2	1.4299999999999997	703.1534188875257	0.516754245310949
155.0	664.4013119288879	face	0.0		147	attractiveness	044	2.0	2		703.6701731328367	1.233462487683937
155.0	665.6347744165719	rating	1.0		325	attractiveness	044	2.0	2		704.9036356205206	2.716986252245988
155.0	668.3517606688179	fix	2.0		60	attractiveness	044	2.0	2	-1.12	707.6206218727666	0.5167608861538611
156.0	668.8685215549717	face	0.0		147	attractiveness	100	2.0	2		708.1373827589205	1.2334582616931584
156.0	670.1019798166649	rating	1.0		457	attractiveness	100	2.0	2		709.3708410206136	3.817115688329068
156.0	673.919095504994	fix	2.0		60	attractiveness	100	2.0	2	1.8499999999999996	713.1879567089427	0.5167551508802717
157.0	674.4358506558742	face	0.0		147	attractiveness	027	2.0	2		713.704711859823	1.2334573561229263
157.0	675.6693080119971	rating	1.0		354	attractiveness	027	2.0	2		714.9381692159459	2.958693951278292
157.0	678.6280019632754	fix	2.0		60	attractiveness	027	2.0	2	1.29	717.8968631672242	0.5167557545928503
158.0	679.1447577178683	face	0.0		147	attractiveness	033	2.0	2		718.413618921817	1.2334576579796703
158.0	680.378215375848	rating	1.0		562	attractiveness	033	2.0	2		719.6470765797967	4.692228884530778
158.0	685.0704442603787	fix	2.0		60	attractiveness	033	2.0	2	-2.44	724.3393054643275	0.5167518304588157
159.0	685.5871960908376	face	0.0		147	attractiveness	144	2.0	2		724.8560572947863	1.2334603746885477
159.0	686.8206564655261	rating	1.0		322	attractiveness	144	2.0	2		726.0895176694748	2.691987097443416
159.0	689.5126435629695	fix	2.0		60	attractiveness	144	2.0	2	-1.6600000000000001	728.7815047669183	0.5000579564557484
160.0	690.0127015194253	cue	0.0		480						729.281562723374	4.000478140756968
160.0	694.0131796601822	fix	1.0		120						733.282040864131	1.0168215593184868
160.0	695.0300012195007	face	0.0		147	dominance	101	2.0	2		734.2988624234495	1.2334579598364144
160.0	696.2634591793371	rating	1.0		145	dominance	101	2.0	2		735.5323203832859	1.2168111754526763
160.0	697.4802703547898	fix	2.0		60	dominance	101	2.0	2	2.8200000000000003	736.7491315587386	0.5167521323146502
161.0	697.9970224871045	face	0.0		147	dominance	061	2.0	2		737.2658836910532	1.2334618839713585
161.0	699.2304843710758	rating	1.0		515	dominance	061	2.0	2		738.4993455750246	4.300508749010078
161.0	703.5309931200859	fix	2.0		60	dominance	061	2.0	2	2.5300000000000002	742.7998543240346	0.5167494156057728
162.0	704.0477425356917	face	0.0		147	dominance	172	2.0	2		743.3166037396404	1.2334709396673134
162.0	705.281213475359	rating	1.0		176	dominance	172	2.0	2		744.5500746793077	1.475173808994441
162.0	706.7563872843534	fix	2.0		60	dominance	172	2.0	2	3.7800000000000002	746.0252484883022	0.5167554527370157
163.0	707.2731427370904	face	0.0		147	dominance	043	2.0	2		746.5420039410392	1.233475467514836
163.0	708.5066182046053	rating	1.0		130	dominance	043	2.0	2		747.775479408554	1.0917764619516674
163.0	709.5983946665569	fix	2.0		60	dominance	043	2.0	2	1.17	748.8672558705057	0.5167548490235276
164.0	710.1151495155805	face	0.0		147	dominance	124	2.0	2		749.3840107195292	1.2334612802587799
164.0	711.3486107958392	rating	1.0		162	dominance	124	2.0	2		750.617471999788	1.3584935789076553
164.0	712.7071043747469	fix	2.0		60	dominance	124	2.0	2	2.38	751.9759655786957	0.5167551508793622
165.0	713.2238595256263	face	0.0		147	dominance	011	2.0	2		752.492720729575	1.2334537338447262
165.0	714.457313259471	rating	1.0		308	dominance	011	2.0	2		753.7261744634197	2.57531411191394
165.0	717.0326273713849	fix	2.0		60	dominance	011	2.0	2	2.88	756.3014885753337	0.5167916755208353
166.0	717.5494190469058	face	0.0		147	dominance	018	2.0	2		756.8182802508545	1.2334184166302293
166.0	718.782837463536	rating	1.0		360	dominance	018	2.0	2		758.0516986674847	3.0086880348899285
166.0	721.7915254984259	fix	2.0		60	dominance	018	2.0	2	-2.7800000000000002	761.0603867023747	0.516757565732405
167.0	722.3082830641583	face	0.0		147	dominance	091	2.0	2		761.5771442681071	1.2334534319879822
167.0	723.5417364961463	rating	1.0		147	dominance	091	2.0	2		762.8105977000951	1.2334857306377671
167.0	724.7752222267841	fix	2.0		60	dominance	091	2.0	2	1.25	764.0440834307328	0.5167530378839729
168.0	725.291975264668	face	0.0		147	dominance	009	2.0	2		764.5608364686168	1.2334594691183156
168.0	726.5254347337864	rating	1.0		72	dominance	009	2.0	2		765.7942959377351	0.6084048330858423
168.0	727.1338395668722	fix	2.0		60	dominance	009	2.0	2	1.88	766.402700770821	0.5167521323146502
169.0	727.6505916991869	face	0.0		147	dominance	027	2.0	2		766.9194529031356	1.233458563548993
169.0	728.8840502627359	rating	1.0		148	dominance	027	2.0	2		768.1529114666846	1.2418103302552481
169.0	730.1258605929911	fix	2.0		60	dominance	027	2.0	2	2.2199999999999998	769.3947217969398	0.5167599805845384
170.0	730.6426205735756	face	0.0		147	dominance	070	2.0	2		769.9114817775244	1.2334576579796703
170.0	731.8760782315553	rating	1.0		155	dominance	070	2.0	2		771.144939435504	1.300156482429884
170.0	733.1762347139852	fix	2.0		60	dominance	070	2.0	2	3.21	772.4450959179339	0.5167460951834073
171.0	733.6929808091686	face	0.0		147	dominance	062	2.0	2		772.9618420131173	1.233459167262481
171.0	734.9264399764311	rating	1.0		98	dominance	062	2.0	2		774.1953011803798	0.825097982632542
171.0	735.7515379590636	fix	2.0		60	dominance	062	2.0	2	2.0700000000000003	775.0203991630124	0.5167530378839729
172.0	736.2682909969476	face	0.0		147	dominance	034	2.0	2		775.5371522008963	1.2334842213549564
172.0	737.5017752183026	rating	1.0		175	dominance	034	2.0	2		776.7706364222513	1.4668238534286502
172.0	738.9685990717312	fix	2.0		60	dominance	034	2.0	2	2.9000000000000004	778.23746027568	0.5167536415965515
173.0	739.4853527133278	face	0.0		147	dominance	044	2.0	2		778.7542139172765	1.233451922706081
173.0	740.7188046360338	rating	1.0		473	dominance	044	2.0	2		779.9876658399826	3.950480133009478
173.0	744.6692847690433	fix	2.0		60	dominance	044	2.0	2	-0.7400000000000002	783.9381459729921	0.5167530378848824
174.0	745.1860378069282	face	0.0		147	dominance	121	2.0	2		784.4548990108769	1.2334510171358488
174.0	746.419488824064	rating	1.0		92	dominance	121	2.0	2		785.6883500280128	0.7751002767417958
174.0	747.1945891008058	fix	2.0		60	dominance	121	2.0	2	2.0199999999999996	786.4634503047546	0.5167506230318395
175.0	747.7113397238377	face	0.0		147	dominance	039	2.0	2		786.9802009277864	1.2334519227051715
175.0	748.9447916465429	rating	1.0		519	dominance	039	2.0	2		788.2136528504916	4.333862387226873
175.0	753.2786540337697	fix	2.0		60	dominance	039	2.0	2	1.9800000000000004	792.5475152377185	0.5167497174616074
176.0	753.7954037512313	face	0.0		147	dominance	144	2.0	2		793.0642649551801	1.2334612802587799
176.0	755.0288650314901	rating	1.0		433	dominance	144	2.0	2		794.2977262354389	3.617099810675427
176.0	758.6459648421655	fix	2.0		60	dominance	144	2.0	2	2.37	797.9148260461143	0.5167554527361062
177.0	759.1627202949016	face	0.0		147	dominance	030	2.0	2		798.4315814988504	1.2334510171358488
177.0	760.3961713120375	rating	1.0		187	dominance	030	2.0	2		799.6650325159862	1.566854884280474
177.0	761.963026196318	fix	2.0		60	dominance	030	2.0	2	2.62	801.2318874002667	0.5167518304579062
178.0	762.4797780267759	face	0.0		147	dominance	141	2.0	2		801.7486392307246	1.233459167262481
178.0	763.7132371940384	rating	1.0		133	dominance	141	2.0	2		802.9820983979871	1.1168018782718718
178.0	764.8300390723102	fix	2.0		60	dominance	141	2.0	2	-2.73	804.098900276259	0.5167952977999448
179.0	765.3468343701102	face	0.0		147	dominance	005	2.0	2		804.6156955740589	1.2334247556163973
179.0	766.5802591257266	rating	1.0		180	dominance	005	2.0	2		805.8491203296753	1.5085023931187607
179.0	768.0887615188453	fix	2.0		60	dominance	005	2.0	2	-3.56	807.3576227227941	0.5167518304579062
180.0	768.6055133493032	face	0.0		147	dominance	066	2.0	2		807.874374553252	1.2334606765452918
180.0	769.8389740258485	rating	1.0		100	dominance	066	2.0	2		809.1078352297973	0.84177374524279
180.0	770.6807477710913	fix	2.0		60	dominance	066	2.0	2	2.6500000000000004	809.9496089750401	0.5167645084329706
181.0	771.1975122795243	face	0.0		147	dominance	024	2.0	2		810.466373483473	1.2334479985702274
181.0	772.4309602780945	rating	1.0		363	dominance	024	2.0	2		811.6998214820433	3.0336902082572124
181.0	775.4646504863517	fix	2.0		60	dominance	024	2.0	2	1.6900000000000004	814.7335116903005	0.5167590750143063
182.0	775.981409561366	face	0.0		147	dominance	092	2.0	2		815.2502707653148	1.2334573561238358
182.0	777.2148669174899	rating	1.0		77	dominance	092	2.0	2		816.4837281214386	0.6500933340412303
182.0	777.8649602515311	fix	2.0		60	dominance	092	2.0	2	0.9100000000000001	817.1338214554798	0.5167470007536394
183.0	778.3817072522847	face	0.0		147	dominance	117	2.0	2		817.6505684562335	1.233444980004606
183.0	779.6151522322893	rating	1.0		92	dominance	117	2.0	2		818.8840134362381	0.7750978618896625
183.0	780.390250094179	fix	2.0		60	dominance	117	2.0	2	2.2	819.6591112981278	0.5167473026103835
184.0	780.9069973967894	face	0.0		147	dominance	087	2.0	2		820.1758586007381	1.233458563548993
184.0	782.1404559603384	rating	1.0		148	dominance	087	2.0	2		821.4093171642871	1.2418540994531213
184.0	783.3823100597915	fix	2.0		60	dominance	087	2.0	2	1.3899999999999997	822.6511712637403	0.5167134946777878
185.0	783.8990235544693	face	0.0		147	dominance	102	2.0	2		823.167884758418	1.2334576579796703
185.0	785.132481212449	rating	1.0		137	dominance	102	2.0	2		824.4013424163977	1.1501437440838345
185.0	786.2826249565328	fix	2.0		60	dominance	102	2.0	2	0.3099999999999996	825.5514861604815	0.5167533397407169
186.0	786.7993782962735	face	0.0		147	dominance	082	2.0	2		826.0682395002223	1.2334606765452918
186.0	788.0328389728188	rating	1.0		77	dominance	082	2.0	2		827.3017001767676	0.6500679780920109
186.0	788.6829069509108	fix	2.0		60	dominance	082	2.0	2	0.8300000000000001	827.9517681548596	0.5167509248885835
187.0	789.1996578757994	face	0.0		147	dominance	064	2.0	2		828.4685190797481	1.233507766164621
187.0	790.433165641964	rating	1.0		99	dominance	064	2.0	2		829.7020268459128	0.8333936040226035
187.0	791.2665592459866	fix	2.0		60	dominance	064	2.0	2	1.87	830.5354204499354	0.5167512267453276
188.0	791.783310472732	face	0.0		147	dominance	100	2.0	2		831.0521716766807	1.2334606765443823
188.0	793.0167711492763	rating	1.0		130	dominance	100	2.0	2		832.2856323532251	1.091789441783476
188.0	794.1085605910598	fix	2.0		60	dominance	100	2.0	2	2.0700000000000003	833.3774217950086	0.516756962018917
189.0	794.6253175530787	face	0.0		147	dominance	012	2.0	2		833.8941787570275	1.2334633932532597
189.0	795.858780946332	rating	1.0		374	dominance	012	2.0	2		835.1276421502807	3.125370076116269
189.0	798.9841510224483	fix	2.0		60	dominance	012	2.0	2	2.0700000000000003	838.253012226397	0.5167566601630824
190.0	799.5009076826113	face	0.0		147	dominance	033	2.0	2		838.7697688865601	1.233458563548993
190.0	800.7343662461603	rating	1.0		113	dominance	033	2.0	2		840.0032274501091	0.9501073401852409
190.0	801.6844735863456	fix	2.0		60	dominance	033	2.0	2	-1.0499999999999998	840.9533347902943	0.5167491137490288
191.0	802.2012227000946	face	0.0		147	dominance	137	2.0	2		841.4700839040433	1.2334667136756252
191.0	803.4346894137702	rating	1.0		125	dominance	137	2.0	2		842.703550617719	1.0501184485056
191.0	804.4848078622758	fix	2.0		60	dominance	137	2.0	2	-1.62	843.7536690662246	0.516753943454205
192.0	805.00156180573	face	0.0		147	dominance	130	2.0	2		844.2704230096788	1.233464600680236
192.0	806.2350264064103	rating	1.0		92	dominance	130	2.0	2		845.503887610359	0.7750924284719076
192.0	807.0101188348822	fix	2.0		60	dominance	130	2.0	2	-2.5300000000000002	846.2789800388309	0.5167524341713943
193.0	807.5268712690536	face	0.0		147	dominance	036	2.0	2		846.7957324730023	1.233452828274494
193.0	808.7603240973281	rating	1.0		111	dominance	036	2.0	2		848.0291853012768	0.9334445574058918
193.0	809.693768654734	fix	2.0		60	dominance	036	2.0	2	1.1799999999999997	848.9626298586827	0.5167548490235276
194.0	810.2105235037575	face	0.0		147	dominance	042	2.0	2		849.4793847077062	1.2334633932541692
194.0	811.4439868970117	rating	1.0		79	dominance	042	2.0	2		850.7128481009604	0.6667389109979922
194.0	812.1107258080096	fix	2.0		60	dominance	042	2.0	2	1.7800000000000002	851.3795870119584	0.5167584713017277
195.0	812.6274842793114	face	0.0		147	dominance	006	2.0	2		851.8963454832601	1.233459469119225
195.0	813.8609437484306	rating	1.0		95	dominance	006	2.0	2		853.1298049523793	0.8000897721340152
195.0	814.6610335205646	fix	2.0		60	dominance	006	2.0	2	2.3099999999999996	853.9298947245134	0.5167593768719598
196.0	815.1777928974366	face	0.0		147	dominance	136	2.0	2		854.4466541013853	1.2334540357014703
196.0	816.411246933138	rating	1.0		221	dominance	136	2.0	2		855.6801081370868	1.8502254264622024
196.0	818.2614723596002	fix	2.0		60	dominance	136	2.0	2	3.7699999999999996	857.530333563549	0.5167470007536394
197.0	818.7782193603539	face	0.0		147	dominance	099	2.0	2		858.0470805643026	1.2334600728318037
197.0	820.0116794331857	rating	1.0		224	dominance	099	2.0	2		859.2805406371344	1.8752342406742173
197.0	821.8869136738599	fix	2.0		60	dominance	099	2.0	2	1.2199999999999998	861.1557748778087	0.5167488118922847
198.0	822.4036624857522	face	0.0		147	dominance	038	2.0	2		861.6725236897009	1.2334534319879822
198.0	823.6371159177402	rating	1.0		125	dominance	038	2.0	2		862.9059771216889	1.0501296171978538
198.0	824.687245534938	fix	2.0		60	dominance	038	2.0	2	-1.4700000000000002	863.9561067388868	0.5167466988968954
199.0	825.2039922338349	face	0.0		147	dominance	126	2.0	2		864.4728534377837	1.2334612802578704
199.0	826.4374535140928	rating	1.0		114	dominance	126	2.0	2		865.7063147180415	0.9584452214903649
199.0	827.3958987355832	fix	2.0		60	dominance	126	2.0	2	2.1500000000000004	866.6647599395319	0.500059163881815
200.0	827.895957899465	cue	0.0		480						867.1648191034137	4.000492629870678
200.0	831.8964505293357	fix	1.0		120						871.1653117332844	1.0168082776308438
200.0	832.9132588069665	face	0.0		147	trustworthiness	136	2.0	2		872.1821200109152	1.2334543375573048
200.0	834.1467131445238	rating	1.0		409	trustworthiness	136	2.0	2		873.4155743484725	3.4170739717565084
200.0	837.5637871162803	fix	2.0		60	trustworthiness	136	2.0	2	-2.23	876.832648320229	0.516756962018917
201.0	838.0805440782992	face	0.0		147	trustworthiness	042	2.0	2		877.349405282248	1.2334567524103477
201.0	839.3140008307096	rating	1.0		512	trustworthiness	042	2.0	2		878.5828620346583	4.275519857330437
201.0	843.58952068804	fix	2.0		60	trustworthiness	042	2.0	2	0.6699999999999999	882.8583818919888	0.516779903116003
202.0	844.106300591156	face	0.0		147	trustworthiness	064	2.0	2		883.3751617951048	1.2334304908908962
202.0	845.3397310820469	rating	1.0		156	trustworthiness	064	2.0	2		884.6085922859957	1.3084834968994983
202.0	846.6482145789464	fix	2.0		60	trustworthiness	064	2.0	2	-1.4700000000000002	885.9170757828952	0.516753641597461
203.0	847.1649682205439	face	0.0		147	trustworthiness	091	2.0	2		886.4338294244926	1.233472448950124
203.0	848.398440669494	rating	1.0		144	trustworthiness	091	2.0	2		887.6673018734427	1.208462125456208
203.0	849.6069027949502	fix	2.0		60	trustworthiness	091	2.0	2	1.4800000000000004	888.875763998899	0.5167527360272288
204.0	850.1236555309774	face	0.0		147	trustworthiness	124	2.0	2		889.3925167349262	1.2334621858281025
204.0	851.3571177168055	rating	1.0		221	trustworthiness	124	2.0	2		890.6259789207543	1.850225728319856
204.0	853.2073434451254	fix	2.0		60	trustworthiness	124	2.0	2	-1.4900000000000002	892.4762046490741	0.5167521323146502
205.0	853.72409557744	face	0.0		147	trustworthiness	005	2.0	2		892.9929567813888	1.233462185827193
205.0	854.9575577632672	rating	1.0		191	trustworthiness	005	2.0	2		894.226418967216	1.6001822609778174
205.0	856.557740024245	fix	2.0		60	trustworthiness	005	2.0	2	-2.42	895.8266012281938	0.5167608861547706
206.0	857.0745009103998	face	0.0		147	trustworthiness	018	2.0	2		896.3433621143486	1.2334600728318037
206.0	858.3079609832316	rating	1.0		124	trustworthiness	018	2.0	2		897.5768221871804	1.0417808690572201
206.0	859.3497418522888	fix	2.0		60	trustworthiness	018	2.0	2	1.38	898.6186030562376	0.5167530378839729
207.0	859.8664948901728	face	0.0		147	trustworthiness	062	2.0	2		899.1353560941216	1.2334600728318037
207.0	861.0999549630046	rating	1.0		89	trustworthiness	062	2.0	2		900.3688161669534	0.7500878402524904
207.0	861.8500428032571	fix	2.0		60	trustworthiness	062	2.0	2	-1.69	901.1189040072059	0.5167551508802717
208.0	862.3667979541374	face	0.0		147	trustworthiness	034	2.0	2		901.6356591580861	1.233459167262481
208.0	863.6002571213999	rating	1.0		301	trustworthiness	034	2.0	2		902.8691183253486	2.516965544887171
208.0	866.117222666287	fix	2.0		60	trustworthiness	034	2.0	2	0.4400000000000004	905.3860838702358	0.5167530378839729
209.0	866.633975704171	face	0.0		147	trustworthiness	100	2.0	2		905.9028369081198	1.233462487683937
209.0	867.867438191855	rating	1.0		79	trustworthiness	100	2.0	2		907.1362993958037	0.6667422314203577
209.0	868.5341804232753	fix	2.0		60	trustworthiness	100	2.0	2	-1.35	907.803041627224	0.5167530378839729
210.0	869.0509334611593	face	0.0		147	trustworthiness	141	2.0	2		908.319794665108	1.2334609784020358
210.0	870.2843944395613	rating	1.0		121	trustworthiness	141	2.0	2		909.55325564351	1.0167862421030804
210.0	871.3011806816644	fix	2.0		60	trustworthiness	141	2.0	2	2.0300000000000002	910.5700418856131	0.5167515286020716
211.0	871.8179322102665	face	0.0		147	trustworthiness	043	2.0	2		911.0867934142152	1.2334597709750597
211.0	873.0513919812415	rating	1.0		93	trustworthiness	043	2.0	2		912.3202531851903	0.7834269893555756
211.0	873.8348189705971	fix	2.0		60	trustworthiness	043	2.0	2	0.7599999999999998	913.1036801745458	0.5167509248885835
212.0	874.3515698954857	face	0.0		147	trustworthiness	006	2.0	2		913.6204310994344	1.2334639969667478
212.0	875.5850338924524	rating	1.0		200	trustworthiness	006	2.0	2		914.8538950964012	1.6752044776185357
212.0	877.260238370071	fix	2.0		60	trustworthiness	006	2.0	2	-1.7000000000000002	916.5290995740197	0.5167460951843168
213.0	877.7769844652553	face	0.0		147	trustworthiness	039	2.0	2		917.045845669204	1.233459469119225
213.0	879.0104439343745	rating	1.0		373	trustworthiness	039	2.0	2		918.2793051383233	3.1170415523629345
213.0	882.1274854867374	fix	2.0		60	trustworthiness	039	2.0	2	2.8200000000000003	921.3963466906862	0.5167590750152158
214.0	882.6442445617527	face	0.0		147	trustworthiness	137	2.0	2		921.9131057657014	1.2334519227051715
214.0	883.8776964844578	rating	1.0		130	trustworthiness	137	2.0	2		923.1465576884066	1.0917945733444867
214.0	884.9694910578023	fix	2.0		60	trustworthiness	137	2.0	2	1.6799999999999997	924.2383522617511	0.5167521323146502
215.0	885.486243190117	face	0.0		147	trustworthiness	061	2.0	2		924.7551043940657	1.2334688266710145
215.0	886.719712016788	rating	1.0		111	trustworthiness	061	2.0	2		925.9885732207367	0.9334424444105025
215.0	887.6531544611985	fix	2.0		60	trustworthiness	061	2.0	2	0.8799999999999999	926.9220156651472	0.5167509248885835
216.0	888.1699053860871	face	0.0		147	trustworthiness	121	2.0	2		927.4387665900358	1.2334561486968596
216.0	889.4033615347839	rating	1.0		100	trustworthiness	121	2.0	2		928.6722227387327	0.8417643876900911
216.0	890.245125922474	fix	2.0		60	trustworthiness	121	2.0	2	-1.21	929.5139871264228	0.5167506230318395
217.0	890.7618765455059	face	0.0		147	trustworthiness	024	2.0	2		930.0307377494546	1.2334691285277586
217.0	891.9953456740336	rating	1.0		326	trustworthiness	024	2.0	2		931.2642068779824	2.725320209416168
217.0	894.7206658834498	fix	2.0		60	trustworthiness	024	2.0	2	2.92	933.9895270873985	0.5167584713017277
218.0	895.2374243547515	face	0.0		147	trustworthiness	099	2.0	2		934.5062855587003	1.2334546394140489
218.0	896.4708789941656	rating	1.0		104	trustworthiness	099	2.0	2		935.7397401981143	0.8751017256536215
218.0	897.3459807198192	fix	2.0		60	trustworthiness	099	2.0	2	0.4299999999999997	936.6148419237679	0.5167527360281383
219.0	897.8627334558473	face	0.0		147	trustworthiness	033	2.0	2		937.1315946597961	1.2334673173882038
219.0	899.0962007732355	rating	1.0		188	trustworthiness	033	2.0	2		938.3650619771843	1.575179483897955
219.0	900.6713802571335	fix	2.0		60	trustworthiness	033	2.0	2	-1.73	939.9402414610822	0.5167530378839729
220.0	901.1881332950175	face	0.0		147	trustworthiness	082	2.0	2		940.4569944989662	1.2334618839713585
220.0	902.4215951789888	rating	1.0		87	trustworthiness	082	2.0	2		941.6904563829376	0.7334181147734853
220.0	903.1550132937623	fix	2.0		60	trustworthiness	082	2.0	2	-0.6200000000000001	942.423874497711	0.5167602824412825
221.0	903.6717735762036	face	0.0		147	trustworthiness	087	2.0	2		942.9406347801523	1.2334537338438167
221.0	904.9052273100474	rating	1.0		199	trustworthiness	087	2.0	2		944.1740885139961	1.6668629740361212
221.0	906.5720902840835	fix	2.0		60	trustworthiness	087	2.0	2	1.9400000000000004	945.8409514880323	0.516753641597461
222.0	907.088843925681	face	0.0		147	trustworthiness	030	2.0	2		946.3577051296297	1.2334591672615716
222.0	908.3223030929425	rating	1.0		166	trustworthiness	030	2.0	2		947.5911642968913	1.391839368854562
222.0	909.7141424617971	fix	2.0		60	trustworthiness	030	2.0	2	2.8499999999999996	948.9830036657459	0.5167509248885835
223.0	910.2308933866857	face	0.0		147	trustworthiness	038	2.0	2		949.4997545906344	1.2334627895406811
223.0	911.4643561762264	rating	1.0		181	trustworthiness	038	2.0	2		950.7332173801751	1.516838765141074
223.0	912.9811949413674	fix	2.0		60	trustworthiness	038	2.0	2	-2.12	952.2500561453162	0.5167581694449837
224.0	913.4979531108124	face	0.0		147	trustworthiness	036	2.0	2		952.7668143147612	1.2334603746885477
224.0	914.731413485501	rating	1.0		197	trustworthiness	036	2.0	2		954.0002746894497	1.6501977764046387
224.0	916.3816112619056	fix	2.0		60	trustworthiness	036	2.0	2	3.12	955.6504724658544	0.5167451896140847
225.0	916.8983564515197	face	0.0		147	trustworthiness	092	2.0	2		956.1672176554684	1.2334658081063026
225.0	918.131822259626	rating	1.0		255	trustworthiness	092	2.0	2		957.4006834635748	2.133582385101363
225.0	920.2654046447274	fix	2.0		60	trustworthiness	092	2.0	2	0.9699999999999998	959.5342658486761	0.5167596787277944
226.0	920.7821643234552	face	0.0		147	trustworthiness	102	2.0	2		960.0510255274039	1.2334531301312381
226.0	922.0156174535864	rating	1.0		161	trustworthiness	102	2.0	2		961.2844786575351	1.350160829163542
226.0	923.36577828275	fix	2.0		60	trustworthiness	102	2.0	2	2.38	962.6346394866987	0.5167554527370157
227.0	923.882533735487	face	0.0		147	trustworthiness	011	2.0	2		963.1513949394357	1.2334579598364144
227.0	925.1159916953234	rating	1.0		94	trustworthiness	011	2.0	2		964.3848528992721	0.7917597390987794
227.0	925.9077514344222	fix	2.0		60	trustworthiness	011	2.0	2	-1.0299999999999998	965.1766126383709	0.5167545471667836
228.0	926.4245059815889	face	0.0		147	trustworthiness	117	2.0	2		965.6933671855377	1.2334564505536036
228.0	927.6579624321425	rating	1.0		265	trustworthiness	117	2.0	2		966.9268236360913	2.216931918069349
228.0	929.8748943502119	fix	2.0		60	trustworthiness	117	2.0	2	-0.41999999999999993	969.1437555541606	0.5167626972934158
229.0	930.3916570475053	face	0.0		147	trustworthiness	009	2.0	2		969.660518251454	1.23344890413955
229.0	931.6251059516449	rating	1.0		103	trustworthiness	009	2.0	2		970.8939671555936	0.8667774278928846
229.0	932.4918833795377	fix	2.0		60	trustworthiness	009	2.0	2	-0.7200000000000002	971.7607445834865	0.5167485100364502
230.0	933.0086318895742	face	0.0		147	trustworthiness	126	2.0	2		972.2774930935229	1.2334546394140489
230.0	934.2420865289882	rating	1.0		277	trustworthiness	126	2.0	2		973.510947732937	2.3169451393850977
230.0	936.5590316683733	fix	2.0		60	trustworthiness	126	2.0	2	-0.94	975.8278928723221	0.5167527360272288
231.0	937.0757844044006	face	0.0		147	trustworthiness	070	2.0	2		976.3446456083493	1.2334664118197907
231.0	938.3092508162204	rating	1.0		137	trustworthiness	070	2.0	2		977.5781120201691	1.1501301605394474
231.0	939.4593809767598	fix	2.0		60	trustworthiness	070	2.0	2	-3.35	978.7282421807085	0.5167566601621729
232.0	939.976137636922	face	0.0		147	trustworthiness	172	2.0	2		979.2449988408707	1.2334618839713585
232.0	941.2095995208933	rating	1.0		142	trustworthiness	172	2.0	2		980.4784607248421	1.1918014556731578
232.0	942.4014009765665	fix	2.0		60	trustworthiness	172	2.0	2	-3.79	981.6702621805152	0.5167491137490288
233.0	942.9181500903155	face	0.0		147	trustworthiness	144	2.0	2		982.1870112942643	1.2334697322412467
233.0	944.1516198225568	rating	1.0		128	trustworthiness	144	2.0	2		983.4204810265055	1.0751215274422066
233.0	945.226741349999	fix	2.0		60	trustworthiness	144	2.0	2	-1.2400000000000002	984.4956025539477	0.5167512267453276
234.0	945.7434925767443	face	0.0		147	trustworthiness	012	2.0	2		985.012353780693	1.23346852481518
234.0	946.9769611015595	rating	1.0		144	trustworthiness	012	2.0	2		986.2458223055082	1.208475407143851
234.0	948.1854365087033	fix	2.0		60	trustworthiness	012	2.0	2	2.24	987.4542977126521	0.5167454914708287
235.0	948.7021820001742	face	0.0		147	trustworthiness	044	2.0	2		987.9710432041229	1.2334627895406811
235.0	949.9356447897148	rating	1.0		322	trustworthiness	044	2.0	2		989.2045059936636	2.691985286304771
235.0	952.6276300760196	fix	2.0		60	trustworthiness	044	2.0	2	-1.13	991.8964912799684	0.5167530378839729
236.0	953.1443831139036	face	0.0		147	trustworthiness	066	2.0	2		992.4132443178523	1.2334603746885477
236.0	954.3778434885921	rating	1.0		93	trustworthiness	066	2.0	2		993.6467046925409	0.7834336301993972
236.0	955.1612771187915	fix	2.0		60	trustworthiness	066	2.0	2	1.5199999999999996	994.4301383227403	0.5167488118922847
237.0	955.6780259306838	face	0.0		147	trustworthiness	130	2.0	2		994.9468871346326	1.233455846841025
237.0	956.9114817775248	rating	1.0		112	trustworthiness	130	2.0	2		996.1803429814736	0.9417788164319063
237.0	957.8532605939567	fix	2.0		60	trustworthiness	130	2.0	2	0.41999999999999993	997.1221217979055	0.5167569620198265
238.0	958.3700175559766	face	0.0		147	trustworthiness	101	2.0	2		997.6388787599253	1.2334543375573048
238.0	959.6034718935339	rating	1.0		189	trustworthiness	101	2.0	2		998.8723330974826	1.5835227986208338
238.0	961.1869946921547	fix	2.0		60	trustworthiness	101	2.0	2	-1.4100000000000001	1000.4558558961035	0.5167491137490288
239.0	961.7037438059037	face	0.0		147	trustworthiness	027	2.0	2		1000.9726050098525	1.2334621858281025
239.0	962.9372059917318	rating	1.0		243	trustworthiness	027	2.0	2		1002.2060671956806	2.0335758046285264
239.0	964.9707817963604	fix	2.0		60	trustworthiness	027	2.0	2	2.4000000000000004	1004.2396430003091	0.5000679177210259
