trial_nr	onset	event_type	phase	response	nr_frames	face_age	face_sex	face_eth	attractiveness	expression	face_id	sub_id	ses	run	trial_type	catch	rating_type	onset_abs	duration
-1.0	0.0596885082013614	fix	0.0		713													28.070368192529713	5.957912746554939
-1.0	0.7011611213602009	pulse	0.0	t														28.711840805688553	
-1.0	1.4011498319268867	pulse	0.0	t														29.41182951625524	
-1.0	2.10113763692425	pulse	0.0	t														30.1118173212526	
-1.0	2.8011302716222417	pulse	0.0	t														30.811809955950594	
-1.0	3.5011156617656525	pulse	0.0	t														31.511795346094004	
-1.0	4.201097127774119	pulse	0.0	t														32.21177681210247	
-1.0	4.901090969902725	pulse	0.0	t														32.91177065423108	
-1.0	5.601086019454669	pulse	0.0	t														33.61176570378302	
0.0	6.0176012547563005	face	0.0		144	31.0	female	white	2.1822522881018704	smiling	102	sub-09	1.0	5.0	102_smiling	0.0		34.02828093908465	1.2333471784877474
0.0	6.301091332130454	pulse	0.0	t		31.0	female	white	2.1822522881018704	smiling	102	sub-09	1.0	5.0	102_smiling	0.0		34.311771016458806	
0.0	7.001065251723048	pulse	0.0	t		31.0	female	white	2.1822522881018704	smiling	102	sub-09	1.0	5.0	102_smiling	0.0		35.0117449360514	
0.0	7.250948433244048	fix	1.0		445	31.0	female	white	2.1822522881018704	smiling	102	sub-09	1.0	5.0	102_smiling	0.0		35.2616281175724	3.7582584930351004
0.0	7.701058188282332	pulse	1.0	t		31.0	female	white	2.1822522881018704	smiling	102	sub-09	1.0	5.0	102_smiling	0.0		35.711737872610684	
0.0	8.401055652688228	pulse	1.0	t		31.0	female	white	2.1822522881018704	smiling	102	sub-09	1.0	5.0	102_smiling	0.0		36.41173533701658	
0.0	9.101035307554412	pulse	1.0	t		31.0	female	white	2.1822522881018704	smiling	102	sub-09	1.0	5.0	102_smiling	0.0		37.111714991882764	
0.0	9.801094048838422	pulse	1.0	t		31.0	female	white	2.1822522881018704	smiling	102	sub-09	1.0	5.0	102_smiling	0.0		37.811773733166774	
0.0	10.501009710122162	pulse	1.0	t		31.0	female	white	2.1822522881018704	smiling	102	sub-09	1.0	5.0	102_smiling	0.0		38.511689394450514	
1.0	11.009206926279148	face	0.0		146	28.0	male	white	3.9076800636689217	neutral	033	sub-09	1.0	5.0	033_neutral	0.0		39.0198866106075	1.241666042831639
1.0	11.201005363385775	pulse	0.0	t		28.0	male	white	3.9076800636689217	neutral	033	sub-09	1.0	5.0	033_neutral	0.0		39.21168504771413	
1.0	11.900987734967202	pulse	0.0	t		28.0	male	white	3.9076800636689217	neutral	033	sub-09	1.0	5.0	033_neutral	0.0		39.911667419295554	
1.0	12.250872969110787	fix	1.0		444	28.0	male	white	3.9076800636689217	neutral	033	sub-09	1.0	5.0	033_neutral	0.0		40.26155265343914	3.758279321136797
1.0	12.600983991946123	pulse	1.0	t		28.0	male	white	3.9076800636689217	neutral	033	sub-09	1.0	5.0	033_neutral	0.0		40.611663676274475	
1.0	13.300980852636712	pulse	1.0	t		28.0	male	white	3.9076800636689217	neutral	033	sub-09	1.0	5.0	033_neutral	0.0		41.311660536965064	
1.0	14.000968355776422	pulse	1.0	t		28.0	male	white	3.9076800636689217	neutral	033	sub-09	1.0	5.0	033_neutral	0.0		42.011648040104774	
1.0	14.700958877481753	pulse	1.0	t		28.0	male	white	3.9076800636689217	neutral	033	sub-09	1.0	5.0	033_neutral	0.0		42.711638561810105	
1.0	15.40096358644223	pulse	1.0	t		28.0	male	white	3.9076800636689217	neutral	033	sub-09	1.0	5.0	033_neutral	0.0		43.41164327077058	
2.0	16.009152290247584	face	0.0		146	19.0	male	white	3.2522881018702745	neutral	018	sub-09	1.0	5.0	018_neutral	0.0		44.019831974575936	1.2416443091569818
2.0	16.100941732027422	pulse	0.0	t		19.0	male	white	3.2522881018702745	neutral	018	sub-09	1.0	5.0	018_neutral	0.0		44.111621416355774	
2.0	16.80092259432422	pulse	0.0	t		19.0	male	white	3.2522881018702745	neutral	018	sub-09	1.0	5.0	018_neutral	0.0		44.81160227865257	
2.0	17.250796599404566	fix	1.0		444	19.0	male	white	3.2522881018702745	neutral	018	sub-09	1.0	5.0	018_neutral	0.0		45.26147628373292	3.7582738877208612
2.0	17.500908890036953	pulse	1.0	t		19.0	male	white	3.2522881018702745	neutral	018	sub-09	1.0	5.0	018_neutral	0.0		45.511588574365305	
2.0	18.200895185749687	pulse	1.0	t		19.0	male	white	3.2522881018702745	neutral	018	sub-09	1.0	5.0	018_neutral	0.0		46.21157487007804	
2.0	18.900876651758153	pulse	1.0	t		19.0	male	white	3.2522881018702745	neutral	018	sub-09	1.0	5.0	018_neutral	0.0		46.911556336086505	
2.0	19.600885888568882	pulse	1.0	t		19.0	male	white	3.2522881018702745	neutral	018	sub-09	1.0	5.0	018_neutral	0.0		47.611565572897234	
2.0	20.300876712131867	pulse	1.0	t		19.0	male	white	3.2522881018702745	neutral	018	sub-09	1.0	5.0	018_neutral	0.0		48.31155639646022	
3.0	21.009070487125427	face	0.0		147	19.0	male	white	3.2522881018702745	smiling	018	sub-09	1.0	5.0	018_smiling	0.0		49.01975017145378	1.241642196160683
3.0	21.002515974247217	pulse	0.0	t		19.0	male	white	3.2522881018702745	smiling	018	sub-09	1.0	5.0	018_smiling	0.0		49.01319565857557	
3.0	21.700862585243158	pulse	0.0	t		19.0	male	white	3.2522881018702745	smiling	018	sub-09	1.0	5.0	018_smiling	0.0		49.71154226957151	
3.0	22.25071268328611	fix	1.0		443	19.0	male	white	3.2522881018702745	smiling	018	sub-09	1.0	5.0	018_smiling	0.0		50.26139236761446	3.7582838489870483
3.0	22.400820204587944	pulse	1.0	t		19.0	male	white	3.2522881018702745	smiling	018	sub-09	1.0	5.0	018_smiling	0.0		50.411499888916296	
3.0	23.10081827270551	pulse	1.0	t		19.0	male	white	3.2522881018702745	smiling	018	sub-09	1.0	5.0	018_smiling	0.0		51.11149795703386	
3.0	23.800900558795547	pulse	1.0	t		19.0	male	white	3.2522881018702745	smiling	018	sub-09	1.0	5.0	018_smiling	0.0		51.8115802431239	
3.0	24.500808975524706	pulse	1.0	t		19.0	male	white	3.2522881018702745	smiling	018	sub-09	1.0	5.0	018_smiling	0.0		52.51148865985306	
3.0	25.200785611828906	pulse	1.0	t		19.0	male	white	3.2522881018702745	smiling	018	sub-09	1.0	5.0	018_smiling	0.0		53.21146529615726	
3.0	25.90078881150839	pulse	1.0	t		19.0	male	white	3.2522881018702745	smiling	018	sub-09	1.0	5.0	018_smiling	0.0		53.91146849583674	
4.0	26.00899653227316	face	0.0		147	30.0	female	black	2.7345801830481498	smiling	062	sub-09	1.0	5.0	062_smiling	0.0		54.01967621660151	1.241648837007233
4.0	26.60076665523593	pulse	0.0	t		30.0	female	black	2.7345801830481498	smiling	062	sub-09	1.0	5.0	062_smiling	0.0		54.61144633956428	
4.0	27.25064536928039	fix	1.0		443	30.0	female	black	2.7345801830481498	smiling	062	sub-09	1.0	5.0	062_smiling	0.0		55.26132505360874	3.7582651338780124
4.0	27.300880032551504	pulse	1.0	t		30.0	female	black	2.7345801830481498	smiling	062	sub-09	1.0	5.0	062_smiling	0.0		55.311559716879856	
4.0	28.000745585650293	pulse	1.0	t		30.0	female	black	2.7345801830481498	smiling	062	sub-09	1.0	5.0	062_smiling	0.0		56.011425269978645	
4.0	28.700729768366728	pulse	1.0	t		30.0	female	black	2.7345801830481498	smiling	062	sub-09	1.0	5.0	062_smiling	0.0		56.71140945269508	
4.0	29.400733269903867	pulse	1.0	t		30.0	female	black	2.7345801830481498	smiling	062	sub-09	1.0	5.0	062_smiling	0.0		57.41141295423222	
4.0	30.10071292477369	pulse	1.0	t		30.0	female	black	2.7345801830481498	smiling	062	sub-09	1.0	5.0	062_smiling	0.0		58.11139260910204	
4.0	30.80070918175261	pulse	1.0	t		30.0	female	black	2.7345801830481498	smiling	062	sub-09	1.0	5.0	062_smiling	0.0		58.81138886608096	
5.0	31.008910503158404	face	0.0		146	31.0	female	west_asian	2.364902506963788	smiling	006	sub-09	1.0	5.0	006_smiling	0.0		59.019590187486756	1.2416738911015273
5.0	31.500708759151166	pulse	0.0	t		31.0	female	west_asian	2.364902506963788	smiling	006	sub-09	1.0	5.0	006_smiling	0.0		59.51138844347952	
5.0	32.2006847917437	pulse	0.0	t		31.0	female	west_asian	2.364902506963788	smiling	006	sub-09	1.0	5.0	006_smiling	0.0		60.21136447607205	
5.0	32.25058439425993	fix	1.0		445	31.0	female	west_asian	2.364902506963788	smiling	006	sub-09	1.0	5.0	006_smiling	0.0		60.26126407858828	3.7665824889372743
5.0	32.90068467099991	pulse	1.0	t		31.0	female	west_asian	2.364902506963788	smiling	006	sub-09	1.0	5.0	006_smiling	0.0		60.91136435532826	
5.0	33.600664024012076	pulse	1.0	t		31.0	female	west_asian	2.364902506963788	smiling	006	sub-09	1.0	5.0	006_smiling	0.0		61.61134370834043	
5.0	34.300703748333035	pulse	1.0	t		31.0	female	west_asian	2.364902506963788	smiling	006	sub-09	1.0	5.0	006_smiling	0.0		62.31138343266139	
5.0	35.00063570987186	pulse	1.0	t		31.0	female	west_asian	2.364902506963788	smiling	006	sub-09	1.0	5.0	006_smiling	0.0		63.01131539420021	
5.0	35.70062683528886	pulse	1.0	t		31.0	female	west_asian	2.364902506963788	smiling	006	sub-09	1.0	5.0	006_smiling	0.0		63.71130651961721	
6.0	36.017166883197206	face	0.0		145	19.0	male	white	2.243931555909272	neutral	130	sub-09	1.0	5.0	130_neutral	1.0	attractiveness	64.02784656752556	1.233341443214158
6.0	36.40063335538798	pulse	0.0	t		19.0	male	white	2.243931555909272	neutral	130	sub-09	1.0	5.0	130_neutral	1.0	attractiveness	64.41131303971633	
6.0	37.1006027471376	pulse	0.0	t		19.0	male	white	2.243931555909272	neutral	130	sub-09	1.0	5.0	130_neutral	1.0	attractiveness	65.11128243146595	
6.0	37.250508326411364	fix	1.0		177	19.0	male	white	2.243931555909272	neutral	130	sub-09	1.0	5.0	130_neutral	1.0	attractiveness	65.26118801073972	1.5083191661979072
6.0	37.800600815255166	pulse	1.0	t		19.0	male	white	2.243931555909272	neutral	130	sub-09	1.0	5.0	130_neutral	1.0	attractiveness	65.81128049958352	
6.0	38.50058047012499	pulse	1.0	t		19.0	male	white	2.243931555909272	neutral	130	sub-09	1.0	5.0	130_neutral	1.0	attractiveness	66.51126015445334	
6.0	38.75882749260927	rating	2.0		294	19.0	male	white	2.243931555909272	neutral	130	sub-09	1.0	5.0	130_neutral	1.0	attractiveness	66.76950717693762	2.491620764350955
6.0	39.20057914195422	pulse	2.0	t		19.0	male	white	2.243931555909272	neutral	130	sub-09	1.0	5.0	130_neutral	1.0	attractiveness	67.21125882628257	
6.0	39.90056815437856	pulse	2.0	t		19.0	male	white	2.243931555909272	neutral	130	sub-09	1.0	5.0	130_neutral	1.0	attractiveness	67.91124783870691	
6.0	40.092228341189184	response	2.0	n		19.0	male	white	2.243931555909272	neutral	130	sub-09	1.0	5.0	130_neutral	1.0	attractiveness	68.10290802551754	
6.0	40.60054509253678	pulse	2.0	t		19.0	male	white	2.243931555909272	neutral	130	sub-09	1.0	5.0	130_neutral	1.0	attractiveness	68.61122477686513	
6.0	41.250448256960226	fix	3.0		443	19.0	male	white	2.243931555909272	neutral	130	sub-09	1.0	5.0	130_neutral	1.0	attractiveness	69.26112794128858	3.7665797722293064
6.0	41.300561573905725	pulse	3.0	t		19.0	male	white	2.243931555909272	neutral	130	sub-09	1.0	5.0	130_neutral	1.0	attractiveness	69.31124125823408	
6.0	42.000527343374415	pulse	3.0	t		19.0	male	white	2.243931555909272	neutral	130	sub-09	1.0	5.0	130_neutral	1.0	attractiveness	70.01120702770277	
6.0	42.70052812819995	pulse	3.0	t		19.0	male	white	2.243931555909272	neutral	130	sub-09	1.0	5.0	130_neutral	1.0	attractiveness	70.7112078125283	
6.0	43.40050989606607	pulse	3.0	t		19.0	male	white	2.243931555909272	neutral	130	sub-09	1.0	5.0	130_neutral	1.0	attractiveness	71.41118958039442	
6.0	44.10049256950151	pulse	3.0	t		19.0	male	white	2.243931555909272	neutral	130	sub-09	1.0	5.0	130_neutral	1.0	attractiveness	72.11117225382986	
6.0	44.80048369491851	pulse	3.0	t		19.0	male	white	2.243931555909272	neutral	130	sub-09	1.0	5.0	130_neutral	1.0	attractiveness	72.81116337924686	
7.0	45.01702802918953	face	0.0		145	30.0	female	black	2.7345801830481498	neutral	062	sub-09	1.0	5.0	062_neutral	0.0		73.02770771351788	1.2333423487834807
7.0	45.50048417788639	pulse	0.0	t		30.0	female	black	2.7345801830481498	neutral	062	sub-09	1.0	5.0	062_neutral	0.0		73.51116386221474	
7.0	46.20047620887635	pulse	0.0	t		30.0	female	black	2.7345801830481498	neutral	062	sub-09	1.0	5.0	062_neutral	0.0		74.2111558932047	
7.0	46.25037037797301	fix	1.0		445	30.0	female	black	2.7345801830481498	neutral	062	sub-09	1.0	5.0	062_neutral	0.0		74.26105006230136	3.7583255051868036
7.0	46.900470352858974	pulse	1.0	t		30.0	female	black	2.7345801830481498	neutral	062	sub-09	1.0	5.0	062_neutral	0.0		74.91115003718733	
7.0	47.60046057270665	pulse	1.0	t		30.0	female	black	2.7345801830481498	neutral	062	sub-09	1.0	5.0	062_neutral	0.0		75.611140257035	
7.0	48.300437510868505	pulse	1.0	t		30.0	female	black	2.7345801830481498	neutral	062	sub-09	1.0	5.0	062_neutral	0.0		76.31111719519686	
7.0	49.00042742885853	pulse	1.0	t		30.0	female	black	2.7345801830481498	neutral	062	sub-09	1.0	5.0	062_neutral	0.0		77.01110711318688	
7.0	49.70043032668036	pulse	1.0	t		30.0	female	black	2.7345801830481498	neutral	062	sub-09	1.0	5.0	062_neutral	0.0		77.71111001100871	
8.0	50.00869588315982	face	0.0		146	27.0	female	white	4.181058495821727	smiling	039	sub-09	1.0	5.0	039_smiling	0.0		78.01937556748817	1.2416005399609276
8.0	50.400421150243346	pulse	0.0	t		27.0	female	white	4.181058495821727	smiling	039	sub-09	1.0	5.0	039_smiling	0.0		78.4111008345717	
8.0	51.10039446612427	pulse	0.0	t		27.0	female	white	4.181058495821727	smiling	039	sub-09	1.0	5.0	039_smiling	0.0		79.11107415045262	
8.0	51.250296423120744	fix	1.0		445	27.0	female	white	4.181058495821727	smiling	039	sub-09	1.0	5.0	039_smiling	0.0		79.2609761074491	3.766596676196059
8.0	51.800388006395224	pulse	1.0	t		27.0	female	white	4.181058495821727	smiling	039	sub-09	1.0	5.0	039_smiling	0.0		79.81106769072358	
8.0	52.50038124480852	pulse	1.0	t		27.0	female	white	4.181058495821727	smiling	039	sub-09	1.0	5.0	039_smiling	0.0		80.51106092913687	
8.0	53.20036271081699	pulse	1.0	t		27.0	female	white	4.181058495821727	smiling	039	sub-09	1.0	5.0	039_smiling	0.0		81.21104239514534	
8.0	53.900360175222886	pulse	1.0	t		27.0	female	white	4.181058495821727	smiling	039	sub-09	1.0	5.0	039_smiling	0.0		81.91103985955124	
8.0	54.600346169077966	pulse	1.0	t		27.0	female	white	4.181058495821727	smiling	039	sub-09	1.0	5.0	039_smiling	0.0		82.61102585340632	
9.0	55.0168930993168	face	0.0		145	24.0	female	east_asian	2.9076800636689217	smiling	034	sub-09	1.0	5.0	034_smiling	0.0		83.02757278364516	1.2333127668425732
9.0	55.30034725576115	pulse	0.0	t		24.0	female	east_asian	2.9076800636689217	smiling	034	sub-09	1.0	5.0	034_smiling	0.0		83.3110269400895	
9.0	56.00032751434628	pulse	0.0	t		24.0	female	east_asian	2.9076800636689217	smiling	034	sub-09	1.0	5.0	034_smiling	0.0		84.01100719867463	
9.0	56.25020586615938	fix	1.0		445	24.0	female	east_asian	2.9076800636689217	smiling	034	sub-09	1.0	5.0	034_smiling	0.0		84.26088555048773	3.7665951669150672
9.0	56.700325280606194	pulse	1.0	t		24.0	female	east_asian	2.9076800636689217	smiling	034	sub-09	1.0	5.0	034_smiling	0.0		84.71100496493455	
9.0	57.400305539187684	pulse	1.0	t		24.0	female	east_asian	2.9076800636689217	smiling	034	sub-09	1.0	5.0	034_smiling	0.0		85.41098522351604	
9.0	58.1003039091629	pulse	1.0	t		24.0	female	east_asian	2.9076800636689217	smiling	034	sub-09	1.0	5.0	034_smiling	0.0		86.11098359349126	
9.0	58.800281451036426	pulse	1.0	t		24.0	female	east_asian	2.9076800636689217	smiling	034	sub-09	1.0	5.0	034_smiling	0.0		86.81096113536478	
9.0	59.50026684117984	pulse	1.0	t		24.0	female	east_asian	2.9076800636689217	smiling	034	sub-09	1.0	5.0	034_smiling	0.0		87.51094652550819	
10.0	60.016801033074444	face	0.0		145	22.0	female	west_asian	3.8205332272184642	neutral	066	sub-09	1.0	5.0	066_neutral	0.0		88.0274807174028	1.2333426506374963
10.0	60.20027487056359	pulse	0.0	t		22.0	female	west_asian	3.8205332272184642	neutral	066	sub-09	1.0	5.0	066_neutral	0.0		88.21095455489194	
10.0	60.900249092017475	pulse	0.0	t		22.0	female	west_asian	3.8205332272184642	neutral	066	sub-09	1.0	5.0	066_neutral	0.0		88.91092877634583	
10.0	61.25014368371194	fix	1.0		444	22.0	female	west_asian	3.8205332272184642	neutral	066	sub-09	1.0	5.0	066_neutral	0.0		89.26082336804029	3.766580677802267
10.0	61.600238708149845	pulse	1.0	t		22.0	female	west_asian	3.8205332272184642	neutral	066	sub-09	1.0	5.0	066_neutral	0.0		89.6109183924782	
10.0	62.30021957044664	pulse	1.0	t		22.0	female	west_asian	3.8205332272184642	neutral	066	sub-09	1.0	5.0	066_neutral	0.0		90.310899254775	
10.0	63.00021280885994	pulse	1.0	t		22.0	female	west_asian	3.8205332272184642	neutral	066	sub-09	1.0	5.0	066_neutral	0.0		91.0108924931883	
10.0	63.70021027326584	pulse	1.0	t		22.0	female	west_asian	3.8205332272184642	neutral	066	sub-09	1.0	5.0	066_neutral	0.0		91.71088995759419	
10.0	64.40019626712092	pulse	1.0	t		22.0	female	west_asian	3.8205332272184642	neutral	066	sub-09	1.0	5.0	066_neutral	0.0		92.41087595144927	
11.0	65.0167243615142	face	0.0		145	31.0	female	east_asian	3.395941106247513	neutral	087	sub-09	1.0	5.0	087_neutral	0.0		93.02740404584256	1.2333444617761415
11.0	65.10019282595749	pulse	0.0	t		31.0	female	east_asian	3.395941106247513	neutral	087	sub-09	1.0	5.0	087_neutral	0.0		93.11087251028584	
11.0	65.80017489567763	pulse	0.0	t		31.0	female	east_asian	3.395941106247513	neutral	087	sub-09	1.0	5.0	087_neutral	0.0		93.81085458000598	
11.0	66.25006882329035	fix	1.0		444	31.0	female	east_asian	3.395941106247513	neutral	087	sub-09	1.0	5.0	087_neutral	0.0		94.2607485076187	3.766576753667323
11.0	66.50017960464174	pulse	1.0	t		31.0	female	east_asian	3.395941106247513	neutral	087	sub-09	1.0	5.0	087_neutral	0.0		94.5108592889701	
11.0	67.20015654279996	pulse	1.0	t		31.0	female	east_asian	3.395941106247513	neutral	087	sub-09	1.0	5.0	087_neutral	0.0		95.21083622712831	
11.0	67.90014646079362	pulse	1.0	t		31.0	female	east_asian	3.395941106247513	neutral	087	sub-09	1.0	5.0	087_neutral	0.0		95.91082614512197	
11.0	68.60013517135667	pulse	1.0	t		31.0	female	east_asian	3.395941106247513	neutral	087	sub-09	1.0	5.0	087_neutral	0.0		96.61081485568502	
11.0	69.3001320320509	pulse	1.0	t		31.0	female	east_asian	3.395941106247513	neutral	087	sub-09	1.0	5.0	087_neutral	0.0		97.31081171637925	
12.0	70.01664557695767	face	0.0		146	25.0	female	west_asian	2.6756864305610826	smiling	064	sub-09	1.0	5.0	064_smiling	0.0		98.02732526128602	1.2333269540977199
12.0	70.00310278335746	pulse	0.0	t		25.0	female	west_asian	2.6756864305610826	smiling	064	sub-09	1.0	5.0	064_smiling	0.0		98.01378246768581	
12.0	70.70010039748377	pulse	0.0	t		25.0	female	west_asian	2.6756864305610826	smiling	064	sub-09	1.0	5.0	064_smiling	0.0		98.71078008181212	
12.0	71.24997253105539	fix	1.0		443	25.0	female	west_asian	2.6756864305610826	smiling	064	sub-09	1.0	5.0	064_smiling	0.0		99.26065221538374	3.766617202440102
12.0	71.40010661572887	pulse	1.0	t		25.0	female	west_asian	2.6756864305610826	smiling	064	sub-09	1.0	5.0	064_smiling	0.0		99.41078630005723	
12.0	72.10007751675948	pulse	1.0	t		25.0	female	west_asian	2.6756864305610826	smiling	064	sub-09	1.0	5.0	064_smiling	0.0		100.11075720108784	
12.0	72.80006471804154	pulse	1.0	t		25.0	female	west_asian	2.6756864305610826	smiling	064	sub-09	1.0	5.0	064_smiling	0.0		100.81074440236989	
12.0	73.50005433417755	pulse	1.0	t		25.0	female	west_asian	2.6756864305610826	smiling	064	sub-09	1.0	5.0	064_smiling	0.0		101.5107340185059	
12.0	74.20006477841525	pulse	1.0	t		25.0	female	west_asian	2.6756864305610826	smiling	064	sub-09	1.0	5.0	064_smiling	0.0		102.2107444627436	
12.0	74.90003326459191	pulse	1.0	t		25.0	female	west_asian	2.6756864305610826	smiling	064	sub-09	1.0	5.0	064_smiling	0.0		102.91071294892026	
13.0	75.0165897334955	face	0.0		146	24.0	female	east_asian	2.9076800636689217	neutral	034	sub-09	1.0	5.0	034_neutral	0.0		103.02726941782385	1.2333124649849196
13.0	75.60002710671688	pulse	0.0	t		24.0	female	east_asian	2.9076800636689217	neutral	034	sub-09	1.0	5.0	034_neutral	0.0		103.61070679104523	
13.0	76.24990219848041	fix	1.0		443	24.0	female	east_asian	2.9076800636689217	neutral	034	sub-09	1.0	5.0	034_neutral	0.0		104.26058188280876	3.7666096560315054
13.0	76.30001400614492	pulse	1.0	t		24.0	female	east_asian	2.9076800636689217	neutral	034	sub-09	1.0	5.0	034_neutral	0.0		104.31069369047327	
13.0	77.0000166021091	pulse	1.0	t		24.0	female	east_asian	2.9076800636689217	neutral	034	sub-09	1.0	5.0	034_neutral	0.0		105.01069628643745	
13.0	77.70000078482553	pulse	1.0	t		24.0	female	east_asian	2.9076800636689217	neutral	034	sub-09	1.0	5.0	034_neutral	0.0		105.71068046915389	
13.0	78.39998526939962	pulse	1.0	t		24.0	female	east_asian	2.9076800636689217	neutral	034	sub-09	1.0	5.0	034_neutral	0.0		106.41066495372797	
13.0	79.09995798156888	pulse	1.0	t		24.0	female	east_asian	2.9076800636689217	neutral	034	sub-09	1.0	5.0	034_neutral	0.0		107.11063766589723	
13.0	79.79997053880288	pulse	1.0	t		24.0	female	east_asian	2.9076800636689217	neutral	034	sub-09	1.0	5.0	034_neutral	0.0		107.81065022313123	
14.0	80.01651185451192	face	0.0		145	28.0	male	east_asian	1.5563072025467568	neutral	005	sub-09	1.0	5.0	005_neutral	1.0	trustworthiness	108.02719153884027	1.233328161524696
14.0	80.49995985308124	pulse	0.0	t		28.0	male	east_asian	1.5563072025467568	neutral	005	sub-09	1.0	5.0	005_neutral	1.0	trustworthiness	108.51063953740959	
14.0	81.19994765807496	pulse	0.0	t		28.0	male	east_asian	1.5563072025467568	neutral	005	sub-09	1.0	5.0	005_neutral	1.0	trustworthiness	109.21062734240331	
14.0	81.24984001603661	fix	1.0		177	28.0	male	east_asian	1.5563072025467568	neutral	005	sub-09	1.0	5.0	005_neutral	1.0	trustworthiness	109.26051970036497	1.499964079070196
14.0	81.89993395379133	pulse	1.0	t		28.0	male	east_asian	1.5563072025467568	neutral	005	sub-09	1.0	5.0	005_neutral	1.0	trustworthiness	109.91061363811968	
14.0	82.59991934393474	pulse	1.0	t		28.0	male	east_asian	1.5563072025467568	neutral	005	sub-09	1.0	5.0	005_neutral	1.0	trustworthiness	110.6105990282631	
14.0	82.74980409510681	rating	2.0		295	28.0	male	east_asian	1.5563072025467568	neutral	005	sub-09	1.0	5.0	005_neutral	1.0	trustworthiness	110.76048377943516	2.4999622679315507
14.0	83.29992646774917	pulse	2.0	t		28.0	male	east_asian	1.5563072025467568	neutral	005	sub-09	1.0	5.0	005_neutral	1.0	trustworthiness	111.31060615207753	
14.0	83.99990280219572	pulse	2.0	t		28.0	male	east_asian	1.5563072025467568	neutral	005	sub-09	1.0	5.0	005_neutral	1.0	trustworthiness	112.01058248652407	
14.0	84.63323102409049	response	2.0	y		28.0	male	east_asian	1.5563072025467568	neutral	005	sub-09	1.0	5.0	005_neutral	1.0	trustworthiness	112.64391070841884	
14.0	84.69988698491215	pulse	2.0	t		28.0	male	east_asian	1.5563072025467568	neutral	005	sub-09	1.0	5.0	005_neutral	1.0	trustworthiness	112.7105666692405	
14.0	85.24976636303836	fix	3.0		443	28.0	male	east_asian	1.5563072025467568	neutral	005	sub-09	1.0	5.0	005_neutral	1.0	trustworthiness	113.26044604736671	3.766609957885521
14.0	85.3998799214678	pulse	3.0	t		28.0	male	east_asian	1.5563072025467568	neutral	005	sub-09	1.0	5.0	005_neutral	1.0	trustworthiness	113.41055960579615	
14.0	86.09985233178304	pulse	3.0	t		28.0	male	east_asian	1.5563072025467568	neutral	005	sub-09	1.0	5.0	005_neutral	1.0	trustworthiness	114.11053201611139	
14.0	86.79986368158643	pulse	3.0	t		28.0	male	east_asian	1.5563072025467568	neutral	005	sub-09	1.0	5.0	005_neutral	1.0	trustworthiness	114.81054336591478	
14.0	87.49984665687953	pulse	3.0	t		28.0	male	east_asian	1.5563072025467568	neutral	005	sub-09	1.0	5.0	005_neutral	1.0	trustworthiness	115.51052634120788	
14.0	88.19984713985104	pulse	3.0	t		28.0	male	east_asian	1.5563072025467568	neutral	005	sub-09	1.0	5.0	005_neutral	1.0	trustworthiness	116.2105268241794	
14.0	88.89982468172457	pulse	3.0	t		28.0	male	east_asian	1.5563072025467568	neutral	005	sub-09	1.0	5.0	005_neutral	1.0	trustworthiness	116.91050436605292	
15.0	89.01637632092388	face	0.0		146	21.0	male	black	2.969757262236371	smiling	137	sub-09	1.0	5.0	137_smiling	0.0		117.02705600525223	1.2333206151124614
15.0	89.59982607026177	pulse	0.0	t		21.0	male	black	2.969757262236371	smiling	137	sub-09	1.0	5.0	137_smiling	0.0		117.61050575459012	
15.0	90.24969693603634	fix	1.0		443	21.0	male	black	2.969757262236371	smiling	137	sub-09	1.0	5.0	137_smiling	0.0		118.2603766203647	3.7582717747209244
15.0	90.29980602698924	pulse	1.0	t		21.0	male	black	2.969757262236371	smiling	137	sub-09	1.0	5.0	137_smiling	0.0		118.3104857113176	
15.0	90.99978055029715	pulse	1.0	t		21.0	male	black	2.969757262236371	smiling	137	sub-09	1.0	5.0	137_smiling	0.0		119.0104602346255	
15.0	91.69977861841471	pulse	1.0	t		21.0	male	black	2.969757262236371	smiling	137	sub-09	1.0	5.0	137_smiling	0.0		119.71045830274306	
15.0	92.39990256070814	pulse	1.0	t		21.0	male	black	2.969757262236371	smiling	137	sub-09	1.0	5.0	137_smiling	0.0		120.4105822450365	
15.0	93.09975754882907	pulse	1.0	t		21.0	male	black	2.969757262236371	smiling	137	sub-09	1.0	5.0	137_smiling	0.0		121.11043723315743	
15.0	93.79975682437362	pulse	1.0	t		21.0	male	black	2.969757262236371	smiling	137	sub-09	1.0	5.0	137_smiling	0.0		121.81043650870197	
16.0	94.00796871075727	face	0.0		146	47.0	male	east_asian	2.171110226820533	neutral	024	sub-09	1.0	5.0	024_neutral	0.0		122.01864839508562	1.2416624205543485
16.0	94.49974976092926	pulse	0.0	t		47.0	male	east_asian	2.171110226820533	neutral	024	sub-09	1.0	5.0	024_neutral	0.0		122.51042944525761	
16.0	95.19972760466044	pulse	0.0	t		47.0	male	east_asian	2.171110226820533	neutral	024	sub-09	1.0	5.0	024_neutral	0.0		123.21040728898879	
16.0	95.24963113131162	fix	1.0		444	47.0	male	east_asian	2.171110226820533	neutral	024	sub-09	1.0	5.0	024_neutral	0.0		123.26031081563997	3.7665776592330076
16.0	95.89972627648967	pulse	1.0	t		47.0	male	east_asian	2.171110226820533	neutral	024	sub-09	1.0	5.0	024_neutral	0.0		123.91040596081803	
16.0	96.59971227034839	pulse	1.0	t		47.0	male	east_asian	2.171110226820533	neutral	024	sub-09	1.0	5.0	024_neutral	0.0		124.61039195467674	
16.0	97.29968830293728	pulse	1.0	t		47.0	male	east_asian	2.171110226820533	neutral	024	sub-09	1.0	5.0	024_neutral	0.0		125.31036798726564	
16.0	97.99968486177386	pulse	1.0	t		47.0	male	east_asian	2.171110226820533	neutral	024	sub-09	1.0	5.0	024_neutral	0.0		126.01036454610221	
16.0	98.69966844077862	pulse	1.0	t		47.0	male	east_asian	2.171110226820533	neutral	024	sub-09	1.0	5.0	024_neutral	0.0		126.71034812510698	
17.0	99.01620879054462	face	0.0		145	25.0	female	west_asian	2.6756864305610826	neutral	064	sub-09	1.0	5.0	064_neutral	1.0	dominance	127.02688847487298	1.2333296708093258
17.0	99.39966590518452	pulse	0.0	t		25.0	female	west_asian	2.6756864305610826	neutral	064	sub-09	1.0	5.0	064_neutral	1.0	dominance	127.41034558951287	
17.0	100.09965069161262	pulse	0.0	t		25.0	female	west_asian	2.6756864305610826	neutral	064	sub-09	1.0	5.0	064_neutral	1.0	dominance	128.11033037594098	
17.0	100.24953846135395	fix	1.0		177	25.0	female	west_asian	2.6756864305610826	neutral	064	sub-09	1.0	5.0	064_neutral	1.0	dominance	128.2602181456823	1.4999782663289807
17.0	100.79964272260258	pulse	1.0	t		25.0	female	west_asian	2.6756864305610826	neutral	064	sub-09	1.0	5.0	064_neutral	1.0	dominance	128.81032240693094	
17.0	101.49963264059261	pulse	1.0	t		25.0	female	west_asian	2.6756864305610826	neutral	064	sub-09	1.0	5.0	064_neutral	1.0	dominance	129.51031232492096	
17.0	101.74951672768293	rating	2.0		295	25.0	female	west_asian	2.6756864305610826	neutral	064	sub-09	1.0	5.0	064_neutral	1.0	dominance	129.76019641201128	2.4999755496210128
17.0	102.19962648272121	pulse	2.0	t		25.0	female	west_asian	2.6756864305610826	neutral	064	sub-09	1.0	5.0	064_neutral	1.0	dominance	130.21030616704957	
17.0	102.89962636197743	pulse	2.0	t		25.0	female	west_asian	2.6756864305610826	neutral	064	sub-09	1.0	5.0	064_neutral	1.0	dominance	130.91030604630578	
17.0	103.5996102428362	pulse	2.0	t		25.0	female	west_asian	2.6756864305610826	neutral	064	sub-09	1.0	5.0	064_neutral	1.0	dominance	131.61028992716456	
17.0	103.61939241108485	response	2.0	w		25.0	female	west_asian	2.6756864305610826	neutral	064	sub-09	1.0	5.0	064_neutral	1.0	dominance	131.6300720954132	
17.0	104.24949227730394	fix	3.0		443	25.0	female	west_asian	2.6756864305610826	neutral	064	sub-09	1.0	5.0	064_neutral	1.0	dominance	132.2601719616323	3.766595468769083
17.0	104.2996077072421	pulse	3.0	t		25.0	female	west_asian	2.6756864305610826	neutral	064	sub-09	1.0	5.0	064_neutral	1.0	dominance	132.31028739157045	
17.0	104.99958072126901	pulse	3.0	t		25.0	female	west_asian	2.6756864305610826	neutral	064	sub-09	1.0	5.0	064_neutral	1.0	dominance	133.01026040559736	
17.0	105.69957788381726	pulse	3.0	t		25.0	female	west_asian	2.6756864305610826	neutral	064	sub-09	1.0	5.0	064_neutral	1.0	dominance	133.7102575681456	
17.0	106.39956961294956	pulse	3.0	t		25.0	female	west_asian	2.6756864305610826	neutral	064	sub-09	1.0	5.0	064_neutral	1.0	dominance	134.41024929727791	
17.0	107.0995516826697	pulse	3.0	t		25.0	female	west_asian	2.6756864305610826	neutral	064	sub-09	1.0	5.0	064_neutral	1.0	dominance	135.11023136699805	
17.0	107.79954673222164	pulse	3.0	t		25.0	female	west_asian	2.6756864305610826	neutral	064	sub-09	1.0	5.0	064_neutral	1.0	dominance	135.81022641655	
18.0	108.01608774607303	face	0.0		145	27.0	male	black	3.5523278949462798	neutral	042	sub-09	1.0	5.0	042_neutral	0.0		136.02676743040138	1.2333136724118958
18.0	108.49953876320797	pulse	0.0	t		27.0	male	black	3.5523278949462798	neutral	042	sub-09	1.0	5.0	042_neutral	0.0		136.51021844753632	
18.0	109.19951238094654	pulse	0.0	t		27.0	male	black	3.5523278949462798	neutral	042	sub-09	1.0	5.0	042_neutral	0.0		137.2101920652749	
18.0	109.24940141848492	fix	1.0		444	27.0	male	black	3.5523278949462798	neutral	042	sub-09	1.0	5.0	042_neutral	0.0		137.26008110281327	3.7666018077579793
18.0	109.89951829733764	pulse	1.0	t		27.0	male	black	3.5523278949462798	neutral	042	sub-09	1.0	5.0	042_neutral	0.0		137.910197981666	
18.0	110.59950097076944	pulse	1.0	t		27.0	male	black	3.5523278949462798	neutral	042	sub-09	1.0	5.0	042_neutral	0.0		138.6101806550978	
18.0	111.29948545534353	pulse	1.0	t		27.0	male	black	3.5523278949462798	neutral	042	sub-09	1.0	5.0	042_neutral	0.0		139.31016513967188	
18.0	111.99947144920225	pulse	1.0	t		27.0	male	black	3.5523278949462798	neutral	042	sub-09	1.0	5.0	042_neutral	0.0		140.0101511335306	
18.0	112.69946106533826	pulse	1.0	t		27.0	male	black	3.5523278949462798	neutral	042	sub-09	1.0	5.0	042_neutral	0.0		140.7101407496666	
19.0	113.0160032262429	face	0.0		145	20.0	male	black	2.609629924393156	neutral	043	sub-09	1.0	5.0	043_neutral	0.0		141.02668291057125	1.2333384246485366
19.0	113.39945098332828	pulse	0.0	t		20.0	male	black	2.609629924393156	neutral	043	sub-09	1.0	5.0	043_neutral	0.0		141.41013066765663	
19.0	114.09944271246059	pulse	0.0	t		20.0	male	black	2.609629924393156	neutral	043	sub-09	1.0	5.0	043_neutral	0.0		142.11012239678894	
19.0	114.24934165089144	fix	1.0		444	20.0	male	black	2.609629924393156	neutral	043	sub-09	1.0	5.0	043_neutral	0.0		142.2600213352198	3.7582944139612664
19.0	114.79944138428982	pulse	1.0	t		20.0	male	black	2.609629924393156	neutral	043	sub-09	1.0	5.0	043_neutral	0.0		142.81012106861817	
19.0	115.49942768000255	pulse	1.0	t		20.0	male	black	2.609629924393156	neutral	043	sub-09	1.0	5.0	043_neutral	0.0		143.5101073643309	
19.0	116.199410353438	pulse	1.0	t		20.0	male	black	2.609629924393156	neutral	043	sub-09	1.0	5.0	043_neutral	0.0		144.21009003776635	
19.0	116.899399969574	pulse	1.0	t		20.0	male	black	2.609629924393156	neutral	043	sub-09	1.0	5.0	043_neutral	0.0		144.91007965390236	
19.0	117.59940165996886	pulse	1.0	t		20.0	male	black	2.609629924393156	neutral	043	sub-09	1.0	5.0	043_neutral	0.0		145.6100813442972	
20.0	118.0076360648527	face	0.0		146	31.0	female	east_asian	3.395941106247513	smiling	087	sub-09	1.0	5.0	087_smiling	1.0	trustworthiness	146.01831574918106	1.2416298200478195
20.0	118.29938946496623	pulse	0.0	t		31.0	female	east_asian	3.395941106247513	smiling	087	sub-09	1.0	5.0	087_smiling	1.0	trustworthiness	146.31006914929458	
20.0	118.99937364768266	pulse	0.0	t		31.0	female	east_asian	3.395941106247513	smiling	087	sub-09	1.0	5.0	087_smiling	1.0	trustworthiness	147.010053332011	
20.0	119.24926588490052	fix	1.0		177	31.0	female	east_asian	3.395941106247513	smiling	087	sub-09	1.0	5.0	087_smiling	1.0	trustworthiness	147.25994556922888	1.4999776626136736
20.0	119.6993665842383	pulse	1.0	t		31.0	female	east_asian	3.395941106247513	smiling	087	sub-09	1.0	5.0	087_smiling	1.0	trustworthiness	147.71004626856666	
20.0	120.39935469109332	pulse	1.0	t		31.0	female	east_asian	3.395941106247513	smiling	087	sub-09	1.0	5.0	087_smiling	1.0	trustworthiness	148.41003437542167	
20.0	120.7492435475142	rating	2.0		294	31.0	female	east_asian	3.395941106247513	smiling	087	sub-09	1.0	5.0	087_smiling	1.0	trustworthiness	148.75992323184255	2.4999616642198816
20.0	121.09935004250292	pulse	2.0	t		31.0	female	east_asian	3.395941106247513	smiling	087	sub-09	1.0	5.0	087_smiling	1.0	trustworthiness	149.11002972683127	
20.0	121.79933543264633	pulse	2.0	t		31.0	female	east_asian	3.395941106247513	smiling	087	sub-09	1.0	5.0	087_smiling	1.0	trustworthiness	149.81001511697468	
20.0	122.4993277654903	pulse	2.0	t		31.0	female	east_asian	3.395941106247513	smiling	087	sub-09	1.0	5.0	087_smiling	1.0	trustworthiness	150.51000744981866	
20.0	122.56092732743491	response	2.0	y		31.0	female	east_asian	3.395941106247513	smiling	087	sub-09	1.0	5.0	087_smiling	1.0	trustworthiness	150.57160701176326	
20.0	123.1992850829738	pulse	2.0	t		31.0	female	east_asian	3.395941106247513	smiling	087	sub-09	1.0	5.0	087_smiling	1.0	trustworthiness	151.20996476730215	
20.0	123.24920521173408	fix	3.0		1186	31.0	female	east_asian	3.395941106247513	smiling	087	sub-09	1.0	5.0	087_smiling	1.0	trustworthiness	151.25988489606243	10.024833737417794
20.0	123.89930820518566	pulse	3.0	t		31.0	female	east_asian	3.395941106247513	smiling	087	sub-09	1.0	5.0	087_smiling	1.0	trustworthiness	151.909987889514	
20.0	124.59928755819783	pulse	3.0	t		31.0	female	east_asian	3.395941106247513	smiling	087	sub-09	1.0	5.0	087_smiling	1.0	trustworthiness	152.60996724252618	
20.0	125.29927807990316	pulse	3.0	t		31.0	female	east_asian	3.395941106247513	smiling	087	sub-09	1.0	5.0	087_smiling	1.0	trustworthiness	153.3099577642315	
20.0	125.99926528118522	pulse	3.0	t		31.0	female	east_asian	3.395941106247513	smiling	087	sub-09	1.0	5.0	087_smiling	1.0	trustworthiness	154.00994496551357	
20.0	126.6992555010329	pulse	3.0	t		31.0	female	east_asian	3.395941106247513	smiling	087	sub-09	1.0	5.0	087_smiling	1.0	trustworthiness	154.70993518536125	
20.0	127.39923998560698	pulse	3.0	t		31.0	female	east_asian	3.395941106247513	smiling	087	sub-09	1.0	5.0	087_smiling	1.0	trustworthiness	155.40991966993533	
20.0	128.0992368463012	pulse	3.0	t		31.0	female	east_asian	3.395941106247513	smiling	087	sub-09	1.0	5.0	087_smiling	1.0	trustworthiness	156.10991653062956	
20.0	128.7992249531526	pulse	3.0	t		31.0	female	east_asian	3.395941106247513	smiling	087	sub-09	1.0	5.0	087_smiling	1.0	trustworthiness	156.80990463748094	
20.0	129.49921939899286	pulse	3.0	t		31.0	female	east_asian	3.395941106247513	smiling	087	sub-09	1.0	5.0	087_smiling	1.0	trustworthiness	157.50989908332122	
20.0	130.1991978464357	pulse	3.0	t		31.0	female	east_asian	3.395941106247513	smiling	087	sub-09	1.0	5.0	087_smiling	1.0	trustworthiness	158.20987753076406	
20.0	130.89917780315955	pulse	3.0	t		31.0	female	east_asian	3.395941106247513	smiling	087	sub-09	1.0	5.0	087_smiling	1.0	trustworthiness	158.9098574874879	
20.0	131.59917255085747	pulse	3.0	t		31.0	female	east_asian	3.395941106247513	smiling	087	sub-09	1.0	5.0	087_smiling	1.0	trustworthiness	159.60985223518583	
20.0	132.29916126142416	pulse	3.0	t		31.0	female	east_asian	3.395941106247513	smiling	087	sub-09	1.0	5.0	087_smiling	1.0	trustworthiness	160.3098409457525	
20.0	132.9991665740963	pulse	3.0	t		31.0	female	east_asian	3.395941106247513	smiling	087	sub-09	1.0	5.0	087_smiling	1.0	trustworthiness	161.00984625842466	
21.0	133.27403894915187	face	0.0		145	54.0	female	white	2.286908077994429	neutral	136	sub-09	1.0	5.0	136_neutral	0.0		161.28471863348022	1.2333272559553734
21.0	133.69915558652065	pulse	0.0	t		54.0	female	white	2.286908077994429	neutral	136	sub-09	1.0	5.0	136_neutral	0.0		161.709835270849	
21.0	134.39917569016689	pulse	0.0	t		54.0	female	white	2.286908077994429	neutral	136	sub-09	1.0	5.0	136_neutral	0.0		162.40985537449524	
21.0	134.50736620510725	fix	1.0		444	54.0	female	white	2.286908077994429	neutral	136	sub-09	1.0	5.0	136_neutral	0.0		162.5180458894356	3.7582491354842205
21.0	135.09913210208106	pulse	1.0	t		54.0	female	white	2.286908077994429	neutral	136	sub-09	1.0	5.0	136_neutral	0.0		163.1098117864094	
21.0	135.79911024766625	pulse	1.0	t		54.0	female	white	2.286908077994429	neutral	136	sub-09	1.0	5.0	136_neutral	0.0		163.8097899319946	
21.0	136.49909865637528	pulse	1.0	t		54.0	female	white	2.286908077994429	neutral	136	sub-09	1.0	5.0	136_neutral	0.0		164.50977834070363	
21.0	137.19908072609906	pulse	1.0	t		54.0	female	white	2.286908077994429	neutral	136	sub-09	1.0	5.0	136_neutral	0.0		165.2097604104274	
21.0	137.89907668122032	pulse	1.0	t		54.0	female	white	2.286908077994429	neutral	136	sub-09	1.0	5.0	136_neutral	0.0		165.90975636554867	
22.0	138.26561534059147	face	0.0		146	40.0	male	black	2.408674890569041	smiling	061	sub-09	1.0	5.0	061_smiling	0.0		166.27629502491982	1.24167479667085
22.0	138.59908531431574	pulse	0.0	t		40.0	male	black	2.408674890569041	smiling	061	sub-09	1.0	5.0	061_smiling	0.0		166.6097649986441	
22.0	139.29905832834265	pulse	0.0	t		40.0	male	black	2.408674890569041	smiling	061	sub-09	1.0	5.0	061_smiling	0.0		167.309738012671	
22.0	139.50729013726232	fix	1.0		444	40.0	male	black	2.408674890569041	smiling	061	sub-09	1.0	5.0	061_smiling	0.0		167.51796982159067	3.7665803759409755
22.0	139.99905941502584	pulse	1.0	t		40.0	male	black	2.408674890569041	smiling	061	sub-09	1.0	5.0	061_smiling	0.0		168.0097390993542	
22.0	140.69904691816555	pulse	1.0	t		40.0	male	black	2.408674890569041	smiling	061	sub-09	1.0	5.0	061_smiling	0.0		168.7097266024939	
22.0	141.39901993219246	pulse	1.0	t		40.0	male	black	2.408674890569041	smiling	061	sub-09	1.0	5.0	061_smiling	0.0		169.4096996165208	
22.0	142.09900803904384	pulse	1.0	t		40.0	male	black	2.408674890569041	smiling	061	sub-09	1.0	5.0	061_smiling	0.0		170.1096877233722	
22.0	142.79900550344973	pulse	1.0	t		40.0	male	black	2.408674890569041	smiling	061	sub-09	1.0	5.0	061_smiling	0.0		170.8096851877781	
23.0	143.2738705132033	face	0.0		145	40.0	female	west_asian	1.5777954635893354	smiling	038	sub-09	1.0	5.0	038_smiling	0.0		171.28455019753164	1.233344159922126
23.0	143.4989972325784	pulse	0.0	t		40.0	female	west_asian	1.5777954635893354	smiling	038	sub-09	1.0	5.0	038_smiling	0.0		171.50967691690676	
23.0	144.19898956542238	pulse	0.0	t		40.0	female	west_asian	1.5777954635893354	smiling	038	sub-09	1.0	5.0	038_smiling	0.0		172.20966924975073	
23.0	144.50721467312542	fix	1.0		444	40.0	female	west_asian	1.5777954635893354	smiling	038	sub-09	1.0	5.0	038_smiling	0.0		172.51789435745377	3.766579470375291
23.0	144.898983407551	pulse	1.0	t		40.0	female	west_asian	1.5777954635893354	smiling	038	sub-09	1.0	5.0	038_smiling	0.0		172.90966309187934	
23.0	145.59897483482564	pulse	1.0	t		40.0	female	west_asian	1.5777954635893354	smiling	038	sub-09	1.0	5.0	038_smiling	0.0		173.609654519154	
23.0	146.29895448969546	pulse	1.0	t		40.0	female	west_asian	1.5777954635893354	smiling	038	sub-09	1.0	5.0	038_smiling	0.0		174.3096341740238	
23.0	146.99893565384627	pulse	1.0	t		40.0	female	west_asian	1.5777954635893354	smiling	038	sub-09	1.0	5.0	038_smiling	0.0		175.00961533817463	
23.0	147.69893160896754	pulse	1.0	t		40.0	female	west_asian	1.5777954635893354	smiling	038	sub-09	1.0	5.0	038_smiling	0.0		175.7096112932959	
24.0	148.2737941435007	face	0.0		145	26.0	male	white	2.7966573816155993	smiling	117	sub-09	1.0	5.0	117_smiling	0.0		176.28447382782906	1.233344763633795
24.0	148.39892454552682	pulse	0.0	t		26.0	male	white	2.7966573816155993	smiling	117	sub-09	1.0	5.0	117_smiling	0.0		176.40960422985518	
24.0	149.098903898539	pulse	0.0	t		26.0	male	white	2.7966573816155993	smiling	117	sub-09	1.0	5.0	117_smiling	0.0		177.10958358286734	
24.0	149.5071389071345	fix	1.0		444	26.0	male	white	2.7966573816155993	smiling	117	sub-09	1.0	5.0	117_smiling	0.0		177.51781859146286	3.7665809796562826
24.0	149.79891072049577	pulse	1.0	t		26.0	male	white	2.7966573816155993	smiling	117	sub-09	1.0	5.0	117_smiling	0.0		177.80959040482412	
24.0	150.49889882734715	pulse	1.0	t		26.0	male	white	2.7966573816155993	smiling	117	sub-09	1.0	5.0	117_smiling	0.0		178.5095785116755	
24.0	151.19893281639452	pulse	1.0	t		26.0	male	white	2.7966573816155993	smiling	117	sub-09	1.0	5.0	117_smiling	0.0		179.20961250072287	
24.0	151.8988747391959	pulse	1.0	t		26.0	male	white	2.7966573816155993	smiling	117	sub-09	1.0	5.0	117_smiling	0.0		179.90955442352424	
24.0	152.59886254419325	pulse	1.0	t		26.0	male	white	2.7966573816155993	smiling	117	sub-09	1.0	5.0	117_smiling	0.0		180.6095422285216	
25.0	153.2737198867908	face	0.0		145	20.0	female	white	3.9502586549940313	neutral	091	sub-09	1.0	5.0	091_neutral	0.0		181.28439957111914	1.2333435562104569
25.0	153.29885095290228	pulse	0.0	t		20.0	female	white	3.9502586549940313	neutral	091	sub-09	1.0	5.0	091_neutral	0.0		181.30953063723064	
25.0	153.9988284947758	pulse	0.0	t		20.0	female	white	3.9502586549940313	neutral	091	sub-09	1.0	5.0	091_neutral	0.0		182.00950817910416	
25.0	154.50706344300124	fix	1.0		443	20.0	female	white	3.9502586549940313	neutral	091	sub-09	1.0	5.0	091_neutral	0.0		182.5177431273296	3.758377726368053
25.0	154.6988383352982	pulse	1.0	t		20.0	female	white	3.9502586549940313	neutral	091	sub-09	1.0	5.0	091_neutral	0.0		182.70951801962656	
25.0	155.39882674400724	pulse	1.0	t		20.0	female	white	3.9502586549940313	neutral	091	sub-09	1.0	5.0	091_neutral	0.0		183.4095064283356	
25.0	156.09880881372737	pulse	1.0	t		20.0	female	white	3.9502586549940313	neutral	091	sub-09	1.0	5.0	091_neutral	0.0		184.10948849805573	
25.0	156.79879752429406	pulse	1.0	t		20.0	female	white	3.9502586549940313	neutral	091	sub-09	1.0	5.0	091_neutral	0.0		184.8094772086224	
25.0	157.49878955528038	pulse	1.0	t		20.0	female	white	3.9502586549940313	neutral	091	sub-09	1.0	5.0	091_neutral	0.0		185.50946923960873	
25.0	158.19876619158458	pulse	1.0	t		20.0	female	white	3.9502586549940313	neutral	091	sub-09	1.0	5.0	091_neutral	0.0		186.20944587591293	
26.0	158.2654411693693	face	0.0		147	40.0	female	west_asian	1.5777954635893354	neutral	038	sub-09	1.0	5.0	038_neutral	0.0		186.27612085369765	1.2415320185245946
26.0	158.89876637269845	pulse	0.0	t		40.0	female	west_asian	1.5777954635893354	neutral	038	sub-09	1.0	5.0	038_neutral	0.0		186.9094460570268	
26.0	159.5069731878939	fix	1.0		443	40.0	female	west_asian	1.5777954635893354	neutral	038	sub-09	1.0	5.0	038_neutral	0.0		187.51765287222224	3.7666108634548436
26.0	159.59875236655716	pulse	1.0	t		40.0	female	west_asian	1.5777954635893354	neutral	038	sub-09	1.0	5.0	038_neutral	0.0		187.60943205088552	
26.0	160.2987489253901	pulse	1.0	t		40.0	female	west_asian	1.5777954635893354	neutral	038	sub-09	1.0	5.0	038_neutral	0.0		188.30942860971845	
26.0	160.9987261654096	pulse	1.0	t		40.0	female	west_asian	1.5777954635893354	neutral	038	sub-09	1.0	5.0	038_neutral	0.0		189.00940584973796	
26.0	161.69882867588967	pulse	1.0	t		40.0	female	west_asian	1.5777954635893354	neutral	038	sub-09	1.0	5.0	038_neutral	0.0		189.70950836021802	
26.0	162.39871324594787	pulse	1.0	t		40.0	female	west_asian	1.5777954635893354	neutral	038	sub-09	1.0	5.0	038_neutral	0.0		190.40939293027623	
26.0	163.0987079936458	pulse	1.0	t		40.0	female	west_asian	1.5777954635893354	neutral	038	sub-09	1.0	5.0	038_neutral	0.0		191.10938767797415	
27.0	163.27358405134873	face	0.0		146	22.0	female	west_asian	3.8205332272184642	smiling	066	sub-09	1.0	5.0	066_smiling	0.0		191.2842637356771	1.2416636279776867
27.0	163.7986933837892	pulse	0.0	t		22.0	female	west_asian	3.8205332272184642	smiling	066	sub-09	1.0	5.0	066_smiling	0.0		191.80937306811757	
27.0	164.49868541477554	pulse	0.0	t		22.0	female	west_asian	3.8205332272184642	smiling	066	sub-09	1.0	5.0	066_smiling	0.0		192.5093650991039	
27.0	164.51524767932642	fix	1.0		443	22.0	female	west_asian	3.8205332272184642	smiling	066	sub-09	1.0	5.0	066_smiling	0.0		192.52592736365477	3.74999064244912
27.0	165.19867623833488	pulse	1.0	t		22.0	female	west_asian	3.8205332272184642	smiling	066	sub-09	1.0	5.0	066_smiling	0.0		193.20935592266324	
27.0	165.89866102476662	pulse	1.0	t		22.0	female	west_asian	3.8205332272184642	smiling	066	sub-09	1.0	5.0	066_smiling	0.0		193.90934070909498	
27.0	166.59865003718733	pulse	1.0	t		22.0	female	west_asian	3.8205332272184642	smiling	066	sub-09	1.0	5.0	066_smiling	0.0		194.60932972151568	
27.0	167.29863754032704	pulse	1.0	t		22.0	female	west_asian	3.8205332272184642	smiling	066	sub-09	1.0	5.0	066_smiling	0.0		195.3093172246554	
27.0	167.99863379730596	pulse	1.0	t		22.0	female	west_asian	3.8205332272184642	smiling	066	sub-09	1.0	5.0	066_smiling	0.0		196.0093134816343	
28.0	168.26523832177554	face	0.0		146	40.0	male	white	1.868682849184242	smiling	172	sub-09	1.0	5.0	172_smiling	0.0		196.2759180061039	1.2415990306762978
28.0	168.69861586702973	pulse	0.0	t		40.0	male	white	1.868682849184242	smiling	172	sub-09	1.0	5.0	172_smiling	0.0		196.70929555135808	
28.0	169.39861514257427	pulse	0.0	t		40.0	male	white	1.868682849184242	smiling	172	sub-09	1.0	5.0	172_smiling	0.0		197.40929482690262	
28.0	169.50683735245184	fix	1.0		444	40.0	male	white	1.868682849184242	smiling	172	sub-09	1.0	5.0	172_smiling	0.0		197.5175170367802	3.766579470375291
28.0	170.09860596613362	pulse	1.0	t		40.0	male	white	1.868682849184242	smiling	172	sub-09	1.0	5.0	172_smiling	0.0		198.10928565046197	
28.0	170.79858199872615	pulse	1.0	t		40.0	male	white	1.868682849184242	smiling	172	sub-09	1.0	5.0	172_smiling	0.0		198.8092616830545	
28.0	171.49857946313205	pulse	1.0	t		40.0	male	white	1.868682849184242	smiling	172	sub-09	1.0	5.0	172_smiling	0.0		199.5092591474604	
28.0	172.19856636255645	pulse	1.0	t		40.0	male	white	1.868682849184242	smiling	172	sub-09	1.0	5.0	172_smiling	0.0		200.2092460468848	
28.0	172.8985454137146	pulse	1.0	t		40.0	male	white	1.868682849184242	smiling	172	sub-09	1.0	5.0	172_smiling	0.0		200.90922509804295	
29.0	173.27341682282713	face	0.0		145	28.0	male	white	3.9076800636689217	smiling	033	sub-09	1.0	5.0	033_smiling	0.0		201.28409650715548	1.233344159922126
29.0	173.59855585794867	pulse	0.0	t		28.0	male	white	3.9076800636689217	smiling	033	sub-09	1.0	5.0	033_smiling	0.0		201.60923554227702	
29.0	174.29852857011792	pulse	0.0	t		28.0	male	white	3.9076800636689217	smiling	033	sub-09	1.0	5.0	033_smiling	0.0		202.30920825444628	
29.0	174.50676098274926	fix	1.0		444	28.0	male	white	3.9076800636689217	smiling	033	sub-09	1.0	5.0	033_smiling	0.0		202.5174406670776	3.7665815833679517
29.0	174.99853599579	pulse	1.0	t		28.0	male	white	3.9076800636689217	smiling	033	sub-09	1.0	5.0	033_smiling	0.0		203.00921568011836	
29.0	175.69851293394822	pulse	1.0	t		28.0	male	white	3.9076800636689217	smiling	033	sub-09	1.0	5.0	033_smiling	0.0		203.70919261827657	
29.0	176.39850466308053	pulse	1.0	t		28.0	male	white	3.9076800636689217	smiling	033	sub-09	1.0	5.0	033_smiling	0.0		204.40918434740888	
29.0	177.0984825068117	pulse	1.0	t		28.0	male	white	3.9076800636689217	smiling	033	sub-09	1.0	5.0	033_smiling	0.0		205.10916219114006	
29.0	177.79848631020286	pulse	1.0	t		28.0	male	white	3.9076800636689217	smiling	033	sub-09	1.0	5.0	033_smiling	0.0		205.8091659945312	
30.0	178.2733425661172	face	0.0		145	22.0	female	white	4.614007162753682	neutral	009	sub-09	1.0	5.0	009_neutral	0.0		206.28402225044556	1.233327557813027
30.0	178.49846958734997	pulse	0.0	t		22.0	female	white	4.614007162753682	neutral	009	sub-09	1.0	5.0	009_neutral	0.0		206.50914927167833	
30.0	179.1984537700664	pulse	0.0	t		22.0	female	white	4.614007162753682	neutral	009	sub-09	1.0	5.0	009_neutral	0.0		207.20913345439476	
30.0	179.50667012393023	fix	1.0		444	22.0	female	white	4.614007162753682	neutral	009	sub-09	1.0	5.0	009_neutral	0.0		207.5173498082586	3.758355087127711
30.0	179.89844338620242	pulse	1.0	t		22.0	female	white	4.614007162753682	neutral	009	sub-09	1.0	5.0	009_neutral	0.0		207.90912307053077	
30.0	180.59843179491145	pulse	1.0	t		22.0	female	white	4.614007162753682	neutral	009	sub-09	1.0	5.0	009_neutral	0.0		208.6091114792398	
30.0	181.29841416648924	pulse	1.0	t		22.0	female	white	4.614007162753682	neutral	009	sub-09	1.0	5.0	009_neutral	0.0		209.3090938508176	
30.0	181.99841585688773	pulse	1.0	t		22.0	female	white	4.614007162753682	neutral	009	sub-09	1.0	5.0	009_neutral	0.0		210.00909554121608	
30.0	182.69841452871697	pulse	1.0	t		22.0	female	white	4.614007162753682	neutral	009	sub-09	1.0	5.0	009_neutral	0.0		210.70909421304532	
31.0	183.26502521105795	face	0.0		146	19.0	male	white	2.243931555909272	smiling	130	sub-09	1.0	5.0	130_smiling	0.0		211.2757048953863	1.241584239709482
31.0	183.39839357987512	pulse	0.0	t		19.0	male	white	2.243931555909272	smiling	130	sub-09	1.0	5.0	130_smiling	0.0		211.40907326420347	
31.0	184.09837564959525	pulse	0.0	t		19.0	male	white	2.243931555909272	smiling	130	sub-09	1.0	5.0	130_smiling	0.0		212.1090553339236	
31.0	184.50660945076743	fix	1.0		444	19.0	male	white	2.243931555909272	smiling	130	sub-09	1.0	5.0	130_smiling	0.0		212.51728913509578	3.758245513203292
31.0	184.7983794529864	pulse	1.0	t		19.0	male	white	2.243931555909272	smiling	130	sub-09	1.0	5.0	130_smiling	0.0		212.80905913731476	
31.0	185.49836484312982	pulse	1.0	t		19.0	male	white	2.243931555909272	smiling	130	sub-09	1.0	5.0	130_smiling	0.0		213.50904452745817	
31.0	186.19835083698854	pulse	1.0	t		19.0	male	white	2.243931555909272	smiling	130	sub-09	1.0	5.0	130_smiling	0.0		214.2090305213169	
31.0	186.89832988814305	pulse	1.0	t		19.0	male	white	2.243931555909272	smiling	130	sub-09	1.0	5.0	130_smiling	0.0		214.9090095724714	
31.0	187.59832674883728	pulse	1.0	t		19.0	male	white	2.243931555909272	smiling	130	sub-09	1.0	5.0	130_smiling	0.0		215.60900643316563	
32.0	188.26485496397072	face	0.0		146	34.0	male	white	2.651014723438122	neutral	121	sub-09	1.0	5.0	121_neutral	0.0		216.27553464829907	1.2416633261200332
32.0	188.2983187798236	pulse	0.0	t		34.0	male	white	2.651014723438122	neutral	121	sub-09	1.0	5.0	121_neutral	0.0		216.30899846415195	
32.0	188.99831805536814	pulse	0.0	t		34.0	male	white	2.651014723438122	neutral	121	sub-09	1.0	5.0	121_neutral	0.0		217.0089977396965	
32.0	189.50651829009075	fix	1.0		443	34.0	male	white	2.651014723438122	neutral	121	sub-09	1.0	5.0	121_neutral	0.0		217.5171979744191	3.76659607248439
32.0	189.69829408796068	pulse	1.0	t		34.0	male	white	2.651014723438122	neutral	121	sub-09	1.0	5.0	121_neutral	0.0		217.70897377228903	
32.0	190.39828460966237	pulse	1.0	t		34.0	male	white	2.651014723438122	neutral	121	sub-09	1.0	5.0	121_neutral	0.0		218.40896429399072	
32.0	191.09825792554693	pulse	1.0	t		34.0	male	white	2.651014723438122	neutral	121	sub-09	1.0	5.0	121_neutral	0.0		219.10893760987528	
32.0	191.7982596159418	pulse	1.0	t		34.0	male	white	2.651014723438122	neutral	121	sub-09	1.0	5.0	121_neutral	0.0		219.80893930027014	
32.0	192.49824983578947	pulse	1.0	t		34.0	male	white	2.651014723438122	neutral	121	sub-09	1.0	5.0	121_neutral	0.0		220.50892952011782	
32.0	193.19824096120647	pulse	1.0	t		34.0	male	white	2.651014723438122	neutral	121	sub-09	1.0	5.0	121_neutral	0.0		221.20892064553482	
33.0	193.27311436257514	face	0.0		146	21.0	male	east_asian/white	3.501790688420215	neutral	036	sub-09	1.0	5.0	036_neutral	0.0		221.2837940469035	1.2333429524951498
33.0	193.8982320866271	pulse	0.0	t		21.0	male	east_asian/white	3.501790688420215	neutral	036	sub-09	1.0	5.0	036_neutral	0.0		221.90891177095546	
33.0	194.5064573150703	fix	1.0		443	21.0	male	east_asian/white	3.501790688420215	neutral	036	sub-09	1.0	5.0	036_neutral	0.0		222.51713699939864	3.766595468772721
33.0	194.59834153980773	pulse	1.0	t		21.0	male	east_asian/white	3.501790688420215	neutral	036	sub-09	1.0	5.0	036_neutral	0.0		222.6090212241361	
33.0	195.29820950775684	pulse	1.0	t		21.0	male	east_asian/white	3.501790688420215	neutral	036	sub-09	1.0	5.0	036_neutral	0.0		223.3088891920852	
33.0	195.99818976633833	pulse	1.0	t		21.0	male	east_asian/white	3.501790688420215	neutral	036	sub-09	1.0	5.0	036_neutral	0.0		224.00886945066668	
33.0	196.69819477715646	pulse	1.0	t		21.0	male	east_asian/white	3.501790688420215	neutral	036	sub-09	1.0	5.0	036_neutral	0.0		224.7088744614848	
33.0	197.39818016729987	pulse	1.0	t		21.0	male	east_asian/white	3.501790688420215	neutral	036	sub-09	1.0	5.0	036_neutral	0.0		225.40885985162822	
33.0	198.0981728020015	pulse	1.0	t		21.0	male	east_asian/white	3.501790688420215	neutral	036	sub-09	1.0	5.0	036_neutral	0.0		226.10885248632985	
34.0	198.273052783843	face	0.0		146	28.0	male	east_asian	1.5563072025467568	smiling	005	sub-09	1.0	5.0	005_smiling	0.0		226.28373246817137	1.2416485351495794
34.0	198.7981593995719	pulse	0.0	t		28.0	male	east_asian	1.5563072025467568	smiling	005	sub-09	1.0	5.0	005_smiling	0.0		226.80883908390024	
34.0	199.49815746768945	pulse	0.0	t		28.0	male	east_asian	1.5563072025467568	smiling	005	sub-09	1.0	5.0	005_smiling	0.0		227.5088371520178	
34.0	199.5147013189926	fix	1.0		443	28.0	male	east_asian	1.5563072025467568	smiling	005	sub-09	1.0	5.0	005_smiling	0.0		227.52538100332094	3.7500455803383375
34.0	200.19813742441693	pulse	1.0	t		28.0	male	east_asian	1.5563072025467568	smiling	005	sub-09	1.0	5.0	005_smiling	0.0		228.20881710874528	
34.0	200.89812311641435	pulse	1.0	t		28.0	male	east_asian	1.5563072025467568	smiling	005	sub-09	1.0	5.0	005_smiling	0.0		228.9088028007427	
34.0	201.5981124306927	pulse	1.0	t		28.0	male	east_asian	1.5563072025467568	smiling	005	sub-09	1.0	5.0	005_smiling	0.0		229.60879211502106	
34.0	202.29809631155513	pulse	1.0	t		28.0	male	east_asian	1.5563072025467568	smiling	005	sub-09	1.0	5.0	005_smiling	0.0		230.30877599588348	
34.0	202.99809166296473	pulse	1.0	t		28.0	male	east_asian	1.5563072025467568	smiling	005	sub-09	1.0	5.0	005_smiling	0.0		231.00877134729308	
35.0	203.26474689933093	face	0.0		146	19.0	female	white	4.298846000795861	neutral	100	sub-09	1.0	5.0	100_neutral	0.0		231.27542658365928	1.2415588837575342
35.0	203.6980942589289	pulse	0.0	t		19.0	female	white	4.298846000795861	neutral	100	sub-09	1.0	5.0	100_neutral	0.0		231.70877394325726	
35.0	204.39807632865268	pulse	0.0	t		19.0	female	white	4.298846000795861	neutral	100	sub-09	1.0	5.0	100_neutral	0.0		232.40875601298103	
35.0	204.50630578308846	fix	1.0		444	19.0	female	white	4.298846000795861	neutral	100	sub-09	1.0	5.0	100_neutral	0.0		232.51698546741682	3.7665975817653816
35.0	205.09807168006228	pulse	1.0	t		19.0	female	white	4.298846000795861	neutral	100	sub-09	1.0	5.0	100_neutral	0.0		233.10875136439063	
35.0	205.79805767391736	pulse	1.0	t		19.0	female	white	4.298846000795861	neutral	100	sub-09	1.0	5.0	100_neutral	0.0		233.8087373582457	
35.0	206.4980469881957	pulse	1.0	t		19.0	female	white	4.298846000795861	neutral	100	sub-09	1.0	5.0	100_neutral	0.0		234.50872667252406	
35.0	207.19803418947777	pulse	1.0	t		19.0	female	white	4.298846000795861	neutral	100	sub-09	1.0	5.0	100_neutral	0.0		235.20871387380612	
35.0	207.89802591861007	pulse	1.0	t		19.0	female	white	4.298846000795861	neutral	100	sub-09	1.0	5.0	100_neutral	0.0		235.90870560293843	
36.0	208.27290336485385	face	0.0		145	23.0	male	white	2.6275368085953046	smiling	141	sub-09	1.0	5.0	141_smiling	1.0	attractiveness	236.2835830491822	1.233327557813027
36.0	208.59802157187733	pulse	0.0	t		23.0	male	white	2.6275368085953046	smiling	141	sub-09	1.0	5.0	141_smiling	1.0	attractiveness	236.60870125620568	
36.0	209.2979909636233	pulse	0.0	t		23.0	male	white	2.6275368085953046	smiling	141	sub-09	1.0	5.0	141_smiling	1.0	attractiveness	237.30867064795166	
36.0	209.50623092266687	fix	1.0		177	23.0	male	white	2.6275368085953046	smiling	141	sub-09	1.0	5.0	141_smiling	1.0	attractiveness	237.51691060699522	1.4999794737559569
36.0	209.9979983892954	pulse	1.0	t		23.0	male	white	2.6275368085953046	smiling	141	sub-09	1.0	5.0	141_smiling	1.0	attractiveness	238.00867807362374	
36.0	210.69798559057745	pulse	1.0	t		23.0	male	white	2.6275368085953046	smiling	141	sub-09	1.0	5.0	141_smiling	1.0	attractiveness	238.7086652749058	
36.0	211.00621039642283	rating	2.0		295	23.0	male	white	2.6275368085953046	smiling	141	sub-09	1.0	5.0	141_smiling	1.0	attractiveness	239.01689008075118	2.5082929046802747
36.0	211.39798245126804	pulse	2.0	t		23.0	male	white	2.6275368085953046	smiling	141	sub-09	1.0	5.0	141_smiling	1.0	attractiveness	239.4086621355964	
36.0	212.0979624079955	pulse	2.0	t		23.0	male	white	2.6275368085953046	smiling	141	sub-09	1.0	5.0	141_smiling	1.0	attractiveness	240.10864209232386	
36.0	212.7979468925696	pulse	2.0	t		23.0	male	white	2.6275368085953046	smiling	141	sub-09	1.0	5.0	141_smiling	1.0	attractiveness	240.80862657689795	
36.0	212.83959102061272	response	2.0	b		23.0	male	white	2.6275368085953046	smiling	141	sub-09	1.0	5.0	141_smiling	1.0	attractiveness	240.85027070494107	
36.0	213.4979214158775	pulse	2.0	t		23.0	male	white	2.6275368085953046	smiling	141	sub-09	1.0	5.0	141_smiling	1.0	attractiveness	241.50860110020585	
36.0	213.5145033011031	fix	3.0		443	23.0	male	white	2.6275368085953046	smiling	141	sub-09	1.0	5.0	141_smiling	1.0	attractiveness	241.52518298543146	3.758261511600722
36.0	214.19792612483798	pulse	3.0	t		23.0	male	white	2.6275368085953046	smiling	141	sub-09	1.0	5.0	141_smiling	1.0	attractiveness	242.20860580916633	
36.0	214.89790064814588	pulse	3.0	t		23.0	male	white	2.6275368085953046	smiling	141	sub-09	1.0	5.0	141_smiling	1.0	attractiveness	242.90858033247423	
36.0	215.59791229981056	pulse	3.0	t		23.0	male	white	2.6275368085953046	smiling	141	sub-09	1.0	5.0	141_smiling	1.0	attractiveness	243.6085919841389	
36.0	216.29790493450855	pulse	3.0	t		23.0	male	white	2.6275368085953046	smiling	141	sub-09	1.0	5.0	141_smiling	1.0	attractiveness	244.3085846188369	
36.0	216.99788458937837	pulse	3.0	t		23.0	male	white	2.6275368085953046	smiling	141	sub-09	1.0	5.0	141_smiling	1.0	attractiveness	245.00856427370672	
37.0	217.27276481270383	face	0.0		145	20.0	male	black	3.1070433744528456	smiling	082	sub-09	1.0	5.0	082_smiling	0.0		245.28344449703218	1.2333299726633413
37.0	217.69788386492291	pulse	0.0	t		20.0	male	black	3.1070433744528456	smiling	082	sub-09	1.0	5.0	082_smiling	0.0		245.70856354925127	
37.0	218.397868349497	pulse	0.0	t		20.0	male	black	3.1070433744528456	smiling	082	sub-09	1.0	5.0	082_smiling	0.0		246.40854803382535	
37.0	218.50609478536717	fix	1.0		444	20.0	male	black	3.1070433744528456	smiling	082	sub-09	1.0	5.0	082_smiling	0.0		246.51677446969552	3.7582512484805193
37.0	219.09786068234098	pulse	1.0	t		20.0	male	black	3.1070433744528456	smiling	082	sub-09	1.0	5.0	082_smiling	0.0		247.10854036666933	
37.0	219.79784335577642	pulse	1.0	t		20.0	male	black	3.1070433744528456	smiling	082	sub-09	1.0	5.0	082_smiling	0.0		247.80852304010477	
37.0	220.497840216467	pulse	1.0	t		20.0	male	black	3.1070433744528456	smiling	082	sub-09	1.0	5.0	082_smiling	0.0		248.50851990079536	
37.0	221.19782077690616	pulse	1.0	t		20.0	male	black	3.1070433744528456	smiling	082	sub-09	1.0	5.0	082_smiling	0.0		249.2085004612345	
37.0	221.89780314848394	pulse	1.0	t		20.0	male	black	3.1070433744528456	smiling	082	sub-09	1.0	5.0	082_smiling	0.0		249.9084828328123	
38.0	222.2643460338477	face	0.0		146	31.0	male	west_asian	1.9538400318344609	neutral	070	sub-09	1.0	5.0	070_neutral	0.0		250.27502571817604	1.2416566852771211
38.0	222.59779970732052	pulse	0.0	t		31.0	male	west_asian	1.9538400318344609	neutral	070	sub-09	1.0	5.0	070_neutral	0.0		250.60847939164887	
38.0	223.297779965902	pulse	0.0	t		31.0	male	west_asian	1.9538400318344609	neutral	070	sub-09	1.0	5.0	070_neutral	0.0		251.30845965023036	
38.0	223.5060027191248	fix	1.0		444	31.0	male	west_asian	1.9538400318344609	neutral	070	sub-09	1.0	5.0	070_neutral	0.0		251.51668240345316	3.7665948650574137
38.0	223.99777441174228	pulse	1.0	t		31.0	male	west_asian	1.9538400318344609	neutral	070	sub-09	1.0	5.0	070_neutral	0.0		252.00845409607064	
38.0	224.69775587775075	pulse	1.0	t		31.0	male	west_asian	1.9538400318344609	neutral	070	sub-09	1.0	5.0	070_neutral	0.0		252.7084355620791	
38.0	225.3977681331271	pulse	1.0	t		31.0	male	west_asian	1.9538400318344609	neutral	070	sub-09	1.0	5.0	070_neutral	0.0		253.40844781745545	
38.0	226.09774748613927	pulse	1.0	t		31.0	male	west_asian	1.9538400318344609	neutral	070	sub-09	1.0	5.0	070_neutral	0.0		254.10842717046762	
38.0	226.79773680041762	pulse	1.0	t		31.0	male	west_asian	1.9538400318344609	neutral	070	sub-09	1.0	5.0	070_neutral	0.0		254.80841648474598	
39.0	227.27259758418222	face	0.0		145	20.0	female	white	3.9502586549940313	smiling	091	sub-09	1.0	5.0	091_smiling	0.0		255.28327726851057	1.2333299726633413
39.0	227.49773154811555	pulse	0.0	t		20.0	female	white	3.9502586549940313	smiling	091	sub-09	1.0	5.0	091_smiling	0.0		255.5084112324439	
39.0	228.19770878813142	pulse	0.0	t		20.0	female	white	3.9502586549940313	smiling	091	sub-09	1.0	5.0	091_smiling	0.0		256.2083884724598	
39.0	228.50592755684556	fix	1.0		444	20.0	female	white	3.9502586549940313	smiling	091	sub-09	1.0	5.0	091_smiling	0.0		256.5166072411739	3.74994415654146
39.0	228.89769991354842	pulse	1.0	t		20.0	female	white	3.9502586549940313	smiling	091	sub-09	1.0	5.0	091_smiling	0.0		256.9083795978768	
39.0	229.59770281137025	pulse	1.0	t		20.0	female	white	3.9502586549940313	smiling	091	sub-09	1.0	5.0	091_smiling	0.0		257.6083824956986	
39.0	230.29768880522897	pulse	1.0	t		20.0	female	white	3.9502586549940313	smiling	091	sub-09	1.0	5.0	091_smiling	0.0		258.3083684895573	
39.0	230.99767691208035	pulse	1.0	t		20.0	female	white	3.9502586549940313	smiling	091	sub-09	1.0	5.0	091_smiling	0.0		259.0083565964087	
39.0	231.69766441522006	pulse	1.0	t		20.0	female	white	3.9502586549940313	smiling	091	sub-09	1.0	5.0	091_smiling	0.0		259.7083440995484	
40.0	232.25587171338702	fix	0.0		720													260.2665513977154	5.999924234009086
40.0	232.39766067219898	pulse	0.0	t														260.40834035652733	
40.0	233.09764334563442	pulse	0.0	t														261.1083230299628	
40.0	233.7976257172122	pulse	0.0	t														261.80830540154057	
40.0	234.4976102017863	pulse	0.0	t														262.50828988611465	
40.0	235.19760947733084	pulse	0.0	t														263.2082891616592	
40.0	235.89759184890863	pulse	0.0	t														263.908271533237	
40.0	236.59759112445317	pulse	0.0	t														264.6082708087815	
40.0	237.29757802387758	pulse	0.0	t														265.30825770820593	
40.0	237.99756069731302	pulse	0.0	t														266.0082403816414	
