trial_nr	onset	event_type	phase	response	nr_frames	face_age	face_sex	face_eth	attractiveness	expression	face_id	sub_id	ses	run	trial_type	catch	rating_type	onset_abs	duration
-1.0	0.06032874591892323	fix	0.0		713													23.28874268299751	5.957894937020683
-1.0	0.7017702678554087	pulse	0.0	t														23.930184204933994	
-1.0	1.4017547524294969	pulse	0.0	t														24.630168689508082	
-1.0	2.101745274134373	pulse	0.0	t														25.33015921121296	
-1.0	2.8017487756701485	pulse	0.0	t														26.030162712748734	
-1.0	3.5017474475012023	pulse	0.0	t														26.730161384579787	
-1.0	4.20169087958584	pulse	0.0	t														27.430104816664425	
-1.0	4.901709775805102	pulse	0.0	t														28.130123712883687	
-1.0	5.601703316075145	pulse	0.0	t														28.83011725315373	
0.0	6.018223682939606	face	0.0		144	28.0	male	white	3.9076800636689217	smiling	033	sub-06	2.0	4.0	033_smiling	1.0	attractiveness	29.24663762001819	1.2333837031278563
0.0	6.30169987491081	pulse	0.0	t		28.0	male	white	3.9076800636689217	smiling	033	sub-06	2.0	4.0	033_smiling	1.0	attractiveness	29.530113811989395	
0.0	7.0016737945056775	pulse	0.0	t		28.0	male	white	3.9076800636689217	smiling	033	sub-06	2.0	4.0	033_smiling	1.0	attractiveness	30.230087731584263	
0.0	7.251607386067462	fix	1.0		177	28.0	male	white	3.9076800636689217	smiling	033	sub-06	2.0	4.0	033_smiling	1.0	attractiveness	30.480021323146048	1.5082805285628638
0.0	7.701698425999439	pulse	1.0	t		28.0	male	white	3.9076800636689217	smiling	033	sub-06	2.0	4.0	033_smiling	1.0	attractiveness	30.930112363078024	
0.0	8.401661478759252	pulse	1.0	t		28.0	male	white	3.9076800636689217	smiling	033	sub-06	2.0	4.0	033_smiling	1.0	attractiveness	31.630075415837837	
0.0	8.759887914630326	rating	2.0		293	28.0	male	white	3.9076800636689217	smiling	033	sub-06	2.0	4.0	033_smiling	1.0	attractiveness	31.98830185170891	2.491622273631492
0.0	9.101647170759406	pulse	2.0	t		28.0	male	white	3.9076800636689217	smiling	033	sub-06	2.0	4.0	033_smiling	1.0	attractiveness	32.33006110783799	
0.0	9.80163135347675	pulse	2.0	t		28.0	male	white	3.9076800636689217	smiling	033	sub-06	2.0	4.0	033_smiling	1.0	attractiveness	33.030045290555336	
0.0	10.02145294418824	response	2.0	y		28.0	male	white	3.9076800636689217	smiling	033	sub-06	2.0	4.0	033_smiling	1.0	attractiveness	33.249866881266826	
0.0	10.501619762185328	pulse	2.0	t		28.0	male	white	3.9076800636689217	smiling	033	sub-06	2.0	4.0	033_smiling	1.0	attractiveness	33.73003369926391	
0.0	11.201624471147625	pulse	2.0	t		28.0	male	white	3.9076800636689217	smiling	033	sub-06	2.0	4.0	033_smiling	1.0	attractiveness	34.43003840822621	
0.0	11.251510188261818	fix	3.0		444	28.0	male	white	3.9076800636689217	smiling	033	sub-06	2.0	4.0	033_smiling	1.0	attractiveness	34.4799241253404	3.7582645301663433
0.0	11.901603522303503	pulse	3.0	t		28.0	male	white	3.9076800636689217	smiling	033	sub-06	2.0	4.0	033_smiling	1.0	attractiveness	35.13001745938209	
0.0	12.601590421729725	pulse	3.0	t		28.0	male	white	3.9076800636689217	smiling	033	sub-06	2.0	4.0	033_smiling	1.0	attractiveness	35.83000435880831	
0.0	13.301580339721568	pulse	3.0	t		28.0	male	white	3.9076800636689217	smiling	033	sub-06	2.0	4.0	033_smiling	1.0	attractiveness	36.52999427680015	
0.0	14.001564220582623	pulse	3.0	t		28.0	male	white	3.9076800636689217	smiling	033	sub-06	2.0	4.0	033_smiling	1.0	attractiveness	37.22997815766121	
0.0	14.7015508181521	pulse	3.0	t		28.0	male	white	3.9076800636689217	smiling	033	sub-06	2.0	4.0	033_smiling	1.0	attractiveness	37.929964755230685	
1.0	15.009774718428162	face	0.0		146	24.0	female	east_asian	4.409868682849185	smiling	030	sub-06	2.0	4.0	030_smiling	0.0		38.23818865550675	1.2416476295811663
1.0	15.401547980700798	pulse	0.0	t		24.0	female	east_asian	4.409868682849185	smiling	030	sub-06	2.0	4.0	030_smiling	0.0		38.62996191777938	
1.0	16.101537596835897	pulse	0.0	t		24.0	female	east_asian	4.409868682849185	smiling	030	sub-06	2.0	4.0	030_smiling	0.0		39.32995153391448	
1.0	16.251422348009328	fix	1.0		445	24.0	female	east_asian	4.409868682849185	smiling	030	sub-06	2.0	4.0	030_smiling	0.0		39.47983628508791	3.766607844889222
1.0	16.801539890945605	pulse	1.0	t		24.0	female	east_asian	4.409868682849185	smiling	030	sub-06	2.0	4.0	030_smiling	0.0		40.02995382802419	
1.0	17.501530110793738	pulse	1.0	t		24.0	female	east_asian	4.409868682849185	smiling	030	sub-06	2.0	4.0	030_smiling	0.0		40.72994404787232	
1.0	18.20151791578928	pulse	1.0	t		24.0	female	east_asian	4.409868682849185	smiling	030	sub-06	2.0	4.0	030_smiling	0.0		41.42993185286787	
1.0	18.901501494793592	pulse	1.0	t		24.0	female	east_asian	4.409868682849185	smiling	030	sub-06	2.0	4.0	030_smiling	0.0		42.12991543187218	
1.0	19.601493223924535	pulse	1.0	t		24.0	female	east_asian	4.409868682849185	smiling	030	sub-06	2.0	4.0	030_smiling	0.0		42.82990716100312	
2.0	20.01803019289855	face	0.0		145	27.0	female	white	4.181058495821727	smiling	039	sub-06	2.0	4.0	039_smiling	0.0		43.246444129977135	1.2333094464192982
2.0	20.301487669764356	pulse	0.0	t		27.0	female	white	4.181058495821727	smiling	039	sub-06	2.0	4.0	039_smiling	0.0		43.52990160684294	
2.0	21.001476380329677	pulse	0.0	t		27.0	female	white	4.181058495821727	smiling	039	sub-06	2.0	4.0	039_smiling	0.0		44.22989031740826	
2.0	21.251339639317848	fix	1.0		444	27.0	female	white	4.181058495821727	smiling	039	sub-06	2.0	4.0	039_smiling	0.0		44.47975357639643	3.7582820378456745
2.0	21.7014539222032	pulse	1.0	t		27.0	female	white	4.181058495821727	smiling	039	sub-06	2.0	4.0	039_smiling	0.0		44.929867859281785	
2.0	22.40145349960403	pulse	1.0	t		27.0	female	white	4.181058495821727	smiling	039	sub-06	2.0	4.0	039_smiling	0.0		45.629867436682616	
2.0	23.10142862662542	pulse	1.0	t		27.0	female	white	4.181058495821727	smiling	039	sub-06	2.0	4.0	039_smiling	0.0		46.329842563704005	
2.0	23.801430618878385	pulse	1.0	t		27.0	female	white	4.181058495821727	smiling	039	sub-06	2.0	4.0	039_smiling	0.0		47.02984455595697	
2.0	24.50142536657495	pulse	1.0	t		27.0	female	white	4.181058495821727	smiling	039	sub-06	2.0	4.0	039_smiling	0.0		47.729839303653534	
3.0	25.009621677163523	face	0.0		146	47.0	male	east_asian	2.171110226820533	smiling	024	sub-06	2.0	4.0	024_smiling	0.0		48.23803561424211	1.2416615149813879
3.0	25.20141226600117	pulse	0.0	t		47.0	male	east_asian	2.171110226820533	smiling	024	sub-06	2.0	4.0	024_smiling	0.0		48.429826203079756	
3.0	25.90138950601795	pulse	0.0	t		47.0	male	east_asian	2.171110226820533	smiling	024	sub-06	2.0	4.0	024_smiling	0.0		49.129803443096534	
3.0	26.25128319214491	fix	1.0		445	47.0	male	east_asian	2.171110226820533	smiling	024	sub-06	2.0	4.0	024_smiling	0.0		49.479697129223496	3.7665803759446135
3.0	26.60138908341878	pulse	1.0	t		47.0	male	east_asian	2.171110226820533	smiling	024	sub-06	2.0	4.0	024_smiling	0.0		49.829803020497366	
3.0	27.301379001410623	pulse	1.0	t		47.0	male	east_asian	2.171110226820533	smiling	024	sub-06	2.0	4.0	024_smiling	0.0		50.52979293848921	
3.0	28.001365297123357	pulse	1.0	t		47.0	male	east_asian	2.171110226820533	smiling	024	sub-06	2.0	4.0	024_smiling	0.0		51.22977923420194	
3.0	28.70133499072699	pulse	1.0	t		47.0	male	east_asian	2.171110226820533	smiling	024	sub-06	2.0	4.0	024_smiling	0.0		51.929748927805576	
3.0	29.40133577555389	pulse	1.0	t		47.0	male	east_asian	2.171110226820533	smiling	024	sub-06	2.0	4.0	024_smiling	0.0		52.629749712632474	
4.0	30.017863568089524	face	0.0		145	24.0	female	east_asian	2.9076800636689217	neutral	034	sub-06	2.0	4.0	034_neutral	0.0		53.24627750516811	1.2333474803426725
4.0	30.10133323995933	pulse	0.0	t		24.0	female	east_asian	2.9076800636689217	neutral	034	sub-06	2.0	4.0	034_neutral	0.0		53.329747177037916	
4.0	30.801327685798697	pulse	0.0	t		24.0	female	east_asian	2.9076800636689217	neutral	034	sub-06	2.0	4.0	034_neutral	0.0		54.02974162287728	
4.0	31.251211048432197	fix	1.0		444	24.0	female	east_asian	2.9076800636689217	neutral	034	sub-06	2.0	4.0	034_neutral	0.0		54.47962498551078	3.7665722258179812
4.0	31.501315490794696	pulse	1.0	t		24.0	female	east_asian	2.9076800636689217	neutral	034	sub-06	2.0	4.0	034_neutral	0.0		54.72972942787328	
4.0	32.20130571064283	pulse	1.0	t		24.0	female	east_asian	2.9076800636689217	neutral	034	sub-06	2.0	4.0	034_neutral	0.0		55.42971964772141	
4.0	32.90129532677793	pulse	1.0	t		24.0	female	east_asian	2.9076800636689217	neutral	034	sub-06	2.0	4.0	034_neutral	0.0		56.12970926385651	
4.0	33.60128252806089	pulse	1.0	t		24.0	female	east_asian	2.9076800636689217	neutral	034	sub-06	2.0	4.0	034_neutral	0.0		56.82969646513948	
4.0	34.30125916436464	pulse	1.0	t		24.0	female	east_asian	2.9076800636689217	neutral	034	sub-06	2.0	4.0	034_neutral	0.0		57.52967310144322	
5.0	35.01778327425018	face	0.0		146	19.0	male	white	2.243931555909272	neutral	130	sub-06	2.0	4.0	130_neutral	0.0		58.24619721132876	1.2333520081911047
5.0	35.00438265508183	pulse	0.0	t		19.0	male	white	2.243931555909272	neutral	130	sub-06	2.0	4.0	130_neutral	0.0		58.23279659216041	
5.0	35.7012565080272	pulse	0.0	t		19.0	male	white	2.243931555909272	neutral	130	sub-06	2.0	4.0	130_neutral	0.0		58.929670445105785	
5.0	36.25113528244128	fix	1.0		443	19.0	male	white	2.243931555909272	neutral	130	sub-06	2.0	4.0	130_neutral	0.0		59.47954921951987	3.766582488940003
5.0	36.40124763344511	pulse	1.0	t		19.0	male	white	2.243931555909272	neutral	130	sub-06	2.0	4.0	130_neutral	0.0		59.629661570523695	
5.0	37.10123392915784	pulse	1.0	t		19.0	male	white	2.243931555909272	neutral	130	sub-06	2.0	4.0	130_neutral	0.0		60.32964786623643	
5.0	37.80127878503981	pulse	1.0	t		19.0	male	white	2.243931555909272	neutral	130	sub-06	2.0	4.0	130_neutral	0.0		61.0296927221184	
5.0	38.50123489509906	pulse	1.0	t		19.0	male	white	2.243931555909272	neutral	130	sub-06	2.0	4.0	130_neutral	0.0		61.729648832177645	
5.0	39.20120428684595	pulse	1.0	t		19.0	male	white	2.243931555909272	neutral	130	sub-06	2.0	4.0	130_neutral	0.0		62.429618223924535	
5.0	39.901171565597	pulse	1.0	t		19.0	male	white	2.243931555909272	neutral	130	sub-06	2.0	4.0	130_neutral	0.0		63.12958550267558	
6.0	40.017717771381285	face	0.0		146	22.0	male	black	2.767608436132113	neutral	044	sub-06	2.0	4.0	044_neutral	0.0		63.24613170845987	1.2333399339295283
6.0	40.60118231169008	pulse	0.0	t		22.0	male	black	2.767608436132113	neutral	044	sub-06	2.0	4.0	044_neutral	0.0		63.82959624876867	
6.0	41.251057705310814	fix	1.0		444	22.0	male	black	2.767608436132113	neutral	044	sub-06	2.0	4.0	044_neutral	0.0		64.4794716423894	3.766579168518092
6.0	41.301166494407425	pulse	1.0	t		22.0	male	black	2.767608436132113	neutral	044	sub-06	2.0	4.0	044_neutral	0.0		64.52958043148601	
6.0	42.00115852539466	pulse	1.0	t		22.0	male	black	2.767608436132113	neutral	044	sub-06	2.0	4.0	044_neutral	0.0		65.22957246247324	
6.0	42.70114542482088	pulse	1.0	t		22.0	male	black	2.767608436132113	neutral	044	sub-06	2.0	4.0	044_neutral	0.0		65.92955936189946	
6.0	43.40112840011216	pulse	1.0	t		22.0	male	black	2.767608436132113	neutral	044	sub-06	2.0	4.0	044_neutral	0.0		66.62954233719074	
6.0	44.101119525530066	pulse	1.0	t		22.0	male	black	2.767608436132113	neutral	044	sub-06	2.0	4.0	044_neutral	0.0		67.32953346260865	
6.0	44.80110551938651	pulse	1.0	t		22.0	male	black	2.767608436132113	neutral	044	sub-06	2.0	4.0	044_neutral	0.0		68.0295194564651	
7.0	45.017636873828906	face	0.0		145	23.0	male	white	2.6275368085953046	smiling	141	sub-06	2.0	4.0	141_smiling	0.0		68.24605081090749	1.233335406081551
7.0	45.501100568939364	pulse	0.0	t		23.0	male	white	2.6275368085953046	smiling	141	sub-06	2.0	4.0	141_smiling	0.0		68.72951450601795	
7.0	46.201087468365586	pulse	0.0	t		23.0	male	white	2.6275368085953046	smiling	141	sub-06	2.0	4.0	141_smiling	0.0		69.42950140544417	
7.0	46.25097227991046	fix	1.0		445	23.0	male	white	2.6275368085953046	smiling	141	sub-06	2.0	4.0	141_smiling	0.0		69.47938621698904	3.7666002984756233
7.0	46.90109610146237	pulse	1.0	t		23.0	male	white	2.6275368085953046	smiling	141	sub-06	2.0	4.0	141_smiling	0.0		70.12951003854096	
7.0	47.601060663504995	pulse	1.0	t		23.0	male	white	2.6275368085953046	smiling	141	sub-06	2.0	4.0	141_smiling	0.0		70.82947460058358	
7.0	48.30105088335313	pulse	1.0	t		23.0	male	white	2.6275368085953046	smiling	141	sub-06	2.0	4.0	141_smiling	0.0		71.52946482043171	
7.0	49.00104864961486	pulse	1.0	t		23.0	male	white	2.6275368085953046	smiling	141	sub-06	2.0	4.0	141_smiling	0.0		72.22946258669344	
7.0	49.70104158617187	pulse	1.0	t		23.0	male	white	2.6275368085953046	smiling	141	sub-06	2.0	4.0	141_smiling	0.0		72.92945552325045	
8.0	50.01757257838608	face	0.0		145	20.0	female	white	3.9502586549940313	smiling	091	sub-06	2.0	4.0	091_smiling	0.0		73.24598651546466	1.2333387265034617
8.0	50.40102365589337	pulse	0.0	t		20.0	female	white	3.9502586549940313	smiling	091	sub-06	2.0	4.0	091_smiling	0.0		73.62943759297195	
8.0	51.101021120298356	pulse	0.0	t		20.0	female	white	3.9502586549940313	smiling	091	sub-06	2.0	4.0	091_smiling	0.0		74.32943505737694	
8.0	51.25091130488954	fix	1.0		445	20.0	female	white	3.9502586549940313	smiling	091	sub-06	2.0	4.0	091_smiling	0.0		74.47932524196813	3.7665918464927017
8.0	51.801010434577165	pulse	1.0	t		20.0	female	white	3.9502586549940313	smiling	091	sub-06	2.0	4.0	091_smiling	0.0		75.02942437165575	
8.0	52.50098616531113	pulse	1.0	t		20.0	female	white	3.9502586549940313	smiling	091	sub-06	2.0	4.0	091_smiling	0.0		75.72940010238972	
8.0	53.20097095174151	pulse	1.0	t		20.0	female	white	3.9502586549940313	smiling	091	sub-06	2.0	4.0	091_smiling	0.0		76.4293848888201	
8.0	53.90096509572504	pulse	1.0	t		20.0	female	white	3.9502586549940313	smiling	091	sub-06	2.0	4.0	091_smiling	0.0		77.12937903280363	
8.0	54.60096678612172	pulse	1.0	t		20.0	female	white	3.9502586549940313	smiling	091	sub-06	2.0	4.0	091_smiling	0.0		77.8293807232003	
9.0	55.01750315138224	face	0.0		145	28.0	female	white	5.676880222841227	smiling	124	sub-06	2.0	4.0	124_smiling	0.0		78.24591708846083	1.2333426506388605
9.0	55.300958213395916	pulse	0.0	t		28.0	female	white	5.676880222841227	smiling	124	sub-06	2.0	4.0	124_smiling	0.0		78.5293721504745	
9.0	56.000944509109104	pulse	0.0	t		28.0	female	white	5.676880222841227	smiling	124	sub-06	2.0	4.0	124_smiling	0.0		79.22935844618769	
9.0	56.250845802021104	fix	1.0		445	28.0	female	white	5.676880222841227	smiling	124	sub-06	2.0	4.0	124_smiling	0.0		79.47925973909969	3.7665833945093254
9.0	56.7009359363833	pulse	1.0	t		28.0	female	white	5.676880222841227	smiling	124	sub-06	2.0	4.0	124_smiling	0.0		79.92934987346189	
9.0	57.40091287454379	pulse	1.0	t		28.0	female	white	5.676880222841227	smiling	124	sub-06	2.0	4.0	124_smiling	0.0		80.62932681162238	
9.0	58.10090852780968	pulse	1.0	t		28.0	female	white	5.676880222841227	smiling	124	sub-06	2.0	4.0	124_smiling	0.0		81.32932246488826	
9.0	58.80089663466197	pulse	1.0	t		28.0	female	white	5.676880222841227	smiling	124	sub-06	2.0	4.0	124_smiling	0.0		82.02931057174055	
9.0	59.500881119236055	pulse	1.0	t		28.0	female	white	5.676880222841227	smiling	124	sub-06	2.0	4.0	124_smiling	0.0		82.72929505631464	
10.0	60.01742919653043	face	0.0		145	25.0	female	black	3.858336649423	neutral	126	sub-06	2.0	4.0	126_neutral	0.0		83.24584313360901	1.2333172946891864
10.0	60.20088794119374	pulse	0.0	t		25.0	female	black	3.858336649423	neutral	126	sub-06	2.0	4.0	126_neutral	0.0		83.42930187827233	
10.0	60.900873633193896	pulse	0.0	t		25.0	female	black	3.858336649423	neutral	126	sub-06	2.0	4.0	126_neutral	0.0		84.12928757027248	
10.0	61.250746491219616	fix	1.0		444	25.0	female	black	3.858336649423	neutral	126	sub-06	2.0	4.0	126_neutral	0.0		84.4791604282982	3.7666066374631555
10.0	61.600861740046184	pulse	1.0	t		25.0	female	black	3.858336649423	neutral	126	sub-06	2.0	4.0	126_neutral	0.0		84.82927567712477	
10.0	62.30083837634993	pulse	1.0	t		25.0	female	black	3.858336649423	neutral	126	sub-06	2.0	4.0	126_neutral	0.0		85.52925231342851	
10.0	63.00081954050211	pulse	1.0	t		25.0	female	black	3.858336649423	neutral	126	sub-06	2.0	4.0	126_neutral	0.0		86.22923347758069	
10.0	63.70081609933732	pulse	1.0	t		25.0	female	black	3.858336649423	neutral	126	sub-06	2.0	4.0	126_neutral	0.0		86.9292300364159	
10.0	64.40080963960736	pulse	1.0	t		25.0	female	black	3.858336649423	neutral	126	sub-06	2.0	4.0	126_neutral	0.0		87.62922357668594	
11.0	65.01735312868277	face	0.0		145	31.0	female	white	2.1822522881018704	neutral	102	sub-06	2.0	4.0	102_neutral	0.0		88.24576706576136	1.233314577980309
11.0	65.10081133000403	pulse	0.0	t		31.0	female	white	2.1822522881018704	neutral	102	sub-06	2.0	4.0	102_neutral	0.0		88.32922526708262	
11.0	65.80079822943026	pulse	0.0	t		31.0	female	white	2.1822522881018704	neutral	102	sub-06	2.0	4.0	102_neutral	0.0		89.02921216650884	
11.0	66.25066770666308	fix	1.0		444	31.0	female	white	2.1822522881018704	neutral	102	sub-06	2.0	4.0	102_neutral	0.0		89.47908164374167	3.7665882242145017
11.0	66.5007769787303	pulse	1.0	t		31.0	female	white	2.1822522881018704	neutral	102	sub-06	2.0	4.0	102_neutral	0.0		89.72919091580889	
11.0	67.20076267073	pulse	1.0	t		31.0	female	white	2.1822522881018704	neutral	102	sub-06	2.0	4.0	102_neutral	0.0		90.42917660780859	
11.0	67.90075530543072	pulse	1.0	t		31.0	female	white	2.1822522881018704	neutral	102	sub-06	2.0	4.0	102_neutral	0.0		91.1291692425093	
11.0	68.60073948814806	pulse	1.0	t		31.0	female	white	2.1822522881018704	neutral	102	sub-06	2.0	4.0	102_neutral	0.0		91.82915342522665	
11.0	69.30073665069676	pulse	1.0	t		31.0	female	white	2.1822522881018704	neutral	102	sub-06	2.0	4.0	102_neutral	0.0		92.52915058777535	
12.0	70.01725593087758	face	0.0		146	40.0	male	white	1.868682849184242	smiling	172	sub-06	2.0	4.0	172_smiling	0.0		93.24566986795617	1.2333197095413198
12.0	70.00369623331335	pulse	0.0	t		40.0	male	white	1.868682849184242	smiling	172	sub-06	2.0	4.0	172_smiling	0.0		93.23211017039193	
12.0	70.70073188136348	pulse	0.0	t		40.0	male	white	1.868682849184242	smiling	172	sub-06	2.0	4.0	172_smiling	0.0		93.92914581844207	
12.0	71.2505756404189	fix	1.0		443	40.0	male	white	1.868682849184242	smiling	172	sub-06	2.0	4.0	172_smiling	0.0		94.47898957749749	3.76662837113372
12.0	71.40071908264599	pulse	1.0	t		40.0	male	white	1.868682849184242	smiling	172	sub-06	2.0	4.0	172_smiling	0.0		94.62913301972458	
12.0	72.10070628392896	pulse	1.0	t		40.0	male	white	1.868682849184242	smiling	172	sub-06	2.0	4.0	172_smiling	0.0		95.32912022100754	
12.0	72.80068382580248	pulse	1.0	t		40.0	male	white	1.868682849184242	smiling	172	sub-06	2.0	4.0	172_smiling	0.0		96.02909776288107	
12.0	73.50067163079802	pulse	1.0	t		40.0	male	white	1.868682849184242	smiling	172	sub-06	2.0	4.0	172_smiling	0.0		96.72908556787661	
12.0	74.20066094507683	pulse	1.0	t		40.0	male	white	1.868682849184242	smiling	172	sub-06	2.0	4.0	172_smiling	0.0		97.42907488215542	
12.0	74.90064935378587	pulse	1.0	t		40.0	male	white	1.868682849184242	smiling	172	sub-06	2.0	4.0	172_smiling	0.0		98.12906329086445	
13.0	75.01720401155262	face	0.0		146	28.0	male	east_asian	1.5563072025467568	neutral	005	sub-06	2.0	4.0	005_neutral	0.0		98.2456179486312	1.2333308782335735
13.0	75.60064862932995	pulse	0.0	t		28.0	male	east_asian	1.5563072025467568	neutral	005	sub-06	2.0	4.0	005_neutral	0.0		98.82906256640854	
13.0	76.2505348897862	fix	1.0		443	28.0	male	east_asian	1.5563072025467568	neutral	005	sub-06	2.0	4.0	005_neutral	0.0		99.47894882686478	3.7665909409229243
13.0	76.3006436788828	pulse	1.0	t		28.0	male	east_asian	1.5563072025467568	neutral	005	sub-06	2.0	4.0	005_neutral	0.0		99.52905761596139	
13.0	77.0006188059042	pulse	1.0	t		28.0	male	east_asian	1.5563072025467568	neutral	005	sub-06	2.0	4.0	005_neutral	0.0		100.22903274298278	
13.0	77.70062049630042	pulse	1.0	t		28.0	male	east_asian	1.5563072025467568	neutral	005	sub-06	2.0	4.0	005_neutral	0.0		100.929034433379	
13.0	78.40060437716147	pulse	1.0	t		28.0	male	east_asian	1.5563072025467568	neutral	005	sub-06	2.0	4.0	005_neutral	0.0		101.62901831424006	
13.0	79.10059188030073	pulse	1.0	t		28.0	male	east_asian	1.5563072025467568	neutral	005	sub-06	2.0	4.0	005_neutral	0.0		102.32900581737931	
13.0	79.8005878354229	pulse	1.0	t		28.0	male	east_asian	1.5563072025467568	neutral	005	sub-06	2.0	4.0	005_neutral	0.0		103.02900177250149	
14.0	80.01712583070912	face	0.0		145	20.0	male	black	3.1070433744528456	smiling	082	sub-06	2.0	4.0	082_smiling	0.0		103.2455397677877	1.2333411413560498
14.0	80.5005813756934	pulse	0.0	t		20.0	male	black	3.1070433744528456	smiling	082	sub-06	2.0	4.0	082_smiling	0.0		103.72899531277199	
14.0	81.20056103056231	pulse	0.0	t		20.0	male	black	3.1070433744528456	smiling	082	sub-06	2.0	4.0	082_smiling	0.0		104.4289749676409	
14.0	81.25046697206517	fix	1.0		445	20.0	male	black	3.1070433744528456	smiling	082	sub-06	2.0	4.0	082_smiling	0.0		104.47888090914375	3.766567999826293
14.0	81.90054913741506	pulse	1.0	t		20.0	male	black	3.1070433744528456	smiling	082	sub-06	2.0	4.0	082_smiling	0.0		105.12896307449364	
14.0	82.6005462999633	pulse	1.0	t		20.0	male	black	3.1070433744528456	smiling	082	sub-06	2.0	4.0	082_smiling	0.0		105.82896023704188	
14.0	83.30053018082435	pulse	1.0	t		20.0	male	black	3.1070433744528456	smiling	082	sub-06	2.0	4.0	082_smiling	0.0		106.52894411790294	
14.0	84.00050832641091	pulse	1.0	t		20.0	male	black	3.1070433744528456	smiling	082	sub-06	2.0	4.0	082_smiling	0.0		107.2289222634895	
14.0	84.70049582955016	pulse	1.0	t		20.0	male	black	3.1070433744528456	smiling	082	sub-06	2.0	4.0	082_smiling	0.0		107.92890976662875	
15.0	85.01703497189146	face	0.0		145	34.0	male	white	2.651014723438122	neutral	121	sub-06	2.0	4.0	121_neutral	0.0		108.24544890897005	1.2333426506384058
15.0	85.40049299209886	pulse	0.0	t		34.0	male	white	2.651014723438122	neutral	121	sub-06	2.0	4.0	121_neutral	0.0		108.62890692917745	
15.0	86.10049166392992	pulse	0.0	t		34.0	male	white	2.651014723438122	neutral	121	sub-06	2.0	4.0	121_neutral	0.0		109.3289056010085	
15.0	86.25037762252987	fix	1.0		444	34.0	male	white	2.651014723438122	neutral	121	sub-06	2.0	4.0	121_neutral	0.0		109.47879155960845	3.7665987891928125
15.0	86.800476148504	pulse	1.0	t		34.0	male	white	2.651014723438122	neutral	121	sub-06	2.0	4.0	121_neutral	0.0		110.02889008558259	
15.0	87.50046033122135	pulse	1.0	t		34.0	male	white	2.651014723438122	neutral	121	sub-06	2.0	4.0	121_neutral	0.0		110.72887426829993	
15.0	88.20045990862218	pulse	1.0	t		34.0	male	white	2.651014723438122	neutral	121	sub-06	2.0	4.0	121_neutral	0.0		111.42887384570076	
15.0	88.90042930036907	pulse	1.0	t		34.0	male	white	2.651014723438122	neutral	121	sub-06	2.0	4.0	121_neutral	0.0		112.12884323744765	
15.0	89.60043914089238	pulse	1.0	t		34.0	male	white	2.651014723438122	neutral	121	sub-06	2.0	4.0	121_neutral	0.0		112.82885307797096	
16.0	90.01697641172268	face	0.0		145	24.0	male	white	3.1153999204138483	smiling	012	sub-06	2.0	4.0	012_smiling	0.0		113.24539034880127	1.2333317838033508
16.0	90.30044717027613	pulse	0.0	t		24.0	male	white	3.1153999204138483	smiling	012	sub-06	2.0	4.0	012_smiling	0.0		113.52886110735471	
16.0	91.00042199544077	pulse	0.0	t		24.0	male	white	3.1153999204138483	smiling	012	sub-06	2.0	4.0	012_smiling	0.0		114.22883593251936	
16.0	91.25030819552603	fix	1.0		444	24.0	male	white	3.1153999204138483	smiling	012	sub-06	2.0	4.0	012_smiling	0.0		114.47872213260462	3.7582663413054433
16.0	91.70041100786284	pulse	1.0	t		24.0	male	white	3.1153999204138483	smiling	012	sub-06	2.0	4.0	012_smiling	0.0		114.92882494494143	
16.0	92.4003906627322	pulse	1.0	t		24.0	male	white	3.1153999204138483	smiling	012	sub-06	2.0	4.0	012_smiling	0.0		115.62880459981079	
16.0	93.10041710536507	pulse	1.0	t		24.0	male	white	3.1153999204138483	smiling	012	sub-06	2.0	4.0	012_smiling	0.0		116.32883104244365	
16.0	93.80037864884207	pulse	1.0	t		24.0	male	white	3.1153999204138483	smiling	012	sub-06	2.0	4.0	012_smiling	0.0		117.02879258592066	
16.0	94.50036373712919	pulse	1.0	t		24.0	male	white	3.1153999204138483	smiling	012	sub-06	2.0	4.0	012_smiling	0.0		117.72877767420778	
17.0	95.00857453683147	face	0.0		146	28.0	female	white	5.676880222841227	neutral	124	sub-06	2.0	4.0	124_neutral	0.0		118.23698847391006	1.2416497425765556
17.0	95.20036180524721	pulse	0.0	t		28.0	female	white	5.676880222841227	neutral	124	sub-06	2.0	4.0	124_neutral	0.0		118.4287757423258	
17.0	95.90034749724737	pulse	0.0	t		28.0	female	white	5.676880222841227	neutral	124	sub-06	2.0	4.0	124_neutral	0.0		119.12876143432595	
17.0	96.25022427940803	fix	1.0		444	28.0	female	white	5.676880222841227	neutral	124	sub-06	2.0	4.0	124_neutral	0.0		119.47863821648662	3.7666009021891114
17.0	96.60033741523876	pulse	1.0	t		28.0	female	white	5.676880222841227	neutral	124	sub-06	2.0	4.0	124_neutral	0.0		119.82875135231734	
17.0	97.30031737196487	pulse	1.0	t		28.0	female	white	5.676880222841227	neutral	124	sub-06	2.0	4.0	124_neutral	0.0		120.52873130904345	
17.0	98.00029551755142	pulse	1.0	t		28.0	female	white	5.676880222841227	neutral	124	sub-06	2.0	4.0	124_neutral	0.0		121.22870945463	
17.0	98.70028754853865	pulse	1.0	t		28.0	female	white	5.676880222841227	neutral	124	sub-06	2.0	4.0	124_neutral	0.0		121.92870148561724	
17.0	99.40028501294364	pulse	1.0	t		28.0	female	white	5.676880222841227	neutral	124	sub-06	2.0	4.0	124_neutral	0.0		122.62869895002223	
18.0	100.01682518159714	face	0.0		145	26.0	male	white	2.7966573816155993	neutral	117	sub-06	2.0	4.0	117_neutral	1.0	trustworthiness	123.24523911867573	1.233316690976153
18.0	100.1002851940575	pulse	0.0	t		26.0	male	white	2.7966573816155993	neutral	117	sub-06	2.0	4.0	117_neutral	1.0	trustworthiness	123.32869913113609	
18.0	100.80026484892687	pulse	0.0	t		26.0	male	white	2.7966573816155993	neutral	117	sub-06	2.0	4.0	117_neutral	1.0	trustworthiness	124.02867878600546	
18.0	101.2501418725733	fix	1.0		177	26.0	male	white	2.7966573816155993	neutral	117	sub-06	2.0	4.0	117_neutral	1.0	trustworthiness	124.47855580965188	1.4999779644726914
18.0	101.50024963535725	pulse	1.0	t		26.0	male	white	2.7966573816155993	neutral	117	sub-06	2.0	4.0	117_neutral	1.0	trustworthiness	124.72866357243583	
18.0	102.20023713849696	pulse	1.0	t		26.0	male	white	2.7966573816155993	neutral	117	sub-06	2.0	4.0	117_neutral	1.0	trustworthiness	125.42865107557554	
18.0	102.75011983704599	rating	2.0		294	26.0	male	white	2.7966573816155993	neutral	117	sub-06	2.0	4.0	117_neutral	1.0	trustworthiness	125.97853377412457	2.4999779644726914
18.0	102.90023188619307	pulse	2.0	t		26.0	male	white	2.7966573816155993	neutral	117	sub-06	2.0	4.0	117_neutral	1.0	trustworthiness	126.12864582327165	
18.0	103.60023629329862	pulse	2.0	t		26.0	male	white	2.7966573816155993	neutral	117	sub-06	2.0	4.0	117_neutral	1.0	trustworthiness	126.8286502303772	
18.0	104.28355467467145	response	2.0	w		26.0	male	white	2.7966573816155993	neutral	117	sub-06	2.0	4.0	117_neutral	1.0	trustworthiness	127.51196861175004	
18.0	104.30025066166945	pulse	2.0	t		26.0	male	white	2.7966573816155993	neutral	117	sub-06	2.0	4.0	117_neutral	1.0	trustworthiness	127.52866459874804	
18.0	105.00019771603274	pulse	2.0	t		26.0	male	white	2.7966573816155993	neutral	117	sub-06	2.0	4.0	117_neutral	1.0	trustworthiness	128.22861165311133	
18.0	105.25009780151868	fix	3.0		444	26.0	male	white	2.7966573816155993	neutral	117	sub-06	2.0	4.0	117_neutral	1.0	trustworthiness	128.47851173859726	3.7665936576318018
18.0	105.70020302870807	pulse	3.0	t		26.0	male	white	2.7966573816155993	neutral	117	sub-06	2.0	4.0	117_neutral	1.0	trustworthiness	128.92861696578666	
18.0	106.40015944062361	pulse	3.0	t		26.0	male	white	2.7966573816155993	neutral	117	sub-06	2.0	4.0	117_neutral	1.0	trustworthiness	129.6285733777022	
18.0	107.10017109228602	pulse	3.0	t		26.0	male	white	2.7966573816155993	neutral	117	sub-06	2.0	4.0	117_neutral	1.0	trustworthiness	130.3285850293646	
18.0	107.80016433069977	pulse	3.0	t		26.0	male	white	2.7966573816155993	neutral	117	sub-06	2.0	4.0	117_neutral	1.0	trustworthiness	131.02857826777836	
18.0	108.50015394683487	pulse	3.0	t		26.0	male	white	2.7966573816155993	neutral	117	sub-06	2.0	4.0	117_neutral	1.0	trustworthiness	131.72856788391346	
19.0	109.01669145915048	face	0.0		145	21.0	male	black	2.969757262236371	neutral	137	sub-06	2.0	4.0	137_neutral	0.0		132.24510539622906	1.2333290670944734
19.0	109.2001477889612	pulse	0.0	t		21.0	male	black	2.969757262236371	neutral	137	sub-06	2.0	4.0	137_neutral	0.0		132.4285617260398	
19.0	109.90016276104552	pulse	0.0	t		21.0	male	black	2.969757262236371	neutral	137	sub-06	2.0	4.0	137_neutral	0.0		133.1285766981241	
19.0	110.25002052624495	fix	1.0		444	21.0	male	black	2.969757262236371	neutral	137	sub-06	2.0	4.0	137_neutral	0.0		133.47843446332354	3.7665951669146125
19.0	110.60012883237096	pulse	1.0	t		21.0	male	black	2.969757262236371	neutral	137	sub-06	2.0	4.0	137_neutral	0.0		133.82854276944954	
19.0	111.30011210951852	pulse	1.0	t		21.0	male	black	2.969757262236371	neutral	137	sub-06	2.0	4.0	137_neutral	0.0		134.5285260465971	
19.0	112.00010142379688	pulse	1.0	t		21.0	male	black	2.969757262236371	neutral	137	sub-06	2.0	4.0	137_neutral	0.0		135.22851536087546	
19.0	112.70009013436265	pulse	1.0	t		21.0	male	black	2.969757262236371	neutral	137	sub-06	2.0	4.0	137_neutral	0.0		135.92850407144124	
19.0	113.40007703378888	pulse	1.0	t		21.0	male	black	2.969757262236371	neutral	137	sub-06	2.0	4.0	137_neutral	0.0		136.62849097086746	
20.0	114.01661569315957	face	0.0		145	22.0	female	white	4.614007162753682	neutral	009	sub-06	2.0	4.0	009_neutral	1.0	trustworthiness	137.24502963023815	1.233316389119409
20.0	114.10007540376364	pulse	0.0	t		22.0	female	white	4.614007162753682	neutral	009	sub-06	2.0	4.0	009_neutral	1.0	trustworthiness	137.32848934084222	
20.0	114.8000568697721	pulse	0.0	t		22.0	female	white	4.614007162753682	neutral	009	sub-06	2.0	4.0	009_neutral	1.0	trustworthiness	138.0284708068507	
20.0	115.24993208227897	fix	1.0		177	22.0	female	white	4.614007162753682	neutral	009	sub-06	2.0	4.0	009_neutral	1.0	trustworthiness	138.47834601935756	1.4999918498733678
20.0	115.50004407105462	pulse	1.0	t		22.0	female	white	4.614007162753682	neutral	009	sub-06	2.0	4.0	009_neutral	1.0	trustworthiness	138.7284580081332	
20.0	116.2000252352068	pulse	1.0	t		22.0	female	white	4.614007162753682	neutral	009	sub-06	2.0	4.0	009_neutral	1.0	trustworthiness	139.42843917228538	
20.0	116.74992393215234	rating	2.0		294	22.0	female	white	4.614007162753682	neutral	009	sub-06	2.0	4.0	009_neutral	1.0	trustworthiness	139.97833786923093	2.4999625697892043
20.0	116.90002541632066	pulse	2.0	t		22.0	female	white	4.614007162753682	neutral	009	sub-06	2.0	4.0	009_neutral	1.0	trustworthiness	140.12843935339924	
20.0	117.60001171203385	pulse	2.0	t		22.0	female	white	4.614007162753682	neutral	009	sub-06	2.0	4.0	009_neutral	1.0	trustworthiness	140.82842564911243	
20.0	118.09474008944608	response	2.0	y		22.0	female	white	4.614007162753682	neutral	009	sub-06	2.0	4.0	009_neutral	1.0	trustworthiness	141.32315402652466	
20.0	118.30000706344299	pulse	2.0	t		22.0	female	white	4.614007162753682	neutral	009	sub-06	2.0	4.0	009_neutral	1.0	trustworthiness	141.52842100052158	
20.0	118.99998490717326	pulse	2.0	t		22.0	female	white	4.614007162753682	neutral	009	sub-06	2.0	4.0	009_neutral	1.0	trustworthiness	142.22839884425184	
20.0	119.24988650194155	fix	3.0		1185	22.0	female	white	4.614007162753682	neutral	009	sub-06	2.0	4.0	009_neutral	1.0	trustworthiness	142.47830043902013	10.016482574425936
20.0	119.6999859938569	pulse	3.0	t		22.0	female	white	4.614007162753682	neutral	009	sub-06	2.0	4.0	009_neutral	1.0	trustworthiness	142.92839993093548	
20.0	120.39996896914818	pulse	3.0	t		22.0	female	white	4.614007162753682	neutral	009	sub-06	2.0	4.0	009_neutral	1.0	trustworthiness	143.62838290622676	
20.0	121.09996733912249	pulse	3.0	t		22.0	female	white	4.614007162753682	neutral	009	sub-06	2.0	4.0	009_neutral	1.0	trustworthiness	144.32838127620107	
20.0	121.79995454040545	pulse	3.0	t		22.0	female	white	4.614007162753682	neutral	009	sub-06	2.0	4.0	009_neutral	1.0	trustworthiness	145.02836847748404	
20.0	122.49993479898785	pulse	3.0	t		22.0	female	white	4.614007162753682	neutral	009	sub-06	2.0	4.0	009_neutral	1.0	trustworthiness	145.72834873606644	
20.0	123.19992501883598	pulse	3.0	t		22.0	female	white	4.614007162753682	neutral	009	sub-06	2.0	4.0	009_neutral	1.0	trustworthiness	146.42833895591457	
20.0	123.89992369066704	pulse	3.0	t		22.0	female	white	4.614007162753682	neutral	009	sub-06	2.0	4.0	009_neutral	1.0	trustworthiness	147.12833762774562	
20.0	124.59991240123281	pulse	3.0	t		22.0	female	white	4.614007162753682	neutral	009	sub-06	2.0	4.0	009_neutral	1.0	trustworthiness	147.8283263383114	
20.0	125.29990080994139	pulse	3.0	t		22.0	female	white	4.614007162753682	neutral	009	sub-06	2.0	4.0	009_neutral	1.0	trustworthiness	148.52831474701998	
20.0	125.99988921865042	pulse	3.0	t		22.0	female	white	4.614007162753682	neutral	009	sub-06	2.0	4.0	009_neutral	1.0	trustworthiness	149.228303155729	
20.0	126.69988577748609	pulse	3.0	t		22.0	female	white	4.614007162753682	neutral	009	sub-06	2.0	4.0	009_neutral	1.0	trustworthiness	149.92829971456467	
20.0	127.39985969708096	pulse	3.0	t		22.0	female	white	4.614007162753682	neutral	009	sub-06	2.0	4.0	009_neutral	1.0	trustworthiness	150.62827363415954	
20.0	128.09984599279414	pulse	3.0	t		22.0	female	white	4.614007162753682	neutral	009	sub-06	2.0	4.0	009_neutral	1.0	trustworthiness	151.32825992987273	
20.0	128.79983440150318	pulse	3.0	t		22.0	female	white	4.614007162753682	neutral	009	sub-06	2.0	4.0	009_neutral	1.0	trustworthiness	152.02824833858176	
21.0	129.26636907636748	face	0.0		145	31.0	female	west_asian	2.364902506963788	neutral	006	sub-06	2.0	4.0	006_neutral	0.0		152.49478301344607	1.2333302745205401
21.0	129.4998321677649	pulse	0.0	t		31.0	female	west_asian	2.364902506963788	neutral	006	sub-06	2.0	4.0	006_neutral	0.0		152.7282461048435	
21.0	130.19981725605157	pulse	0.0	t		31.0	female	west_asian	2.364902506963788	neutral	006	sub-06	2.0	4.0	006_neutral	0.0		153.42823119313016	
21.0	130.49969935088802	fix	1.0		444	31.0	female	west_asian	2.364902506963788	neutral	006	sub-06	2.0	4.0	006_neutral	0.0		153.7281132879666	3.766614787589333
21.0	130.89981200374814	pulse	1.0	t		31.0	female	west_asian	2.364902506963788	neutral	006	sub-06	2.0	4.0	006_neutral	0.0		154.12822594082672	
21.0	131.59980946815313	pulse	1.0	t		31.0	female	west_asian	2.364902506963788	neutral	006	sub-06	2.0	4.0	006_neutral	0.0		154.8282234052317	
21.0	132.2997927453007	pulse	1.0	t		31.0	female	west_asian	2.364902506963788	neutral	006	sub-06	2.0	4.0	006_neutral	0.0		155.52820668237928	
21.0	132.9997805502967	pulse	1.0	t		31.0	female	west_asian	2.364902506963788	neutral	006	sub-06	2.0	4.0	006_neutral	0.0		156.22819448737528	
21.0	133.69976714786617	pulse	1.0	t		31.0	female	west_asian	2.364902506963788	neutral	006	sub-06	2.0	4.0	006_neutral	0.0		156.92818108494475	
22.0	134.26631413847736	face	0.0		145	19.0	female	white	4.298846000795861	smiling	100	sub-06	2.0	4.0	100_smiling	0.0		157.49472807555594	1.2333275578116627
22.0	134.399761593706	pulse	0.0	t		19.0	female	white	4.298846000795861	smiling	100	sub-06	2.0	4.0	100_smiling	0.0		157.62817553078457	
22.0	135.09974245600142	pulse	0.0	t		19.0	female	white	4.298846000795861	smiling	100	sub-06	2.0	4.0	100_smiling	0.0		158.32815639308	
22.0	135.49964169628902	fix	1.0		444	19.0	female	white	4.298846000795861	smiling	100	sub-06	2.0	4.0	100_smiling	0.0		158.7280556333676	3.7665948650578684
22.0	135.79973961855012	pulse	1.0	t		19.0	female	white	4.298846000795861	smiling	100	sub-06	2.0	4.0	100_smiling	0.0		159.0281535556287	
22.0	136.49973255510713	pulse	1.0	t		19.0	female	white	4.298846000795861	smiling	100	sub-06	2.0	4.0	100_smiling	0.0		159.72814649218572	
22.0	137.1997248879511	pulse	1.0	t		19.0	female	white	4.298846000795861	smiling	100	sub-06	2.0	4.0	100_smiling	0.0		160.4281388250297	
22.0	137.89971027809452	pulse	1.0	t		19.0	female	white	4.298846000795861	smiling	100	sub-06	2.0	4.0	100_smiling	0.0		161.1281242151731	
22.0	138.59970170536872	pulse	1.0	t		19.0	female	white	4.298846000795861	smiling	100	sub-06	2.0	4.0	100_smiling	0.0		161.8281156424473	
23.0	139.2662365613469	face	0.0		145	24.0	female	black	3.0955033824114606	neutral	099	sub-06	2.0	4.0	099_neutral	1.0	dominance	162.49465049842547	1.2333043148582874
23.0	139.29970550876124	pulse	0.0	t		24.0	female	black	3.0955033824114606	neutral	099	sub-06	2.0	4.0	099_neutral	1.0	dominance	162.52811944583982	
23.0	139.99967339122531	pulse	0.0	t		24.0	female	black	3.0955033824114606	neutral	099	sub-06	2.0	4.0	099_neutral	1.0	dominance	163.2280873283039	
23.0	140.49954087620517	fix	1.0		177	24.0	female	black	3.0955033824114606	neutral	099	sub-06	2.0	4.0	099_neutral	1.0	dominance	163.72795481328376	1.4999969814343785
23.0	140.699675081622	pulse	1.0	t		24.0	female	black	3.0955033824114606	neutral	099	sub-06	2.0	4.0	099_neutral	1.0	dominance	163.92808901870058	
23.0	141.39965141606945	pulse	1.0	t		24.0	female	black	3.0955033824114606	neutral	099	sub-06	2.0	4.0	099_neutral	1.0	dominance	164.62806535314803	
23.0	141.99953785763955	rating	2.0		294	24.0	female	black	3.0955033824114606	neutral	099	sub-06	2.0	4.0	099_neutral	1.0	dominance	165.22795179471814	2.4999686069199925
23.0	142.09965703060107	pulse	2.0	t		24.0	female	black	3.0955033824114606	neutral	099	sub-06	2.0	4.0	099_neutral	1.0	dominance	165.32807096767965	
23.0	142.79964000589234	pulse	2.0	t		24.0	female	black	3.0955033824114606	neutral	099	sub-06	2.0	4.0	099_neutral	1.0	dominance	166.02805394297093	
23.0	143.3693863739545	response	2.0	g		24.0	female	black	3.0955033824114606	neutral	099	sub-06	2.0	4.0	099_neutral	1.0	dominance	166.5978003110331	
23.0	143.4996238867534	pulse	2.0	t		24.0	female	black	3.0955033824114606	neutral	099	sub-06	2.0	4.0	099_neutral	1.0	dominance	166.72803782383198	
23.0	144.19968685402728	pulse	2.0	t		24.0	female	black	3.0955033824114606	neutral	099	sub-06	2.0	4.0	099_neutral	1.0	dominance	167.42810079110586	
23.0	144.49950646455954	fix	3.0		444	24.0	female	black	3.0955033824114606	neutral	099	sub-06	2.0	4.0	099_neutral	1.0	dominance	167.72792040163813	3.7582615116011766
23.0	144.8996124765763	pulse	3.0	t		24.0	female	black	3.0955033824114606	neutral	099	sub-06	2.0	4.0	099_neutral	1.0	dominance	168.12802641365488	
23.0	145.5995888110233	pulse	3.0	t		24.0	female	black	3.0955033824114606	neutral	099	sub-06	2.0	4.0	099_neutral	1.0	dominance	168.82800274810188	
23.0	146.299585973572	pulse	3.0	t		24.0	female	black	3.0955033824114606	neutral	099	sub-06	2.0	4.0	099_neutral	1.0	dominance	169.52799991065058	
23.0	146.9995755897071	pulse	3.0	t		24.0	female	black	3.0955033824114606	neutral	099	sub-06	2.0	4.0	099_neutral	1.0	dominance	170.22798952678568	
23.0	147.69956611141197	pulse	3.0	t		24.0	female	black	3.0955033824114606	neutral	099	sub-06	2.0	4.0	099_neutral	1.0	dominance	170.92798004849055	
24.0	148.25776797616072	face	0.0		146	32.0	male	white	2.389176283326701	neutral	092	sub-06	2.0	4.0	092_neutral	0.0		171.4861819132393	1.2416645335470093
24.0	148.39954999227257	pulse	0.0	t		32.0	male	white	2.389176283326701	neutral	092	sub-06	2.0	4.0	092_neutral	0.0		171.62796392935115	
24.0	149.09954383439936	pulse	0.0	t		32.0	male	white	2.389176283326701	neutral	092	sub-06	2.0	4.0	092_neutral	0.0		172.32795777147794	
24.0	149.49943250970773	fix	1.0		444	32.0	male	white	2.389176283326701	neutral	092	sub-06	2.0	4.0	092_neutral	0.0		172.72784644678632	3.766594563201579
24.0	149.79952892268602	pulse	1.0	t		32.0	male	white	2.389176283326701	neutral	092	sub-06	2.0	4.0	092_neutral	0.0		173.0279428597646	
24.0	150.49951552025595	pulse	1.0	t		32.0	male	white	2.389176283326701	neutral	092	sub-06	2.0	4.0	092_neutral	0.0		173.72792945733454	
24.0	151.1995015141124	pulse	1.0	t		32.0	male	white	2.389176283326701	neutral	092	sub-06	2.0	4.0	092_neutral	0.0		174.42791545119098	
24.0	151.89949233767356	pulse	1.0	t		32.0	male	white	2.389176283326701	neutral	092	sub-06	2.0	4.0	092_neutral	0.0		175.12790627475215	
24.0	152.59949704663586	pulse	1.0	t		32.0	male	white	2.389176283326701	neutral	092	sub-06	2.0	4.0	092_neutral	0.0		175.82791098371445	
25.0	153.2660270729093	face	0.0		145	54.0	female	white	2.286908077994429	neutral	136	sub-06	2.0	4.0	136_neutral	0.0		176.4944410099879	1.2333305763768294
25.0	153.2994890776231	pulse	0.0	t		54.0	female	white	2.286908077994429	neutral	136	sub-06	2.0	4.0	136_neutral	0.0		176.52790301470168	
25.0	153.99946631764033	pulse	0.0	t		54.0	female	white	2.286908077994429	neutral	136	sub-06	2.0	4.0	136_neutral	0.0		177.2278802547189	
25.0	154.49935764928614	fix	1.0		443	54.0	female	white	2.286908077994429	neutral	136	sub-06	2.0	4.0	136_neutral	0.0		177.72777158636472	3.7665933557755125
25.0	154.69946348018857	pulse	1.0	t		54.0	female	white	2.286908077994429	neutral	136	sub-06	2.0	4.0	136_neutral	0.0		177.92787741726715	
25.0	155.39943890906625	pulse	1.0	t		54.0	female	white	2.286908077994429	neutral	136	sub-06	2.0	4.0	136_neutral	0.0		178.62785284614483	
25.0	156.09944271245877	pulse	1.0	t		54.0	female	white	2.286908077994429	neutral	136	sub-06	2.0	4.0	136_neutral	0.0		179.32785664953735	
25.0	156.799419952476	pulse	1.0	t		54.0	female	white	2.286908077994429	neutral	136	sub-06	2.0	4.0	136_neutral	0.0		180.02783388955459	
25.0	157.49939749434952	pulse	1.0	t		54.0	female	white	2.286908077994429	neutral	136	sub-06	2.0	4.0	136_neutral	0.0		180.7278114314281	
25.0	158.1994025051681	pulse	1.0	t		54.0	female	white	2.286908077994429	neutral	136	sub-06	2.0	4.0	136_neutral	0.0		181.4278164422467	
26.0	158.26595100506165	face	0.0		146	40.0	male	black	2.408674890569041	neutral	061	sub-06	2.0	4.0	061_neutral	0.0		181.49436494214024	1.2333200113980638
26.0	158.89939181944646	pulse	0.0	t		40.0	male	black	2.408674890569041	neutral	061	sub-06	2.0	4.0	061_neutral	0.0		182.12780575652505	
26.0	159.49927101645972	fix	1.0		443	40.0	male	black	2.408674890569041	neutral	061	sub-06	2.0	4.0	061_neutral	0.0		182.7276849535383	3.7666084486022555
26.0	159.59939743397808	pulse	1.0	t		40.0	male	black	2.408674890569041	neutral	061	sub-06	2.0	4.0	061_neutral	0.0		182.82781137105667	
26.0	160.2993656182989	pulse	1.0	t		40.0	male	black	2.408674890569041	neutral	061	sub-06	2.0	4.0	061_neutral	0.0		183.5277795553775	
26.0	160.99936972354772	pulse	1.0	t		40.0	male	black	2.408674890569041	neutral	061	sub-06	2.0	4.0	061_neutral	0.0		184.2277836606263	
26.0	161.69935632111765	pulse	1.0	t		40.0	male	black	2.408674890569041	neutral	061	sub-06	2.0	4.0	061_neutral	0.0		184.92777025819623	
26.0	162.39933718341308	pulse	1.0	t		40.0	male	black	2.408674890569041	neutral	061	sub-06	2.0	4.0	061_neutral	0.0		185.62775112049167	
26.0	163.0993633241892	pulse	1.0	t		40.0	male	black	2.408674890569041	neutral	061	sub-06	2.0	4.0	061_neutral	0.0		186.32777726126778	
27.0	163.26587946506197	face	0.0		146	21.0	male	black	2.969757262236371	smiling	137	sub-06	2.0	4.0	137_smiling	0.0		186.49429340214056	1.2333136724109863
27.0	163.7993248676662	pulse	0.0	t		21.0	male	black	2.969757262236371	smiling	137	sub-06	2.0	4.0	137_smiling	0.0		187.02773880474479	
27.0	164.49919313747296	fix	1.0		444	21.0	male	black	2.969757262236371	smiling	137	sub-06	2.0	4.0	137_smiling	0.0		187.72760707455154	3.7665909409229243
27.0	164.5066846130444	pulse	1.0	t		21.0	male	black	2.969757262236371	smiling	137	sub-06	2.0	4.0	137_smiling	0.0		187.73509855012298	
27.0	165.1993059110755	pulse	1.0	t		21.0	male	black	2.969757262236371	smiling	137	sub-06	2.0	4.0	137_smiling	0.0		188.42771984815408	
27.0	165.89929582906734	pulse	1.0	t		21.0	male	black	2.969757262236371	smiling	137	sub-06	2.0	4.0	137_smiling	0.0		189.12770976614593	
27.0	166.59927970992794	pulse	1.0	t		21.0	male	black	2.969757262236371	smiling	137	sub-06	2.0	4.0	137_smiling	0.0		189.82769364700653	
27.0	167.2992651000718	pulse	1.0	t		21.0	male	black	2.969757262236371	smiling	137	sub-06	2.0	4.0	137_smiling	0.0		190.5276790371504	
27.0	167.99924234008859	pulse	1.0	t		21.0	male	black	2.969757262236371	smiling	137	sub-06	2.0	4.0	137_smiling	0.0		191.22765627716717	
28.0	168.26578407839588	face	0.0		146	26.0	male	white	2.7966573816155993	smiling	117	sub-06	2.0	4.0	117_smiling	0.0		191.49419801547447	1.2416799282304964
28.0	168.69925519917706	pulse	0.0	t		26.0	male	white	2.7966573816155993	smiling	117	sub-06	2.0	4.0	117_smiling	0.0		191.92766913625564	
28.0	169.3992375707553	pulse	0.0	t		26.0	male	white	2.7966573816155993	smiling	117	sub-06	2.0	4.0	117_smiling	0.0		192.6276515078339	
28.0	169.50746400662638	fix	1.0		444	26.0	male	white	2.7966573816155993	smiling	117	sub-06	2.0	4.0	117_smiling	0.0		192.73587794370496	3.766594563201579
28.0	170.09921994233355	pulse	1.0	t		26.0	male	white	2.7966573816155993	smiling	117	sub-06	2.0	4.0	117_smiling	0.0		193.32763387941213	
28.0	170.79921982159067	pulse	1.0	t		26.0	male	white	2.7966573816155993	smiling	117	sub-06	2.0	4.0	117_smiling	0.0		194.02763375866925	
28.0	171.49920098574285	pulse	1.0	t		26.0	male	white	2.7966573816155993	smiling	117	sub-06	2.0	4.0	117_smiling	0.0		194.72761492282143	
28.0	172.19918456474716	pulse	1.0	t		26.0	male	white	2.7966573816155993	smiling	117	sub-06	2.0	4.0	117_smiling	0.0		195.42759850182574	
28.0	172.89917750130417	pulse	1.0	t		26.0	male	white	2.7966573816155993	smiling	117	sub-06	2.0	4.0	117_smiling	0.0		196.12759143838275	
29.0	173.27405856982796	face	0.0		145	25.0	female	west_asian	2.6756864305610826	smiling	064	sub-06	2.0	4.0	064_smiling	0.0		196.50247250690654	1.2333320856596401
29.0	173.5991785879878	pulse	0.0	t		25.0	female	west_asian	2.6756864305610826	smiling	064	sub-06	2.0	4.0	064_smiling	0.0		196.8275925250664	
29.0	174.29917031711875	pulse	0.0	t		25.0	female	west_asian	2.6756864305610826	smiling	064	sub-06	2.0	4.0	064_smiling	0.0		197.52758425419734	
29.0	174.5073906554876	fix	1.0		444	25.0	female	west_asian	2.6756864305610826	smiling	064	sub-06	2.0	4.0	064_smiling	0.0		197.73580459256618	3.7665743388133706
29.0	174.99915359426632	pulse	1.0	t		25.0	female	west_asian	2.6756864305610826	smiling	064	sub-06	2.0	4.0	064_smiling	0.0		198.2275675313449	
29.0	175.69914864381917	pulse	1.0	t		25.0	female	west_asian	2.6756864305610826	smiling	064	sub-06	2.0	4.0	064_smiling	0.0		198.92756258089776	
29.0	176.39912860054483	pulse	1.0	t		25.0	female	west_asian	2.6756864305610826	smiling	064	sub-06	2.0	4.0	064_smiling	0.0		199.6275425376234	
29.0	177.09912636680656	pulse	1.0	t		25.0	female	west_asian	2.6756864305610826	smiling	064	sub-06	2.0	4.0	064_smiling	0.0		200.32754030388514	
29.0	177.7991030031103	pulse	1.0	t		25.0	female	west_asian	2.6756864305610826	smiling	064	sub-06	2.0	4.0	064_smiling	0.0		201.0275169401889	
30.0	178.27396499430097	face	0.0		145	22.0	female	white	4.614007162753682	smiling	009	sub-06	2.0	4.0	009_smiling	0.0		201.50237893137955	1.2333526119045928
30.0	178.499095034098	pulse	0.0	t		22.0	female	white	4.614007162753682	smiling	009	sub-06	2.0	4.0	009_smiling	0.0		201.72750897117658	
30.0	179.19908947993736	pulse	0.0	t		22.0	female	white	4.614007162753682	smiling	009	sub-06	2.0	4.0	009_smiling	0.0		202.42750341701594	
30.0	179.50731760620556	fix	1.0		444	22.0	female	white	4.614007162753682	smiling	009	sub-06	2.0	4.0	009_smiling	0.0		202.73573154328415	3.7583267126128703
30.0	179.89908392577718	pulse	1.0	t		22.0	female	white	4.614007162753682	smiling	009	sub-06	2.0	4.0	009_smiling	0.0		203.12749786285576	
30.0	180.5990632787898	pulse	1.0	t		22.0	female	white	4.614007162753682	smiling	009	sub-06	2.0	4.0	009_smiling	0.0		203.82747721586838	
30.0	181.29905048007276	pulse	1.0	t		22.0	female	white	4.614007162753682	smiling	009	sub-06	2.0	4.0	009_smiling	0.0		204.52746441715135	
30.0	181.999037379499	pulse	1.0	t		22.0	female	white	4.614007162753682	smiling	009	sub-06	2.0	4.0	009_smiling	0.0		205.22745131657757	
30.0	182.69904510702645	pulse	1.0	t		22.0	female	white	4.614007162753682	smiling	009	sub-06	2.0	4.0	009_smiling	0.0		205.92745904410503	
31.0	183.26564431881843	face	0.0		146	24.0	female	black	3.0955033824114606	smiling	099	sub-06	2.0	4.0	099_smiling	0.0		206.49405825589702	1.241593899117106
31.0	183.39902566746514	pulse	0.0	t		24.0	female	black	3.0955033824114606	smiling	099	sub-06	2.0	4.0	099_smiling	0.0		206.62743960454372	
31.0	184.09901649102676	pulse	0.0	t		24.0	female	black	3.0955033824114606	smiling	099	sub-06	2.0	4.0	099_smiling	0.0		207.32743042810534	
31.0	184.50723821793554	fix	1.0		444	24.0	female	black	3.0955033824114606	smiling	099	sub-06	2.0	4.0	099_smiling	0.0		207.73565215501412	3.7665936576322565
31.0	184.79901304986197	pulse	1.0	t		24.0	female	black	3.0955033824114606	smiling	099	sub-06	2.0	4.0	099_smiling	0.0		208.02742698694055	
31.0	185.49899149730527	pulse	1.0	t		24.0	female	black	3.0955033824114606	smiling	099	sub-06	2.0	4.0	099_smiling	0.0		208.72740543438385	
31.0	186.19898473571857	pulse	1.0	t		24.0	female	black	3.0955033824114606	smiling	099	sub-06	2.0	4.0	099_smiling	0.0		209.42739867279715	
31.0	186.89896740915356	pulse	1.0	t		24.0	female	black	3.0955033824114606	smiling	099	sub-06	2.0	4.0	099_smiling	0.0		210.12738134623214	
31.0	187.59895702528866	pulse	1.0	t		24.0	female	black	3.0955033824114606	smiling	099	sub-06	2.0	4.0	099_smiling	0.0		210.82737096236724	
32.0	188.2738318755678	face	0.0		145	40.0	male	black	2.408674890569041	smiling	061	sub-06	2.0	4.0	061_smiling	0.0		211.50224581264638	1.2333157854063757
32.0	188.29896294167656	pulse	0.0	t		40.0	male	black	2.408674890569041	smiling	061	sub-06	2.0	4.0	061_smiling	0.0		211.52737687875515	
32.0	188.9989422946892	pulse	0.0	t		40.0	male	black	2.408674890569041	smiling	061	sub-06	2.0	4.0	061_smiling	0.0		212.22735623176777	
32.0	189.50714766097417	fix	1.0		443	40.0	male	black	2.408674890569041	smiling	061	sub-06	2.0	4.0	061_smiling	0.0		212.73556159805275	3.7666105615980996
32.0	189.6989258736935	pulse	1.0	t		40.0	male	black	2.408674890569041	smiling	061	sub-06	2.0	4.0	061_smiling	0.0		212.92733981077208	
32.0	190.3989040192805	pulse	1.0	t		40.0	male	black	2.408674890569041	smiling	061	sub-06	2.0	4.0	061_smiling	0.0		213.6273179563591	
32.0	191.09892110436022	pulse	1.0	t		40.0	male	black	2.408674890569041	smiling	061	sub-06	2.0	4.0	061_smiling	0.0		214.3273350414388	
32.0	191.79889200538992	pulse	1.0	t		40.0	male	black	2.408674890569041	smiling	061	sub-06	2.0	4.0	061_smiling	0.0		215.0273059424685	
32.0	192.49889580878244	pulse	1.0	t		40.0	male	black	2.408674890569041	smiling	061	sub-06	2.0	4.0	061_smiling	0.0		215.72730974586102	
32.0	193.1988661060991	pulse	1.0	t		40.0	male	black	2.408674890569041	smiling	061	sub-06	2.0	4.0	061_smiling	0.0		216.4272800431777	
33.0	193.27375822257227	face	0.0		146	31.0	female	west_asian	2.364902506963788	smiling	006	sub-06	2.0	4.0	006_smiling	0.0		216.50217215965085	1.2333296708075068
33.0	193.89887383362657	pulse	0.0	t		31.0	female	west_asian	2.364902506963788	smiling	006	sub-06	2.0	4.0	006_smiling	0.0		217.12728777070515	
33.0	194.50708789337978	fix	1.0		443	31.0	female	west_asian	2.364902506963788	smiling	006	sub-06	2.0	4.0	006_smiling	0.0		217.73550183045836	3.7665945632011244
33.0	194.59886284604863	pulse	1.0	t		31.0	female	west_asian	2.364902506963788	smiling	006	sub-06	2.0	4.0	006_smiling	0.0		217.82727678312722	
33.0	195.2988418972045	pulse	1.0	t		31.0	female	west_asian	2.364902506963788	smiling	006	sub-06	2.0	4.0	006_smiling	0.0		218.5272558342831	
33.0	195.9988408708923	pulse	1.0	t		31.0	female	west_asian	2.364902506963788	smiling	006	sub-06	2.0	4.0	006_smiling	0.0		219.2272548079709	
33.0	196.69883320373629	pulse	1.0	t		31.0	female	west_asian	2.364902506963788	smiling	006	sub-06	2.0	4.0	006_smiling	0.0		219.92724714081487	
33.0	197.39881799016666	pulse	1.0	t		31.0	female	west_asian	2.364902506963788	smiling	006	sub-06	2.0	4.0	006_smiling	0.0		220.62723192724525	
33.0	198.0988060970194	pulse	1.0	t		31.0	female	west_asian	2.364902506963788	smiling	006	sub-06	2.0	4.0	006_smiling	0.0		221.327220034098	
34.0	198.2736824565809	face	0.0		146	22.0	female	west_asian	3.8205332272184642	smiling	066	sub-06	2.0	4.0	066_smiling	0.0		221.50209639365949	1.2416473277244222
34.0	198.79879903357642	pulse	0.0	t		22.0	female	west_asian	3.8205332272184642	smiling	066	sub-06	2.0	4.0	066_smiling	0.0		222.027212970655	
34.0	199.4987759717369	pulse	0.0	t		22.0	female	west_asian	3.8205332272184642	smiling	066	sub-06	2.0	4.0	066_smiling	0.0		222.7271899088155	
34.0	199.51532978430532	fix	1.0		443	22.0	female	west_asian	3.8205332272184642	smiling	066	sub-06	2.0	4.0	066_smiling	0.0		222.7437437213839	3.750017507679331
34.0	200.19876951200695	pulse	1.0	t		22.0	female	west_asian	3.8205332272184642	smiling	066	sub-06	2.0	4.0	066_smiling	0.0		223.42718344908553	
34.0	200.89875912814205	pulse	1.0	t		22.0	female	west_asian	3.8205332272184642	smiling	066	sub-06	2.0	4.0	066_smiling	0.0		224.12717306522063	
34.0	201.59874361271568	pulse	1.0	t		22.0	female	west_asian	3.8205332272184642	smiling	066	sub-06	2.0	4.0	066_smiling	0.0		224.82715754979426	
34.0	202.2987609996526	pulse	1.0	t		22.0	female	west_asian	3.8205332272184642	smiling	066	sub-06	2.0	4.0	066_smiling	0.0		225.52717493673117	
34.0	202.99872495798172	pulse	1.0	t		22.0	female	west_asian	3.8205332272184642	smiling	066	sub-06	2.0	4.0	066_smiling	0.0		226.2271388950603	
35.0	203.26534729198465	face	0.0		146	19.0	female	white	4.298846000795861	neutral	100	sub-06	2.0	4.0	100_neutral	0.0		226.49376122906324	1.2415893712691286
35.0	203.6987284595175	pulse	0.0	t		19.0	female	white	4.298846000795861	neutral	100	sub-06	2.0	4.0	100_neutral	0.0		226.92714239659608	
35.0	204.39873347033608	pulse	0.0	t		19.0	female	white	4.298846000795861	neutral	100	sub-06	2.0	4.0	100_neutral	0.0		227.62714740741467	
35.0	204.50693666325378	fix	1.0		444	19.0	female	white	4.298846000795861	neutral	100	sub-06	2.0	4.0	100_neutral	0.0		227.73535060033237	3.766601807758434
35.0	205.0987076917877	pulse	1.0	t		19.0	female	white	4.298846000795861	neutral	100	sub-06	2.0	4.0	100_neutral	0.0		228.32712162886628	
35.0	205.7986954967837	pulse	1.0	t		19.0	female	white	4.298846000795861	neutral	100	sub-06	2.0	4.0	100_neutral	0.0		229.02710943386228	
35.0	206.49868179249688	pulse	1.0	t		19.0	female	white	4.298846000795861	neutral	100	sub-06	2.0	4.0	100_neutral	0.0		229.72709572957547	
35.0	207.19867533276692	pulse	1.0	t		19.0	female	white	4.298846000795861	neutral	100	sub-06	2.0	4.0	100_neutral	0.0		230.4270892698455	
35.0	207.89864593193988	pulse	1.0	t		19.0	female	white	4.298846000795861	neutral	100	sub-06	2.0	4.0	100_neutral	0.0		231.12705986901847	
36.0	208.27353847101222	face	0.0		145	40.0	male	white	1.868682849184242	neutral	172	sub-06	2.0	4.0	172_neutral	0.0		231.5019524080908	1.2333218225371638
36.0	208.59863343507914	pulse	0.0	t		40.0	male	white	1.868682849184242	neutral	172	sub-06	2.0	4.0	172_neutral	0.0		231.82704737215772	
36.0	209.29864569045458	pulse	0.0	t		40.0	male	white	1.868682849184242	neutral	172	sub-06	2.0	4.0	172_neutral	0.0		232.52705962753316	
36.0	209.50686029354938	fix	1.0		444	40.0	male	white	1.868682849184242	neutral	172	sub-06	2.0	4.0	172_neutral	0.0		232.73527423062797	3.7665975817672006
36.0	209.99863319359383	pulse	1.0	t		40.0	male	white	1.868682849184242	neutral	172	sub-06	2.0	4.0	172_neutral	0.0		233.22704713067242	
36.0	210.69860982989803	pulse	1.0	t		40.0	male	white	1.868682849184242	neutral	172	sub-06	2.0	4.0	172_neutral	0.0		233.92702376697662	
36.0	211.39860306831133	pulse	1.0	t		40.0	male	white	1.868682849184242	neutral	172	sub-06	2.0	4.0	172_neutral	0.0		234.62701700538992	
36.0	212.09859992900329	pulse	1.0	t		40.0	male	white	1.868682849184242	neutral	172	sub-06	2.0	4.0	172_neutral	0.0		235.32701386608187	
36.0	212.7985868284295	pulse	1.0	t		40.0	male	white	1.868682849184242	neutral	172	sub-06	2.0	4.0	172_neutral	0.0		236.0270007655081	
37.0	213.27345787531658	face	0.0		145	27.0	male	black	3.5523278949462798	smiling	042	sub-06	2.0	4.0	042_smiling	1.0	dominance	236.50187181239517	1.233320313254353
37.0	213.49858157612607	pulse	0.0	t		27.0	male	black	3.5523278949462798	smiling	042	sub-06	2.0	4.0	042_smiling	1.0	dominance	236.72699551320466	
37.0	214.19855821242982	pulse	0.0	t		27.0	male	black	3.5523278949462798	smiling	042	sub-06	2.0	4.0	042_smiling	1.0	dominance	237.4269721495084	
37.0	214.50677818857093	fix	1.0		177	27.0	male	black	3.5523278949462798	smiling	042	sub-06	2.0	4.0	042_smiling	1.0	dominance	237.73519212564952	1.4999713236288699
37.0	214.89856050653952	pulse	1.0	t		27.0	male	black	3.5523278949462798	smiling	042	sub-06	2.0	4.0	042_smiling	1.0	dominance	238.1269744436181	
37.0	215.5985356335609	pulse	1.0	t		27.0	male	black	3.5523278949462798	smiling	042	sub-06	2.0	4.0	042_smiling	1.0	dominance	238.8269495706395	
37.0	216.0067495121998	rating	2.0		294	27.0	male	black	3.5523278949462798	smiling	042	sub-06	2.0	4.0	042_smiling	1.0	dominance	239.2351634492784	2.4999788700424688
37.0	216.29853853138366	pulse	2.0	t		27.0	male	black	3.5523278949462798	smiling	042	sub-06	2.0	4.0	042_smiling	1.0	dominance	239.52695246846224	
37.0	216.99852814751875	pulse	2.0	t		27.0	male	black	3.5523278949462798	smiling	042	sub-06	2.0	4.0	042_smiling	1.0	dominance	240.22694208459734	
37.0	217.35685147933873	response	2.0	g		27.0	male	black	3.5523278949462798	smiling	042	sub-06	2.0	4.0	042_smiling	1.0	dominance	240.58526541641731	
37.0	217.6984978411224	pulse	2.0	t		27.0	male	black	3.5523278949462798	smiling	042	sub-06	2.0	4.0	042_smiling	1.0	dominance	240.92691177820097	
37.0	218.39848806097052	pulse	2.0	t		27.0	male	black	3.5523278949462798	smiling	042	sub-06	2.0	4.0	042_smiling	1.0	dominance	241.6269019980491	
37.0	218.50672838224227	fix	3.0		444	27.0	male	black	3.5523278949462798	smiling	042	sub-06	2.0	4.0	042_smiling	1.0	dominance	241.73514231932086	3.766592450205735
37.0	219.09848461980573	pulse	3.0	t		27.0	male	black	3.5523278949462798	smiling	042	sub-06	2.0	4.0	042_smiling	1.0	dominance	242.32689855688432	
37.0	219.79848148049768	pulse	3.0	t		27.0	male	black	3.5523278949462798	smiling	042	sub-06	2.0	4.0	042_smiling	1.0	dominance	243.02689541757627	
37.0	220.49847622819425	pulse	3.0	t		27.0	male	black	3.5523278949462798	smiling	042	sub-06	2.0	4.0	042_smiling	1.0	dominance	243.72689016527283	
37.0	221.19845859977204	pulse	3.0	t		27.0	male	black	3.5523278949462798	smiling	042	sub-06	2.0	4.0	042_smiling	1.0	dominance	244.42687253685062	
37.0	221.89845123447276	pulse	3.0	t		27.0	male	black	3.5523278949462798	smiling	042	sub-06	2.0	4.0	042_smiling	1.0	dominance	245.12686517155134	
38.0	222.273320832448	face	0.0		145	31.0	male	west_asian	1.9538400318344609	neutral	070	sub-06	2.0	4.0	070_neutral	0.0		245.5017347695266	1.2333296708075068
38.0	222.59844417102977	pulse	0.0	t		31.0	male	west_asian	1.9538400318344609	neutral	070	sub-06	2.0	4.0	070_neutral	0.0		245.82685810810835	
38.0	223.298426542608	pulse	0.0	t		31.0	male	west_asian	1.9538400318344609	neutral	070	sub-06	2.0	4.0	070_neutral	0.0		246.5268404796866	
38.0	223.5066505032555	fix	1.0		444	31.0	male	west_asian	1.9538400318344609	neutral	070	sub-06	2.0	4.0	070_neutral	0.0		246.7350644403341	3.766576753665504
38.0	223.99842038473435	pulse	1.0	t		31.0	male	west_asian	1.9538400318344609	neutral	070	sub-06	2.0	4.0	070_neutral	0.0		247.22683432181293	
38.0	224.69839007833798	pulse	1.0	t		31.0	male	west_asian	1.9538400318344609	neutral	070	sub-06	2.0	4.0	070_neutral	0.0		247.92680401541656	
38.0	225.39839448544353	pulse	1.0	t		31.0	male	west_asian	1.9538400318344609	neutral	070	sub-06	2.0	4.0	070_neutral	0.0		248.62680842252212	
38.0	226.09837685702178	pulse	1.0	t		31.0	male	west_asian	1.9538400318344609	neutral	070	sub-06	2.0	4.0	070_neutral	0.0		249.32679079410036	
38.0	226.79837190657418	pulse	1.0	t		31.0	male	west_asian	1.9538400318344609	neutral	070	sub-06	2.0	4.0	070_neutral	0.0		250.02678584365276	
39.0	227.27322725692102	face	0.0		145	22.0	female	west_asian	3.8205332272184642	neutral	066	sub-06	2.0	4.0	066_neutral	0.0		250.5016411939996	1.2333501970520047
39.0	227.498371483975	pulse	0.0	t		22.0	female	west_asian	3.8205332272184642	neutral	066	sub-06	2.0	4.0	066_neutral	0.0		250.7267854210536	
39.0	228.19834781842246	pulse	0.0	t		22.0	female	west_asian	3.8205332272184642	neutral	066	sub-06	2.0	4.0	066_neutral	0.0		251.42676175550105	
39.0	228.50657745397302	fix	1.0		444	22.0	female	west_asian	3.8205332272184642	neutral	066	sub-06	2.0	4.0	066_neutral	0.0		251.7349913910516	3.749946571392684
39.0	228.89834679211026	pulse	1.0	t		22.0	female	west_asian	3.8205332272184642	neutral	066	sub-06	2.0	4.0	066_neutral	0.0		252.12676072918885	
39.0	229.59833459710626	pulse	1.0	t		22.0	female	west_asian	3.8205332272184642	neutral	066	sub-06	2.0	4.0	066_neutral	0.0		252.82674853418484	
39.0	230.29832179838877	pulse	1.0	t		22.0	female	west_asian	3.8205332272184642	neutral	066	sub-06	2.0	4.0	066_neutral	0.0		253.52673573546735	
39.0	230.99831413123275	pulse	1.0	t		22.0	female	west_asian	3.8205332272184642	neutral	066	sub-06	2.0	4.0	066_neutral	0.0		254.22672806831133	
39.0	231.6983031436548	pulse	1.0	t		22.0	female	west_asian	3.8205332272184642	neutral	066	sub-06	2.0	4.0	066_neutral	0.0		254.9267170807334	
40.0	232.2565240253657	fix	0.0		720													255.4849379624443	5.999889218650424
40.0	232.39828460966328	pulse	0.0	t														255.62669854674186	
40.0	233.0982663775285	pulse	0.0	t														256.3266803146071	
40.0	233.7982593140855	pulse	0.0	t														257.0266732511641	
40.0	234.49824862836385	pulse	0.0	t														257.72666256544244	
40.0	235.198234320364	pulse	0.0	t														258.4266482574426	
40.0	235.8982411423217	pulse	0.0	t														259.1266550794003	
40.0	236.59822623060882	pulse	0.0	t														259.8266401676874	
40.0	237.29821795973976	pulse	0.0	t														260.52663189681834	
40.0	237.99818976633924	pulse	0.0	t														261.2266037034178	
