trial_nr	onset	event_type	phase	response	nr_frames	face_age	face_sex	face_eth	attractiveness	expression	face_id	sub_id	ses	run	trial_type	catch	rating_type	onset_abs	duration
-1.0	0.05508397449830227	fix	0.0		714													24.417150363841756	5.966328096253164
-1.0	0.7049716392320988	pulse	0.0	t														25.067038028575553	
-1.0	1.4049518073707077	pulse	0.0	t														25.76701819671416	
-1.0	2.1049464645411717	pulse	0.0	t														26.467012853884626	
-1.0	2.8049335753403284	pulse	0.0	t														27.166999964683782	
-1.0	3.5049080082380897	pulse	0.0	t														27.866974397581544	
-1.0	4.204985373625277	pulse	0.0	t														28.56705176296873	
-1.0	4.90493867668647	pulse	0.0	t														29.267005066029924	
-1.0	5.604863605396531	pulse	0.0	t														29.966929994739985	
0.0	6.021412070751467	face	0.0		144	54.0	female	white	2.286908077994429	smiling	136	sub-08	2.0	3.0	136_smiling	0.0		30.38347846009492	1.2333159565578171
0.0	6.30485554587267	pulse	0.0	t		54.0	female	white	2.286908077994429	smiling	136	sub-08	2.0	3.0	136_smiling	0.0		30.666921935216124	
0.0	7.004827865786865	pulse	0.0	t		54.0	female	white	2.286908077994429	smiling	136	sub-08	2.0	3.0	136_smiling	0.0		31.36689425513032	
0.0	7.254728027309284	fix	1.0		444	54.0	female	white	2.286908077994429	smiling	136	sub-08	2.0	3.0	136_smiling	0.0		31.616794416652738	3.7582399570646885
0.0	7.704837615697215	pulse	1.0	t		54.0	female	white	2.286908077994429	smiling	136	sub-08	2.0	3.0	136_smiling	0.0		32.06690400504067	
0.0	8.404810237466336	pulse	1.0	t		54.0	female	white	2.286908077994429	smiling	136	sub-08	2.0	3.0	136_smiling	0.0		32.76687662680979	
0.0	9.104801876088459	pulse	1.0	t		54.0	female	white	2.286908077994429	smiling	136	sub-08	2.0	3.0	136_smiling	0.0		33.46686826543191	
0.0	9.804778723824711	pulse	1.0	t		54.0	female	white	2.286908077994429	smiling	136	sub-08	2.0	3.0	136_smiling	0.0		34.166845113168165	
0.0	10.504775795832757	pulse	1.0	t		54.0	female	white	2.286908077994429	smiling	136	sub-08	2.0	3.0	136_smiling	0.0		34.86684218517621	
1.0	11.012967984373972	face	0.0		146	26.0	female	white	4.854755272582572	smiling	027	sub-08	2.0	3.0	027_smiling	0.0		35.375034373717426	1.2416528844787535
1.0	11.204760491794332	pulse	0.0	t		26.0	female	white	4.854755272582572	smiling	027	sub-08	2.0	3.0	027_smiling	0.0		35.566826881137786	
1.0	11.904698400259804	pulse	0.0	t		26.0	female	white	4.854755272582572	smiling	027	sub-08	2.0	3.0	027_smiling	0.0		36.26676478960326	
1.0	12.254620868852726	fix	1.0		444	26.0	female	white	4.854755272582572	smiling	027	sub-08	2.0	3.0	027_smiling	0.0		36.61668725819618	3.75824297561212
1.0	12.604724752184666	pulse	1.0	t		26.0	female	white	4.854755272582572	smiling	027	sub-08	2.0	3.0	027_smiling	0.0		36.96679114152812	
1.0	13.304710051856091	pulse	1.0	t		26.0	female	white	4.854755272582572	smiling	027	sub-08	2.0	3.0	027_smiling	0.0		37.666776441199545	
1.0	14.0046902199947	pulse	1.0	t		26.0	female	white	4.854755272582572	smiling	027	sub-08	2.0	3.0	027_smiling	0.0		38.366756609338154	
1.0	14.704684273455314	pulse	1.0	t		26.0	female	white	4.854755272582572	smiling	027	sub-08	2.0	3.0	027_smiling	0.0		39.06675066279877	
1.0	15.404675006512662	pulse	1.0	t		26.0	female	white	4.854755272582572	smiling	027	sub-08	2.0	3.0	027_smiling	0.0		39.766741395856116	
2.0	16.012863844464846	face	0.0		146	23.0	male	white	2.6275368085953046	neutral	141	sub-08	2.0	3.0	141_neutral	0.0		40.3749302338083	1.2416438288355494
2.0	16.104660608038103	pulse	0.0	t		23.0	male	white	2.6275368085953046	neutral	141	sub-08	2.0	3.0	141_neutral	0.0		40.466726997381556	
2.0	16.804631720533507	pulse	0.0	t		23.0	male	white	2.6275368085953046	neutral	141	sub-08	2.0	3.0	141_neutral	0.0		41.16669810987696	
2.0	17.254507673300395	fix	1.0		444	23.0	male	white	2.6275368085953046	neutral	141	sub-08	2.0	3.0	141_neutral	0.0		41.61657406264385	3.758250521982518
2.0	17.50461973689744	pulse	1.0	t		23.0	male	white	2.6275368085953046	neutral	141	sub-08	2.0	3.0	141_neutral	0.0		41.86668612624089	
2.0	18.204601716165598	pulse	1.0	t		23.0	male	white	2.6275368085953046	neutral	141	sub-08	2.0	3.0	141_neutral	0.0		42.56666810550905	
2.0	18.904594260351587	pulse	1.0	t		23.0	male	white	2.6275368085953046	neutral	141	sub-08	2.0	3.0	141_neutral	0.0		43.26666064969504	
2.0	19.604572013652614	pulse	1.0	t		23.0	male	white	2.6275368085953046	neutral	141	sub-08	2.0	3.0	141_neutral	0.0		43.96663840299607	
2.0	20.304558822596846	pulse	1.0	t		23.0	male	white	2.6275368085953046	neutral	141	sub-08	2.0	3.0	141_neutral	0.0		44.6666252119403	
3.0	21.012758195282913	face	0.0		147	24.0	female	east_asian	4.409868682849185	neutral	030	sub-08	2.0	3.0	030_neutral	0.0		45.37482458462637	1.2416613364139266
3.0	21.00592993768805	pulse	0.0	t		24.0	female	east_asian	4.409868682849185	neutral	030	sub-08	2.0	3.0	030_neutral	0.0		45.367996327031506	
3.0	21.704541797986167	pulse	0.0	t		24.0	female	east_asian	4.409868682849185	neutral	030	sub-08	2.0	3.0	030_neutral	0.0		46.06660818732962	
3.0	22.25441953169684	fix	1.0		443	24.0	female	east_asian	4.409868682849185	neutral	030	sub-08	2.0	3.0	030_neutral	0.0		46.616485921040294	3.7582360329515723
3.0	22.404527701366533	pulse	1.0	t		24.0	female	east_asian	4.409868682849185	neutral	030	sub-08	2.0	3.0	030_neutral	0.0		46.76659409070999	
3.0	23.10450183240937	pulse	1.0	t		24.0	female	east_asian	4.409868682849185	neutral	030	sub-08	2.0	3.0	030_neutral	0.0		47.46656822175282	
3.0	23.804485924661094	pulse	1.0	t		24.0	female	east_asian	4.409868682849185	neutral	030	sub-08	2.0	3.0	030_neutral	0.0		48.16655231400455	
3.0	24.504482091105274	pulse	1.0	t		24.0	female	east_asian	4.409868682849185	neutral	030	sub-08	2.0	3.0	030_neutral	0.0		48.86654848044873	
3.0	25.20446678706685	pulse	1.0	t		24.0	female	east_asian	4.409868682849185	neutral	030	sub-08	2.0	3.0	030_neutral	0.0		49.5665331764103	
3.0	25.904437899561344	pulse	1.0	t		24.0	female	east_asian	4.409868682849185	neutral	030	sub-08	2.0	3.0	030_neutral	0.0		50.2665042889048	
4.0	26.012655564648412	face	0.0		147	34.0	male	white	2.651014723438122	neutral	121	sub-08	2.0	3.0	121_neutral	0.0		50.374721953991866	1.2416592234303607
4.0	26.604438895682506	pulse	0.0	t		34.0	male	white	2.651014723438122	neutral	121	sub-08	2.0	3.0	121_neutral	0.0		50.96650528502596	
4.0	27.254314788078773	fix	1.0		443	34.0	male	white	2.651014723438122	neutral	121	sub-08	2.0	3.0	121_neutral	0.0		51.61638117742223	3.758239655208854
4.0	27.30451143139271	pulse	1.0	t		34.0	male	white	2.651014723438122	neutral	121	sub-08	2.0	3.0	121_neutral	0.0		51.666577820736165	
4.0	28.004396515267217	pulse	1.0	t		34.0	male	white	2.651014723438122	neutral	121	sub-08	2.0	3.0	121_neutral	0.0		52.36646290461067	
4.0	28.704384833486074	pulse	1.0	t		34.0	male	white	2.651014723438122	neutral	121	sub-08	2.0	3.0	121_neutral	0.0		53.06645122282953	
4.0	29.40437435912463	pulse	1.0	t		34.0	male	white	2.651014723438122	neutral	121	sub-08	2.0	3.0	121_neutral	0.0		53.766440748468085	
4.0	30.10436509218198	pulse	1.0	t		34.0	male	white	2.651014723438122	neutral	121	sub-08	2.0	3.0	121_neutral	0.0		54.46643148152543	
4.0	30.804346769595213	pulse	1.0	t		34.0	male	white	2.651014723438122	neutral	121	sub-08	2.0	3.0	121_neutral	0.0		55.16641315893867	
5.0	31.012554443287627	face	0.0		146	24.0	female	black	3.0955033824114606	neutral	099	sub-08	2.0	3.0	099_neutral	0.0		55.37462083263108	1.2416456399641902
5.0	31.504341426764768	pulse	0.0	t		24.0	female	black	3.0955033824114606	neutral	099	sub-08	2.0	3.0	099_neutral	0.0		55.86640781610822	
5.0	32.204309218856906	pulse	0.0	t		24.0	female	black	3.0955033824114606	neutral	099	sub-08	2.0	3.0	099_neutral	0.0		56.56637560820036	
5.0	32.25420008325182	fix	1.0		445	24.0	female	black	3.0955033824114606	neutral	099	sub-08	2.0	3.0	099_neutral	0.0		56.61626647259527	3.7665841295001883
5.0	32.90430991312314	pulse	1.0	t		24.0	female	black	3.0955033824114606	neutral	099	sub-08	2.0	3.0	099_neutral	0.0		57.2663763024666	
5.0	33.604286157149545	pulse	1.0	t		24.0	female	black	3.0955033824114606	neutral	099	sub-08	2.0	3.0	099_neutral	0.0		57.966352546493	
5.0	34.304279305045384	pulse	1.0	t		24.0	female	black	3.0955033824114606	neutral	099	sub-08	2.0	3.0	099_neutral	0.0		58.66634569438884	
5.0	35.004251926814504	pulse	1.0	t		24.0	female	black	3.0955033824114606	neutral	099	sub-08	2.0	3.0	099_neutral	0.0		59.36631831615796	
5.0	35.70424658398497	pulse	1.0	t		24.0	female	black	3.0955033824114606	neutral	099	sub-08	2.0	3.0	099_neutral	0.0		60.06631297332842	
6.0	36.020784212752005	face	0.0		145	22.0	male	black	2.767608436132113	smiling	044	sub-08	2.0	3.0	044_smiling	0.0		60.38285060209546	1.2333093157531039
6.0	36.404235505913675	pulse	0.0	t		22.0	male	black	2.767608436132113	smiling	044	sub-08	2.0	3.0	044_smiling	0.0		60.76630189525713	
6.0	37.10419967574762	pulse	0.0	t		22.0	male	black	2.767608436132113	smiling	044	sub-08	2.0	3.0	044_smiling	0.0		61.46626606509108	
6.0	37.25409352850511	fix	1.0		444	22.0	male	black	2.767608436132113	smiling	044	sub-08	2.0	3.0	044_smiling	0.0		61.61615991784856	3.766568433050452
6.0	37.80419644590165	pulse	1.0	t		22.0	male	black	2.767608436132113	smiling	044	sub-08	2.0	3.0	044_smiling	0.0		62.16626283524511	
6.0	38.504188084522866	pulse	1.0	t		22.0	male	black	2.767608436132113	smiling	044	sub-08	2.0	3.0	044_smiling	0.0		62.86625447386632	
6.0	39.204159498873196	pulse	1.0	t		22.0	male	black	2.767608436132113	smiling	044	sub-08	2.0	3.0	044_smiling	0.0		63.56622588821665	
6.0	39.90416019313852	pulse	1.0	t		22.0	male	black	2.767608436132113	smiling	044	sub-08	2.0	3.0	044_smiling	0.0		64.26622658248198	
6.0	40.604149416922155	pulse	1.0	t		22.0	male	black	2.767608436132113	smiling	044	sub-08	2.0	3.0	044_smiling	0.0		64.96621580626561	
7.0	41.02066196155556	face	0.0		145	22.0	female	west_asian	3.8205332272184642	neutral	066	sub-08	2.0	3.0	066_neutral	1.0	trustworthiness	65.38272835089901	1.2333398030878016
7.0	41.30413350917388	pulse	0.0	t		22.0	female	west_asian	3.8205332272184642	neutral	066	sub-08	2.0	3.0	066_neutral	1.0	trustworthiness	65.66619989851733	
7.0	42.004116997715755	pulse	0.0	t		22.0	female	west_asian	3.8205332272184642	neutral	066	sub-08	2.0	3.0	066_neutral	1.0	trustworthiness	66.36618338705921	
7.0	42.25400176464336	fix	1.0		177	22.0	female	west_asian	3.8205332272184642	neutral	066	sub-08	2.0	3.0	066_neutral	1.0	trustworthiness	66.61606815398682	1.508322287962983
7.0	42.70424416914648	pulse	1.0	t		22.0	female	west_asian	3.8205332272184642	neutral	066	sub-08	2.0	3.0	066_neutral	1.0	trustworthiness	67.06631055848993	
7.0	43.40409001189619	pulse	1.0	t		22.0	female	west_asian	3.8205332272184642	neutral	066	sub-08	2.0	3.0	066_neutral	1.0	trustworthiness	67.76615640123964	
7.0	43.762324052606346	rating	2.0		293	22.0	female	west_asian	3.8205332272184642	neutral	066	sub-08	2.0	3.0	066_neutral	1.0	trustworthiness	68.1243904419498	2.491585042611405
7.0	44.09883541396812	pulse	2.0	t		22.0	female	west_asian	3.8205332272184642	neutral	066	sub-08	2.0	3.0	066_neutral	1.0	trustworthiness	68.46090180331157	
7.0	44.79881799694613	pulse	2.0	t		22.0	female	west_asian	3.8205332272184642	neutral	066	sub-08	2.0	3.0	066_neutral	1.0	trustworthiness	69.16088438628958	
7.0	45.179056649393715	response	2.0	y		22.0	female	west_asian	3.8205332272184642	neutral	066	sub-08	2.0	3.0	066_neutral	1.0	trustworthiness	69.54112303873717	
7.0	45.50401542357304	pulse	2.0	t		22.0	female	west_asian	3.8205332272184642	neutral	066	sub-08	2.0	3.0	066_neutral	1.0	trustworthiness	69.86608181291649	
7.0	46.20401430671063	pulse	2.0	t		22.0	female	west_asian	3.8205332272184642	neutral	066	sub-08	2.0	3.0	066_neutral	1.0	trustworthiness	70.56608069605409	
7.0	46.25390909521775	fix	3.0		443	22.0	female	west_asian	3.8205332272184642	neutral	066	sub-08	2.0	3.0	066_neutral	1.0	trustworthiness	70.6159754845612	3.7665844313551133
7.0	46.82066443676467	response	3.0	b		22.0	female	west_asian	3.8205332272184642	neutral	066	sub-08	2.0	3.0	066_neutral	1.0	trustworthiness	71.18273082610813	
7.0	46.90398360807649	pulse	3.0	t		22.0	female	west_asian	3.8205332272184642	neutral	066	sub-08	2.0	3.0	066_neutral	1.0	trustworthiness	71.26604999741994	
7.0	47.60399818766382	pulse	3.0	t		22.0	female	west_asian	3.8205332272184642	neutral	066	sub-08	2.0	3.0	066_neutral	1.0	trustworthiness	71.96606457700727	
7.0	48.303987109592526	pulse	3.0	t		22.0	female	west_asian	3.8205332272184642	neutral	066	sub-08	2.0	3.0	066_neutral	1.0	trustworthiness	72.66605349893598	
7.0	49.00396274990908	pulse	3.0	t		22.0	female	west_asian	3.8205332272184642	neutral	066	sub-08	2.0	3.0	066_neutral	1.0	trustworthiness	73.36602913925253	
7.0	49.7039543885312	pulse	3.0	t		22.0	female	west_asian	3.8205332272184642	neutral	066	sub-08	2.0	3.0	066_neutral	1.0	trustworthiness	74.06602077787466	
8.0	50.020493526572864	face	0.0		145	22.0	male	black	2.767608436132113	neutral	044	sub-08	2.0	3.0	044_neutral	0.0		74.38255991591632	1.2333105231718946
8.0	50.40397802376265	pulse	0.0	t		22.0	male	black	2.767608436132113	neutral	044	sub-08	2.0	3.0	044_neutral	0.0		74.7660444131061	
8.0	51.10391834706752	pulse	0.0	t		22.0	male	black	2.767608436132113	neutral	044	sub-08	2.0	3.0	044_neutral	0.0		75.46598473641097	
8.0	51.25380404974476	fix	1.0		444	22.0	male	black	2.767608436132113	neutral	044	sub-08	2.0	3.0	044_neutral	0.0		75.61587043908821	3.7665820165166224
8.0	51.80390726899623	pulse	1.0	t		22.0	male	black	2.767608436132113	neutral	044	sub-08	2.0	3.0	044_neutral	0.0		76.16597365833968	
8.0	52.503888644554536	pulse	1.0	t		22.0	male	black	2.767608436132113	neutral	044	sub-08	2.0	3.0	044_neutral	0.0		76.86595503389799	
8.0	53.203882396159315	pulse	1.0	t		22.0	male	black	2.767608436132113	neutral	044	sub-08	2.0	3.0	044_neutral	0.0		77.56594878550277	
8.0	53.90386045131527	pulse	1.0	t		22.0	male	black	2.767608436132113	neutral	044	sub-08	2.0	3.0	044_neutral	0.0		78.26592684065872	
8.0	54.60385269364633	pulse	1.0	t		22.0	male	black	2.767608436132113	neutral	044	sub-08	2.0	3.0	044_neutral	0.0		78.96591908298979	
9.0	55.02038606626138	face	0.0		145	22.0	female	white	4.614007162753682	smiling	009	sub-08	2.0	3.0	009_smiling	0.0		79.38245245560483	1.233331653008463
9.0	55.303832258076	pulse	0.0	t		22.0	female	white	4.614007162753682	smiling	009	sub-08	2.0	3.0	009_smiling	0.0		79.66589864741945	
9.0	56.00382148185963	pulse	0.0	t		22.0	female	white	4.614007162753682	smiling	009	sub-08	2.0	3.0	009_smiling	0.0		80.36588787120309	
9.0	56.253717719269844	fix	1.0		444	22.0	female	white	4.614007162753682	smiling	009	sub-08	2.0	3.0	009_smiling	0.0		80.6157841086133	3.766551529181015
9.0	56.703815535320246	pulse	1.0	t		22.0	female	white	4.614007162753682	smiling	009	sub-08	2.0	3.0	009_smiling	0.0		81.0658819246637	
9.0	57.40378845894338	pulse	1.0	t		22.0	female	white	4.614007162753682	smiling	009	sub-08	2.0	3.0	009_smiling	0.0		81.76585484828684	
9.0	58.1037686270829	pulse	1.0	t		22.0	female	white	4.614007162753682	smiling	009	sub-08	2.0	3.0	009_smiling	0.0		82.46583501642635	
9.0	58.80377384917119	pulse	1.0	t		22.0	female	white	4.614007162753682	smiling	009	sub-08	2.0	3.0	009_smiling	0.0		83.16584023851465	
9.0	59.503738320860066	pulse	1.0	t		22.0	female	white	4.614007162753682	smiling	009	sub-08	2.0	3.0	009_smiling	0.0		83.86580471020352	
10.0	60.02026924845086	face	0.0		145	31.0	female	east_asian	3.395941106247513	neutral	087	sub-08	2.0	3.0	087_neutral	0.0		84.38233563779431	1.2333385956690108
10.0	60.203743844803284	pulse	0.0	t		31.0	female	east_asian	3.395941106247513	neutral	087	sub-08	2.0	3.0	087_neutral	0.0		84.56581023414674	
10.0	60.90371978697476	pulse	0.0	t		31.0	female	east_asian	3.395941106247513	neutral	087	sub-08	2.0	3.0	087_neutral	0.0		85.26578617631822	
10.0	61.25360784411987	fix	1.0		444	31.0	female	east_asian	3.395941106247513	neutral	087	sub-08	2.0	3.0	087_neutral	0.0		85.61567423346332	3.758237542225288
10.0	61.60371172745181	pulse	1.0	t		31.0	female	east_asian	3.395941106247513	neutral	087	sub-08	2.0	3.0	087_neutral	0.0		85.96577811679526	
10.0	62.303693404865044	pulse	1.0	t		31.0	female	east_asian	3.395941106247513	neutral	087	sub-08	2.0	3.0	087_neutral	0.0		86.6657597942085	
10.0	63.003677195261844	pulse	1.0	t		31.0	female	east_asian	3.395941106247513	neutral	087	sub-08	2.0	3.0	087_neutral	0.0		87.3657435846053	
10.0	63.70366128751357	pulse	1.0	t		31.0	female	east_asian	3.395941106247513	neutral	087	sub-08	2.0	3.0	087_neutral	0.0		88.06572767685702	
10.0	64.4036429649268	pulse	1.0	t		31.0	female	east_asian	3.395941106247513	neutral	087	sub-08	2.0	3.0	087_neutral	0.0		88.76570935427026	
11.0	65.01184538634516	face	0.0		146	19.0	male	white	2.243931555909272	neutral	130	sub-08	2.0	3.0	130_neutral	0.0		89.37391177568861	1.2416595252852858
11.0	65.1037028227347	pulse	0.0	t		19.0	male	white	2.243931555909272	neutral	130	sub-08	2.0	3.0	130_neutral	0.0		89.46576921207816	
11.0	65.80361235684904	pulse	0.0	t		19.0	male	white	2.243931555909272	neutral	130	sub-08	2.0	3.0	130_neutral	0.0		90.1656787461925	
11.0	66.25350491163044	fix	1.0		444	19.0	male	white	2.243931555909272	neutral	130	sub-08	2.0	3.0	130_neutral	0.0		90.6155713009739	3.766568131195527
11.0	66.50359826022941	pulse	1.0	t		19.0	male	white	2.243931555909272	neutral	130	sub-08	2.0	3.0	130_neutral	0.0		90.86566464957286	
11.0	67.20357963578772	pulse	1.0	t		19.0	male	white	2.243931555909272	neutral	130	sub-08	2.0	3.0	130_neutral	0.0		91.56564602513117	
11.0	67.90358183932858	pulse	1.0	t		19.0	male	white	2.243931555909272	neutral	130	sub-08	2.0	3.0	130_neutral	0.0		92.26564822867203	
11.0	68.60355385738785	pulse	1.0	t		19.0	male	white	2.243931555909272	neutral	130	sub-08	2.0	3.0	130_neutral	0.0		92.9656202467313	
11.0	69.30355062754097	pulse	1.0	t		19.0	male	white	2.243931555909272	neutral	130	sub-08	2.0	3.0	130_neutral	0.0		93.66561701688443	
12.0	70.02007304282597	face	0.0		146	40.0	male	black	2.408674890569041	neutral	061	sub-08	2.0	3.0	061_neutral	0.0		94.38213943216942	1.2333153528488765
12.0	70.00644973166618	pulse	0.0	t		40.0	male	black	2.408674890569041	neutral	061	sub-08	2.0	3.0	061_neutral	0.0		94.36851612100963	
12.0	70.70352575470497	pulse	0.0	t		40.0	male	black	2.408674890569041	neutral	061	sub-08	2.0	3.0	061_neutral	0.0		95.06559214404842	
12.0	71.25338839567485	fix	1.0		443	40.0	male	black	2.408674890569041	neutral	061	sub-08	2.0	3.0	061_neutral	0.0		95.6154547850183	3.758251125692368
12.0	71.40351286550504	pulse	1.0	t		40.0	male	black	2.408674890569041	neutral	061	sub-08	2.0	3.0	061_neutral	0.0		95.76557925484849	
12.0	72.10347945017747	pulse	1.0	t		40.0	male	black	2.408674890569041	neutral	061	sub-08	2.0	3.0	061_neutral	0.0		96.46554583952093	
12.0	72.8034698813799	pulse	1.0	t		40.0	male	black	2.408674890569041	neutral	061	sub-08	2.0	3.0	061_neutral	0.0		97.16553627072335	
12.0	73.50346302927574	pulse	1.0	t		40.0	male	black	2.408674890569041	neutral	061	sub-08	2.0	3.0	061_neutral	0.0		97.86552941861919	
12.0	74.2034374621735	pulse	1.0	t		40.0	male	black	2.408674890569041	neutral	061	sub-08	2.0	3.0	061_neutral	0.0		98.56550385151695	
12.0	74.90342215813507	pulse	1.0	t		40.0	male	black	2.408674890569041	neutral	061	sub-08	2.0	3.0	061_neutral	0.0		99.26548854747853	
13.0	75.01163952136721	face	0.0		147	24.0	female	black	3.0955033824114606	smiling	099	sub-08	2.0	3.0	099_smiling	0.0		99.37370591071067	1.2416456399632807
13.0	75.60342194683653	pulse	0.0	t		24.0	female	black	3.0955033824114606	smiling	099	sub-08	2.0	3.0	099_smiling	0.0		99.96548833617999	
13.0	76.2532851613305	fix	1.0		443	24.0	female	black	3.0955033824114606	smiling	099	sub-08	2.0	3.0	099_smiling	0.0		100.61535155067395	3.766580205388891
13.0	76.30339698344415	pulse	1.0	t		24.0	female	black	3.0955033824114606	smiling	099	sub-08	2.0	3.0	099_smiling	0.0		100.6654633727876	
13.0	77.00338107569587	pulse	1.0	t		24.0	female	black	3.0955033824114606	smiling	099	sub-08	2.0	3.0	099_smiling	0.0		101.36544746503932	
13.0	77.7033817699621	pulse	1.0	t		24.0	female	black	3.0955033824114606	smiling	099	sub-08	2.0	3.0	099_smiling	0.0		102.06544815930556	
13.0	78.40336314552042	pulse	1.0	t		24.0	female	black	3.0955033824114606	smiling	099	sub-08	2.0	3.0	099_smiling	0.0		102.76542953486387	
13.0	79.10334512478858	pulse	1.0	t		24.0	female	black	3.0955033824114606	smiling	099	sub-08	2.0	3.0	099_smiling	0.0		103.46541151413203	
13.0	79.80331744470277	pulse	1.0	t		24.0	female	black	3.0955033824114606	smiling	099	sub-08	2.0	3.0	099_smiling	0.0		104.16538383404622	
14.0	80.01986536671939	face	0.0		145	31.0	female	white	2.1822522881018704	smiling	102	sub-08	2.0	3.0	102_smiling	0.0		104.38193175606284	1.2333117305906853
14.0	80.50331874267795	pulse	0.0	t		31.0	female	white	2.1822522881018704	smiling	102	sub-08	2.0	3.0	102_smiling	0.0		104.8653851320214	
14.0	81.20327868654567	pulse	0.0	t		31.0	female	white	2.1822522881018704	smiling	102	sub-08	2.0	3.0	102_smiling	0.0		105.56534507588913	
14.0	81.25317709731007	fix	1.0		445	31.0	female	white	2.1822522881018704	smiling	102	sub-08	2.0	3.0	102_smiling	0.0		105.61524348665353	3.766585940628829
14.0	81.90328028637578	pulse	1.0	t		31.0	female	white	2.1822522881018704	smiling	102	sub-08	2.0	3.0	102_smiling	0.0		106.26534667571923	
14.0	82.60327433983639	pulse	1.0	t		31.0	female	white	2.1822522881018704	smiling	102	sub-08	2.0	3.0	102_smiling	0.0		106.96534072917984	
14.0	83.3032557153947	pulse	1.0	t		31.0	female	white	2.1822522881018704	smiling	102	sub-08	2.0	3.0	102_smiling	0.0		107.66532210473815	
14.0	84.00324675030697	pulse	1.0	t		31.0	female	white	2.1822522881018704	smiling	102	sub-08	2.0	3.0	102_smiling	0.0		108.36531313965043	
14.0	84.70323054070377	pulse	1.0	t		31.0	female	white	2.1822522881018704	smiling	102	sub-08	2.0	3.0	102_smiling	0.0		109.06529693004723	
15.0	85.0197630379389	face	0.0		145	47.0	male	east_asian	2.171110226820533	smiling	024	sub-08	2.0	3.0	024_smiling	1.0	dominance	109.38182942728236	1.2333141454300858
15.0	85.403217349648	pulse	0.0	t		47.0	male	east_asian	2.171110226820533	smiling	024	sub-08	2.0	3.0	024_smiling	1.0	dominance	109.76528373899146	
15.0	86.10319993262601	pulse	0.0	t		47.0	male	east_asian	2.171110226820533	smiling	024	sub-08	2.0	3.0	024_smiling	1.0	dominance	110.46526632196947	
15.0	86.25307718336899	fix	1.0		177	47.0	male	east_asian	2.171110226820533	smiling	024	sub-08	2.0	3.0	024_smiling	1.0	dominance	110.61514357271244	1.499968758027535
15.0	86.80317617665241	pulse	1.0	t		47.0	male	east_asian	2.171110226820533	smiling	024	sub-08	2.0	3.0	024_smiling	1.0	dominance	111.16524256599587	
15.0	87.50317053196795	pulse	1.0	t		47.0	male	east_asian	2.171110226820533	smiling	024	sub-08	2.0	3.0	024_smiling	1.0	dominance	111.8652369213114	
15.0	87.75304594139652	rating	2.0		295	47.0	male	east_asian	2.171110226820533	smiling	024	sub-08	2.0	3.0	024_smiling	1.0	dominance	112.11511233073998	2.499959400528496
15.0	88.19792831008726	pulse	2.0	t		47.0	male	east_asian	2.171110226820533	smiling	024	sub-08	2.0	3.0	024_smiling	1.0	dominance	112.55999469943072	
15.0	88.77814033894083	response	2.0	y		47.0	male	east_asian	2.171110226820533	smiling	024	sub-08	2.0	3.0	024_smiling	1.0	dominance	113.14020672828428	
15.0	88.89788946137378	pulse	2.0	t		47.0	male	east_asian	2.171110226820533	smiling	024	sub-08	2.0	3.0	024_smiling	1.0	dominance	113.25995585071723	
15.0	89.60312643098041	pulse	2.0	t		47.0	male	east_asian	2.171110226820533	smiling	024	sub-08	2.0	3.0	024_smiling	1.0	dominance	113.96519282032386	
15.0	90.25300534192502	fix	3.0		443	47.0	male	east_asian	2.171110226820533	smiling	024	sub-08	2.0	3.0	024_smiling	1.0	dominance	114.61507173126847	3.7665696404692426
15.0	90.30311233436078	pulse	3.0	t		47.0	male	east_asian	2.171110226820533	smiling	024	sub-08	2.0	3.0	024_smiling	1.0	dominance	114.66517872370423	
15.0	91.00308646540361	pulse	3.0	t		47.0	male	east_asian	2.171110226820533	smiling	024	sub-08	2.0	3.0	024_smiling	1.0	dominance	115.36515285474707	
15.0	91.70308806523462	pulse	3.0	t		47.0	male	east_asian	2.171110226820533	smiling	024	sub-08	2.0	3.0	024_smiling	1.0	dominance	116.06515445457808	
15.0	92.40307034635771	pulse	3.0	t		47.0	male	east_asian	2.171110226820533	smiling	024	sub-08	2.0	3.0	024_smiling	1.0	dominance	116.76513673570116	
15.0	93.10305262747988	pulse	3.0	t		47.0	male	east_asian	2.171110226820533	smiling	024	sub-08	2.0	3.0	024_smiling	1.0	dominance	117.46511901682334	
15.0	93.80303128634569	pulse	3.0	t		47.0	male	east_asian	2.171110226820533	smiling	024	sub-08	2.0	3.0	024_smiling	1.0	dominance	118.16509767568914	
16.0	94.01957498239426	face	0.0		145	24.0	female	east_asian	4.409868682849185	smiling	030	sub-08	2.0	3.0	030_smiling	0.0		118.38164137173771	1.2333156547038016
16.0	94.50301869899977	pulse	0.0	t		24.0	female	east_asian	4.409868682849185	smiling	030	sub-08	2.0	3.0	030_smiling	0.0		118.86508508834322	
16.0	95.20302663778148	pulse	0.0	t		24.0	female	east_asian	4.409868682849185	smiling	030	sub-08	2.0	3.0	030_smiling	0.0		119.56509302712493	
16.0	95.25289063709806	fix	1.0		444	24.0	female	east_asian	4.409868682849185	smiling	030	sub-08	2.0	3.0	030_smiling	0.0		119.61495702644152	3.7665829220813976
16.0	95.90299231689005	pulse	1.0	t		24.0	female	east_asian	4.409868682849185	smiling	030	sub-08	2.0	3.0	030_smiling	0.0		120.2650587062335	
16.0	96.60297157946479	pulse	1.0	t		24.0	female	east_asian	4.409868682849185	smiling	030	sub-08	2.0	3.0	030_smiling	0.0		120.96503796880825	
16.0	97.30296231252214	pulse	1.0	t		24.0	female	east_asian	4.409868682849185	smiling	030	sub-08	2.0	3.0	030_smiling	0.0		121.6650287018656	
16.0	98.00293523614528	pulse	1.0	t		24.0	female	east_asian	4.409868682849185	smiling	030	sub-08	2.0	3.0	030_smiling	0.0		122.36500162548873	
16.0	98.70294709903919	pulse	1.0	t		24.0	female	east_asian	4.409868682849185	smiling	030	sub-08	2.0	3.0	030_smiling	0.0		123.06501348838265	
17.0	99.01947355917946	face	0.0		145	40.0	male	white	1.868682849184242	neutral	172	sub-08	2.0	3.0	172_neutral	0.0		123.38153994852291	1.2333023730916466
17.0	99.40291428742239	pulse	0.0	t		40.0	male	white	1.868682849184242	neutral	172	sub-08	2.0	3.0	172_neutral	0.0		123.76498067676584	
17.0	100.10290562418868	pulse	0.0	t		40.0	male	white	1.868682849184242	neutral	172	sub-08	2.0	3.0	172_neutral	0.0		124.46497201353213	
17.0	100.2527759322711	fix	1.0		444	40.0	male	white	1.868682849184242	neutral	172	sub-08	2.0	3.0	172_neutral	0.0		124.61484232161456	3.766591675870586
17.0	100.80289665910095	pulse	1.0	t		40.0	male	white	1.868682849184242	neutral	172	sub-08	2.0	3.0	172_neutral	0.0		125.1649630484444	
17.0	101.50288829772308	pulse	1.0	t		40.0	male	white	1.868682849184242	neutral	172	sub-08	2.0	3.0	172_neutral	0.0		125.86495468706653	
17.0	102.20285578796029	pulse	1.0	t		40.0	male	white	1.868682849184242	neutral	172	sub-08	2.0	3.0	172_neutral	0.0		126.56492217730374	
17.0	102.90283867279322	pulse	1.0	t		40.0	male	white	1.868682849184242	neutral	172	sub-08	2.0	3.0	172_neutral	0.0		127.26490506213668	
17.0	103.60285113939608	pulse	1.0	t		40.0	male	white	1.868682849184242	neutral	172	sub-08	2.0	3.0	172_neutral	0.0		127.96491752873953	
18.0	104.01936760814169	face	0.0		145	37.0	male	white	3.898925586947871	smiling	101	sub-08	2.0	3.0	101_smiling	0.0		128.38143399748515	1.2333135417202357
18.0	104.30281681850465	pulse	0.0	t		37.0	male	white	3.898925586947871	smiling	101	sub-08	2.0	3.0	101_smiling	0.0		128.6648832078481	
18.0	105.00279577922447	pulse	0.0	t		37.0	male	white	3.898925586947871	smiling	101	sub-08	2.0	3.0	101_smiling	0.0		129.36486216856792	
18.0	105.25268114986193	fix	1.0		444	37.0	male	white	3.898925586947871	smiling	101	sub-08	2.0	3.0	101_smiling	0.0		129.61474753920538	3.766561188534979
18.0	105.70279586978086	pulse	1.0	t		37.0	male	white	3.898925586947871	smiling	101	sub-08	2.0	3.0	101_smiling	0.0		130.0648622591243	
18.0	106.40278358429077	pulse	1.0	t		37.0	male	white	3.898925586947871	smiling	101	sub-08	2.0	3.0	101_smiling	0.0		130.76484997363423	
18.0	107.10275922460733	pulse	1.0	t		37.0	male	white	3.898925586947871	smiling	101	sub-08	2.0	3.0	101_smiling	0.0		131.46482561395078	
18.0	107.80274361871398	pulse	1.0	t		37.0	male	white	3.898925586947871	smiling	101	sub-08	2.0	3.0	101_smiling	0.0		132.16481000805743	
18.0	108.50273676660981	pulse	1.0	t		37.0	male	white	3.898925586947871	smiling	101	sub-08	2.0	3.0	101_smiling	0.0		132.86480315595327	
19.0	109.01924233839691	face	0.0		145	26.0	male	white	2.7966573816155993	smiling	117	sub-08	2.0	3.0	117_smiling	0.0		133.38130872774036	1.2333355771206698
19.0	109.202732933054	pulse	0.0	t		26.0	male	white	2.7966573816155993	smiling	117	sub-08	2.0	3.0	117_smiling	0.0		133.56479932239745	
19.0	109.90269921587151	pulse	0.0	t		26.0	male	white	2.7966573816155993	smiling	117	sub-08	2.0	3.0	117_smiling	0.0		134.26476560521496	
19.0	110.25257791551758	fix	1.0		444	26.0	male	white	2.7966573816155993	smiling	117	sub-08	2.0	3.0	117_smiling	0.0		134.61464430486103	3.7665835257912477
19.0	110.6026993064279	pulse	1.0	t		26.0	male	white	2.7966573816155993	smiling	117	sub-08	2.0	3.0	117_smiling	0.0		134.96476569577135	
19.0	111.30267947456741	pulse	1.0	t		26.0	male	white	2.7966573816155993	smiling	117	sub-08	2.0	3.0	117_smiling	0.0		135.66474586391087	
19.0	112.0026466629497	pulse	1.0	t		26.0	male	white	2.7966573816155993	smiling	117	sub-08	2.0	3.0	117_smiling	0.0		136.36471305229315	
19.0	112.7026494701995	pulse	1.0	t		26.0	male	white	2.7966573816155993	smiling	117	sub-08	2.0	3.0	117_smiling	0.0		137.06471585954296	
19.0	113.40263024204796	pulse	1.0	t		26.0	male	white	2.7966573816155993	smiling	117	sub-08	2.0	3.0	117_smiling	0.0		137.76469663139142	
20.0	114.01916144130882	face	0.0		145	40.0	male	black	2.408674890569041	smiling	061	sub-08	2.0	3.0	061_smiling	0.0		138.38122783065228	1.2333099194620445
20.0	114.10262218252501	pulse	0.0	t		40.0	male	black	2.408674890569041	smiling	061	sub-08	2.0	3.0	061_smiling	0.0		138.46468857186846	
20.0	114.80258906905237	pulse	0.0	t		40.0	male	black	2.408674890569041	smiling	061	sub-08	2.0	3.0	061_smiling	0.0		139.16465545839583	
20.0	115.25247136077087	fix	1.0		1185	40.0	male	black	2.408674890569041	smiling	061	sub-08	2.0	3.0	061_smiling	0.0		139.61453775011432	10.016458633363982
20.0	115.50258131138435	pulse	1.0	t		40.0	male	black	2.408674890569041	smiling	061	sub-08	2.0	3.0	061_smiling	0.0		139.8646477007278	
20.0	116.20256751661964	pulse	1.0	t		40.0	male	black	2.408674890569041	smiling	061	sub-08	2.0	3.0	061_smiling	0.0		140.5646339059631	
20.0	116.90254104395262	pulse	1.0	t		40.0	male	black	2.408674890569041	smiling	061	sub-08	2.0	3.0	061_smiling	0.0		141.26460743329608	
20.0	117.60255169942775	pulse	1.0	t		40.0	male	black	2.408674890569041	smiling	061	sub-08	2.0	3.0	061_smiling	0.0		141.9646180887712	
20.0	118.30253216942128	pulse	1.0	t		40.0	male	black	2.408674890569041	smiling	061	sub-08	2.0	3.0	061_smiling	0.0		142.66459855876474	
20.0	119.00250660231904	pulse	1.0	t		40.0	male	black	2.408674890569041	smiling	061	sub-08	2.0	3.0	061_smiling	0.0		143.3645729916625	
20.0	119.70249129828062	pulse	1.0	t		40.0	male	black	2.408674890569041	smiling	061	sub-08	2.0	3.0	061_smiling	0.0		144.06455768762407	
20.0	120.4024759942422	pulse	1.0	t		40.0	male	black	2.408674890569041	smiling	061	sub-08	2.0	3.0	061_smiling	0.0		144.76454238358565	
20.0	121.10246672729954	pulse	1.0	t		40.0	male	black	2.408674890569041	smiling	061	sub-08	2.0	3.0	061_smiling	0.0		145.464533116643	
20.0	121.80245021584142	pulse	1.0	t		40.0	male	black	2.408674890569041	smiling	061	sub-08	2.0	3.0	061_smiling	0.0		146.16451660518487	
20.0	122.50243098768988	pulse	1.0	t		40.0	male	black	2.408674890569041	smiling	061	sub-08	2.0	3.0	061_smiling	0.0		146.86449737703333	
20.0	123.20242836155376	pulse	1.0	t		40.0	male	black	2.408674890569041	smiling	061	sub-08	2.0	3.0	061_smiling	0.0		147.5644947508972	
20.0	123.9024139630792	pulse	1.0	t		40.0	male	black	2.408674890569041	smiling	061	sub-08	2.0	3.0	061_smiling	0.0		148.26448035242265	
20.0	124.60239896089479	pulse	1.0	t		40.0	male	black	2.408674890569041	smiling	061	sub-08	2.0	3.0	061_smiling	0.0		148.96446535023824	
21.0	125.26892999413485	face	0.0		145	31.0	male	west_asian	1.9538400318344609	neutral	070	sub-08	2.0	3.0	070_neutral	0.0		149.6309963834783	1.2333198806709333
21.0	125.30239452362912	pulse	0.0	t		31.0	male	west_asian	1.9538400318344609	neutral	070	sub-08	2.0	3.0	070_neutral	0.0		149.66446091297257	
21.0	126.0023641268499	pulse	0.0	t		31.0	male	west_asian	1.9538400318344609	neutral	070	sub-08	2.0	3.0	070_neutral	0.0		150.36443051619335	
21.0	126.50224987480578	fix	1.0		443	31.0	male	west_asian	1.9538400318344609	neutral	070	sub-08	2.0	3.0	070_neutral	0.0		150.86431626414924	3.7665726590175836
21.0	126.70235818031051	pulse	1.0	t		31.0	male	west_asian	1.9538400318344609	neutral	070	sub-08	2.0	3.0	070_neutral	0.0		151.06442456965397	
21.0	127.40233231135335	pulse	1.0	t		31.0	male	west_asian	1.9538400318344609	neutral	070	sub-08	2.0	3.0	070_neutral	0.0		151.7643987006968	
21.0	128.10232123328205	pulse	1.0	t		31.0	male	west_asian	1.9538400318344609	neutral	070	sub-08	2.0	3.0	070_neutral	0.0		152.4643876226255	
21.0	128.8023119663394	pulse	1.0	t		31.0	male	west_asian	1.9538400318344609	neutral	070	sub-08	2.0	3.0	070_neutral	0.0		153.16437835568286	
21.0	129.50229786971977	pulse	1.0	t		31.0	male	west_asian	1.9538400318344609	neutral	070	sub-08	2.0	3.0	070_neutral	0.0		153.86436425906322	
21.0	130.2022907157616	pulse	1.0	t		31.0	male	west_asian	1.9538400318344609	neutral	070	sub-08	2.0	3.0	070_neutral	0.0		154.56435710510505	
22.0	130.26882253382337	face	0.0		146	28.0	male	east_asian	1.5563072025467568	smiling	005	sub-08	2.0	3.0	005_smiling	0.0		154.63088892316682	1.2333081083334037
22.0	130.90226031898237	pulse	0.0	t		28.0	male	east_asian	1.5563072025467568	smiling	005	sub-08	2.0	3.0	005_smiling	0.0		155.26432670832583	
22.0	131.50213064215677	fix	1.0		443	28.0	male	east_asian	1.5563072025467568	smiling	005	sub-08	2.0	3.0	005_smiling	0.0		155.86419703150023	3.7665883554682296
22.0	131.602254674297	pulse	1.0	t		28.0	male	east_asian	1.5563072025467568	smiling	005	sub-08	2.0	3.0	005_smiling	0.0		155.96432106364045	
22.0	132.30223393687174	pulse	1.0	t		28.0	male	east_asian	1.5563072025467568	smiling	005	sub-08	2.0	3.0	005_smiling	0.0		156.6643003262152	
22.0	133.00229470024442	pulse	1.0	t		28.0	male	east_asian	1.5563072025467568	smiling	005	sub-08	2.0	3.0	005_smiling	0.0		157.36436108958787	
22.0	133.7022048380686	pulse	1.0	t		28.0	male	east_asian	1.5563072025467568	smiling	005	sub-08	2.0	3.0	005_smiling	0.0		158.06427122741206	
22.0	134.40219255257762	pulse	1.0	t		28.0	male	east_asian	1.5563072025467568	smiling	005	sub-08	2.0	3.0	005_smiling	0.0		158.76425894192107	
22.0	135.10217845595798	pulse	1.0	t		28.0	male	east_asian	1.5563072025467568	smiling	005	sub-08	2.0	3.0	005_smiling	0.0		159.46424484530144	
23.0	135.268718997625	face	0.0		146	22.0	female	west_asian	3.8205332272184642	smiling	066	sub-08	2.0	3.0	066_smiling	0.0		159.63078538696845	1.2333132398644011
23.0	135.80215771853273	pulse	0.0	t		22.0	female	west_asian	3.8205332272184642	smiling	066	sub-08	2.0	3.0	066_smiling	0.0		160.16422410787618	
23.0	136.5020322374894	fix	1.0		444	22.0	female	west_asian	3.8205332272184642	smiling	066	sub-08	2.0	3.0	066_smiling	0.0		160.86409862683286	3.7665838276461727
23.0	136.50966463629084	pulse	1.0	t		22.0	female	west_asian	3.8205332272184642	smiling	066	sub-08	2.0	3.0	066_smiling	0.0		160.8717310256343	
23.0	137.20212590303618	pulse	1.0	t		22.0	female	west_asian	3.8205332272184642	smiling	066	sub-08	2.0	3.0	066_smiling	0.0		161.56419229237963	
23.0	137.90211935278694	pulse	1.0	t		22.0	female	west_asian	3.8205332272184642	smiling	066	sub-08	2.0	3.0	066_smiling	0.0		162.2641857421304	
23.0	138.60210193576495	pulse	1.0	t		22.0	female	west_asian	3.8205332272184642	smiling	066	sub-08	2.0	3.0	066_smiling	0.0		162.9641683251084	
23.0	139.3020914614026	pulse	1.0	t		22.0	female	west_asian	3.8205332272184642	smiling	066	sub-08	2.0	3.0	066_smiling	0.0		163.66415785074605	
23.0	140.0020613664783	pulse	1.0	t		22.0	female	west_asian	3.8205332272184642	smiling	066	sub-08	2.0	3.0	066_smiling	0.0		164.36412775582176	
24.0	140.26861606513557	face	0.0		145	40.0	female	west_asian	1.5777954635893354	smiling	038	sub-08	2.0	3.0	038_smiling	0.0		164.63068245447903	1.233320786234799
24.0	140.70206930526	pulse	0.0	t		40.0	female	west_asian	1.5777954635893354	smiling	038	sub-08	2.0	3.0	038_smiling	0.0		165.06413569460346	
24.0	141.402037701062	pulse	0.0	t		40.0	female	west_asian	1.5777954635893354	smiling	038	sub-08	2.0	3.0	038_smiling	0.0		165.76410409040545	
24.0	141.50193685137037	fix	1.0		444	40.0	female	west_asian	1.5777954635893354	smiling	038	sub-08	2.0	3.0	038_smiling	0.0		165.86400324071383	3.766576884985625
24.0	142.1020329619414	pulse	1.0	t		40.0	female	west_asian	1.5777954635893354	smiling	038	sub-08	2.0	3.0	038_smiling	0.0		166.46409935128486	
24.0	142.80201313008092	pulse	1.0	t		40.0	female	west_asian	1.5777954635893354	smiling	038	sub-08	2.0	3.0	038_smiling	0.0		167.16407951942438	
24.0	143.50199450563923	pulse	1.0	t		40.0	female	west_asian	1.5777954635893354	smiling	038	sub-08	2.0	3.0	038_smiling	0.0		167.86406089498269	
24.0	144.20199791659797	pulse	1.0	t		40.0	female	west_asian	1.5777954635893354	smiling	038	sub-08	2.0	3.0	038_smiling	0.0		168.56406430594143	
24.0	144.90197084022202	pulse	1.0	t		40.0	female	west_asian	1.5777954635893354	smiling	038	sub-08	2.0	3.0	038_smiling	0.0		169.26403722956547	
25.0	145.268513736356	face	0.0		145	34.0	male	white	2.651014723438122	smiling	121	sub-08	2.0	3.0	121_smiling	1.0	attractiveness	169.63058012569945	1.2333244084929902
25.0	145.6019670066662	pulse	0.0	t		34.0	male	white	2.651014723438122	smiling	121	sub-08	2.0	3.0	121_smiling	1.0	attractiveness	169.96403339600965	
25.0	146.30193902472547	pulse	0.0	t		34.0	male	white	2.651014723438122	smiling	121	sub-08	2.0	3.0	121_smiling	1.0	attractiveness	170.66400541406892	
25.0	146.501838144849	fix	1.0		177	34.0	male	white	2.651014723438122	smiling	121	sub-08	2.0	3.0	121_smiling	1.0	attractiveness	170.86390453419244	1.499958494963721
25.0	147.0019370022983	pulse	1.0	t		34.0	male	white	2.651014723438122	smiling	121	sub-08	2.0	3.0	121_smiling	1.0	attractiveness	171.36400339164175	
25.0	147.70192320753358	pulse	1.0	t		34.0	male	white	2.651014723438122	smiling	121	sub-08	2.0	3.0	121_smiling	1.0	attractiveness	172.06398959687704	
25.0	148.0017966398127	rating	2.0		296	34.0	male	white	2.651014723438122	smiling	121	sub-08	2.0	3.0	121_smiling	1.0	attractiveness	172.36386302915616	2.49995668383508
25.0	148.39667374113742	pulse	2.0	t		34.0	male	white	2.651014723438122	smiling	121	sub-08	2.0	3.0	121_smiling	1.0	attractiveness	172.75874013048087	
25.0	149.09664062766478	pulse	2.0	t		34.0	male	white	2.651014723438122	smiling	121	sub-08	2.0	3.0	121_smiling	1.0	attractiveness	173.45870701700824	
25.0	149.79665520725212	pulse	2.0	t		34.0	male	white	2.651014723438122	smiling	121	sub-08	2.0	3.0	121_smiling	1.0	attractiveness	174.15872159659557	
25.0	150.5017533236478	fix	3.0		442	34.0	male	white	2.651014723438122	smiling	121	sub-08	2.0	3.0	121_smiling	1.0	attractiveness	174.86381971299124	3.766569942325077
25.0	150.5097250072522	pulse	3.0	t		34.0	male	white	2.651014723438122	smiling	121	sub-08	2.0	3.0	121_smiling	1.0	attractiveness	174.87179139659565	
25.0	150.57683819767317	response	3.0	w		34.0	male	white	2.651014723438122	smiling	121	sub-08	2.0	3.0	121_smiling	1.0	attractiveness	174.93890458701662	
25.0	151.20184185766266	pulse	3.0	t		34.0	male	white	2.651014723438122	smiling	121	sub-08	2.0	3.0	121_smiling	1.0	attractiveness	175.5639082470061	
25.0	151.90181417757685	pulse	3.0	t		34.0	male	white	2.651014723438122	smiling	121	sub-08	2.0	3.0	121_smiling	1.0	attractiveness	176.2638805669203	
25.0	152.60182211635856	pulse	3.0	t		34.0	male	white	2.651014723438122	smiling	121	sub-08	2.0	3.0	121_smiling	1.0	attractiveness	176.96388850570202	
25.0	153.30179443627276	pulse	3.0	t		34.0	male	white	2.651014723438122	smiling	121	sub-08	2.0	3.0	121_smiling	1.0	attractiveness	177.6638608256162	
25.0	154.00177822666956	pulse	3.0	t		34.0	male	white	2.651014723438122	smiling	121	sub-08	2.0	3.0	121_smiling	1.0	attractiveness	178.363844616013	
26.0	154.26832326597287	face	0.0		145	31.0	female	west_asian	2.364902506963788	neutral	006	sub-08	2.0	3.0	006_neutral	1.0	attractiveness	178.63038965531632	1.2333277288953468
26.0	154.7017650356147	pulse	0.0	t		31.0	female	west_asian	2.364902506963788	neutral	006	sub-08	2.0	3.0	006_neutral	1.0	attractiveness	179.06383142495815	
26.0	155.40176059834903	pulse	0.0	t		31.0	female	west_asian	2.364902506963788	neutral	006	sub-08	2.0	3.0	006_neutral	1.0	attractiveness	179.76382698769248	
26.0	155.5016509948682	fix	1.0		177	31.0	female	west_asian	2.364902506963788	neutral	006	sub-08	2.0	3.0	006_neutral	1.0	attractiveness	179.86371738421167	1.49996905988246
26.0	156.10173986092377	pulse	1.0	t		31.0	female	west_asian	2.364902506963788	neutral	006	sub-08	2.0	3.0	006_neutral	1.0	attractiveness	180.46380625026723	
26.0	156.80173089583604	pulse	1.0	t		31.0	female	west_asian	2.364902506963788	neutral	006	sub-08	2.0	3.0	006_neutral	1.0	attractiveness	181.1637972851795	
26.0	157.00162005475067	rating	2.0		295	31.0	female	west_asian	2.364902506963788	neutral	006	sub-08	2.0	3.0	006_neutral	1.0	attractiveness	181.36368644409413	2.499934044724796
26.0	157.4964778071817	pulse	2.0	t		31.0	female	west_asian	2.364902506963788	neutral	006	sub-08	2.0	3.0	006_neutral	1.0	attractiveness	181.85854419652514	
26.0	158.19646884209396	pulse	2.0	t		31.0	female	west_asian	2.364902506963788	neutral	006	sub-08	2.0	3.0	006_neutral	1.0	attractiveness	182.55853523143742	
26.0	158.49334515799274	response	2.0	d		31.0	female	west_asian	2.364902506963788	neutral	006	sub-08	2.0	3.0	006_neutral	1.0	attractiveness	182.8554115473362	
26.0	158.9016638538833	pulse	2.0	t		31.0	female	west_asian	2.364902506963788	neutral	006	sub-08	2.0	3.0	006_neutral	1.0	attractiveness	183.26373024322675	
26.0	159.50155409947547	fix	3.0		443	31.0	female	west_asian	2.364902506963788	neutral	006	sub-08	2.0	3.0	006_neutral	1.0	attractiveness	183.86362048881892	3.7665823183715474
26.0	159.60166605742324	pulse	3.0	t		31.0	female	west_asian	2.364902506963788	neutral	006	sub-08	2.0	3.0	006_neutral	1.0	attractiveness	183.9637324467667	
26.0	160.30164864040034	pulse	3.0	t		31.0	female	west_asian	2.364902506963788	neutral	006	sub-08	2.0	3.0	006_neutral	1.0	attractiveness	184.6637150297438	
26.0	161.00164601426422	pulse	3.0	t		31.0	female	west_asian	2.364902506963788	neutral	006	sub-08	2.0	3.0	006_neutral	1.0	attractiveness	185.36371240360768	
26.0	161.70161591933993	pulse	3.0	t		31.0	female	west_asian	2.364902506963788	neutral	006	sub-08	2.0	3.0	006_neutral	1.0	attractiveness	186.06368230868338	
26.0	162.4016157080414	pulse	3.0	t		31.0	female	west_asian	2.364902506963788	neutral	006	sub-08	2.0	3.0	006_neutral	1.0	attractiveness	186.76368209738484	
26.0	163.10159889472834	pulse	3.0	t		31.0	female	west_asian	2.364902506963788	neutral	006	sub-08	2.0	3.0	006_neutral	1.0	attractiveness	187.4636652840718	
27.0	163.26813641784702	face	0.0		146	32.0	male	white	2.389176283326701	neutral	092	sub-08	2.0	3.0	092_neutral	0.0		187.63020280719047	1.2333147491390264
27.0	163.80157151649746	pulse	0.0	t		32.0	male	white	2.389176283326701	neutral	092	sub-08	2.0	3.0	092_neutral	0.0		188.16363790584091	
27.0	164.50145116698604	fix	1.0		444	32.0	male	white	2.389176283326701	neutral	092	sub-08	2.0	3.0	092_neutral	0.0		188.8635175563295	3.7665829220813976
27.0	164.50908084909315	pulse	1.0	t		32.0	male	white	2.389176283326701	neutral	092	sub-08	2.0	3.0	092_neutral	0.0		188.8711472384366	
27.0	165.20155298261216	pulse	1.0	t		32.0	male	white	2.389176283326701	neutral	092	sub-08	2.0	3.0	092_neutral	0.0		189.5636193719556	
27.0	165.9015005504325	pulse	1.0	t		32.0	male	white	2.389176283326701	neutral	092	sub-08	2.0	3.0	092_neutral	0.0		190.26356693977596	
27.0	166.60151573372877	pulse	1.0	t		32.0	male	white	2.389176283326701	neutral	092	sub-08	2.0	3.0	092_neutral	0.0		190.96358212307223	
27.0	167.30150405194763	pulse	1.0	t		32.0	male	white	2.389176283326701	neutral	092	sub-08	2.0	3.0	092_neutral	0.0		191.66357044129109	
27.0	168.00148512565193	pulse	1.0	t		32.0	male	white	2.389176283326701	neutral	092	sub-08	2.0	3.0	092_neutral	0.0		192.36355151499538	
28.0	168.26803408906744	face	0.0		145	27.0	female	white	3.504576203740549	neutral	144	sub-08	2.0	3.0	144_neutral	0.0		192.6301004784109	1.23332380478314
28.0	168.70147646241912	pulse	0.0	t		27.0	female	white	3.504576203740549	neutral	144	sub-08	2.0	3.0	144_neutral	0.0		193.06354285176258	
28.0	169.40147413813702	pulse	0.0	t		27.0	female	white	3.504576203740549	neutral	144	sub-08	2.0	3.0	144_neutral	0.0		193.76354052748047	
28.0	169.50135789385058	fix	1.0		444	27.0	female	white	3.504576203740549	neutral	144	sub-08	2.0	3.0	144_neutral	0.0		193.86342428319404	3.766571149743868
28.0	170.10146064522723	pulse	1.0	t		27.0	female	white	3.504576203740549	neutral	144	sub-08	2.0	3.0	144_neutral	0.0		194.4635270345707	
28.0	170.80144202078554	pulse	1.0	t		27.0	female	white	3.504576203740549	neutral	144	sub-08	2.0	3.0	144_neutral	0.0		195.163508410129	
28.0	171.5014152462636	pulse	1.0	t		27.0	female	white	3.504576203740549	neutral	144	sub-08	2.0	3.0	144_neutral	0.0		195.86348163560706	
28.0	172.20141231827256	pulse	1.0	t		27.0	female	white	3.504576203740549	neutral	144	sub-08	2.0	3.0	144_neutral	0.0		196.563478707616	
28.0	172.90139520310458	pulse	1.0	t		27.0	female	white	3.504576203740549	neutral	144	sub-08	2.0	3.0	144_neutral	0.0		197.26346159244804	
29.0	173.26792904359445	face	0.0		145	32.0	male	white	2.389176283326701	smiling	092	sub-08	2.0	3.0	092_smiling	0.0		197.6299954329379	1.2333274270404218
29.0	173.6013880491455	pulse	0.0	t		32.0	male	white	2.389176283326701	smiling	092	sub-08	2.0	3.0	092_smiling	0.0		197.96345443848895	
29.0	174.3013679154301	pulse	0.0	t		32.0	male	white	2.389176283326701	smiling	092	sub-08	2.0	3.0	092_smiling	0.0		198.66343430477355	
29.0	174.50125647063487	fix	1.0		444	32.0	male	white	2.389176283326701	smiling	092	sub-08	2.0	3.0	092_smiling	0.0		198.86332285997833	3.7665678293415112
29.0	175.00135955405221	pulse	1.0	t		32.0	male	white	2.389176283326701	smiling	092	sub-08	2.0	3.0	092_smiling	0.0		199.36342594339567	
29.0	175.70133519436877	pulse	1.0	t		32.0	male	white	2.389176283326701	smiling	092	sub-08	2.0	3.0	092_smiling	0.0		200.06340158371222	
29.0	176.40132230516883	pulse	1.0	t		32.0	male	white	2.389176283326701	smiling	092	sub-08	2.0	3.0	092_smiling	0.0		200.7633886945123	
29.0	177.10130036032388	pulse	1.0	t		32.0	male	white	2.389176283326701	smiling	092	sub-08	2.0	3.0	092_smiling	0.0		201.46336674966733	
29.0	177.80129682862298	pulse	1.0	t		32.0	male	white	2.389176283326701	smiling	092	sub-08	2.0	3.0	092_smiling	0.0		202.16336321796643	
30.0	178.26782429997638	face	0.0		145	25.0	female	west_asian	2.6756864305610826	smiling	064	sub-08	2.0	3.0	064_smiling	0.0		202.62989068931984	1.2333213899446491
30.0	178.50129812659816	pulse	0.0	t		25.0	female	west_asian	2.6756864305610826	smiling	064	sub-08	2.0	3.0	064_smiling	0.0		202.8633645159416	
30.0	179.2012647112715	pulse	0.0	t		25.0	female	west_asian	2.6756864305610826	smiling	064	sub-08	2.0	3.0	064_smiling	0.0		203.56333110061496	
30.0	179.50114568992103	fix	1.0		444	25.0	female	west_asian	2.6756864305610826	smiling	064	sub-08	2.0	3.0	064_smiling	0.0		203.86321207926449	3.7665759794208498
30.0	179.9012524257805	pulse	1.0	t		25.0	female	west_asian	2.6756864305610826	smiling	064	sub-08	2.0	3.0	064_smiling	0.0		204.26331881512397	
30.0	180.6012371217421	pulse	1.0	t		25.0	female	west_asian	2.6756864305610826	smiling	064	sub-08	2.0	3.0	064_smiling	0.0		204.96330351108554	
30.0	181.3012133657685	pulse	1.0	t		25.0	female	west_asian	2.6756864305610826	smiling	064	sub-08	2.0	3.0	064_smiling	0.0		205.66327975511194	
30.0	182.00119957100378	pulse	1.0	t		25.0	female	west_asian	2.6756864305610826	smiling	064	sub-08	2.0	3.0	064_smiling	0.0		206.36326596034723	
30.0	182.70119151148083	pulse	1.0	t		25.0	female	west_asian	2.6756864305610826	smiling	064	sub-08	2.0	3.0	064_smiling	0.0		207.06325790082428	
31.0	183.26772166934188	face	0.0		145	26.0	male	white	2.7966573816155993	neutral	117	sub-08	2.0	3.0	117_neutral	0.0		207.62978805868534	1.23332320107329
31.0	183.40117560373255	pulse	0.0	t		26.0	male	white	2.7966573816155993	neutral	117	sub-08	2.0	3.0	117_neutral	0.0		207.763241993076	
31.0	184.10116814791854	pulse	0.0	t		26.0	male	white	2.7966573816155993	neutral	117	sub-08	2.0	3.0	117_neutral	0.0		208.463234537262	
31.0	184.50104487041517	fix	1.0		444	26.0	male	white	2.7966573816155993	neutral	117	sub-08	2.0	3.0	117_neutral	0.0		208.86311125975863	3.766572055308643
31.0	184.8011401659778	pulse	1.0	t		26.0	male	white	2.7966573816155993	neutral	117	sub-08	2.0	3.0	117_neutral	0.0		209.16320655532127	
31.0	185.50113844540556	pulse	1.0	t		26.0	male	white	2.7966573816155993	neutral	117	sub-08	2.0	3.0	117_neutral	0.0		209.863204834749	
31.0	186.20114125265536	pulse	1.0	t		26.0	male	white	2.7966573816155993	neutral	117	sub-08	2.0	3.0	117_neutral	0.0		210.56320764199882	
31.0	186.90109938539354	pulse	1.0	t		26.0	male	white	2.7966573816155993	neutral	117	sub-08	2.0	3.0	117_neutral	0.0		211.263165774737	
31.0	187.60108076095185	pulse	1.0	t		26.0	male	white	2.7966573816155993	neutral	117	sub-08	2.0	3.0	117_neutral	0.0		211.9631471502953	
32.0	188.26761692572381	face	0.0		145	54.0	female	white	2.286908077994429	neutral	136	sub-08	2.0	3.0	136_neutral	0.0		212.62968331506727	1.2333247103470057
32.0	188.30108266263687	pulse	0.0	t		54.0	female	white	2.286908077994429	neutral	136	sub-08	2.0	3.0	136_neutral	0.0		212.66314905198033	
32.0	189.0010616233567	pulse	0.0	t		54.0	female	white	2.286908077994429	neutral	136	sub-08	2.0	3.0	136_neutral	0.0		213.36312801270014	
32.0	189.50094163607082	fix	1.0		443	54.0	female	white	2.286908077994429	neutral	136	sub-08	2.0	3.0	136_neutral	0.0		213.86300802541427	3.758230901420575
32.0	189.70105084714032	pulse	1.0	t		54.0	female	white	2.286908077994429	neutral	136	sub-08	2.0	3.0	136_neutral	0.0		214.06311723648378	
32.0	190.4010228651996	pulse	1.0	t		54.0	female	white	2.286908077994429	neutral	136	sub-08	2.0	3.0	136_neutral	0.0		214.76308925454305	
32.0	191.10101480567664	pulse	1.0	t		54.0	female	white	2.286908077994429	neutral	136	sub-08	2.0	3.0	136_neutral	0.0		215.4630811950201	
32.0	191.80100282204057	pulse	1.0	t		54.0	female	white	2.286908077994429	neutral	136	sub-08	2.0	3.0	136_neutral	0.0		216.16306921138403	
32.0	192.50098661243737	pulse	1.0	t		54.0	female	white	2.286908077994429	neutral	136	sub-08	2.0	3.0	136_neutral	0.0		216.86305300178083	
32.0	193.20096225275483	pulse	1.0	t		54.0	female	white	2.286908077994429	neutral	136	sub-08	2.0	3.0	136_neutral	0.0		217.5630286420983	
33.0	193.2591725374914	face	0.0		147	30.0	female	black	2.7345801830481498	smiling	062	sub-08	2.0	3.0	062_smiling	0.0		217.62123892683485	1.2416528844787535
33.0	193.90096113589152	pulse	0.0	t		30.0	female	black	2.7345801830481498	smiling	062	sub-08	2.0	3.0	062_smiling	0.0		218.26302752523497	
33.0	194.50082542197015	fix	1.0		443	30.0	female	black	2.7345801830481498	smiling	062	sub-08	2.0	3.0	062_smiling	0.0		218.8628918113136	3.7665838276461727
33.0	194.60102521966746	pulse	1.0	t		30.0	female	black	2.7345801830481498	smiling	062	sub-08	2.0	3.0	062_smiling	0.0		218.96309160901092	
33.0	195.3009308296687	pulse	1.0	t		30.0	female	black	2.7345801830481498	smiling	062	sub-08	2.0	3.0	062_smiling	0.0		219.66299721901214	
33.0	196.00090013103545	pulse	1.0	t		30.0	female	black	2.7345801830481498	smiling	062	sub-08	2.0	3.0	062_smiling	0.0		220.3629665203789	
33.0	196.7008972030435	pulse	1.0	t		30.0	female	black	2.7345801830481498	smiling	062	sub-08	2.0	3.0	062_smiling	0.0		221.06296359238695	
33.0	197.40088401198864	pulse	1.0	t		30.0	female	black	2.7345801830481498	smiling	062	sub-08	2.0	3.0	062_smiling	0.0		221.7629504013321	
33.0	198.1008711227887	pulse	1.0	t		30.0	female	black	2.7345801830481498	smiling	062	sub-08	2.0	3.0	062_smiling	0.0		222.46293751213216	
34.0	198.26740924961632	face	0.0		146	30.0	female	black	2.7345801830481498	neutral	062	sub-08	2.0	3.0	062_neutral	0.0		222.62947563895978	1.23332380478314
34.0	198.8008537057658	pulse	0.0	t		30.0	female	black	2.7345801830481498	neutral	062	sub-08	2.0	3.0	062_neutral	0.0		223.16292009510926	
34.0	199.50073305439946	fix	1.0		444	30.0	female	black	2.7345801830481498	neutral	062	sub-08	2.0	3.0	062_neutral	0.0		223.86279944374292	3.766574168292209
34.0	199.5084391057735	pulse	1.0	t		30.0	female	black	2.7345801830481498	neutral	062	sub-08	2.0	3.0	062_neutral	0.0		223.87050549511696	
34.0	200.20081585317348	pulse	1.0	t		30.0	female	black	2.7345801830481498	neutral	062	sub-08	2.0	3.0	062_neutral	0.0		224.56288224251693	
34.0	200.9008165474388	pulse	1.0	t		30.0	female	black	2.7345801830481498	neutral	062	sub-08	2.0	3.0	062_neutral	0.0		225.26288293678226	
34.0	201.60080094154546	pulse	1.0	t		30.0	female	black	2.7345801830481498	neutral	062	sub-08	2.0	3.0	062_neutral	0.0		225.9628673308889	
34.0	202.30078593936196	pulse	1.0	t		30.0	female	black	2.7345801830481498	neutral	062	sub-08	2.0	3.0	062_neutral	0.0		226.6628523287054	
34.0	203.0007703334677	pulse	1.0	t		30.0	female	black	2.7345801830481498	neutral	062	sub-08	2.0	3.0	062_neutral	0.0		227.36283672281115	
35.0	203.26730722269167	face	0.0		145	24.0	female	east_asian	2.9076800636689217	neutral	034	sub-08	2.0	3.0	034_neutral	0.0		227.62937361203512	1.2333120324456104
35.0	203.70075985910626	pulse	0.0	t		24.0	female	east_asian	2.9076800636689217	neutral	034	sub-08	2.0	3.0	034_neutral	0.0		228.0628262484497	
35.0	204.40073127345568	pulse	0.0	t		24.0	female	east_asian	2.9076800636689217	neutral	034	sub-08	2.0	3.0	034_neutral	0.0		228.76279766279913	
35.0	204.50061925513728	fix	1.0		444	24.0	female	east_asian	2.9076800636689217	neutral	034	sub-08	2.0	3.0	034_neutral	0.0		228.86268564448073	3.7665820165166224
35.0	205.1007177805459	pulse	1.0	t		24.0	female	east_asian	2.9076800636689217	neutral	034	sub-08	2.0	3.0	034_neutral	0.0		229.46278416988935	
35.0	205.80070308021732	pulse	1.0	t		24.0	female	east_asian	2.9076800636689217	neutral	034	sub-08	2.0	3.0	034_neutral	0.0		230.16276946956077	
35.0	206.50068717246904	pulse	1.0	t		24.0	female	east_asian	2.9076800636689217	neutral	034	sub-08	2.0	3.0	034_neutral	0.0		230.8627535618125	
35.0	207.200670359156	pulse	1.0	t		24.0	female	east_asian	2.9076800636689217	neutral	034	sub-08	2.0	3.0	034_neutral	0.0		231.56273674849945	
35.0	207.90066622374525	pulse	1.0	t		24.0	female	east_asian	2.9076800636689217	neutral	034	sub-08	2.0	3.0	034_neutral	0.0		232.2627326130887	
36.0	208.2672012716539	face	0.0		145	31.0	male	west_asian	1.9538400318344609	smiling	070	sub-08	2.0	3.0	070_smiling	0.0		232.62926766099736	1.2333126361554605
36.0	208.6006620883345	pulse	0.0	t		31.0	male	west_asian	1.9538400318344609	smiling	070	sub-08	2.0	3.0	070_smiling	0.0		232.96272847767796	
36.0	209.3006292767168	pulse	0.0	t		31.0	male	west_asian	1.9538400318344609	smiling	070	sub-08	2.0	3.0	070_smiling	0.0		233.66269566606024	
36.0	209.50051390780936	fix	1.0		444	31.0	male	west_asian	1.9538400318344609	smiling	070	sub-08	2.0	3.0	070_smiling	0.0		233.86258029715282	3.7665850350649634
36.0	210.00062997098303	pulse	1.0	t		31.0	male	west_asian	1.9538400318344609	smiling	070	sub-08	2.0	3.0	070_smiling	0.0		234.36269636032648	
36.0	210.70060410202586	pulse	1.0	t		31.0	male	west_asian	1.9538400318344609	smiling	070	sub-08	2.0	3.0	070_smiling	0.0		235.06267049136932	
36.0	211.4006123426616	pulse	1.0	t		31.0	male	west_asian	1.9538400318344609	smiling	070	sub-08	2.0	3.0	070_smiling	0.0		235.76267873200504	
36.0	212.10058315330207	pulse	1.0	t		31.0	male	west_asian	1.9538400318344609	smiling	070	sub-08	2.0	3.0	070_smiling	0.0		236.46264954264552	
36.0	212.8005699622472	pulse	1.0	t		31.0	male	west_asian	1.9538400318344609	smiling	070	sub-08	2.0	3.0	070_smiling	0.0		237.16263635159066	
37.0	213.26709894287433	face	0.0		145	28.0	male	east_asian	1.5563072025467568	neutral	005	sub-08	2.0	3.0	005_neutral	0.0		237.62916533221778	1.233323502928215
37.0	213.50055465820878	pulse	0.0	t		28.0	male	east_asian	1.5563072025467568	neutral	005	sub-08	2.0	3.0	005_neutral	0.0		237.86262104755224	
37.0	214.20053935416945	pulse	0.0	t		28.0	male	east_asian	1.5563072025467568	neutral	005	sub-08	2.0	3.0	005_neutral	0.0		238.5626057435129	
37.0	214.50042244580254	fix	1.0		444	28.0	male	east_asian	1.5563072025467568	neutral	005	sub-08	2.0	3.0	005_neutral	0.0		238.862488835146	3.7582737648026523
37.0	214.90052676682444	pulse	1.0	t		28.0	male	east_asian	1.5563072025467568	neutral	005	sub-08	2.0	3.0	005_neutral	0.0		239.2625931561679	
37.0	215.60050904794662	pulse	1.0	t		28.0	male	east_asian	1.5563072025467568	neutral	005	sub-08	2.0	3.0	005_neutral	0.0		239.96257543729007	
37.0	216.30048287713544	pulse	1.0	t		28.0	male	east_asian	1.5563072025467568	neutral	005	sub-08	2.0	3.0	005_neutral	0.0		240.6625492664789	
37.0	217.0004410098736	pulse	1.0	t		28.0	male	east_asian	1.5563072025467568	neutral	005	sub-08	2.0	3.0	005_neutral	0.0		241.36250739921707	
37.0	217.7004525709126	pulse	1.0	t		28.0	male	east_asian	1.5563072025467568	neutral	005	sub-08	2.0	3.0	005_neutral	0.0		242.06251896025606	
38.0	218.2586962106052	face	0.0		146	19.0	male	white	3.2522881018702745	smiling	018	sub-08	2.0	3.0	018_smiling	0.0		242.62076259994865	1.2416233027079215
38.0	218.40044360582488	pulse	0.0	t		19.0	male	white	3.2522881018702745	smiling	018	sub-08	2.0	3.0	018_smiling	0.0		242.76250999516833	
38.0	219.10042166097992	pulse	0.0	t		19.0	male	white	3.2522881018702745	smiling	018	sub-08	2.0	3.0	018_smiling	0.0		243.46248805032337	
38.0	219.50031951331312	fix	1.0		444	19.0	male	white	3.2522881018702745	smiling	018	sub-08	2.0	3.0	018_smiling	0.0		243.86238590265657	3.766570244180002
38.0	219.80042446822972	pulse	1.0	t		19.0	male	white	3.2522881018702745	smiling	018	sub-08	2.0	3.0	018_smiling	0.0		244.16249085757318	
38.0	220.50040856048145	pulse	1.0	t		19.0	male	white	3.2522881018702745	smiling	018	sub-08	2.0	3.0	018_smiling	0.0		244.8624749498249	
38.0	221.20038178596042	pulse	1.0	t		19.0	male	white	3.2522881018702745	smiling	018	sub-08	2.0	3.0	018_smiling	0.0		245.56244817530387	
38.0	221.90037885796846	pulse	1.0	t		19.0	male	white	3.2522881018702745	smiling	018	sub-08	2.0	3.0	018_smiling	0.0		246.26244524731192	
38.0	222.6003593279629	pulse	1.0	t		19.0	male	white	3.2522881018702745	smiling	018	sub-08	2.0	3.0	018_smiling	0.0		246.96242571730636	
39.0	223.26688975749312	face	0.0		145	22.0	female	white	4.614007162753682	neutral	009	sub-08	2.0	3.0	009_neutral	1.0	dominance	247.62895614683657	1.233323502928215
39.0	223.3003570036808	pulse	0.0	t		22.0	female	white	4.614007162753682	neutral	009	sub-08	2.0	3.0	009_neutral	1.0	dominance	247.66242339302426	
39.0	224.00034019036775	pulse	0.0	t		22.0	female	white	4.614007162753682	neutral	009	sub-08	2.0	3.0	009_neutral	1.0	dominance	248.3624065797112	
39.0	224.50021326042133	fix	1.0		177	22.0	female	white	4.614007162753682	neutral	009	sub-08	2.0	3.0	009_neutral	1.0	dominance	248.8622796497648	1.4999711728660259
39.0	224.70032609374812	pulse	1.0	t		22.0	female	white	4.614007162753682	neutral	009	sub-08	2.0	3.0	009_neutral	1.0	dominance	249.06239248309157	
39.0	225.4003071674515	pulse	1.0	t		22.0	female	white	4.614007162753682	neutral	009	sub-08	2.0	3.0	009_neutral	1.0	dominance	249.76237355679496	
39.0	226.00018443328736	rating	2.0		294	22.0	female	white	4.614007162753682	neutral	009	sub-08	2.0	3.0	009_neutral	1.0	dominance	250.3622508226308	2.4999379688370027
39.0	226.09511988314625	pulse	2.0	t		22.0	female	white	4.614007162753682	neutral	009	sub-08	2.0	3.0	009_neutral	1.0	dominance	250.4571862724897	
39.0	226.795037265485	pulse	2.0	t		22.0	female	white	4.614007162753682	neutral	009	sub-08	2.0	3.0	009_neutral	1.0	dominance	251.15710365482846	
39.0	227.49503131894562	pulse	2.0	t		22.0	female	white	4.614007162753682	neutral	009	sub-08	2.0	3.0	009_neutral	1.0	dominance	251.85709770828907	
39.0	227.52525724821317	response	2.0	y		22.0	female	white	4.614007162753682	neutral	009	sub-08	2.0	3.0	009_neutral	1.0	dominance	251.88732363755662	
39.0	228.20023538637906	pulse	2.0	t		22.0	female	white	4.614007162753682	neutral	009	sub-08	2.0	3.0	009_neutral	1.0	dominance	252.56230177572252	
39.0	228.50012240212436	fix	3.0		444	22.0	female	white	4.614007162753682	neutral	009	sub-08	2.0	3.0	009_neutral	1.0	dominance	252.86218879146782	3.749926875672827
39.0	228.9002258175815	pulse	3.0	t		22.0	female	white	4.614007162753682	neutral	009	sub-08	2.0	3.0	009_neutral	1.0	dominance	253.26229220692494	
39.0	229.60020749499472	pulse	3.0	t		22.0	female	white	4.614007162753682	neutral	009	sub-08	2.0	3.0	009_neutral	1.0	dominance	253.96227388433817	
39.0	230.30019309652016	pulse	3.0	t		22.0	female	white	4.614007162753682	neutral	009	sub-08	2.0	3.0	009_neutral	1.0	dominance	254.66225948586361	
39.0	231.00018775368972	pulse	3.0	t		22.0	female	white	4.614007162753682	neutral	009	sub-08	2.0	3.0	009_neutral	1.0	dominance	255.36225414303317	
39.0	231.70017939231184	pulse	3.0	t		22.0	female	white	4.614007162753682	neutral	009	sub-08	2.0	3.0	009_neutral	1.0	dominance	256.0622457816553	
40.0	232.2500492777972	fix	0.0		720													256.61211566714064	5.999867183884817
40.0	232.40016469198326	pulse	0.0	t														256.7622310813267	
40.0	233.10013671004253	pulse	0.0	t														257.462203099386	
40.0	233.80013559317922	pulse	0.0	t														258.1622019825227	
40.0	234.50010097043287	pulse	0.0	t														258.8621673597763	
40.0	235.20011343703663	pulse	0.0	t														259.5621798263801	
40.0	235.90007941800013	pulse	0.0	t														260.2621458073436	
40.0	236.600067736219	pulse	0.0	t														260.96213412556244	
40.0	237.30006269524347	pulse	0.0	t														261.6621290845869	
40.0	238.00003592072244	pulse	0.0	t														262.3621023100659	
