trial_nr	onset	event_type	phase	response	nr_frames	face_age	face_sex	face_eth	attractiveness	expression	face_id	sub_id	ses	run	trial_type	catch	rating_type	onset_abs	duration
-1.0	0.06161121275181358	fix	0.0		713													26.99788431242905	5.957861021452118
-1.0	0.7030789910022577	pulse	0.0	t														27.639352090679495	
-1.0	1.403051009230694	pulse	0.0	t														28.33932410890793	
-1.0	2.1030411386382184	pulse	0.0	t														29.039314238315455	
-1.0	2.8030191939260476	pulse	0.0	t														29.739292293603285	
-1.0	3.5030035881263757	pulse	0.0	t														30.439276687803613	
-1.0	4.202984963797462	pulse	0.0	t														31.1392580634747	
-1.0	4.902960604261352	pulse	0.0	t														31.83923370393859	
-1.0	5.602942583638651	pulse	0.0	t														32.53921568331589	
0.0	6.019472234203931	face	0.0		144	20.0	male	black	3.1070433744528456	smiling	082	sub-14	1.0	6.0	082_smiling	0.0		32.95574533388117	1.2333251128711709
0.0	6.302934826017008	pulse	0.0	t		20.0	male	black	3.1070433744528456	smiling	082	sub-14	1.0	6.0	082_smiling	0.0		33.239207925694245	
0.0	7.002902316449763	pulse	0.0	t		20.0	male	black	3.1070433744528456	smiling	082	sub-14	1.0	6.0	082_smiling	0.0		33.939175416127	
0.0	7.252797347075102	fix	1.0		445	20.0	male	black	3.1070433744528456	smiling	082	sub-14	1.0	6.0	082_smiling	0.0		34.18907044675234	3.758213947961849
0.0	7.702892144004181	pulse	1.0	t		20.0	male	black	3.1070433744528456	smiling	082	sub-14	1.0	6.0	082_smiling	0.0		34.63916524368142	
0.0	8.402866577056557	pulse	1.0	t		20.0	male	black	3.1070433744528456	smiling	082	sub-14	1.0	6.0	082_smiling	0.0		35.339139676733794	
0.0	9.102856102757869	pulse	1.0	t		20.0	male	black	3.1070433744528456	smiling	082	sub-14	1.0	6.0	082_smiling	0.0		36.039129202435106	
0.0	9.802827517281003	pulse	1.0	t		20.0	male	black	3.1070433744528456	smiling	082	sub-14	1.0	6.0	082_smiling	0.0		36.73910061695824	
0.0	10.50281583556989	pulse	1.0	t		20.0	male	black	3.1070433744528456	smiling	082	sub-14	1.0	6.0	082_smiling	0.0		37.43908893524713	
1.0	11.011011295036951	face	0.0		146	28.0	male	east_asian	1.5563072025467568	smiling	005	sub-14	1.0	6.0	005_smiling	0.0		37.94728439471419	1.2416411626054469
1.0	11.202805361271203	pulse	0.0	t		28.0	male	east_asian	1.5563072025467568	smiling	005	sub-14	1.0	6.0	005_smiling	0.0		38.13907846094844	
1.0	11.902751118290325	pulse	0.0	t		28.0	male	east_asian	1.5563072025467568	smiling	005	sub-14	1.0	6.0	005_smiling	0.0		38.83902421796756	
1.0	12.252652457642398	fix	1.0		444	28.0	male	east_asian	1.5563072025467568	smiling	005	sub-14	1.0	6.0	005_smiling	0.0		39.188925557319635	3.7582263239346503
1.0	12.602770527437315	pulse	1.0	t		28.0	male	east_asian	1.5563072025467568	smiling	005	sub-14	1.0	6.0	005_smiling	0.0		39.53904362711455	
1.0	13.302740130841812	pulse	1.0	t		28.0	male	east_asian	1.5563072025467568	smiling	005	sub-14	1.0	6.0	005_smiling	0.0		40.23901323051905	
1.0	14.002721506511989	pulse	1.0	t		28.0	male	east_asian	1.5563072025467568	smiling	005	sub-14	1.0	6.0	005_smiling	0.0		40.938994606189226	
1.0	14.702703485889288	pulse	1.0	t		28.0	male	east_asian	1.5563072025467568	smiling	005	sub-14	1.0	6.0	005_smiling	0.0		41.638976585566525	
1.0	15.402688181942722	pulse	1.0	t		28.0	male	east_asian	1.5563072025467568	smiling	005	sub-14	1.0	6.0	005_smiling	0.0		42.33896128161996	
2.0	16.01087878157705	face	0.0		146	36.0	female	white	2.7548746518105847	smiling	011	sub-14	1.0	6.0	011_smiling	1.0	trustworthiness	42.947151881254285	1.2416532367242326
2.0	16.102678311350246	pulse	0.0	t		36.0	female	white	2.7548746518105847	smiling	011	sub-14	1.0	6.0	011_smiling	1.0	trustworthiness	43.03895141102748	
2.0	16.802643085106865	pulse	0.0	t		36.0	female	white	2.7548746518105847	smiling	011	sub-14	1.0	6.0	011_smiling	1.0	trustworthiness	43.7389161847841	
2.0	17.25253201830128	fix	1.0		177	36.0	female	white	2.7548746518105847	smiling	011	sub-14	1.0	6.0	011_smiling	1.0	trustworthiness	44.18880511797852	1.5083137858364353
2.0	17.502634421925904	pulse	1.0	t		36.0	female	white	2.7548746518105847	smiling	011	sub-14	1.0	6.0	011_smiling	1.0	trustworthiness	44.43890752160314	
2.0	18.20260885497828	pulse	1.0	t		36.0	female	white	2.7548746518105847	smiling	011	sub-14	1.0	6.0	011_smiling	1.0	trustworthiness	45.13888195465552	
2.0	18.760845804137716	rating	2.0		293	36.0	female	white	2.7548746518105847	smiling	011	sub-14	1.0	6.0	011_smiling	1.0	trustworthiness	45.69711890381495	2.4915778489412332
2.0	18.902602606621258	pulse	2.0	t		36.0	female	white	2.7548746518105847	smiling	011	sub-14	1.0	6.0	011_smiling	1.0	trustworthiness	45.838875706298495	
2.0	19.602578247086058	pulse	2.0	t		36.0	female	white	2.7548746518105847	smiling	011	sub-14	1.0	6.0	011_smiling	1.0	trustworthiness	46.538851346763295	
2.0	20.16089669655139	response	2.0	y		36.0	female	white	2.7548746518105847	smiling	011	sub-14	1.0	6.0	011_smiling	1.0	trustworthiness	47.09716979622863	
2.0	20.30255841534472	pulse	2.0	t		36.0	female	white	2.7548746518105847	smiling	011	sub-14	1.0	6.0	011_smiling	1.0	trustworthiness	47.23883151502196	
2.0	21.002541602133533	pulse	2.0	t		36.0	female	white	2.7548746518105847	smiling	011	sub-14	1.0	6.0	011_smiling	1.0	trustworthiness	47.93881470181077	
2.0	21.25242365307895	fix	3.0		444	36.0	female	white	2.7548746518105847	smiling	011	sub-14	1.0	6.0	011_smiling	1.0	trustworthiness	48.18869675275619	3.7582193813168487
2.0	21.70252056297977	pulse	3.0	t		36.0	female	white	2.7548746518105847	smiling	011	sub-14	1.0	6.0	011_smiling	1.0	trustworthiness	48.63879366265701	
2.0	22.40249861826851	pulse	3.0	t		36.0	female	white	2.7548746518105847	smiling	011	sub-14	1.0	6.0	011_smiling	1.0	trustworthiness	49.33877171794575	
2.0	23.102479993938687	pulse	3.0	t		36.0	female	white	2.7548746518105847	smiling	011	sub-14	1.0	6.0	011_smiling	1.0	trustworthiness	50.038753093615924	
2.0	23.802458351079622	pulse	3.0	t		36.0	female	white	2.7548746518105847	smiling	011	sub-14	1.0	6.0	011_smiling	1.0	trustworthiness	50.73873145075686	
2.0	24.50244365083927	pulse	3.0	t		36.0	female	white	2.7548746518105847	smiling	011	sub-14	1.0	6.0	011_smiling	1.0	trustworthiness	51.438716750516505	
3.0	25.010643034395798	face	0.0		146	20.0	female	white	3.9502586549940313	smiling	091	sub-14	1.0	6.0	091_smiling	0.0		51.946916134073035	1.2416484070763545
3.0	25.20243227098217	pulse	0.0	t		20.0	female	white	3.9502586549940313	smiling	091	sub-14	1.0	6.0	091_smiling	0.0		52.13870537065941	
3.0	25.902407609592956	pulse	0.0	t		20.0	female	white	3.9502586549940313	smiling	091	sub-14	1.0	6.0	091_smiling	0.0		52.83868070927019	
3.0	26.252291441472153	fix	1.0		444	20.0	female	white	3.9502586549940313	smiling	091	sub-14	1.0	6.0	091_smiling	0.0		53.18856454114939	3.7582151553742733
3.0	26.60239381491192	pulse	1.0	t		20.0	female	white	3.9502586549940313	smiling	091	sub-14	1.0	6.0	091_smiling	0.0		53.53866691458916	
3.0	27.302367644258084	pulse	1.0	t		20.0	female	white	3.9502586549940313	smiling	091	sub-14	1.0	6.0	091_smiling	0.0		54.23864074393532	
3.0	28.002353547723942	pulse	1.0	t		20.0	female	white	3.9502586549940313	smiling	091	sub-14	1.0	6.0	091_smiling	0.0		54.93862664740118	
3.0	28.70230443624314	pulse	1.0	t		20.0	female	white	3.9502586549940313	smiling	091	sub-14	1.0	6.0	091_smiling	0.0		55.638577535920376	
3.0	29.402308752740282	pulse	1.0	t		20.0	female	white	3.9502586549940313	smiling	091	sub-14	1.0	6.0	091_smiling	0.0		56.33858185241752	
4.0	30.010506596846426	face	0.0		146	40.0	male	black	2.408674890569041	smiling	061	sub-14	1.0	6.0	061_smiling	0.0		56.94677969652366	1.2416538404304447
4.0	30.102304617355003	pulse	0.0	t		40.0	male	black	2.408674890569041	smiling	061	sub-14	1.0	6.0	061_smiling	0.0		57.03857771703224	
4.0	30.802277239288742	pulse	0.0	t		40.0	male	black	2.408674890569041	smiling	061	sub-14	1.0	6.0	061_smiling	0.0		57.73855033896598	
4.0	31.25216043727687	fix	1.0		444	40.0	male	black	2.408674890569041	smiling	061	sub-14	1.0	6.0	061_smiling	0.0		58.18843353695411	3.766555051493924
4.0	31.502263444607706	pulse	1.0	t		40.0	male	black	2.408674890569041	smiling	061	sub-14	1.0	6.0	061_smiling	0.0		58.43853654428494	
4.0	32.20224089618932	pulse	1.0	t		40.0	male	black	2.408674890569041	smiling	061	sub-14	1.0	6.0	061_smiling	0.0		59.13851399586656	
4.0	32.902218649624956	pulse	1.0	t		40.0	male	black	2.408674890569041	smiling	061	sub-14	1.0	6.0	061_smiling	0.0		59.83849174930219	
4.0	33.6022102882971	pulse	1.0	t		40.0	male	black	2.408674890569041	smiling	061	sub-14	1.0	6.0	061_smiling	0.0		60.53848338797434	
4.0	34.302194984350535	pulse	1.0	t		40.0	male	black	2.408674890569041	smiling	061	sub-14	1.0	6.0	061_smiling	0.0		61.23846808402777	
5.0	35.018715488770795	face	0.0		146	24.0	female	east_asian	2.9076800636689217	smiling	034	sub-14	1.0	6.0	034_smiling	0.0		61.95498858844803	1.2333121331921575
5.0	35.004753882659315	pulse	0.0	t		24.0	female	east_asian	2.9076800636689217	smiling	034	sub-14	1.0	6.0	034_smiling	0.0		61.94102698233655	
5.0	35.70215984866354	pulse	0.0	t		24.0	female	east_asian	2.9076800636689217	smiling	034	sub-14	1.0	6.0	034_smiling	0.0		62.63843294834078	
5.0	36.25202762196295	fix	1.0		443	24.0	female	east_asian	2.9076800636689217	smiling	034	sub-14	1.0	6.0	034_smiling	0.0		63.18830072164019	3.7665339217855944
5.0	36.40213609283364	pulse	1.0	t		24.0	female	east_asian	2.9076800636689217	smiling	034	sub-14	1.0	6.0	034_smiling	0.0		63.33840919251088	
5.0	37.10212320371102	pulse	1.0	t		24.0	female	east_asian	2.9076800636689217	smiling	034	sub-14	1.0	6.0	034_smiling	0.0		64.03839630338825	
5.0	37.80208827932074	pulse	1.0	t		24.0	female	east_asian	2.9076800636689217	smiling	034	sub-14	1.0	6.0	034_smiling	0.0		64.73836137899798	
5.0	38.50207418278569	pulse	1.0	t		24.0	female	east_asian	2.9076800636689217	smiling	034	sub-14	1.0	6.0	034_smiling	0.0		65.43834728246293	
5.0	39.202054954750565	pulse	1.0	t		24.0	female	east_asian	2.9076800636689217	smiling	034	sub-14	1.0	6.0	034_smiling	0.0		66.1383280544278	
5.0	39.90203421745082	pulse	1.0	t		24.0	female	east_asian	2.9076800636689217	smiling	034	sub-14	1.0	6.0	034_smiling	0.0		66.83830731712806	
6.0	40.01856154374855	face	0.0		146	31.0	female	east_asian	3.395941106247513	neutral	087	sub-14	1.0	6.0	087_neutral	0.0		66.95483464342578	1.2333335647545027
6.0	40.602021932034404	pulse	0.0	t		31.0	female	east_asian	3.395941106247513	neutral	087	sub-14	1.0	6.0	087_neutral	0.0		67.53829503171164	
6.0	41.25189510850305	fix	1.0		443	31.0	female	east_asian	3.395941106247513	neutral	087	sub-14	1.0	6.0	087_neutral	0.0		68.18816820818029	3.758215759079576
6.0	41.30200934476488	pulse	1.0	t		31.0	female	east_asian	3.395941106247513	neutral	087	sub-14	1.0	6.0	087_neutral	0.0		68.23828244444212	
6.0	42.0019798537287	pulse	1.0	t		31.0	female	east_asian	3.395941106247513	neutral	087	sub-14	1.0	6.0	087_neutral	0.0		68.93825295340594	
6.0	42.70196153125198	pulse	1.0	t		31.0	female	east_asian	3.395941106247513	neutral	087	sub-14	1.0	6.0	087_neutral	0.0		69.63823463092922	
6.0	43.401940793952235	pulse	1.0	t		31.0	female	east_asian	3.395941106247513	neutral	087	sub-14	1.0	6.0	087_neutral	0.0		70.33821389362947	
6.0	44.10193545115453	pulse	1.0	t		31.0	female	east_asian	3.395941106247513	neutral	087	sub-14	1.0	6.0	087_neutral	0.0		71.03820855083177	
6.0	44.80190052676426	pulse	1.0	t		31.0	female	east_asian	3.395941106247513	neutral	087	sub-14	1.0	6.0	087_neutral	0.0		71.7381736264415	
7.0	45.010110867582625	face	0.0		146	31.0	male	west_asian	1.9538400318344609	neutral	070	sub-14	1.0	6.0	070_neutral	0.0		71.94638396725986	1.2416354273982506
7.0	45.501896693231174	pulse	0.0	t		31.0	male	west_asian	1.9538400318344609	neutral	070	sub-14	1.0	6.0	070_neutral	0.0		72.43816979290841	
7.0	46.20185060028052	pulse	0.0	t		31.0	male	west_asian	1.9538400318344609	neutral	070	sub-14	1.0	6.0	070_neutral	0.0		73.13812369995776	
7.0	46.251746294980876	fix	1.0		445	31.0	male	west_asian	1.9538400318344609	neutral	070	sub-14	1.0	6.0	070_neutral	0.0		73.18801939465811	3.7665638052312715
7.0	46.90185763345471	pulse	1.0	t		31.0	male	west_asian	1.9538400318344609	neutral	070	sub-14	1.0	6.0	070_neutral	0.0		73.83813073313195	
7.0	47.60183629244875	pulse	1.0	t		31.0	male	west_asian	1.9538400318344609	neutral	070	sub-14	1.0	6.0	070_neutral	0.0		74.53810939212599	
7.0	48.301810121794915	pulse	1.0	t		31.0	male	west_asian	1.9538400318344609	neutral	070	sub-14	1.0	6.0	070_neutral	0.0		75.23808322147215	
7.0	49.001804477144105	pulse	1.0	t		31.0	male	west_asian	1.9538400318344609	neutral	070	sub-14	1.0	6.0	070_neutral	0.0		75.93807757682134	
7.0	49.70178856949133	pulse	1.0	t		31.0	male	west_asian	1.9538400318344609	neutral	070	sub-14	1.0	6.0	070_neutral	0.0		76.63806166916856	
8.0	50.01831010021215	face	0.0		145	34.0	male	white	2.651014723438122	neutral	121	sub-14	1.0	6.0	121_neutral	0.0		76.95458319988938	1.2333208869285954
8.0	50.40176149327908	pulse	0.0	t		34.0	male	white	2.651014723438122	neutral	121	sub-14	1.0	6.0	121_neutral	0.0		77.33803459295632	
8.0	51.10174105783153	pulse	0.0	t		34.0	male	white	2.651014723438122	neutral	121	sub-14	1.0	6.0	121_neutral	0.0		78.03801415750877	
8.0	51.25163098714074	fix	1.0		444	34.0	male	white	2.651014723438122	neutral	121	sub-14	1.0	6.0	121_neutral	0.0		78.18790408681798	3.7665478070230165
8.0	51.80172484832656	pulse	1.0	t		34.0	male	white	2.651014723438122	neutral	121	sub-14	1.0	6.0	121_neutral	0.0		78.7379979480038	
8.0	52.501699885085145	pulse	1.0	t		34.0	male	white	2.651014723438122	neutral	121	sub-14	1.0	6.0	121_neutral	0.0		79.43797298476238	
8.0	53.2016797514907	pulse	1.0	t		34.0	male	white	2.651014723438122	neutral	121	sub-14	1.0	6.0	121_neutral	0.0		80.13795285116794	
8.0	53.90167199386906	pulse	1.0	t		34.0	male	white	2.651014723438122	neutral	121	sub-14	1.0	6.0	121_neutral	0.0		80.8379450935463	
8.0	54.60165155842151	pulse	1.0	t		34.0	male	white	2.651014723438122	neutral	121	sub-14	1.0	6.0	121_neutral	0.0		81.53792465809875	
9.0	55.01817879416376	face	0.0		145	20.0	male	black	2.609629924393156	smiling	043	sub-14	1.0	6.0	043_smiling	0.0		81.954451893841	1.2333178683993538
9.0	55.30163776374047	pulse	0.0	t		20.0	male	black	2.609629924393156	smiling	043	sub-14	1.0	6.0	043_smiling	0.0		82.23791086341771	
9.0	56.00161521532209	pulse	0.0	t		20.0	male	black	2.609629924393156	smiling	043	sub-14	1.0	6.0	043_smiling	0.0		82.93788831499933	
9.0	56.25149666256311	fix	1.0		444	20.0	male	black	2.609629924393156	smiling	043	sub-14	1.0	6.0	043_smiling	0.0		83.18776976224035	3.7665339217855944
9.0	56.70159568543477	pulse	1.0	t		20.0	male	black	2.609629924393156	smiling	043	sub-14	1.0	6.0	043_smiling	0.0		83.637868785112	
9.0	57.401570118486234	pulse	1.0	t		20.0	male	black	2.609629924393156	smiling	043	sub-14	1.0	6.0	043_smiling	0.0		84.33784321816347	
9.0	58.101550286745805	pulse	1.0	t		20.0	male	black	2.609629924393156	smiling	043	sub-14	1.0	6.0	043_smiling	0.0		85.03782338642304	
9.0	58.80152471979727	pulse	1.0	t		20.0	male	black	2.609629924393156	smiling	043	sub-14	1.0	6.0	043_smiling	0.0		85.73779781947451	
9.0	59.50152058441199	pulse	1.0	t		20.0	male	black	2.609629924393156	smiling	043	sub-14	1.0	6.0	043_smiling	0.0		86.43779368408923	
10.0	60.01803058434871	face	0.0		145	54.0	female	white	2.286908077994429	neutral	136	sub-14	1.0	6.0	136_neutral	0.0		86.95430368402594	1.2333414129316225
10.0	60.20150316749459	pulse	0.0	t		54.0	female	white	2.286908077994429	neutral	136	sub-14	1.0	6.0	136_neutral	0.0		87.13777626717183	
10.0	60.9014797135178	pulse	0.0	t		54.0	female	white	2.286908077994429	neutral	136	sub-14	1.0	6.0	136_neutral	0.0		87.83775281319504	
10.0	61.25137199728033	fix	1.0		444	54.0	female	white	2.286908077994429	neutral	136	sub-14	1.0	6.0	136_neutral	0.0		88.18764509695757	3.766543882933547
10.0	61.60146501327745	pulse	1.0	t		54.0	female	white	2.286908077994429	neutral	136	sub-14	1.0	6.0	136_neutral	0.0		88.53773811295468	
10.0	62.30144125744755	pulse	1.0	t		54.0	female	white	2.286908077994429	neutral	136	sub-14	1.0	6.0	136_neutral	0.0		89.23771435712479	
10.0	63.00138822187819	pulse	1.0	t		54.0	female	white	2.286908077994429	neutral	136	sub-14	1.0	6.0	136_neutral	0.0		89.93766132155542	
10.0	63.7014034050826	pulse	1.0	t		54.0	female	white	2.286908077994429	neutral	136	sub-14	1.0	6.0	136_neutral	0.0		90.63767650475984	
10.0	64.40138930854846	pulse	1.0	t		54.0	female	white	2.286908077994429	neutral	136	sub-14	1.0	6.0	136_neutral	0.0		91.3376624082257	
11.0	65.01791588021388	face	0.0		145	24.0	female	black	3.0955033824114606	neutral	099	sub-14	1.0	6.0	099_neutral	0.0		91.95418897989111	1.2333175665462477
11.0	65.10138939910485	pulse	0.0	t		24.0	female	black	3.0955033824114606	neutral	099	sub-14	1.0	6.0	099_neutral	0.0		92.03766249878208	
11.0	65.80135387100836	pulse	0.0	t		24.0	female	black	3.0955033824114606	neutral	099	sub-14	1.0	6.0	099_neutral	0.0		92.7376269706856	
11.0	66.25123344676012	fix	1.0		444	24.0	female	black	3.0955033824114606	neutral	099	sub-14	1.0	6.0	099_neutral	0.0		93.18750654643736	3.7665453921990775
11.0	66.50134611338672	pulse	1.0	t		24.0	female	black	3.0955033824114606	neutral	099	sub-14	1.0	6.0	099_neutral	0.0		93.43761921306395	
11.0	67.20131330196728	pulse	1.0	t		24.0	female	black	3.0955033824114606	neutral	099	sub-14	1.0	6.0	099_neutral	0.0		94.13758640164451	
11.0	67.90129226281351	pulse	1.0	t		24.0	female	black	3.0955033824114606	neutral	099	sub-14	1.0	6.0	099_neutral	0.0		94.83756536249075	
11.0	68.60127001624915	pulse	1.0	t		24.0	female	black	3.0955033824114606	neutral	099	sub-14	1.0	6.0	099_neutral	0.0		95.53754311592638	
11.0	69.30125833453803	pulse	1.0	t		24.0	female	black	3.0955033824114606	neutral	099	sub-14	1.0	6.0	099_neutral	0.0		96.23753143421527	
12.0	70.0177788389592	face	0.0		146	47.0	male	east_asian	2.171110226820533	smiling	024	sub-14	1.0	6.0	024_smiling	0.0		96.95405193863644	1.2333205850754894
12.0	70.00386492561938	pulse	0.0	t		47.0	male	east_asian	2.171110226820533	smiling	024	sub-14	1.0	6.0	024_smiling	0.0		96.94013802529662	
12.0	70.70122410441036	pulse	0.0	t		47.0	male	east_asian	2.171110226820533	smiling	024	sub-14	1.0	6.0	024_smiling	0.0		97.6374972040876	
12.0	71.25109942403469	fix	1.0		443	47.0	male	east_asian	2.171110226820533	smiling	024	sub-14	1.0	6.0	024_smiling	0.0		98.18737252371193	3.766544184786653
12.0	71.40120668749296	pulse	1.0	t		47.0	male	east_asian	2.171110226820533	smiling	024	sub-14	1.0	6.0	024_smiling	0.0		98.3374797871702	
12.0	72.10118866686935	pulse	1.0	t		47.0	male	east_asian	2.171110226820533	smiling	024	sub-14	1.0	6.0	024_smiling	0.0		99.03746176654658	
12.0	72.80115796842074	pulse	1.0	t		47.0	male	east_asian	2.171110226820533	smiling	024	sub-14	1.0	6.0	024_smiling	0.0		99.73743106809798	
12.0	73.50114145706266	pulse	1.0	t		47.0	male	east_asian	2.171110226820533	smiling	024	sub-14	1.0	6.0	024_smiling	0.0		100.4374145567399	
12.0	74.20112524755768	pulse	1.0	t		47.0	male	east_asian	2.171110226820533	smiling	024	sub-14	1.0	6.0	024_smiling	0.0		101.13739834723492	
12.0	74.90110179358089	pulse	1.0	t		47.0	male	east_asian	2.171110226820533	smiling	024	sub-14	1.0	6.0	024_smiling	0.0		101.83737489325813	
13.0	75.01764360882134	face	0.0		146	19.0	male	white	3.2522881018702745	neutral	018	sub-14	1.0	6.0	018_neutral	0.0		101.95391670849858	1.2333211887817015
13.0	75.60109494151766	pulse	0.0	t		19.0	male	white	3.2522881018702745	neutral	018	sub-14	1.0	6.0	018_neutral	0.0		102.5373680411949	
13.0	76.25096479760305	fix	1.0		443	19.0	male	white	3.2522881018702745	neutral	018	sub-14	1.0	6.0	018_neutral	0.0		103.18723789728028	3.7583355947153905
13.0	76.3010732986586	pulse	1.0	t		19.0	male	white	3.2522881018702745	neutral	018	sub-14	1.0	6.0	018_neutral	0.0		103.23734639833583	
13.0	77.00105557988809	pulse	1.0	t		19.0	male	white	3.2522881018702745	neutral	018	sub-14	1.0	6.0	018_neutral	0.0		103.93732867956533	
13.0	77.70102729626342	pulse	1.0	t		19.0	male	white	3.2522881018702745	neutral	018	sub-14	1.0	6.0	018_neutral	0.0		104.63730039594066	
13.0	78.40100957749382	pulse	1.0	t		19.0	male	white	3.2522881018702745	neutral	018	sub-14	1.0	6.0	018_neutral	0.0		105.33728267717106	
13.0	79.1009966883712	pulse	1.0	t		19.0	male	white	3.2522881018702745	neutral	018	sub-14	1.0	6.0	018_neutral	0.0		106.03726978804843	
13.0	79.80096508436327	pulse	1.0	t		19.0	male	white	3.2522881018702745	neutral	018	sub-14	1.0	6.0	018_neutral	0.0		106.7372381840405	
14.0	80.00930039231844	face	0.0		146	25.0	female	west_asian	2.6756864305610826	smiling	064	sub-14	1.0	6.0	064_smiling	0.0		106.94557349199567	1.2415415511195533
14.0	80.5009612508311	pulse	0.0	t		25.0	female	west_asian	2.6756864305610826	smiling	064	sub-14	1.0	6.0	064_smiling	0.0		107.43723435050833	
14.0	81.2009447394721	pulse	0.0	t		25.0	female	west_asian	2.6756864305610826	smiling	064	sub-14	1.0	6.0	064_smiling	0.0		108.13721783914934	
14.0	81.25084194343799	fix	1.0		444	25.0	female	west_asian	2.6756864305610826	smiling	064	sub-14	1.0	6.0	064_smiling	0.0		108.18711504311523	3.7665432792282445
14.0	81.90093154849728	pulse	1.0	t		25.0	female	west_asian	2.6756864305610826	smiling	064	sub-14	1.0	6.0	064_smiling	0.0		108.83720464817452	
14.0	82.60090145375398	pulse	1.0	t		25.0	female	west_asian	2.6756864305610826	smiling	064	sub-14	1.0	6.0	064_smiling	0.0		109.53717455343121	
14.0	83.30088192386665	pulse	1.0	t		25.0	female	west_asian	2.6756864305610826	smiling	064	sub-14	1.0	6.0	064_smiling	0.0		110.23715502354389	
14.0	84.0008678273316	pulse	1.0	t		25.0	female	west_asian	2.6756864305610826	smiling	064	sub-14	1.0	6.0	064_smiling	0.0		110.93714092700884	
14.0	84.70084739188496	pulse	1.0	t		25.0	female	west_asian	2.6756864305610826	smiling	064	sub-14	1.0	6.0	064_smiling	0.0		111.6371204915622	
15.0	85.01738522266623	face	0.0		145	28.0	female	white	5.676880222841227	smiling	124	sub-14	1.0	6.0	124_smiling	1.0	dominance	111.95365832234347	1.2333175665462477
15.0	85.40083480461544	pulse	0.0	t		28.0	female	white	5.676880222841227	smiling	124	sub-14	1.0	6.0	124_smiling	1.0	dominance	112.33710790429268	
15.0	86.10081135063865	pulse	0.0	t		28.0	female	white	5.676880222841227	smiling	124	sub-14	1.0	6.0	124_smiling	1.0	dominance	113.03708445031589	
15.0	86.25070278921248	fix	1.0		177	28.0	female	white	5.676880222841227	smiling	124	sub-14	1.0	6.0	124_smiling	1.0	dominance	113.18697588888972	1.4999609100386806
15.0	86.80079514113277	pulse	1.0	t		28.0	female	white	5.676880222841227	smiling	124	sub-14	1.0	6.0	124_smiling	1.0	dominance	113.73706824081	
15.0	87.50075236856537	pulse	1.0	t		28.0	female	white	5.676880222841227	smiling	124	sub-14	1.0	6.0	124_smiling	1.0	dominance	114.43702546824261	
15.0	87.75066369925116	rating	2.0		296	28.0	female	white	5.676880222841227	smiling	124	sub-14	1.0	6.0	124_smiling	1.0	dominance	114.6869367989284	2.4999307247398974
15.0	88.20076664621138	pulse	2.0	t		28.0	female	white	5.676880222841227	smiling	124	sub-14	1.0	6.0	124_smiling	1.0	dominance	115.13703974588861	
15.0	88.90073926814603	pulse	2.0	t		28.0	female	white	5.676880222841227	smiling	124	sub-14	1.0	6.0	124_smiling	1.0	dominance	115.83701236782326	
15.0	89.6007263790234	pulse	2.0	t		28.0	female	white	5.676880222841227	smiling	124	sub-14	1.0	6.0	124_smiling	1.0	dominance	116.53699947870064	
15.0	90.25059442399106	fix	3.0		442	28.0	female	white	5.676880222841227	smiling	124	sub-14	1.0	6.0	124_smiling	1.0	dominance	117.1868675236683	3.7665493162876373
15.0	90.3006962842801	pulse	3.0	t		28.0	female	white	5.676880222841227	smiling	124	sub-14	1.0	6.0	124_smiling	1.0	dominance	117.23696938395733	
15.0	90.57568827763043	response	3.0	b		28.0	female	white	5.676880222841227	smiling	124	sub-14	1.0	6.0	124_smiling	1.0	dominance	117.51196137730767	
15.0	91.00067977292201	pulse	3.0	t		28.0	female	white	5.676880222841227	smiling	124	sub-14	1.0	6.0	124_smiling	1.0	dominance	117.93695287259925	
15.0	91.70065692265143	pulse	3.0	t		28.0	female	white	5.676880222841227	smiling	124	sub-14	1.0	6.0	124_smiling	1.0	dominance	118.63693002232867	
15.0	92.40064312796949	pulse	3.0	t		28.0	female	white	5.676880222841227	smiling	124	sub-14	1.0	6.0	124_smiling	1.0	dominance	119.33691622764673	
15.0	93.10062540919989	pulse	3.0	t		28.0	female	white	5.676880222841227	smiling	124	sub-14	1.0	6.0	124_smiling	1.0	dominance	120.03689850887713	
15.0	93.80060346448772	pulse	3.0	t		28.0	female	white	5.676880222841227	smiling	124	sub-14	1.0	6.0	124_smiling	1.0	dominance	120.73687656416496	
16.0	94.0171437402787	face	0.0		145	24.0	male	white	3.1153999204138483	smiling	012	sub-14	1.0	6.0	012_smiling	1.0	attractiveness	120.95341683995593	1.2333214906348076
16.0	94.50059480130676	pulse	0.0	t		24.0	male	white	3.1153999204138483	smiling	012	sub-14	1.0	6.0	012_smiling	1.0	attractiveness	121.436867900984	
16.0	95.20056893250603	pulse	0.0	t		24.0	male	white	3.1153999204138483	smiling	012	sub-14	1.0	6.0	012_smiling	1.0	attractiveness	122.13684203218327	
16.0	95.2504652309135	fix	1.0		177	24.0	male	white	3.1153999204138483	smiling	012	sub-14	1.0	6.0	012_smiling	1.0	attractiveness	122.18673833059074	1.4999618155970893
16.0	95.900555137825	pulse	1.0	t		24.0	male	white	3.1153999204138483	smiling	012	sub-14	1.0	6.0	012_smiling	1.0	attractiveness	122.83682823750223	
16.0	96.60052896717116	pulse	1.0	t		24.0	male	white	3.1153999204138483	smiling	012	sub-14	1.0	6.0	012_smiling	1.0	attractiveness	123.5368020668484	
16.0	96.7504270465106	rating	2.0		295	24.0	male	white	3.1153999204138483	smiling	012	sub-14	1.0	6.0	012_smiling	1.0	attractiveness	123.68670014618783	2.4999295173283826
16.0	97.30048619460285	pulse	2.0	t		24.0	male	white	3.1153999204138483	smiling	012	sub-14	1.0	6.0	012_smiling	1.0	attractiveness	124.23675929428009	
16.0	98.00049171851242	pulse	2.0	t		24.0	male	white	3.1153999204138483	smiling	012	sub-14	1.0	6.0	012_smiling	1.0	attractiveness	124.93676481818966	
16.0	98.5368660596805	response	2.0	y		24.0	male	white	3.1153999204138483	smiling	012	sub-14	1.0	6.0	012_smiling	1.0	attractiveness	125.47313915935774	
16.0	98.70047098121267	pulse	2.0	t		24.0	male	white	3.1153999204138483	smiling	012	sub-14	1.0	6.0	012_smiling	1.0	attractiveness	125.63674408088991	
16.0	99.25035656383898	fix	3.0		443	24.0	male	white	3.1153999204138483	smiling	012	sub-14	1.0	6.0	012_smiling	1.0	attractiveness	126.18662966351621	3.7665493162876373
16.0	99.40046503470876	pulse	3.0	t		24.0	male	white	3.1153999204138483	smiling	012	sub-14	1.0	6.0	012_smiling	1.0	attractiveness	126.336738134386	
16.0	100.10044671223295	pulse	3.0	t		24.0	male	white	3.1153999204138483	smiling	012	sub-14	1.0	6.0	012_smiling	1.0	attractiveness	127.03671981191019	
16.0	100.80042023972601	pulse	3.0	t		24.0	male	white	3.1153999204138483	smiling	012	sub-14	1.0	6.0	012_smiling	1.0	attractiveness	127.73669333940325	
16.0	101.50039920057316	pulse	3.0	t		24.0	male	white	3.1153999204138483	smiling	012	sub-14	1.0	6.0	012_smiling	1.0	attractiveness	128.4366723002504	
16.0	102.2003845003328	pulse	3.0	t		24.0	male	white	3.1153999204138483	smiling	012	sub-14	1.0	6.0	012_smiling	1.0	attractiveness	129.13665760001004	
16.0	102.90035923523737	pulse	3.0	t		24.0	male	white	3.1153999204138483	smiling	012	sub-14	1.0	6.0	012_smiling	1.0	attractiveness	129.8366323349146	
17.0	103.01690588012661	face	0.0		146	31.0	female	white	2.1822522881018704	smiling	102	sub-14	1.0	6.0	102_smiling	0.0		129.95317897980385	1.2333202832223833
17.0	103.60035238317505	pulse	0.0	t		31.0	female	white	2.1822522881018704	smiling	102	sub-14	1.0	6.0	102_smiling	0.0		130.5366254828523	
17.0	104.250226163349	fix	1.0		443	31.0	female	white	2.1822522881018704	smiling	102	sub-14	1.0	6.0	102_smiling	0.0		131.18649926302623	3.7582030812554876
17.0	104.30036213302628	pulse	1.0	t		31.0	female	white	2.1822522881018704	smiling	102	sub-14	1.0	6.0	102_smiling	0.0		131.23663523270352	
17.0	105.0003139271048	pulse	1.0	t		31.0	female	white	2.1822522881018704	smiling	102	sub-14	1.0	6.0	102_smiling	0.0		131.93658702678204	
17.0	105.70029439721657	pulse	1.0	t		31.0	female	white	2.1822522881018704	smiling	102	sub-14	1.0	6.0	102_smiling	0.0		132.6365674968938	
17.0	106.40027154694508	pulse	1.0	t		31.0	female	white	2.1822522881018704	smiling	102	sub-14	1.0	6.0	102_smiling	0.0		133.33654464662231	
17.0	107.10025382817548	pulse	1.0	t		31.0	female	white	2.1822522881018704	smiling	102	sub-14	1.0	6.0	102_smiling	0.0		134.03652692785272	
17.0	107.80023671311119	pulse	1.0	t		31.0	female	white	2.1822522881018704	smiling	102	sub-14	1.0	6.0	102_smiling	0.0		134.73650981278843	
18.0	108.00842924460449	face	0.0		146	28.0	female	white	5.676880222841227	neutral	124	sub-14	1.0	6.0	124_neutral	0.0		134.94470234428172	1.2416622923137766
18.0	108.50022080545841	pulse	0.0	t		28.0	female	white	5.676880222841227	neutral	124	sub-14	1.0	6.0	124_neutral	0.0		135.43649390513565	
18.0	109.20020338854101	pulse	0.0	t		28.0	female	white	5.676880222841227	neutral	124	sub-14	1.0	6.0	124_neutral	0.0		136.13647648821825	
18.0	109.25009153691826	fix	1.0		444	28.0	female	white	5.676880222841227	neutral	124	sub-14	1.0	6.0	124_neutral	0.0		136.1863646365955	3.7583078242405463
18.0	109.90018778274225	pulse	1.0	t		28.0	female	white	5.676880222841227	neutral	124	sub-14	1.0	6.0	124_neutral	0.0		136.8364608824195	
18.0	110.60016191394152	pulse	1.0	t		28.0	female	white	5.676880222841227	neutral	124	sub-14	1.0	6.0	124_neutral	0.0		137.53643501361876	
18.0	111.30014781740738	pulse	1.0	t		28.0	female	white	5.676880222841227	neutral	124	sub-14	1.0	6.0	124_neutral	0.0		138.23642091708462	
18.0	112.00012255231195	pulse	1.0	t		28.0	female	white	5.676880222841227	neutral	124	sub-14	1.0	6.0	124_neutral	0.0		138.9363956519892	
18.0	112.7001018150122	pulse	1.0	t		28.0	female	white	5.676880222841227	neutral	124	sub-14	1.0	6.0	124_neutral	0.0		139.63637491468944	
19.0	113.00839936115881	face	0.0		146	37.0	male	white	3.898925586947871	neutral	101	sub-14	1.0	6.0	101_neutral	0.0		139.94467246083605	1.2415451733550071
19.0	113.40009134071352	pulse	0.0	t		37.0	male	white	3.898925586947871	neutral	101	sub-14	1.0	6.0	101_neutral	0.0		140.33636444039075	
19.0	114.10006969785445	pulse	0.0	t		37.0	male	white	3.898925586947871	neutral	101	sub-14	1.0	6.0	101_neutral	0.0		141.0363427975317	
19.0	114.24994453451382	fix	1.0		444	37.0	male	white	3.898925586947871	neutral	101	sub-14	1.0	6.0	101_neutral	0.0		141.18621763419105	3.766565012643696
19.0	114.80005409205478	pulse	1.0	t		37.0	male	white	3.898925586947871	neutral	101	sub-14	1.0	6.0	101_neutral	0.0		141.73632719173202	
19.0	115.50004512702162	pulse	1.0	t		37.0	male	white	3.898925586947871	neutral	101	sub-14	1.0	6.0	101_neutral	0.0		142.43631822669886	
19.0	116.20001503227923	pulse	1.0	t		37.0	male	white	3.898925586947871	neutral	101	sub-14	1.0	6.0	101_neutral	0.0		143.13628813195646	
19.0	116.89999278571395	pulse	1.0	t		37.0	male	white	3.898925586947871	neutral	101	sub-14	1.0	6.0	101_neutral	0.0		143.83626588539119	
19.0	117.59997687806117	pulse	1.0	t		37.0	male	white	3.898925586947871	neutral	101	sub-14	1.0	6.0	101_neutral	0.0		144.5362499777384	
20.0	118.01650954715751	face	0.0		145	22.0	female	west_asian	3.8205332272184642	neutral	066	sub-14	1.0	6.0	066_neutral	1.0	trustworthiness	144.95278264683475	1.2333187739577625
20.0	118.29996247967392	pulse	0.0	t		22.0	female	west_asian	3.8205332272184642	neutral	066	sub-14	1.0	6.0	066_neutral	1.0	trustworthiness	145.23623557935116	
20.0	118.99993661087319	pulse	0.0	t		22.0	female	west_asian	3.8205332272184642	neutral	066	sub-14	1.0	6.0	066_neutral	1.0	trustworthiness	145.93620971055043	
20.0	119.24982832111527	fix	1.0		177	22.0	female	west_asian	3.8205332272184642	neutral	066	sub-14	1.0	6.0	066_neutral	1.0	trustworthiness	146.1861014207925	1.4999615137439832
20.0	119.69992704213382	pulse	1.0	t		22.0	female	west_asian	3.8205332272184642	neutral	066	sub-14	1.0	6.0	066_neutral	1.0	trustworthiness	146.63620014181106	
20.0	120.39991354930498	pulse	1.0	t		22.0	female	west_asian	3.8205332272184642	neutral	066	sub-14	1.0	6.0	066_neutral	1.0	trustworthiness	147.33618664898222	
20.0	120.74978983485926	rating	2.0		294	22.0	female	west_asian	3.8205332272184642	neutral	066	sub-14	1.0	6.0	066_neutral	1.0	trustworthiness	147.6860629345365	2.4999304228867913
20.0	121.09989492497607	pulse	2.0	t		22.0	female	west_asian	3.8205332272184642	neutral	066	sub-14	1.0	6.0	066_neutral	1.0	trustworthiness	148.0361680246533	
20.0	121.79986784876382	pulse	2.0	t		22.0	female	west_asian	3.8205332272184642	neutral	066	sub-14	1.0	6.0	066_neutral	1.0	trustworthiness	148.73614094844106	
20.0	122.44151794621666	response	2.0	w		22.0	female	west_asian	3.8205332272184642	neutral	066	sub-14	1.0	6.0	066_neutral	1.0	trustworthiness	149.3777910458939	
20.0	122.49983473549128	pulse	2.0	t		22.0	female	west_asian	3.8205332272184642	neutral	066	sub-14	1.0	6.0	066_neutral	1.0	trustworthiness	149.4361078351685	
20.0	123.19982727972183	pulse	2.0	t		22.0	female	west_asian	3.8205332272184642	neutral	066	sub-14	1.0	6.0	066_neutral	1.0	trustworthiness	150.13610037939907	
20.0	123.24972025774605	fix	3.0		1185	22.0	female	west_asian	3.8205332272184642	neutral	066	sub-14	1.0	6.0	066_neutral	1.0	trustworthiness	150.18599335742329	10.016371298490412
20.0	123.89981801283557	pulse	3.0	t		22.0	female	west_asian	3.8205332272184642	neutral	066	sub-14	1.0	6.0	066_neutral	1.0	trustworthiness	150.8360911125128	
20.0	124.59979093662332	pulse	3.0	t		22.0	female	west_asian	3.8205332272184642	neutral	066	sub-14	1.0	6.0	066_neutral	1.0	trustworthiness	151.53606403630056	
20.0	125.29978136788304	pulse	3.0	t		22.0	female	west_asian	3.8205332272184642	neutral	066	sub-14	1.0	6.0	066_neutral	1.0	trustworthiness	152.23605446756028	
20.0	125.9997551972292	pulse	3.0	t		22.0	female	west_asian	3.8205332272184642	neutral	066	sub-14	1.0	6.0	066_neutral	1.0	trustworthiness	152.93602829690644	
20.0	126.699730837694	pulse	3.0	t		22.0	female	west_asian	3.8205332272184642	neutral	066	sub-14	1.0	6.0	066_neutral	1.0	trustworthiness	153.63600393737124	
20.0	127.39971160965888	pulse	3.0	t		22.0	female	west_asian	3.8205332272184642	neutral	066	sub-14	1.0	6.0	066_neutral	1.0	trustworthiness	154.33598470933612	
20.0	128.09969751312383	pulse	3.0	t		22.0	female	west_asian	3.8205332272184642	neutral	066	sub-14	1.0	6.0	066_neutral	1.0	trustworthiness	155.03597061280107	
20.0	128.79967496470636	pulse	3.0	t		22.0	female	west_asian	3.8205332272184642	neutral	066	sub-14	1.0	6.0	066_neutral	1.0	trustworthiness	155.7359480643836	
20.0	129.49966207558373	pulse	3.0	t		22.0	female	west_asian	3.8205332272184642	neutral	066	sub-14	1.0	6.0	066_neutral	1.0	trustworthiness	156.43593517526097	
20.0	130.199643753107	pulse	3.0	t		22.0	female	west_asian	3.8205332272184642	neutral	066	sub-14	1.0	6.0	066_neutral	1.0	trustworthiness	157.13591685278425	
20.0	130.89962603433742	pulse	3.0	t		22.0	female	west_asian	3.8205332272184642	neutral	066	sub-14	1.0	6.0	066_neutral	1.0	trustworthiness	157.83589913401465	
20.0	131.599588091417	pulse	3.0	t		22.0	female	west_asian	3.8205332272184642	neutral	066	sub-14	1.0	6.0	066_neutral	1.0	trustworthiness	158.53586119109423	
20.0	132.2995899930911	pulse	3.0	t		22.0	female	west_asian	3.8205332272184642	neutral	066	sub-14	1.0	6.0	066_neutral	1.0	trustworthiness	159.23586309276834	
20.0	132.99956502984878	pulse	3.0	t		22.0	female	west_asian	3.8205332272184642	neutral	066	sub-14	1.0	6.0	066_neutral	1.0	trustworthiness	159.93583812952602	
21.0	133.26609155623646	face	0.0		145	54.0	female	white	2.286908077994429	smiling	136	sub-14	1.0	6.0	136_smiling	0.0		160.2023646559137	1.2333311499296542
21.0	133.69955304628547	pulse	0.0	t		54.0	female	white	2.286908077994429	smiling	136	sub-14	1.0	6.0	136_smiling	0.0		160.6358261459627	
21.0	134.39955857019504	pulse	0.0	t		54.0	female	white	2.286908077994429	smiling	136	sub-14	1.0	6.0	136_smiling	0.0		161.33583166987228	
21.0	134.49942270616611	fix	1.0		444	54.0	female	white	2.286908077994429	smiling	136	sub-14	1.0	6.0	136_smiling	0.0		161.43569580584335	3.7582643574114627
21.0	135.09952153283393	pulse	1.0	t		54.0	female	white	2.286908077994429	smiling	136	sub-14	1.0	6.0	136_smiling	0.0		162.03579463251117	
21.0	135.79949868256244	pulse	1.0	t		54.0	female	white	2.286908077994429	smiling	136	sub-14	1.0	6.0	136_smiling	0.0		162.73577178223968	
21.0	136.49947673785118	pulse	1.0	t		54.0	female	white	2.286908077994429	smiling	136	sub-14	1.0	6.0	136_smiling	0.0		163.43574983752842	
21.0	137.19945539684522	pulse	1.0	t		54.0	female	white	2.286908077994429	smiling	136	sub-14	1.0	6.0	136_smiling	0.0		164.13572849652246	
21.0	137.89943375398616	pulse	1.0	t		54.0	female	white	2.286908077994429	smiling	136	sub-14	1.0	6.0	136_smiling	0.0		164.8357068536634	
22.0	138.25768706357758	face	0.0		146	22.0	male	black	2.767608436132113	smiling	044	sub-14	1.0	6.0	044_smiling	0.0		165.19396016325481	1.2416055439525735
22.0	138.5994314297177	pulse	0.0	t		22.0	male	black	2.767608436132113	smiling	044	sub-14	1.0	6.0	044_smiling	0.0		165.53570452939493	
22.0	139.29940586277007	pulse	0.0	t		22.0	male	black	2.767608436132113	smiling	044	sub-14	1.0	6.0	044_smiling	0.0		166.2356789624473	
22.0	139.49929260753015	fix	1.0		444	22.0	male	black	2.767608436132113	smiling	044	sub-14	1.0	6.0	044_smiling	0.0		166.4355657072074	3.7665152069002943
22.0	139.9993899551173	pulse	1.0	t		22.0	male	black	2.767608436132113	smiling	044	sub-14	1.0	6.0	044_smiling	0.0		166.93566305479453	
22.0	140.69936921781755	pulse	1.0	t		22.0	male	black	2.767608436132113	smiling	044	sub-14	1.0	6.0	044_smiling	0.0		167.63564231749478	
22.0	141.3993427453106	pulse	1.0	t		22.0	male	black	2.767608436132113	smiling	044	sub-14	1.0	6.0	044_smiling	0.0		168.33561584498784	
22.0	142.09932593209942	pulse	1.0	t		22.0	male	black	2.767608436132113	smiling	044	sub-14	1.0	6.0	044_smiling	0.0		169.03559903177666	
22.0	142.79930398738725	pulse	1.0	t		22.0	male	black	2.767608436132113	smiling	044	sub-14	1.0	6.0	044_smiling	0.0		169.73557708706448	
23.0	143.26580781443045	face	0.0		145	25.0	female	black	3.858336649423	neutral	126	sub-14	1.0	6.0	126_neutral	0.0		170.20208091410768	1.2333516759335907
23.0	143.49929743717803	pulse	0.0	t		25.0	female	black	3.858336649423	neutral	126	sub-14	1.0	6.0	126_neutral	0.0		170.43557053685527	
23.0	144.19927700173048	pulse	0.0	t		25.0	female	black	3.858336649423	neutral	126	sub-14	1.0	6.0	126_neutral	0.0		171.13555010140772	
23.0	144.49915949036404	fix	1.0		445	25.0	female	black	3.858336649423	neutral	126	sub-14	1.0	6.0	126_neutral	0.0		171.43543259004127	3.7666259869456553
23.0	144.89924388845793	pulse	1.0	t		25.0	female	black	3.858336649423	neutral	126	sub-14	1.0	6.0	126_neutral	0.0		171.83551698813517	
23.0	145.59923854566023	pulse	1.0	t		25.0	female	black	3.858336649423	neutral	126	sub-14	1.0	6.0	126_neutral	0.0		172.53551164533746	
23.0	146.2992184120667	pulse	1.0	t		25.0	female	black	3.858336649423	neutral	126	sub-14	1.0	6.0	126_neutral	0.0		173.23549151174393	
23.0	146.99919405253058	pulse	1.0	t		25.0	female	black	3.858336649423	neutral	126	sub-14	1.0	6.0	126_neutral	0.0		173.93546715220782	
23.0	147.69917633376008	pulse	1.0	t		25.0	female	black	3.858336649423	neutral	126	sub-14	1.0	6.0	126_neutral	0.0		174.63544943343732	
24.0	148.2657854773097	face	0.0		146	22.0	female	white	4.614007162753682	smiling	009	sub-14	1.0	6.0	009_smiling	0.0		175.20205857698693	1.2415735475360634
24.0	148.39916253907904	pulse	0.0	t		22.0	female	white	4.614007162753682	smiling	009	sub-14	1.0	6.0	009_smiling	0.0		175.33543563875628	
24.0	149.09914029251377	pulse	0.0	t		22.0	female	white	4.614007162753682	smiling	009	sub-14	1.0	6.0	009_smiling	0.0		176.035413392191	
24.0	149.50735902484575	fix	1.0		444	22.0	female	white	4.614007162753682	smiling	009	sub-14	1.0	6.0	009_smiling	0.0		176.443632124523	3.7665399588458968
24.0	149.79912800709735	pulse	1.0	t		22.0	female	white	4.614007162753682	smiling	009	sub-14	1.0	6.0	009_smiling	0.0		176.7354011067746	
24.0	150.4991069679445	pulse	1.0	t		22.0	female	white	4.614007162753682	smiling	009	sub-14	1.0	6.0	009_smiling	0.0		177.43538006762174	
24.0	151.1990829102615	pulse	1.0	t		22.0	female	white	4.614007162753682	smiling	009	sub-14	1.0	6.0	009_smiling	0.0		178.13535600993873	
24.0	151.89906096554932	pulse	1.0	t		22.0	female	white	4.614007162753682	smiling	009	sub-14	1.0	6.0	009_smiling	0.0		178.83533406522656	
24.0	152.59907645060775	pulse	1.0	t		22.0	female	white	4.614007162753682	smiling	009	sub-14	1.0	6.0	009_smiling	0.0		179.535349550285	
25.0	153.27389898369165	face	0.0		145	34.0	male	white	2.651014723438122	smiling	121	sub-14	1.0	6.0	121_smiling	0.0		180.2101720833689	1.2333139443098844
25.0	153.29904575215915	pulse	0.0	t		34.0	male	white	2.651014723438122	smiling	121	sub-14	1.0	6.0	121_smiling	0.0		180.23531885183638	
25.0	153.99901686482826	pulse	0.0	t		34.0	male	white	2.651014723438122	smiling	121	sub-14	1.0	6.0	121_smiling	0.0		180.9352899645055	
25.0	154.50721292800154	fix	1.0		443	34.0	male	white	2.651014723438122	smiling	121	sub-14	1.0	6.0	121_smiling	0.0		181.44348602767877	3.758213646108743
25.0	154.69899854235246	pulse	1.0	t		34.0	male	white	2.651014723438122	smiling	121	sub-14	1.0	6.0	121_smiling	0.0		181.6352716420297	
25.0	155.39897539022786	pulse	1.0	t		34.0	male	white	2.651014723438122	smiling	121	sub-14	1.0	6.0	121_smiling	0.0		182.3352484899051	
25.0	156.09895646404584	pulse	1.0	t		34.0	male	white	2.651014723438122	smiling	121	sub-14	1.0	6.0	121_smiling	0.0		183.03522956372308	
25.0	156.79894085824708	pulse	1.0	t		34.0	male	white	2.651014723438122	smiling	121	sub-14	1.0	6.0	121_smiling	0.0		183.73521395792432	
25.0	157.49892102650574	pulse	1.0	t		34.0	male	white	2.651014723438122	smiling	121	sub-14	1.0	6.0	121_smiling	0.0		184.43519412618298	
25.0	158.19889183732175	pulse	1.0	t		34.0	male	white	2.651014723438122	smiling	121	sub-14	1.0	6.0	121_smiling	0.0		185.135164936999	
26.0	158.26542657411028	face	0.0		147	32.0	male	white	2.389176283326701	smiling	092	sub-14	1.0	6.0	092_smiling	0.0		185.20169967378752	1.241671046051124
26.0	158.89887864634693	pulse	0.0	t		32.0	male	white	2.389176283326701	smiling	092	sub-14	1.0	6.0	092_smiling	0.0		185.83515174602417	
26.0	159.5070976201614	fix	1.0		443	32.0	male	white	2.389176283326701	smiling	092	sub-14	1.0	6.0	092_smiling	0.0		186.44337071983864	3.7665469014636983
26.0	159.59887058687218	pulse	1.0	t		32.0	male	white	2.389176283326701	smiling	092	sub-14	1.0	6.0	092_smiling	0.0		186.53514368654942	
26.0	160.29885890516107	pulse	1.0	t		32.0	male	white	2.389176283326701	smiling	092	sub-14	1.0	6.0	092_smiling	0.0		187.2351320048383	
26.0	160.99882730115405	pulse	1.0	t		32.0	male	white	2.389176283326701	smiling	092	sub-14	1.0	6.0	092_smiling	0.0		187.9351004008313	
26.0	161.69879116935135	pulse	1.0	t		32.0	male	white	2.389176283326701	smiling	092	sub-14	1.0	6.0	092_smiling	0.0		188.6350642690286	
26.0	162.39878522284744	pulse	1.0	t		32.0	male	white	2.389176283326701	smiling	092	sub-14	1.0	6.0	092_smiling	0.0		189.33505832252467	
26.0	163.09877022075398	pulse	1.0	t		32.0	male	white	2.389176283326701	smiling	092	sub-14	1.0	6.0	092_smiling	0.0		190.0350433204312	
27.0	163.2736445216251	face	0.0		146	21.0	male	east_asian/white	3.501790688420215	neutral	036	sub-14	1.0	6.0	036_neutral	0.0		190.20991762130234	1.2416526330180204
27.0	163.79875642607294	pulse	0.0	t		21.0	male	east_asian/white	3.501790688420215	neutral	036	sub-14	1.0	6.0	036_neutral	0.0		190.73502952575018	
27.0	164.4987365943316	pulse	0.0	t		21.0	male	east_asian/white	3.501790688420215	neutral	036	sub-14	1.0	6.0	036_neutral	0.0		191.43500969400884	
27.0	164.51529715464312	fix	1.0		443	21.0	male	east_asian/white	3.501790688420215	neutral	036	sub-14	1.0	6.0	036_neutral	0.0		191.45157025432036	3.7582166646398036
27.0	165.19871676259118	pulse	1.0	t		21.0	male	east_asian/white	3.501790688420215	neutral	036	sub-14	1.0	6.0	036_neutral	0.0		192.1349898622684	
27.0	165.8986700659343	pulse	1.0	t		21.0	male	east_asian/white	3.501790688420215	neutral	036	sub-14	1.0	6.0	036_neutral	0.0		192.83494316561155	
27.0	166.5986713639022	pulse	1.0	t		21.0	male	east_asian/white	3.501790688420215	neutral	036	sub-14	1.0	6.0	036_neutral	0.0		193.53494446357945	
27.0	167.29865756922027	pulse	1.0	t		21.0	male	east_asian/white	3.501790688420215	neutral	036	sub-14	1.0	6.0	036_neutral	0.0		194.2349306688975	
27.0	167.9986600746006	pulse	1.0	t		21.0	male	east_asian/white	3.501790688420215	neutral	036	sub-14	1.0	6.0	036_neutral	0.0		194.93493317427783	
28.0	168.27351381928293	face	0.0		145	25.0	female	west_asian	2.6756864305610826	neutral	064	sub-14	1.0	6.0	064_neutral	0.0		195.20978691896016	1.2333160572807174
28.0	168.69862726318115	pulse	0.0	t		25.0	female	west_asian	2.6756864305610826	neutral	064	sub-14	1.0	6.0	064_neutral	0.0		195.6349003628584	
28.0	169.39860501661587	pulse	0.0	t		25.0	female	west_asian	2.6756864305610826	neutral	064	sub-14	1.0	6.0	064_neutral	0.0		196.3348781162931	
28.0	169.50682987656364	fix	1.0		444	25.0	female	west_asian	2.6756864305610826	neutral	064	sub-14	1.0	6.0	064_neutral	0.0		196.44310297624088	3.758200364577533
28.0	170.09860420161294	pulse	1.0	t		25.0	female	west_asian	2.6756864305610826	neutral	064	sub-14	1.0	6.0	064_neutral	0.0		197.03487730129018	
28.0	170.79856776795714	pulse	1.0	t		25.0	female	west_asian	2.6756864305610826	neutral	064	sub-14	1.0	6.0	064_neutral	0.0		197.73484086763438	
28.0	171.49855095474595	pulse	1.0	t		25.0	female	west_asian	2.6756864305610826	neutral	064	sub-14	1.0	6.0	064_neutral	0.0		198.4348240544232	
28.0	172.19852538779833	pulse	1.0	t		25.0	female	west_asian	2.6756864305610826	neutral	064	sub-14	1.0	6.0	064_neutral	0.0		199.13479848747556	
28.0	172.89850978199865	pulse	1.0	t		25.0	female	west_asian	2.6756864305610826	neutral	064	sub-14	1.0	6.0	064_neutral	0.0		199.8347828816759	
29.0	173.26503024114118	face	0.0		146	24.0	female	black	3.0955033824114606	smiling	099	sub-14	1.0	6.0	099_smiling	0.0		200.2013033408184	1.241657462666808
29.0	173.59849749658224	pulse	0.0	t		24.0	female	black	3.0955033824114606	smiling	099	sub-14	1.0	6.0	099_smiling	0.0		200.53477059625948	
29.0	174.29847615557628	pulse	0.0	t		24.0	female	black	3.0955033824114606	smiling	099	sub-14	1.0	6.0	099_smiling	0.0		201.23474925525352	
29.0	174.50668770380798	fix	1.0		444	24.0	female	black	3.0955033824114606	smiling	099	sub-14	1.0	6.0	099_smiling	0.0		201.44296080348522	3.7665607867011204
29.0	174.99846115348282	pulse	1.0	t		24.0	female	black	3.0955033824114606	smiling	099	sub-14	1.0	6.0	099_smiling	0.0		201.93473425316006	
29.0	175.6984422273008	pulse	1.0	t		24.0	female	black	3.0955033824114606	smiling	099	sub-14	1.0	6.0	099_smiling	0.0		202.63471532697804	
29.0	176.39842118814795	pulse	1.0	t		24.0	female	black	3.0955033824114606	smiling	099	sub-14	1.0	6.0	099_smiling	0.0		203.3346942878252	
29.0	177.098399847142	pulse	1.0	t		24.0	female	black	3.0955033824114606	smiling	099	sub-14	1.0	6.0	099_smiling	0.0		204.03467294681923	
29.0	177.79837790242982	pulse	1.0	t		24.0	female	black	3.0955033824114606	smiling	099	sub-14	1.0	6.0	099_smiling	0.0		204.73465100210706	
30.0	178.2732484905091	face	0.0		145	37.0	male	white	3.898925586947871	smiling	101	sub-14	1.0	6.0	101_smiling	0.0		205.20952159018634	1.2333169628400356
30.0	178.49836984295507	pulse	0.0	t		37.0	male	white	3.898925586947871	smiling	101	sub-14	1.0	6.0	101_smiling	0.0		205.4346429426323	
30.0	179.1983475963898	pulse	0.0	t		37.0	male	white	3.898925586947871	smiling	101	sub-14	1.0	6.0	101_smiling	0.0		206.13462069606703	
30.0	179.50656545334914	fix	1.0		444	37.0	male	white	3.898925586947871	smiling	101	sub-14	1.0	6.0	101_smiling	0.0		206.44283855302638	3.758268885205325
30.0	179.89833229244414	pulse	1.0	t		37.0	male	white	3.898925586947871	smiling	101	sub-14	1.0	6.0	101_smiling	0.0		206.83460539212138	
30.0	180.59831427182053	pulse	1.0	t		37.0	male	white	3.898925586947871	smiling	101	sub-14	1.0	6.0	101_smiling	0.0		207.53458737149776	
30.0	181.2982881011667	pulse	1.0	t		37.0	male	white	3.898925586947871	smiling	101	sub-14	1.0	6.0	101_smiling	0.0		208.23456120084393	
30.0	181.99826796757316	pulse	1.0	t		37.0	male	white	3.898925586947871	smiling	101	sub-14	1.0	6.0	101_smiling	0.0		208.9345410672504	
30.0	182.6982291190934	pulse	1.0	t		37.0	male	white	3.898925586947871	smiling	101	sub-14	1.0	6.0	101_smiling	0.0		209.63450221877065	
31.0	183.26483433855446	face	0.0		146	27.0	female	white	3.504576203740549	neutral	144	sub-14	1.0	6.0	144_neutral	0.0		210.2011074382317	1.2415982994807564
31.0	183.39824581156336	pulse	0.0	t		27.0	female	white	3.504576203740549	neutral	144	sub-14	1.0	6.0	144_neutral	0.0		210.3345189112406	
31.0	184.0982302057646	pulse	0.0	t		27.0	female	white	3.504576203740549	neutral	144	sub-14	1.0	6.0	144_neutral	0.0		211.03450330544183	
31.0	184.50643263803522	fix	1.0		444	27.0	female	white	3.504576203740549	neutral	144	sub-14	1.0	6.0	144_neutral	0.0		211.44270573771246	3.7665499199938495
31.0	184.79820222399303	pulse	1.0	t		27.0	female	white	3.504576203740549	neutral	144	sub-14	1.0	6.0	144_neutral	0.0		211.73447532367027	
31.0	185.49817846816313	pulse	1.0	t		27.0	female	white	3.504576203740549	neutral	144	sub-14	1.0	6.0	144_neutral	0.0		212.43445156784037	
31.0	186.1981586364218	pulse	1.0	t		27.0	female	white	3.504576203740549	neutral	144	sub-14	1.0	6.0	144_neutral	0.0		213.13443173609903	
31.0	186.89817110295007	pulse	1.0	t		27.0	female	white	3.504576203740549	neutral	144	sub-14	1.0	6.0	144_neutral	0.0		213.8344442026273	
31.0	187.59812138776306	pulse	1.0	t		27.0	female	white	3.504576203740549	neutral	144	sub-14	1.0	6.0	144_neutral	0.0		214.5343944874403	
32.0	188.27298255802907	face	0.0		145	23.0	male	white	2.6275368085953046	neutral	141	sub-14	1.0	6.0	141_neutral	0.0		215.2092556577063	1.2333115294859454
32.0	188.29811695052467	pulse	0.0	t		23.0	male	white	2.6275368085953046	neutral	141	sub-14	1.0	6.0	141_neutral	0.0		215.2343900502019	
32.0	188.99809168542924	pulse	0.0	t		23.0	male	white	2.6275368085953046	neutral	141	sub-14	1.0	6.0	141_neutral	0.0		215.93436478510648	
32.0	189.50629408751502	fix	1.0		443	23.0	male	white	2.6275368085953046	neutral	141	sub-14	1.0	6.0	141_neutral	0.0		216.44256718719225	3.75837543930993
32.0	189.69807366480654	pulse	1.0	t		23.0	male	white	2.6275368085953046	neutral	141	sub-14	1.0	6.0	141_neutral	0.0		216.63434676448378	
32.0	190.39804930527043	pulse	1.0	t		23.0	male	white	2.6275368085953046	neutral	141	sub-14	1.0	6.0	141_neutral	0.0		217.33432240494767	
32.0	191.0980300772353	pulse	1.0	t		23.0	male	white	2.6275368085953046	neutral	141	sub-14	1.0	6.0	141_neutral	0.0		218.03430317691254	
32.0	191.7980060195523	pulse	1.0	t		23.0	male	white	2.6275368085953046	neutral	141	sub-14	1.0	6.0	141_neutral	0.0		218.73427911922954	
32.0	192.49798920634112	pulse	1.0	t		23.0	male	white	2.6275368085953046	neutral	141	sub-14	1.0	6.0	141_neutral	0.0		219.43426230601835	
32.0	193.19796967645289	pulse	1.0	t		23.0	male	white	2.6275368085953046	neutral	141	sub-14	1.0	6.0	141_neutral	0.0		220.13424277613012	
33.0	193.26466952682495	face	0.0		147	27.0	male	black	3.5523278949462798	neutral	042	sub-14	1.0	6.0	042_neutral	0.0		220.20094262650218	1.2414977824364541
33.0	193.8979595040073	pulse	0.0	t		27.0	male	black	3.5523278949462798	neutral	042	sub-14	1.0	6.0	042_neutral	0.0		220.83423260368454	
33.0	194.5061673092614	fix	1.0		443	27.0	male	black	3.5523278949462798	neutral	042	sub-14	1.0	6.0	042_neutral	0.0		221.44244040893864	3.7665547496417275
33.0	194.59796955571164	pulse	1.0	t		27.0	male	black	3.5523278949462798	neutral	042	sub-14	1.0	6.0	042_neutral	0.0		221.53424265538888	
33.0	195.29791893496622	pulse	1.0	t		27.0	male	black	3.5523278949462798	neutral	042	sub-14	1.0	6.0	042_neutral	0.0		222.23419203464346	
33.0	195.99790212175503	pulse	1.0	t		27.0	male	black	3.5523278949462798	neutral	042	sub-14	1.0	6.0	042_neutral	0.0		222.93417522143227	
33.0	196.69787534739498	pulse	1.0	t		27.0	male	black	3.5523278949462798	neutral	042	sub-14	1.0	6.0	042_neutral	0.0		223.63414844707222	
33.0	197.39785974159622	pulse	1.0	t		27.0	male	black	3.5523278949462798	neutral	042	sub-14	1.0	6.0	042_neutral	0.0		224.33413284127346	
33.0	198.09784232467882	pulse	1.0	t		27.0	male	black	3.5523278949462798	neutral	042	sub-14	1.0	6.0	042_neutral	0.0		225.03411542435606	
34.0	198.27272205890313	face	0.0		146	24.0	male	white	3.1153999204138483	neutral	012	sub-14	1.0	6.0	012_neutral	0.0		225.20899515858036	1.2416351255451445
34.0	198.7978300392624	pulse	0.0	t		24.0	male	white	3.1153999204138483	neutral	012	sub-14	1.0	6.0	012_neutral	0.0		225.73410313893964	
34.0	199.4978111130804	pulse	0.0	t		24.0	male	white	3.1153999204138483	neutral	012	sub-14	1.0	6.0	012_neutral	0.0		226.43408421275763	
34.0	199.51435718444827	fix	1.0		443	24.0	male	white	3.1153999204138483	neutral	012	sub-14	1.0	6.0	012_neutral	0.0		226.4506302841255	3.7499718522094554
34.0	200.1977939980161	pulse	1.0	t		24.0	male	white	3.1153999204138483	neutral	012	sub-14	1.0	6.0	012_neutral	0.0		227.13406709769333	
34.0	200.89777175145082	pulse	1.0	t		24.0	male	white	3.1153999204138483	neutral	012	sub-14	1.0	6.0	012_neutral	0.0		227.83404485112806	
34.0	201.59775041044486	pulse	1.0	t		24.0	male	white	3.1153999204138483	neutral	012	sub-14	1.0	6.0	012_neutral	0.0		228.5340235101221	
34.0	202.29773088055663	pulse	1.0	t		24.0	male	white	3.1153999204138483	neutral	012	sub-14	1.0	6.0	012_neutral	0.0		229.23400398023387	
34.0	202.99771316178612	pulse	1.0	t		24.0	male	white	3.1153999204138483	neutral	012	sub-14	1.0	6.0	012_neutral	0.0		229.93398626146336	
35.0	203.26432903665773	face	0.0		146	27.0	female	white	4.181058495821727	neutral	039	sub-14	1.0	6.0	039_neutral	0.0		230.20060213633496	1.2415729438298513
35.0	203.69770148007592	pulse	0.0	t		27.0	female	white	4.181058495821727	neutral	039	sub-14	1.0	6.0	039_neutral	0.0		230.63397457975316	
35.0	204.39767862980534	pulse	0.0	t		27.0	female	white	4.181058495821727	neutral	039	sub-14	1.0	6.0	039_neutral	0.0		231.33395172948258	
35.0	204.50590198048758	fix	1.0		444	27.0	female	white	4.181058495821727	neutral	039	sub-14	1.0	6.0	039_neutral	0.0		231.44217508016482	3.7665520329646824
35.0	205.09768173889097	pulse	1.0	t		27.0	female	white	4.181058495821727	neutral	039	sub-14	1.0	6.0	039_neutral	0.0		232.0339548385682	
35.0	205.79763836261645	pulse	1.0	t		27.0	female	white	4.181058495821727	neutral	039	sub-14	1.0	6.0	039_neutral	0.0		232.7339114622937	
35.0	206.49761943643443	pulse	1.0	t		27.0	female	white	4.181058495821727	neutral	039	sub-14	1.0	6.0	039_neutral	0.0		233.43389253611167	
35.0	207.1976002083993	pulse	1.0	t		27.0	female	white	4.181058495821727	neutral	039	sub-14	1.0	6.0	039_neutral	0.0		234.13387330807655	
35.0	207.8975827914819	pulse	1.0	t		27.0	female	white	4.181058495821727	neutral	039	sub-14	1.0	6.0	039_neutral	0.0		234.83385589115915	
36.0	208.27245401345226	face	0.0		145	28.0	male	white	3.9076800636689217	neutral	033	sub-14	1.0	6.0	033_neutral	0.0		235.2087271131295	1.2333187739577625
36.0	208.59757171347792	pulse	0.0	t		28.0	male	white	3.9076800636689217	neutral	033	sub-14	1.0	6.0	033_neutral	0.0		235.53384481315516	
36.0	209.29754765579492	pulse	0.0	t		28.0	male	white	3.9076800636689217	neutral	033	sub-14	1.0	6.0	033_neutral	0.0		236.23382075547215	
36.0	209.50577278741002	fix	1.0		444	28.0	male	white	3.9076800636689217	neutral	033	sub-14	1.0	6.0	033_neutral	0.0		236.44204588708726	3.7665375440219577
36.0	209.99752601293585	pulse	1.0	t		28.0	male	white	3.9076800636689217	neutral	033	sub-14	1.0	6.0	033_neutral	0.0		236.9337991126131	
36.0	210.69751040713618	pulse	1.0	t		28.0	male	white	3.9076800636689217	neutral	033	sub-14	1.0	6.0	033_neutral	0.0		237.63378350681342	
36.0	211.3974929902197	pulse	1.0	t		28.0	male	white	3.9076800636689217	neutral	033	sub-14	1.0	6.0	033_neutral	0.0		238.33376608989693	
36.0	212.09747285662525	pulse	1.0	t		28.0	male	white	3.9076800636689217	neutral	033	sub-14	1.0	6.0	033_neutral	0.0		239.03374595630248	
36.0	212.79745061005997	pulse	1.0	t		28.0	male	white	3.9076800636689217	neutral	033	sub-14	1.0	6.0	033_neutral	0.0		239.7337237097372	
37.0	213.27231033143198	face	0.0		145	31.0	female	west_asian	2.364902506963788	neutral	006	sub-14	1.0	6.0	006_neutral	0.0		240.20858343110922	1.2333290369588212
37.0	213.49744315429143	pulse	0.0	t		31.0	female	west_asian	2.364902506963788	neutral	006	sub-14	1.0	6.0	006_neutral	0.0		240.43371625396867	
37.0	214.197423020697	pulse	0.0	t		31.0	female	west_asian	2.364902506963788	neutral	006	sub-14	1.0	6.0	006_neutral	0.0		241.13369612037422	
37.0	214.5056393683908	fix	1.0		444	31.0	female	west_asian	2.364902506963788	neutral	006	sub-14	1.0	6.0	006_neutral	0.0		241.44191246806804	3.7665553533479397
37.0	214.89739020927755	pulse	1.0	t		31.0	female	west_asian	2.364902506963788	neutral	006	sub-14	1.0	6.0	006_neutral	0.0		241.83366330895478	
37.0	215.59738456462674	pulse	1.0	t		31.0	female	west_asian	2.364902506963788	neutral	006	sub-14	1.0	6.0	006_neutral	0.0		242.53365766430397	
37.0	216.29736292176767	pulse	1.0	t		31.0	female	west_asian	2.364902506963788	neutral	006	sub-14	1.0	6.0	006_neutral	0.0		243.2336360214449	
37.0	216.9973276955243	pulse	1.0	t		31.0	female	west_asian	2.364902506963788	neutral	006	sub-14	1.0	6.0	006_neutral	0.0		243.93360079520153	
37.0	217.69731390084326	pulse	1.0	t		31.0	female	west_asian	2.364902506963788	neutral	006	sub-14	1.0	6.0	006_neutral	0.0		244.6335870005205	
38.0	218.27219472173874	face	0.0		145	22.0	male	black	2.767608436132113	neutral	044	sub-14	1.0	6.0	044_neutral	0.0		245.20846782141598	1.2333130387505662
38.0	218.39731700992888	pulse	0.0	t		22.0	male	black	2.767608436132113	neutral	044	sub-14	1.0	6.0	044_neutral	0.0		245.33359010960612	
38.0	219.09729748004065	pulse	0.0	t		22.0	male	black	2.767608436132113	neutral	044	sub-14	1.0	6.0	044_neutral	0.0		246.0335705797179	
38.0	219.5055077604893	fix	1.0		444	22.0	male	black	2.767608436132113	neutral	044	sub-14	1.0	6.0	044_neutral	0.0		246.44178086016655	3.766553844083319
38.0	219.79728157238878	pulse	1.0	t		22.0	male	black	2.767608436132113	neutral	044	sub-14	1.0	6.0	044_neutral	0.0		246.73355467206602	
38.0	220.4972587221173	pulse	1.0	t		22.0	male	black	2.767608436132113	neutral	044	sub-14	1.0	6.0	044_neutral	0.0		247.43353182179453	
38.0	221.19724613484777	pulse	1.0	t		22.0	male	black	2.767608436132113	neutral	044	sub-14	1.0	6.0	044_neutral	0.0		248.133519234525	
38.0	221.89722539754803	pulse	1.0	t		22.0	male	black	2.767608436132113	neutral	044	sub-14	1.0	6.0	044_neutral	0.0		248.83349849722526	
38.0	222.59719077501086	pulse	1.0	t		22.0	male	black	2.767608436132113	neutral	044	sub-14	1.0	6.0	044_neutral	0.0		249.5334638746881	
39.0	223.27206160457263	face	0.0		145	25.0	female	black	3.858336649423	smiling	126	sub-14	1.0	6.0	126_smiling	1.0	attractiveness	250.20833470424986	1.2333112276328393
39.0	223.2972011285683	pulse	0.0	t		25.0	female	black	3.858336649423	smiling	126	sub-14	1.0	6.0	126_smiling	1.0	attractiveness	250.23347422824554	
39.0	223.99716137453015	pulse	0.0	t		25.0	female	black	3.858336649423	smiling	126	sub-14	1.0	6.0	126_smiling	1.0	attractiveness	250.9334344742074	
39.0	224.50537283220547	fix	1.0		177	25.0	female	black	3.858336649423	smiling	126	sub-14	1.0	6.0	126_smiling	1.0	attractiveness	251.4416459318827	1.4999633248617101
39.0	224.69715120208457	pulse	1.0	t		25.0	female	black	3.858336649423	smiling	126	sub-14	1.0	6.0	126_smiling	1.0	attractiveness	251.6334243017618	
39.0	225.39712503143073	pulse	1.0	t		25.0	female	black	3.858336649423	smiling	126	sub-14	1.0	6.0	126_smiling	1.0	attractiveness	252.33339813110797	
39.0	226.00533615706718	rating	2.0		294	25.0	female	black	3.858336649423	smiling	126	sub-14	1.0	6.0	126_smiling	1.0	attractiveness	252.9416092567444	2.4999301210345948
39.0	226.09712663125174	pulse	2.0	t		25.0	female	black	3.858336649423	smiling	126	sub-14	1.0	6.0	126_smiling	1.0	attractiveness	253.03339973092898	
39.0	226.79708657536048	pulse	2.0	t		25.0	female	black	3.858336649423	smiling	126	sub-14	1.0	6.0	126_smiling	1.0	attractiveness	253.73335967503772	
39.0	227.4970694602962	pulse	2.0	t		25.0	female	black	3.858336649423	smiling	126	sub-14	1.0	6.0	126_smiling	1.0	attractiveness	254.43334255997343	
39.0	227.7970569937679	response	2.0	b		25.0	female	black	3.858336649423	smiling	126	sub-14	1.0	6.0	126_smiling	1.0	attractiveness	254.73333009344515	
39.0	228.1970466100256	pulse	2.0	t		25.0	female	black	3.858336649423	smiling	126	sub-14	1.0	6.0	126_smiling	1.0	attractiveness	255.13331970970285	
39.0	228.50526627810177	fix	3.0		444	25.0	female	black	3.858336649423	smiling	126	sub-14	1.0	6.0	126_smiling	1.0	attractiveness	255.441539377779	3.749903935286966
39.0	228.89703673943222	pulse	3.0	t		25.0	female	black	3.858336649423	smiling	126	sub-14	1.0	6.0	126_smiling	1.0	attractiveness	255.83330983910946	
39.0	229.5970117761908	pulse	3.0	t		25.0	female	black	3.858336649423	smiling	126	sub-14	1.0	6.0	126_smiling	1.0	attractiveness	256.53328487586805	
39.0	230.29699013333175	pulse	3.0	t		25.0	female	black	3.858336649423	smiling	126	sub-14	1.0	6.0	126_smiling	1.0	attractiveness	257.233263233009	
39.0	230.99697301826745	pulse	3.0	t		25.0	female	black	3.858336649423	smiling	126	sub-14	1.0	6.0	126_smiling	1.0	attractiveness	257.9332461179447	
39.0	231.6969516772615	pulse	3.0	t		25.0	female	black	3.858336649423	smiling	126	sub-14	1.0	6.0	126_smiling	1.0	attractiveness	258.63322477693873	
40.0	232.25517021338874	fix	0.0		720													259.191443313066	5.99983760309442
40.0	232.39694482519826	pulse	0.0	t														259.3332179248755	
40.0	233.09691533416208	pulse	0.0	t														260.0331884338393	
40.0	233.7968997283624	pulse	0.0	t														260.73317282803964	
40.0	234.49685967247206	pulse	0.0	t														261.4331327721493	
40.0	235.19686006488064	pulse	0.0	t														262.1331331645579	
40.0	235.89684536464028	pulse	0.0	t														262.8331184643175	
40.0	236.5968234199281	pulse	0.0	t														263.53309651960535	
40.0	237.29680781412844	pulse	0.0	t														264.2330809138057	
40.0	237.99680458430157	pulse	0.0	t														264.9330776839788	
