trial_nr	onset	event_type	phase	response	nr_frames	trial_type	stim_name	task_probe	onset_abs	duration
0.0	0.05443632126707598	baseline	0.0		41.0		baseline	0.0	51.18883901620302	0.3473533602182215
0.0	0.4017896814852975	ISI	1.0		11.0		baseline	0.0	51.53619237642124	0.09999698147839808
1.0	0.5017866629636956	baseline	0.0		48.0		baseline	0.0	51.63618935789964	0.40000211296546695
1.0	0.9017887759291625	ISI	1.0		11.0		baseline	0.0	52.036191470865106	0.09999426480862894
2.0	1.0017830407377915	baseline	0.0		48.0		baseline	0.0	52.136185735673735	0.39997253145293143
2.0	1.4017555721907229	ISI	1.0		11.0		baseline	0.0	52.536158267126666	0.10000150926089191
3.0	1.5017570814516148	baseline	0.0		48.0		baseline	0.0	52.63615977638756	0.3999836999832951
3.0	1.9017407814349099	ISI	1.0		11.0		baseline	0.0	53.03614347637085	0.09999607592180837
4.0	2.0017368573567182	baseline	0.0		47.0		baseline	0.0	53.13613955229266	0.39998943517412044
4.0	2.0059392431962806	pulse	0.0	t			baseline	0.0	53.140341938132224	
4.0	2.4017262925308387	ISI	1.0		11.0		baseline	0.0	53.53612898746678	0.09999969814771248
5.0	2.501725990678551	baseline	0.0		48.0		baseline	0.0	53.636128685614494	0.399974946270504
5.0	2.901700936949055	ISI	1.0		11.0		baseline	0.0	54.036103631885	0.10000815000830698
6.0	3.001709086957362	baseline	0.0		48.0		baseline	0.0	54.136111781893305	0.3999870203570026
6.0	3.401696107314365	ISI	1.0		11.0		baseline	0.0	54.53609880225031	0.09999909444331934
7.0	3.501695201757684	baseline	0.0		48.0		baseline	0.0	54.63609789669363	0.3999894351745752
7.0	3.9016846369322593	ISI	1.0		11.0		baseline	0.0	55.0360873318682	0.10000150926043716
8.0	4.0016861461926965	baseline	0.0		47.0		baseline	0.0	55.13608884112864	0.39997826664421154
8.0	4.00602738402813	pulse	0.0	t			baseline	0.0	55.14043007896407	
8.0	4.401664412836908	ISI	1.0		11.0		baseline	0.0	55.53606710777285	0.10000120740869534
9.0	4.501665620245603	baseline	0.0		48.0		baseline	0.0	55.63606831518155	0.39997615367883554
9.0	4.901641773924439	ISI	1.0		11.0		baseline	0.0	56.03604446886038	0.10000543333899259
10.0	5.0016472072634315	baseline	0.0		48.0		baseline	0.0	56.136049902199375	0.3999855110964745
10.0	5.401632718359906	ISI	1.0		11.0		baseline	0.0	56.53603541329585	0.10000482963459945
11.0	5.501637547994505	baseline	0.0		48.0		baseline	0.0	56.63604024293045	0.3999830962784472
11.0	5.901620644272953	ISI	1.0		7.0		baseline	0.0	57.036023339208896	0.12500241481757257
12.0	6.026623059090525	number	0.0		44.0	character	number-77.jpg	0.0	57.16102575402647	0.37496528700103227
12.0	6.015506145709878	pulse	0.0	t		character	number-77.jpg	0.0	57.14990884064582	
12.0	6.4015883460915575	ISI	1.0		7.0	character	number-77.jpg	0.0	57.5359910410275	0.11669604694407099
13.0	6.5182843930356285	number	0.0		46.0	character	number-128.jpg	0.0	57.65268708797157	0.38325626041387295
13.0	6.901540653449501	ISI	1.0		7.0	character	number-128.jpg	0.0	58.035943348385445	0.11669151916157716
14.0	7.018232172611079	number	0.0		46.0	character	number-3.jpg	0.0	58.15263486754702	0.3832885585952681
14.0	7.401520731206347	ISI	1.0		7.0	character	number-3.jpg	0.0	58.53592342614229	0.11669997102217167
15.0	7.518220702228518	number	0.0		46.0	character	number-83.jpg	0.0	58.65262339716446	0.38329157711723383
15.0	7.901512279345752	ISI	1.0		7.0	character	number-83.jpg	0.0	59.035914974281695	0.11668638767514494
16.0	8.018198667020897	number	0.0		45.0	character	number-30.jpg	0.0	59.15260136195684	0.38329036970844754
16.0	8.00793750452749	pulse	0.0	t		character	number-30.jpg	0.0	59.14234019946343	
16.0	8.401489036729345	ISI	1.0		7.0	character	number-30.jpg	0.0	59.53589173166529	0.11669815990899224
17.0	8.518187196638337	number	0.0		46.0	character	number-12.jpg	0.0	59.65258989157428	0.38329519934313794
17.0	8.901482395981475	ISI	1.0		7.0	character	number-12.jpg	0.0	60.03588509091742	0.11669061360498745
18.0	9.018173009586462	number	0.0		46.0	character	number-127.jpg	0.0	60.152575704522405	0.3832864456308016
18.0	9.401459455217264	ISI	1.0		7.0	character	number-127.jpg	0.0	60.53586215015321	0.1166996691699751
19.0	9.518159124387239	number	0.0		46.0	character	number-63.jpg	0.0	60.65256181932318	0.3833042549081256
19.0	9.901463379295365	ISI	1.0		7.0	character	number-63.jpg	0.0	61.03586607423131	0.11668668952688677
20.0	10.018150068822251	number	0.0		45.0	character	number-134.jpg	0.0	61.152552763758194	0.3832852382215606
20.0	10.007928750814699	pulse	0.0	t		character	number-134.jpg	0.0	61.14233144575064	
20.0	10.401435307043812	ISI	1.0		7.0	character	number-134.jpg	0.0	61.535838001979755	0.1166948395352847
21.0	10.518130146579097	number	0.0		46.0	character	number-134.jpg	1.0	61.65253284151504	0.38329369008260983
21.0	10.901423836661706	ISI	1.0		7.0	character	number-134.jpg	1.0	62.03582653159765	0.11669061360498745
22.0	11.018114450266694	number	0.0		46.0	character	number-95.jpg	0.0	62.15251714520264	0.3832955011953345
22.0	11.068191422568816	response	0.0	b		character	number-95.jpg	0.0	62.20259411750476	
22.0	11.401409951462028	ISI	1.0		7.0	character	number-95.jpg	0.0	62.53581264639797	0.11668970804839773
23.0	11.518099659510426	number	0.0		46.0	character	number-4.jpg	0.0	62.65250235444637	0.3832879548913297
23.0	11.901387614401756	ISI	1.0		7.0	character	number-4.jpg	0.0	63.0357903093377	0.11669151916157716
24.0	12.018079133563333	child	0.0		45.0	face	child-54.jpg	0.0	63.152481828499276	0.38329157711723383
24.0	12.007933882301586	pulse	0.0	t		face	child-54.jpg	0.0	63.14233657723753	
24.0	12.401370710680567	ISI	1.0		7.0	face	child-54.jpg	0.0	63.53577340561651	0.1166996691699751
25.0	12.518070379850542	child	0.0		46.0	face	child-54.jpg	1.0	63.652473074786485	0.3833271956727913
25.0	12.901397575523333	ISI	1.0		7.0	face	child-54.jpg	1.0	64.03580027045928	0.11669272657036345
26.0	13.018090302093697	child	0.0		46.0	face	child-110.jpg	0.0	64.15249299702964	0.38329036970844754
26.0	13.084830721305934	response	0.0	b		face	child-110.jpg	0.0	64.21923341624188	
26.0	13.401380671802144	ISI	1.0		7.0	face	child-110.jpg	0.0	64.53578336673809	0.11669544323967784
27.0	13.518076115041822	child	0.0		46.0	face	child-105.jpg	0.0	64.65247880997777	0.3832472048488853
27.0	13.901323319890707	ISI	1.0		7.0	face	child-105.jpg	0.0	65.03572601482665	0.11668487841416209
28.0	14.01800819830487	child	0.0		45.0	face	child-11.jpg	0.0	65.15241089324081	0.3833030474993393
28.0	14.008111673226722	pulse	0.0	t		face	child-11.jpg	0.0	65.14251436816267	
28.0	14.401311245804209	ISI	1.0		7.0	face	child-11.jpg	0.0	65.53571394074015	0.11669906546558195
29.0	14.51801031126979	child	0.0		46.0	face	child-32.jpg	0.0	65.65241300620573	0.38329519934313794
29.0	14.901305510612929	ISI	1.0		7.0	face	child-32.jpg	0.0	66.03570820554887	0.11667069136228747
30.0	15.017976201975216	child	0.0		46.0	face	child-44.jpg	0.0	66.15237889691116	0.38331331047311323
30.0	15.40128951244833	ISI	1.0		7.0	face	child-44.jpg	0.0	66.53569220738427	0.11669393397869499
31.0	15.517983446427024	child	0.0		46.0	face	child-9.jpg	0.0	66.65238614136297	0.38329218082162697
31.0	15.901275627248651	ISI	1.0		7.0	face	child-9.jpg	0.0	67.0356783221846	0.11671144140427714
32.0	16.01798706865293	child	0.0		45.0	face	child-37.jpg	0.0	67.15238976358887	0.3832731641355167
32.0	16.00775307285494	pulse	0.0	t		face	child-37.jpg	0.0	67.14215576779088	
32.0	16.401260232788445	ISI	1.0		7.0	face	child-37.jpg	0.0	67.53566292772439	0.11669212286551556
33.0	16.51795235565396	child	0.0		46.0	face	child-86.jpg	0.0	67.6523550505899	0.3832819178483078
33.0	16.90123427350227	ISI	1.0		7.0	face	child-86.jpg	0.0	68.03563696843821	0.11670419695246892
34.0	17.017938470454737	child	0.0		46.0	face	child-53.jpg	0.0	68.15234116539068	0.3832964067514695
34.0	17.401234877206207	ISI	1.0		7.0	face	child-53.jpg	0.0	68.53563757214215	0.11668699137908334
35.0	17.51792186858529	child	0.0		46.0	face	child-29.jpg	0.0	68.65232456352123	0.3832864456308016
35.0	17.901208314216092	ISI	1.0		11.0	face	child-29.jpg	0.0	69.03561100915203	0.09999637777400494
36.0	18.001204691990097	baseline	0.0		47.0		baseline	0.0	69.13560738692604	0.3999972833303218
36.0	18.005452959358536	pulse	0.0	t			baseline	0.0	69.13985565429448	
36.0	18.40120197532042	ISI	1.0		11.0		baseline	0.0	69.53560467025636	0.1000006037043022
37.0	18.50120257902472	baseline	0.0		48.0		baseline	0.0	69.63560527396066	0.3999852092438232
37.0	18.901187788268544	ISI	1.0		11.0		baseline	0.0	70.03559048320449	0.09998943517439329
38.0	19.001177223442937	baseline	0.0		48.0		baseline	0.0	70.13557991837888	0.3999803796091328
38.0	19.40115760305207	ISI	1.0		11.0		baseline	0.0	70.53556029798801	0.10001418705178367
39.0	19.501171790103854	baseline	0.0		48.0		baseline	0.0	70.6355744850398	0.4000467870855573
39.0	19.90121857718941	ISI	1.0		11.0		baseline	0.0	71.03562127212535	0.09999486851347683
40.0	20.001213445702888	baseline	0.0		47.0		baseline	0.0	71.13561614063883	0.3999879259131376
40.0	20.00548133346183	pulse	0.0	t			baseline	0.0	71.13988402839777	
40.0	20.401201371616025	ISI	1.0		11.0		baseline	0.0	71.53560406655197	0.10000332037407134
41.0	20.501204691990097	baseline	0.0		48.0		baseline	0.0	71.63560738692604	0.3999849073916266
41.0	20.901189599381723	ISI	1.0		11.0		baseline	0.0	72.03559229431767	0.0999978870349878
42.0	21.00118748641671	baseline	0.0		48.0		baseline	0.0	72.13559018135265	0.3999963777737321
42.0	21.401183864190443	ISI	1.0		11.0		baseline	0.0	72.53558655912639	0.09999999999990905
43.0	21.501183864190352	baseline	0.0		48.0		baseline	0.0	72.6355865591263	0.39996860737483075
43.0	21.901152471565183	ISI	1.0		11.0		baseline	0.0	73.03555516650113	0.10000241481748162
44.0	22.001154886382665	baseline	0.0		47.0		baseline	0.0	73.13555758131861	0.39998098331352594
44.0	22.005401040786182	pulse	0.0	t			baseline	0.0	73.13980373572213	
44.0	22.40113586969619	ISI	1.0		11.0		baseline	0.0	73.53553856463213	0.1000063388955823
45.0	22.501142208591773	baseline	0.0		48.0		baseline	0.0	73.63554490352772	0.3999957740697937
45.0	22.901137982661567	ISI	1.0		11.0		baseline	0.0	74.03554067759751	0.09998792591341044
46.0	23.001125908574977	baseline	0.0		48.0		baseline	0.0	74.13552860351092	0.39999698147812524
46.0	23.401122890053102	ISI	1.0		11.0		baseline	0.0	74.53552558498905	0.09998943517439329
47.0	23.501112325227496	baseline	0.0		48.0		baseline	0.0	74.63551502016344	0.39999637777418684
47.0	23.901108703001682	ISI	1.0		7.0		baseline	0.0	75.03551139793763	0.11664805244981835
48.0	24.0177567554515	child	0.0		45.0	face	child-102.jpg	0.0	75.15215945038744	0.3832985197168455
48.0	24.007710813551967	pulse	0.0	t		face	child-102.jpg	0.0	75.14211350848791	
48.0	24.401055275168346	ISI	1.0		7.0	face	child-102.jpg	0.0	75.53545797010429	0.11669393397869499
49.0	24.51774920914704	child	0.0		46.0	face	child-1.jpg	0.0	75.65215190408298	0.3832604863441702
49.0	24.90100969549121	ISI	1.0		7.0	face	child-1.jpg	0.0	76.03541239042715	0.1166906136054422
50.0	25.017700309096654	child	0.0		46.0	face	child-136.jpg	0.0	76.1521030040326	0.3832837289605777
50.0	25.40098403805723	ISI	1.0		7.0	face	child-136.jpg	0.0	76.53538673299317	0.11672502475221336
51.0	25.517709062809445	child	0.0		46.0	face	child-72.jpg	0.0	76.65211175774539	0.38326169375250174
51.0	25.900970756561946	ISI	1.0		7.0	face	child-72.jpg	0.0	77.03537345149789	0.11669483953573945
52.0	26.017665596097686	child	0.0		45.0	face	child-34.jpg	0.0	77.15206829103363	0.38329791601245233
52.0	26.007555057834907	pulse	0.0	t		face	child-34.jpg	0.0	77.14195775277085	
52.0	26.40096351211014	ISI	1.0		7.0	face	child-34.jpg	0.0	77.53536620704608	0.11669453768308813
53.0	26.517658049793226	child	0.0		46.0	face	child-28.jpg	0.0	77.65206074472917	0.38329429378700297
53.0	26.90095234358023	ISI	1.0		7.0	face	child-28.jpg	0.0	78.03535503851617	0.11668759508347648
54.0	27.017639938663706	child	0.0		46.0	face	child-43.jpg	0.0	78.15204263359965	0.3832810122912633
54.0	27.40092095095497	ISI	1.0		7.0	face	child-43.jpg	0.0	78.53532364589091	0.11668427470976894
55.0	27.517605225664738	child	0.0		46.0	face	child-26.jpg	0.0	78.65200792060068	0.38332598826355024
55.0	27.90093121392829	ISI	1.0		7.0	face	child-26.jpg	0.0	79.03533390886423	0.11667491729258472
56.0	28.017606131220873	child	0.0		45.0	face	child-94.jpg	0.0	79.15200882615682	0.38328976600450915
56.0	28.0074949892537	pulse	0.0	t		face	child-94.jpg	0.0	79.14189768418964	
56.0	28.400895897225382	ISI	1.0		7.0	face	child-94.jpg	0.0	79.53529859216133	0.11669936731777852
57.0	28.51759526454316	child	0.0		46.0	face	child-39.jpg	0.0	79.6519979594791	0.38327799376975236
57.0	28.900873258312913	ISI	1.0		7.0	face	child-39.jpg	0.0	80.03527595324886	0.1167192895604785
58.0	29.01759254787339	child	0.0		46.0	face	child-138.jpg	0.0	80.15199524280933	0.383270145613551
58.0	29.400862693486943	ISI	1.0		7.0	face	child-138.jpg	0.0	80.53526538842289	0.11668035063166826
59.0	29.51754304411861	child	0.0		46.0	face	child-13.jpg	0.0	80.65194573905455	0.38330576416910844
59.0	29.90084880828772	ISI	1.0		7.0	face	child-13.jpg	0.0	81.03525150322366	0.11667823766629226
60.0	30.01752704595401	child	0.0		45.0	face	child-30.jpg	0.0	81.15192974088995	0.3833075752818331
60.0	30.007602750476963	pulse	0.0	t		face	child-30.jpg	0.0	81.1420054454129	
60.0	30.400834621235845	ISI	1.0		7.0	face	child-30.jpg	0.0	81.53523731617179	0.11670449880466549
61.0	30.51753912004051	child	0.0		46.0	face	child-108.jpg	0.0	81.65194181497645	0.3833235734464324
61.0	30.900862693486943	ISI	1.0		7.0	face	child-108.jpg	0.0	82.03526538842289	0.11669604694407099
62.0	31.017558740431014	child	0.0		46.0	face	child-42.jpg	0.0	82.15196143536696	0.3832831252566393
62.0	31.400841865687653	ISI	1.0		7.0	face	child-42.jpg	0.0	82.5352445606236	0.11668910434445934
63.0	31.517530970032112	child	0.0		46.0	face	child-56.jpg	0.0	82.65193366496806	0.38326169375250174
63.0	31.900792663784614	ISI	1.0		7.0	face	child-56.jpg	0.0	83.03519535872056	0.11669453768354288
64.0	32.01748720146816	child	0.0		45.0	face	child-15.jpg	0.0	83.1518898964041	0.3832994252734352
64.0	32.00748412257599	pulse	0.0	t		face	child-15.jpg	0.0	83.14188681751193	
64.0	32.40078662674159	ISI	1.0		7.0	face	child-15.jpg	0.0	83.53518932167754	0.11669574509187441
65.0	32.51748237183347	child	0.0		46.0	face	child-137.jpg	0.0	83.65188506676941	0.38327920117853864
65.0	32.900761573012005	ISI	1.0		7.0	face	child-137.jpg	0.0	84.03516426794795	0.1167011784305032
66.0	33.01746275144251	child	0.0		46.0	face	child-5.jpg	0.0	84.15186544637845	0.3832816159961112
66.0	33.40074436743862	ISI	1.0		7.0	face	child-5.jpg	0.0	84.53514706237456	0.11668518026590391
67.0	33.51742954770452	child	0.0		46.0	face	child-120.jpg	0.0	84.65183224264047	0.383303953055929
67.0	33.90073350076045	ISI	1.0		7.0	face	child-120.jpg	0.0	85.0351361956964	0.11669393397914973
68.0	34.0174274347396	child	0.0		45.0	face	child-143.jpg	0.0	85.15183012967555	0.38329036970844754
68.0	34.00757286711223	pulse	0.0	t		face	child-143.jpg	0.0	85.14197556204817	
68.0	34.40071780444805	ISI	1.0		7.0	face	child-143.jpg	0.0	85.53512049938399	0.11670117843095795
69.0	34.51741898287901	child	0.0		46.0	face	child-41.jpg	0.0	85.65182167781495	0.38328554007375715
69.0	34.900704522952765	ISI	1.0		7.0	face	child-41.jpg	0.0	86.03510721788871	0.11668548211810048
70.0	35.017390005070865	child	0.0		46.0	face	child-48.jpg	0.0	86.15179270000681	0.38329882156904205
70.0	35.40068882663991	ISI	1.0		7.0	face	child-48.jpg	0.0	86.53509152157585	0.11670148028315452
71.0	35.51739030692306	child	0.0		46.0	face	child-109.jpg	0.0	86.651793001859	0.38328493636981875
71.0	35.90067524329288	ISI	1.0		7.0	face	child-109.jpg	0.0	87.03507793822882	0.11669453768308813
72.0	36.01736978097597	instrument	0.0		45.0	object	instrument-46.jpg	0.0	87.15177247591191	0.38328916229966126
72.0	36.009041981598784	pulse	0.0	t		object	instrument-46.jpg	0.0	87.14344467653473	
72.0	36.40065894327563	ISI	1.0		7.0	object	instrument-46.jpg	0.0	87.53506163821157	0.11668518026635866
73.0	36.51734412354199	instrument	0.0		46.0	object	instrument-121.jpg	0.0	87.65174681847793	0.38329519934313794
73.0	36.90063932288513	ISI	1.0		7.0	object	instrument-121.jpg	0.0	88.03504201782107	0.1167054043612552
74.0	37.01734472724638	instrument	0.0		46.0	object	instrument-39.jpg	0.0	88.15174742218232	0.3832942937865482
74.0	37.40063902103293	ISI	1.0		7.0	object	instrument-39.jpg	0.0	88.53504171596887	0.11668970804839773
75.0	37.51732872908133	instrument	0.0		46.0	object	instrument-124.jpg	0.0	88.65173142401727	0.3833172345512139
75.0	37.90064596363254	ISI	1.0		7.0	object	instrument-124.jpg	0.0	89.03504865856848	0.11669665064846413
76.0	38.017342614281006	instrument	0.0		45.0	object	instrument-48.jpg	0.0	89.15174530921695	0.3832773900653592
76.0	38.008964103740254	pulse	0.0	t		object	instrument-48.jpg	0.0	89.1433667986762	
76.0	38.400620004346365	ISI	1.0		7.0	object	instrument-48.jpg	0.0	89.53502269928231	0.1166990654660367
77.0	38.5173190698124	instrument	0.0		46.0	object	instrument-6.jpg	0.0	89.65172176474834	0.3832752770999832
77.0	38.900594346912385	ISI	1.0		7.0	object	instrument-6.jpg	0.0	90.03499704184833	0.1166788413706854
78.0	39.01727318828307	instrument	0.0		46.0	object	instrument-27.jpg	0.0	90.15167588321901	0.3832979160129071
78.0	39.40057110429598	ISI	1.0		7.0	object	instrument-27.jpg	0.0	90.53497379923192	0.1166842747093142
79.0	39.51725537900529	instrument	0.0		46.0	object	instrument-31.jpg	0.0	90.65165807394123	0.38329972712563176
79.0	39.90055510613092	ISI	1.0		7.0	object	instrument-31.jpg	0.0	91.03495780106687	0.11669453768354288
80.0	40.017249643814466	instrument	0.0		45.0	object	instrument-96.jpg	0.0	91.15165233875041	0.3832985197168455
80.0	40.00912046316171	pulse	0.0	t		object	instrument-96.jpg	0.0	91.14352315809765	
80.0	40.40054816353131	ISI	1.0		7.0	object	instrument-96.jpg	0.0	91.53495085846725	0.11669302842256002
81.0	40.51724119195387	instrument	0.0		46.0	object	instrument-51.jpg	0.0	91.65164388688981	0.38327980488247704
81.0	40.90052099683635	ISI	1.0		8.0	object	instrument-51.jpg	0.0	92.03492369177229	0.1166863876746902
82.0	41.01720738451104	instrument	0.0		46.0	object	instrument-51.jpg	1.0	92.15161007944698	0.3832994252734352
82.0	41.400506809784474	ISI	1.0		7.0	object	instrument-51.jpg	1.0	92.53490950472042	0.11668699137953809
83.0	41.51719380116401	instrument	0.0		46.0	object	instrument-68.jpg	0.0	92.65159649609996	0.3833133104726585
83.0	41.55897647967913	response	0.0	b		object	instrument-68.jpg	0.0	92.69337917461507	
83.0	41.90050711163667	ISI	1.0		11.0	object	instrument-68.jpg	0.0	93.03490980657261	0.09999758518279123
84.0	42.00050469681946	baseline	0.0		47.0		baseline	0.0	93.1349073917554	0.39997736108762183
84.0	42.00478526236975	pulse	0.0	t			baseline	0.0	93.1391879573057	
84.0	42.400482057907084	ISI	1.0		11.0		baseline	0.0	93.53488475284303	0.10000935741709327
85.0	42.50049141532418	baseline	0.0		48.0		baseline	0.0	93.63489411026012	0.39998883147018205
85.0	42.90048024679436	ISI	1.0		11.0		baseline	0.0	94.0348829417303	0.09999426480862894
86.0	43.00047451160299	baseline	0.0		48.0		baseline	0.0	94.13487720653893	0.3999849073916266
86.0	43.400459418994615	ISI	1.0		11.0		baseline	0.0	94.53486211393056	0.10000150926089191
87.0	43.50046092825551	baseline	0.0		48.0		baseline	0.0	94.63486362319145	0.3999812851657225
87.0	43.90044221342123	ISI	1.0		11.0		baseline	0.0	95.03484490835717	0.10000120740869534
88.0	44.000443420829924	baseline	0.0		47.0		baseline	0.0	95.13484611576587	0.3999891333223786
88.0	44.00471040303273	pulse	0.0	t			baseline	0.0	95.13911309796867	
88.0	44.4004325541523	ISI	1.0		11.0		baseline	0.0	95.53483524908825	0.09999396295643237
89.0	44.500426517108735	baseline	0.0		48.0		baseline	0.0	95.63482921204468	0.40005312598123055
89.0	44.900479643089966	ISI	1.0		11.0		baseline	0.0	96.03488233802591	0.10001056482542481
90.0	45.00049020791539	baseline	0.0		48.0		baseline	0.0	96.13489290285133	0.3999640795927917
90.0	45.40045428750818	ISI	1.0		11.0		baseline	0.0	96.53485698244413	0.10000935741709327
91.0	45.500463644925276	baseline	0.0		48.0		baseline	0.0	96.63486633986122	0.3999830962784472
91.0	45.90044674120372	ISI	1.0		11.0		baseline	0.0	97.03484943613967	0.10000482963459945
92.0	46.00045157083832	baseline	0.0		47.0		baseline	0.0	97.13485426577427	0.39998128516617726
92.0	46.00474209751019	pulse	0.0	t			baseline	0.0	97.13914479244613	
92.0	46.4004328560045	ISI	1.0		11.0		baseline	0.0	97.53483555094044	0.10000996112103167
93.0	46.50044281712553	baseline	0.0		48.0		baseline	0.0	97.63484551206147	0.3999836999832951
93.0	46.900426517108826	ISI	1.0		11.0		baseline	0.0	98.03482921204477	0.09999034073052826
94.0	47.000416857839355	baseline	0.0		48.0		baseline	0.0	98.1348195527753	0.3999966796263834
94.0	47.40041353746574	ISI	1.0		11.0		baseline	0.0	98.53481623240168	0.1000006037043022
95.0	47.50041414117004	baseline	0.0		48.0		baseline	0.0	98.63481683610598	0.39996619255771293
95.0	47.90038033372775	ISI	1.0		11.0		baseline	0.0	99.0347830286637	0.10001297964299738
96.0	48.00039331337075	baseline	0.0		47.0		baseline	0.0	99.1347960083067	0.3999891333219239
96.0	48.00448250464842	pulse	0.0	t			baseline	0.0	99.13888519958437	
96.0	48.400382446692674	ISI	1.0		11.0		baseline	0.0	99.53478514162862	0.10000301852187476
97.0	48.50038546521455	baseline	0.0		48.0		baseline	0.0	99.63478816015049	0.3999737388617177
97.0	48.90035920407627	ISI	1.0		11.0		baseline	0.0	100.03476189901221	0.10001147038201452
98.0	49.00037067445828	baseline	0.0		48.0		baseline	0.0	100.13477336939422	0.3999752481227006
98.0	49.40034592258098	ISI	1.0		11.0		baseline	0.0	100.53474861751693	0.10000543333899259
99.0	49.500351355919975	baseline	0.0		48.0		baseline	0.0	100.63475405085592	0.3999767573832287
99.0	49.9003281133032	ISI	1.0		11.0		baseline	0.0	101.03473080823915	0.10000573519118916
100.0	50.00033384849439	baseline	0.0		47.0		baseline	0.0	101.13473654343034	0.3999803796091328
100.0	50.00461592330521	pulse	0.0	t			baseline	0.0	101.13901861824115	
100.0	50.400314228103525	ISI	1.0		11.0		baseline	0.0	101.53471692303947	0.09999607592180837
101.0	50.500310304025334	baseline	0.0		48.0		baseline	0.0	101.63471299896128	0.39999788703471495
101.0	50.90030819106005	ISI	1.0		11.0		baseline	0.0	102.03471088599599	0.0999978870349878
102.0	51.000306078095036	baseline	0.0		48.0		baseline	0.0	102.13470877303098	0.3999731351573246
102.0	51.40027921325236	ISI	1.0		11.0		baseline	0.0	102.5346819081883	0.10001630001670492
103.0	51.500295513269066	baseline	0.0		48.0		baseline	0.0	102.63469820820501	0.3999758518270937
103.0	51.90027136509616	ISI	1.0		11.0		baseline	0.0	103.0346740600321	0.10000452778240287
104.0	52.00027589287856	baseline	0.0		47.0		baseline	0.0	103.1346785878145	0.399977964792015
104.0	52.00458121030624	pulse	0.0	t			baseline	0.0	103.13898390524218	
104.0	52.40025385767058	ISI	1.0		11.0		baseline	0.0	103.53465655260652	0.10001328149519395
105.0	52.50026713916577	baseline	0.0		48.0		baseline	0.0	103.63466983410171	0.3999812851657225
105.0	52.900248424331494	ISI	1.0		11.0		baseline	0.0	104.03465111926744	0.0999978870349878
106.0	53.00024631136648	baseline	0.0		48.0		baseline	0.0	104.13464900630242	0.39998551109601976
106.0	53.4002318224625	ISI	1.0		11.0		baseline	0.0	104.53463451739844	0.10000301852142002
107.0	53.50023484098392	baseline	0.0		48.0		baseline	0.0	104.63463753591986	0.3999824925745088
107.0	53.90021733355843	ISI	1.0		7.0		baseline	0.0	105.03462002849437	0.11665378764109846
108.0	54.01687112119953	corridor	0.0		45.0	place	corridor-15.jpg	0.0	105.15127381613547	0.3832958030475311
108.0	54.008762768346514	pulse	0.0	t		place	corridor-15.jpg	0.0	105.14316546328246	
108.0	54.40016692424706	ISI	1.0		7.0	place	corridor-15.jpg	0.0	105.534569619183	0.12500905556498765
109.0	54.52517597981205	corridor	0.0		45.0	place	corridor-77.jpg	0.0	105.65957867474799	0.374975851826548
109.0	54.900151831638595	ISI	1.0		7.0	place	corridor-77.jpg	0.0	106.03455452657454	0.11669031175324562
110.0	55.01684214339184	corridor	0.0		46.0	place	corridor-24.jpg	0.0	106.15124483832778	0.38325414744849695
110.0	55.40009629084034	ISI	1.0		7.0	place	corridor-24.jpg	0.0	106.53449898577628	0.116657108014806
111.0	55.516753398855144	corridor	0.0		46.0	place	corridor-9.jpg	0.0	106.65115609379109	0.38332991234210567
111.0	55.90008331119725	ISI	1.0		7.0	place	corridor-9.jpg	0.0	107.03448600613319	0.11667733210970255
112.0	56.01676064330695	corridor	0.0		45.0	place	corridor-140.jpg	0.0	107.1511633382429	0.38331270676917484
112.0	56.008646253410916	pulse	0.0	t		place	corridor-140.jpg	0.0	107.14304894834686	
112.0	56.40007335007613	ISI	1.0		7.0	place	corridor-140.jpg	0.0	107.53447604501207	0.1166948395352847
113.0	56.51676818961141	corridor	0.0		46.0	place	corridor-86.jpg	0.0	107.65117088454735	0.3832906715606441
113.0	56.900058861172056	ISI	1.0		7.0	place	corridor-86.jpg	0.0	108.034461556108	0.11669302842256002
114.0	57.016751889594616	corridor	0.0		46.0	place	corridor-90.jpg	0.0	108.15115458453056	0.3832773900653592
114.0	57.400029279659975	ISI	1.0		7.0	place	corridor-90.jpg	0.0	108.53443197459592	0.11669815990899224
115.0	57.51672743956897	corridor	0.0		46.0	place	corridor-12.jpg	0.0	108.65113013450491	0.38329489749094137
115.0	57.90002233705991	ISI	1.0		7.0	place	corridor-12.jpg	0.0	109.03442503199585	0.1166942358313463
116.0	58.016716572891255	corridor	0.0		45.0	place	corridor-92.jpg	0.0	109.1511192678272	0.3832906715606441
116.0	58.00856656443921	pulse	0.0	t		place	corridor-92.jpg	0.0	109.14296925937515	
116.0	58.4000072444519	ISI	1.0		7.0	place	corridor-92.jpg	0.0	109.53440993938784	0.11670238583928949
117.0	58.51670963029119	corridor	0.0		46.0	place	corridor-36.jpg	0.0	109.65111232522713	0.3832918789694304
117.0	58.90000150926062	ISI	1.0		7.0	place	corridor-36.jpg	0.0	110.03440420419656	0.1166885006400662
118.0	59.016690009900685	corridor	0.0		46.0	place	corridor-36.jpg	1.0	110.15109270483663	0.3832958030475311
118.0	59.399985812948216	ISI	1.0		7.0	place	corridor-36.jpg	1.0	110.53438850788416	0.1166900099005943
119.0	59.51667582284881	corridor	0.0		46.0	place	corridor-95.jpg	0.0	110.65107851778475	0.38329399193435165
119.0	59.65842801429562	response	0.0	b		place	corridor-95.jpg	0.0	110.79283070923157	
119.0	59.89996981478316	ISI	1.0		7.0	place	corridor-95.jpg	0.0	111.0343725097191	0.1166857839707518
120.0	60.016655598753914	limb	0.0		45.0	body	limb-106.jpg	0.0	111.15105829368986	0.38329670860366605
120.0	60.005735794837165	pulse	0.0	t		body	limb-106.jpg	0.0	111.14013848977311	
120.0	60.39995230735758	ISI	1.0		7.0	body	limb-106.jpg	0.0	111.53435500229352	0.10835677718523584
121.0	60.508309084542816	limb	0.0		47.0	body	limb-25.jpg	0.0	111.64271177947876	0.3916338653980347
121.0	60.89994294994085	ISI	1.0		6.0	body	limb-25.jpg	0.0	112.0343456448768	0.10836341793219617
122.0	61.00830636787305	limb	0.0		47.0	body	limb-41.jpg	0.0	112.14270906280899	0.3916444302240052
122.0	61.39995079809705	ISI	1.0		6.0	body	limb-41.jpg	0.0	112.534353493033	0.11670117843095795
123.0	61.51665197652801	limb	0.0		46.0	body	limb-122.jpg	0.0	112.65105467146395	0.3832906715606441
123.0	61.899942648088654	ISI	1.0		6.0	body	limb-122.jpg	0.0	113.0343453430246	0.11668819878741488
124.0	62.01663084687607	limb	0.0		45.0	body	limb-108.jpg	0.0	113.15103354181201	0.3832900678567057
124.0	62.0039542633599	pulse	0.0	t		body	limb-108.jpg	0.0	113.13835695829584	
124.0	62.399920914732775	ISI	1.0		6.0	body	limb-108.jpg	0.0	113.53432360966872	0.11670208398709292
125.0	62.51662299871987	limb	0.0		46.0	body	limb-135.jpg	0.0	113.65102569365581	0.3832825215522462
125.0	62.899905520272114	ISI	1.0		6.0	body	limb-135.jpg	0.0	114.03430821520806	0.11668246359658951
126.0	63.0165879838687	limb	0.0		46.0	body	limb-12.jpg	0.0	114.15099067880465	0.3833121030647817
126.0	63.399900086933485	ISI	1.0		6.0	body	limb-12.jpg	0.0	114.53430278186943	0.1166815580399998
127.0	63.516581644973485	limb	0.0		46.0	body	limb-68.jpg	0.0	114.65098433990943	0.3833021419427496
127.0	63.899883786916234	ISI	1.0		6.0	body	limb-68.jpg	0.0	115.03428648185218	0.11669031175324562
128.0	64.01657409866948	limb	0.0		45.0	body	limb-109.jpg	0.0	115.15097679360542	0.3832861437781503
128.0	64.00732051870273	pulse	0.0	t		body	limb-109.jpg	0.0	115.14172321363867	
128.0	64.39986024244763	ISI	1.0		7.0	body	limb-109.jpg	0.0	115.53426293738357	0.11668850063961145
129.0	64.51654874308724	limb	0.0		46.0	body	limb-111.jpg	0.0	115.65095143802318	0.38326561783105717
129.0	64.8998143609183	ISI	1.0		7.0	body	limb-111.jpg	0.0	116.03421705585424	0.11670027287436824
130.0	65.01651463379267	limb	0.0		46.0	body	limb-130.jpg	0.0	116.15091732872861	0.3832852382220153
130.0	65.39979987201468	ISI	1.0		7.0	body	limb-130.jpg	0.0	116.53420256695063	0.11669876361338538
131.0	65.51649863562807	limb	0.0		46.0	body	limb-141.jpg	0.0	116.65090133056401	0.38329399193435165
131.0	65.89979262756242	ISI	1.0		7.0	body	limb-141.jpg	0.0	117.03419532249836	0.1166857839707518
132.0	66.01647841153317	number	0.0		45.0	character	number-119.jpg	0.0	117.15088110646911	0.3832982178646489
132.0	66.0083220641859	pulse	0.0	t		character	number-119.jpg	0.0	117.14272475912185	
132.0	66.39977662939782	ISI	1.0		7.0	character	number-119.jpg	0.0	117.53417932433376	0.11669302842256002
133.0	66.51646965782038	number	0.0		46.0	character	number-122.jpg	0.0	117.65087235275632	0.38329399193435165
133.0	66.89976364975473	ISI	1.0		7.0	character	number-122.jpg	0.0	118.03416634469068	0.11668004877947169
134.0	67.0164436985342	number	0.0		46.0	character	number-50.jpg	0.0	118.15084639347015	0.38329610489972765
134.0	67.39973980343393	ISI	1.0		7.0	character	number-50.jpg	0.0	118.53414249836987	0.11669785805679567
135.0	67.51643766149073	number	0.0		46.0	character	number-130.jpg	0.0	118.65084035642667	0.3832825215522462
135.0	67.89972018304297	ISI	1.0		7.0	character	number-130.jpg	0.0	119.03412287797892	0.11668095433560666
136.0	68.01640113737858	number	0.0		45.0	character	number-69.jpg	0.0	119.15080383231452	0.38331632899507895
136.0	68.0085550940571	pulse	0.0	t		character	number-69.jpg	0.0	119.14295778899304	
136.0	68.39971746637366	ISI	1.0		7.0	character	number-69.jpg	0.0	119.5341201613096	0.11669393397869499
137.0	68.51641140035235	number	0.0		46.0	character	number-68.jpg	0.0	119.6508140952883	0.3832825215522462
137.0	68.8996939219046	ISI	1.0		7.0	character	number-68.jpg	0.0	120.03409661684054	0.11670027287436824
138.0	69.01639419477897	number	0.0		46.0	character	number-110.jpg	0.0	120.15079688971491	0.3832942937865482
138.0	69.39968848856552	ISI	1.0		7.0	character	number-110.jpg	0.0	120.53409118350146	0.11669151916157716
139.0	69.5163800077271	number	0.0		46.0	character	number-62.jpg	0.0	120.65078270266304	0.38328614377860504
139.0	69.8996661515057	ISI	1.0		7.0	character	number-62.jpg	0.0	121.03406884644164	0.11669453768308813
140.0	70.01636068918879	number	0.0		45.0	character	number-97.jpg	0.0	121.15076338412473	0.3832897660040544
140.0	70.00652332713526	pulse	0.0	t		character	number-97.jpg	0.0	121.1409260220712	
140.0	70.39965045519284	ISI	1.0		7.0	character	number-97.jpg	0.0	121.53405315012878	0.11669363212695316
141.0	70.5163440873198	number	0.0		46.0	character	number-80.jpg	0.0	121.65074678225574	0.38333293086361664
141.0	70.89967701818341	ISI	1.0		7.0	character	number-80.jpg	0.0	122.03407971311935	0.11669151916157716
142.0	71.01636853734499	number	0.0		46.0	character	number-78.jpg	0.0	122.15077123228093	0.3832909734128407
142.0	71.39965951075783	ISI	1.0		7.0	character	number-78.jpg	0.0	122.53406220569377	0.11669604694407099
143.0	71.5163555577019	number	0.0		46.0	character	number-73.jpg	0.0	122.65075825263784	0.3832520344835757
143.0	71.89960759218548	ISI	1.0		7.0	character	number-73.jpg	0.0	123.03401028712142	0.11669333027475659
144.0	72.01630092246023	instrument	0.0		45.0	object	instrument-136.jpg	0.0	123.15070361739618	0.3832982178646489
144.0	72.00641737702517	pulse	0.0	t		object	instrument-136.jpg	0.0	123.14082007196112	
144.0	72.39959914032488	ISI	1.0		7.0	object	instrument-136.jpg	0.0	123.53400183526082	0.11666616357979365
145.0	72.51626530390467	instrument	0.0		46.0	object	instrument-33.jpg	0.0	123.65066799884062	0.3833190456639386
145.0	72.89958434956861	ISI	1.0		7.0	object	instrument-33.jpg	0.0	124.03398704450456	0.11668035063166826
146.0	73.01626470020028	instrument	0.0		46.0	object	instrument-99.jpg	0.0	124.15066739513622	0.38330485861251873
146.0	73.3995695588128	ISI	1.0		7.0	object	instrument-99.jpg	0.0	124.53397225374874	0.11669151916157716
147.0	73.51626107797438	instrument	0.0		46.0	object	instrument-17.jpg	0.0	124.65066377291032	0.383301840090553
147.0	73.89956291806493	ISI	1.0		7.0	object	instrument-17.jpg	0.0	125.03396561300087	0.11667823766629226
148.0	74.01624115573122	instrument	0.0		45.0	object	instrument-17.jpg	1.0	125.15064385066717	0.3832927845260201
148.0	74.00654324937796	pulse	0.0	t		object	instrument-17.jpg	1.0	125.1409459443139	
148.0	74.39953394025724	ISI	1.0		7.0	object	instrument-17.jpg	1.0	125.53393663519319	0.11669846176118881
148.0	74.4363040617227	response	1.0	b		object	instrument-17.jpg	1.0	125.57070675665864	
149.0	74.51623240201843	instrument	0.0		46.0	object	instrument-138.jpg	0.0	125.65063509695437	0.38328493636981875
149.0	74.89951733838825	ISI	1.0		7.0	object	instrument-138.jpg	0.0	126.0339200333242	0.11670057472656481
150.0	75.01621791311482	instrument	0.0		46.0	object	instrument-144.jpg	0.0	126.15062060805076	0.3832840308127743
150.0	75.39950194392759	ISI	1.0		7.0	object	instrument-144.jpg	0.0	126.53390463886353	0.11669997102217167
151.0	75.51620191494976	instrument	0.0		46.0	object	instrument-29.jpg	0.0	126.6506046098857	0.3832852382220153
151.0	75.89948715317178	ISI	1.0		7.0	object	instrument-29.jpg	0.0	127.03388984810772	0.11669333027430184
152.0	76.01618048344608	instrument	0.0		45.0	object	instrument-30.jpg	0.0	127.15058317838202	0.38328372896103247
152.0	76.00631686025417	pulse	0.0	t		object	instrument-30.jpg	0.0	127.14071955519012	
152.0	76.39946421240711	ISI	1.0		7.0	object	instrument-30.jpg	0.0	127.53386690734305	0.1167214025258545
153.0	76.51618561493297	instrument	0.0		46.0	object	instrument-3.jpg	0.0	127.65058830986891	0.38326773079643317
153.0	76.8994533457294	ISI	1.0		7.0	object	instrument-3.jpg	0.0	128.03385604066534	0.1166842747093142
154.0	77.01613762043871	instrument	0.0		46.0	object	instrument-93.jpg	0.0	128.15054031537466	0.3833015382388112
154.0	77.39943915867752	ISI	1.0		7.0	object	instrument-93.jpg	0.0	128.53384185361347	0.1166863876746902
155.0	77.51612554635221	instrument	0.0		46.0	object	instrument-9.jpg	0.0	128.65052824128816	0.3833465142110981
155.0	77.89947206056331	ISI	1.0		7.0	object	instrument-9.jpg	0.0	129.03387475549926	0.11668276544878609
156.0	78.0161548260121	instrument	0.0		45.0	object	instrument-77.jpg	0.0	129.15055752094804	0.38329519934313794
156.0	78.006173782328	pulse	0.0	t		object	instrument-77.jpg	0.0	129.14057647726395	
156.0	78.39945002535524	ISI	1.0		7.0	object	instrument-77.jpg	0.0	129.53385272029118	0.11669574509187441
157.0	78.51614577044711	instrument	0.0		46.0	object	instrument-77.jpg	1.0	129.65054846538305	0.383253241892362
157.0	78.89939901233947	ISI	1.0		7.0	object	instrument-77.jpg	1.0	130.03380170727542	0.11668035063166826
158.0	79.01607936297114	instrument	0.0		46.0	object	instrument-36.jpg	0.0	130.15048205790708	0.3833042549081256
158.0	79.26616780565519	response	0.0	b		object	instrument-36.jpg	0.0	130.40057050059113	
158.0	79.39938361787927	ISI	1.0		7.0	object	instrument-36.jpg	0.0	130.5337863128152	0.11670268769148606
159.0	79.51608630557075	instrument	0.0		46.0	object	instrument-73.jpg	0.0	130.6504890005067	0.3832897660040544
159.0	79.8993760715748	ISI	1.0		7.0	object	instrument-73.jpg	0.0	131.03377876651075	0.11667401173644976
160.0	80.01605008331126	instrument	0.0		45.0	object	instrument-139.jpg	0.0	131.1504527782472	0.3832991234212386
160.0	80.00641073627776	pulse	0.0	t		object	instrument-139.jpg	0.0	131.1408134312137	
160.0	80.3993492067325	ISI	1.0		7.0	object	instrument-139.jpg	0.0	131.53375190166844	0.11669242471771213
161.0	80.51604163145021	instrument	0.0		46.0	object	instrument-43.jpg	0.0	131.65044432638615	0.38330787713448444
161.0	80.89934950858469	ISI	1.0		7.0	object	instrument-43.jpg	0.0	132.03375220352063	0.11668880249180802
162.0	81.0160383110765	instrument	0.0		46.0	object	instrument-120.jpg	0.0	132.15044100601244	0.38328674748254343
162.0	81.39932505855904	ISI	1.0		7.0	object	instrument-120.jpg	0.0	132.533727753495	0.11669634879626756
163.0	81.51602140735531	instrument	0.0		46.0	object	instrument-15.jpg	0.0	132.65042410229125	0.38328704933474
163.0	81.89930845669005	ISI	1.0		7.0	object	instrument-15.jpg	0.0	133.033711151626	0.1166921228659703
164.0	82.01600057955602	instrument	0.0		45.0	object	instrument-113.jpg	0.0	133.15040327449196	0.3832945956387448
164.0	82.00598452102076	pulse	0.0	t		object	instrument-113.jpg	0.0	133.1403872159567	
164.0	82.39929517519477	ISI	1.0		7.0	object	instrument-113.jpg	0.0	133.5336978701307	0.11670057472656481
165.0	82.51599574992133	instrument	0.0		46.0	object	instrument-66.jpg	0.0	133.65039844485727	0.38329157711723383
165.0	82.89928732703856	ISI	1.0		7.0	object	instrument-66.jpg	0.0	134.0336900219745	0.11669151916157716
166.0	83.01597884620014	instrument	0.0		46.0	object	instrument-128.jpg	0.0	134.15038154113608	0.3832813141434599
166.0	83.3992601603436	ISI	1.0		7.0	object	instrument-128.jpg	0.0	134.53366285527954	0.11668699137908334
167.0	83.51594715172268	instrument	0.0		46.0	object	instrument-20.jpg	0.0	134.65034984665863	0.3833099900994057
167.0	83.89925714182209	ISI	1.0		7.0	object	instrument-20.jpg	0.0	135.03365983675803	0.11668668952688677
168.0	84.01594383134898	limb	0.0		45.0	body	limb-14.jpg	0.0	135.15034652628492	0.38329882156904205
168.0	84.00585170606837	pulse	0.0	t		body	limb-14.jpg	0.0	135.1402544010043	
168.0	84.39924265291802	ISI	1.0		7.0	body	limb-14.jpg	0.0	135.53364534785396	0.11669182101377373
169.0	84.5159344739318	limb	0.0		46.0	body	limb-79.jpg	0.0	135.65033716886774	0.3833247808552187
169.0	84.89925925478701	ISI	1.0		7.0	body	limb-79.jpg	0.0	136.03366194972295	0.11669121730983534
170.0	85.01595047209685	limb	0.0		46.0	body	limb-50.jpg	0.0	136.1503531670328	0.3832936900821551
170.0	85.399244162179	ISI	1.0		7.0	body	limb-50.jpg	0.0	136.53364685711495	0.11669363212649841
171.0	85.5159377943055	limb	0.0		46.0	body	limb-100.jpg	0.0	136.65034048924144	0.38325837337924895
171.0	85.89919616768475	ISI	1.0		7.0	body	limb-100.jpg	0.0	137.0335988626207	0.1167054043612552
172.0	86.015901572046	limb	0.0		45.0	body	limb-126.jpg	0.0	137.15030426698195	0.38326863635256814
172.0	86.00573156890687	pulse	0.0	t		body	limb-126.jpg	0.0	137.1401342638428	
172.0	86.39917020839857	ISI	1.0		7.0	body	limb-126.jpg	0.0	137.53357290333452	0.11667793581409569
173.0	86.51584814421267	limb	0.0		46.0	body	limb-70.jpg	0.0	137.6502508391486	0.3833108956559954
173.0	86.89915903986866	ISI	1.0		7.0	body	limb-70.jpg	0.0	138.0335617348046	0.1166842747093142
174.0	87.01584331457798	limb	0.0		46.0	body	limb-132.jpg	0.0	138.15024600951392	0.38331059380379884
174.0	87.39915390838178	ISI	1.0		7.0	body	limb-132.jpg	0.0	138.53355660331772	0.11669151916157716
175.0	87.51584542754335	limb	0.0		46.0	body	limb-9.jpg	0.0	138.6502481224793	0.3832942937865482
175.0	87.8991397213299	ISI	1.0		7.0	body	limb-9.jpg	0.0	139.03354241626585	0.11668518026635866
176.0	88.01582490159626	limb	0.0		46.0	body	limb-53.jpg	0.0	139.1502275965322	0.3916314505804621
176.0	88.00579254304375	pulse	0.0	t		body	limb-53.jpg	0.0	139.1401952379797	
176.0	88.40745635217672	ISI	1.0		7.0	body	limb-53.jpg	0.0	139.54185904711267	0.11669634879626756
177.0	88.52415270097299	limb	0.0		46.0	body	limb-53.jpg	1.0	139.65855539590893	0.38328855859572286
177.0	88.90744125956871	ISI	1.0		7.0	body	limb-53.jpg	1.0	140.04184395450466	0.1166731061794053
178.0	89.02411436574812	limb	0.0		46.0	body	limb-46.jpg	0.0	140.15851706068406	0.3833145178818995
178.0	89.05754539856525	response	0.0	b		body	limb-46.jpg	0.0	140.1919480935012	
178.0	89.40742888363002	ISI	1.0		7.0	body	limb-46.jpg	0.0	140.54183157856596	0.11669151916157716
179.0	89.5241204027916	limb	0.0		46.0	body	limb-123.jpg	0.0	140.65852309772754	0.3832813141434599
179.0	89.90740171693506	ISI	1.0		7.0	body	limb-123.jpg	0.0	141.041804411871	0.1166921228659703
179.0	89.99918379174596	pulse	1.0	t		body	limb-123.jpg	0.0	141.1335864866819	
180.0	90.02409383980103	corridor	0.0		46.0	place	corridor-10.jpg	0.0	141.15849653473697	0.38329489749094137
180.0	90.40738873729197	ISI	1.0		6.0	place	corridor-10.jpg	0.0	141.5417914322279	0.10836794571469
181.0	90.51575668300666	corridor	0.0		47.0	place	corridor-61.jpg	0.0	141.6501593779426	0.3916254135374402
181.0	90.9073820965441	ISI	1.0		7.0	place	corridor-61.jpg	0.0	142.04178479148004	0.1166906136054422
182.0	91.02407271014954	corridor	0.0		46.0	place	corridor-78.jpg	0.0	142.15847540508548	0.38329580304707633
182.0	91.40736851319662	ISI	1.0		7.0	place	corridor-78.jpg	0.0	142.54177120813256	0.11668940619665591
183.0	91.52405791939327	corridor	0.0		46.0	place	corridor-119.jpg	0.0	142.65846061432921	0.383320856777118
183.0	91.90737877617039	ISI	1.0		7.0	place	corridor-119.jpg	0.0	143.04178147110633	0.12503561855555745
183.0	91.99919616768466	pulse	1.0	t		place	corridor-119.jpg	0.0	143.1335988626206	
184.0	92.03241439472595	corridor	0.0		45.0	place	corridor-133.jpg	0.0	143.1668170896619	0.37494264808856315
184.0	92.40735704281451	ISI	1.0		7.0	place	corridor-133.jpg	0.0	143.54175973775045	0.11668940619665591
185.0	92.52404644901117	corridor	0.0		46.0	place	corridor-133.jpg	1.0	143.6584491439471	0.38330002897782833
185.0	92.907346477989	ISI	1.0		7.0	place	corridor-133.jpg	1.0	144.04174917292494	0.11670540436080046
186.0	93.0240518823498	corridor	0.0		45.0	place	corridor-88.jpg	0.0	144.15845457728574	0.3832873511869366
186.0	93.02855913887606	response	0.0	b		place	corridor-88.jpg	0.0	144.162961833812	
186.0	93.40733923353673	ISI	1.0		7.0	place	corridor-88.jpg	0.0	144.54174192847267	0.11669333027475659
187.0	93.52403256381149	corridor	0.0		46.0	place	corridor-54.jpg	0.0	144.65843525874743	0.38329218082162697
187.0	93.90732474463312	ISI	1.0		7.0	place	corridor-54.jpg	0.0	145.04172743956906	0.12502837410329448
187.0	93.99918499915475	pulse	1.0	t		place	corridor-54.jpg	0.0	145.1335876940907	
188.0	94.03235311873641	corridor	0.0		45.0	place	corridor-68.jpg	0.0	145.16675581367235	0.3749459684622707
188.0	94.40729908719868	ISI	1.0		7.0	place	corridor-68.jpg	0.0	145.54170178213462	0.11668487841416209
189.0	94.52398396561284	corridor	0.0		46.0	place	corridor-112.jpg	0.0	145.65838666054879	0.38331119750773723
189.0	94.90729516312058	ISI	1.0		7.0	place	corridor-112.jpg	0.0	146.04169785805652	0.1166942358313463
190.0	95.02398939895193	corridor	0.0		46.0	place	corridor-20.jpg	0.0	146.15839209388787	0.3832840308127743
190.0	95.4072734297647	ISI	1.0		7.0	place	corridor-20.jpg	0.0	146.54167612470064	0.11670781917882778
191.0	95.52398124894353	corridor	0.0		46.0	place	corridor-108.jpg	0.0	146.65838394387947	0.3832716548740791
191.0	95.90725290381761	ISI	1.0		7.0	place	corridor-108.jpg	0.0	147.04165559875355	0.12501992224315472
191.0	95.99907814348808	pulse	1.0	t		place	corridor-108.jpg	0.0	147.13348083842402	
192.0	96.03227282606076	number	0.0		45.0	character	number-71.jpg	0.0	147.1666755209967	0.374978870348059
192.0	96.40725169640882	ISI	1.0		7.0	character	number-71.jpg	0.0	147.54165439134476	0.11669544324013259
193.0	96.52394713964895	number	0.0		46.0	character	number-56.jpg	0.0	147.6583498345849	0.38327708821316264
193.0	96.90722422786212	ISI	1.0		7.0	character	number-56.jpg	0.0	148.04162692279806	0.11670510250905863
194.0	97.02392933037117	number	0.0		46.0	character	number-75.jpg	0.0	148.15833202530712	0.3832861437781503
194.0	97.40721547414933	ISI	1.0		7.0	character	number-75.jpg	0.0	148.54161816908527	0.11669846176118881
195.0	97.52391393591051	number	0.0		46.0	character	number-144.jpg	0.0	148.65831663084646	0.38329731230851394
195.0	97.90721124821903	ISI	1.0		7.0	character	number-144.jpg	0.0	149.04161394315497	0.12501086667771233
195.0	97.99900901934234	pulse	1.0	t		character	number-144.jpg	0.0	149.13341171427828	
196.0	98.03222211489674	number	0.0		45.0	character	number-100.jpg	0.0	149.16662480983268	0.3749689092269364
196.0	98.40719102412368	ISI	1.0		7.0	character	number-100.jpg	0.0	149.54159371905962	0.11669665064846413
197.0	98.52388767477214	number	0.0		46.0	character	number-90.jpg	0.0	149.65829036970808	0.38327346598725853
197.0	98.9071611407594	ISI	1.0		7.0	character	number-90.jpg	0.0	150.04156383569534	0.11671174325692846
198.0	99.02387288401633	number	0.0		46.0	character	number-11.jpg	0.0	150.15827557895227	0.38325233633577227
198.0	99.4071252203521	ISI	1.0		7.0	character	number-11.jpg	0.0	150.54152791528804	0.11669574509187441
199.0	99.52382096544397	number	0.0		46.0	character	number-25.jpg	0.0	150.65822366037992	0.38328825674307154
199.0	99.90710922218705	ISI	1.0		7.0	character	number-25.jpg	0.0	151.041511917123	0.11667763396235387
199.0	99.99891755813678	pulse	1.0	t		character	number-25.jpg	0.0	151.13332025307272	
200.0	100.0237868561494	number	0.0		46.0	character	number-93.jpg	0.0	151.15818955108534	0.3833078771340297
200.0	100.40709473328343	ISI	1.0		7.0	character	number-93.jpg	0.0	151.54149742821937	0.11668065248341009
201.0	100.52377538576684	number	0.0		46.0	character	number-6.jpg	0.0	151.65817808070278	0.3833051604647153
201.0	100.90708054623155	ISI	1.0		7.0	character	number-6.jpg	0.0	152.0414832411675	0.11669846176118881
202.0	101.02377900799274	number	0.0		46.0	character	number-139.jpg	0.0	152.1581817029287	0.3832927845260201
202.0	101.40707179251876	ISI	1.0		7.0	character	number-139.jpg	0.0	152.5414744874547	0.11672955253425243
203.0	101.52380134505302	number	0.0		46.0	character	number-59.jpg	0.0	152.65820403998896	0.38324660114449216
203.0	101.90704794619751	ISI	1.0		7.0	character	number-59.jpg	0.0	153.04145064113345	0.11670148028315452
203.0	101.99886805438155	pulse	1.0	t		character	number-59.jpg	0.0	153.1332707493175	
204.0	102.02374942648066	corridor	0.0		46.0	place	corridor-47.jpg	0.0	153.1581521214166	0.3832834271088359
204.0	102.4070328535895	ISI	1.0		7.0	place	corridor-47.jpg	0.0	153.54143554852544	0.11670027287436824
205.0	102.52373312646387	corridor	0.0		46.0	place	corridor-110.jpg	0.0	153.6581358213998	0.38329248267382354
205.0	102.90702560913769	ISI	1.0		7.0	place	corridor-110.jpg	0.0	154.04142830407363	0.11669121730938059
206.0	103.02371682644707	corridor	0.0		46.0	place	corridor-110.jpg	1.0	154.15811952138301	0.3832945956387448
206.0	103.40701142208582	ISI	1.0		7.0	place	corridor-110.jpg	1.0	154.54141411702176	0.11669151916157716
207.0	103.5237029412474	corridor	0.0		45.0	place	corridor-132.jpg	0.0	154.65810563618334	0.3832927845260201
207.0	103.52821834778206	response	0.0	b		place	corridor-132.jpg	0.0	154.662621042718	
207.0	103.90699572577341	ISI	1.0		7.0	place	corridor-132.jpg	0.0	155.04139842070936	0.11669363212649841
207.0	103.99877266909743	pulse	1.0	t		place	corridor-132.jpg	0.0	155.13317536403338	
208.0	104.02368935789991	corridor	0.0		46.0	place	corridor-18.jpg	0.0	155.15809205283585	0.3832927845260201
208.0	104.40698214242593	ISI	1.0		7.0	place	corridor-18.jpg	0.0	155.54138483736187	0.11669061360498745
209.0	104.52367275603092	corridor	0.0		46.0	place	corridor-4.jpg	0.0	155.65807545096686	0.3832873511869366
209.0	104.90696010721786	ISI	1.0		7.0	place	corridor-4.jpg	0.0	156.0413628021538	0.11670208398709292
210.0	105.02366219120495	corridor	0.0		46.0	place	corridor-56.jpg	0.0	156.1580648861409	0.38331663084682077
210.0	105.40697882205177	ISI	1.0		7.0	place	corridor-56.jpg	0.0	156.5413815169877	0.11669815990944699
211.0	105.52367698196122	corridor	0.0		46.0	place	corridor-79.jpg	0.0	156.65807967689716	0.3832942937865482
211.0	105.90697127574776	ISI	1.0		7.0	place	corridor-79.jpg	0.0	157.0413739706837	0.12502475187739037
211.0	105.99885658399944	pulse	1.0	t		place	corridor-79.jpg	0.0	157.13325927893538	
212.0	106.03199602762515	corridor	0.0		45.0	place	corridor-144.jpg	0.0	157.1663987225611	0.3749583444014206
212.0	106.40695437202658	ISI	1.0		7.0	place	corridor-144.jpg	0.0	157.54135706696252	0.11669393397869499
213.0	106.52364830600527	corridor	0.0		46.0	place	corridor-138.jpg	0.0	157.6580510009412	0.3832819178483078
213.0	106.90693022385358	ISI	1.0		7.0	place	corridor-138.jpg	0.0	158.04133291878952	0.1167032913958792
214.0	107.02363351524946	corridor	0.0		46.0	place	corridor-5.jpg	0.0	158.1580362101854	0.3832909734128407
214.0	107.4069244886623	ISI	1.0		7.0	place	corridor-5.jpg	0.0	158.54132718359824	0.11669453768308813
215.0	107.52361902634539	corridor	0.0		46.0	place	corridor-49.jpg	0.0	158.65802172128133	0.3832852382220153
215.0	107.9069042645674	ISI	1.0		7.0	place	corridor-49.jpg	0.0	159.04130695950334	0.12501660186899244
215.0	107.99871410977767	pulse	1.0	t		place	corridor-49.jpg	0.0	159.1331168047136	
216.0	108.0319208664364	instrument	0.0		45.0	object	instrument-81.jpg	0.0	159.16632356137234	0.37496649440981855
216.0	108.40688736084621	ISI	1.0		7.0	object	instrument-81.jpg	0.0	159.54129005578216	0.11670148028269978
217.0	108.52358884112891	instrument	0.0		46.0	object	instrument-81.jpg	1.0	159.65799153606486	0.38329036970844754
217.0	108.90687921083736	ISI	1.0		7.0	object	instrument-81.jpg	1.0	160.0412819057733	0.11669393397914973
218.0	109.02357314481651	instrument	0.0		46.0	object	instrument-8.jpg	0.0	160.15797583975245	0.38328071043906675
218.0	109.22364166525767	response	0.0	b		object	instrument-8.jpg	0.0	160.35804436019362	
218.0	109.40685385525558	ISI	1.0		7.0	object	instrument-8.jpg	0.0	160.54125655019152	0.11668699137908334
219.0	109.52354084663466	instrument	0.0		46.0	object	instrument-2.jpg	0.0	160.6579435415706	0.38330848083842284
219.0	109.90684932747308	ISI	1.0		7.0	object	instrument-2.jpg	0.0	161.04125202240903	0.1250301852164739
219.0	109.99866400231804	pulse	1.0	t		object	instrument-2.jpg	0.0	161.13306669725398	
220.0	110.03187951268956	instrument	0.0		45.0	object	instrument-64.jpg	0.0	161.1662822076255	0.3749556277321062
220.0	110.40683514042166	ISI	1.0		7.0	object	instrument-64.jpg	0.0	161.5412378353576	0.11669182101377373
221.0	110.52352696143544	instrument	0.0		46.0	object	instrument-32.jpg	0.0	161.65792965637138	0.3832755789521798
221.0	110.90680254038762	ISI	1.0		7.0	object	instrument-32.jpg	0.0	162.04120523532356	0.116731967351825
222.0	111.02353450773944	instrument	0.0		46.0	object	instrument-76.jpg	0.0	162.15793720267538	0.3832698437613544
222.0	111.4068043515008	ISI	1.0		7.0	object	instrument-76.jpg	0.0	162.54120704643674	0.11669423583089156
223.0	111.52349858733169	instrument	0.0		46.0	object	instrument-45.jpg	0.0	162.65790128226763	0.38329731230851394
223.0	111.9067958996402	ISI	1.0		7.0	object	instrument-45.jpg	0.0	163.04119859457614	0.1250235444686041
223.0	111.99860876337198	pulse	1.0	t		object	instrument-45.jpg	0.0	163.13301145830792	
224.0	112.0318194441088	instrument	0.0		45.0	object	instrument-56.jpg	0.0	163.16622213904475	0.3749577406970275
224.0	112.40677718480583	ISI	1.0		7.0	object	instrument-56.jpg	0.0	163.54117987974178	0.11668216174439294
225.0	112.52345934655023	instrument	0.0		46.0	object	instrument-122.jpg	0.0	163.65786204148617	0.38329519934313794
225.0	112.90675454589336	ISI	1.0		7.0	object	instrument-122.jpg	0.0	164.0411572408293	0.11670027287436824
226.0	113.02345481876773	instrument	0.0		46.0	object	instrument-86.jpg	0.0	164.15785751370368	0.38328403081322904
226.0	113.40673884958096	ISI	1.0		7.0	object	instrument-86.jpg	0.0	164.5411415445169	0.1166885006400662
227.0	113.52342735022103	instrument	0.0		46.0	object	instrument-127.jpg	0.0	164.65783004515697	0.383303953055929
227.0	113.90673130327696	ISI	1.0		7.0	object	instrument-127.jpg	0.0	165.0411339982129	0.12502867595549105
227.0	113.99854688367805	pulse	1.0	t		object	instrument-127.jpg	0.0	165.132949578614	
228.0	114.03175997923245	corridor	0.0		45.0	place	corridor-80.jpg	0.0	165.1661626741684	0.37494627031446726
228.0	114.40670624954691	ISI	1.0		7.0	place	corridor-80.jpg	0.0	165.54110894448286	0.11667220062327033
229.0	114.52337845017018	corridor	0.0		46.0	place	corridor-22.jpg	0.0	165.65778114510613	0.38332810122892624
229.0	114.90670655139911	ISI	1.0		7.0	place	corridor-22.jpg	0.0	166.04110924633505	0.11668880249226277
230.0	115.02339535389137	corridor	0.0		46.0	place	corridor-76.jpg	0.0	166.15779804882732	0.3832834271088359
230.0	115.40667878100021	ISI	1.0		7.0	place	corridor-76.jpg	0.0	166.54108147593615	0.11670298954368263
231.0	115.52338177054389	corridor	0.0		46.0	place	corridor-38.jpg	0.0	166.65778446547984	0.38328161599565647
231.0	115.90666338653955	ISI	1.0		7.0	place	corridor-38.jpg	0.0	167.0410660814755	0.1250350148511643
231.0	115.99848440028018	pulse	1.0	t		place	corridor-38.jpg	0.0	167.13288709521612	
232.0	116.03169840139071	corridor	0.0		45.0	place	corridor-105.jpg	0.0	167.16610109632666	0.374946270314922
232.0	116.40664467170564	ISI	1.0		7.0	place	corridor-105.jpg	0.0	167.54104736664158	0.1166842747093142
233.0	116.52332894641495	corridor	0.0		46.0	place	corridor-136.jpg	0.0	167.6577316413509	0.38331331047311323
233.0	116.90664225688806	ISI	1.0		7.0	place	corridor-136.jpg	0.0	168.041044951824	0.11667491729258472
234.0	117.02331717418065	corridor	0.0		46.0	place	corridor-3.jpg	0.0	168.1577198691166	0.3832994252734352
234.0	117.40661659945408	ISI	1.0		7.0	place	corridor-3.jpg	0.0	168.54101929439003	0.11668759508347648
235.0	117.52330419453756	corridor	0.0		46.0	place	corridor-69.jpg	0.0	168.6577068894735	0.3832964067519242
235.0	117.90660060128948	ISI	1.0		7.0	place	corridor-69.jpg	0.0	169.04100329622543	0.1250265629905698
235.0	117.99845270580272	pulse	1.0	t		place	corridor-69.jpg	0.0	169.13285540073866	
236.0	118.03162716428005	corridor	0.0		45.0	place	corridor-137.jpg	0.0	169.166029859216	0.3749704184874645
236.0	118.40659758276752	ISI	1.0		7.0	place	corridor-137.jpg	0.0	169.54100027770346	0.11669393397914973
237.0	118.52329151674667	corridor	0.0		46.0	place	corridor-45.jpg	0.0	169.6576942116826	0.3832873511869366
237.0	118.9065788679336	ISI	1.0		7.0	place	corridor-45.jpg	0.0	170.04098156286955	0.11669846176118881
238.0	119.02327732969479	corridor	0.0		46.0	place	corridor-99.jpg	0.0	170.15768002463074	0.38329036970844754
238.0	119.40656769940324	ISI	1.0		7.0	place	corridor-99.jpg	0.0	170.54097039433918	0.11669453768354288
239.0	119.52326223708678	corridor	0.0		46.0	place	corridor-25.jpg	0.0	170.65766493202273	0.3832906715606441
239.0	119.90655290864743	ISI	1.0		7.0	place	corridor-25.jpg	0.0	171.04095560358337	0.1250265629905698
239.0	119.99836335756163	pulse	1.0	t		place	corridor-25.jpg	0.0	171.13276605249757	
240.0	120.031579471638	corridor	0.0		45.0	place	corridor-35.jpg	0.0	171.16598216657394	0.37494506290568097
240.0	120.40652453454368	ISI	1.0		7.0	place	corridor-35.jpg	0.0	171.54092722947962	0.11673830624704351
241.0	120.52326284079072	corridor	0.0		46.0	place	corridor-64.jpg	0.0	171.65766553572666	0.3832598826402318
241.0	120.90652272343095	ISI	1.0		7.0	place	corridor-64.jpg	0.0	172.0409254183669	0.11669574509187441
242.0	121.02321846852283	corridor	0.0		46.0	place	corridor-29.jpg	0.0	172.15762116345877	0.38328071043906675
242.0	121.4064991789619	ISI	1.0		7.0	place	corridor-29.jpg	0.0	172.54090187389784	0.11670389510027235
243.0	121.52320307406217	corridor	0.0		46.0	place	corridor-19.jpg	0.0	172.6576057689981	0.3832484122576716
243.0	121.90645148631984	ISI	1.0		7.0	place	corridor-19.jpg	0.0	173.04085418125578	0.11668457656196551
243.0	121.99822752408772	pulse	1.0	t		place	corridor-19.jpg	0.0	173.13263021902367	
244.0	122.0231360628818	corridor	0.0		46.0	place	corridor-19.jpg	1.0	173.15753875781775	0.3833003308300249
244.0	122.40643639371183	ISI	1.0		7.0	place	corridor-19.jpg	1.0	173.54083908864777	0.1167011784305032
245.0	122.52313757214233	corridor	0.0		46.0	place	corridor-27.jpg	0.0	173.65754026707828	0.3832855400742119
245.0	122.90642311221654	ISI	1.0		7.0	place	corridor-27.jpg	0.0	174.0408258071525	0.11670691362178331
246.0	123.02313002583833	corridor	0.0		46.0	place	corridor-55.jpg	0.0	174.15753272077427	0.3832795030307352
246.0	123.40640952886906	ISI	1.0		7.0	place	corridor-55.jpg	0.0	174.540812223805	0.11669785805679567
247.0	123.52310738692586	corridor	0.0		46.0	place	corridor-40.jpg	0.0	174.6575100818618	0.38328372896103247
247.0	123.90639111588689	ISI	1.0		7.0	place	corridor-40.jpg	0.0	175.04079381082283	0.11669725435285727
247.0	123.99817439810658	pulse	1.0	t		place	corridor-40.jpg	0.0	175.13257709304253	
248.0	124.02308837023975	corridor	0.0		46.0	place	corridor-52.jpg	0.0	175.1574910651757	0.3832906715606441
248.0	124.40637904180039	ISI	1.0		7.0	place	corridor-52.jpg	0.0	175.54078173673634	0.11669997102217167
249.0	124.52307901282256	corridor	0.0		46.0	place	corridor-73.jpg	0.0	175.6574817077585	0.3832918789694304
249.0	124.906370891792	ISI	1.0		7.0	place	corridor-73.jpg	0.0	176.04077358672794	0.11669574509187441
250.0	125.02306663688387	corridor	0.0		46.0	place	corridor-28.jpg	0.0	176.1574693318198	0.3832834271088359
250.0	125.4063500639927	ISI	1.0		7.0	place	corridor-28.jpg	0.0	176.54075275892865	0.11669846176118881
251.0	125.5230485257539	corridor	0.0		46.0	place	corridor-14.jpg	0.0	176.65745122068984	0.38329701045631737
251.0	125.90634553621021	ISI	1.0		7.0	place	corridor-14.jpg	0.0	177.04074823114615	0.11668910434400459
251.0	125.99812549805574	pulse	1.0	t		place	corridor-14.jpg	0.0	177.13252819299169	
252.0	126.02303464055422	child	0.0		46.0	face	child-46.jpg	0.0	177.15743733549016	0.38328493636981875
252.0	126.40631957692403	ISI	1.0		7.0	face	child-46.jpg	0.0	177.54072227185998	0.11668880249180802
253.0	126.52300837941584	child	0.0		46.0	face	child-142.jpg	0.0	177.65741107435178	0.38329610489972765
253.0	126.90630448431557	ISI	1.0		7.0	face	child-142.jpg	0.0	178.0407071792515	0.11667703025750598
254.0	127.02298151457308	child	0.0		46.0	face	child-33.jpg	0.0	178.15738420950902	0.3833087826906194
254.0	127.4062902972637	ISI	1.0		7.0	face	child-33.jpg	0.0	178.54069299219964	0.11670148028315452
255.0	127.52299177754685	child	0.0		46.0	face	child-3.jpg	0.0	178.6573944724828	0.3833154234380345
255.0	127.90630720098488	ISI	1.0		7.0	face	child-3.jpg	0.0	179.04070989592083	0.1250350148511643
255.0	127.99812429064741	pulse	1.0	t		face	child-3.jpg	0.0	179.13252698558335	
256.0	128.03134221583605	child	0.0		45.0	face	child-67.jpg	0.0	179.165744910772	0.3749486851320398
256.0	128.4062909009681	ISI	1.0		7.0	face	child-67.jpg	0.0	179.54069359590403	0.11670148028315452
257.0	128.52299238125124	child	0.0		46.0	face	child-132.jpg	0.0	179.65739507618719	0.38328403081322904
257.0	128.90627641206447	ISI	1.0		7.0	face	child-132.jpg	0.0	180.04067910700041	0.11666948395350119
258.0	129.02294589601797	child	0.0		46.0	face	child-69.jpg	0.0	180.15734859095392	0.38332447900302213
258.0	129.406270375021	ISI	1.0		7.0	face	child-69.jpg	0.0	180.54067306995694	0.11668336915317923
259.0	129.52295374417417	child	0.0		46.0	face	child-123.jpg	0.0	180.65735643911012	0.3833012363866146
259.0	129.9062549805608	ISI	1.0		7.0	face	child-123.jpg	0.0	181.04065767549673	0.1250307889204123
259.0	129.99807961652687	pulse	1.0	t		face	child-123.jpg	0.0	181.1324823114628	
260.0	130.0312857694812	child	0.0		45.0	face	child-59.jpg	0.0	181.16568846441714	0.3749471758715117
260.0	130.4062329453527	ISI	1.0		7.0	face	child-59.jpg	0.0	181.54063564028866	0.11670238583928949
261.0	130.522935331192	child	0.0		46.0	face	child-59.jpg	1.0	181.65733802612795	0.38329157711723383
261.0	130.90622690830924	ISI	1.0		7.0	face	child-59.jpg	1.0	182.04062960324518	0.11669453768308813
262.0	131.02292144599232	child	0.0		46.0	face	child-106.jpg	0.0	182.15732414092827	0.3832894641523126
262.0	131.06466367631765	response	0.0	b		face	child-106.jpg	0.0	182.1990663712536	
262.0	131.40621091014464	ISI	1.0		7.0	face	child-106.jpg	0.0	182.54061360508058	0.11669363212649841
263.0	131.52290454227114	child	0.0		46.0	face	child-50.jpg	0.0	182.65730723720708	0.38328282340444275
263.0	131.90618736567558	ISI	1.0		7.0	face	child-50.jpg	0.0	183.04059006061152	0.12503742966828213
263.0	131.99801079423332	pulse	1.0	t		face	child-50.jpg	0.0	183.13241348916927	
264.0	132.03122479534386	limb	0.0		45.0	body	limb-35.jpg	0.0	183.1656274902798	0.3749471758715117
264.0	132.40617197121537	ISI	1.0		7.0	body	limb-35.jpg	0.0	183.54057466615131	0.11668608582249362
265.0	132.52285805703787	limb	0.0		46.0	body	limb-66.jpg	0.0	183.6572607519738	0.38330093453441805
265.0	132.90615899157228	ISI	1.0		7.0	body	limb-66.jpg	0.0	184.04056168650823	0.11668336915317923
266.0	133.02284236072546	limb	0.0		46.0	body	limb-110.jpg	0.0	184.1572450556614	0.38330365120373244
266.0	133.4061460119292	ISI	1.0		7.0	body	limb-110.jpg	0.0	184.54054870686514	0.11670208398709292
267.0	133.5228480959163	limb	0.0		46.0	body	limb-18.jpg	0.0	184.65725079085223	0.3832773900653592
267.0	133.90612548598165	ISI	1.0		7.0	body	limb-18.jpg	0.0	185.0405281809176	0.12503561855555745
267.0	133.9979567626956	pulse	1.0	t		body	limb-18.jpg	0.0	185.13235945763154	
268.0	134.0311611045372	limb	0.0		45.0	body	limb-18.jpg	1.0	185.16556379947315	0.3749595518102069
268.0	134.4061206563474	ISI	1.0		7.0	body	limb-18.jpg	1.0	185.54052335128335	0.12501328149483015
268.0	134.49800234237273	response	1.0	b		body	limb-18.jpg	1.0	185.63240503730867	
269.0	134.53113393784224	limb	0.0		45.0	body	limb-23.jpg	0.0	185.66553663277818	0.3749667962620151
269.0	134.90610073410426	ISI	1.0		7.0	body	limb-23.jpg	0.0	186.0405034290402	0.1166885006400662
270.0	135.02278923474432	limb	0.0		46.0	body	limb-27.jpg	0.0	186.15719192968027	0.38330817898622627
270.0	135.40609741373055	ISI	1.0		7.0	body	limb-27.jpg	0.0	186.5405001086665	0.11667220062281558
271.0	135.52276961435336	limb	0.0		46.0	body	limb-49.jpg	0.0	186.6571723092893	0.38329821786510365
271.0	135.90606783221847	ISI	1.0		7.0	body	limb-49.jpg	0.0	187.0404705271544	0.1250187148339137
271.0	135.99788039409805	pulse	1.0	t		body	limb-49.jpg	0.0	187.132283089034	
272.0	136.03108654705238	limb	0.0		45.0	body	limb-6.jpg	0.0	187.16548924198833	0.3749640795927007
272.0	136.40605062664508	ISI	1.0		7.0	body	limb-6.jpg	0.0	187.54045332158103	0.11668850063961145
273.0	136.5227391272847	limb	0.0		46.0	body	limb-118.jpg	0.0	187.65714182222064	0.38330184009100776
273.0	136.9060409673757	ISI	1.0		7.0	body	limb-118.jpg	0.0	188.04044366231165	0.1167032913958792
274.0	137.02274425877158	limb	0.0		46.0	body	limb-59.jpg	0.0	188.15714695370752	0.3832930863782167
274.0	137.4060373451498	ISI	1.0		7.0	body	limb-59.jpg	0.0	188.54044004008574	0.11666948395350119
275.0	137.5227068291033	limb	0.0		46.0	body	limb-1.jpg	0.0	188.65710952403924	0.38330365120373244
275.0	137.90601048030703	ISI	1.0		7.0	body	limb-1.jpg	0.0	189.04041317524297	0.12503652411214716
275.0	137.99791812561853	pulse	1.0	t		body	limb-1.jpg	0.0	189.13232082055447	
276.0	138.03104700441918	limb	0.0		45.0	body	limb-21.jpg	0.0	189.16544969935512	0.37495592958384805
276.0	138.40600293400303	ISI	1.0		7.0	body	limb-21.jpg	0.0	189.54040562893897	0.11669363212649841
277.0	138.52269656612953	limb	0.0		46.0	body	limb-76.jpg	0.0	189.65709926106547	0.3832873511869366
277.0	138.90598391731646	ISI	1.0		7.0	body	limb-76.jpg	0.0	190.0403866122524	0.11669785805725041
278.0	139.0226817753737	limb	0.0		46.0	body	limb-115.jpg	0.0	190.15708447030966	0.38327678636096607
278.0	139.40595856173468	ISI	1.0		7.0	body	limb-115.jpg	0.0	190.54036125667062	0.11673890995143665
279.0	139.52269747168612	limb	0.0		46.0	body	limb-121.jpg	0.0	190.65710016662206	0.383253241892362
279.0	139.90595071357848	ISI	1.0		7.0	body	limb-121.jpg	0.0	191.04035340851442	0.1250350148511643
279.0	139.99776357731025	pulse	1.0	t		body	limb-121.jpg	0.0	191.1321662722462	
280.0	140.03098572842964	limb	0.0		45.0	body	limb-90.jpg	0.0	191.16538842336558	0.3749492888359782
280.0	140.40593501726562	ISI	1.0		7.0	body	limb-90.jpg	0.0	191.54033771220156	0.11670480065686206
281.0	140.52263981792248	limb	0.0		46.0	body	limb-72.jpg	0.0	191.65704251285842	0.3832484122576716
281.0	140.90588823018015	ISI	1.0		7.0	body	limb-72.jpg	0.0	192.0402909251161	0.11668185989219637
282.0	141.02257009007235	limb	0.0		46.0	body	limb-56.jpg	0.0	192.1569727850083	0.3833124049165235
282.0	141.40588249498887	ISI	1.0		7.0	body	limb-56.jpg	0.0	192.54028518992482	0.11669151916157716
283.0	141.52257401415045	limb	0.0		45.0	body	limb-56.jpg	1.0	192.6569767090864	0.37495411847112337
283.0	141.88930930187598	response	0.0	b		body	limb-56.jpg	1.0	193.02371199681193	
283.0	141.89752813262157	ISI	1.0		8.0	body	limb-56.jpg	1.0	193.03193082755752	0.12501086667816708
283.0	141.99763347902717	pulse	1.0	t		body	limb-56.jpg	1.0	193.13203617396312	
284.0	142.02253899929974	limb	0.0		46.0	body	limb-98.jpg	0.0	193.15694169423568	0.38330334935153587
284.0	142.40584234865128	ISI	1.0		7.0	body	limb-98.jpg	0.0	193.54024504358722	0.11668940619620116
285.0	142.52253175484748	limb	0.0		46.0	body	limb-136.jpg	0.0	193.65693444978342	0.3832979160129071
285.0	142.90582967086038	ISI	1.0		7.0	body	limb-136.jpg	0.0	194.04023236579633	0.11671747844775382
286.0	143.02254714930814	limb	0.0		46.0	body	limb-96.jpg	0.0	194.15694984424408	0.38326742894378185
286.0	143.40581457825192	ISI	1.0		7.0	body	limb-96.jpg	0.0	194.54021727318786	0.1166996691699751
287.0	143.5225142474219	limb	0.0		46.0	body	limb-142.jpg	0.0	194.65691694235784	0.38329248267382354
287.0	143.90580673009572	ISI	1.0		11.0	body	limb-142.jpg	0.0	195.04020942503166	0.09999637777400494
287.0	143.99765853275676	pulse	1.0	t		body	limb-142.jpg	0.0	195.1320612276927	
288.0	144.00580310786972	baseline	0.0		48.0		baseline	0.0	195.14020580280567	0.39997977590473965
288.0	144.40578288377446	ISI	1.0		11.0		baseline	0.0	195.5401855787104	0.09999667962620151
289.0	144.50577956340067	baseline	0.0		48.0		baseline	0.0	195.6401822583366	0.3999833981310985
289.0	144.90576296153176	ISI	1.0		11.0		baseline	0.0	196.0401656564677	0.10000482963459945
290.0	145.00576779116636	baseline	0.0		48.0		baseline	0.0	196.1401704861023	0.3999836999832951
290.0	145.40575149114966	ISI	1.0		11.0		baseline	0.0	196.5401541860856	0.10001358334739052
291.0	145.50576507449705	baseline	0.0		48.0		baseline	0.0	196.640167769433	0.39998369998284033
291.0	145.9057487744799	ISI	1.0		11.0		baseline	0.0	197.04015146941583	0.09998973702658986
291.0	145.99754231967336	pulse	1.0	t			baseline	0.0	197.1319450146093	
292.0	146.00573851150648	baseline	0.0		48.0		baseline	0.0	197.14014120644242	0.3999945666610074
292.0	146.4057330781675	ISI	1.0		11.0		baseline	0.0	197.54013577310343	0.10002475187729942
293.0	146.5057578300448	baseline	0.0		48.0		baseline	0.0	197.64016052498073	0.40003048706876143
293.0	146.90578831711355	ISI	1.0		11.0		baseline	0.0	198.0401910120495	0.0999978870349878
294.0	147.00578620414854	baseline	0.0		48.0		baseline	0.0	198.14018889908448	0.39998762406139576
294.0	147.40577382820993	ISI	1.0		11.0		baseline	0.0	198.54017652314587	0.0999909444349214
295.0	147.50576477264485	baseline	0.0		48.0		baseline	0.0	198.6401674675808	0.39998551109601976
295.0	147.90575028374087	ISI	1.0		11.0		baseline	0.0	199.04015297867682	0.10000815000830698
295.0	147.9975278307693	pulse	1.0	t			baseline	0.0	199.13193052570523	
296.0	148.00575843374918	baseline	0.0		48.0		baseline	0.0	199.14016112868512	0.3999776629398184
296.0	148.405736096689	ISI	1.0		11.0		baseline	0.0	199.54013879162494	0.1000084518609583
297.0	148.50574454854996	baseline	0.0		48.0		baseline	0.0	199.6401472434859	0.3999840018350369
297.0	148.905728550385	ISI	1.0		11.0		baseline	0.0	200.04013124532094	0.09999637777400494
298.0	149.005724928159	baseline	0.0		48.0		baseline	0.0	200.14012762309494	0.3999900388785136
298.0	149.4057149670375	ISI	1.0		11.0		baseline	0.0	200.54011766197345	0.09999607592180837
299.0	149.50571104295932	baseline	0.0		48.0		baseline	0.0	200.64011373789526	0.39998792591359233
299.0	149.9056989688729	ISI	1.0		7.0		baseline	0.0	201.04010166380885	0.12499094443501235
299.0	149.9974789307189	pulse	1.0	t			baseline	0.0	201.13188162565484	
300.0	150.03068991330792	instrument	0.0		45.0	object	instrument-10.jpg	0.0	201.16509260824387	0.37495683514043776
300.0	150.40564674844836	ISI	1.0		7.0	object	instrument-10.jpg	0.0	201.5400494433843	0.11669574509187441
301.0	150.52234249354024	instrument	0.0		46.0	object	instrument-10.jpg	1.0	201.65674518847618	0.38328463451716743
301.0	150.9056271280574	ISI	1.0		6.0	object	instrument-10.jpg	1.0	202.04002982299335	0.11669966917042984
301.0	150.98918222211478	response	1.0	b		object	instrument-10.jpg	1.0	202.12358491705072	
302.0	151.02232679722783	instrument	0.0		46.0	object	instrument-104.jpg	0.0	202.15672949216378	0.38327859747369075
302.0	151.40560539470152	ISI	1.0		7.0	object	instrument-104.jpg	0.0	202.54000808963747	0.11668608582294837
303.0	151.52229148052447	instrument	0.0		46.0	object	instrument-40.jpg	0.0	202.65669417546042	0.38329791601245233
303.0	151.90558939653693	ISI	1.0		7.0	object	instrument-40.jpg	0.0	203.03999209147287	0.12502897780768762
303.0	151.99740588249506	pulse	1.0	t		object	instrument-40.jpg	0.0	203.131808577431	
304.0	152.0306183743446	instrument	0.0		45.0	object	instrument-141.jpg	0.0	203.16502106928056	0.37496649440981855
304.0	152.40558486875443	ISI	1.0		7.0	object	instrument-141.jpg	0.0	203.53998756369037	0.11670570621345178
305.0	152.52229057496788	instrument	0.0		46.0	object	instrument-132.jpg	0.0	203.65669326990383	0.38327437154384825
305.0	152.90556494651173	ISI	1.0		7.0	object	instrument-132.jpg	0.0	204.03996764144767	0.11670027287436824
306.0	153.0222652193861	instrument	0.0		46.0	object	instrument-23.jpg	0.0	204.15666791432204	0.3832837289605777
306.0	153.40554894834668	ISI	1.0		7.0	object	instrument-23.jpg	0.0	204.53995164328262	0.11670208398754767
307.0	153.52225103233422	instrument	0.0		46.0	object	instrument-26.jpg	0.0	204.65665372727017	0.38329218082162697
307.0	153.90554321315585	ISI	1.0		7.0	object	instrument-26.jpg	0.0	205.0399459080918	0.12502505372958694
307.0	153.99735275651392	pulse	1.0	t		object	instrument-26.jpg	0.0	205.13175545144986	
308.0	154.03056826688544	instrument	0.0		45.0	object	instrument-134.jpg	0.0	205.16497096182138	0.37494838327984326
308.0	154.40551665016528	ISI	1.0		7.0	object	instrument-134.jpg	0.0	205.53991934510123	0.11668759508347648
309.0	154.52220424524876	instrument	0.0		46.0	object	instrument-18.jpg	0.0	205.6566069401847	0.3832958030475311
309.0	154.9055000482963	ISI	1.0		7.0	object	instrument-18.jpg	0.0	206.03990274323223	0.11670721547397989
310.0	155.02220726377027	instrument	0.0		46.0	object	instrument-52.jpg	0.0	206.1566099587062	0.38327829562194893
310.0	155.40548555939222	ISI	1.0		7.0	object	instrument-52.jpg	0.0	206.53988825432816	0.1166969525006607
311.0	155.52218251189288	instrument	0.0		46.0	object	instrument-131.jpg	0.0	206.65658520682882	0.38329308637776194
311.0	155.90547559827064	ISI	1.0		7.0	object	instrument-131.jpg	0.0	207.03987829320658	0.1250362222599506
311.0	155.99734219168795	pulse	1.0	t		object	instrument-131.jpg	0.0	207.1317448866239	
312.0	156.0305118205306	number	0.0		45.0	character	number-55.jpg	0.0	207.16491451546653	0.37494747772325354
312.0	156.40545929825385	ISI	1.0		7.0	character	number-55.jpg	0.0	207.5398619931898	0.11668819878786962
313.0	156.52214749704171	number	0.0		46.0	character	number-9.jpg	0.0	207.65655019197766	0.3833124049165235
313.0	156.90545990195824	ISI	1.0		7.0	character	number-9.jpg	0.0	208.03986259689418	0.11668819878786962
314.0	157.0221481007461	number	0.0		46.0	character	number-5.jpg	0.0	208.15655079568205	0.38327316413506196
314.0	157.40542126488117	ISI	1.0		7.0	character	number-5.jpg	0.0	208.5398239598171	0.11671053584814217
315.0	157.5221318007293	number	0.0		46.0	character	number-126.jpg	0.0	208.65653449566526	0.38328342710838115
315.0	157.9054152278377	ISI	1.0		7.0	character	number-126.jpg	0.0	209.03981792277364	0.12501448890407119
315.0	157.99723201564802	pulse	1.0	t		character	number-126.jpg	0.0	209.13163471058397	
316.0	158.03042971674176	number	0.0		45.0	character	number-88.jpg	0.0	209.1648324116777	0.374980983313435
316.0	158.4054107000552	ISI	1.0		7.0	character	number-88.jpg	0.0	209.53981339499114	0.11671778029995039
317.0	158.52212848035515	number	0.0		46.0	character	number-120.jpg	0.0	209.6565311752911	0.3832580715270524
317.0	158.9053865518822	ISI	1.0		7.0	character	number-120.jpg	0.0	210.03978924681815	0.11669906546558195
318.0	159.02208561734778	number	0.0		46.0	character	number-121.jpg	0.0	210.15648831228373	0.3832858419259537
318.0	159.40537145927374	ISI	1.0		7.0	character	number-121.jpg	0.0	210.53977415420968	0.1166836710053758
319.0	159.5220551302791	number	0.0		46.0	character	number-51.jpg	0.0	210.65645782521506	0.38330002897782833
319.0	159.90535515925694	ISI	1.0		7.0	character	number-51.jpg	0.0	211.03975785419289	0.12503592040775402
319.0	159.9971656081716	pulse	1.0	t		character	number-51.jpg	0.0	211.13156830310754	
320.0	160.0303910796647	number	0.0		45.0	character	number-26.jpg	0.0	211.16479377460064	0.3749622684795213
320.0	160.40535334814422	ISI	1.0		7.0	character	number-26.jpg	0.0	211.53975604308016	0.11668850063961145
321.0	160.52204184878383	number	0.0		46.0	character	number-48.jpg	0.0	211.65644454371977	0.3832906715606441
321.0	160.90533252034447	ISI	1.0		7.0	character	number-48.jpg	0.0	212.03973521528042	0.1166942358313463
322.0	161.02202675617582	number	0.0		46.0	character	number-111.jpg	0.0	212.15642945111176	0.38328554007375715
322.0	161.40531229624958	ISI	1.0		7.0	character	number-111.jpg	0.0	212.53971499118552	0.1166815580399998
323.0	161.52199385428958	number	0.0		46.0	character	number-87.jpg	0.0	212.65639654922552	0.38330184009100776
323.0	161.90529569438058	ISI	1.0		7.0	character	number-87.jpg	0.0	213.03969838931653	0.12504044819024784
323.0	161.99712515998135	pulse	1.0	t		character	number-87.jpg	0.0	213.1315278549173	
324.0	162.03033614257083	limb	0.0		45.0	body	limb-74.jpg	0.0	213.16473883750677	0.3749456666100741
324.0	162.4052818091809	ISI	1.0		7.0	body	limb-74.jpg	0.0	213.53968450411685	0.11670027287436824
325.0	162.52198208205527	limb	0.0		46.0	body	limb-17.jpg	0.0	213.65638477699122	0.38329369008260983
325.0	162.90527577213788	ISI	1.0		7.0	body	limb-17.jpg	0.0	214.03967846707383	0.1166598246841204
326.0	163.021935596822	limb	0.0		46.0	body	limb-42.jpg	0.0	214.15633829175795	0.3833124049165235
326.0	163.40524800173853	ISI	1.0		7.0	body	limb-42.jpg	0.0	214.53965069667447	0.11669876361338538
327.0	163.5219467653519	limb	0.0		46.0	body	limb-2.jpg	0.0	214.65634946028786	0.38328976600450915
327.0	163.90523653135642	ISI	1.0		7.0	body	limb-2.jpg	0.0	215.03963922629237	0.12503863707706842
327.0	163.9970572432444	pulse	1.0	t		body	limb-2.jpg	0.0	215.13145993818034	
328.0	164.0302751684335	limb	0.0		45.0	body	limb-82.jpg	0.0	215.16467786336943	0.3749477795754501
328.0	164.40522294800894	ISI	1.0		7.0	body	limb-82.jpg	0.0	215.53962564294488	0.11668668952688677
329.0	164.52190963753583	limb	0.0		46.0	body	limb-5.jpg	0.0	215.65631233247177	0.38329761416025576
329.0	164.90520725169608	ISI	1.0		7.0	body	limb-5.jpg	0.0	216.03960994663203	0.11670238583974424
330.0	165.02190963753583	limb	0.0		46.0	body	limb-5.jpg	1.0	216.15631233247177	0.38328403081322904
330.0	165.40519366834906	ISI	1.0		7.0	body	limb-5.jpg	1.0	216.539596363285	0.11670268769148606
331.0	165.52189635604054	limb	0.0		46.0	body	limb-30.jpg	0.0	216.6562990509765	0.38327829562194893
331.0	165.58029931660667	response	0.0	b		body	limb-30.jpg	0.0	216.7147020115426	
331.0	165.9051746516625	ISI	1.0		7.0	body	limb-30.jpg	0.0	217.03957734659843	0.1250265629905698
331.0	165.99699083576797	pulse	1.0	t		body	limb-30.jpg	0.0	217.13139353070392	
332.0	166.03020121465306	limb	0.0		45.0	body	limb-77.jpg	0.0	217.164603909589	0.37495864625316244
332.0	166.40515986090622	ISI	1.0		7.0	body	limb-77.jpg	0.0	217.53956255584217	0.11668819878786962
333.0	166.5218480596941	limb	0.0		46.0	body	limb-125.jpg	0.0	217.65625075463004	0.3832982178646489
333.0	166.90514627755874	ISI	1.0		7.0	body	limb-125.jpg	0.0	218.03954897249469	0.11668548211855523
334.0	167.0218317596773	limb	0.0		46.0	body	limb-29.jpg	0.0	218.15623445461324	0.3833012363866146
334.0	167.4051329960639	ISI	1.0		7.0	body	limb-29.jpg	0.0	218.53953569099986	0.11670268769148606
335.0	167.5218356837554	limb	0.0		46.0	body	limb-10.jpg	0.0	218.65623837869134	0.3832888604474647
335.0	167.90512454420286	ISI	1.0		7.0	body	limb-10.jpg	0.0	219.0395272391388	0.12502746854715951
335.0	167.9969286542223	pulse	1.0	t		body	limb-10.jpg	0.0	219.13133134915824	
336.0	168.03015201275002	child	0.0		45.0	face	child-89.jpg	0.0	219.16455470768597	0.3749517036535508
336.0	168.40510371640357	ISI	1.0		7.0	face	child-89.jpg	0.0	219.53950641133952	0.11670208398754767
337.0	168.52180580039112	child	0.0		46.0	face	child-14.jpg	0.0	219.65620849532706	0.3832801067346736
337.0	168.9050859071258	ISI	1.0		7.0	face	child-14.jpg	0.0	220.03948860206174	0.11670630991784492
338.0	169.02179221704364	child	0.0		46.0	face	child-135.jpg	0.0	220.15619491197958	0.38330002897782833
338.0	169.40509224602147	ISI	1.0		7.0	face	child-135.jpg	0.0	220.5394949409574	0.11666314505782793
339.0	169.5217553910793	child	0.0		46.0	face	child-121.jpg	0.0	220.65615808601524	0.38330576416910844
339.0	169.9050611552484	ISI	1.0		7.0	face	child-121.jpg	0.0	221.03946385018435	0.12503109077306362
339.0	169.99688911158864	pulse	1.0	t		face	child-121.jpg	0.0	221.1312918065246	
340.0	170.03009224602147	child	0.0		45.0	face	child-121.jpg	1.0	221.1644949409574	0.37495200550574737
340.0	170.40504425152722	ISI	1.0		7.0	face	child-121.jpg	1.0	221.53944694646316	0.1167017821353511
341.0	170.52174603366257	child	0.0		46.0	face	child-133.jpg	0.0	221.6561487285985	0.3832801067346736
341.0	170.53856342517656	response	0.0	b		face	child-133.jpg	0.0	221.6729661201125	
341.0	170.90502614039724	ISI	1.0		7.0	face	child-133.jpg	0.0	222.03942883533318	0.11668608582249362
342.0	171.02171222621973	child	0.0		46.0	face	child-75.jpg	0.0	222.15611492115568	0.3833051604647153
342.0	171.40501738668445	ISI	1.0		7.0	face	child-75.jpg	0.0	222.5394200816204	0.11671808215214696
343.0	171.5217354688366	child	0.0		46.0	face	child-49.jpg	0.0	222.65613816377254	0.3832644104222709
343.0	171.90499987925887	ISI	1.0		7.0	face	child-49.jpg	0.0	223.0394025741948	0.12503561855555745
343.0	171.99681787447753	pulse	1.0	t		face	child-49.jpg	0.0	223.13122056941347	
344.0	172.03003549781442	child	0.0		45.0	face	child-80.jpg	0.0	223.16443819275037	0.3749489869842364
344.0	172.40498448479866	ISI	1.0		7.0	face	child-80.jpg	0.0	223.5393871797346	0.11670298954368263
345.0	172.52168747434234	child	0.0		46.0	face	child-74.jpg	0.0	223.6560901692783	0.38328191784785304
345.0	172.9049693921902	ISI	1.0		7.0	face	child-74.jpg	0.0	224.03937208712614	0.11670208398754767
346.0	173.02167147617774	child	0.0		46.0	face	child-21.jpg	0.0	224.1560741711137	0.3832958030475311
346.0	173.40496727922527	ISI	1.0		7.0	face	child-21.jpg	0.0	224.53936997416122	0.11669151916157716
347.0	173.52165879838685	child	0.0		46.0	face	child-127.jpg	0.0	224.6560614933228	0.3832776919175558
347.0	173.9049364903044	ISI	1.0		7.0	face	child-127.jpg	0.0	225.03933918524035	0.12502112965148626
347.0	173.9967526744099	pulse	1.0	t		face	child-127.jpg	0.0	225.13115536934583	
348.0	174.0299576199559	corridor	0.0		45.0	place	corridor-83.jpg	0.0	225.16436031489184	0.3749667962620151
348.0	174.4049244162179	ISI	1.0		7.0	place	corridor-83.jpg	0.0	225.53932711115385	0.11670238583928949
349.0	174.5216268020572	corridor	0.0		46.0	place	corridor-51.jpg	0.0	225.65602949699314	0.3832758808048311
349.0	174.90490268286203	ISI	1.0		7.0	place	corridor-51.jpg	0.0	226.03930537779797	0.1166927265699087
350.0	175.02159540943194	corridor	0.0		46.0	place	corridor-142.jpg	0.0	226.15599810436788	0.38329972712563176
350.0	175.40489513655757	ISI	1.0		7.0	place	corridor-142.jpg	0.0	226.5392978314935	0.11669483953573945
351.0	175.5215899760933	corridor	0.0		46.0	place	corridor-116.jpg	0.0	226.65599267102925	0.38325807152659763
351.0	175.9048480476199	ISI	1.0		7.0	place	corridor-116.jpg	0.0	227.03925074255585	0.11670208398754767
351.0	175.99669683175944	pulse	1.0	t		place	corridor-116.jpg	0.0	227.13109952669538	
352.0	176.02155013160746	corridor	0.0		46.0	place	corridor-143.jpg	0.0	227.1559528265434	0.38328433266497086
352.0	176.40483446427243	ISI	1.0		7.0	place	corridor-143.jpg	0.0	227.53923715920837	0.11669725435285727
353.0	176.52153171862528	corridor	0.0		46.0	place	corridor-91.jpg	0.0	227.65593441356123	0.38328674748254343
353.0	176.90481846610783	ISI	1.0		7.0	place	corridor-91.jpg	0.0	228.03922116104377	0.11670208398754767
354.0	177.02152055009537	corridor	0.0		46.0	place	corridor-17.jpg	0.0	228.15592324503132	0.3832831252566393
354.0	177.404803675352	ISI	1.0		7.0	place	corridor-17.jpg	0.0	228.53920637028796	0.1166996691699751
355.0	177.521503344522	corridor	0.0		46.0	place	corridor-129.jpg	0.0	228.65590603945793	0.3832861437781503
355.0	177.90478948830014	ISI	1.0		7.0	place	corridor-129.jpg	0.0	229.03919218323608	0.11669997102217167
355.0	177.99656160198947	pulse	1.0	t		place	corridor-129.jpg	0.0	229.1309642969254	
356.0	178.0214894593223	corridor	0.0		46.0	place	corridor-70.jpg	0.0	229.15589215425825	0.3832985197168455
356.0	178.40478797903916	ISI	1.0		7.0	place	corridor-70.jpg	0.0	229.5391906739751	0.11668880249226277
357.0	178.52147678153142	corridor	0.0		46.0	place	corridor-87.jpg	0.0	229.65587947646736	0.3832831252566393
357.0	178.90475990678806	ISI	1.0		7.0	place	corridor-87.jpg	0.0	230.039162601724	0.11669785805679567
358.0	179.02145776484485	corridor	0.0		46.0	place	corridor-135.jpg	0.0	230.1558604597808	0.3832858419259537
358.0	179.4047436067708	ISI	1.0		7.0	place	corridor-135.jpg	0.0	230.53914630170675	0.11670298954413738
359.0	179.52144659631495	corridor	0.0		46.0	place	corridor-66.jpg	0.0	230.6558492912509	0.3832801067346736
359.0	179.90472670304962	ISI	1.0		11.0	place	corridor-66.jpg	0.0	231.03912939798556	0.10000362222626791
359.0	179.9964903648788	pulse	1.0	t		place	corridor-66.jpg	0.0	231.13089305981475	
360.0	180.0047303252759	baseline	0.0		48.0		baseline	0.0	231.13913302021183	0.3999849073916266
360.0	180.4047152326675	ISI	1.0		11.0		baseline	0.0	231.53911792760346	0.10000120740869534
361.0	180.5047164400762	baseline	0.0		48.0		baseline	0.0	231.63911913501215	0.39998188887011565
361.0	180.90469832894632	ISI	1.0		11.0		baseline	0.0	232.03910102388227	0.09999064258272483
362.0	181.00468897152905	baseline	0.0		48.0		baseline	0.0	232.139091666465	0.39999728333077655
362.0	181.40468625485983	ISI	1.0		11.0		baseline	0.0	232.53908894979577	0.10000724445171727
363.0	181.50469349931154	baseline	0.0		48.0		baseline	0.0	232.6390961942475	0.4000467870855573
363.0	181.9047402863971	ISI	1.0		11.0		baseline	0.0	233.03914298133304	0.10000392407800973
363.0	181.9966195576053	pulse	1.0	t			baseline	0.0	233.13102225254124	
364.0	182.0047442104751	baseline	0.0		48.0		baseline	0.0	233.13914690541105	0.3999806814617841
364.0	182.4047248919369	ISI	1.0		11.0		baseline	0.0	233.53912758687284	0.10000935741709327
365.0	182.504734249354	baseline	0.0		48.0		baseline	0.0	233.63913694428993	0.39997826664421154
365.0	182.9047125159982	ISI	1.0		11.0		baseline	0.0	234.03911521093414	0.09999547221741523
366.0	183.0047079882156	baseline	0.0		48.0		baseline	0.0	234.13911068315156	0.3999891333219239
366.0	183.40469712153754	ISI	1.0		11.0		baseline	0.0	234.53909981647348	0.09999275554810083
367.0	183.50468987708564	baseline	0.0		48.0		baseline	0.0	234.63909257202158	0.39999064258290673
367.0	183.90468051966855	ISI	1.0		11.0		baseline	0.0	235.0390832146045	0.09999879259112276
367.0	183.99645836854916	pulse	1.0	t			baseline	0.0	235.1308610634851	
368.0	184.00467931225967	baseline	0.0		48.0		baseline	0.0	235.1390820071956	0.3999873222091992
368.0	184.40466663446887	ISI	1.0		11.0		baseline	0.0	235.5390693294048	0.10000090555649876
369.0	184.50466754002537	baseline	0.0		48.0		baseline	0.0	235.6390702349613	0.3999843036876882
369.0	184.90465184371305	ISI	1.0		11.0		baseline	0.0	236.039054538649	0.09999818888672962
370.0	185.00465003259978	baseline	0.0		48.0		baseline	0.0	236.13905272753573	0.3999843036876882
370.0	185.40463433628747	ISI	1.0		11.0		baseline	0.0	236.53903703122342	0.09999788703453305
371.0	185.504632223322	baseline	0.0		48.0		baseline	0.0	236.63903491825795	0.39998037960958754
371.0	185.9046126029316	ISI	1.0		7.0		baseline	0.0	237.03901529786754	0.12499577406970275
371.0	185.9963998092294	pulse	1.0	t			baseline	0.0	237.13080250416533	
372.0	186.0296083770013	limb	0.0		45.0	body	limb-57.jpg	0.0	237.16401107193724	0.37496045736634187
372.0	186.40456883436764	ISI	1.0		7.0	body	limb-57.jpg	0.0	237.53897152930358	0.11670087657876138
373.0	186.5212697109464	limb	0.0		46.0	body	limb-11.jpg	0.0	237.65567240588234	0.38328342710838115
373.0	186.90455313805478	ISI	1.0		7.0	body	limb-11.jpg	0.0	238.03895583299072	0.1166906136054422
374.0	187.02124375166022	limb	0.0		46.0	body	limb-45.jpg	0.0	238.15564644659617	0.3832964067514695
374.0	187.4045401584117	ISI	1.0		7.0	body	limb-45.jpg	0.0	238.53894285334763	0.1166996691699751
375.0	187.52123982758167	limb	0.0		46.0	body	limb-105.jpg	0.0	238.6556425225176	0.38328403081322904
375.0	187.9045238583949	ISI	1.0		7.0	body	limb-105.jpg	0.0	239.03892655333084	0.12503833522487184
375.0	187.99633430730955	pulse	1.0	t		body	limb-105.jpg	0.0	239.1307370022455	
376.0	188.02956219361977	limb	0.0		45.0	body	limb-55.jpg	0.0	239.1639648885557	0.37494747772325354
376.0	188.40450967134302	ISI	1.0		7.0	body	limb-55.jpg	0.0	239.53891236627896	0.11670117843095795
377.0	188.52121084977398	limb	0.0		46.0	body	limb-55.jpg	1.0	239.65561354470992	0.38328191784785304
377.0	188.90449276762183	ISI	1.0		7.0	body	limb-55.jpg	1.0	240.03889546255778	0.11668880249226277
378.0	189.0211815701141	limb	0.0		46.0	body	limb-139.jpg	0.0	240.15558426505004	0.3832967086041208
378.0	189.40447827871822	ISI	1.0		7.0	body	limb-139.jpg	0.0	240.53888097365416	0.11670208398709292
379.0	189.5211803627053	limb	0.0		46.0	body	limb-94.jpg	0.0	240.65558305764125	0.38328040858732493
379.0	189.90446077129263	ISI	1.0		7.0	body	limb-94.jpg	0.0	241.03886346622858	0.12502837410329448
379.0	189.99628087947622	pulse	1.0	t		body	limb-94.jpg	0.0	241.13068357441216	
380.0	190.02948914539593	limb	0.0		45.0	body	limb-31.jpg	0.0	241.16389184033187	0.37495442032331994
380.0	190.40444356571925	ISI	1.0		7.0	body	limb-31.jpg	0.0	241.5388462606552	0.11670932843935589
381.0	190.5211528941586	limb	0.0		46.0	body	limb-71.jpg	0.0	241.65555558909455	0.3832801067346736
381.0	190.90443300089328	ISI	1.0		7.0	body	limb-71.jpg	0.0	242.03883569582922	0.11670238583974424
382.0	191.02113538673302	limb	0.0		46.0	body	limb-87.jpg	0.0	242.15553808166896	0.3832822197000496
382.0	191.40441760643307	ISI	1.0		7.0	body	limb-87.jpg	0.0	242.53882030136901	0.11669393397869499
383.0	191.52111154041177	limb	0.0		46.0	body	limb-138.jpg	0.0	242.6555142353477	0.3832945956387448
383.0	191.9044061360505	ISI	1.0		7.0	body	limb-138.jpg	0.0	243.03880883098645	0.1250335055906362
383.0	191.99622654608675	pulse	1.0	t		body	limb-138.jpg	0.0	243.1306292410227	
384.0	192.02943964164115	instrument	0.0		45.0	object	instrument-54.jpg	0.0	243.1638423365771	0.3749504962447645
384.0	192.4043901378859	ISI	1.0		7.0	object	instrument-54.jpg	0.0	243.53879283282185	0.1167017821353511
385.0	192.52109192002126	instrument	0.0		46.0	object	instrument-65.jpg	0.0	243.6554946149572	0.3832831252561846
385.0	192.90437504527745	ISI	1.0		7.0	object	instrument-65.jpg	0.0	244.0387777402134	0.11670148028315452
386.0	193.0210765255606	instrument	0.0		46.0	object	instrument-58.jpg	0.0	244.15547922049655	0.3832825215522462
386.0	193.40435904711285	ISI	1.0		7.0	object	instrument-58.jpg	0.0	244.5387617420488	0.11670268769194081
387.0	193.5210617348048	instrument	0.0		46.0	object	instrument-88.jpg	0.0	244.65546442974073	0.3832888604474647
387.0	193.90435059525225	ISI	1.0		7.0	object	instrument-88.jpg	0.0	245.0387532901882	0.12501569631285747
387.0	193.9961613460191	pulse	1.0	t		object	instrument-88.jpg	0.0	245.13056404095505	
388.0	194.0293662915651	instrument	0.0		45.0	object	instrument-112.jpg	0.0	245.16376898650105	0.37496136292247684
388.0	194.4043276544876	ISI	1.0		7.0	object	instrument-112.jpg	0.0	245.53873034942353	0.11668216174484769
389.0	194.52100981623244	instrument	0.0		46.0	object	instrument-12.jpg	0.0	245.65541251116838	0.38331300862091666
389.0	194.90432282485335	ISI	1.0		7.0	object	instrument-12.jpg	0.0	246.0387255197893	0.11669544323967784
390.0	195.02101826809303	instrument	0.0		46.0	object	instrument-107.jpg	0.0	246.15542096302897	0.38325052522259284
390.0	195.40426879331562	ISI	1.0		7.0	object	instrument-107.jpg	0.0	246.53867148825157	0.11668125618780323
391.0	195.52095004950343	instrument	0.0		46.0	object	instrument-14.jpg	0.0	246.65535274443937	0.38331542343848923
391.0	195.90426547294192	ISI	1.0		7.0	object	instrument-14.jpg	0.0	247.03866816787786	0.11668729323127991
391.0	195.99603909589223	pulse	1.0	t		object	instrument-14.jpg	0.0	247.13044179082817	
392.0	196.0209527661732	instrument	0.0		46.0	object	instrument-19.jpg	0.0	247.15535546110914	0.3832888604474647
392.0	196.40424162662066	ISI	1.0		7.0	object	instrument-19.jpg	0.0	247.5386443215566	0.1167367969865154
393.0	196.52097842360718	instrument	0.0		46.0	object	instrument-34.jpg	0.0	247.65538111854312	0.3832462992922956
393.0	196.90422472289947	ISI	1.0		7.0	object	instrument-34.jpg	0.0	248.03862741783541	0.11667491729258472
394.0	197.02089964019206	instrument	0.0		46.0	object	instrument-72.jpg	0.0	248.155302335128	0.3833099900994057
394.0	197.40420963029146	ISI	1.0		7.0	object	instrument-72.jpg	0.0	248.5386123252274	0.11669061360498745
395.0	197.52090024389645	instrument	0.0		46.0	object	instrument-92.jpg	0.0	248.6553029388324	0.38329519934313794
395.0	197.9041954432396	ISI	1.0		7.0	object	instrument-92.jpg	0.0	249.03859813817553	0.11670268769148606
395.0	197.99597057545088	pulse	1.0	t		object	instrument-92.jpg	0.0	249.13037327038683	
396.0	198.02089813093107	child	0.0		46.0	face	child-36.jpg	0.0	249.15530082586702	0.3832819178483078
396.0	198.40418004877938	ISI	1.0		7.0	face	child-36.jpg	0.0	249.53858274371532	0.1166996691699751
397.0	198.52087971794936	child	0.0		46.0	face	child-114.jpg	0.0	249.6552824128853	0.38328554007375715
397.0	198.9041652580231	ISI	1.0		7.0	face	child-114.jpg	0.0	250.03856795295906	0.11669846176118881
398.0	199.0208637197843	child	0.0		46.0	face	child-81.jpg	0.0	250.15526641472024	0.38329338823041326
398.0	199.40415710801472	ISI	1.0		7.0	face	child-81.jpg	0.0	250.53855980295066	0.11669272657036345
399.0	199.52084983458508	child	0.0		46.0	face	child-79.jpg	0.0	250.65525252952102	0.38328704933428526
399.0	199.63758934824045	response	0.0	b		face	child-79.jpg	0.0	250.7719920431764	
399.0	199.90413688391936	ISI	1.0		7.0	face	child-79.jpg	0.0	251.0385395788553	0.11669604694407099
399.0	199.99591020501794	pulse	1.0	t		face	child-79.jpg	0.0	251.13031289995388	
400.0	200.02083293086343	child	0.0		46.0	face	child-118.jpg	0.0	251.15523562579938	0.38329610489972765
400.0	200.40412903576316	ISI	1.0		7.0	face	child-118.jpg	0.0	251.5385317306991	0.1166921228659703
401.0	200.52082115862913	child	0.0		46.0	face	child-101.jpg	0.0	251.65522385356508	0.3832873511869366
401.0	200.90410850981607	ISI	1.0		7.0	face	child-101.jpg	0.0	252.038511204752	0.11669755620505384
402.0	201.02080606602112	child	0.0		46.0	face	child-90.jpg	0.0	252.15520876095707	0.383318743811742
402.0	201.40412480983287	ISI	1.0		7.0	face	child-90.jpg	0.0	252.5385275047688	0.11669876361384013
403.0	201.5208235734467	child	0.0		46.0	face	child-140.jpg	0.0	252.65522626838265	0.3832909734128407
403.0	201.90411454685955	ISI	1.0		7.0	face	child-140.jpg	0.0	253.0385172417955	0.12500965926892604
403.0	201.9959415976432	pulse	1.0	t		face	child-140.jpg	0.0	253.13034429257914	
404.0	202.02912420612847	child	0.0		45.0	face	child-96.jpg	0.0	253.16352690106442	0.374968305522998
404.0	202.40409251165147	ISI	1.0		7.0	face	child-96.jpg	0.0	253.5384952065874	0.11668397285711762
405.0	202.5207764845086	child	0.0		46.0	face	child-87.jpg	0.0	253.65517917944453	0.38330455676032216
405.0	202.9040810412689	ISI	1.0		7.0	face	child-87.jpg	0.0	254.03848373620485	0.11668185989265112
406.0	203.02076290116156	child	0.0		46.0	face	child-35.jpg	0.0	254.1551655960975	0.3833075752818331
406.0	203.4040704764434	ISI	1.0		7.0	face	child-35.jpg	0.0	254.53847317137934	0.11669634879626756
407.0	203.52076682523966	child	0.0		46.0	face	child-27.jpg	0.0	254.6551695201756	0.3832810122912633
407.0	203.90404783753092	ISI	1.0		7.0	face	child-27.jpg	0.0	255.03845053246687	0.12503592040775402
407.0	203.9958682475667	pulse	1.0	t		face	child-27.jpg	0.0	255.13027094250265	
408.0	204.02908375793868	number	0.0		45.0	character	number-107.jpg	0.0	255.16348645287462	0.3749447610534844
408.0	204.40402851899216	ISI	1.0		7.0	character	number-107.jpg	0.0	255.5384312139281	0.11668427470976894
409.0	204.52071279370193	number	0.0		46.0	character	number-42.jpg	0.0	255.65511548863788	0.3833078771340297
409.0	204.90402067083596	ISI	1.0		7.0	character	number-42.jpg	0.0	256.0384233657719	0.11669815990944699
410.0	205.0207188307454	number	0.0		46.0	character	number-15.jpg	0.0	256.15512152568135	0.38328704933474
410.0	205.40400588008015	ISI	1.0		7.0	character	number-15.jpg	0.0	256.5384085750161	0.11669936731777852
411.0	205.52070524739793	number	0.0		46.0	character	number-34.jpg	0.0	256.65510794233387	0.38328433266497086
411.0	205.9039895800629	ISI	1.0		7.0	character	number-34.jpg	0.0	257.03839227499884	0.1250362222599506
411.0	205.99580153823854	pulse	1.0	t		character	number-34.jpg	0.0	257.1302042331745	
412.0	206.02902580232285	number	0.0		45.0	character	number-116.jpg	0.0	257.1634284972588	0.37495592958384805
412.0	206.4039817319067	ISI	1.0		7.0	character	number-116.jpg	0.0	257.53838442684264	0.1166942358313463
413.0	206.52067596773804	number	0.0		46.0	character	number-141.jpg	0.0	257.655078662674	0.38328282340444275
413.0	206.9039587911425	ISI	1.0		7.0	character	number-141.jpg	0.0	258.03836148607843	0.11670238583928949
414.0	207.02066117698178	number	0.0		46.0	character	number-58.jpg	0.0	258.1550638719177	0.3832843326654256
414.0	207.4039455096472	ISI	1.0		7.0	character	number-58.jpg	0.0	258.53834820458314	0.11668819878741488
415.0	207.52063370843462	number	0.0		46.0	character	number-28.jpg	0.0	258.65503640337056	0.3832629011617428
415.0	207.90389660959636	ISI	1.0		7.0	character	number-28.jpg	0.0	259.0382993045323	0.1166996691699751
415.0	207.99567687329454	pulse	1.0	t		character	number-28.jpg	0.0	259.1300795682305	
416.0	208.02059627876633	number	0.0		46.0	character	number-132.jpg	0.0	259.1549989737023	0.38328554007375715
416.0	208.4038818188401	ISI	1.0		7.0	character	number-132.jpg	0.0	259.53828451377603	0.1166996691699751
417.0	208.52058148801007	number	0.0		46.0	character	number-81.jpg	0.0	259.654984182946	0.38328674748254343
417.0	208.9038682354926	ISI	1.0		7.0	character	number-81.jpg	0.0	260.03827093042855	0.11669846176164356
418.0	209.02056669725425	number	0.0		46.0	character	number-101.jpg	0.0	260.1549693921902	0.3832936900821551
418.0	209.4038603873364	ISI	1.0		7.0	character	number-101.jpg	0.0	260.53826308227235	0.11669121730938059
419.0	209.5205516046458	number	0.0		46.0	character	number-94.jpg	0.0	260.65495429958173	0.3832843326654256
419.0	209.90383593731121	ISI	1.0		7.0	character	number-94.jpg	0.0	261.03823863224716	0.11668427470976894
419.0	209.9956107676703	pulse	1.0	t		character	number-94.jpg	0.0	261.13001346260626	
420.0	210.02052021202098	number	0.0		46.0	character	number-118.jpg	0.0	261.1549229069569	0.3833030474993393
420.0	210.40382325952032	ISI	1.0		7.0	character	number-118.jpg	0.0	261.53822595445627	0.11669906546558195
421.0	210.5205223249859	number	0.0		46.0	character	number-36.jpg	0.0	261.65492501992185	0.3832831252566393
421.0	210.90380545024254	ISI	1.0		7.0	character	number-36.jpg	0.0	262.0382081451785	0.11668548211810048
422.0	211.02049093236064	number	0.0		46.0	character	number-142.jpg	0.0	262.1548936272966	0.3832976141607105
422.0	211.40378854652135	ISI	1.0		7.0	character	number-142.jpg	0.0	262.5381912414573	0.1166815580399998
423.0	211.52047010456135	number	0.0		46.0	character	number-96.jpg	0.0	262.6548727994973	0.38330485861251873
423.0	211.90377496317387	ISI	1.0		7.0	character	number-96.jpg	0.0	263.0381776581098	0.11668487841416209
423.0	211.9955525102023	pulse	1.0	t		character	number-96.jpg	0.0	263.12995520513823	
424.0	212.02045984158804	number	0.0		46.0	character	number-16.jpg	0.0	263.154862536524	0.3833030474993393
424.0	212.40376288908737	ISI	1.0		7.0	character	number-16.jpg	0.0	263.5381655840233	0.11669936731777852
425.0	212.52046225640515	number	0.0		46.0	character	number-82.jpg	0.0	263.6548649513411	0.3832967086041208
425.0	212.90375896500927	ISI	1.0		7.0	character	number-82.jpg	0.0	264.0381616599452	0.1166975562045991
426.0	213.02045652121387	number	0.0		46.0	character	number-24.jpg	0.0	264.1548592161498	0.3832770882136174
426.0	213.4037336094275	ISI	1.0		7.0	character	number-24.jpg	0.0	264.53813630436343	0.11668125618780323
427.0	213.5204148656153	number	0.0		46.0	character	number-54.jpg	0.0	264.65481756055124	0.3833320253070269
427.0	213.90374689092232	ISI	1.0		7.0	character	number-54.jpg	0.0	265.03814958585826	0.12502052594754787
427.0	213.99563733066088	pulse	1.0	t		character	number-54.jpg	0.0	265.1300400255968	
428.0	214.02876741686987	number	0.0		45.0	character	number-18.jpg	0.0	265.1631701118058	0.3749677018181501
428.0	214.40373511868802	ISI	1.0		7.0	character	number-18.jpg	0.0	265.53813781362396	0.11669604694407099
429.0	214.5204311656321	number	0.0		46.0	character	number-70.jpg	0.0	265.65483386056803	0.38329006785625097
429.0	214.90372123348834	ISI	1.0		7.0	character	number-70.jpg	0.0	266.0381239284243	0.11670238583974424
430.0	215.02042361932808	number	0.0		46.0	character	number-117.jpg	0.0	266.154826314264	0.38328372896103247
430.0	215.40370734828912	ISI	1.0		7.0	character	number-117.jpg	0.0	266.53811004322506	0.11670148028269978
431.0	215.52040882857182	number	0.0		46.0	character	number-84.jpg	0.0	266.65481152350776	0.38328131414391464
431.0	215.90369014271573	ISI	1.0		11.0	character	number-84.jpg	0.0	267.0380928376517	0.1000383352247809
431.0	215.9955084397866	pulse	1.0	t		character	number-84.jpg	0.0	267.12991113472253	
432.0	216.0037284779405	baseline	0.0		48.0		baseline	0.0	267.13813117287646	0.3999873222091992
432.0	216.4037158001497	ISI	1.0		11.0		baseline	0.0	267.53811849508566	0.10004859819855483
433.0	216.50376439834827	baseline	0.0		48.0		baseline	0.0	267.6381670932842	0.39994204438426095
433.0	216.90370644273253	ISI	1.0		11.0		baseline	0.0	268.03810913766847	0.09999184999151112
434.0	217.00369829272404	baseline	0.0		48.0		baseline	0.0	268.13810098766	0.39998551109601976
434.0	217.40368380382006	ISI	1.0		11.0		baseline	0.0	268.538086498756	0.10000875371270013
435.0	217.50369255753276	baseline	0.0		48.0		baseline	0.0	268.6380952524687	0.3999785684964081
435.0	217.90367112602917	ISI	1.0		11.0		baseline	0.0	269.0380738209651	0.09999728333059466
435.0	217.99544505083168	pulse	1.0	t			baseline	0.0	269.1298477457676	
436.0	218.00366840935976	baseline	0.0		48.0		baseline	0.0	269.1380711042957	0.3999864166526095
436.0	218.40365482601237	ISI	1.0		11.0		baseline	0.0	269.5380575209483	0.09999728333059466
437.0	218.50365210934297	baseline	0.0		48.0		baseline	0.0	269.6380548042789	0.399989737026317
437.0	218.90364184636928	ISI	1.0		11.0		baseline	0.0	270.0380445413052	0.09999667962620151
438.0	219.00363852599548	baseline	0.0		48.0		baseline	0.0	270.1380412209314	0.39999426480881084
438.0	219.4036327908043	ISI	1.0		11.0		baseline	0.0	270.53803548574024	0.09999275554810083
439.0	219.5036255463524	baseline	0.0		48.0		baseline	0.0	270.63802824128834	0.39997887034814994
439.0	219.90360441670055	ISI	1.0		11.0		baseline	0.0	271.0380071116365	0.10000120740869534
439.0	219.9954824805004	pulse	1.0	t			baseline	0.0	271.12988517543636	
440.0	220.00360562410924	baseline	0.0		48.0		baseline	0.0	271.1380083190452	0.4000045277825848
440.0	220.40361015189183	ISI	1.0		11.0		baseline	0.0	271.53801284682777	0.09997615367910839
441.0	220.50358630557093	baseline	0.0		48.0		baseline	0.0	271.6379890005069	0.40000181111281563
441.0	220.90358811668375	ISI	1.0		11.0		baseline	0.0	272.0379908116197	0.09998913332219672
442.0	221.00357725000595	baseline	0.0		48.0		baseline	0.0	272.1379799449419	0.3999861148004129
442.0	221.40356336480636	ISI	1.0		11.0		baseline	0.0	272.5379660597423	0.09999969814771248
